eventStartTime,eventEndTime,eventCond,imSize,imFile,repeatedImage,responseEvent,Events.thisRepN,Events.thisTrialN,Events.thisN,Events.thisIndex,Instructions.started,Instructions.stopped,participantReadyResponse.keys,participantReadyResponse.rt,participantReadyResponse.started,participantReadyResponse.stopped,startWaitforTrigger,triggerResponse.keys,triggerResponse.rt,triggerResponse.started,triggerResponse.stopped,globalTimer,actualStartTime,startTimingDiff,participantResponse.keys,participantResponse.rt,participantResponse.started,participantResponse.stopped,image.started,image.stopped,fixationOutside.started,fixationOutside.stopped,fixationInside.started,fixationInside.stopped,session,participant,date,expName,psychopyVersion,frameRate,
,,,,,,,,,,,10.213507199994638,None,3,1.5025955999954022,10.213507199994638,None,,,,,,,,,,,,,,,,,,,001,P001,2025_Jan_17_1836,CategoryLocalizer,2021.2.3,59.9431978267469,
,,,,,,,,,,,,,,,,,11.734860099997604,5,19.47781489999761,11.747564499994041,None,,,,,,,,,,,,,,001,P001,2025_Jan_17_1836,CategoryLocalizer,2021.2.3,59.9431978267469,
0.0,12.0,0,0.0,Stimuli\Blank.png,0,0,0,0,0,0,,,,,,,,,,,,31.23532569999952,0.031693700002506375,0.031693700002506375,5,11.943592399999034,31.28154569999606,None,31.28154569999606,None,31.28154569999606,None,31.28154569999606,None,001,P001,2025_Jan_17_1836,CategoryLocalizer,2021.2.3,59.9431978267469,
12.0,12.8,1,0.75,Stimuli\ImageFiles-Set1\Objects\Object_Box_00001.png,0,0,0,1,1,1,,,,,,,,,,,,,12.011808600000222,0.011808600000222214,None,,43.27547449999838,43.27547449999838,43.27547449999838,43.27547449999838,43.27547449999838,43.27547449999838,43.27547449999838,43.27547449999838,001,P001,2025_Jan_17_1836,CategoryLocalizer,2021.2.3,59.9431978267469,
12.8,13.0,5,0.0,Stimuli\Blank.png,0,0,0,2,2,2,,,,,,,,,,,,,12.826363900006982,0.026363900006980856,None,,44.07619399999385,44.07619399999385,44.07619399999385,44.07619399999385,44.07619399999385,44.07619399999385,44.07619399999385,44.07619399999385,001,P001,2025_Jan_17_1836,CategoryLocalizer,2021.2.3,59.9431978267469,
13.0,13.8,1,0.75,Stimuli\ImageFiles-Set1\Objects\Object_Canoe_00001.png,0,0,0,3,3,3,,,,,,,,,,,,,13.010791700005939,0.010791700005938765,None,,44.25969249999616,44.25969249999616,44.25969249999616,44.25969249999616,44.25969249999616,44.25969249999616,44.25969249999616,44.25969249999616,001,P001,2025_Jan_17_1836,CategoryLocalizer,2021.2.3,59.9431978267469,
13.8,14.0,5,0.0,Stimuli\Blank.png,0,0,0,4,4,4,,,,,,,,,,,,,13.811278900000616,0.011278900000615266,5,0.16470029999618419,45.060390599996026,45.060390599996026,45.060390599996026,45.060390599996026,45.060390599996026,45.060390599996026,45.060390599996026,45.060390599996026,001,P001,2025_Jan_17_1836,CategoryLocalizer,2021.2.3,59.9431978267469,
14.0,14.8,1,0.75,Stimuli\ImageFiles-Set1\Objects\Object_Walnut_00001.png,0,0,0,5,5,5,,,,,,,,,,,,,14.011138600006234,0.0111386000062339,None,,45.277260099996056,45.277260099996056,45.277260099996056,45.277260099996056,45.277260099996056,45.277260099996056,45.277260099996056,45.277260099996056,001,P001,2025_Jan_17_1836,CategoryLocalizer,2021.2.3,59.9431978267469,
14.8,15.0,5,0.0,Stimuli\Blank.png,0,0,0,6,6,6,,,,,,,,,,,,,14.829991000005975,0.029991000005974655,None,,46.09465729999647,46.09465729999647,46.09465729999647,46.09465729999647,46.09465729999647,46.09465729999647,46.09465729999647,46.09465729999647,001,P001,2025_Jan_17_1836,CategoryLocalizer,2021.2.3,59.9431978267469,
15.0,15.8,1,0.75,Stimuli\ImageFiles-Set1\Objects\Object_Pencil_00001.png,0,0,0,7,7,7,,,,,,,,,,,,,15.0289322000026,0.02893220000260044,None,,46.278141699993284,46.278141699993284,46.278141699993284,46.278141699993284,46.278141699993284,46.278141699993284,46.278141699993284,46.278141699993284,001,P001,2025_Jan_17_1836,CategoryLocalizer,2021.2.3,59.9431978267469,
15.8,16.0,5,0.0,Stimuli\Blank.png,0,0,0,8,8,8,,,,,,,,,,,,,15.812243700005638,0.012243700005637237,5,0.1629246000011335,47.062164699993446,47.062164699993446,47.062164699993446,47.062164699993446,47.062164699993446,47.062164699993446,47.062164699993446,47.062164699993446,001,P001,2025_Jan_17_1836,CategoryLocalizer,2021.2.3,59.9431978267469,
16.0,16.8,1,0.75,Stimuli\ImageFiles-Set1\Objects\Object_Toilet_00001.png,0,0,0,9,9,9,,,,,,,,,,,,,16.013112000000547,0.013112000000546686,None,,47.2623381999947,47.2623381999947,47.2623381999947,47.2623381999947,47.2623381999947,47.2623381999947,47.2623381999947,47.2623381999947,001,P001,2025_Jan_17_1836,CategoryLocalizer,2021.2.3,59.9431978267469,
16.8,17.0,5,0.0,Stimuli\Blank.png,0,0,0,10,10,10,,,,,,,,,,,,,16.814934200003336,0.014934200003335008,None,,48.07974749999994,48.07974749999994,48.07974749999994,48.07974749999994,48.07974749999994,48.07974749999994,48.07974749999994,48.07974749999994,001,P001,2025_Jan_17_1836,CategoryLocalizer,2021.2.3,59.9431978267469,
17.0,17.8,1,0.75,Stimuli\ImageFiles-Set1\Objects\Object_Table_00001.png,0,0,0,11,11,11,,,,,,,,,,,,,17.030454500003543,0.030454500003543217,None,,48.27990569999383,48.27990569999383,48.27990569999383,48.27990569999383,48.27990569999383,48.27990569999383,48.27990569999383,48.27990569999383,001,P001,2025_Jan_17_1836,CategoryLocalizer,2021.2.3,59.9431978267469,
17.8,18.0,5,0.0,Stimuli\Blank.png,0,0,0,12,12,12,,,,,,,,,,,,,17.814867900000536,0.014867900000535172,5,0.16144619999977294,49.063927299997886,49.063927299997886,49.063927299997886,49.063927299997886,49.063927299997886,49.063927299997886,49.063927299997886,49.063927299997886,001,P001,2025_Jan_17_1836,CategoryLocalizer,2021.2.3,59.9431978267469,
18.0,18.8,1,0.75,Stimuli\ImageFiles-Set1\Objects\Object_GarbageCan_00001.png,0,0,0,13,13,13,,,,,,,,,,,,,18.014310000005935,0.014310000005934853,None,,49.264104099995166,49.264104099995166,49.264104099995166,49.264104099995166,49.264104099995166,49.264104099995166,49.264104099995166,49.264104099995166,001,P001,2025_Jan_17_1836,CategoryLocalizer,2021.2.3,59.9431978267469,
18.8,19.0,5,0.0,Stimuli\Blank.png,0,0,0,14,14,14,,,,,,,,,,,,,18.815198000003875,0.015198000003874057,None,,50.06481319999875,50.06481319999875,50.06481319999875,50.06481319999875,50.06481319999875,50.06481319999875,50.06481319999875,50.06481319999875,001,P001,2025_Jan_17_1836,CategoryLocalizer,2021.2.3,59.9431978267469,
19.0,19.8,1,0.75,Stimuli\ImageFiles-Set1\Objects\Object_Key_00001.png,0,0,0,15,15,15,,,,,,,,,,,,,19.01633910000237,0.016339100002369378,None,,50.26500259999739,50.26500259999739,50.26500259999739,50.26500259999739,50.26500259999739,50.26500259999739,50.26500259999739,50.26500259999739,001,P001,2025_Jan_17_1836,CategoryLocalizer,2021.2.3,59.9431978267469,
19.8,20.0,5,0.0,Stimuli\Blank.png,0,0,0,16,16,16,,,,,,,,,,,,,19.79970200000389,-0.00029799999611057615,None,,51.04902479999873,51.04902479999873,51.04902479999873,51.04902479999873,51.04902479999873,51.04902479999873,51.04902479999873,51.04902479999873,001,P001,2025_Jan_17_1836,CategoryLocalizer,2021.2.3,59.9431978267469,
20.0,20.8,1,0.75,Stimuli\ImageFiles-Set1\Objects\Object_Stool_00001.png,0,0,0,17,17,17,,,,,,,,,,,,,19.999921500006167,-7.849999383324757e-05,None,,51.24919409999711,51.24919409999711,51.24919409999711,51.24919409999711,51.24919409999711,51.24919409999711,51.24919409999711,51.24919409999711,001,P001,2025_Jan_17_1836,CategoryLocalizer,2021.2.3,59.9431978267469,
20.8,21.0,5,0.0,Stimuli\Blank.png,0,0,0,18,18,18,,,,,,,,,,,,,20.800090000004275,9.000000427406007e-05,None,,52.049901899998076,52.049901899998076,52.049901899998076,52.049901899998076,52.049901899998076,52.049901899998076,52.049901899998076,52.049901899998076,001,P001,2025_Jan_17_1836,CategoryLocalizer,2021.2.3,59.9431978267469,
21.0,21.8,1,0.75,Stimuli\ImageFiles-Set1\Objects\Object_Stool_00001.png,1,1,0,19,19,19,,,,,,,,,,,,,21.000949500004936,0.000949500004935544,3,0.43610310000076424,52.25007999999798,52.25007999999798,52.25007999999798,52.25007999999798,52.25007999999798,52.25007999999798,52.25007999999798,52.25007999999798,001,P001,2025_Jan_17_1836,CategoryLocalizer,2021.2.3,59.9431978267469,
21.8,22.0,5,0.0,Stimuli\Blank.png,0,0,0,20,20,20,,,,,,,,,,,,,21.80152170000656,0.001521700006559712,None,,53.05078749999666,53.05078749999666,53.05078749999666,53.05078749999666,53.05078749999666,53.05078749999666,53.05078749999666,53.05078749999666,001,P001,2025_Jan_17_1836,CategoryLocalizer,2021.2.3,59.9431978267469,
22.0,22.8,1,0.75,Stimuli\ImageFiles-Set1\Objects\Object_Stroller_00001.png,0,0,0,21,21,21,,,,,,,,,,,,,22.001570000000356,0.0015700000003562309,None,,53.26764799999364,53.26764799999364,53.26764799999364,53.26764799999364,53.26764799999364,53.26764799999364,53.26764799999364,53.26764799999364,001,P001,2025_Jan_17_1836,CategoryLocalizer,2021.2.3,59.9431978267469,
22.8,23.0,5,0.0,Stimuli\Blank.png,0,0,0,22,22,22,,,,,,,,,,,,,22.820405700003903,0.020405700003902183,None,,54.08506049999414,54.08506049999414,54.08506049999414,54.08506049999414,54.08506049999414,54.08506049999414,54.08506049999414,54.08506049999414,001,P001,2025_Jan_17_1836,CategoryLocalizer,2021.2.3,59.9431978267469,
23.0,23.8,1,0.75,Stimuli\ImageFiles-Set1\Objects\Object_Pot_00001.png,0,0,0,23,23,23,,,,,,,,,,,,,23.020356400003948,0.020356400003947783,None,,54.2852350999965,54.2852350999965,54.2852350999965,54.2852350999965,54.2852350999965,54.2852350999965,54.2852350999965,54.2852350999965,001,P001,2025_Jan_17_1836,CategoryLocalizer,2021.2.3,59.9431978267469,
23.8,24.0,5,0.0,Stimuli\Blank.png,0,0,0,24,24,24,,,,,,,,,,,,,23.81955850000668,0.019558500006677804,None,,55.06925069999852,55.06925069999852,55.06925069999852,55.06925069999852,55.06925069999852,55.06925069999852,55.06925069999852,55.06925069999852,001,P001,2025_Jan_17_1836,CategoryLocalizer,2021.2.3,59.9431978267469,
24.0,24.8,1,0.75,Stimuli\ImageFiles-Set1\Objects\Object_Shirt_00001.png,0,0,0,25,25,25,,,,,,,,,,,,,24.003453600002103,0.003453600002103485,None,,55.25279909999517,55.25279909999517,55.25279909999517,55.25279909999517,55.25279909999517,55.25279909999517,55.25279909999517,55.25279909999517,001,P001,2025_Jan_17_1836,CategoryLocalizer,2021.2.3,59.9431978267469,
24.8,25.0,5,0.0,Stimuli\Blank.png,0,0,0,26,26,26,,,,,,,,,,,,,24.804529400003958,0.004529400003956852,None,,56.053464099997655,56.053464099997655,56.053464099997655,56.053464099997655,56.053464099997655,56.053464099997655,56.053464099997655,56.053464099997655,001,P001,2025_Jan_17_1836,CategoryLocalizer,2021.2.3,59.9431978267469,
25.0,25.8,1,0.75,Stimuli\ImageFiles-Set1\Objects\Object_Bench_00001.png,0,0,0,27,27,27,,,,,,,,,,,,,25.005513800002518,0.00551380000251811,None,,56.270307399994635,56.270307399994635,56.270307399994635,56.270307399994635,56.270307399994635,56.270307399994635,56.270307399994635,56.270307399994635,001,P001,2025_Jan_17_1836,CategoryLocalizer,2021.2.3,59.9431978267469,
25.8,26.0,5,0.0,Stimuli\Blank.png,0,0,0,28,28,28,,,,,,,,,,,,,25.821433000004617,0.021433000004616787,None,,57.071009599996614,57.071009599996614,57.071009599996614,57.071009599996614,57.071009599996614,57.071009599996614,57.071009599996614,57.071009599996614,001,P001,2025_Jan_17_1836,CategoryLocalizer,2021.2.3,59.9431978267469,
26.0,26.8,1,0.75,Stimuli\ImageFiles-Set1\Objects\Object_ComputerMouse_00001.png,0,0,0,29,29,29,,,,,,,,,,,,,26.0045237000013,0.004523700001300313,None,,57.25450369999453,57.25450369999453,57.25450369999453,57.25450369999453,57.25450369999453,57.25450369999453,57.25450369999453,57.25450369999453,001,P001,2025_Jan_17_1836,CategoryLocalizer,2021.2.3,59.9431978267469,
26.8,27.0,5,0.0,Stimuli\Blank.png,0,0,0,30,30,30,,,,,,,,,,,,,26.80566190000536,0.00566190000536082,None,,58.05522519999795,58.05522519999795,58.05522519999795,58.05522519999795,58.05522519999795,58.05522519999795,58.05522519999795,58.05522519999795,001,P001,2025_Jan_17_1836,CategoryLocalizer,2021.2.3,59.9431978267469,
27.0,27.8,1,0.75,Stimuli\ImageFiles-Set1\Objects\Object_Bottle_00001.png,0,0,0,31,31,31,,,,,,,,,,,,,27.006682100000035,0.006682100000034552,None,,58.27208909999899,58.27208909999899,58.27208909999899,58.27208909999899,58.27208909999899,58.27208909999899,58.27208909999899,58.27208909999899,001,P001,2025_Jan_17_1836,CategoryLocalizer,2021.2.3,59.9431978267469,
27.8,28.0,5,0.0,Stimuli\Blank.png,0,0,0,32,32,32,,,,,,,,,,,,,27.825102900002094,0.02510290000209281,5,0.13572879999992438,59.0894621999978,59.0894621999978,59.0894621999978,59.0894621999978,59.0894621999978,59.0894621999978,59.0894621999978,59.0894621999978,001,P001,2025_Jan_17_1836,CategoryLocalizer,2021.2.3,59.9431978267469,
28.0,28.8,2,0.75,Stimuli\ImageFiles-Set1\Bodies\Bodies_Crawling_00003.png,0,0,0,33,33,33,,,,,,,,,,,,,28.023043000001053,0.02304300000105286,None,,59.273058399994625,59.273058399994625,59.273058399994625,59.273058399994625,59.273058399994625,59.273058399994625,59.273058399994625,59.273058399994625,001,P001,2025_Jan_17_1836,CategoryLocalizer,2021.2.3,59.9431978267469,
28.8,29.0,5,0.0,Stimuli\Blank.png,0,0,0,34,34,34,,,,,,,,,,,,,28.807041000000027,0.007041000000025832,None,,60.05698249999841,60.05698249999841,60.05698249999841,60.05698249999841,60.05698249999841,60.05698249999841,60.05698249999841,60.05698249999841,001,P001,2025_Jan_17_1836,CategoryLocalizer,2021.2.3,59.9431978267469,
29.0,29.8,2,0.75,Stimuli\ImageFiles-Set1\Bodies\Bodies_SittingChair_00003.png,0,0,0,35,35,35,,,,,,,,,,,,,29.00805550000223,0.008055500002228655,None,,60.25715709999349,60.25715709999349,60.25715709999349,60.25715709999349,60.25715709999349,60.25715709999349,60.25715709999349,60.25715709999349,001,P001,2025_Jan_17_1836,CategoryLocalizer,2021.2.3,59.9431978267469,
29.8,30.0,5,0.0,Stimuli\Blank.png,0,0,0,36,36,36,,,,,,,,,,,,,29.80985760000476,0.00985760000476077,5,0.15065450000111014,61.07451689999289,61.07451689999289,61.07451689999289,61.07451689999289,61.07451689999289,61.07451689999289,61.07451689999289,61.07451689999289,001,P001,2025_Jan_17_1836,CategoryLocalizer,2021.2.3,59.9431978267469,
30.0,30.8,2,0.75,Stimuli\ImageFiles-Set1\Bodies\Bodies_QuadStretch_00003.png,0,0,0,37,37,37,,,,,,,,,,,,,30.025800000003073,0.025800000003073364,None,,61.27473039999313,61.27473039999313,61.27473039999313,61.27473039999313,61.27473039999313,61.27473039999313,61.27473039999313,61.27473039999313,001,P001,2025_Jan_17_1836,CategoryLocalizer,2021.2.3,59.9431978267469,
30.8,31.0,5,0.0,Stimuli\Blank.png,0,0,0,38,38,38,,,,,,,,,,,,,30.81135930000164,0.011359300001640094,None,,62.07543419999274,62.07543419999274,62.07543419999274,62.07543419999274,62.07543419999274,62.07543419999274,62.07543419999274,62.07543419999274,001,P001,2025_Jan_17_1836,CategoryLocalizer,2021.2.3,59.9431978267469,
31.0,31.8,2,0.75,Stimuli\ImageFiles-Set1\Bodies\Bodies_Kneeling_00005.png,0,0,0,39,39,39,,,,,,,,,,,,,31.02592100000038,0.025921000000380445,None,,62.275608099997044,62.275608099997044,62.275608099997044,62.275608099997044,62.275608099997044,62.275608099997044,62.275608099997044,62.275608099997044,001,P001,2025_Jan_17_1836,CategoryLocalizer,2021.2.3,59.9431978267469,
31.8,32.0,5,0.0,Stimuli\Blank.png,0,0,0,40,40,40,,,,,,,,,,,,,31.81086510000023,0.010865100000227557,5,0.16561129999900004,63.0596413999956,63.0596413999956,63.0596413999956,63.0596413999956,63.0596413999956,63.0596413999956,63.0596413999956,63.0596413999956,001,P001,2025_Jan_17_1836,CategoryLocalizer,2021.2.3,59.9431978267469,
32.0,32.8,2,0.75,Stimuli\ImageFiles-Set1\Bodies\Bodies_Standing_00005.png,0,0,0,41,41,41,,,,,,,,,,,,,32.010124300002644,0.010124300002644304,None,,63.25981559999491,63.25981559999491,63.25981559999491,63.25981559999491,63.25981559999491,63.25981559999491,63.25981559999491,63.25981559999491,001,P001,2025_Jan_17_1836,CategoryLocalizer,2021.2.3,59.9431978267469,
32.8,33.0,5,0.0,Stimuli\Blank.png,0,0,0,42,42,42,,,,,,,,,,,,,32.81100050000532,0.011000500005323488,None,,64.06053249999968,64.06053249999968,64.06053249999968,64.06053249999968,64.06053249999968,64.06053249999968,64.06053249999968,64.06053249999968,001,P001,2025_Jan_17_1836,CategoryLocalizer,2021.2.3,59.9431978267469,
33.0,33.8,2,0.75,Stimuli\ImageFiles-Set1\Bodies\Bodies_Standing_00005.png,1,1,0,43,43,43,,,,,,,,,,,,,33.01098220000131,0.010982200001308229,3,0.3174820999993244,64.2606994999951,64.2606994999951,64.2606994999951,64.2606994999951,64.2606994999951,64.2606994999951,64.2606994999951,64.2606994999951,001,P001,2025_Jan_17_1836,CategoryLocalizer,2021.2.3,59.9431978267469,
33.8,34.0,5,0.0,Stimuli\Blank.png,0,0,0,44,44,44,,,,,,,,,,,,,33.81211990000156,0.012119900001565043,5,0.1638429000013275,65.06141129999742,65.06141129999742,65.06141129999742,65.06141129999742,65.06141129999742,65.06141129999742,65.06141129999742,65.06141129999742,001,P001,2025_Jan_17_1836,CategoryLocalizer,2021.2.3,59.9431978267469,
34.0,34.8,2,0.75,Stimuli\ImageFiles-Set1\Bodies\Bodies_Standing_00001.png,0,0,0,45,45,45,,,,,,,,,,,,,34.01256800000556,0.012568000005558133,None,,65.27826979999372,65.27826979999372,65.27826979999372,65.27826979999372,65.27826979999372,65.27826979999372,65.27826979999372,65.27826979999372,001,P001,2025_Jan_17_1836,CategoryLocalizer,2021.2.3,59.9431978267469,
34.8,35.0,5,0.0,Stimuli\Blank.png,0,0,0,46,46,46,,,,,,,,,,,,,34.82994370000233,0.029943700002334595,None,,66.07898039999418,66.07898039999418,66.07898039999418,66.07898039999418,66.07898039999418,66.07898039999418,66.07898039999418,66.07898039999418,001,P001,2025_Jan_17_1836,CategoryLocalizer,2021.2.3,59.9431978267469,
35.0,35.8,2,0.75,Stimuli\ImageFiles-Set1\Bodies\Bodies_PushUp_00004.png,0,0,0,47,47,47,,,,,,,,,,,,,35.015130300002056,0.015130300002056174,None,,66.27911839999433,66.27911839999433,66.27911839999433,66.27911839999433,66.27911839999433,66.27911839999433,66.27911839999433,66.27911839999433,001,P001,2025_Jan_17_1836,CategoryLocalizer,2021.2.3,59.9431978267469,
35.8,36.0,5,0.0,Stimuli\Blank.png,0,0,0,48,48,48,,,,,,,,,,,,,35.8151926999999,0.015192699999900583,5,0.14530740000191145,67.07986689999962,67.07986689999962,67.07986689999962,67.07986689999962,67.07986689999962,67.07986689999962,67.07986689999962,67.07986689999962,001,P001,2025_Jan_17_1836,CategoryLocalizer,2021.2.3,59.9431978267469,
36.0,36.8,2,0.75,Stimuli\ImageFiles-Set1\Bodies\Bodies_Standing_00007.png,0,0,0,49,49,49,,,,,,,,,,,,,36.030001800005266,0.030001800005265977,None,,67.28001109999605,67.28001109999605,67.28001109999605,67.28001109999605,67.28001109999605,67.28001109999605,67.28001109999605,67.28001109999605,001,P001,2025_Jan_17_1836,CategoryLocalizer,2021.2.3,59.9431978267469,
36.8,37.0,5,0.0,Stimuli\Blank.png,0,0,0,50,50,50,,,,,,,,,,,,,36.81508380000014,0.015083800000141423,None,,68.06406759999663,68.06406759999663,68.06406759999663,68.06406759999663,68.06406759999663,68.06406759999663,68.06406759999663,68.06406759999663,001,P001,2025_Jan_17_1836,CategoryLocalizer,2021.2.3,59.9431978267469,
37.0,37.8,2,0.75,Stimuli\ImageFiles-Set1\Bodies\Bodies_DownwardDog_00007.png,0,0,0,51,51,51,,,,,,,,,,,,,37.0149007,0.014900699999998324,None,,68.28093989999616,68.28093989999616,68.28093989999616,68.28093989999616,68.28093989999616,68.28093989999616,68.28093989999616,68.28093989999616,001,P001,2025_Jan_17_1836,CategoryLocalizer,2021.2.3,59.9431978267469,
37.8,38.0,5,0.0,Stimuli\Blank.png,0,0,0,52,52,52,,,,,,,,,,,,,37.83217600000353,0.03217600000353116,5,0.14353119999577757,69.08165199999348,69.08165199999348,69.08165199999348,69.08165199999348,69.08165199999348,69.08165199999348,69.08165199999348,69.08165199999348,001,P001,2025_Jan_17_1836,CategoryLocalizer,2021.2.3,59.9431978267469,
38.0,38.8,2,0.75,Stimuli\ImageFiles-Set1\Bodies\Bodies_DownwardDog_00001.png,0,0,0,53,53,53,,,,,,,,,,,,,38.01593500000308,0.015935000003082678,None,,69.26511739999842,69.26511739999842,69.26511739999842,69.26511739999842,69.26511739999842,69.26511739999842,69.26511739999842,69.26511739999842,001,P001,2025_Jan_17_1836,CategoryLocalizer,2021.2.3,59.9431978267469,
38.8,39.0,5,0.0,Stimuli\Blank.png,0,0,0,54,54,54,,,,,,,,,,,,,38.80006170000706,6.170000706617884e-05,None,,70.04914559999452,70.04914559999452,70.04914559999452,70.04914559999452,70.04914559999452,70.04914559999452,70.04914559999452,70.04914559999452,001,P001,2025_Jan_17_1836,CategoryLocalizer,2021.2.3,59.9431978267469,
39.0,39.8,2,0.75,Stimuli\ImageFiles-Set1\Bodies\Bodies_Lunging_00001.png,0,0,0,55,55,55,,,,,,,,,,,,,38.99983190000057,-0.0001680999994277954,None,,70.26600469999539,70.26600469999539,70.26600469999539,70.26600469999539,70.26600469999539,70.26600469999539,70.26600469999539,70.26600469999539,001,P001,2025_Jan_17_1836,CategoryLocalizer,2021.2.3,59.9431978267469,
39.8,40.0,5,0.0,Stimuli\Blank.png,0,0,0,56,56,56,,,,,,,,,,,,,39.81674490000296,0.016744900002962027,None,,71.06671149999602,71.06671149999602,71.06671149999602,71.06671149999602,71.06671149999602,71.06671149999602,71.06671149999602,71.06671149999602,001,P001,2025_Jan_17_1836,CategoryLocalizer,2021.2.3,59.9431978267469,
40.0,40.8,2,0.75,Stimuli\ImageFiles-Set1\Bodies\Bodies_Punching_00003.png,0,0,0,57,57,57,,,,,,,,,,,,,40.00033340000664,0.00033340000663883984,None,,71.25018419999833,71.25018419999833,71.25018419999833,71.25018419999833,71.25018419999833,71.25018419999833,71.25018419999833,71.25018419999833,001,P001,2025_Jan_17_1836,CategoryLocalizer,2021.2.3,59.9431978267469,
40.8,41.0,5,0.0,Stimuli\Blank.png,0,0,0,58,58,58,,,,,,,,,,,,,40.80109160000575,0.0010916000057505926,None,,72.0509169999932,72.0509169999932,72.0509169999932,72.0509169999932,72.0509169999932,72.0509169999932,72.0509169999932,72.0509169999932,001,P001,2025_Jan_17_1836,CategoryLocalizer,2021.2.3,59.9431978267469,
41.0,41.8,2,0.75,Stimuli\ImageFiles-Set1\Bodies\Bodies_Lunging_00003.png,0,0,0,59,59,59,,,,,,,,,,,,,41.001660400004766,0.0016604000047664158,None,,72.25108429999818,72.25108429999818,72.25108429999818,72.25108429999818,72.25108429999818,72.25108429999818,72.25108429999818,72.25108429999818,001,P001,2025_Jan_17_1836,CategoryLocalizer,2021.2.3,59.9431978267469,
41.8,42.0,5,0.0,Stimuli\Blank.png,0,0,0,60,60,60,,,,,,,,,,,,,41.80211000000418,0.002110000004179824,None,,73.05179469999712,73.05179469999712,73.05179469999712,73.05179469999712,73.05179469999712,73.05179469999712,73.05179469999712,73.05179469999712,001,P001,2025_Jan_17_1836,CategoryLocalizer,2021.2.3,59.9431978267469,
42.0,42.8,2,0.75,Stimuli\ImageFiles-Set1\Bodies\Bodies_SittingStretch_00005.png,0,0,0,61,61,61,,,,,,,,,,,,,42.00195370000438,0.0019537000043783337,None,,73.25198039999668,73.25198039999668,73.25198039999668,73.25198039999668,73.25198039999668,73.25198039999668,73.25198039999668,73.25198039999668,001,P001,2025_Jan_17_1836,CategoryLocalizer,2021.2.3,59.9431978267469,
42.8,43.0,5,0.0,Stimuli\Blank.png,0,0,0,62,62,62,,,,,,,,,,,,,42.80515100000048,0.005151000000481076,None,,74.06939759999659,74.06939759999659,74.06939759999659,74.06939759999659,74.06939759999659,74.06939759999659,74.06939759999659,74.06939759999659,001,P001,2025_Jan_17_1836,CategoryLocalizer,2021.2.3,59.9431978267469,
43.0,43.8,2,0.75,Stimuli\ImageFiles-Set1\Bodies\Bodies_Hanging_00002.png,0,0,0,63,63,63,,,,,,,,,,,,,43.02060960000381,0.020609600003808737,None,,74.28622139999788,74.28622139999788,74.28622139999788,74.28622139999788,74.28622139999788,74.28622139999788,74.28622139999788,74.28622139999788,001,P001,2025_Jan_17_1836,CategoryLocalizer,2021.2.3,59.9431978267469,
43.8,44.0,5,0.0,Stimuli\Blank.png,0,0,0,64,64,64,,,,,,,,,,,,,43.8208467000004,0.020846700000404894,None,,75.07024689999525,75.07024689999525,75.07024689999525,75.07024689999525,75.07024689999525,75.07024689999525,75.07024689999525,75.07024689999525,001,P001,2025_Jan_17_1836,CategoryLocalizer,2021.2.3,59.9431978267469,
44.0,44.8,3,0.75,Stimuli\ImageFiles-Set1\Faces\Face_00059.png,0,0,0,65,65,65,,,,,,,,,,,,,44.003683400005684,0.003683400005684234,None,,75.25375319999876,75.25375319999876,75.25375319999876,75.25375319999876,75.25375319999876,75.25375319999876,75.25375319999876,75.25375319999876,001,P001,2025_Jan_17_1836,CategoryLocalizer,2021.2.3,59.9431978267469,
44.8,45.0,5,0.0,Stimuli\Blank.png,0,0,0,66,66,66,,,,,,,,,,,,,44.80579740000394,0.0057974000039422435,None,,76.0544649999938,76.0544649999938,76.0544649999938,76.0544649999938,76.0544649999938,76.0544649999938,76.0544649999938,76.0544649999938,001,P001,2025_Jan_17_1836,CategoryLocalizer,2021.2.3,59.9431978267469,
45.0,45.8,3,0.75,Stimuli\ImageFiles-Set1\Faces\Face_00039.png,0,0,0,67,67,67,,,,,,,,,,,,,45.00571520000085,0.005715200000850018,None,,76.27130659999966,76.27130659999966,76.27130659999966,76.27130659999966,76.27130659999966,76.27130659999966,76.27130659999966,76.27130659999966,001,P001,2025_Jan_17_1836,CategoryLocalizer,2021.2.3,59.9431978267469,
45.8,46.0,5,0.0,Stimuli\Blank.png,0,0,0,68,68,68,,,,,,,,,,,,,45.822755200002575,0.022755200002578135,None,,77.07210789999954,77.07210789999954,77.07210789999954,77.07210789999954,77.07210789999954,77.07210789999954,77.07210789999954,77.07210789999954,001,P001,2025_Jan_17_1836,CategoryLocalizer,2021.2.3,59.9431978267469,
46.0,46.8,3,0.75,Stimuli\ImageFiles-Set1\Faces\Face_00033.png,0,0,0,69,69,69,,,,,,,,,,,,,46.00583840000036,0.005838400000357069,None,,77.25550909999583,77.25550909999583,77.25550909999583,77.25550909999583,77.25550909999583,77.25550909999583,77.25550909999583,77.25550909999583,001,P001,2025_Jan_17_1836,CategoryLocalizer,2021.2.3,59.9431978267469,
46.8,47.0,5,0.0,Stimuli\Blank.png,0,0,0,70,70,70,,,,,,,,,,,,,46.80696360000002,0.006963600000020165,None,,78.0562226999973,78.0562226999973,78.0562226999973,78.0562226999973,78.0562226999973,78.0562226999973,78.0562226999973,78.0562226999973,001,P001,2025_Jan_17_1836,CategoryLocalizer,2021.2.3,59.9431978267469,
47.0,47.8,3,0.75,Stimuli\ImageFiles-Set1\Faces\Face_00107.png,0,0,0,71,71,71,,,,,,,,,,,,,47.0068653000053,0.006865300005301833,None,,78.2564030999929,78.2564030999929,78.2564030999929,78.2564030999929,78.2564030999929,78.2564030999929,78.2564030999929,78.2564030999929,001,P001,2025_Jan_17_1836,CategoryLocalizer,2021.2.3,59.9431978267469,
47.8,48.0,5,0.0,Stimuli\Blank.png,0,0,0,72,72,72,,,,,,,,,,,,,47.807310200005304,0.0073102000053069105,5,0.16808319999836385,79.05710509999335,79.05710509999335,79.05710509999335,79.05710509999335,79.05710509999335,79.05710509999335,79.05710509999335,79.05710509999335,001,P001,2025_Jan_17_1836,CategoryLocalizer,2021.2.3,59.9431978267469,
48.0,48.8,3,0.75,Stimuli\ImageFiles-Set1\Faces\Face_00071.png,0,0,0,73,73,73,,,,,,,,,,,,,48.00945290000527,0.009452900005271658,None,,79.27396689999296,79.27396689999296,79.27396689999296,79.27396689999296,79.27396689999296,79.27396689999296,79.27396689999296,79.27396689999296,001,P001,2025_Jan_17_1836,CategoryLocalizer,2021.2.3,59.9431978267469,
48.8,49.0,5,0.0,Stimuli\Blank.png,0,0,0,74,74,74,,,,,,,,,,,,,48.8258918000065,0.02589180000650515,None,,80.09138139999413,80.09138139999413,80.09138139999413,80.09138139999413,80.09138139999413,80.09138139999413,80.09138139999413,80.09138139999413,001,P001,2025_Jan_17_1836,CategoryLocalizer,2021.2.3,59.9431978267469,
49.0,49.8,3,0.75,Stimuli\ImageFiles-Set1\Faces\Face_00016.png,0,0,0,75,75,75,,,,,,,,,,,,,49.025516900001094,0.025516900001093745,None,,80.29152779999276,80.29152779999276,80.29152779999276,80.29152779999276,80.29152779999276,80.29152779999276,80.29152779999276,80.29152779999276,001,P001,2025_Jan_17_1836,CategoryLocalizer,2021.2.3,59.9431978267469,
49.8,50.0,5,0.0,Stimuli\Blank.png,0,0,0,76,76,76,,,,,,,,,,,,,49.82655910000176,0.026559100001762204,5,0.14958620000106748,81.07555489999504,81.07555489999504,81.07555489999504,81.07555489999504,81.07555489999504,81.07555489999504,81.07555489999504,81.07555489999504,001,P001,2025_Jan_17_1836,CategoryLocalizer,2021.2.3,59.9431978267469,
50.0,50.8,3,0.75,Stimuli\ImageFiles-Set1\Faces\Face_00009.png,0,0,0,77,77,77,,,,,,,,,,,,,50.00914520000515,0.0091452000051504,None,,81.2590671999933,81.2590671999933,81.2590671999933,81.2590671999933,81.2590671999933,81.2590671999933,81.2590671999933,81.2590671999933,001,P001,2025_Jan_17_1836,CategoryLocalizer,2021.2.3,59.9431978267469,
50.8,51.0,5,0.0,Stimuli\Blank.png,0,0,0,78,78,78,,,,,,,,,,,,,50.81118720000086,0.011187200000861708,None,,82.05976719999308,82.05976719999308,82.05976719999308,82.05976719999308,82.05976719999308,82.05976719999308,82.05976719999308,82.05976719999308,001,P001,2025_Jan_17_1836,CategoryLocalizer,2021.2.3,59.9431978267469,
51.0,51.8,3,0.75,Stimuli\ImageFiles-Set1\Faces\Face_00007.png,0,0,0,79,79,79,,,,,,,,,,,,,51.010881100002734,0.010881100002734456,None,,82.2766163999986,82.2766163999986,82.2766163999986,82.2766163999986,82.2766163999986,82.2766163999986,82.2766163999986,82.2766163999986,001,P001,2025_Jan_17_1836,CategoryLocalizer,2021.2.3,59.9431978267469,
51.8,52.0,5,0.0,Stimuli\Blank.png,0,0,0,80,80,80,,,,,,,,,,,,,51.82988590000605,0.029885900006050292,5,0.1311301000023377,83.09400689999893,83.09400689999893,83.09400689999893,83.09400689999893,83.09400689999893,83.09400689999893,83.09400689999893,83.09400689999893,001,P001,2025_Jan_17_1836,CategoryLocalizer,2021.2.3,59.9431978267469,
52.0,52.8,3,0.75,Stimuli\ImageFiles-Set1\Faces\Face_00091.png,0,0,0,81,81,81,,,,,,,,,,,,,52.03022060000512,0.030220600005122833,None,,83.2942022999996,83.2942022999996,83.2942022999996,83.2942022999996,83.2942022999996,83.2942022999996,83.2942022999996,83.2942022999996,001,P001,2025_Jan_17_1836,CategoryLocalizer,2021.2.3,59.9431978267469,
52.8,53.0,5,0.0,Stimuli\Blank.png,0,0,0,82,82,82,,,,,,,,,,,,,52.82888030000322,0.02888030000322317,None,,84.07821529999637,84.07821529999637,84.07821529999637,84.07821529999637,84.07821529999637,84.07821529999637,84.07821529999637,84.07821529999637,001,P001,2025_Jan_17_1836,CategoryLocalizer,2021.2.3,59.9431978267469,
53.0,53.8,3,0.75,Stimuli\ImageFiles-Set1\Faces\Face_00091.png,1,1,0,83,83,83,,,,,,,,,,,,,53.01164840000274,0.011648400002741255,3,0.4037555999966571,84.27839199999289,84.27839199999289,84.27839199999289,84.27839199999289,84.27839199999289,84.27839199999289,84.27839199999289,84.27839199999289,001,P001,2025_Jan_17_1836,CategoryLocalizer,2021.2.3,59.9431978267469,
53.8,54.0,5,0.0,Stimuli\Blank.png,0,0,0,84,84,84,,,,,,,,,,,,,53.829775600002904,0.0297756000029068,5,0.14604310000140686,85.07910969999648,85.07910969999648,85.07910969999648,85.07910969999648,85.07910969999648,85.07910969999648,85.07910969999648,85.07910969999648,001,P001,2025_Jan_17_1836,CategoryLocalizer,2021.2.3,59.9431978267469,
54.0,54.8,3,0.75,Stimuli\ImageFiles-Set1\Faces\Face_00081.png,0,0,0,85,85,85,,,,,,,,,,,,,54.01376140000502,0.01376140000502346,None,,85.27926569999545,85.27926569999545,85.27926569999545,85.27926569999545,85.27926569999545,85.27926569999545,85.27926569999545,85.27926569999545,001,P001,2025_Jan_17_1836,CategoryLocalizer,2021.2.3,59.9431978267469,
54.8,55.0,5,0.0,Stimuli\Blank.png,0,0,0,86,86,86,,,,,,,,,,,,,54.83085270000447,0.030852700004473377,None,,86.07998479999515,86.07998479999515,86.07998479999515,86.07998479999515,86.07998479999515,86.07998479999515,86.07998479999515,86.07998479999515,001,P001,2025_Jan_17_1836,CategoryLocalizer,2021.2.3,59.9431978267469,
55.0,55.8,3,0.75,Stimuli\ImageFiles-Set1\Faces\Face_00012.png,0,0,0,87,87,87,,,,,,,,,,,,,55.015293300006306,0.015293300006305799,None,,86.28016059999936,86.28016059999936,86.28016059999936,86.28016059999936,86.28016059999936,86.28016059999936,86.28016059999936,86.28016059999936,001,P001,2025_Jan_17_1836,CategoryLocalizer,2021.2.3,59.9431978267469,
55.8,56.0,5,0.0,Stimuli\Blank.png,0,0,0,88,88,88,,,,,,,,,,,,,55.814947000006214,0.014947000006216626,5,0.16115220000210684,87.06417789999978,87.06417789999978,87.06417789999978,87.06417789999978,87.06417789999978,87.06417789999978,87.06417789999978,87.06417789999978,001,P001,2025_Jan_17_1836,CategoryLocalizer,2021.2.3,59.9431978267469,
56.0,56.8,3,0.75,Stimuli\ImageFiles-Set1\Faces\Face_00099.png,0,0,0,89,89,89,,,,,,,,,,,,,56.01464730000589,0.014647300005890429,None,,87.26436279999325,87.26436279999325,87.26436279999325,87.26436279999325,87.26436279999325,87.26436279999325,87.26436279999325,87.26436279999325,001,P001,2025_Jan_17_1836,CategoryLocalizer,2021.2.3,59.9431978267469,
56.8,57.0,5,0.0,Stimuli\Blank.png,0,0,0,90,90,90,,,,,,,,,,,,,56.81572110000707,0.015721100007070277,None,,88.06506839999929,88.06506839999929,88.06506839999929,88.06506839999929,88.06506839999929,88.06506839999929,88.06506839999929,88.06506839999929,001,P001,2025_Jan_17_1836,CategoryLocalizer,2021.2.3,59.9431978267469,
,,,,,,,,,,,,,,,,,,,,,,,56.99892940000427,-0.0010705999957281165,,,,,,,,,,,,,,,,,
