eventStartTime,eventEndTime,eventCond,imSize,imFile,repeatedImage,responseEvent,Events.thisRepN,Events.thisTrialN,Events.thisN,Events.thisIndex,Instructions.started,Instructions.stopped,participantReadyResponse.keys,participantReadyResponse.rt,participantReadyResponse.started,participantReadyResponse.stopped,startWaitforTrigger,triggerResponse.keys,triggerResponse.rt,triggerResponse.started,triggerResponse.stopped,globalTimer,actualStartTime,startTimingDiff,participantResponse.keys,participantResponse.rt,participantResponse.started,participantResponse.stopped,image.started,image.stopped,fixationOutside.started,fixationOutside.stopped,fixationInside.started,fixationInside.stopped,session,participant,date,expName,psychopyVersion,frameRate,
,,,,,,,,,,,19.789122700000007,None,3,1.0453682000006665,19.789122700000007,None,,,,,,,,,,,,,,,,,,,001,P001,2025_Jan_17_1848,CategoryLocalizer,2021.2.3,59.92477044500967,
,,,,,,,,,,,,,,,,,20.847782000004372,5,13.723557299999811,20.860714400005236,None,,,,,,,,,,,,,,001,P001,2025_Jan_17_1848,CategoryLocalizer,2021.2.3,59.92477044500967,
0.0,12.0,0,0.0,Stimuli\Blank.png,0,0,0,0,0,0,,,,,,,,,,,,34.59372830000211,0.04611289999593282,0.04611289999593282,5,11.928007399998023,34.65619760000118,None,34.65619760000118,None,34.65619760000118,None,34.65619760000118,None,001,P001,2025_Jan_17_1848,CategoryLocalizer,2021.2.3,59.92477044500967,
12.0,12.8,1,0.75,Stimuli\ImageFiles-Set1\Objects\Object_Key_00001.png,0,0,0,1,1,1,,,,,,,,,,,,,12.01111200000014,0.011112000000139233,None,,46.63344700000016,46.63344700000016,46.63344700000016,46.63344700000016,46.63344700000016,46.63344700000016,46.63344700000016,46.63344700000016,001,P001,2025_Jan_17_1848,CategoryLocalizer,2021.2.3,59.92477044500967,
12.8,13.0,5,0.0,Stimuli\Blank.png,0,0,0,2,2,2,,,,,,,,,,,,,12.82620930000121,0.026209300001209357,None,,47.43416790000629,47.43416790000629,47.43416790000629,47.43416790000629,47.43416790000629,47.43416790000629,47.43416790000629,47.43416790000629,001,P001,2025_Jan_17_1848,CategoryLocalizer,2021.2.3,59.92477044500967,
13.0,13.8,1,0.75,Stimuli\ImageFiles-Set1\Objects\Object_Lipstick_00001.png,0,0,0,3,3,3,,,,,,,,,,,,,13.00935539999773,0.009355399997730274,None,,47.617651500004285,47.617651500004285,47.617651500004285,47.617651500004285,47.617651500004285,47.617651500004285,47.617651500004285,47.617651500004285,001,P001,2025_Jan_17_1848,CategoryLocalizer,2021.2.3,59.92477044500967,
13.8,14.0,5,0.0,Stimuli\Blank.png,0,0,0,4,4,4,,,,,,,,,,,,,13.811170000000857,0.011170000000856106,5,0.16578070000105072,48.41836830000102,48.41836830000102,48.41836830000102,48.41836830000102,48.41836830000102,48.41836830000102,48.41836830000102,48.41836830000102,001,P001,2025_Jan_17_1848,CategoryLocalizer,2021.2.3,59.92477044500967,
14.0,14.8,1,0.75,Stimuli\ImageFiles-Set1\Objects\Object_Wagon_00001.png,0,0,0,5,5,5,,,,,,,,,,,,,14.010437099997944,0.010437099997943733,None,,48.63524390000384,48.63524390000384,48.63524390000384,48.63524390000384,48.63524390000384,48.63524390000384,48.63524390000384,48.63524390000384,001,P001,2025_Jan_17_1848,CategoryLocalizer,2021.2.3,59.92477044500967,
14.8,15.0,5,0.0,Stimuli\Blank.png,0,0,0,6,6,6,,,,,,,,,,,,,14.827443299996958,0.027443299996956938,None,,49.435934400004044,49.435934400004044,49.435934400004044,49.435934400004044,49.435934400004044,49.435934400004044,49.435934400004044,49.435934400004044,001,P001,2025_Jan_17_1848,CategoryLocalizer,2021.2.3,59.92477044500967,
15.0,15.8,1,0.75,Stimuli\ImageFiles-Set1\Objects\Object_Matches_00001.png,0,0,0,7,7,7,,,,,,,,,,,,,15.01193819999753,0.011938199997530319,None,,49.619419599999674,49.619419599999674,49.619419599999674,49.619419599999674,49.619419599999674,49.619419599999674,49.619419599999674,49.619419599999674,001,P001,2025_Jan_17_1848,CategoryLocalizer,2021.2.3,59.92477044500967,
15.8,16.0,5,0.0,Stimuli\Blank.png,0,0,0,8,8,8,,,,,,,,,,,,,15.812372100001085,0.012372100001083908,5,0.1640084000027855,50.42013230000157,50.42013230000157,50.42013230000157,50.42013230000157,50.42013230000157,50.42013230000157,50.42013230000157,50.42013230000157,001,P001,2025_Jan_17_1848,CategoryLocalizer,2021.2.3,59.92477044500967,
16.0,16.8,1,0.75,Stimuli\ImageFiles-Set1\Objects\Object_ComputerMouse_00001.png,0,0,0,9,9,9,,,,,,,,,,,,,16.01280119999865,0.012801199998648372,None,,50.62031410000054,50.62031410000054,50.62031410000054,50.62031410000054,50.62031410000054,50.62031410000054,50.62031410000054,50.62031410000054,001,P001,2025_Jan_17_1848,CategoryLocalizer,2021.2.3,59.92477044500967,
16.8,17.0,5,0.0,Stimuli\Blank.png,0,0,0,10,10,10,,,,,,,,,,,,,16.814998199995898,0.014998199995897465,None,,51.437702300005185,51.437702300005185,51.437702300005185,51.437702300005185,51.437702300005185,51.437702300005185,51.437702300005185,51.437702300005185,001,P001,2025_Jan_17_1848,CategoryLocalizer,2021.2.3,59.92477044500967,
17.0,17.8,1,0.75,Stimuli\ImageFiles-Set1\Objects\Object_ComputerMouse_00001.png,1,1,0,11,11,11,,,,,,,,,,,,,17.030454299994744,0.03045429999474436,3,0.4965221999955247,51.65455820000352,51.65455820000352,51.65455820000352,51.65455820000352,51.65455820000352,51.65455820000352,51.65455820000352,51.65455820000352,001,P001,2025_Jan_17_1848,CategoryLocalizer,2021.2.3,59.92477044500967,
17.8,18.0,5,0.0,Stimuli\Blank.png,0,0,0,12,12,12,,,,,,,,,,,,,17.831184900001972,0.031184900001971272,5,0.14551409999694442,52.4385853000058,52.4385853000058,52.4385853000058,52.4385853000058,52.4385853000058,52.4385853000058,52.4385853000058,52.4385853000058,001,P001,2025_Jan_17_1848,CategoryLocalizer,2021.2.3,59.92477044500967,
18.0,18.8,1,0.75,Stimuli\ImageFiles-Set1\Objects\Object_Table_00001.png,0,0,0,13,13,13,,,,,,,,,,,,,18.01436339999782,0.014363399997819215,None,,52.62207699999999,52.62207699999999,52.62207699999999,52.62207699999999,52.62207699999999,52.62207699999999,52.62207699999999,52.62207699999999,001,P001,2025_Jan_17_1848,CategoryLocalizer,2021.2.3,59.92477044500967,
18.8,19.0,5,0.0,Stimuli\Blank.png,0,0,0,14,14,14,,,,,,,,,,,,,18.81433239999751,0.014332399997510237,None,,53.42280380000011,53.42280380000011,53.42280380000011,53.42280380000011,53.42280380000011,53.42280380000011,53.42280380000011,53.42280380000011,001,P001,2025_Jan_17_1848,CategoryLocalizer,2021.2.3,59.92477044500967,
19.0,19.8,1,0.75,Stimuli\ImageFiles-Set1\Objects\Object_Nightstand_00001.png,0,0,0,15,15,15,,,,,,,,,,,,,19.015700399999332,0.01570039999933215,None,,53.65632130000449,53.65632130000449,53.65632130000449,53.65632130000449,53.65632130000449,53.65632130000449,53.65632130000449,53.65632130000449,001,P001,2025_Jan_17_1848,CategoryLocalizer,2021.2.3,59.92477044500967,
19.8,20.0,5,0.0,Stimuli\Blank.png,0,0,0,16,16,16,,,,,,,,,,,,,19.834505699996953,0.03450569999695219,5,0.1273111999980756,54.457067900002585,54.457067900002585,54.457067900002585,54.457067900002585,54.457067900002585,54.457067900002585,54.457067900002585,54.457067900002585,001,P001,2025_Jan_17_1848,CategoryLocalizer,2021.2.3,59.92477044500967,
20.0,20.8,1,0.75,Stimuli\ImageFiles-Set1\Objects\Object_Gun_00001.png,0,0,0,17,17,17,,,,,,,,,,,,,20.015673000001698,0.0156730000016978,None,,54.64055240000016,54.64055240000016,54.64055240000016,54.64055240000016,54.64055240000016,54.64055240000016,54.64055240000016,54.64055240000016,001,P001,2025_Jan_17_1848,CategoryLocalizer,2021.2.3,59.92477044500967,
20.8,21.0,5,0.0,Stimuli\Blank.png,0,0,0,18,18,18,,,,,,,,,,,,,20.816221199995198,0.01622119999519711,None,,55.42455670000345,55.42455670000345,55.42455670000345,55.42455670000345,55.42455670000345,55.42455670000345,55.42455670000345,55.42455670000345,001,P001,2025_Jan_17_1848,CategoryLocalizer,2021.2.3,59.92477044500967,
21.0,21.8,1,0.75,Stimuli\ImageFiles-Set1\Objects\Object_Pencil_00001.png,0,0,0,19,19,19,,,,,,,,,,,,,20.999876900001254,-0.00012309999874560162,None,,55.60805480000272,55.60805480000272,55.60805480000272,55.60805480000272,55.60805480000272,55.60805480000272,55.60805480000272,55.60805480000272,001,P001,2025_Jan_17_1848,CategoryLocalizer,2021.2.3,59.92477044500967,
21.8,22.0,5,0.0,Stimuli\Blank.png,0,0,0,20,20,20,,,,,,,,,,,,,21.800918900000397,0.0009189000003964054,None,,56.40876620000199,56.40876620000199,56.40876620000199,56.40876620000199,56.40876620000199,56.40876620000199,56.40876620000199,56.40876620000199,001,P001,2025_Jan_17_1848,CategoryLocalizer,2021.2.3,59.92477044500967,
22.0,22.8,1,0.75,Stimuli\ImageFiles-Set1\Objects\Object_Card_00001.png,0,0,0,21,21,21,,,,,,,,,,,,,22.001288499996008,0.0012884999960078858,None,,56.625641200000246,56.625641200000246,56.625641200000246,56.625641200000246,56.625641200000246,56.625641200000246,56.625641200000246,56.625641200000246,001,P001,2025_Jan_17_1848,CategoryLocalizer,2021.2.3,59.92477044500967,
22.8,23.0,5,0.0,Stimuli\Blank.png,0,0,0,22,22,22,,,,,,,,,,,,,22.82061160000012,0.020611600000119523,None,,57.443027000001166,57.443027000001166,57.443027000001166,57.443027000001166,57.443027000001166,57.443027000001166,57.443027000001166,57.443027000001166,001,P001,2025_Jan_17_1848,CategoryLocalizer,2021.2.3,59.92477044500967,
23.0,23.8,1,0.75,Stimuli\ImageFiles-Set1\Objects\Object_Stroller_00001.png,0,0,0,23,23,23,,,,,,,,,,,,,23.020781100000022,0.02078110000002198,None,,57.64319729999988,57.64319729999988,57.64319729999988,57.64319729999988,57.64319729999988,57.64319729999988,57.64319729999988,57.64319729999988,001,P001,2025_Jan_17_1848,CategoryLocalizer,2021.2.3,59.92477044500967,
23.8,24.0,5,0.0,Stimuli\Blank.png,0,0,0,24,24,24,,,,,,,,,,,,,23.819381900000735,0.019381900000734475,None,,58.42722020000656,58.42722020000656,58.42722020000656,58.42722020000656,58.42722020000656,58.42722020000656,58.42722020000656,58.42722020000656,001,P001,2025_Jan_17_1848,CategoryLocalizer,2021.2.3,59.92477044500967,
24.0,24.8,1,0.75,Stimuli\ImageFiles-Set1\Objects\Object_Dice_00001.png,0,0,0,25,25,25,,,,,,,,,,,,,24.002637899997353,0.002637899997353088,None,,58.62738680000621,58.62738680000621,58.62738680000621,58.62738680000621,58.62738680000621,58.62738680000621,58.62738680000621,58.62738680000621,001,P001,2025_Jan_17_1848,CategoryLocalizer,2021.2.3,59.92477044500967,
24.8,25.0,5,0.0,Stimuli\Blank.png,0,0,0,26,26,26,,,,,,,,,,,,,24.820189400001254,0.020189400001253688,None,,59.428106500003196,59.428106500003196,59.428106500003196,59.428106500003196,59.428106500003196,59.428106500003196,59.428106500003196,59.428106500003196,001,P001,2025_Jan_17_1848,CategoryLocalizer,2021.2.3,59.92477044500967,
25.0,25.8,1,0.75,Stimuli\ImageFiles-Set1\Objects\Object_GarbageCan_00001.png,0,0,0,27,27,27,,,,,,,,,,,,,25.00337729999592,0.0033772999959182926,None,,59.611599300005764,59.611599300005764,59.611599300005764,59.611599300005764,59.611599300005764,59.611599300005764,59.611599300005764,59.611599300005764,001,P001,2025_Jan_17_1848,CategoryLocalizer,2021.2.3,59.92477044500967,
25.8,26.0,5,0.0,Stimuli\Blank.png,0,0,0,28,28,28,,,,,,,,,,,,,25.805221399998118,0.005221399998116993,None,,60.4123150000014,60.4123150000014,60.4123150000014,60.4123150000014,60.4123150000014,60.4123150000014,60.4123150000014,60.4123150000014,001,P001,2025_Jan_17_1848,CategoryLocalizer,2021.2.3,59.92477044500967,
26.0,26.8,1,0.75,Stimuli\ImageFiles-Set1\Objects\Object_Canoe_00001.png,0,0,0,29,29,29,,,,,,,,,,,,,26.005446800001664,0.005446800001664087,None,,60.62915990000329,60.62915990000329,60.62915990000329,60.62915990000329,60.62915990000329,60.62915990000329,60.62915990000329,60.62915990000329,001,P001,2025_Jan_17_1848,CategoryLocalizer,2021.2.3,59.92477044500967,
26.8,27.0,5,0.0,Stimuli\Blank.png,0,0,0,30,30,30,,,,,,,,,,,,,26.822383899998385,0.02238389999838475,None,,61.429961699999694,61.429961699999694,61.429961699999694,61.429961699999694,61.429961699999694,61.429961699999694,61.429961699999694,61.429961699999694,001,P001,2025_Jan_17_1848,CategoryLocalizer,2021.2.3,59.92477044500967,
27.0,27.8,1,0.75,Stimuli\ImageFiles-Set1\Objects\Object_Tool_00001.png,0,0,0,31,31,31,,,,,,,,,,,,,27.006234399996174,0.006234399996174034,None,,61.63005310000153,61.63005310000153,61.63005310000153,61.63005310000153,61.63005310000153,61.63005310000153,61.63005310000153,61.63005310000153,001,P001,2025_Jan_17_1848,CategoryLocalizer,2021.2.3,59.92477044500967,
27.8,28.0,5,0.0,Stimuli\Blank.png,0,0,0,32,32,32,,,,,,,,,,,,,27.824588600000425,0.024588600000424066,5,0.1367335000031744,62.44746920000034,62.44746920000034,62.44746920000034,62.44746920000034,62.44746920000034,62.44746920000034,62.44746920000034,62.44746920000034,001,P001,2025_Jan_17_1848,CategoryLocalizer,2021.2.3,59.92477044500967,
28.0,28.8,2,0.75,Stimuli\ImageFiles-Set1\Bodies\Bodies_Falling_00002.png,0,0,0,33,33,33,,,,,,,,,,,,,28.022576399998798,0.02257639999879757,None,,62.63093479999952,62.63093479999952,62.63093479999952,62.63093479999952,62.63093479999952,62.63093479999952,62.63093479999952,62.63093479999952,001,P001,2025_Jan_17_1848,CategoryLocalizer,2021.2.3,59.92477044500967,
28.8,29.0,5,0.0,Stimuli\Blank.png,0,0,0,34,34,34,,,,,,,,,,,,,28.807263999995484,0.007263999995483772,None,,63.414940500006196,63.414940500006196,63.414940500006196,63.414940500006196,63.414940500006196,63.414940500006196,63.414940500006196,63.414940500006196,001,P001,2025_Jan_17_1848,CategoryLocalizer,2021.2.3,59.92477044500967,
29.0,29.8,2,0.75,Stimuli\ImageFiles-Set1\Bodies\Bodies_Falling_00002.png,1,1,0,35,35,35,,,,,,,,,,,,,29.007274899995537,0.007274899995536543,3,0.4442992999975104,63.631828500001575,63.631828500001575,63.631828500001575,63.631828500001575,63.631828500001575,63.631828500001575,63.631828500001575,63.631828500001575,001,P001,2025_Jan_17_1848,CategoryLocalizer,2021.2.3,59.92477044500967,
29.8,30.0,5,0.0,Stimuli\Blank.png,0,0,0,36,36,36,,,,,,,,,,,,,29.82483759999741,0.024837599997407978,5,0.15154890000121668,64.43254300000262,64.43254300000262,64.43254300000262,64.43254300000262,64.43254300000262,64.43254300000262,64.43254300000262,64.43254300000262,001,P001,2025_Jan_17_1848,CategoryLocalizer,2021.2.3,59.92477044500967,
30.0,30.8,2,0.75,Stimuli\ImageFiles-Set1\Bodies\Bodies_Standing_00001.png,0,0,0,37,37,37,,,,,,,,,,,,,30.00760309999896,0.007603099998959806,None,,64.6160200000013,64.6160200000013,64.6160200000013,64.6160200000013,64.6160200000013,64.6160200000013,64.6160200000013,64.6160200000013,001,P001,2025_Jan_17_1848,CategoryLocalizer,2021.2.3,59.92477044500967,
30.8,31.0,5,0.0,Stimuli\Blank.png,0,0,0,38,38,38,,,,,,,,,,,,,30.80843409999943,0.008434099999430344,None,,65.41673760000413,65.41673760000413,65.41673760000413,65.41673760000413,65.41673760000413,65.41673760000413,65.41673760000413,65.41673760000413,001,P001,2025_Jan_17_1848,CategoryLocalizer,2021.2.3,59.92477044500967,
31.0,31.8,2,0.75,Stimuli\ImageFiles-Set1\Bodies\Bodies_Running_00006.png,0,0,0,39,39,39,,,,,,,,,,,,,31.008558399997128,0.008558399997127708,None,,65.63359280000441,65.63359280000441,65.63359280000441,65.63359280000441,65.63359280000441,65.63359280000441,65.63359280000441,65.63359280000441,001,P001,2025_Jan_17_1848,CategoryLocalizer,2021.2.3,59.92477044500967,
31.8,32.0,5,0.0,Stimuli\Blank.png,0,0,0,40,40,40,,,,,,,,,,,,,31.825957100001688,0.02595710000168694,5,0.1499197999946773,66.43430360000639,66.43430360000639,66.43430360000639,66.43430360000639,66.43430360000639,66.43430360000639,66.43430360000639,66.43430360000639,001,P001,2025_Jan_17_1848,CategoryLocalizer,2021.2.3,59.92477044500967,
32.0,32.8,2,0.75,Stimuli\ImageFiles-Set1\Bodies\Bodies_QuadStretch_00001.png,0,0,0,41,41,41,,,,,,,,,,,,,32.01055020000058,0.010550200000579935,None,,66.63452520000283,66.63452520000283,66.63452520000283,66.63452520000283,66.63452520000283,66.63452520000283,66.63452520000283,66.63452520000283,001,P001,2025_Jan_17_1848,CategoryLocalizer,2021.2.3,59.92477044500967,
32.8,33.0,5,0.0,Stimuli\Blank.png,0,0,0,42,42,42,,,,,,,,,,,,,32.82744829999865,0.02744829999865317,None,,67.43519510000624,67.43519510000624,67.43519510000624,67.43519510000624,67.43519510000624,67.43519510000624,67.43519510000624,67.43519510000624,001,P001,2025_Jan_17_1848,CategoryLocalizer,2021.2.3,59.92477044500967,
33.0,33.8,2,0.75,Stimuli\ImageFiles-Set1\Bodies\Bodies_CobraPose_00005.png,0,0,0,43,43,43,,,,,,,,,,,,,33.011108999999124,0.011108999999123625,None,,67.63537760000327,67.63537760000327,67.63537760000327,67.63537760000327,67.63537760000327,67.63537760000327,67.63537760000327,67.63537760000327,001,P001,2025_Jan_17_1848,CategoryLocalizer,2021.2.3,59.92477044500967,
33.8,34.0,5,0.0,Stimuli\Blank.png,0,0,0,44,44,44,,,,,,,,,,,,,33.82961459999933,0.029614599999334246,5,0.1314688999991631,68.45276300000114,68.45276300000114,68.45276300000114,68.45276300000114,68.45276300000114,68.45276300000114,68.45276300000114,68.45276300000114,001,P001,2025_Jan_17_1848,CategoryLocalizer,2021.2.3,59.92477044500967,
34.0,34.8,2,0.75,Stimuli\ImageFiles-Set1\Bodies\Bodies_CobraPose_00001.png,0,0,0,45,45,45,,,,,,,,,,,,,34.02851169999485,0.02851169999485137,None,,68.66963989999931,68.66963989999931,68.66963989999931,68.66963989999931,68.66963989999931,68.66963989999931,68.66963989999931,68.66963989999931,001,P001,2025_Jan_17_1848,CategoryLocalizer,2021.2.3,59.92477044500967,
34.8,35.0,5,0.0,Stimuli\Blank.png,0,0,0,46,46,46,,,,,,,,,,,,,34.84561920000124,0.045619200001240756,None,,69.45364620000328,69.45364620000328,69.45364620000328,69.45364620000328,69.45364620000328,69.45364620000328,69.45364620000328,69.45364620000328,001,P001,2025_Jan_17_1848,CategoryLocalizer,2021.2.3,59.92477044500967,
35.0,35.8,2,0.75,Stimuli\ImageFiles-Set1\Bodies\Bodies_Jumping_00006.png,0,0,0,47,47,47,,,,,,,,,,,,,35.01288339999883,0.012883399998827372,None,,69.6371358000033,69.6371358000033,69.6371358000033,69.6371358000033,69.6371358000033,69.6371358000033,69.6371358000033,69.6371358000033,001,P001,2025_Jan_17_1848,CategoryLocalizer,2021.2.3,59.92477044500967,
35.8,36.0,5,0.0,Stimuli\Blank.png,0,0,0,48,48,48,,,,,,,,,,,,,35.83033889999933,0.030338899999335922,5,0.146238599998469,70.43784260000393,70.43784260000393,70.43784260000393,70.43784260000393,70.43784260000393,70.43784260000393,70.43784260000393,70.43784260000393,001,P001,2025_Jan_17_1848,CategoryLocalizer,2021.2.3,59.92477044500967,
36.0,36.8,2,0.75,Stimuli\ImageFiles-Set1\Bodies\Bodies_Kneeling_00003.png,0,0,0,49,49,49,,,,,,,,,,,,,36.01406670000142,0.01406670000142185,None,,70.63802370000485,70.63802370000485,70.63802370000485,70.63802370000485,70.63802370000485,70.63802370000485,70.63802370000485,70.63802370000485,001,P001,2025_Jan_17_1848,CategoryLocalizer,2021.2.3,59.92477044500967,
36.8,37.0,5,0.0,Stimuli\Blank.png,0,0,0,50,50,50,,,,,,,,,,,,,36.83117839999613,0.031178399996136363,None,,71.43872920000285,71.43872920000285,71.43872920000285,71.43872920000285,71.43872920000285,71.43872920000285,71.43872920000285,71.43872920000285,001,P001,2025_Jan_17_1848,CategoryLocalizer,2021.2.3,59.92477044500967,
37.0,37.8,2,0.75,Stimuli\ImageFiles-Set1\Bodies\Bodies_QuadStretch_00003.png,0,0,0,51,51,51,,,,,,,,,,,,,37.01375700000062,0.01375700000062352,None,,71.62222970000585,71.62222970000585,71.62222970000585,71.62222970000585,71.62222970000585,71.62222970000585,71.62222970000585,71.62222970000585,001,P001,2025_Jan_17_1848,CategoryLocalizer,2021.2.3,59.92477044500967,
37.8,38.0,5,0.0,Stimuli\Blank.png,0,0,0,52,52,52,,,,,,,,,,,,,37.81586539999989,0.015865399999896113,None,,72.42293670000072,72.42293670000072,72.42293670000072,72.42293670000072,72.42293670000072,72.42293670000072,72.42293670000072,72.42293670000072,001,P001,2025_Jan_17_1848,CategoryLocalizer,2021.2.3,59.92477044500967,
38.0,38.8,2,0.75,Stimuli\ImageFiles-Set1\Bodies\Bodies_SittingFloor_00007.png,0,0,0,53,53,53,,,,,,,,,,,,,38.0006171999994,0.0006171999993966892,None,,72.62308119999943,72.62308119999943,72.62308119999943,72.62308119999943,72.62308119999943,72.62308119999943,72.62308119999943,72.62308119999943,001,P001,2025_Jan_17_1848,CategoryLocalizer,2021.2.3,59.92477044500967,
38.8,39.0,5,0.0,Stimuli\Blank.png,0,0,0,54,54,54,,,,,,,,,,,,,38.815446699998574,0.015446699998577174,None,,73.42381949999981,73.42381949999981,73.42381949999981,73.42381949999981,73.42381949999981,73.42381949999981,73.42381949999981,73.42381949999981,001,P001,2025_Jan_17_1848,CategoryLocalizer,2021.2.3,59.92477044500967,
39.0,39.8,2,0.75,Stimuli\ImageFiles-Set1\Bodies\Bodies_Lunging_00004.png,0,0,0,55,55,55,,,,,,,,,,,,,39.01594240000122,0.015942400001222268,None,,73.65736980000656,73.65736980000656,73.65736980000656,73.65736980000656,73.65736980000656,73.65736980000656,73.65736980000656,73.65736980000656,001,P001,2025_Jan_17_1848,CategoryLocalizer,2021.2.3,59.92477044500967,
39.8,40.0,5,0.0,Stimuli\Blank.png,0,0,0,56,56,56,,,,,,,,,,,,,39.835523199995805,0.035523199995807886,5,0.12603179999860004,74.45807060000516,74.45807060000516,74.45807060000516,74.45807060000516,74.45807060000516,74.45807060000516,74.45807060000516,74.45807060000516,001,P001,2025_Jan_17_1848,CategoryLocalizer,2021.2.3,59.92477044500967,
40.0,40.8,2,0.75,Stimuli\ImageFiles-Set1\Bodies\Bodies_DownwardDog_00001.png,1,1,0,57,57,57,,,,,,,,,,,,,40.01739069999894,0.017390699998941272,None,,74.62488640000083,74.62488640000083,74.62488640000083,74.62488640000083,74.62488640000083,74.62488640000083,74.62488640000083,74.62488640000083,001,P001,2025_Jan_17_1848,CategoryLocalizer,2021.2.3,59.92477044500967,
40.8,41.0,5,0.0,Stimuli\Blank.png,0,0,0,58,58,58,,,,,,,,,,,,,40.8009177999993,0.000917799999299973,None,,75.40890100000252,75.40890100000252,75.40890100000252,75.40890100000252,75.40890100000252,75.40890100000252,75.40890100000252,75.40890100000252,001,P001,2025_Jan_17_1848,CategoryLocalizer,2021.2.3,59.92477044500967,
41.0,41.8,2,0.75,Stimuli\ImageFiles-Set1\Bodies\Bodies_SittingChair_00007.png,0,0,0,59,59,59,,,,,,,,,,,,,41.00164270000096,0.0016427000009571202,None,,75.62574420000601,75.62574420000601,75.62574420000601,75.62574420000601,75.62574420000601,75.62574420000601,75.62574420000601,75.62574420000601,001,P001,2025_Jan_17_1848,CategoryLocalizer,2021.2.3,59.92477044500967,
41.8,42.0,5,0.0,Stimuli\Blank.png,0,0,0,60,60,60,,,,,,,,,,,,,41.82172079999873,0.021720799998732332,5,0.14092180000443477,76.44317100000626,76.44317100000626,76.44317100000626,76.44317100000626,76.44317100000626,76.44317100000626,76.44317100000626,76.44317100000626,001,P001,2025_Jan_17_1848,CategoryLocalizer,2021.2.3,59.92477044500967,
42.0,42.8,2,0.75,Stimuli\ImageFiles-Set1\Bodies\Bodies_SittingChair_00007.png,0,0,0,61,61,61,,,,,,,,,,,,,42.01846819999628,0.01846819999627769,3,0.4503591999964556,76.62665620000189,76.62665620000189,76.62665620000189,76.62665620000189,76.62665620000189,76.62665620000189,76.62665620000189,76.62665620000189,001,P001,2025_Jan_17_1848,CategoryLocalizer,2021.2.3,59.92477044500967,
42.8,43.0,5,0.0,Stimuli\Blank.png,0,0,0,62,62,62,,,,,,,,,,,,,42.80470519999653,0.00470519999653618,None,,77.42738770000142,77.42738770000142,77.42738770000142,77.42738770000142,77.42738770000142,77.42738770000142,77.42738770000142,77.42738770000142,001,P001,2025_Jan_17_1848,CategoryLocalizer,2021.2.3,59.92477044500967,
43.0,43.8,2,0.75,Stimuli\ImageFiles-Set1\Bodies\Bodies_PushUp_00004.png,0,0,0,63,63,63,,,,,,,,,,,,,43.01967999999761,0.0196799999976065,None,,77.6442129000061,77.6442129000061,77.6442129000061,77.6442129000061,77.6442129000061,77.6442129000061,77.6442129000061,77.6442129000061,001,P001,2025_Jan_17_1848,CategoryLocalizer,2021.2.3,59.92477044500967,
43.8,44.0,5,0.0,Stimuli\Blank.png,0,0,0,64,64,64,,,,,,,,,,,,,43.82184250000137,0.021842500001369558,None,,78.42826250000508,78.42826250000508,78.42826250000508,78.42826250000508,78.42826250000508,78.42826250000508,78.42826250000508,78.42826250000508,001,P001,2025_Jan_17_1848,CategoryLocalizer,2021.2.3,59.92477044500967,
44.0,44.8,3,0.75,Stimuli\ImageFiles-Set1\Faces\Face_00057.png,0,0,0,65,65,65,,,,,,,,,,,,,44.00427219999983,0.0042721999998320825,None,,78.62846560000617,78.62846560000617,78.62846560000617,78.62846560000617,78.62846560000617,78.62846560000617,78.62846560000617,78.62846560000617,001,P001,2025_Jan_17_1848,CategoryLocalizer,2021.2.3,59.92477044500967,
44.8,45.0,5,0.0,Stimuli\Blank.png,0,0,0,66,66,66,,,,,,,,,,,,,44.82125249999808,0.021252499998084318,None,,79.42913090000366,79.42913090000366,79.42913090000366,79.42913090000366,79.42913090000366,79.42913090000366,79.42913090000366,79.42913090000366,001,P001,2025_Jan_17_1848,CategoryLocalizer,2021.2.3,59.92477044500967,
45.0,45.8,3,0.75,Stimuli\ImageFiles-Set1\Faces\Face_00099.png,0,0,0,67,67,67,,,,,,,,,,,,,45.00527499999589,0.005274999995890539,None,,79.62931680000474,79.62931680000474,79.62931680000474,79.62931680000474,79.62931680000474,79.62931680000474,79.62931680000474,79.62931680000474,001,P001,2025_Jan_17_1848,CategoryLocalizer,2021.2.3,59.92477044500967,
45.8,46.0,5,0.0,Stimuli\Blank.png,0,0,0,68,68,68,,,,,,,,,,,,,45.822230099998706,0.022230099998708397,None,,80.43000930000562,80.43000930000562,80.43000930000562,80.43000930000562,80.43000930000562,80.43000930000562,80.43000930000562,80.43000930000562,001,P001,2025_Jan_17_1848,CategoryLocalizer,2021.2.3,59.92477044500967,
46.0,46.8,3,0.75,Stimuli\ImageFiles-Set1\Faces\Face_00022.png,0,0,0,69,69,69,,,,,,,,,,,,,46.00589400000172,0.005894000001717359,None,,80.63021370000206,80.63021370000206,80.63021370000206,80.63021370000206,80.63021370000206,80.63021370000206,80.63021370000206,80.63021370000206,001,P001,2025_Jan_17_1848,CategoryLocalizer,2021.2.3,59.92477044500967,
46.8,47.0,5,0.0,Stimuli\Blank.png,0,0,0,70,70,70,,,,,,,,,,,,,46.82451649999712,0.024516499997119467,None,,81.44755540000187,81.44755540000187,81.44755540000187,81.44755540000187,81.44755540000187,81.44755540000187,81.44755540000187,81.44755540000187,001,P001,2025_Jan_17_1848,CategoryLocalizer,2021.2.3,59.92477044500967,
47.0,47.8,3,0.75,Stimuli\ImageFiles-Set1\Faces\Face_00018.png,0,0,0,71,71,71,,,,,,,,,,,,,47.02407549999771,0.024075499997707084,None,,81.66445670000394,81.66445670000394,81.66445670000394,81.66445670000394,81.66445670000394,81.66445670000394,81.66445670000394,81.66445670000394,001,P001,2025_Jan_17_1848,CategoryLocalizer,2021.2.3,59.92477044500967,
47.8,48.0,5,0.0,Stimuli\Blank.png,0,0,0,72,72,72,,,,,,,,,,,,,47.84068549999938,0.04068549999938398,None,,82.44848120000097,82.44848120000097,82.44848120000097,82.44848120000097,82.44848120000097,82.44848120000097,82.44848120000097,82.44848120000097,001,P001,2025_Jan_17_1848,CategoryLocalizer,2021.2.3,59.92477044500967,
48.0,48.8,3,0.75,Stimuli\ImageFiles-Set1\Faces\Face_00035.png,0,0,0,73,73,73,,,,,,,,,,,,,48.007259899997734,0.007259899997734465,None,,82.6319868999999,82.6319868999999,82.6319868999999,82.6319868999999,82.6319868999999,82.6319868999999,82.6319868999999,82.6319868999999,001,P001,2025_Jan_17_1848,CategoryLocalizer,2021.2.3,59.92477044500967,
48.8,49.0,5,0.0,Stimuli\Blank.png,0,0,0,74,74,74,,,,,,,,,,,,,48.825368300000264,0.025368300000266686,None,,83.43270770000527,83.43270770000527,83.43270770000527,83.43270770000527,83.43270770000527,83.43270770000527,83.43270770000527,83.43270770000527,001,P001,2025_Jan_17_1848,CategoryLocalizer,2021.2.3,59.92477044500967,
49.0,49.8,3,0.75,Stimuli\ImageFiles-Set1\Faces\Face_00085.png,0,0,0,75,75,75,,,,,,,,,,,,,49.00907189999998,0.009071899999980815,None,,83.64953200000309,83.64953200000309,83.64953200000309,83.64953200000309,83.64953200000309,83.64953200000309,83.64953200000309,83.64953200000309,001,P001,2025_Jan_17_1848,CategoryLocalizer,2021.2.3,59.92477044500967,
49.8,50.0,5,0.0,Stimuli\Blank.png,0,0,0,76,76,76,,,,,,,,,,,,,49.84202050000022,0.04202050000021984,5,0.13385189999826252,84.45023610000499,84.45023610000499,84.45023610000499,84.45023610000499,84.45023610000499,84.45023610000499,84.45023610000499,84.45023610000499,001,P001,2025_Jan_17_1848,CategoryLocalizer,2021.2.3,59.92477044500967,
50.0,50.8,3,0.75,Stimuli\ImageFiles-Set1\Faces\Face_00105.png,0,0,0,77,77,77,,,,,,,,,,,,,50.009011699999974,0.009011699999973644,None,,84.63375730000553,84.63375730000553,84.63375730000553,84.63375730000553,84.63375730000553,84.63375730000553,84.63375730000553,84.63375730000553,001,P001,2025_Jan_17_1848,CategoryLocalizer,2021.2.3,59.92477044500967,
50.8,51.0,5,0.0,Stimuli\Blank.png,0,0,0,78,78,78,,,,,,,,,,,,,50.826333899996825,0.026333899996828336,None,,85.43444330000057,85.43444330000057,85.43444330000057,85.43444330000057,85.43444330000057,85.43444330000057,85.43444330000057,85.43444330000057,001,P001,2025_Jan_17_1848,CategoryLocalizer,2021.2.3,59.92477044500967,
51.0,51.8,3,0.75,Stimuli\ImageFiles-Set1\Faces\Face_00119.png,0,0,0,79,79,79,,,,,,,,,,,,,51.00949959999707,0.009499599997070618,None,,85.6346149000019,85.6346149000019,85.6346149000019,85.6346149000019,85.6346149000019,85.6346149000019,85.6346149000019,85.6346149000019,001,P001,2025_Jan_17_1848,CategoryLocalizer,2021.2.3,59.92477044500967,
51.8,52.0,5,0.0,Stimuli\Blank.png,0,0,0,80,80,80,,,,,,,,,,,,,51.8270663000003,0.027066300000299748,5,0.14876449999428587,86.43533540000499,86.43533540000499,86.43533540000499,86.43533540000499,86.43533540000499,86.43533540000499,86.43533540000499,86.43533540000499,001,P001,2025_Jan_17_1848,CategoryLocalizer,2021.2.3,59.92477044500967,
52.0,52.8,3,0.75,Stimuli\ImageFiles-Set1\Faces\Face_00047.png,0,0,0,81,81,81,,,,,,,,,,,,,52.010959100000036,0.010959100000036415,None,,86.65222730000096,86.65222730000096,86.65222730000096,86.65222730000096,86.65222730000096,86.65222730000096,86.65222730000096,86.65222730000096,001,P001,2025_Jan_17_1848,CategoryLocalizer,2021.2.3,59.92477044500967,
52.8,53.0,5,0.0,Stimuli\Blank.png,0,0,0,82,82,82,,,,,,,,,,,,,52.84570220000023,0.04570220000023539,None,,87.45290180000302,87.45290180000302,87.45290180000302,87.45290180000302,87.45290180000302,87.45290180000302,87.45290180000302,87.45290180000302,001,P001,2025_Jan_17_1848,CategoryLocalizer,2021.2.3,59.92477044500967,
53.0,53.8,3,0.75,Stimuli\ImageFiles-Set1\Faces\Face_00047.png,1,1,0,83,83,83,,,,,,,,,,,,,53.011964599994826,0.01196459999482613,3,0.42944079999870155,87.61970300000394,87.61970300000394,87.61970300000394,87.61970300000394,87.61970300000394,87.61970300000394,87.61970300000394,87.61970300000394,001,P001,2025_Jan_17_1848,CategoryLocalizer,2021.2.3,59.92477044500967,
53.8,54.0,5,0.0,Stimuli\Blank.png,0,0,0,84,84,84,,,,,,,,,,,,,53.81312859999889,0.013128599998893264,5,0.16368969999894034,88.42042900000524,88.42042900000524,88.42042900000524,88.42042900000524,88.42042900000524,88.42042900000524,88.42042900000524,88.42042900000524,001,P001,2025_Jan_17_1848,CategoryLocalizer,2021.2.3,59.92477044500967,
54.0,54.8,3,0.75,Stimuli\ImageFiles-Set1\Faces\Face_00071.png,0,0,0,85,85,85,,,,,,,,,,,,,54.01382459999877,0.013824599998770282,None,,88.62058919999981,88.62058919999981,88.62058919999981,88.62058919999981,88.62058919999981,88.62058919999981,88.62058919999981,88.62058919999981,001,P001,2025_Jan_17_1848,CategoryLocalizer,2021.2.3,59.92477044500967,
54.8,55.0,5,0.0,Stimuli\Blank.png,0,0,0,86,86,86,,,,,,,,,,,,,54.814875299998675,0.014875299998678315,None,,89.43800220000412,89.43800220000412,89.43800220000412,89.43800220000412,89.43800220000412,89.43800220000412,89.43800220000412,89.43800220000412,001,P001,2025_Jan_17_1848,CategoryLocalizer,2021.2.3,59.92477044500967,
55.0,55.8,3,0.75,Stimuli\ImageFiles-Set1\Faces\Face_00063.png,0,0,0,87,87,87,,,,,,,,,,,,,55.03027799999836,0.030277999998361338,None,,89.67153330000292,89.67153330000292,89.67153330000292,89.67153330000292,89.67153330000292,89.67153330000292,89.67153330000292,89.67153330000292,001,P001,2025_Jan_17_1848,CategoryLocalizer,2021.2.3,59.92477044500967,
55.8,56.0,5,0.0,Stimuli\Blank.png,0,0,0,88,88,88,,,,,,,,,,,,,55.849484200000006,0.04948420000000908,5,0.1127827000018442,90.47230790000322,90.47230790000322,90.47230790000322,90.47230790000322,90.47230790000322,90.47230790000322,90.47230790000322,90.47230790000322,001,P001,2025_Jan_17_1848,CategoryLocalizer,2021.2.3,59.92477044500967,
56.0,56.8,3,0.75,Stimuli\ImageFiles-Set1\Faces\Face_00037.png,0,0,0,89,89,89,,,,,,,,,,,,,56.01463199999853,0.014631999998528045,None,,90.65574220000417,90.65574220000417,90.65574220000417,90.65574220000417,90.65574220000417,90.65574220000417,90.65574220000417,90.65574220000417,001,P001,2025_Jan_17_1848,CategoryLocalizer,2021.2.3,59.92477044500967,
56.8,57.0,5,0.0,Stimuli\Blank.png,0,0,0,90,90,90,,,,,,,,,,,,,56.85051899999962,0.050518999999624725,None,,91.4731224000061,91.4731224000061,91.4731224000061,91.4731224000061,91.4731224000061,91.4731224000061,91.4731224000061,91.4731224000061,001,P001,2025_Jan_17_1848,CategoryLocalizer,2021.2.3,59.92477044500967,
57.0,57.8,3,0.75,Stimuli\ImageFiles-Set1\Faces\Face_00027.png,0,0,0,91,91,91,,,,,,,,,,,,,57.015523099995335,0.015523099995334633,None,,91.65662350000639,91.65662350000639,91.65662350000639,91.65662350000639,91.65662350000639,91.65662350000639,91.65662350000639,91.65662350000639,001,P001,2025_Jan_17_1848,CategoryLocalizer,2021.2.3,59.92477044500967,
57.8,58.0,5,0.0,Stimuli\Blank.png,0,0,0,92,92,92,,,,,,,,,,,,,57.83438480000041,0.03438480000041011,5,0.1267496000000392,92.45735500000592,92.45735500000592,92.45735500000592,92.45735500000592,92.45735500000592,92.45735500000592,92.45735500000592,92.45735500000592,001,P001,2025_Jan_17_1848,CategoryLocalizer,2021.2.3,59.92477044500967,
58.0,58.8,3,0.75,Stimuli\ImageFiles-Set1\Faces\Face_00053.png,0,0,0,93,93,93,,,,,,,,,,,,,58.016492599999765,0.016492599999764934,None,,92.64081319999968,92.64081319999968,92.64081319999968,92.64081319999968,92.64081319999968,92.64081319999968,92.64081319999968,92.64081319999968,001,P001,2025_Jan_17_1848,CategoryLocalizer,2021.2.3,59.92477044500967,
58.8,59.0,5,0.0,Stimuli\Blank.png,0,0,0,94,94,94,,,,,,,,,,,,,58.81682980000187,0.016829800001872286,None,,93.4248435000045,93.4248435000045,93.4248435000045,93.4248435000045,93.4248435000045,93.4248435000045,93.4248435000045,93.4248435000045,001,P001,2025_Jan_17_1848,CategoryLocalizer,2021.2.3,59.92477044500967,
59.0,59.8,3,0.75,Stimuli\ImageFiles-Set1\Faces\Face_00033.png,0,0,0,95,95,95,,,,,,,,,,,,,59.00073020000127,0.0007302000012714416,None,,93.62501490000432,93.62501490000432,93.62501490000432,93.62501490000432,93.62501490000432,93.62501490000432,93.62501490000432,93.62501490000432,001,P001,2025_Jan_17_1848,CategoryLocalizer,2021.2.3,59.92477044500967,
59.8,60.0,5,0.0,Stimuli\Blank.png,0,0,0,96,96,96,,,,,,,,,,,,,59.81992889999674,0.01992889999674219,5,0.14168190000054892,94.44242950000626,94.44242950000626,94.44242950000626,94.44242950000626,94.44242950000626,94.44242950000626,94.44242950000626,94.44242950000626,001,P001,2025_Jan_17_1848,CategoryLocalizer,2021.2.3,59.92477044500967,
60.0,60.8,4,0.75,Stimuli\ImageFiles-Set1\Scenes\Scenes_008.png,0,0,0,97,97,97,,,,,,,,,,,,,60.02026749999641,0.020267499996407423,None,,94.6425892000043,94.6425892000043,94.6425892000043,94.6425892000043,94.6425892000043,94.6425892000043,94.6425892000043,94.6425892000043,001,P001,2025_Jan_17_1848,CategoryLocalizer,2021.2.3,59.92477044500967,
60.8,61.0,5,0.0,Stimuli\Blank.png,0,0,0,98,98,98,,,,,,,,,,,,,60.8207653999998,0.02076539999980298,None,,95.44329730000027,95.44329730000027,95.44329730000027,95.44329730000027,95.44329730000027,95.44329730000027,95.44329730000027,95.44329730000027,001,P001,2025_Jan_17_1848,CategoryLocalizer,2021.2.3,59.92477044500967,
61.0,61.8,4,0.75,Stimuli\ImageFiles-Set1\Scenes\Scenes_007.png,0,0,0,99,99,99,,,,,,,,,,,,,61.020997499996156,0.020997499996155966,None,,95.64348350000364,95.64348350000364,95.64348350000364,95.64348350000364,95.64348350000364,95.64348350000364,95.64348350000364,95.64348350000364,001,P001,2025_Jan_17_1848,CategoryLocalizer,2021.2.3,59.92477044500967,
61.8,62.0,5,0.0,Stimuli\Blank.png,0,0,0,100,100,100,,,,,,,,,,,,,61.820406200000434,0.020406200000437025,None,,96.427517300006,96.427517300006,96.427517300006,96.427517300006,96.427517300006,96.427517300006,96.427517300006,96.427517300006,001,P001,2025_Jan_17_1848,CategoryLocalizer,2021.2.3,59.92477044500967,
62.0,62.8,4,0.75,Stimuli\ImageFiles-Set1\Scenes\Scenes_014.png,0,0,0,101,101,101,,,,,,,,,,,,,62.00306889999774,0.0030688999977428466,None,,96.62769690000277,96.62769690000277,96.62769690000277,96.62769690000277,96.62769690000277,96.62769690000277,96.62769690000277,96.62769690000277,001,P001,2025_Jan_17_1848,CategoryLocalizer,2021.2.3,59.92477044500967,
62.8,63.0,5,0.0,Stimuli\Blank.png,0,0,0,102,102,102,,,,,,,,,,,,,62.821262400000705,0.021262400000708226,None,,97.42839200000162,97.42839200000162,97.42839200000162,97.42839200000162,97.42839200000162,97.42839200000162,97.42839200000162,97.42839200000162,001,P001,2025_Jan_17_1848,CategoryLocalizer,2021.2.3,59.92477044500967,
63.0,63.8,4,0.75,Stimuli\ImageFiles-Set1\Scenes\Scenes_014.png,1,1,0,103,103,103,,,,,,,,,,,,,63.00445380000019,0.004453800000192132,3,0.5048285999946529,97.62855640000635,97.62855640000635,97.62855640000635,97.62855640000635,97.62855640000635,97.62855640000635,97.62855640000635,97.62855640000635,001,P001,2025_Jan_17_1848,CategoryLocalizer,2021.2.3,59.92477044500967,
63.8,64.0,5,0.0,Stimuli\Blank.png,0,0,0,104,104,104,,,,,,,,,,,,,63.821722599997884,0.021722599997886505,None,,98.42926960000477,98.42926960000477,98.42926960000477,98.42926960000477,98.42926960000477,98.42926960000477,98.42926960000477,98.42926960000477,001,P001,2025_Jan_17_1848,CategoryLocalizer,2021.2.3,59.92477044500967,
64.0,64.8,4,0.75,Stimuli\ImageFiles-Set1\Scenes\Scenes_046.png,0,0,0,105,105,105,,,,,,,,,,,,,64.00522030000138,0.005220300001383293,None,,98.62945060000493,98.62945060000493,98.62945060000493,98.62945060000493,98.62945060000493,98.62945060000493,98.62945060000493,98.62945060000493,001,P001,2025_Jan_17_1848,CategoryLocalizer,2021.2.3,59.92477044500967,
64.8,65.0,5,0.0,Stimuli\Blank.png,0,0,0,106,106,106,,,,,,,,,,,,,64.82222360000014,0.022223600000145893,None,,99.43015630000446,99.43015630000446,99.43015630000446,99.43015630000446,99.43015630000446,99.43015630000446,99.43015630000446,99.43015630000446,001,P001,2025_Jan_17_1848,CategoryLocalizer,2021.2.3,59.92477044500967,
65.0,65.8,4,0.75,Stimuli\ImageFiles-Set1\Scenes\Scenes_024.png,0,0,0,107,107,107,,,,,,,,,,,,,65.00537159999658,0.00537159999657888,None,,99.63032980000571,99.63032980000571,99.63032980000571,99.63032980000571,99.63032980000571,99.63032980000571,99.63032980000571,99.63032980000571,001,P001,2025_Jan_17_1848,CategoryLocalizer,2021.2.3,59.92477044500967,
65.8,66.0,5,0.0,Stimuli\Blank.png,0,0,0,108,108,108,,,,,,,,,,,,,65.8233567999996,0.02335679999960405,None,,100.4310891999994,100.4310891999994,100.4310891999994,100.4310891999994,100.4310891999994,100.4310891999994,100.4310891999994,100.4310891999994,001,P001,2025_Jan_17_1848,CategoryLocalizer,2021.2.3,59.92477044500967,
66.0,66.8,4,0.75,Stimuli\ImageFiles-Set1\Scenes\Scenes_050.png,0,0,0,109,109,109,,,,,,,,,,,,,66.00677899999573,0.006778999995731283,None,,100.6312168000004,100.6312168000004,100.6312168000004,100.6312168000004,100.6312168000004,100.6312168000004,100.6312168000004,100.6312168000004,001,P001,2025_Jan_17_1848,CategoryLocalizer,2021.2.3,59.92477044500967,
66.8,67.0,5,0.0,Stimuli\Blank.png,0,0,0,110,110,110,,,,,,,,,,,,,66.82468990000052,0.02468990000052429,None,,101.4320835000035,101.4320835000035,101.4320835000035,101.4320835000035,101.4320835000035,101.4320835000035,101.4320835000035,101.4320835000035,001,P001,2025_Jan_17_1848,CategoryLocalizer,2021.2.3,59.92477044500967,
67.0,67.8,4,0.75,Stimuli\ImageFiles-Set1\Scenes\Scenes_025.png,0,0,0,111,111,111,,,,,,,,,,,,,67.0074214999986,0.0074214999985997565,None,,101.61542040000495,101.61542040000495,101.61542040000495,101.61542040000495,101.61542040000495,101.61542040000495,101.61542040000495,101.61542040000495,001,P001,2025_Jan_17_1848,CategoryLocalizer,2021.2.3,59.92477044500967,
67.8,68.0,5,0.0,Stimuli\Blank.png,0,0,0,112,112,112,,,,,,,,,,,,,67.80989150000096,0.009891500000961173,5,0.152328000003763,102.4328311000063,102.4328311000063,102.4328311000063,102.4328311000063,102.4328311000063,102.4328311000063,102.4328311000063,102.4328311000063,001,P001,2025_Jan_17_1848,CategoryLocalizer,2021.2.3,59.92477044500967,
68.0,68.8,4,0.75,Stimuli\ImageFiles-Set1\Scenes\Scenes_030.png,0,0,0,113,113,113,,,,,,,,,,,,,68.02491569999984,0.02491569999983767,None,,102.64968510000472,102.64968510000472,102.64968510000472,102.64968510000472,102.64968510000472,102.64968510000472,102.64968510000472,102.64968510000472,001,P001,2025_Jan_17_1848,CategoryLocalizer,2021.2.3,59.92477044500967,
68.8,69.0,5,0.0,Stimuli\Blank.png,0,0,0,114,114,114,,,,,,,,,,,,,68.82572849999997,0.025728499999971177,None,,103.43370090000099,103.43370090000099,103.43370090000099,103.43370090000099,103.43370090000099,103.43370090000099,103.43370090000099,103.43370090000099,001,P001,2025_Jan_17_1848,CategoryLocalizer,2021.2.3,59.92477044500967,
69.0,69.8,4,0.75,Stimuli\ImageFiles-Set1\Scenes\Scenes_013.png,0,0,0,115,115,115,,,,,,,,,,,,,69.00960430000123,0.009604300001228694,None,,103.63387010000588,103.63387010000588,103.63387010000588,103.63387010000588,103.63387010000588,103.63387010000588,103.63387010000588,103.63387010000588,001,P001,2025_Jan_17_1848,CategoryLocalizer,2021.2.3,59.92477044500967,
69.8,70.0,5,0.0,Stimuli\Blank.png,0,0,0,116,116,116,,,,,,,,,,,,,69.82686729999841,0.02686729999841475,5,0.1506186000042362,104.4345822000032,104.4345822000032,104.4345822000032,104.4345822000032,104.4345822000032,104.4345822000032,104.4345822000032,104.4345822000032,001,P001,2025_Jan_17_1848,CategoryLocalizer,2021.2.3,59.92477044500967,
70.0,70.8,4,0.75,Stimuli\ImageFiles-Set1\Scenes\Scenes_045.png,0,0,0,117,117,117,,,,,,,,,,,,,70.01063530000101,0.010635300001013093,None,,104.63475650000328,104.63475650000328,104.63475650000328,104.63475650000328,104.63475650000328,104.63475650000328,104.63475650000328,104.63475650000328,001,P001,2025_Jan_17_1848,CategoryLocalizer,2021.2.3,59.92477044500967,
70.8,71.0,5,0.0,Stimuli\Blank.png,0,0,0,118,118,118,,,,,,,,,,,,,70.82725719999871,0.02725719999871501,None,,105.43546100000094,105.43546100000094,105.43546100000094,105.43546100000094,105.43546100000094,105.43546100000094,105.43546100000094,105.43546100000094,001,P001,2025_Jan_17_1848,CategoryLocalizer,2021.2.3,59.92477044500967,
71.0,71.8,4,0.75,Stimuli\ImageFiles-Set1\Scenes\Scenes_058.png,0,0,0,119,119,119,,,,,,,,,,,,,71.01098259999708,0.010982599997078069,None,,105.63563640000211,105.63563640000211,105.63563640000211,105.63563640000211,105.63563640000211,105.63563640000211,105.63563640000211,105.63563640000211,001,P001,2025_Jan_17_1848,CategoryLocalizer,2021.2.3,59.92477044500967,
71.8,72.0,5,0.0,Stimuli\Blank.png,0,0,0,120,120,120,,,,,,,,,,,,,71.83048569999664,0.030485699996646076,5,0.13216329999704612,106.45307110000431,106.45307110000431,106.45307110000431,106.45307110000431,106.45307110000431,106.45307110000431,106.45307110000431,106.45307110000431,001,P001,2025_Jan_17_1848,CategoryLocalizer,2021.2.3,59.92477044500967,
72.0,72.8,4,0.75,Stimuli\ImageFiles-Set1\Scenes\Scenes_054.png,0,0,0,121,121,121,,,,,,,,,,,,,72.02842379999493,0.028423799994925503,None,,106.65321730000142,106.65321730000142,106.65321730000142,106.65321730000142,106.65321730000142,106.65321730000142,106.65321730000142,106.65321730000142,001,P001,2025_Jan_17_1848,CategoryLocalizer,2021.2.3,59.92477044500967,
72.8,73.0,5,0.0,Stimuli\Blank.png,0,0,0,122,122,122,,,,,,,,,,,,,72.8294928999967,0.02949289999669702,None,,107.43725670000276,107.43725670000276,107.43725670000276,107.43725670000276,107.43725670000276,107.43725670000276,107.43725670000276,107.43725670000276,001,P001,2025_Jan_17_1848,CategoryLocalizer,2021.2.3,59.92477044500967,
73.0,73.8,4,0.75,Stimuli\ImageFiles-Set1\Scenes\Scenes_053.png,1,1,0,123,123,123,,,,,,,,,,,,,73.01444049999554,0.014440499995544087,None,,107.65410270000575,107.65410270000575,107.65410270000575,107.65410270000575,107.65410270000575,107.65410270000575,107.65410270000575,107.65410270000575,001,P001,2025_Jan_17_1848,CategoryLocalizer,2021.2.3,59.92477044500967,
73.8,74.0,5,0.0,Stimuli\Blank.png,0,0,0,124,124,124,,,,,,,,,,,,,73.84672239999782,0.0467223999978188,5,0.13037070000427775,108.45480950000638,108.45480950000638,108.45480950000638,108.45480950000638,108.45480950000638,108.45480950000638,108.45480950000638,108.45480950000638,001,P001,2025_Jan_17_1848,CategoryLocalizer,2021.2.3,59.92477044500967,
74.0,74.8,4,0.75,Stimuli\ImageFiles-Set1\Scenes\Scenes_056.png,0,0,0,125,125,125,,,,,,,,,,,,,74.01618990000134,0.016189900001336355,None,,108.63831919999939,108.63831919999939,108.63831919999939,108.63831919999939,108.63831919999939,108.63831919999939,108.63831919999939,108.63831919999939,001,P001,2025_Jan_17_1848,CategoryLocalizer,2021.2.3,59.92477044500967,
74.8,75.0,5,0.0,Stimuli\Blank.png,0,0,0,126,126,126,,,,,,,,,,,,,74.81510339999659,0.015103399996590383,None,,109.42233300000225,109.42233300000225,109.42233300000225,109.42233300000225,109.42233300000225,109.42233300000225,109.42233300000225,109.42233300000225,001,P001,2025_Jan_17_1848,CategoryLocalizer,2021.2.3,59.92477044500967,
75.0,75.8,4,0.75,Stimuli\ImageFiles-Set1\Scenes\Scenes_056.png,0,0,0,127,127,127,,,,,,,,,,,,,75.01440469999943,0.014404699999431614,3,0.3916675999935251,109.62250320000021,109.62250320000021,109.62250320000021,109.62250320000021,109.62250320000021,109.62250320000021,109.62250320000021,109.62250320000021,001,P001,2025_Jan_17_1848,CategoryLocalizer,2021.2.3,59.92477044500967,
75.8,76.0,5,0.0,Stimuli\Blank.png,0,0,0,128,128,128,,,,,,,,,,,,,75.81497200000013,0.014972000000128105,5,0.16209869999875082,110.4232117000065,110.4232117000065,110.4232117000065,110.4232117000065,110.4232117000065,110.4232117000065,110.4232117000065,110.4232117000065,001,P001,2025_Jan_17_1848,CategoryLocalizer,2021.2.3,59.92477044500967,
76.0,88.0,0,0.0,Stimuli\Blank.png,0,0,0,129,129,129,,,,,,,,,,,,,76.01611849999608,0.01611849999608239,5,11.961692500000936,110.6233957000004,110.6233957000004,110.6233957000004,110.6233957000004,110.6233957000004,110.6233957000004,110.6233957000004,110.6233957000004,001,P001,2025_Jan_17_1848,CategoryLocalizer,2021.2.3,59.92477044500967,
88.0,88.8,3,0.75,Stimuli\ImageFiles-Set1\Faces\Face_00107.png,0,0,0,130,130,130,,,,,,,,,,,,,88.01045670000167,0.01045670000166865,None,,122.6340113000042,122.6340113000042,122.6340113000042,122.6340113000042,122.6340113000042,122.6340113000042,122.6340113000042,122.6340113000042,001,P001,2025_Jan_17_1848,CategoryLocalizer,2021.2.3,59.92477044500967,
88.8,89.0,5,0.0,Stimuli\Blank.png,0,0,0,131,131,131,,,,,,,,,,,,,88.82650039999862,0.026500399998624857,None,,123.43471810000483,123.43471810000483,123.43471810000483,123.43471810000483,123.43471810000483,123.43471810000483,123.43471810000483,123.43471810000483,001,P001,2025_Jan_17_1848,CategoryLocalizer,2021.2.3,59.92477044500967,
89.0,89.8,3,0.75,Stimuli\ImageFiles-Set1\Faces\Face_00089.png,0,0,0,132,132,132,,,,,,,,,,,,,89.01071650000085,0.010716500000853557,None,,123.63491170000634,123.63491170000634,123.63491170000634,123.63491170000634,123.63491170000634,123.63491170000634,123.63491170000634,123.63491170000634,001,P001,2025_Jan_17_1848,CategoryLocalizer,2021.2.3,59.92477044500967,
89.8,90.0,5,0.0,Stimuli\Blank.png,0,0,0,133,133,133,,,,,,,,,,,,,89.82745849999628,0.027458499996285468,5,0.14956370000436436,124.43560230000003,124.43560230000003,124.43560230000003,124.43560230000003,124.43560230000003,124.43560230000003,124.43560230000003,124.43560230000003,001,P001,2025_Jan_17_1848,CategoryLocalizer,2021.2.3,59.92477044500967,
90.0,90.8,3,0.75,Stimuli\ImageFiles-Set1\Faces\Face_00005.png,0,0,0,134,134,134,,,,,,,,,,,,,90.01145539999561,0.011455399995611515,None,,124.63580580000416,124.63580580000416,124.63580580000416,124.63580580000416,124.63580580000416,124.63580580000416,124.63580580000416,124.63580580000416,001,P001,2025_Jan_17_1848,CategoryLocalizer,2021.2.3,59.92477044500967,
90.8,91.0,5,0.0,Stimuli\Blank.png,0,0,0,135,135,135,,,,,,,,,,,,,90.83081959999981,0.030819599999816205,None,,125.45317760000034,125.45317760000034,125.45317760000034,125.45317760000034,125.45317760000034,125.45317760000034,125.45317760000034,125.45317760000034,001,P001,2025_Jan_17_1848,CategoryLocalizer,2021.2.3,59.92477044500967,
91.0,91.8,3,0.75,Stimuli\ImageFiles-Set1\Faces\Face_00007.png,0,0,0,136,136,136,,,,,,,,,,,,,91.030382500001,0.030382500000996515,None,,125.65336550000211,125.65336550000211,125.65336550000211,125.65336550000211,125.65336550000211,125.65336550000211,125.65336550000211,125.65336550000211,001,P001,2025_Jan_17_1848,CategoryLocalizer,2021.2.3,59.92477044500967,
91.8,92.0,5,0.0,Stimuli\Blank.png,0,0,0,137,137,137,,,,,,,,,,,,,91.82947219999915,0.029472199999148074,5,0.1477960999982315,126.43737530000362,126.43737530000362,126.43737530000362,126.43737530000362,126.43737530000362,126.43737530000362,126.43737530000362,126.43737530000362,001,P001,2025_Jan_17_1848,CategoryLocalizer,2021.2.3,59.92477044500967,
92.0,92.8,3,0.75,Stimuli\ImageFiles-Set1\Faces\Face_00041.png,0,0,0,138,138,138,,,,,,,,,,,,,92.01386819999607,0.013868199996068142,None,,126.63755590000073,126.63755590000073,126.63755590000073,126.63755590000073,126.63755590000073,126.63755590000073,126.63755590000073,126.63755590000073,001,P001,2025_Jan_17_1848,CategoryLocalizer,2021.2.3,59.92477044500967,
92.8,93.0,5,0.0,Stimuli\Blank.png,0,0,0,139,139,139,,,,,,,,,,,,,92.8311806999991,0.031180699999097783,None,,127.43827550000424,127.43827550000424,127.43827550000424,127.43827550000424,127.43827550000424,127.43827550000424,127.43827550000424,127.43827550000424,001,P001,2025_Jan_17_1848,CategoryLocalizer,2021.2.3,59.92477044500967,
93.0,93.8,3,0.75,Stimuli\ImageFiles-Set1\Faces\Face_00003.png,0,0,0,140,140,140,,,,,,,,,,,,,93.01601619999565,0.016016199995647185,None,,127.63844280000194,127.63844280000194,127.63844280000194,127.63844280000194,127.63844280000194,127.63844280000194,127.63844280000194,127.63844280000194,001,P001,2025_Jan_17_1848,CategoryLocalizer,2021.2.3,59.92477044500967,
93.8,94.0,5,0.0,Stimuli\Blank.png,0,0,0,141,141,141,,,,,,,,,,,,,93.8146093999967,0.014609399996700745,5,0.16282260000298265,128.42248250000557,128.42248250000557,128.42248250000557,128.42248250000557,128.42248250000557,128.42248250000557,128.42248250000557,128.42248250000557,001,P001,2025_Jan_17_1848,CategoryLocalizer,2021.2.3,59.92477044500967,
94.0,94.8,3,0.75,Stimuli\ImageFiles-Set1\Faces\Face_00003.png,1,1,0,142,142,142,,,,,,,,,,,,,94.01474400000006,0.014744000000064261,3,0.40576050000527175,128.62264940000023,128.62264940000023,128.62264940000023,128.62264940000023,128.62264940000023,128.62264940000023,128.62264940000023,128.62264940000023,001,P001,2025_Jan_17_1848,CategoryLocalizer,2021.2.3,59.92477044500967,
94.8,95.0,5,0.0,Stimuli\Blank.png,0,0,0,143,143,143,,,,,,,,,,,,,94.81570490000013,0.015704900000130806,None,,129.4233647000001,129.4233647000001,129.4233647000001,129.4233647000001,129.4233647000001,129.4233647000001,129.4233647000001,129.4233647000001,001,P001,2025_Jan_17_1848,CategoryLocalizer,2021.2.3,59.92477044500967,
95.0,95.8,3,0.75,Stimuli\ImageFiles-Set1\Faces\Face_00109.png,0,0,0,144,144,144,,,,,,,,,,,,,94.99934309999662,-0.0006569000033778138,None,,129.6236116,129.6236116,129.6236116,129.6236116,129.6236116,129.6236116,129.6236116,129.6236116,001,P001,2025_Jan_17_1848,CategoryLocalizer,2021.2.3,59.92477044500967,
95.8,96.0,5,0.0,Stimuli\Blank.png,0,0,0,145,145,145,,,,,,,,,,,,,95.81644299999607,0.016442999996073127,None,,130.42423030000646,130.42423030000646,130.42423030000646,130.42423030000646,130.42423030000646,130.42423030000646,130.42423030000646,130.42423030000646,001,P001,2025_Jan_17_1848,CategoryLocalizer,2021.2.3,59.92477044500967,
96.0,96.8,3,0.75,Stimuli\ImageFiles-Set1\Faces\Face_00079.png,0,0,0,146,146,146,,,,,,,,,,,,,96.00051939999685,0.0005193999968469143,None,,130.64108440000564,130.64108440000564,130.64108440000564,130.64108440000564,130.64108440000564,130.64108440000564,130.64108440000564,130.64108440000564,001,P001,2025_Jan_17_1848,CategoryLocalizer,2021.2.3,59.92477044500967,
96.8,97.0,5,0.0,Stimuli\Blank.png,0,0,0,147,147,147,,,,,,,,,,,,,96.8350580999977,0.03505809999769838,None,,131.4584931000063,131.4584931000063,131.4584931000063,131.4584931000063,131.4584931000063,131.4584931000063,131.4584931000063,131.4584931000063,001,P001,2025_Jan_17_1848,CategoryLocalizer,2021.2.3,59.92477044500967,
97.0,97.8,3,0.75,Stimuli\ImageFiles-Set1\Faces\Face_00009.png,0,0,0,148,148,148,,,,,,,,,,,,,97.01758139999583,0.017581399995833635,None,,131.64195630000177,131.64195630000177,131.64195630000177,131.64195630000177,131.64195630000177,131.64195630000177,131.64195630000177,131.64195630000177,001,P001,2025_Jan_17_1848,CategoryLocalizer,2021.2.3,59.92477044500967,
97.8,98.0,5,0.0,Stimuli\Blank.png,0,0,0,149,149,149,,,,,,,,,,,,,97.8175149000017,0.017514900001700084,None,,132.4260093000048,132.4260093000048,132.4260093000048,132.4260093000048,132.4260093000048,132.4260093000048,132.4260093000048,132.4260093000048,001,P001,2025_Jan_17_1848,CategoryLocalizer,2021.2.3,59.92477044500967,
98.0,98.8,3,0.75,Stimuli\ImageFiles-Set1\Faces\Face_00020.png,0,0,0,150,150,150,,,,,,,,,,,,,98.001969799996,0.00196979999600444,None,,132.64288380000653,132.64288380000653,132.64288380000653,132.64288380000653,132.64288380000653,132.64288380000653,132.64288380000653,132.64288380000653,001,P001,2025_Jan_17_1848,CategoryLocalizer,2021.2.3,59.92477044500967,
98.8,99.0,5,0.0,Stimuli\Blank.png,0,0,0,151,151,151,,,,,,,,,,,,,98.83520860000135,0.035208600001354284,None,,133.44358300000022,133.44358300000022,133.44358300000022,133.44358300000022,133.44358300000022,133.44358300000022,133.44358300000022,133.44358300000022,001,P001,2025_Jan_17_1848,CategoryLocalizer,2021.2.3,59.92477044500967,
99.0,99.8,3,0.75,Stimuli\ImageFiles-Set1\Faces\Face_00073.png,0,0,0,152,152,152,,,,,,,,,,,,,99.00467750000098,0.004677500000980217,None,,133.64375010000367,133.64375010000367,133.64375010000367,133.64375010000367,133.64375010000367,133.64375010000367,133.64375010000367,133.64375010000367,001,P001,2025_Jan_17_1848,CategoryLocalizer,2021.2.3,59.92477044500967,
99.8,100.0,5,0.0,Stimuli\Blank.png,0,0,0,153,153,153,,,,,,,,,,,,,99.83673750000162,0.036737500001621015,None,,134.44445320000523,134.44445320000523,134.44445320000523,134.44445320000523,134.44445320000523,134.44445320000523,134.44445320000523,134.44445320000523,001,P001,2025_Jan_17_1848,CategoryLocalizer,2021.2.3,59.92477044500967,
100.0,100.8,3,0.75,Stimuli\ImageFiles-Set1\Faces\Face_00117.png,0,0,0,154,154,154,,,,,,,,,,,,,100.00422719999915,0.004227199999149889,None,,134.62801220000256,134.62801220000256,134.62801220000256,134.62801220000256,134.62801220000256,134.62801220000256,134.62801220000256,134.62801220000256,001,P001,2025_Jan_17_1848,CategoryLocalizer,2021.2.3,59.92477044500967,
100.8,101.0,5,0.0,Stimuli\Blank.png,0,0,0,155,155,155,,,,,,,,,,,,,100.82022380000126,0.02022380000126134,None,,135.4286637000041,135.4286637000041,135.4286637000041,135.4286637000041,135.4286637000041,135.4286637000041,135.4286637000041,135.4286637000041,001,P001,2025_Jan_17_1848,CategoryLocalizer,2021.2.3,59.92477044500967,
101.0,101.8,3,0.75,Stimuli\ImageFiles-Set1\Faces\Face_00025.png,0,0,0,156,156,156,,,,,,,,,,,,,101.00442499999917,0.004424999999173451,None,,135.62883590000274,135.62883590000274,135.62883590000274,135.62883590000274,135.62883590000274,135.62883590000274,135.62883590000274,135.62883590000274,001,P001,2025_Jan_17_1848,CategoryLocalizer,2021.2.3,59.92477044500967,
101.8,102.0,5,0.0,Stimuli\Blank.png,0,0,0,157,157,157,,,,,,,,,,,,,101.82148449999659,0.02148449999658908,None,,136.4295462000009,136.4295462000009,136.4295462000009,136.4295462000009,136.4295462000009,136.4295462000009,136.4295462000009,136.4295462000009,001,P001,2025_Jan_17_1848,CategoryLocalizer,2021.2.3,59.92477044500967,
102.0,102.8,3,0.75,Stimuli\ImageFiles-Set1\Faces\Face_00069.png,0,0,0,158,158,158,,,,,,,,,,,,,102.00560540000151,0.005605400001513772,None,,136.62973920000513,136.62973920000513,136.62973920000513,136.62973920000513,136.62973920000513,136.62973920000513,136.62973920000513,136.62973920000513,001,P001,2025_Jan_17_1848,CategoryLocalizer,2021.2.3,59.92477044500967,
102.8,103.0,5,0.0,Stimuli\Blank.png,0,0,0,159,159,159,,,,,,,,,,,,,102.8226560999974,0.022656099997405477,None,,137.43044530000043,137.43044530000043,137.43044530000043,137.43044530000043,137.43044530000043,137.43044530000043,137.43044530000043,137.43044530000043,001,P001,2025_Jan_17_1848,CategoryLocalizer,2021.2.3,59.92477044500967,
103.0,103.8,3,0.75,Stimuli\ImageFiles-Set1\Faces\Face_00101.png,0,0,0,160,160,160,,,,,,,,,,,,,103.00593020000088,0.0059302000008756295,None,,137.63083120000374,137.63083120000374,137.63083120000374,137.63083120000374,137.63083120000374,137.63083120000374,137.63083120000374,137.63083120000374,001,P001,2025_Jan_17_1848,CategoryLocalizer,2021.2.3,59.92477044500967,
103.8,104.0,5,0.0,Stimuli\Blank.png,0,0,0,161,161,161,,,,,,,,,,,,,103.82483089999732,0.024830899997326128,5,0.1371720999959507,138.44801910000388,138.44801910000388,138.44801910000388,138.44801910000388,138.44801910000388,138.44801910000388,138.44801910000388,138.44801910000388,001,P001,2025_Jan_17_1848,CategoryLocalizer,2021.2.3,59.92477044500967,
104.0,104.8,1,0.75,Stimuli\ImageFiles-Set1\Objects\Object_Oven_00001.png,0,0,0,162,162,162,,,,,,,,,,,,,104.02556509999704,0.025565099997038487,None,,138.6481888000053,138.6481888000053,138.6481888000053,138.6481888000053,138.6481888000053,138.6481888000053,138.6481888000053,138.6481888000053,001,P001,2025_Jan_17_1848,CategoryLocalizer,2021.2.3,59.92477044500967,
104.8,105.0,5,0.0,Stimuli\Blank.png,0,0,0,163,163,163,,,,,,,,,,,,,104.82441950000066,0.024419500000661287,None,,139.4322256000014,139.4322256000014,139.4322256000014,139.4322256000014,139.4322256000014,139.4322256000014,139.4322256000014,139.4322256000014,001,P001,2025_Jan_17_1848,CategoryLocalizer,2021.2.3,59.92477044500967,
105.0,105.8,1,0.75,Stimuli\ImageFiles-Set1\Objects\Object_Toilet_00001.png,0,0,0,164,164,164,,,,,,,,,,,,,105.00942009999562,0.009420099995622877,None,,139.63239080000494,139.63239080000494,139.63239080000494,139.63239080000494,139.63239080000494,139.63239080000494,139.63239080000494,139.63239080000494,001,P001,2025_Jan_17_1848,CategoryLocalizer,2021.2.3,59.92477044500967,
105.8,106.0,5,0.0,Stimuli\Blank.png,0,0,0,165,165,165,,,,,,,,,,,,,105.82580769999913,0.02580769999913457,5,0.1352850000039325,140.449858400003,140.449858400003,140.449858400003,140.449858400003,140.449858400003,140.449858400003,140.449858400003,140.449858400003,001,P001,2025_Jan_17_1848,CategoryLocalizer,2021.2.3,59.92477044500967,
106.0,106.8,1,0.75,Stimuli\ImageFiles-Set1\Objects\Object_Toilet_00001.png,1,1,0,166,166,166,,,,,,,,,,,,,106.02486510000017,0.02486510000017006,3,0.4430233999955817,140.63326970000344,140.63326970000344,140.63326970000344,140.63326970000344,140.63326970000344,140.63326970000344,140.63326970000344,140.63326970000344,001,P001,2025_Jan_17_1848,CategoryLocalizer,2021.2.3,59.92477044500967,
106.8,107.0,5,0.0,Stimuli\Blank.png,0,0,0,167,167,167,,,,,,,,,,,,,106.80955230000109,0.009552300001089975,None,,141.4173091000048,141.4173091000048,141.4173091000048,141.4173091000048,141.4173091000048,141.4173091000048,141.4173091000048,141.4173091000048,001,P001,2025_Jan_17_1848,CategoryLocalizer,2021.2.3,59.92477044500967,
107.0,107.8,1,0.75,Stimuli\ImageFiles-Set1\Objects\Object_Knife_00001.png,0,0,0,168,168,168,,,,,,,,,,,,,107.01007830000162,0.010078300001623575,None,,141.65084500000376,141.65084500000376,141.65084500000376,141.65084500000376,141.65084500000376,141.65084500000376,141.65084500000376,141.65084500000376,001,P001,2025_Jan_17_1848,CategoryLocalizer,2021.2.3,59.92477044500967,
107.8,108.0,5,0.0,Stimuli\Blank.png,0,0,0,169,169,169,,,,,,,,,,,,,107.84547329999623,0.04547329999623173,5,0.1170369999963441,142.4682399000012,142.4682399000012,142.4682399000012,142.4682399000012,142.4682399000012,142.4682399000012,142.4682399000012,142.4682399000012,001,P001,2025_Jan_17_1848,CategoryLocalizer,2021.2.3,59.92477044500967,
108.0,108.8,1,0.75,Stimuli\ImageFiles-Set1\Objects\Object_FileFolder_00001.png,0,0,0,170,170,170,,,,,,,,,,,,,108.0272999000008,0.027299900000798516,None,,142.65173090000462,142.65173090000462,142.65173090000462,142.65173090000462,142.65173090000462,142.65173090000462,142.65173090000462,142.65173090000462,001,P001,2025_Jan_17_1848,CategoryLocalizer,2021.2.3,59.92477044500967,
108.8,109.0,5,0.0,Stimuli\Blank.png,0,0,0,171,171,171,,,,,,,,,,,,,108.82990289999725,0.029902899997253485,None,,143.45244490000186,143.45244490000186,143.45244490000186,143.45244490000186,143.45244490000186,143.45244490000186,143.45244490000186,143.45244490000186,001,P001,2025_Jan_17_1848,CategoryLocalizer,2021.2.3,59.92477044500967,
109.0,109.8,1,0.75,Stimuli\ImageFiles-Set1\Objects\Object_Pot_00001.png,0,0,0,172,172,172,,,,,,,,,,,,,109.02746900000056,0.027469000000564847,None,,143.6359242000035,143.6359242000035,143.6359242000035,143.6359242000035,143.6359242000035,143.6359242000035,143.6359242000035,143.6359242000035,001,P001,2025_Jan_17_1848,CategoryLocalizer,2021.2.3,59.92477044500967,
109.8,110.0,5,0.0,Stimuli\Blank.png,0,0,0,173,173,173,,,,,,,,,,,,,109.81236239999998,0.012362399999986451,5,0.1653061000033631,144.4199546000018,144.4199546000018,144.4199546000018,144.4199546000018,144.4199546000018,144.4199546000018,144.4199546000018,144.4199546000018,001,P001,2025_Jan_17_1848,CategoryLocalizer,2021.2.3,59.92477044500967,
110.0,110.8,1,0.75,Stimuli\ImageFiles-Set1\Objects\Object_Stool_00001.png,0,0,0,174,174,174,,,,,,,,,,,,,110.01204779999534,0.012047799995343667,None,,144.63681440000073,144.63681440000073,144.63681440000073,144.63681440000073,144.63681440000073,144.63681440000073,144.63681440000073,144.63681440000073,001,P001,2025_Jan_17_1848,CategoryLocalizer,2021.2.3,59.92477044500967,
110.8,111.0,5,0.0,Stimuli\Blank.png,0,0,0,175,175,175,,,,,,,,,,,,,110.83044539999537,0.030445399995372213,None,,145.43752600000153,145.43752600000153,145.43752600000153,145.43752600000153,145.43752600000153,145.43752600000153,145.43752600000153,145.43752600000153,001,P001,2025_Jan_17_1848,CategoryLocalizer,2021.2.3,59.92477044500967,
111.0,111.8,1,0.75,Stimuli\ImageFiles-Set1\Objects\Object_Bed_00001.png,0,0,0,176,176,176,,,,,,,,,,,,,111.0144691999958,0.014469199995801318,None,,145.63775310000347,145.63775310000347,145.63775310000347,145.63775310000347,145.63775310000347,145.63775310000347,145.63775310000347,145.63775310000347,001,P001,2025_Jan_17_1848,CategoryLocalizer,2021.2.3,59.92477044500967,
111.8,112.0,5,0.0,Stimuli\Blank.png,0,0,0,177,177,177,,,,,,,,,,,,,111.83078519999981,0.030785199999812107,5,0.1467239999983576,146.4384030000001,146.4384030000001,146.4384030000001,146.4384030000001,146.4384030000001,146.4384030000001,146.4384030000001,146.4384030000001,001,P001,2025_Jan_17_1848,CategoryLocalizer,2021.2.3,59.92477044500967,
112.0,112.8,1,0.75,Stimuli\ImageFiles-Set1\Objects\Object_PepperShaker_00001.png,0,0,0,178,178,178,,,,,,,,,,,,,112.01454209999793,0.014542099997925106,None,,146.63857600000483,146.63857600000483,146.63857600000483,146.63857600000483,146.63857600000483,146.63857600000483,146.63857600000483,146.63857600000483,001,P001,2025_Jan_17_1848,CategoryLocalizer,2021.2.3,59.92477044500967,
112.8,113.0,5,0.0,Stimuli\Blank.png,0,0,0,179,179,179,,,,,,,,,,,,,112.8312122999996,0.031212299999609172,None,,147.43929170000047,147.43929170000047,147.43929170000047,147.43929170000047,147.43929170000047,147.43929170000047,147.43929170000047,147.43929170000047,001,P001,2025_Jan_17_1848,CategoryLocalizer,2021.2.3,59.92477044500967,
113.0,113.8,1,0.75,Stimuli\ImageFiles-Set1\Objects\Object_Door_00001.png,0,0,0,180,180,180,,,,,,,,,,,,,113.01542559999507,0.015425599995069206,None,,147.63947390000249,147.63947390000249,147.63947390000249,147.63947390000249,147.63947390000249,147.63947390000249,147.63947390000249,147.63947390000249,001,P001,2025_Jan_17_1848,CategoryLocalizer,2021.2.3,59.92477044500967,
113.8,114.0,5,0.0,Stimuli\Blank.png,0,0,0,181,181,181,,,,,,,,,,,,,113.81618190000154,0.016181900001541294,None,,148.42349150000518,148.42349150000518,148.42349150000518,148.42349150000518,148.42349150000518,148.42349150000518,148.42349150000518,148.42349150000518,001,P001,2025_Jan_17_1848,CategoryLocalizer,2021.2.3,59.92477044500967,
114.0,114.8,1,0.75,Stimuli\ImageFiles-Set1\Objects\Object_Motorcycle_00001.png,1,1,0,182,182,182,,,,,,,,,,,,,114.00001199999679,1.1999996786471456e-05,None,,148.62366230000043,148.62366230000043,148.62366230000043,148.62366230000043,148.62366230000043,148.62366230000043,148.62366230000043,148.62366230000043,001,P001,2025_Jan_17_1848,CategoryLocalizer,2021.2.3,59.92477044500967,
114.8,115.0,5,0.0,Stimuli\Blank.png,0,0,0,183,183,183,,,,,,,,,,,,,114.8165527999954,0.016552799995409373,None,,149.42437440000504,149.42437440000504,149.42437440000504,149.42437440000504,149.42437440000504,149.42437440000504,149.42437440000504,149.42437440000504,001,P001,2025_Jan_17_1848,CategoryLocalizer,2021.2.3,59.92477044500967,
115.0,115.8,1,0.75,Stimuli\ImageFiles-Set1\Objects\Object_Brush_00001.png,0,0,0,184,184,184,,,,,,,,,,,,,115.0007914999951,0.0007914999951026402,None,,149.62455740000587,149.62455740000587,149.62455740000587,149.62455740000587,149.62455740000587,149.62455740000587,149.62455740000587,149.62455740000587,001,P001,2025_Jan_17_1848,CategoryLocalizer,2021.2.3,59.92477044500967,
115.8,116.0,5,0.0,Stimuli\Blank.png,0,0,0,185,185,185,,,,,,,,,,,,,115.81965469999705,0.019654699997047942,5,0.14323709999735001,150.4419654000012,150.4419654000012,150.4419654000012,150.4419654000012,150.4419654000012,150.4419654000012,150.4419654000012,150.4419654000012,001,P001,2025_Jan_17_1848,CategoryLocalizer,2021.2.3,59.92477044500967,
116.0,116.8,1,0.75,Stimuli\ImageFiles-Set1\Objects\Object_Brush_00001.png,0,0,0,186,186,186,,,,,,,,,,,,,116.01731740000105,0.017317400001047645,3,0.5869798999992781,150.62543810000352,150.62543810000352,150.62543810000352,150.62543810000352,150.62543810000352,150.62543810000352,150.62543810000352,150.62543810000352,001,P001,2025_Jan_17_1848,CategoryLocalizer,2021.2.3,59.92477044500967,
116.8,117.0,5,0.0,Stimuli\Blank.png,0,0,0,187,187,187,,,,,,,,,,,,,116.8016357000015,0.0016357000015005951,None,,151.40946560000157,151.40946560000157,151.40946560000157,151.40946560000157,151.40946560000157,151.40946560000157,151.40946560000157,151.40946560000157,001,P001,2025_Jan_17_1848,CategoryLocalizer,2021.2.3,59.92477044500967,
117.0,117.8,1,0.75,Stimuli\ImageFiles-Set1\Objects\Object_Shirt_00001.png,0,0,0,188,188,188,,,,,,,,,,,,,117.00105909999547,0.001059099995472934,None,,151.6263261999993,151.6263261999993,151.6263261999993,151.6263261999993,151.6263261999993,151.6263261999993,151.6263261999993,151.6263261999993,001,P001,2025_Jan_17_1848,CategoryLocalizer,2021.2.3,59.92477044500967,
117.8,118.0,5,0.0,Stimuli\Blank.png,0,0,0,189,189,189,,,,,,,,,,,,,117.81951229999686,0.01951229999686177,None,,152.42704130000493,152.42704130000493,152.42704130000493,152.42704130000493,152.42704130000493,152.42704130000493,152.42704130000493,152.42704130000493,001,P001,2025_Jan_17_1848,CategoryLocalizer,2021.2.3,59.92477044500967,
118.0,118.8,1,0.75,Stimuli\ImageFiles-Set1\Objects\Object_Bottle_00001.png,0,0,0,190,190,190,,,,,,,,,,,,,118.0025953000004,0.002595300000393763,None,,152.61052670000208,152.61052670000208,152.61052670000208,152.61052670000208,152.61052670000208,152.61052670000208,152.61052670000208,152.61052670000208,001,P001,2025_Jan_17_1848,CategoryLocalizer,2021.2.3,59.92477044500967,
118.8,119.0,5,0.0,Stimuli\Blank.png,0,0,0,191,191,191,,,,,,,,,,,,,118.80463800000143,0.004638000001435216,None,,153.42793410000013,153.42793410000013,153.42793410000013,153.42793410000013,153.42793410000013,153.42793410000013,153.42793410000013,153.42793410000013,001,P001,2025_Jan_17_1848,CategoryLocalizer,2021.2.3,59.92477044500967,
119.0,119.8,1,0.75,Stimuli\ImageFiles-Set1\Objects\Object_Airplane_00001.png,0,0,0,192,192,192,,,,,,,,,,,,,119.02050880000024,0.020508800000243355,None,,153.6447954000032,153.6447954000032,153.6447954000032,153.6447954000032,153.6447954000032,153.6447954000032,153.6447954000032,153.6447954000032,001,P001,2025_Jan_17_1848,CategoryLocalizer,2021.2.3,59.92477044500967,
119.8,120.0,5,0.0,Stimuli\Blank.png,0,0,0,193,193,193,,,,,,,,,,,,,119.82122739999613,0.021227399996135432,None,,154.4288011000026,154.4288011000026,154.4288011000026,154.4288011000026,154.4288011000026,154.4288011000026,154.4288011000026,154.4288011000026,001,P001,2025_Jan_17_1848,CategoryLocalizer,2021.2.3,59.92477044500967,
120.0,120.8,4,0.75,Stimuli\ImageFiles-Set1\Scenes\Scenes_055.png,0,0,0,194,194,194,,,,,,,,,,,,,120.00388720000046,0.0038872000004630536,None,,154.62899680000555,154.62899680000555,154.62899680000555,154.62899680000555,154.62899680000555,154.62899680000555,154.62899680000555,154.62899680000555,001,P001,2025_Jan_17_1848,CategoryLocalizer,2021.2.3,59.92477044500967,
120.8,121.0,5,0.0,Stimuli\Blank.png,0,0,0,195,195,195,,,,,,,,,,,,,120.82166499999585,0.021664999995849143,None,,155.42971039999975,155.42971039999975,155.42971039999975,155.42971039999975,155.42971039999975,155.42971039999975,155.42971039999975,155.42971039999975,001,P001,2025_Jan_17_1848,CategoryLocalizer,2021.2.3,59.92477044500967,
121.0,121.8,4,0.75,Stimuli\ImageFiles-Set1\Scenes\Scenes_021.png,0,0,0,196,196,196,,,,,,,,,,,,,121.0057478000017,0.005747800001699943,None,,155.63037299999996,155.63037299999996,155.63037299999996,155.63037299999996,155.63037299999996,155.63037299999996,155.63037299999996,155.63037299999996,001,P001,2025_Jan_17_1848,CategoryLocalizer,2021.2.3,59.92477044500967,
121.8,122.0,5,0.0,Stimuli\Blank.png,0,0,0,197,197,197,,,,,,,,,,,,,121.82229989999905,0.02229989999905513,None,,156.43057480000425,156.43057480000425,156.43057480000425,156.43057480000425,156.43057480000425,156.43057480000425,156.43057480000425,156.43057480000425,001,P001,2025_Jan_17_1848,CategoryLocalizer,2021.2.3,59.92477044500967,
122.0,122.8,4,0.75,Stimuli\ImageFiles-Set1\Scenes\Scenes_017.png,0,0,0,198,198,198,,,,,,,,,,,,,122.00580269999773,0.0058026999977300875,None,,156.63072070000635,156.63072070000635,156.63072070000635,156.63072070000635,156.63072070000635,156.63072070000635,156.63072070000635,156.63072070000635,001,P001,2025_Jan_17_1848,CategoryLocalizer,2021.2.3,59.92477044500967,
122.8,123.0,5,0.0,Stimuli\Blank.png,0,0,0,199,199,199,,,,,,,,,,,,,122.82502730000124,0.025027300001241315,None,,157.44814270000643,157.44814270000643,157.44814270000643,157.44814270000643,157.44814270000643,157.44814270000643,157.44814270000643,157.44814270000643,001,P001,2025_Jan_17_1848,CategoryLocalizer,2021.2.3,59.92477044500967,
123.0,123.8,4,0.75,Stimuli\ImageFiles-Set1\Scenes\Scenes_034.png,0,0,0,200,200,200,,,,,,,,,,,,,123.02583099999902,0.025830999999016058,None,,157.64833220000583,157.64833220000583,157.64833220000583,157.64833220000583,157.64833220000583,157.64833220000583,157.64833220000583,157.64833220000583,001,P001,2025_Jan_17_1848,CategoryLocalizer,2021.2.3,59.92477044500967,
123.8,124.0,5,0.0,Stimuli\Blank.png,0,0,0,201,201,201,,,,,,,,,,,,,123.82448750000185,0.024487500001853846,None,,158.43234330000269,158.43234330000269,158.43234330000269,158.43234330000269,158.43234330000269,158.43234330000269,158.43234330000269,158.43234330000269,001,P001,2025_Jan_17_1848,CategoryLocalizer,2021.2.3,59.92477044500967,
124.0,124.8,4,0.75,Stimuli\ImageFiles-Set1\Scenes\Scenes_032.png,0,0,0,202,202,202,,,,,,,,,,,,,124.00965949999954,0.009659499999543186,None,,158.63257040000462,158.63257040000462,158.63257040000462,158.63257040000462,158.63257040000462,158.63257040000462,158.63257040000462,158.63257040000462,001,P001,2025_Jan_17_1848,CategoryLocalizer,2021.2.3,59.92477044500967,
124.8,125.0,5,0.0,Stimuli\Blank.png,0,0,0,203,203,203,,,,,,,,,,,,,124.82587929999863,0.025879299998635474,None,,159.43323640000017,159.43323640000017,159.43323640000017,159.43323640000017,159.43323640000017,159.43323640000017,159.43323640000017,159.43323640000017,001,P001,2025_Jan_17_1848,CategoryLocalizer,2021.2.3,59.92477044500967,
125.0,125.8,4,0.75,Stimuli\ImageFiles-Set1\Scenes\Scenes_004.png,0,0,0,204,204,204,,,,,,,,,,,,,125.00994999999966,0.009949999999662396,None,,159.6334111000033,159.6334111000033,159.6334111000033,159.6334111000033,159.6334111000033,159.6334111000033,159.6334111000033,159.6334111000033,001,P001,2025_Jan_17_1848,CategoryLocalizer,2021.2.3,59.92477044500967,
125.8,126.0,5,0.0,Stimuli\Blank.png,0,0,0,205,205,205,,,,,,,,,,,,,125.82592389999627,0.02592389999627187,5,0.15112180000141962,160.4341179000039,160.4341179000039,160.4341179000039,160.4341179000039,160.4341179000039,160.4341179000039,160.4341179000039,160.4341179000039,001,P001,2025_Jan_17_1848,CategoryLocalizer,2021.2.3,59.92477044500967,
126.0,126.8,4,0.75,Stimuli\ImageFiles-Set1\Scenes\Scenes_036.png,0,0,0,206,206,206,,,,,,,,,,,,,126.0099091000011,0.009909100001095794,None,,160.63430480000534,160.63430480000534,160.63430480000534,160.63430480000534,160.63430480000534,160.63430480000534,160.63430480000534,160.63430480000534,001,P001,2025_Jan_17_1848,CategoryLocalizer,2021.2.3,59.92477044500967,
126.8,127.0,5,0.0,Stimuli\Blank.png,0,0,0,207,207,207,,,,,,,,,,,,,126.82687669999723,0.026876699997231412,None,,161.43500029999996,161.43500029999996,161.43500029999996,161.43500029999996,161.43500029999996,161.43500029999996,161.43500029999996,161.43500029999996,001,P001,2025_Jan_17_1848,CategoryLocalizer,2021.2.3,59.92477044500967,
127.0,127.8,4,0.75,Stimuli\ImageFiles-Set1\Scenes\Scenes_037.png,0,0,0,208,208,208,,,,,,,,,,,,,127.01143210000009,0.01143210000009276,None,,161.63517340000544,161.63517340000544,161.63517340000544,161.63517340000544,161.63517340000544,161.63517340000544,161.63517340000544,161.63517340000544,001,P001,2025_Jan_17_1848,CategoryLocalizer,2021.2.3,59.92477044500967,
127.8,128.0,5,0.0,Stimuli\Blank.png,0,0,0,209,209,209,,,,,,,,,,,,,127.82887979999941,0.028879799999415923,5,0.14926679999916814,162.43589600000269,162.43589600000269,162.43589600000269,162.43589600000269,162.43589600000269,162.43589600000269,162.43589600000269,162.43589600000269,001,P001,2025_Jan_17_1848,CategoryLocalizer,2021.2.3,59.92477044500967,
128.0,128.8,4,0.75,Stimuli\ImageFiles-Set1\Scenes\Scenes_005.png,0,0,0,210,210,210,,,,,,,,,,,,,128.01116139999795,0.01116139999794541,None,,162.61937710000348,162.61937710000348,162.61937710000348,162.61937710000348,162.61937710000348,162.61937710000348,162.61937710000348,162.61937710000348,001,P001,2025_Jan_17_1848,CategoryLocalizer,2021.2.3,59.92477044500967,
128.8,129.0,5,0.0,Stimuli\Blank.png,0,0,0,211,211,211,,,,,,,,,,,,,128.81186019999586,0.011860199995851417,None,,163.4200886000035,163.4200886000035,163.4200886000035,163.4200886000035,163.4200886000035,163.4200886000035,163.4200886000035,163.4200886000035,001,P001,2025_Jan_17_1848,CategoryLocalizer,2021.2.3,59.92477044500967,
129.0,129.8,4,0.75,Stimuli\ImageFiles-Set1\Scenes\Scenes_003.png,0,0,0,212,212,212,,,,,,,,,,,,,129.01251979999506,0.012519799995061476,None,,163.6202656000023,163.6202656000023,163.6202656000023,163.6202656000023,163.6202656000023,163.6202656000023,163.6202656000023,163.6202656000023,001,P001,2025_Jan_17_1848,CategoryLocalizer,2021.2.3,59.92477044500967,
129.8,130.0,5,0.0,Stimuli\Blank.png,0,0,0,213,213,213,,,,,,,,,,,,,129.8149173999991,0.01491739999909214,5,0.14742509999632603,164.4376842000056,164.4376842000056,164.4376842000056,164.4376842000056,164.4376842000056,164.4376842000056,164.4376842000056,164.4376842000056,001,P001,2025_Jan_17_1848,CategoryLocalizer,2021.2.3,59.92477044500967,
130.0,130.8,4,0.75,Stimuli\ImageFiles-Set1\Scenes\Scenes_022.png,0,0,0,214,214,214,,,,,,,,,,,,,130.0296143999949,0.029614399994898122,None,,164.6545105000041,164.6545105000041,164.6545105000041,164.6545105000041,164.6545105000041,164.6545105000041,164.6545105000041,164.6545105000041,001,P001,2025_Jan_17_1848,CategoryLocalizer,2021.2.3,59.92477044500967,
130.8,131.0,5,0.0,Stimuli\Blank.png,0,0,0,215,215,215,,,,,,,,,,,,,130.830753000002,0.03075300000199377,None,,165.43854400000419,165.43854400000419,165.43854400000419,165.43854400000419,165.43854400000419,165.43854400000419,165.43854400000419,165.43854400000419,001,P001,2025_Jan_17_1848,CategoryLocalizer,2021.2.3,59.92477044500967,
131.0,131.8,4,0.75,Stimuli\ImageFiles-Set1\Scenes\Scenes_027.png,0,0,0,216,216,216,,,,,,,,,,,,,131.01427469999908,0.014274699999077711,None,,165.63871950000612,165.63871950000612,165.63871950000612,165.63871950000612,165.63871950000612,165.63871950000612,165.63871950000612,165.63871950000612,001,P001,2025_Jan_17_1848,CategoryLocalizer,2021.2.3,59.92477044500967,
131.8,132.0,5,0.0,Stimuli\Blank.png,0,0,0,217,217,217,,,,,,,,,,,,,131.8311313000013,0.031131300001277395,5,0.14571330000035232,166.4394248000026,166.4394248000026,166.4394248000026,166.4394248000026,166.4394248000026,166.4394248000026,166.4394248000026,166.4394248000026,001,P001,2025_Jan_17_1848,CategoryLocalizer,2021.2.3,59.92477044500967,
132.0,132.8,4,0.75,Stimuli\ImageFiles-Set1\Scenes\Scenes_018.png,0,0,0,218,218,218,,,,,,,,,,,,,132.01582029999554,0.015820299995539244,None,,166.63957920000394,166.63957920000394,166.63957920000394,166.63957920000394,166.63957920000394,166.63957920000394,166.63957920000394,166.63957920000394,001,P001,2025_Jan_17_1848,CategoryLocalizer,2021.2.3,59.92477044500967,
132.8,133.0,5,0.0,Stimuli\Blank.png,0,0,0,219,219,219,,,,,,,,,,,,,132.81572839999717,0.01572839999715825,None,,167.42363540000224,167.42363540000224,167.42363540000224,167.42363540000224,167.42363540000224,167.42363540000224,167.42363540000224,167.42363540000224,001,P001,2025_Jan_17_1848,CategoryLocalizer,2021.2.3,59.92477044500967,
133.0,133.8,4,0.75,Stimuli\ImageFiles-Set1\Scenes\Scenes_018.png,1,1,0,220,220,220,,,,,,,,,,,,,132.99935679999908,-0.0006432000009226613,3,0.47340440000698436,167.62380180000036,167.62380180000036,167.62380180000036,167.62380180000036,167.62380180000036,167.62380180000036,167.62380180000036,167.62380180000036,001,P001,2025_Jan_17_1848,CategoryLocalizer,2021.2.3,59.92477044500967,
133.8,134.0,5,0.0,Stimuli\Blank.png,0,0,0,221,221,221,,,,,,,,,,,,,133.8168286,0.01682859999999664,None,,168.42450870000175,168.42450870000175,168.42450870000175,168.42450870000175,168.42450870000175,168.42450870000175,168.42450870000175,168.42450870000175,001,P001,2025_Jan_17_1848,CategoryLocalizer,2021.2.3,59.92477044500967,
134.0,134.8,4,0.75,Stimuli\ImageFiles-Set1\Scenes\Scenes_042.png,0,0,0,222,222,222,,,,,,,,,,,,,134.00028609999572,0.0002860999957192689,None,,168.62468590000208,168.62468590000208,168.62468590000208,168.62468590000208,168.62468590000208,168.62468590000208,168.62468590000208,168.62468590000208,001,P001,2025_Jan_17_1848,CategoryLocalizer,2021.2.3,59.92477044500967,
134.8,135.0,5,0.0,Stimuli\Blank.png,0,0,0,223,223,223,,,,,,,,,,,,,134.81964139999764,0.019641399997624376,None,,169.44209910000063,169.44209910000063,169.44209910000063,169.44209910000063,169.44209910000063,169.44209910000063,169.44209910000063,169.44209910000063,001,P001,2025_Jan_17_1848,CategoryLocalizer,2021.2.3,59.92477044500967,
135.0,135.8,4,0.75,Stimuli\ImageFiles-Set1\Scenes\Scenes_059.png,0,0,0,224,224,224,,,,,,,,,,,,,135.01954139999725,0.019541399997251574,None,,169.6422606000051,169.6422606000051,169.6422606000051,169.6422606000051,169.6422606000051,169.6422606000051,169.6422606000051,169.6422606000051,001,P001,2025_Jan_17_1848,CategoryLocalizer,2021.2.3,59.92477044500967,
135.8,136.0,5,0.0,Stimuli\Blank.png,0,0,0,225,225,225,,,,,,,,,,,,,135.82001189999573,0.020011899995722615,5,0.14219820000289474,170.44299880000472,170.44299880000472,170.44299880000472,170.44299880000472,170.44299880000472,170.44299880000472,170.44299880000472,170.44299880000472,001,P001,2025_Jan_17_1848,CategoryLocalizer,2021.2.3,59.92477044500967,
136.0,136.8,2,0.75,Stimuli\ImageFiles-Set1\Bodies\Bodies_Crawling_00001.png,0,0,0,226,226,226,,,,,,,,,,,,,136.0187633999958,0.01876339999580523,None,,170.64320410000073,170.64320410000073,170.64320410000073,170.64320410000073,170.64320410000073,170.64320410000073,170.64320410000073,170.64320410000073,001,P001,2025_Jan_17_1848,CategoryLocalizer,2021.2.3,59.92477044500967,
136.8,137.0,5,0.0,Stimuli\Blank.png,0,0,0,227,227,227,,,,,,,,,,,,,136.81957870000042,0.019578700000408844,None,,171.42716860000655,171.42716860000655,171.42716860000655,171.42716860000655,171.42716860000655,171.42716860000655,171.42716860000655,171.42716860000655,001,P001,2025_Jan_17_1848,CategoryLocalizer,2021.2.3,59.92477044500967,
137.0,137.8,2,0.75,Stimuli\ImageFiles-Set1\Bodies\Bodies_Crawling_00006.png,0,0,0,228,228,228,,,,,,,,,,,,,137.00482190000184,0.00482190000184346,None,,171.6440352999998,171.6440352999998,171.6440352999998,171.6440352999998,171.6440352999998,171.6440352999998,171.6440352999998,171.6440352999998,001,P001,2025_Jan_17_1848,CategoryLocalizer,2021.2.3,59.92477044500967,
137.8,138.0,5,0.0,Stimuli\Blank.png,0,0,0,229,229,229,,,,,,,,,,,,,137.83727779999754,0.03727779999752556,None,,172.4447364000007,172.4447364000007,172.4447364000007,172.4447364000007,172.4447364000007,172.4447364000007,172.4447364000007,172.4447364000007,001,P001,2025_Jan_17_1848,CategoryLocalizer,2021.2.3,59.92477044500967,
138.0,138.8,2,0.75,Stimuli\ImageFiles-Set1\Bodies\Bodies_Hanging_00002.png,0,0,0,230,230,230,,,,,,,,,,,,,138.00320130000182,0.003201300001819618,None,,172.61155130000407,172.61155130000407,172.61155130000407,172.61155130000407,172.61155130000407,172.61155130000407,172.61155130000407,172.61155130000407,001,P001,2025_Jan_17_1848,CategoryLocalizer,2021.2.3,59.92477044500967,
138.8,139.0,5,0.0,Stimuli\Blank.png,0,0,0,231,231,231,,,,,,,,,,,,,138.80483779999486,0.004837799994845682,None,,173.41227070000605,173.41227070000605,173.41227070000605,173.41227070000605,173.41227070000605,173.41227070000605,173.41227070000605,173.41227070000605,001,P001,2025_Jan_17_1848,CategoryLocalizer,2021.2.3,59.92477044500967,
139.0,139.8,2,0.75,Stimuli\ImageFiles-Set1\Bodies\Bodies_Waving_00007.png,0,0,0,232,232,232,,,,,,,,,,,,,139.00548029999482,0.005480299994815141,None,,173.62913980000303,173.62913980000303,173.62913980000303,173.62913980000303,173.62913980000303,173.62913980000303,173.62913980000303,173.62913980000303,001,P001,2025_Jan_17_1848,CategoryLocalizer,2021.2.3,59.92477044500967,
139.8,140.0,5,0.0,Stimuli\Blank.png,0,0,0,233,233,233,,,,,,,,,,,,,139.82207519999793,0.022075199997914297,None,,174.42982610000035,174.42982610000035,174.42982610000035,174.42982610000035,174.42982610000035,174.42982610000035,174.42982610000035,174.42982610000035,001,P001,2025_Jan_17_1848,CategoryLocalizer,2021.2.3,59.92477044500967,
140.0,140.8,2,0.75,Stimuli\ImageFiles-Set1\Bodies\Bodies_Waving_00007.png,1,1,0,234,234,234,,,,,,,,,,,,,140.00568499999645,0.005684999996447004,3,0.4248784999945201,174.61331990000326,174.61331990000326,174.61331990000326,174.61331990000326,174.61331990000326,174.61331990000326,174.61331990000326,174.61331990000326,001,P001,2025_Jan_17_1848,CategoryLocalizer,2021.2.3,59.92477044500967,
140.8,141.0,5,0.0,Stimuli\Blank.png,0,0,0,235,235,235,,,,,,,,,,,,,140.80626289999782,0.006262899997807381,None,,175.41402180000296,175.41402180000296,175.41402180000296,175.41402180000296,175.41402180000296,175.41402180000296,175.41402180000296,175.41402180000296,001,P001,2025_Jan_17_1848,CategoryLocalizer,2021.2.3,59.92477044500967,
141.0,141.8,2,0.75,Stimuli\ImageFiles-Set1\Bodies\Bodies_Kicking_00007.png,0,0,0,236,236,236,,,,,,,,,,,,,141.00597330000164,0.005973300001642201,None,,175.63094380000257,175.63094380000257,175.63094380000257,175.63094380000257,175.63094380000257,175.63094380000257,175.63094380000257,175.63094380000257,001,P001,2025_Jan_17_1848,CategoryLocalizer,2021.2.3,59.92477044500967,
141.8,142.0,5,0.0,Stimuli\Blank.png,0,0,0,237,237,237,,,,,,,,,,,,,141.82412499999919,0.024124999999173724,None,,176.43161350000446,176.43161350000446,176.43161350000446,176.43161350000446,176.43161350000446,176.43161350000446,176.43161350000446,176.43161350000446,001,P001,2025_Jan_17_1848,CategoryLocalizer,2021.2.3,59.92477044500967,
142.0,142.8,2,0.75,Stimuli\ImageFiles-Set1\Bodies\Bodies_DownwardDog_00007.png,0,0,0,238,238,238,,,,,,,,,,,,,142.00696310000058,0.0069631000005756505,None,,176.63176150000072,176.63176150000072,176.63176150000072,176.63176150000072,176.63176150000072,176.63176150000072,176.63176150000072,176.63176150000072,001,P001,2025_Jan_17_1848,CategoryLocalizer,2021.2.3,59.92477044500967,
142.8,143.0,5,0.0,Stimuli\Blank.png,0,0,0,239,239,239,,,,,,,,,,,,,142.8254425999985,0.02544259999848464,None,,177.4324867000032,177.4324867000032,177.4324867000032,177.4324867000032,177.4324867000032,177.4324867000032,177.4324867000032,177.4324867000032,001,P001,2025_Jan_17_1848,CategoryLocalizer,2021.2.3,59.92477044500967,
143.0,143.8,2,0.75,Stimuli\ImageFiles-Set1\Bodies\Bodies_CobraPose_00003.png,0,0,0,240,240,240,,,,,,,,,,,,,143.00948749999952,0.009487499999522697,None,,177.6326595999999,177.6326595999999,177.6326595999999,177.6326595999999,177.6326595999999,177.6326595999999,177.6326595999999,177.6326595999999,001,P001,2025_Jan_17_1848,CategoryLocalizer,2021.2.3,59.92477044500967,
143.8,144.0,5,0.0,Stimuli\Blank.png,0,0,0,241,241,241,,,,,,,,,,,,,143.82570799999667,0.025707999996654962,None,,178.43337510000129,178.43337510000129,178.43337510000129,178.43337510000129,178.43337510000129,178.43337510000129,178.43337510000129,178.43337510000129,001,P001,2025_Jan_17_1848,CategoryLocalizer,2021.2.3,59.92477044500967,
144.0,144.8,2,0.75,Stimuli\ImageFiles-Set1\Bodies\Bodies_SittingFloor_00003.png,0,0,0,242,242,242,,,,,,,,,,,,,144.00882409999758,0.00882409999758238,None,,178.63353360000474,178.63353360000474,178.63353360000474,178.63353360000474,178.63353360000474,178.63353360000474,178.63353360000474,178.63353360000474,001,P001,2025_Jan_17_1848,CategoryLocalizer,2021.2.3,59.92477044500967,
144.8,145.0,5,0.0,Stimuli\Blank.png,0,0,0,243,243,243,,,,,,,,,,,,,144.82637819999945,0.02637819999944213,None,,179.4342484000008,179.4342484000008,179.4342484000008,179.4342484000008,179.4342484000008,179.4342484000008,179.4342484000008,179.4342484000008,001,P001,2025_Jan_17_1848,CategoryLocalizer,2021.2.3,59.92477044500967,
145.0,145.8,2,0.75,Stimuli\ImageFiles-Set1\Bodies\Bodies_SittingChair_00003.png,0,0,0,244,244,244,,,,,,,,,,,,,145.01063900000008,0.010639000000082888,None,,179.63444449999952,179.63444449999952,179.63444449999952,179.63444449999952,179.63444449999952,179.63444449999952,179.63444449999952,179.63444449999952,001,P001,2025_Jan_17_1848,CategoryLocalizer,2021.2.3,59.92477044500967,
145.8,146.0,5,0.0,Stimuli\Blank.png,0,0,0,245,245,245,,,,,,,,,,,,,145.82694249999622,0.02694249999620979,5,0.15016970000579022,180.43513150000217,180.43513150000217,180.43513150000217,180.43513150000217,180.43513150000217,180.43513150000217,180.43513150000217,180.43513150000217,001,P001,2025_Jan_17_1848,CategoryLocalizer,2021.2.3,59.92477044500967,
146.0,146.8,2,0.75,Stimuli\ImageFiles-Set1\Bodies\Bodies_Falling_00004.png,0,0,0,246,246,246,,,,,,,,,,,,,146.01028629999928,0.010286299999279436,None,,180.61863060000178,180.61863060000178,180.61863060000178,180.61863060000178,180.61863060000178,180.61863060000178,180.61863060000178,180.61863060000178,001,P001,2025_Jan_17_1848,CategoryLocalizer,2021.2.3,59.92477044500967,
146.8,147.0,5,0.0,Stimuli\Blank.png,0,0,0,247,247,247,,,,,,,,,,,,,146.81173819999822,0.0117381999982058,None,,181.4193149000057,181.4193149000057,181.4193149000057,181.4193149000057,181.4193149000057,181.4193149000057,181.4193149000057,181.4193149000057,001,P001,2025_Jan_17_1848,CategoryLocalizer,2021.2.3,59.92477044500967,
147.0,147.8,2,0.75,Stimuli\ImageFiles-Set1\Bodies\Bodies_Kicking_00003.png,0,0,0,248,248,248,,,,,,,,,,,,,147.01132489999873,0.011324899998726323,None,,181.63619750000362,181.63619750000362,181.63619750000362,181.63619750000362,181.63619750000362,181.63619750000362,181.63619750000362,181.63619750000362,001,P001,2025_Jan_17_1848,CategoryLocalizer,2021.2.3,59.92477044500967,
147.8,148.0,5,0.0,Stimuli\Blank.png,0,0,0,249,249,249,,,,,,,,,,,,,147.82893099999637,0.02893099999636206,5,0.14825420000124723,182.4369211000012,182.4369211000012,182.4369211000012,182.4369211000012,182.4369211000012,182.4369211000012,182.4369211000012,182.4369211000012,001,P001,2025_Jan_17_1848,CategoryLocalizer,2021.2.3,59.92477044500967,
148.0,148.8,2,0.75,Stimuli\ImageFiles-Set1\Bodies\Bodies_SittingChair_00001.png,0,0,0,250,250,250,,,,,,,,,,,,,148.01234280000062,0.012342800000624266,None,,182.63713190000271,182.63713190000271,182.63713190000271,182.63713190000271,182.63713190000271,182.63713190000271,182.63713190000271,182.63713190000271,001,P001,2025_Jan_17_1848,CategoryLocalizer,2021.2.3,59.92477044500967,
148.8,149.0,5,0.0,Stimuli\Blank.png,0,0,0,251,251,251,,,,,,,,,,,,,148.83066970000073,0.030669700000714784,None,,183.43781030000537,183.43781030000537,183.43781030000537,183.43781030000537,183.43781030000537,183.43781030000537,183.43781030000537,183.43781030000537,001,P001,2025_Jan_17_1848,CategoryLocalizer,2021.2.3,59.92477044500967,
149.0,149.8,2,0.75,Stimuli\ImageFiles-Set1\Bodies\Bodies_Jumping_00002.png,0,0,0,252,252,252,,,,,,,,,,,,,149.0146364999964,0.014636499996413477,None,,183.65466330000345,183.65466330000345,183.65466330000345,183.65466330000345,183.65466330000345,183.65466330000345,183.65466330000345,183.65466330000345,001,P001,2025_Jan_17_1848,CategoryLocalizer,2021.2.3,59.92477044500967,
149.8,150.0,5,0.0,Stimuli\Blank.png,0,0,0,253,253,253,,,,,,,,,,,,,149.8475135999979,0.04751359999789884,5,0.12977529999625403,184.4553675000061,184.4553675000061,184.4553675000061,184.4553675000061,184.4553675000061,184.4553675000061,184.4553675000061,184.4553675000061,001,P001,2025_Jan_17_1848,CategoryLocalizer,2021.2.3,59.92477044500967,
150.0,150.8,2,0.75,Stimuli\ImageFiles-Set1\Bodies\Bodies_SittingChair_00005.png,0,0,0,254,254,254,,,,,,,,,,,,,150.01434950000112,0.014349500001117121,None,,184.63886869999988,184.63886869999988,184.63886869999988,184.63886869999988,184.63886869999988,184.63886869999988,184.63886869999988,184.63886869999988,001,P001,2025_Jan_17_1848,CategoryLocalizer,2021.2.3,59.92477044500967,
150.8,151.0,5,0.0,Stimuli\Blank.png,0,0,0,255,255,255,,,,,,,,,,,,,150.83160299999872,0.03160299999871086,None,,185.43955700000515,185.43955700000515,185.43955700000515,185.43955700000515,185.43955700000515,185.43955700000515,185.43955700000515,185.43955700000515,001,P001,2025_Jan_17_1848,CategoryLocalizer,2021.2.3,59.92477044500967,
151.0,151.8,2,0.75,Stimuli\ImageFiles-Set1\Bodies\Bodies_Falling_00006.png,0,0,0,256,256,256,,,,,,,,,,,,,151.01626810000016,0.016268100000161212,None,,185.6397419999994,185.6397419999994,185.6397419999994,185.6397419999994,185.6397419999994,185.6397419999994,185.6397419999994,185.6397419999994,001,P001,2025_Jan_17_1848,CategoryLocalizer,2021.2.3,59.92477044500967,
151.8,152.0,5,0.0,Stimuli\Blank.png,0,0,0,257,257,257,,,,,,,,,,,,,151.81621689999884,0.01621689999882392,None,,186.42376300000615,186.42376300000615,186.42376300000615,186.42376300000615,186.42376300000615,186.42376300000615,186.42376300000615,186.42376300000615,001,P001,2025_Jan_17_1848,CategoryLocalizer,2021.2.3,59.92477044500967,
152.0,164.0,0,0.0,Stimuli\Blank.png,0,0,0,258,258,258,,,,,,,,,,,,,152.00018109999655,0.00018109999655280262,5,11.977850499999477,186.60727730000508,186.60727730000508,186.60727730000508,186.60727730000508,186.60727730000508,186.60727730000508,186.60727730000508,186.60727730000508,001,P001,2025_Jan_17_1848,CategoryLocalizer,2021.2.3,59.92477044500967,
164.0,164.8,4,0.75,Stimuli\ImageFiles-Set1\Scenes\Scenes_033.png,0,0,0,259,259,259,,,,,,,,,,,,,164.0095861000009,0.00958610000088811,None,,198.63456450000376,198.63456450000376,198.63456450000376,198.63456450000376,198.63456450000376,198.63456450000376,198.63456450000376,198.63456450000376,001,P001,2025_Jan_17_1848,CategoryLocalizer,2021.2.3,59.92477044500967,
164.8,165.0,5,0.0,Stimuli\Blank.png,0,0,0,260,260,260,,,,,,,,,,,,,164.82711610000115,0.02711610000113751,None,,199.4353329000005,199.4353329000005,199.4353329000005,199.4353329000005,199.4353329000005,199.4353329000005,199.4353329000005,199.4353329000005,001,P001,2025_Jan_17_1848,CategoryLocalizer,2021.2.3,59.92477044500967,
165.0,165.8,4,0.75,Stimuli\ImageFiles-Set1\Scenes\Scenes_019.png,0,0,0,261,261,261,,,,,,,,,,,,,165.0111242999992,0.011124299999210052,None,,199.63542869999947,199.63542869999947,199.63542869999947,199.63542869999947,199.63542869999947,199.63542869999947,199.63542869999947,199.63542869999947,001,P001,2025_Jan_17_1848,CategoryLocalizer,2021.2.3,59.92477044500967,
165.8,166.0,5,0.0,Stimuli\Blank.png,0,0,0,262,262,262,,,,,,,,,,,,,165.83038139999553,0.030381399995519587,5,0.13244750000012573,200.45284119999997,200.45284119999997,200.45284119999997,200.45284119999997,200.45284119999997,200.45284119999997,200.45284119999997,200.45284119999997,001,P001,2025_Jan_17_1848,CategoryLocalizer,2021.2.3,59.92477044500967,
166.0,166.8,4,0.75,Stimuli\ImageFiles-Set1\Scenes\Scenes_015.png,0,0,0,263,263,263,,,,,,,,,,,,,166.03002829999605,0.03002829999604728,None,,200.65302850000444,200.65302850000444,200.65302850000444,200.65302850000444,200.65302850000444,200.65302850000444,200.65302850000444,200.65302850000444,001,P001,2025_Jan_17_1848,CategoryLocalizer,2021.2.3,59.92477044500967,
166.8,167.0,5,0.0,Stimuli\Blank.png,0,0,0,264,264,264,,,,,,,,,,,,,166.82886580000195,0.02886580000193817,None,,201.43708880000486,201.43708880000486,201.43708880000486,201.43708880000486,201.43708880000486,201.43708880000486,201.43708880000486,201.43708880000486,001,P001,2025_Jan_17_1848,CategoryLocalizer,2021.2.3,59.92477044500967,
167.0,167.8,4,0.75,Stimuli\ImageFiles-Set1\Scenes\Scenes_039.png,0,0,0,265,265,265,,,,,,,,,,,,,167.0146762000004,0.014676200000394601,None,,201.63723790000222,201.63723790000222,201.63723790000222,201.63723790000222,201.63723790000222,201.63723790000222,201.63723790000222,201.63723790000222,001,P001,2025_Jan_17_1848,CategoryLocalizer,2021.2.3,59.92477044500967,
167.8,168.0,5,0.0,Stimuli\Blank.png,0,0,0,266,266,266,,,,,,,,,,,,,167.83069660000183,0.030696600001817842,5,0.14718210000137333,202.43793830000504,202.43793830000504,202.43793830000504,202.43793830000504,202.43793830000504,202.43793830000504,202.43793830000504,202.43793830000504,001,P001,2025_Jan_17_1848,CategoryLocalizer,2021.2.3,59.92477044500967,
168.0,168.8,4,0.75,Stimuli\ImageFiles-Set1\Scenes\Scenes_039.png,1,1,0,267,267,267,,,,,,,,,,,,,168.0141689000011,0.014168900001095608,3,0.4232687000039732,202.6381216000009,202.6381216000009,202.6381216000009,202.6381216000009,202.6381216000009,202.6381216000009,202.6381216000009,202.6381216000009,001,P001,2025_Jan_17_1848,CategoryLocalizer,2021.2.3,59.92477044500967,
168.8,169.0,5,0.0,Stimuli\Blank.png,0,0,0,268,268,268,,,,,,,,,,,,,168.8307105999993,0.030710599999281385,None,,203.43880970000464,203.43880970000464,203.43880970000464,203.43880970000464,203.43880970000464,203.43880970000464,203.43880970000464,203.43880970000464,001,P001,2025_Jan_17_1848,CategoryLocalizer,2021.2.3,59.92477044500967,
169.0,169.8,4,0.75,Stimuli\ImageFiles-Set1\Scenes\Scenes_052.png,0,0,0,269,269,269,,,,,,,,,,,,,169.01518950000172,0.01518950000172481,None,,203.63899030000175,203.63899030000175,203.63899030000175,203.63899030000175,203.63899030000175,203.63899030000175,203.63899030000175,203.63899030000175,001,P001,2025_Jan_17_1848,CategoryLocalizer,2021.2.3,59.92477044500967,
169.8,170.0,5,0.0,Stimuli\Blank.png,0,0,0,270,270,270,,,,,,,,,,,,,169.81555700000172,0.015557000001706456,None,,204.42300650000107,204.42300650000107,204.42300650000107,204.42300650000107,204.42300650000107,204.42300650000107,204.42300650000107,204.42300650000107,001,P001,2025_Jan_17_1848,CategoryLocalizer,2021.2.3,59.92477044500967,
170.0,170.8,4,0.75,Stimuli\ImageFiles-Set1\Scenes\Scenes_049.png,0,0,0,271,271,271,,,,,,,,,,,,,170.0008721999984,0.0008721999984118156,None,,204.6231934000025,204.6231934000025,204.6231934000025,204.6231934000025,204.6231934000025,204.6231934000025,204.6231934000025,204.6231934000025,001,P001,2025_Jan_17_1848,CategoryLocalizer,2021.2.3,59.92477044500967,
170.8,171.0,5,0.0,Stimuli\Blank.png,0,0,0,272,272,272,,,,,,,,,,,,,170.8161753999957,0.016175399995688622,None,,205.42390250000608,205.42390250000608,205.42390250000608,205.42390250000608,205.42390250000608,205.42390250000608,205.42390250000608,205.42390250000608,001,P001,2025_Jan_17_1848,CategoryLocalizer,2021.2.3,59.92477044500967,
171.0,171.8,4,0.75,Stimuli\ImageFiles-Set1\Scenes\Scenes_040.png,0,0,0,273,273,273,,,,,,,,,,,,,170.9997030999948,-0.00029690000519622117,None,,205.62407160000294,205.62407160000294,205.62407160000294,205.62407160000294,205.62407160000294,205.62407160000294,205.62407160000294,205.62407160000294,001,P001,2025_Jan_17_1848,CategoryLocalizer,2021.2.3,59.92477044500967,
171.8,172.0,5,0.0,Stimuli\Blank.png,0,0,0,274,274,274,,,,,,,,,,,,,171.8171646999981,0.017164699998090782,None,,206.42478810000466,206.42478810000466,206.42478810000466,206.42478810000466,206.42478810000466,206.42478810000466,206.42478810000466,206.42478810000466,001,P001,2025_Jan_17_1848,CategoryLocalizer,2021.2.3,59.92477044500967,
172.0,172.8,4,0.75,Stimuli\ImageFiles-Set1\Scenes\Scenes_038.png,0,0,0,275,275,275,,,,,,,,,,,,,172.0013035000011,0.0013035000010859221,None,,206.6249639000016,206.6249639000016,206.6249639000016,206.6249639000016,206.6249639000016,206.6249639000016,206.6249639000016,206.6249639000016,001,P001,2025_Jan_17_1848,CategoryLocalizer,2021.2.3,59.92477044500967,
172.8,173.0,5,0.0,Stimuli\Blank.png,0,0,0,276,276,276,,,,,,,,,,,,,172.81980559999647,0.019805599996459478,None,,207.44237740000244,207.44237740000244,207.44237740000244,207.44237740000244,207.44237740000244,207.44237740000244,207.44237740000244,207.44237740000244,001,P001,2025_Jan_17_1848,CategoryLocalizer,2021.2.3,59.92477044500967,
173.0,173.8,4,0.75,Stimuli\ImageFiles-Set1\Scenes\Scenes_035.png,1,1,0,277,277,277,,,,,,,,,,,,,173.01753189999727,0.01753189999726601,None,,207.642542900001,207.642542900001,207.642542900001,207.642542900001,207.642542900001,207.642542900001,207.642542900001,207.642542900001,001,P001,2025_Jan_17_1848,CategoryLocalizer,2021.2.3,59.92477044500967,
173.8,174.0,5,0.0,Stimuli\Blank.png,0,0,0,278,278,278,,,,,,,,,,,,,173.8212682000012,0.02126820000120233,5,0.1423164000007091,208.44325480000407,208.44325480000407,208.44325480000407,208.44325480000407,208.44325480000407,208.44325480000407,208.44325480000407,208.44325480000407,001,P001,2025_Jan_17_1848,CategoryLocalizer,2021.2.3,59.92477044500967,
174.0,174.8,4,0.75,Stimuli\ImageFiles-Set1\Scenes\Scenes_006.png,0,0,0,279,279,279,,,,,,,,,,,,,174.01872469999944,0.0187246999994386,None,,208.64340939999965,208.64340939999965,208.64340939999965,208.64340939999965,208.64340939999965,208.64340939999965,208.64340939999965,208.64340939999965,001,P001,2025_Jan_17_1848,CategoryLocalizer,2021.2.3,59.92477044500967,
174.8,175.0,5,0.0,Stimuli\Blank.png,0,0,0,280,280,280,,,,,,,,,,,,,174.81931970000005,0.019319700000039575,None,,209.42744400000083,209.42744400000083,209.42744400000083,209.42744400000083,209.42744400000083,209.42744400000083,209.42744400000083,209.42744400000083,001,P001,2025_Jan_17_1848,CategoryLocalizer,2021.2.3,59.92477044500967,
175.0,175.8,4,0.75,Stimuli\ImageFiles-Set1\Scenes\Scenes_006.png,0,0,0,281,281,281,,,,,,,,,,,,,175.00479410000116,0.004794100001163315,3,0.4078827999983332,209.6275769000058,209.6275769000058,209.6275769000058,209.6275769000058,209.6275769000058,209.6275769000058,209.6275769000058,209.6275769000058,001,P001,2025_Jan_17_1848,CategoryLocalizer,2021.2.3,59.92477044500967,
175.8,176.0,5,0.0,Stimuli\Blank.png,0,0,0,282,282,282,,,,,,,,,,,,,175.82125580000138,0.021255800001370062,None,,210.42833180000162,210.42833180000162,210.42833180000162,210.42833180000162,210.42833180000162,210.42833180000162,210.42833180000162,210.42833180000162,001,P001,2025_Jan_17_1848,CategoryLocalizer,2021.2.3,59.92477044500967,
176.0,176.8,4,0.75,Stimuli\ImageFiles-Set1\Scenes\Scenes_028.png,0,0,0,283,283,283,,,,,,,,,,,,,176.0051919999969,0.005191999996895902,None,,210.62850760000583,210.62850760000583,210.62850760000583,210.62850760000583,210.62850760000583,210.62850760000583,210.62850760000583,210.62850760000583,001,P001,2025_Jan_17_1848,CategoryLocalizer,2021.2.3,59.92477044500967,
