eventStartTime,eventEndTime,eventCond,imSize,imFile,repeatedImage,responseEvent,Events.thisRepN,Events.thisTrialN,Events.thisN,Events.thisIndex,Instructions.started,Instructions.stopped,participantReadyResponse.keys,participantReadyResponse.rt,participantReadyResponse.started,participantReadyResponse.stopped,startWaitforTrigger,triggerResponse.keys,triggerResponse.rt,triggerResponse.started,triggerResponse.stopped,globalTimer,actualStartTime,startTimingDiff,participantResponse.keys,participantResponse.rt,participantResponse.started,participantResponse.stopped,image.started,image.stopped,fixationOutside.started,fixationOutside.stopped,fixationInside.started,fixationInside.stopped,session,participant,date,expName,psychopyVersion,frameRate,
,,,,,,,,,,,12.190277500005323,None,3,1.4147509999966132,12.190277500005323,None,,,,,,,,,,,,,,,,,,,002,P001,2025_Jan_17_1909,CategoryLocalizer,2021.2.3,59.948336524500114,
,,,,,,,,,,,,,,,,,13.619222200002696,5,13.685392899998988,13.631919300001755,None,,,,,,,,,,,,,,002,P001,2025_Jan_17_1909,CategoryLocalizer,2021.2.3,59.948336524500114,
0.0,12.0,0,0.0,Stimuli\Blank.png,0,0,0,0,0,0,,,,,,,,,,,,27.330760100005136,0.04085130000021309,0.04085130000021309,5,11.922893900002236,27.394101200006844,None,27.394101200006844,None,27.394101200006844,None,27.394101200006844,None,002,P001,2025_Jan_17_1909,CategoryLocalizer,2021.2.3,59.948336524500114,
12.0,12.8,1,0.75,Stimuli\ImageFiles-Set2\Objects\Object_Refrigerator_00001.png,0,0,0,1,1,1,,,,,,,,,,,,,12.011195499995665,0.011195499995665159,None,,39.38806970000587,39.38806970000587,39.38806970000587,39.38806970000587,39.38806970000587,39.38806970000587,39.38806970000587,39.38806970000587,002,P001,2025_Jan_17_1909,CategoryLocalizer,2021.2.3,59.948336524500114,
12.8,13.0,5,0.0,Stimuli\Blank.png,0,0,0,2,2,2,,,,,,,,,,,,,12.84333159999369,0.04333159999368874,None,,40.18873950000125,40.18873950000125,40.18873950000125,40.18873950000125,40.18873950000125,40.18873950000125,40.18873950000125,40.18873950000125,002,P001,2025_Jan_17_1909,CategoryLocalizer,2021.2.3,59.948336524500114,
13.0,13.8,1,0.75,Stimuli\ImageFiles-Set2\Objects\Object_Couch_00001.png,0,0,0,3,3,3,,,,,,,,,,,,,13.011316799995257,0.011316799995256588,None,,40.372270800005936,40.372270800005936,40.372270800005936,40.372270800005936,40.372270800005936,40.372270800005936,40.372270800005936,40.372270800005936,002,P001,2025_Jan_17_1909,CategoryLocalizer,2021.2.3,59.948336524500114,
13.8,14.0,5,0.0,Stimuli\Blank.png,0,0,0,4,4,4,,,,,,,,,,,,,13.828316499995708,0.02831649999570729,5,0.14396000000124332,41.17303480000555,41.17303480000555,41.17303480000555,41.17303480000555,41.17303480000555,41.17303480000555,41.17303480000555,41.17303480000555,002,P001,2025_Jan_17_1909,CategoryLocalizer,2021.2.3,59.948336524500114,
14.0,14.8,1,0.75,Stimuli\ImageFiles-Set2\Objects\Object_Wheelchair_00001.png,0,0,0,5,5,5,,,,,,,,,,,,,14.011244599998463,0.011244599998462945,None,,41.389839200004644,41.389839200004644,41.389839200004644,41.389839200004644,41.389839200004644,41.389839200004644,41.389839200004644,41.389839200004644,002,P001,2025_Jan_17_1909,CategoryLocalizer,2021.2.3,59.948336524500114,
14.8,15.0,5,0.0,Stimuli\Blank.png,0,0,0,6,6,6,,,,,,,,,,,,,14.846099199996388,0.04609919999638734,None,,42.1905326000051,42.1905326000051,42.1905326000051,42.1905326000051,42.1905326000051,42.1905326000051,42.1905326000051,42.1905326000051,002,P001,2025_Jan_17_1909,CategoryLocalizer,2021.2.3,59.948336524500114,
15.0,15.8,1,0.75,Stimuli\ImageFiles-Set2\Objects\Object_Wheelchair_00001.png,1,1,0,7,7,7,,,,,,,,,,,,,15.01280609999958,0.012806099999579601,3,0.3830644999979995,42.37402870000369,42.37402870000369,42.37402870000369,42.37402870000369,42.37402870000369,42.37402870000369,42.37402870000369,42.37402870000369,002,P001,2025_Jan_17_1909,CategoryLocalizer,2021.2.3,59.948336524500114,
15.8,16.0,5,0.0,Stimuli\Blank.png,0,0,0,8,8,8,,,,,,,,,,,,,15.830474599999434,0.03047459999943314,5,0.14228110000112792,43.17473410000093,43.17473410000093,43.17473410000093,43.17473410000093,43.17473410000093,43.17473410000093,43.17473410000093,43.17473410000093,002,P001,2025_Jan_17_1909,CategoryLocalizer,2021.2.3,59.948336524500114,
16.0,16.8,1,0.75,Stimuli\ImageFiles-Set2\Objects\Object_Shelves_00001.png,0,0,0,9,9,9,,,,,,,,,,,,,16.01303089999419,0.013030899994191714,None,,43.374926100004814,43.374926100004814,43.374926100004814,43.374926100004814,43.374926100004814,43.374926100004814,43.374926100004814,43.374926100004814,002,P001,2025_Jan_17_1909,CategoryLocalizer,2021.2.3,59.948336524500114,
16.8,17.0,5,0.0,Stimuli\Blank.png,0,0,0,10,10,10,,,,,,,,,,,,,16.831373599998187,0.03137359999818656,None,,44.175622900002054,44.175622900002054,44.175622900002054,44.175622900002054,44.175622900002054,44.175622900002054,44.175622900002054,44.175622900002054,002,P001,2025_Jan_17_1909,CategoryLocalizer,2021.2.3,59.948336524500114,
17.0,17.8,1,0.75,Stimuli\ImageFiles-Set2\Objects\Object_Pen_00001.png,0,0,0,11,11,11,,,,,,,,,,,,,17.01634479999484,0.016344799994840287,None,,44.375797100001364,44.375797100001364,44.375797100001364,44.375797100001364,44.375797100001364,44.375797100001364,44.375797100001364,44.375797100001364,002,P001,2025_Jan_17_1909,CategoryLocalizer,2021.2.3,59.948336524500114,
17.8,18.0,5,0.0,Stimuli\Blank.png,0,0,0,12,12,12,,,,,,,,,,,,,17.81573949999438,0.015739499994378292,None,,45.15983750000305,45.15983750000305,45.15983750000305,45.15983750000305,45.15983750000305,45.15983750000305,45.15983750000305,45.15983750000305,002,P001,2025_Jan_17_1909,CategoryLocalizer,2021.2.3,59.948336524500114,
18.0,18.8,1,0.75,Stimuli\ImageFiles-Set2\Objects\Object_Scissors_00001.png,0,0,0,13,13,13,,,,,,,,,,,,,17.99898050000047,-0.0010194999995292164,None,,45.35999820000143,45.35999820000143,45.35999820000143,45.35999820000143,45.35999820000143,45.35999820000143,45.35999820000143,45.35999820000143,002,P001,2025_Jan_17_1909,CategoryLocalizer,2021.2.3,59.948336524500114,
18.8,19.0,5,0.0,Stimuli\Blank.png,0,0,0,14,14,14,,,,,,,,,,,,,18.815190099994652,0.015190099994651263,None,,46.16071410000586,46.16071410000586,46.16071410000586,46.16071410000586,46.16071410000586,46.16071410000586,46.16071410000586,46.16071410000586,002,P001,2025_Jan_17_1909,CategoryLocalizer,2021.2.3,59.948336524500114,
19.0,19.8,1,0.75,Stimuli\ImageFiles-Set2\Objects\Object_Sponge_00001.png,0,0,0,15,15,15,,,,,,,,,,,,,19.016445599998406,0.01644559999840567,None,,46.37757920000149,46.37757920000149,46.37757920000149,46.37757920000149,46.37757920000149,46.37757920000149,46.37757920000149,46.37757920000149,002,P001,2025_Jan_17_1909,CategoryLocalizer,2021.2.3,59.948336524500114,
19.8,20.0,5,0.0,Stimuli\Blank.png,0,0,0,16,16,16,,,,,,,,,,,,,19.816819199993915,0.01681919999391468,None,,47.16158710000309,47.16158710000309,47.16158710000309,47.16158710000309,47.16158710000309,47.16158710000309,47.16158710000309,47.16158710000309,002,P001,2025_Jan_17_1909,CategoryLocalizer,2021.2.3,59.948336524500114,
20.0,20.8,1,0.75,Stimuli\ImageFiles-Set2\Objects\Object_Barrel_00001.png,0,0,0,17,17,17,,,,,,,,,,,,,20.00091640000028,0.0009164000002783723,None,,47.36175890000595,47.36175890000595,47.36175890000595,47.36175890000595,47.36175890000595,47.36175890000595,47.36175890000595,47.36175890000595,002,P001,2025_Jan_17_1909,CategoryLocalizer,2021.2.3,59.948336524500114,
20.8,21.0,5,0.0,Stimuli\Blank.png,0,0,0,18,18,18,,,,,,,,,,,,,20.817716099998506,0.01771609999850554,None,,48.16246930000489,48.16246930000489,48.16246930000489,48.16246930000489,48.16246930000489,48.16246930000489,48.16246930000489,48.16246930000489,002,P001,2025_Jan_17_1909,CategoryLocalizer,2021.2.3,59.948336524500114,
21.0,21.8,1,0.75,Stimuli\ImageFiles-Set2\Objects\Object_Bicycle_00001.png,0,0,0,19,19,19,,,,,,,,,,,,,21.001899999995658,0.0018999999956577085,None,,48.345981700003904,48.345981700003904,48.345981700003904,48.345981700003904,48.345981700003904,48.345981700003904,48.345981700003904,48.345981700003904,002,P001,2025_Jan_17_1909,CategoryLocalizer,2021.2.3,59.948336524500114,
21.8,22.0,5,0.0,Stimuli\Blank.png,0,0,0,20,20,20,,,,,,,,,,,,,21.802041299997654,0.0020412999976535673,None,,49.14667410000402,49.14667410000402,49.14667410000402,49.14667410000402,49.14667410000402,49.14667410000402,49.14667410000402,49.14667410000402,002,P001,2025_Jan_17_1909,CategoryLocalizer,2021.2.3,59.948336524500114,
22.0,22.8,1,0.75,Stimuli\ImageFiles-Set2\Objects\Object_Grill_00001.png,0,0,0,21,21,21,,,,,,,,,,,,,22.001947999997356,0.0019479999973555095,None,,49.363586600004055,49.363586600004055,49.363586600004055,49.363586600004055,49.363586600004055,49.363586600004055,49.363586600004055,49.363586600004055,002,P001,2025_Jan_17_1909,CategoryLocalizer,2021.2.3,59.948336524500114,
22.8,23.0,5,0.0,Stimuli\Blank.png,0,0,0,22,22,22,,,,,,,,,,,,,22.82150019999972,0.02150019999971775,None,,50.18095480000193,50.18095480000193,50.18095480000193,50.18095480000193,50.18095480000193,50.18095480000193,50.18095480000193,50.18095480000193,002,P001,2025_Jan_17_1909,CategoryLocalizer,2021.2.3,59.948336524500114,
23.0,23.8,1,0.75,Stimuli\ImageFiles-Set2\Objects\Object_Brick_00001.png,0,0,0,23,23,23,,,,,,,,,,,,,23.019267199997557,0.019267199997557327,None,,50.36442150000221,50.36442150000221,50.36442150000221,50.36442150000221,50.36442150000221,50.36442150000221,50.36442150000221,50.36442150000221,002,P001,2025_Jan_17_1909,CategoryLocalizer,2021.2.3,59.948336524500114,
23.8,24.0,5,0.0,Stimuli\Blank.png,0,0,0,24,24,24,,,,,,,,,,,,,23.805822899994382,0.0058228999943814586,5,0.1518318000016734,51.16514520000055,51.16514520000055,51.16514520000055,51.16514520000055,51.16514520000055,51.16514520000055,51.16514520000055,51.16514520000055,002,P001,2025_Jan_17_1909,CategoryLocalizer,2021.2.3,59.948336524500114,
24.0,24.8,1,0.75,Stimuli\ImageFiles-Set2\Objects\Object_Switch_00001.png,0,0,0,25,25,25,,,,,,,,,,,,,24.02076269999816,0.020762699998158496,None,,51.38213280000491,51.38213280000491,51.38213280000491,51.38213280000491,51.38213280000491,51.38213280000491,51.38213280000491,51.38213280000491,002,P001,2025_Jan_17_1909,CategoryLocalizer,2021.2.3,59.948336524500114,
24.8,25.0,5,0.0,Stimuli\Blank.png,0,0,0,26,26,26,,,,,,,,,,,,,24.821244099999603,0.02124409999960264,None,,52.16601020000235,52.16601020000235,52.16601020000235,52.16601020000235,52.16601020000235,52.16601020000235,52.16601020000235,52.16601020000235,002,P001,2025_Jan_17_1909,CategoryLocalizer,2021.2.3,59.948336524500114,
25.0,25.8,1,0.75,Stimuli\ImageFiles-Set2\Objects\Object_Hook_00001.png,1,1,0,27,27,27,,,,,,,,,,,,,25.006607199997234,0.0066071999972336926,None,,52.36619260000589,52.36619260000589,52.36619260000589,52.36619260000589,52.36619260000589,52.36619260000589,52.36619260000589,52.36619260000589,002,P001,2025_Jan_17_1909,CategoryLocalizer,2021.2.3,59.948336524500114,
25.8,26.0,5,0.0,Stimuli\Blank.png,0,0,0,28,28,28,,,,,,,,,,,,,25.821793199997046,0.02179319999704532,5,0.15010529999563005,53.166895000002114,53.166895000002114,53.166895000002114,53.166895000002114,53.166895000002114,53.166895000002114,53.166895000002114,53.166895000002114,002,P001,2025_Jan_17_1909,CategoryLocalizer,2021.2.3,59.948336524500114,
26.0,26.8,1,0.75,Stimuli\ImageFiles-Set2\Objects\Object_Pitcher_00001.png,0,0,0,29,29,29,,,,,,,,,,,,,26.005417899999884,0.005417899999883957,None,,53.35040110000409,53.35040110000409,53.35040110000409,53.35040110000409,53.35040110000409,53.35040110000409,53.35040110000409,53.35040110000409,002,P001,2025_Jan_17_1909,CategoryLocalizer,2021.2.3,59.948336524500114,
26.8,27.0,5,0.0,Stimuli\Blank.png,0,0,0,30,30,30,,,,,,,,,,,,,26.80668329999753,0.006683299997529701,None,,54.15113310000015,54.15113310000015,54.15113310000015,54.15113310000015,54.15113310000015,54.15113310000015,54.15113310000015,54.15113310000015,002,P001,2025_Jan_17_1909,CategoryLocalizer,2021.2.3,59.948336524500114,
27.0,27.8,1,0.75,Stimuli\ImageFiles-Set2\Objects\Object_Pitcher_00001.png,0,0,0,31,31,31,,,,,,,,,,,,,27.00637469999492,0.006374699994921684,3,0.4847502000047825,54.351278699999966,54.351278699999966,54.351278699999966,54.351278699999966,54.351278699999966,54.351278699999966,54.351278699999966,54.351278699999966,002,P001,2025_Jan_17_1909,CategoryLocalizer,2021.2.3,59.948336524500114,
27.8,28.0,5,0.0,Stimuli\Blank.png,0,0,0,32,32,32,,,,,,,,,,,,,27.806496099998185,0.006496099998184235,5,0.16512199999851873,55.151986900003976,55.151986900003976,55.151986900003976,55.151986900003976,55.151986900003976,55.151986900003976,55.151986900003976,55.151986900003976,002,P001,2025_Jan_17_1909,CategoryLocalizer,2021.2.3,59.948336524500114,
28.0,28.8,2,0.75,Stimuli\ImageFiles-Set2\Bodies\Bodies_Walking_00005.png,0,0,0,33,33,33,,,,,,,,,,,,,28.00723519999883,0.007235199998831376,None,,55.36888880000333,55.36888880000333,55.36888880000333,55.36888880000333,55.36888880000333,55.36888880000333,55.36888880000333,55.36888880000333,002,P001,2025_Jan_17_1909,CategoryLocalizer,2021.2.3,59.948336524500114,
28.8,29.0,5,0.0,Stimuli\Blank.png,0,0,0,34,34,34,,,,,,,,,,,,,28.825878499999817,0.025878499999816285,None,,56.18623930000467,56.18623930000467,56.18623930000467,56.18623930000467,56.18623930000467,56.18623930000467,56.18623930000467,56.18623930000467,002,P001,2025_Jan_17_1909,CategoryLocalizer,2021.2.3,59.948336524500114,
29.0,29.8,2,0.75,Stimuli\ImageFiles-Set2\Bodies\Bodies_Kicking_00004.png,0,0,0,35,35,35,,,,,,,,,,,,,29.024340899995877,0.024340899995877407,None,,56.38641280000593,56.38641280000593,56.38641280000593,56.38641280000593,56.38641280000593,56.38641280000593,56.38641280000593,56.38641280000593,002,P001,2025_Jan_17_1909,CategoryLocalizer,2021.2.3,59.948336524500114,
29.8,30.0,5,0.0,Stimuli\Blank.png,0,0,0,36,36,36,,,,,,,,,,,,,29.825527999993938,0.025527999993936845,5,0.14659369999571936,57.170442900001945,57.170442900001945,57.170442900001945,57.170442900001945,57.170442900001945,57.170442900001945,57.170442900001945,57.170442900001945,002,P001,2025_Jan_17_1909,CategoryLocalizer,2021.2.3,59.948336524500114,
30.0,30.8,2,0.75,Stimuli\ImageFiles-Set2\Bodies\Bodies_Running_00004.png,0,0,0,37,37,37,,,,,,,,,,,,,30.010631999997713,0.010631999997713137,None,,57.38732220000384,57.38732220000384,57.38732220000384,57.38732220000384,57.38732220000384,57.38732220000384,57.38732220000384,57.38732220000384,002,P001,2025_Jan_17_1909,CategoryLocalizer,2021.2.3,59.948336524500114,
30.8,31.0,5,0.0,Stimuli\Blank.png,0,0,0,38,38,38,,,,,,,,,,,,,30.84316789999866,0.043167899998660886,None,,58.1880203000037,58.1880203000037,58.1880203000037,58.1880203000037,58.1880203000037,58.1880203000037,58.1880203000037,58.1880203000037,002,P001,2025_Jan_17_1909,CategoryLocalizer,2021.2.3,59.948336524500114,
31.0,31.8,2,0.75,Stimuli\ImageFiles-Set2\Bodies\Bodies_PushUp_00001.png,0,0,0,39,39,39,,,,,,,,,,,,,31.009719899993797,0.009719899993797299,None,,58.37149800000043,58.37149800000043,58.37149800000043,58.37149800000043,58.37149800000043,58.37149800000043,58.37149800000043,58.37149800000043,002,P001,2025_Jan_17_1909,CategoryLocalizer,2021.2.3,59.948336524500114,
31.8,32.0,5,0.0,Stimuli\Blank.png,0,0,0,40,40,40,,,,,,,,,,,,,31.827579899996636,0.027579899996634794,5,0.14491309999721125,59.17223300000478,59.17223300000478,59.17223300000478,59.17223300000478,59.17223300000478,59.17223300000478,59.17223300000478,59.17223300000478,002,P001,2025_Jan_17_1909,CategoryLocalizer,2021.2.3,59.948336524500114,
32.0,32.8,2,0.75,Stimuli\ImageFiles-Set2\Bodies\Bodies_PushUp_00001.png,1,1,0,41,41,41,,,,,,,,,,,,,32.01118379999389,0.011183799993887078,3,0.458287500005099,59.3557060000021,59.3557060000021,59.3557060000021,59.3557060000021,59.3557060000021,59.3557060000021,59.3557060000021,59.3557060000021,002,P001,2025_Jan_17_1909,CategoryLocalizer,2021.2.3,59.948336524500114,
32.8,33.0,5,0.0,Stimuli\Blank.png,0,0,0,42,42,42,,,,,,,,,,,,,32.81167709999863,0.011677099998635754,None,,60.15642590000061,60.15642590000061,60.15642590000061,60.15642590000061,60.15642590000061,60.15642590000061,60.15642590000061,60.15642590000061,002,P001,2025_Jan_17_1909,CategoryLocalizer,2021.2.3,59.948336524500114,
33.0,33.8,2,0.75,Stimuli\ImageFiles-Set2\Bodies\Bodies_Walking_00001.png,0,0,0,43,43,43,,,,,,,,,,,,,33.01178019999497,0.011780199994973373,None,,60.37334710000141,60.37334710000141,60.37334710000141,60.37334710000141,60.37334710000141,60.37334710000141,60.37334710000141,60.37334710000141,002,P001,2025_Jan_17_1909,CategoryLocalizer,2021.2.3,59.948336524500114,
33.8,34.0,5,0.0,Stimuli\Blank.png,0,0,0,44,44,44,,,,,,,,,,,,,33.83148749999964,0.031487499999641955,5,0.1263397000002442,61.190689800001564,61.190689800001564,61.190689800001564,61.190689800001564,61.190689800001564,61.190689800001564,61.190689800001564,61.190689800001564,002,P001,2025_Jan_17_1909,CategoryLocalizer,2021.2.3,59.948336524500114,
34.0,34.8,2,0.75,Stimuli\ImageFiles-Set2\Bodies\Bodies_Crawling_00007.png,0,0,0,45,45,45,,,,,,,,,,,,,34.03118829999585,0.031188299995847046,None,,61.39085540000087,61.39085540000087,61.39085540000087,61.39085540000087,61.39085540000087,61.39085540000087,61.39085540000087,61.39085540000087,002,P001,2025_Jan_17_1909,CategoryLocalizer,2021.2.3,59.948336524500114,
34.8,35.0,5,0.0,Stimuli\Blank.png,0,0,0,46,46,46,,,,,,,,,,,,,34.82996439999988,0.02996439999988354,None,,62.17491010000231,62.17491010000231,62.17491010000231,62.17491010000231,62.17491010000231,62.17491010000231,62.17491010000231,62.17491010000231,002,P001,2025_Jan_17_1909,CategoryLocalizer,2021.2.3,59.948336524500114,
35.0,35.8,2,0.75,Stimuli\ImageFiles-Set2\Bodies\Bodies_PushUp_00006.png,0,0,0,47,47,47,,,,,,,,,,,,,35.01546699999744,0.015466999997443054,None,,62.37505980000424,62.37505980000424,62.37505980000424,62.37505980000424,62.37505980000424,62.37505980000424,62.37505980000424,62.37505980000424,002,P001,2025_Jan_17_1909,CategoryLocalizer,2021.2.3,59.948336524500114,
35.8,36.0,5,0.0,Stimuli\Blank.png,0,0,0,48,48,48,,,,,,,,,,,,,35.815515999995114,0.015515999995116658,5,0.141271799999231,63.17576810000173,63.17576810000173,63.17576810000173,63.17576810000173,63.17576810000173,63.17576810000173,63.17576810000173,63.17576810000173,002,P001,2025_Jan_17_1909,CategoryLocalizer,2021.2.3,59.948336524500114,
36.0,36.8,2,0.75,Stimuli\ImageFiles-Set2\Bodies\Bodies_Falling_00003.png,0,0,0,49,49,49,,,,,,,,,,,,,36.014465699998254,0.014465699998254422,None,,63.37591860000248,63.37591860000248,63.37591860000248,63.37591860000248,63.37591860000248,63.37591860000248,63.37591860000248,63.37591860000248,002,P001,2025_Jan_17_1909,CategoryLocalizer,2021.2.3,59.948336524500114,
36.8,37.0,5,0.0,Stimuli\Blank.png,0,0,0,50,50,50,,,,,,,,,,,,,36.83116049999808,0.031160499998080127,None,,64.17666129999998,64.17666129999998,64.17666129999998,64.17666129999998,64.17666129999998,64.17666129999998,64.17666129999998,64.17666129999998,002,P001,2025_Jan_17_1909,CategoryLocalizer,2021.2.3,59.948336524500114,
37.0,37.8,2,0.75,Stimuli\ImageFiles-Set2\Bodies\Bodies_Kneeling_00006.png,1,1,0,51,51,51,,,,,,,,,,,,,37.01539579999371,0.01539579999371199,None,,64.3768246000036,64.3768246000036,64.3768246000036,64.3768246000036,64.3768246000036,64.3768246000036,64.3768246000036,64.3768246000036,002,P001,2025_Jan_17_1909,CategoryLocalizer,2021.2.3,59.948336524500114,
37.8,38.0,5,0.0,Stimuli\Blank.png,0,0,0,52,52,52,,,,,,,,,,,,,37.81604879999941,0.016048799999410335,None,,65.16084850000334,65.16084850000334,65.16084850000334,65.16084850000334,65.16084850000334,65.16084850000334,65.16084850000334,65.16084850000334,002,P001,2025_Jan_17_1909,CategoryLocalizer,2021.2.3,59.948336524500114,
38.0,38.8,2,0.75,Stimuli\ImageFiles-Set2\Bodies\Bodies_Jumping_00003.png,0,0,0,53,53,53,,,,,,,,,,,,,38.000160399999004,0.00016039999900385737,None,,65.36100780000561,65.36100780000561,65.36100780000561,65.36100780000561,65.36100780000561,65.36100780000561,65.36100780000561,65.36100780000561,002,P001,2025_Jan_17_1909,CategoryLocalizer,2021.2.3,59.948336524500114,
38.8,39.0,5,0.0,Stimuli\Blank.png,0,0,0,54,54,54,,,,,,,,,,,,,38.81676370000059,0.01676370000059535,None,,66.16171700000268,66.16171700000268,66.16171700000268,66.16171700000268,66.16171700000268,66.16171700000268,66.16171700000268,66.16171700000268,002,P001,2025_Jan_17_1909,CategoryLocalizer,2021.2.3,59.948336524500114,
39.0,39.8,2,0.75,Stimuli\ImageFiles-Set2\Bodies\Bodies_Jumping_00003.png,0,0,0,55,55,55,,,,,,,,,,,,,39.00095959999453,0.0009595999945304357,3,0.318087599996943,66.36192370000208,66.36192370000208,66.36192370000208,66.36192370000208,66.36192370000208,66.36192370000208,66.36192370000208,66.36192370000208,002,P001,2025_Jan_17_1909,CategoryLocalizer,2021.2.3,59.948336524500114,
39.8,40.0,5,0.0,Stimuli\Blank.png,0,0,0,56,56,56,,,,,,,,,,,,,39.81759659999807,0.017596599998071838,None,,67.16261360000499,67.16261360000499,67.16261360000499,67.16261360000499,67.16261360000499,67.16261360000499,67.16261360000499,67.16261360000499,002,P001,2025_Jan_17_1909,CategoryLocalizer,2021.2.3,59.948336524500114,
40.0,40.8,2,0.75,Stimuli\ImageFiles-Set2\Bodies\Bodies_Kicking_00001.png,0,0,0,57,57,57,,,,,,,,,,,,,40.001499899997725,0.0014998999977251515,None,,67.36279990000185,67.36279990000185,67.36279990000185,67.36279990000185,67.36279990000185,67.36279990000185,67.36279990000185,67.36279990000185,002,P001,2025_Jan_17_1909,CategoryLocalizer,2021.2.3,59.948336524500114,
40.8,41.0,5,0.0,Stimuli\Blank.png,0,0,0,58,58,58,,,,,,,,,,,,,40.81887070000084,0.01887070000084634,None,,68.16349880000053,68.16349880000053,68.16349880000053,68.16349880000053,68.16349880000053,68.16349880000053,68.16349880000053,68.16349880000053,002,P001,2025_Jan_17_1909,CategoryLocalizer,2021.2.3,59.948336524500114,
41.0,41.8,2,0.75,Stimuli\ImageFiles-Set2\Bodies\Bodies_Jumping_00001.png,0,0,0,59,59,59,,,,,,,,,,,,,41.00150009999925,0.0015000999992480502,None,,68.38033230000292,68.38033230000292,68.38033230000292,68.38033230000292,68.38033230000292,68.38033230000292,68.38033230000292,68.38033230000292,002,P001,2025_Jan_17_1909,CategoryLocalizer,2021.2.3,59.948336524500114,
41.8,42.0,5,0.0,Stimuli\Blank.png,0,0,0,60,60,60,,,,,,,,,,,,,41.83637369999633,0.03637369999633222,None,,69.18108200000279,69.18108200000279,69.18108200000279,69.18108200000279,69.18108200000279,69.18108200000279,69.18108200000279,69.18108200000279,002,P001,2025_Jan_17_1909,CategoryLocalizer,2021.2.3,59.948336524500114,
42.0,42.8,2,0.75,Stimuli\ImageFiles-Set2\Bodies\Bodies_Running_00001.png,0,0,0,61,61,61,,,,,,,,,,,,,42.00304060000053,0.0030406000005314127,None,,69.36522940000577,69.36522940000577,69.36522940000577,69.36522940000577,69.36522940000577,69.36522940000577,69.36522940000577,69.36522940000577,002,P001,2025_Jan_17_1909,CategoryLocalizer,2021.2.3,59.948336524500114,
42.8,43.0,5,0.0,Stimuli\Blank.png,0,0,0,62,62,62,,,,,,,,,,,,,42.82019410000066,0.02019410000066557,None,,70.16525100000581,70.16525100000581,70.16525100000581,70.16525100000581,70.16525100000581,70.16525100000581,70.16525100000581,70.16525100000581,002,P001,2025_Jan_17_1909,CategoryLocalizer,2021.2.3,59.948336524500114,
43.0,43.8,2,0.75,Stimuli\ImageFiles-Set2\Bodies\Bodies_Standing_00002.png,0,0,0,63,63,63,,,,,,,,,,,,,43.004390199996124,0.004390199996123556,None,,70.36544470000081,70.36544470000081,70.36544470000081,70.36544470000081,70.36544470000081,70.36544470000081,70.36544470000081,70.36544470000081,002,P001,2025_Jan_17_1909,CategoryLocalizer,2021.2.3,59.948336524500114,
43.8,44.0,5,0.0,Stimuli\Blank.png,0,0,0,64,64,64,,,,,,,,,,,,,43.82213409999531,0.022134099995312795,5,0.15092899999581277,71.166143500006,71.166143500006,71.166143500006,71.166143500006,71.166143500006,71.166143500006,71.166143500006,71.166143500006,002,P001,2025_Jan_17_1909,CategoryLocalizer,2021.2.3,59.948336524500114,
44.0,44.8,3,0.75,Stimuli\ImageFiles-Set2\Faces\Face_00074.png,0,0,0,65,65,65,,,,,,,,,,,,,44.005386799995904,0.005386799995903857,None,,71.36631450000277,71.36631450000277,71.36631450000277,71.36631450000277,71.36631450000277,71.36631450000277,71.36631450000277,71.36631450000277,002,P001,2025_Jan_17_1909,CategoryLocalizer,2021.2.3,59.948336524500114,
44.8,45.0,5,0.0,Stimuli\Blank.png,0,0,0,66,66,66,,,,,,,,,,,,,44.82249999999476,0.022499999994764153,None,,72.16702040000382,72.16702040000382,72.16702040000382,72.16702040000382,72.16702040000382,72.16702040000382,72.16702040000382,72.16702040000382,002,P001,2025_Jan_17_1909,CategoryLocalizer,2021.2.3,59.948336524500114,
45.0,45.8,3,0.75,Stimuli\ImageFiles-Set2\Faces\Face_00096.png,0,0,0,67,67,67,,,,,,,,,,,,,45.00555589999567,0.005555899995670188,None,,72.36719780000567,72.36719780000567,72.36719780000567,72.36719780000567,72.36719780000567,72.36719780000567,72.36719780000567,72.36719780000567,002,P001,2025_Jan_17_1909,CategoryLocalizer,2021.2.3,59.948336524500114,
45.8,46.0,5,0.0,Stimuli\Blank.png,0,0,0,68,68,68,,,,,,,,,,,,,45.82254159999866,0.0225415999986609,5,0.14918649999890476,73.16791620000004,73.16791620000004,73.16791620000004,73.16791620000004,73.16791620000004,73.16791620000004,73.16791620000004,73.16791620000004,002,P001,2025_Jan_17_1909,CategoryLocalizer,2021.2.3,59.948336524500114,
46.0,46.8,3,0.75,Stimuli\ImageFiles-Set2\Faces\Face_00036.png,0,0,0,69,69,69,,,,,,,,,,,,,46.006621099993936,0.006621099993935786,None,,73.38477750000311,73.38477750000311,73.38477750000311,73.38477750000311,73.38477750000311,73.38477750000311,73.38477750000311,73.38477750000311,002,P001,2025_Jan_17_1909,CategoryLocalizer,2021.2.3,59.948336524500114,
46.8,47.0,5,0.0,Stimuli\Blank.png,0,0,0,70,70,70,,,,,,,,,,,,,46.84144649999507,0.041446499995075214,None,,74.18547920000128,74.18547920000128,74.18547920000128,74.18547920000128,74.18547920000128,74.18547920000128,74.18547920000128,74.18547920000128,002,P001,2025_Jan_17_1909,CategoryLocalizer,2021.2.3,59.948336524500114,
47.0,47.8,3,0.75,Stimuli\ImageFiles-Set2\Faces\Face_00094.png,0,0,0,71,71,71,,,,,,,,,,,,,47.00730230000045,0.007302300000446849,None,,74.36898000000656,74.36898000000656,74.36898000000656,74.36898000000656,74.36898000000656,74.36898000000656,74.36898000000656,74.36898000000656,002,P001,2025_Jan_17_1909,CategoryLocalizer,2021.2.3,59.948336524500114,
47.8,48.0,5,0.0,Stimuli\Blank.png,0,0,0,72,72,72,,,,,,,,,,,,,47.82668099999864,0.02668099999864637,5,0.13064909999957308,75.18636490000063,75.18636490000063,75.18636490000063,75.18636490000063,75.18636490000063,75.18636490000063,75.18636490000063,75.18636490000063,002,P001,2025_Jan_17_1909,CategoryLocalizer,2021.2.3,59.948336524500114,
48.0,48.8,3,0.75,Stimuli\ImageFiles-Set2\Faces\Face_00023.png,0,0,0,73,73,73,,,,,,,,,,,,,48.0243518999996,0.0243518999996013,None,,75.38656370000535,75.38656370000535,75.38656370000535,75.38656370000535,75.38656370000535,75.38656370000535,75.38656370000535,75.38656370000535,002,P001,2025_Jan_17_1909,CategoryLocalizer,2021.2.3,59.948336524500114,
48.8,49.0,5,0.0,Stimuli\Blank.png,0,0,0,74,74,74,,,,,,,,,,,,,48.826584299997194,0.02658429999719658,None,,76.17056490000687,76.17056490000687,76.17056490000687,76.17056490000687,76.17056490000687,76.17056490000687,76.17056490000687,76.17056490000687,002,P001,2025_Jan_17_1909,CategoryLocalizer,2021.2.3,59.948336524500114,
49.0,49.8,3,0.75,Stimuli\ImageFiles-Set2\Faces\Face_00021.png,0,0,0,75,75,75,,,,,,,,,,,,,49.01088969999546,0.010889699995459523,None,,76.3874133000063,76.3874133000063,76.3874133000063,76.3874133000063,76.3874133000063,76.3874133000063,76.3874133000063,76.3874133000063,002,P001,2025_Jan_17_1909,CategoryLocalizer,2021.2.3,59.948336524500114,
49.8,50.0,5,0.0,Stimuli\Blank.png,0,0,0,76,76,76,,,,,,,,,,,,,49.84541799999715,0.04541799999715579,5,0.1123373999944306,77.20483430000604,77.20483430000604,77.20483430000604,77.20483430000604,77.20483430000604,77.20483430000604,77.20483430000604,77.20483430000604,002,P001,2025_Jan_17_1909,CategoryLocalizer,2021.2.3,59.948336524500114,
50.0,50.8,3,0.75,Stimuli\ImageFiles-Set2\Faces\Face_00030.png,0,0,0,77,77,77,,,,,,,,,,,,,50.02638959999604,0.02638959999603685,None,,77.38833210000303,77.38833210000303,77.38833210000303,77.38833210000303,77.38833210000303,77.38833210000303,77.38833210000303,77.38833210000303,002,P001,2025_Jan_17_1909,CategoryLocalizer,2021.2.3,59.948336524500114,
50.8,51.0,5,0.0,Stimuli\Blank.png,0,0,0,78,78,78,,,,,,,,,,,,,50.82723249999981,0.02723249999981192,None,,78.17233740000665,78.17233740000665,78.17233740000665,78.17233740000665,78.17233740000665,78.17233740000665,78.17233740000665,78.17233740000665,002,P001,2025_Jan_17_1909,CategoryLocalizer,2021.2.3,59.948336524500114,
51.0,51.8,3,0.75,Stimuli\ImageFiles-Set2\Faces\Face_00034.png,0,0,0,79,79,79,,,,,,,,,,,,,51.01129129999754,0.011291299997537863,None,,78.38920200000575,78.38920200000575,78.38920200000575,78.38920200000575,78.38920200000575,78.38920200000575,78.38920200000575,78.38920200000575,002,P001,2025_Jan_17_1909,CategoryLocalizer,2021.2.3,59.948336524500114,
51.8,52.0,5,0.0,Stimuli\Blank.png,0,0,0,80,80,80,,,,,,,,,,,,,51.84515839999949,0.04515839999949378,5,0.12723929999629036,79.1898982000057,79.1898982000057,79.1898982000057,79.1898982000057,79.1898982000057,79.1898982000057,79.1898982000057,79.1898982000057,002,P001,2025_Jan_17_1909,CategoryLocalizer,2021.2.3,59.948336524500114,
52.0,52.8,3,0.75,Stimuli\ImageFiles-Set2\Faces\Face_00046.png,0,0,0,81,81,81,,,,,,,,,,,,,52.011654199995974,0.011654199995973613,None,,79.37344460000168,79.37344460000168,79.37344460000168,79.37344460000168,79.37344460000168,79.37344460000168,79.37344460000168,79.37344460000168,002,P001,2025_Jan_17_1909,CategoryLocalizer,2021.2.3,59.948336524500114,
52.8,53.0,5,0.0,Stimuli\Blank.png,0,0,0,82,82,82,,,,,,,,,,,,,52.83108739999443,0.03108739999443344,None,,80.19081480000023,80.19081480000023,80.19081480000023,80.19081480000023,80.19081480000023,80.19081480000023,80.19081480000023,80.19081480000023,002,P001,2025_Jan_17_1909,CategoryLocalizer,2021.2.3,59.948336524500114,
53.0,53.8,3,0.75,Stimuli\ImageFiles-Set2\Faces\Face_00120.png,0,0,0,83,83,83,,,,,,,,,,,,,53.031563599994115,0.031563599994115066,None,,80.39096280000376,80.39096280000376,80.39096280000376,80.39096280000376,80.39096280000376,80.39096280000376,80.39096280000376,80.39096280000376,002,P001,2025_Jan_17_1909,CategoryLocalizer,2021.2.3,59.948336524500114,
53.8,54.0,5,0.0,Stimuli\Blank.png,0,0,0,84,84,84,,,,,,,,,,,,,53.83018479999737,0.03018479999737167,5,0.14206349999585655,81.17498060000071,81.17498060000071,81.17498060000071,81.17498060000071,81.17498060000071,81.17498060000071,81.17498060000071,81.17498060000071,002,P001,2025_Jan_17_1909,CategoryLocalizer,2021.2.3,59.948336524500114,
54.0,54.8,3,0.75,Stimuli\ImageFiles-Set2\Faces\Face_00112.png,0,0,0,85,85,85,,,,,,,,,,,,,54.01445219999732,0.014452199997322168,None,,81.37518910000654,81.37518910000654,81.37518910000654,81.37518910000654,81.37518910000654,81.37518910000654,81.37518910000654,81.37518910000654,002,P001,2025_Jan_17_1909,CategoryLocalizer,2021.2.3,59.948336524500114,
54.8,55.0,5,0.0,Stimuli\Blank.png,0,0,0,86,86,86,,,,,,,,,,,,,54.8310463999951,0.03104639999510539,None,,82.17588680000335,82.17588680000335,82.17588680000335,82.17588680000335,82.17588680000335,82.17588680000335,82.17588680000335,82.17588680000335,002,P001,2025_Jan_17_1909,CategoryLocalizer,2021.2.3,59.948336524500114,
55.0,55.8,3,0.75,Stimuli\ImageFiles-Set2\Faces\Face_00056.png,0,0,0,87,87,87,,,,,,,,,,,,,55.014284599994426,0.014284599994425662,None,,82.37605270000495,82.37605270000495,82.37605270000495,82.37605270000495,82.37605270000495,82.37605270000495,82.37605270000495,82.37605270000495,002,P001,2025_Jan_17_1909,CategoryLocalizer,2021.2.3,59.948336524500114,
55.8,56.0,5,0.0,Stimuli\Blank.png,0,0,0,88,88,88,,,,,,,,,,,,,55.83188209999935,0.031882099999350544,5,0.14030329999513924,83.17675560000498,83.17675560000498,83.17675560000498,83.17675560000498,83.17675560000498,83.17675560000498,83.17675560000498,83.17675560000498,002,P001,2025_Jan_17_1909,CategoryLocalizer,2021.2.3,59.948336524500114,
56.0,56.8,3,0.75,Stimuli\ImageFiles-Set2\Faces\Face_00078.png,0,0,0,89,89,89,,,,,,,,,,,,,56.015307499998016,0.015307499998016283,None,,83.37695890000032,83.37695890000032,83.37695890000032,83.37695890000032,83.37695890000032,83.37695890000032,83.37695890000032,83.37695890000032,002,P001,2025_Jan_17_1909,CategoryLocalizer,2021.2.3,59.948336524500114,
56.8,57.0,5,0.0,Stimuli\Blank.png,0,0,0,90,90,90,,,,,,,,,,,,,56.81682899999578,0.01682899999578069,None,,84.17766480000137,84.17766480000137,84.17766480000137,84.17766480000137,84.17766480000137,84.17766480000137,84.17766480000137,84.17766480000137,002,P001,2025_Jan_17_1909,CategoryLocalizer,2021.2.3,59.948336524500114,
57.0,57.8,3,0.75,Stimuli\ImageFiles-Set2\Faces\Face_00072.png,0,0,0,91,91,91,,,,,,,,,,,,,57.01634849999391,0.01634849999391008,None,,84.39447190000647,84.39447190000647,84.39447190000647,84.39447190000647,84.39447190000647,84.39447190000647,84.39447190000647,84.39447190000647,002,P001,2025_Jan_17_1909,CategoryLocalizer,2021.2.3,59.948336524500114,
57.8,58.0,5,0.0,Stimuli\Blank.png,0,0,0,92,92,92,,,,,,,,,,,,,57.833754999999655,0.03375499999965825,None,,85.17853460000333,85.17853460000333,85.17853460000333,85.17853460000333,85.17853460000333,85.17853460000333,85.17853460000333,85.17853460000333,002,P001,2025_Jan_17_1909,CategoryLocalizer,2021.2.3,59.948336524500114,
58.0,58.8,3,0.75,Stimuli\ImageFiles-Set2\Faces\Face_00072.png,1,1,0,93,93,93,,,,,,,,,,,,,57.99990329999855,-9.670000144978985e-05,3,0.41564459999790415,85.34533670000383,85.34533670000383,85.34533670000383,85.34533670000383,85.34533670000383,85.34533670000383,85.34533670000383,85.34533670000383,002,P001,2025_Jan_17_1909,CategoryLocalizer,2021.2.3,59.948336524500114,
58.8,59.0,5,0.0,Stimuli\Blank.png,0,0,0,94,94,94,,,,,,,,,,,,,58.802436399993894,0.0024363999938969982,None,,86.1627668000001,86.1627668000001,86.1627668000001,86.1627668000001,86.1627668000001,86.1627668000001,86.1627668000001,86.1627668000001,002,P001,2025_Jan_17_1909,CategoryLocalizer,2021.2.3,59.948336524500114,
59.0,59.8,3,0.75,Stimuli\ImageFiles-Set2\Faces\Face_00017.png,0,0,0,95,95,95,,,,,,,,,,,,,59.018278899995494,0.018278899995493703,None,,86.37959820000106,86.37959820000106,86.37959820000106,86.37959820000106,86.37959820000106,86.37959820000106,86.37959820000106,86.37959820000106,002,P001,2025_Jan_17_1909,CategoryLocalizer,2021.2.3,59.948336524500114,
59.8,60.0,5,0.0,Stimuli\Blank.png,0,0,0,96,96,96,,,,,,,,,,,,,59.82178809999459,0.021788099994594745,5,0.13675679999869317,87.18029950000346,87.18029950000346,87.18029950000346,87.18029950000346,87.18029950000346,87.18029950000346,87.18029950000346,87.18029950000346,002,P001,2025_Jan_17_1909,CategoryLocalizer,2021.2.3,59.948336524500114,
60.0,60.8,4,0.75,Stimuli\ImageFiles-Set2\Scenes\Scenes_096.png,0,0,0,97,97,97,,,,,,,,,,,,,60.0184511999978,0.01845119999779854,None,,87.36378890000196,87.36378890000196,87.36378890000196,87.36378890000196,87.36378890000196,87.36378890000196,87.36378890000196,87.36378890000196,002,P001,2025_Jan_17_1909,CategoryLocalizer,2021.2.3,59.948336524500114,
60.8,61.0,5,0.0,Stimuli\Blank.png,0,0,0,98,98,98,,,,,,,,,,,,,60.80266649999976,0.0026664999997620953,None,,88.14780910000263,88.14780910000263,88.14780910000263,88.14780910000263,88.14780910000263,88.14780910000263,88.14780910000263,88.14780910000263,002,P001,2025_Jan_17_1909,CategoryLocalizer,2021.2.3,59.948336524500114,
61.0,61.8,4,0.75,Stimuli\ImageFiles-Set2\Scenes\Scenes_100.png,0,0,0,99,99,99,,,,,,,,,,,,,61.00326729999506,0.0032672999950591475,None,,88.36464400000114,88.36464400000114,88.36464400000114,88.36464400000114,88.36464400000114,88.36464400000114,88.36464400000114,88.36464400000114,002,P001,2025_Jan_17_1909,CategoryLocalizer,2021.2.3,59.948336524500114,
61.8,62.0,5,0.0,Stimuli\Blank.png,0,0,0,100,100,100,,,,,,,,,,,,,61.82032579999941,0.020325799999412197,5,0.15165990000241436,89.16537940000126,89.16537940000126,89.16537940000126,89.16537940000126,89.16537940000126,89.16537940000126,89.16537940000126,89.16537940000126,002,P001,2025_Jan_17_1909,CategoryLocalizer,2021.2.3,59.948336524500114,
62.0,62.8,4,0.75,Stimuli\ImageFiles-Set2\Scenes\Scenes_100.png,1,1,0,101,101,101,,,,,,,,,,,,,62.00399429999379,0.003994299993792083,3,0.5461896000051638,89.34886850000476,89.34886850000476,89.34886850000476,89.34886850000476,89.34886850000476,89.34886850000476,89.34886850000476,89.34886850000476,002,P001,2025_Jan_17_1909,CategoryLocalizer,2021.2.3,59.948336524500114,
62.8,63.0,5,0.0,Stimuli\Blank.png,0,0,0,102,102,102,,,,,,,,,,,,,62.80497810000088,0.004978100000883501,None,,90.14963490000082,90.14963490000082,90.14963490000082,90.14963490000082,90.14963490000082,90.14963490000082,90.14963490000082,90.14963490000082,002,P001,2025_Jan_17_1909,CategoryLocalizer,2021.2.3,59.948336524500114,
63.0,63.8,4,0.75,Stimuli\ImageFiles-Set2\Scenes\Scenes_062.png,0,0,0,103,103,103,,,,,,,,,,,,,63.00516359999892,0.005163599998923019,None,,90.36644119999983,90.36644119999983,90.36644119999983,90.36644119999983,90.36644119999983,90.36644119999983,90.36644119999983,90.36644119999983,002,P001,2025_Jan_17_1909,CategoryLocalizer,2021.2.3,59.948336524500114,
63.8,64.0,5,0.0,Stimuli\Blank.png,0,0,0,104,104,104,,,,,,,,,,,,,63.821741199993994,0.02174119999399693,5,0.15004549999866867,91.16715380000096,91.16715380000096,91.16715380000096,91.16715380000096,91.16715380000096,91.16715380000096,91.16715380000096,91.16715380000096,002,P001,2025_Jan_17_1909,CategoryLocalizer,2021.2.3,59.948336524500114,
64.0,64.8,4,0.75,Stimuli\ImageFiles-Set2\Scenes\Scenes_074.png,0,0,0,105,105,105,,,,,,,,,,,,,64.00545449999481,0.005454499994812068,None,,91.36732850000408,91.36732850000408,91.36732850000408,91.36732850000408,91.36732850000408,91.36732850000408,91.36732850000408,91.36732850000408,002,P001,2025_Jan_17_1909,CategoryLocalizer,2021.2.3,59.948336524500114,
64.8,65.0,5,0.0,Stimuli\Blank.png,0,0,0,106,106,106,,,,,,,,,,,,,64.82323209999595,0.023232099995951216,None,,92.16805070000555,92.16805070000555,92.16805070000555,92.16805070000555,92.16805070000555,92.16805070000555,92.16805070000555,92.16805070000555,002,P001,2025_Jan_17_1909,CategoryLocalizer,2021.2.3,59.948336524500114,
65.0,65.8,4,0.75,Stimuli\ImageFiles-Set2\Scenes\Scenes_101.png,0,0,0,107,107,107,,,,,,,,,,,,,65.00705809999636,0.007058099996356759,None,,92.36822130000655,92.36822130000655,92.36822130000655,92.36822130000655,92.36822130000655,92.36822130000655,92.36822130000655,92.36822130000655,002,P001,2025_Jan_17_1909,CategoryLocalizer,2021.2.3,59.948336524500114,
65.8,66.0,5,0.0,Stimuli\Blank.png,0,0,0,108,108,108,,,,,,,,,,,,,65.82554759999766,0.025547599997665316,5,0.13147330000356305,93.18564800000604,93.18564800000604,93.18564800000604,93.18564800000604,93.18564800000604,93.18564800000604,93.18564800000604,93.18564800000604,002,P001,2025_Jan_17_1909,CategoryLocalizer,2021.2.3,59.948336524500114,
66.0,66.8,4,0.75,Stimuli\ImageFiles-Set2\Scenes\Scenes_110.png,0,0,0,109,109,109,,,,,,,,,,,,,66.02599349999946,0.025993499999458436,None,,93.38588180000079,93.38588180000079,93.38588180000079,93.38588180000079,93.38588180000079,93.38588180000079,93.38588180000079,93.38588180000079,002,P001,2025_Jan_17_1909,CategoryLocalizer,2021.2.3,59.948336524500114,
66.8,67.0,5,0.0,Stimuli\Blank.png,0,0,0,110,110,110,,,,,,,,,,,,,66.82674899999984,0.02674899999983893,None,,94.1865112000014,94.1865112000014,94.1865112000014,94.1865112000014,94.1865112000014,94.1865112000014,94.1865112000014,94.1865112000014,002,P001,2025_Jan_17_1909,CategoryLocalizer,2021.2.3,59.948336524500114,
67.0,67.8,4,0.75,Stimuli\ImageFiles-Set2\Scenes\Scenes_072.png,0,0,0,111,111,111,,,,,,,,,,,,,67.02650849999918,0.026508499999181367,None,,94.40334419999999,94.40334419999999,94.40334419999999,94.40334419999999,94.40334419999999,94.40334419999999,94.40334419999999,94.40334419999999,002,P001,2025_Jan_17_1909,CategoryLocalizer,2021.2.3,59.948336524500114,
67.8,68.0,5,0.0,Stimuli\Blank.png,0,0,0,112,112,112,,,,,,,,,,,,,67.84241729999485,0.04241729999485244,5,0.12959120000596158,95.18744980000338,95.18744980000338,95.18744980000338,95.18744980000338,95.18744980000338,95.18744980000338,95.18744980000338,95.18744980000338,002,P001,2025_Jan_17_1909,CategoryLocalizer,2021.2.3,59.948336524500114,
68.0,68.8,4,0.75,Stimuli\ImageFiles-Set2\Scenes\Scenes_116.png,0,0,0,113,113,113,,,,,,,,,,,,,68.00922879999416,0.009228799994161818,None,,95.37086590000399,95.37086590000399,95.37086590000399,95.37086590000399,95.37086590000399,95.37086590000399,95.37086590000399,95.37086590000399,002,P001,2025_Jan_17_1909,CategoryLocalizer,2021.2.3,59.948336524500114,
68.8,69.0,5,0.0,Stimuli\Blank.png,0,0,0,114,114,114,,,,,,,,,,,,,68.82699239999783,0.026992399997837424,None,,96.17157000000589,96.17157000000589,96.17157000000589,96.17157000000589,96.17157000000589,96.17157000000589,96.17157000000589,96.17157000000589,002,P001,2025_Jan_17_1909,CategoryLocalizer,2021.2.3,59.948336524500114,
69.0,69.8,4,0.75,Stimuli\ImageFiles-Set2\Scenes\Scenes_089.png,0,0,0,115,115,115,,,,,,,,,,,,,69.0111082999938,0.01110829999379348,None,,96.37177650000376,96.37177650000376,96.37177650000376,96.37177650000376,96.37177650000376,96.37177650000376,96.37177650000376,96.37177650000376,002,P001,2025_Jan_17_1909,CategoryLocalizer,2021.2.3,59.948336524500114,
69.8,70.0,5,0.0,Stimuli\Blank.png,0,0,0,116,116,116,,,,,,,,,,,,,69.82784119999997,0.027841199999969035,5,0.14453189999767346,97.1724719000049,97.1724719000049,97.1724719000049,97.1724719000049,97.1724719000049,97.1724719000049,97.1724719000049,97.1724719000049,002,P001,2025_Jan_17_1909,CategoryLocalizer,2021.2.3,59.948336524500114,
70.0,70.8,4,0.75,Stimuli\ImageFiles-Set2\Scenes\Scenes_113.png,0,0,0,117,117,117,,,,,,,,,,,,,70.01141769999958,0.01141769999958342,None,,97.37262960000226,97.37262960000226,97.37262960000226,97.37262960000226,97.37262960000226,97.37262960000226,97.37262960000226,97.37262960000226,002,P001,2025_Jan_17_1909,CategoryLocalizer,2021.2.3,59.948336524500114,
70.8,71.0,5,0.0,Stimuli\Blank.png,0,0,0,118,118,118,,,,,,,,,,,,,70.83058259999962,0.030582599999618765,None,,98.19005319999997,98.19005319999997,98.19005319999997,98.19005319999997,98.19005319999997,98.19005319999997,98.19005319999997,98.19005319999997,002,P001,2025_Jan_17_1909,CategoryLocalizer,2021.2.3,59.948336524500114,
71.0,71.8,4,0.75,Stimuli\ImageFiles-Set2\Scenes\Scenes_114.png,0,0,0,119,119,119,,,,,,,,,,,,,71.03045069999644,0.030450699996436015,None,,98.39020170000003,98.39020170000003,98.39020170000003,98.39020170000003,98.39020170000003,98.39020170000003,98.39020170000003,98.39020170000003,002,P001,2025_Jan_17_1909,CategoryLocalizer,2021.2.3,59.948336524500114,
71.8,72.0,5,0.0,Stimuli\Blank.png,0,0,0,120,120,120,,,,,,,,,,,,,71.83126849999826,0.0312684999982622,5,0.12627179999981308,99.19091380000464,99.19091380000464,99.19091380000464,99.19091380000464,99.19091380000464,99.19091380000464,99.19091380000464,99.19091380000464,002,P001,2025_Jan_17_1909,CategoryLocalizer,2021.2.3,59.948336524500114,
72.0,72.8,4,0.75,Stimuli\ImageFiles-Set2\Scenes\Scenes_095.png,0,0,0,121,121,121,,,,,,,,,,,,,72.0308268000008,0.03082680000079563,None,,99.39109000000462,99.39109000000462,99.39109000000462,99.39109000000462,99.39109000000462,99.39109000000462,99.39109000000462,99.39109000000462,002,P001,2025_Jan_17_1909,CategoryLocalizer,2021.2.3,59.948336524500114,
72.8,73.0,5,0.0,Stimuli\Blank.png,0,0,0,122,122,122,,,,,,,,,,,,,72.83109809999587,0.031098099995872985,None,,100.17512040000292,100.17512040000292,100.17512040000292,100.17512040000292,100.17512040000292,100.17512040000292,100.17512040000292,100.17512040000292,002,P001,2025_Jan_17_1909,CategoryLocalizer,2021.2.3,59.948336524500114,
73.0,73.8,4,0.75,Stimuli\ImageFiles-Set2\Scenes\Scenes_104.png,1,1,0,123,123,123,,,,,,,,,,,,,73.0153919000004,0.015391900000395253,None,,100.37529260000156,100.37529260000156,100.37529260000156,100.37529260000156,100.37529260000156,100.37529260000156,100.37529260000156,100.37529260000156,002,P001,2025_Jan_17_1909,CategoryLocalizer,2021.2.3,59.948336524500114,
73.8,74.0,5,0.0,Stimuli\Blank.png,0,0,0,124,124,124,,,,,,,,,,,,,73.81440229999862,0.01440229999862197,5,0.15773719999560853,101.1593198000046,101.1593198000046,101.1593198000046,101.1593198000046,101.1593198000046,101.1593198000046,101.1593198000046,101.1593198000046,002,P001,2025_Jan_17_1909,CategoryLocalizer,2021.2.3,59.948336524500114,
74.0,74.8,4,0.75,Stimuli\ImageFiles-Set2\Scenes\Scenes_090.png,0,0,0,125,125,125,,,,,,,,,,,,,74.01525430000038,0.015254300000378862,None,,101.37618890000158,101.37618890000158,101.37618890000158,101.37618890000158,101.37618890000158,101.37618890000158,101.37618890000158,101.37618890000158,002,P001,2025_Jan_17_1909,CategoryLocalizer,2021.2.3,59.948336524500114,
74.8,75.0,5,0.0,Stimuli\Blank.png,0,0,0,126,126,126,,,,,,,,,,,,,74.81522109999787,0.015221099997873466,None,,102.16019560000132,102.16019560000132,102.16019560000132,102.16019560000132,102.16019560000132,102.16019560000132,102.16019560000132,102.16019560000132,002,P001,2025_Jan_17_1909,CategoryLocalizer,2021.2.3,59.948336524500114,
75.0,75.8,4,0.75,Stimuli\ImageFiles-Set2\Scenes\Scenes_090.png,0,0,0,127,127,127,,,,,,,,,,,,,75.01547149999533,0.015471499995328486,3,0.37380929999926593,102.36037590000342,102.36037590000342,102.36037590000342,102.36037590000342,102.36037590000342,102.36037590000342,102.36037590000342,102.36037590000342,002,P001,2025_Jan_17_1909,CategoryLocalizer,2021.2.3,59.948336524500114,
75.8,76.0,5,0.0,Stimuli\Blank.png,0,0,0,128,128,128,,,,,,,,,,,,,75.80169339999702,0.0016933999970234481,5,0.15622699999948964,103.1610770000043,103.1610770000043,103.1610770000043,103.1610770000043,103.1610770000043,103.1610770000043,103.1610770000043,103.1610770000043,002,P001,2025_Jan_17_1909,CategoryLocalizer,2021.2.3,59.948336524500114,
76.0,88.0,0,0.0,Stimuli\Blank.png,0,0,0,129,129,129,,,,,,,,,,,,,76.01601989999472,0.01601989999471698,5,11.955759099997522,103.36125380000158,103.36125380000158,103.36125380000158,103.36125380000158,103.36125380000158,103.36125380000158,103.36125380000158,103.36125380000158,002,P001,2025_Jan_17_1909,CategoryLocalizer,2021.2.3,59.948336524500114,
88.0,88.8,3,0.75,Stimuli\ImageFiles-Set2\Faces\Face_00084.png,0,0,0,130,130,130,,,,,,,,,,,,,88.00991169999907,0.009911699999065604,None,,115.37187059999997,115.37187059999997,115.37187059999997,115.37187059999997,115.37187059999997,115.37187059999997,115.37187059999997,115.37187059999997,002,P001,2025_Jan_17_1909,CategoryLocalizer,2021.2.3,59.948336524500114,
88.8,89.0,5,0.0,Stimuli\Blank.png,0,0,0,131,131,131,,,,,,,,,,,,,88.82748359999823,0.027483599998234354,None,,116.17259130000457,116.17259130000457,116.17259130000457,116.17259130000457,116.17259130000457,116.17259130000457,116.17259130000457,116.17259130000457,002,P001,2025_Jan_17_1909,CategoryLocalizer,2021.2.3,59.948336524500114,
89.0,89.8,3,0.75,Stimuli\ImageFiles-Set2\Faces\Face_00116.png,0,0,0,132,132,132,,,,,,,,,,,,,89.01171619999513,0.011716199995134957,None,,116.37277970000287,116.37277970000287,116.37277970000287,116.37277970000287,116.37277970000287,116.37277970000287,116.37277970000287,116.37277970000287,002,P001,2025_Jan_17_1909,CategoryLocalizer,2021.2.3,59.948336524500114,
89.8,90.0,5,0.0,Stimuli\Blank.png,0,0,0,133,133,133,,,,,,,,,,,,,89.8305390999958,0.030539099995806396,5,0.1270492000039667,117.19017440000607,117.19017440000607,117.19017440000607,117.19017440000607,117.19017440000607,117.19017440000607,117.19017440000607,117.19017440000607,002,P001,2025_Jan_17_1909,CategoryLocalizer,2021.2.3,59.948336524500114,
90.0,90.8,3,0.75,Stimuli\ImageFiles-Set2\Faces\Face_00116.png,1,1,0,134,134,134,,,,,,,,,,,,,90.03086469999835,0.030864699998346623,3,0.4396524999974645,117.39039440000488,117.39039440000488,117.39039440000488,117.39039440000488,117.39039440000488,117.39039440000488,117.39039440000488,117.39039440000488,002,P001,2025_Jan_17_1909,CategoryLocalizer,2021.2.3,59.948336524500114,
90.8,91.0,5,0.0,Stimuli\Blank.png,0,0,0,135,135,135,,,,,,,,,,,,,90.83103329999722,0.031033299997218933,None,,118.19105400000262,118.19105400000262,118.19105400000262,118.19105400000262,118.19105400000262,118.19105400000262,118.19105400000262,118.19105400000262,002,P001,2025_Jan_17_1909,CategoryLocalizer,2021.2.3,59.948336524500114,
91.0,91.8,3,0.75,Stimuli\ImageFiles-Set2\Faces\Face_00011.png,0,0,0,136,136,136,,,,,,,,,,,,,91.03006330000062,0.030063300000620075,None,,118.39125670000067,118.39125670000067,118.39125670000067,118.39125670000067,118.39125670000067,118.39125670000067,118.39125670000067,118.39125670000067,002,P001,2025_Jan_17_1909,CategoryLocalizer,2021.2.3,59.948336524500114,
91.8,92.0,5,0.0,Stimuli\Blank.png,0,0,0,137,137,137,,,,,,,,,,,,,91.8304031000007,0.030403100000697236,5,0.14181809999718098,119.17524240000057,119.17524240000057,119.17524240000057,119.17524240000057,119.17524240000057,119.17524240000057,119.17524240000057,119.17524240000057,002,P001,2025_Jan_17_1909,CategoryLocalizer,2021.2.3,59.948336524500114,
92.0,92.8,3,0.75,Stimuli\ImageFiles-Set2\Faces\Face_00042.png,0,0,0,138,138,138,,,,,,,,,,,,,92.01464119999582,0.014641199995821808,None,,119.3754179000025,119.3754179000025,119.3754179000025,119.3754179000025,119.3754179000025,119.3754179000025,119.3754179000025,119.3754179000025,002,P001,2025_Jan_17_1909,CategoryLocalizer,2021.2.3,59.948336524500114,
92.8,93.0,5,0.0,Stimuli\Blank.png,0,0,0,139,139,139,,,,,,,,,,,,,92.83162430000084,0.03162430000084271,None,,120.17612610000651,120.17612610000651,120.17612610000651,120.17612610000651,120.17612610000651,120.17612610000651,120.17612610000651,120.17612610000651,002,P001,2025_Jan_17_1909,CategoryLocalizer,2021.2.3,59.948336524500114,
93.0,93.8,3,0.75,Stimuli\ImageFiles-Set2\Faces\Face_00118.png,0,0,0,140,140,140,,,,,,,,,,,,,93.01429009999993,0.014290099999925587,None,,120.37630800000625,120.37630800000625,120.37630800000625,120.37630800000625,120.37630800000625,120.37630800000625,120.37630800000625,120.37630800000625,002,P001,2025_Jan_17_1909,CategoryLocalizer,2021.2.3,59.948336524500114,
93.8,94.0,5,0.0,Stimuli\Blank.png,0,0,0,141,141,141,,,,,,,,,,,,,93.83244349999586,0.032443499995864045,None,,121.1770514000018,121.1770514000018,121.1770514000018,121.1770514000018,121.1770514000018,121.1770514000018,121.1770514000018,121.1770514000018,002,P001,2025_Jan_17_1909,CategoryLocalizer,2021.2.3,59.948336524500114,
94.0,94.8,3,0.75,Stimuli\ImageFiles-Set2\Faces\Face_00038.png,0,0,0,142,142,142,,,,,,,,,,,,,93.99903899999481,-0.0009610000051907264,None,,121.3605033000058,121.3605033000058,121.3605033000058,121.3605033000058,121.3605033000058,121.3605033000058,121.3605033000058,121.3605033000058,002,P001,2025_Jan_17_1909,CategoryLocalizer,2021.2.3,59.948336524500114,
94.8,95.0,5,0.0,Stimuli\Blank.png,0,0,0,143,143,143,,,,,,,,,,,,,94.81600829999661,0.016008299996613573,None,,122.16120900000533,122.16120900000533,122.16120900000533,122.16120900000533,122.16120900000533,122.16120900000533,122.16120900000533,122.16120900000533,002,P001,2025_Jan_17_1909,CategoryLocalizer,2021.2.3,59.948336524500114,
95.0,95.8,3,0.75,Stimuli\ImageFiles-Set2\Faces\Face_00054.png,0,0,0,144,144,144,,,,,,,,,,,,,95.00022499999614,0.00022499999613501132,None,,122.36136140000599,122.36136140000599,122.36136140000599,122.36136140000599,122.36136140000599,122.36136140000599,122.36136140000599,122.36136140000599,002,P001,2025_Jan_17_1909,CategoryLocalizer,2021.2.3,59.948336524500114,
95.8,96.0,5,0.0,Stimuli\Blank.png,0,0,0,145,145,145,,,,,,,,,,,,,95.81714699999429,0.017146999994295697,None,,123.16208760000154,123.16208760000154,123.16208760000154,123.16208760000154,123.16208760000154,123.16208760000154,123.16208760000154,123.16208760000154,002,P001,2025_Jan_17_1909,CategoryLocalizer,2021.2.3,59.948336524500114,
96.0,96.8,3,0.75,Stimuli\ImageFiles-Set2\Faces\Face_00015.png,0,0,0,146,146,146,,,,,,,,,,,,,96.00055869999778,0.0005586999977822416,None,,123.36226900000474,123.36226900000474,123.36226900000474,123.36226900000474,123.36226900000474,123.36226900000474,123.36226900000474,123.36226900000474,002,P001,2025_Jan_17_1909,CategoryLocalizer,2021.2.3,59.948336524500114,
96.8,97.0,5,0.0,Stimuli\Blank.png,0,0,0,147,147,147,,,,,,,,,,,,,96.8182136999967,0.018213699996707078,None,,124.16298260000622,124.16298260000622,124.16298260000622,124.16298260000622,124.16298260000622,124.16298260000622,124.16298260000622,124.16298260000622,002,P001,2025_Jan_17_1909,CategoryLocalizer,2021.2.3,59.948336524500114,
97.0,97.8,3,0.75,Stimuli\ImageFiles-Set2\Faces\Face_00026.png,1,1,0,148,148,148,,,,,,,,,,,,,97.00183099999413,0.0018309999941266142,None,,124.37983970000641,124.37983970000641,124.37983970000641,124.37983970000641,124.37983970000641,124.37983970000641,124.37983970000641,124.37983970000641,002,P001,2025_Jan_17_1909,CategoryLocalizer,2021.2.3,59.948336524500114,
97.8,98.0,5,0.0,Stimuli\Blank.png,0,0,0,149,149,149,,,,,,,,,,,,,97.83652040000015,0.03652040000015688,None,,125.1805483000062,125.1805483000062,125.1805483000062,125.1805483000062,125.1805483000062,125.1805483000062,125.1805483000062,125.1805483000062,002,P001,2025_Jan_17_1909,CategoryLocalizer,2021.2.3,59.948336524500114,
98.0,98.8,3,0.75,Stimuli\ImageFiles-Set2\Faces\Face_00058.png,0,0,0,150,150,150,,,,,,,,,,,,,98.0022203999979,0.0022203999978955835,None,,125.36407190000318,125.36407190000318,125.36407190000318,125.36407190000318,125.36407190000318,125.36407190000318,125.36407190000318,125.36407190000318,002,P001,2025_Jan_17_1909,CategoryLocalizer,2021.2.3,59.948336524500114,
98.8,99.0,5,0.0,Stimuli\Blank.png,0,0,0,151,151,151,,,,,,,,,,,,,98.81936099999439,0.019360999994390227,None,,126.16474400000152,126.16474400000152,126.16474400000152,126.16474400000152,126.16474400000152,126.16474400000152,126.16474400000152,126.16474400000152,002,P001,2025_Jan_17_1909,CategoryLocalizer,2021.2.3,59.948336524500114,
99.0,99.8,3,0.75,Stimuli\ImageFiles-Set2\Faces\Face_00058.png,0,0,0,152,152,152,,,,,,,,,,,,,99.00305359999766,0.00305359999765642,3,0.4028854999996838,126.34824960000697,126.34824960000697,126.34824960000697,126.34824960000697,126.34824960000697,126.34824960000697,126.34824960000697,126.34824960000697,002,P001,2025_Jan_17_1909,CategoryLocalizer,2021.2.3,59.948336524500114,
99.8,100.0,5,0.0,Stimuli\Blank.png,0,0,0,153,153,153,,,,,,,,,,,,,99.80558529999689,0.0055852999968948325,5,0.15140889999747742,127.16565640000044,127.16565640000044,127.16565640000044,127.16565640000044,127.16565640000044,127.16565640000044,127.16565640000044,127.16565640000044,002,P001,2025_Jan_17_1909,CategoryLocalizer,2021.2.3,59.948336524500114,
100.0,100.8,3,0.75,Stimuli\ImageFiles-Set2\Faces\Face_00062.png,0,0,0,154,154,154,,,,,,,,,,,,,100.02037310000014,0.020373100000142585,None,,127.38250710000284,127.38250710000284,127.38250710000284,127.38250710000284,127.38250710000284,127.38250710000284,127.38250710000284,127.38250710000284,002,P001,2025_Jan_17_1909,CategoryLocalizer,2021.2.3,59.948336524500114,
100.8,101.0,5,0.0,Stimuli\Blank.png,0,0,0,155,155,155,,,,,,,,,,,,,100.82184889999917,0.021848899999170612,None,,128.16652450000402,128.16652450000402,128.16652450000402,128.16652450000402,128.16652450000402,128.16652450000402,128.16652450000402,128.16652450000402,002,P001,2025_Jan_17_1909,CategoryLocalizer,2021.2.3,59.948336524500114,
101.0,101.8,3,0.75,Stimuli\ImageFiles-Set2\Faces\Face_00002.png,0,0,0,156,156,156,,,,,,,,,,,,,101.0059975999975,0.005997599997499492,None,,128.3833719000031,128.3833719000031,128.3833719000031,128.3833719000031,128.3833719000031,128.3833719000031,128.3833719000031,128.3833719000031,002,P001,2025_Jan_17_1909,CategoryLocalizer,2021.2.3,59.948336524500114,
101.8,102.0,5,0.0,Stimuli\Blank.png,0,0,0,157,157,157,,,,,,,,,,,,,101.84069029999955,0.04069029999955376,5,0.11630739999964135,129.20081290000235,129.20081290000235,129.20081290000235,129.20081290000235,129.20081290000235,129.20081290000235,129.20081290000235,129.20081290000235,002,P001,2025_Jan_17_1909,CategoryLocalizer,2021.2.3,59.948336524500114,
102.0,102.8,3,0.75,Stimuli\ImageFiles-Set2\Faces\Face_00044.png,0,0,0,158,158,158,,,,,,,,,,,,,102.0227184999967,0.022718499996699393,None,,129.40093900000647,129.40093900000647,129.40093900000647,129.40093900000647,129.40093900000647,129.40093900000647,129.40093900000647,129.40093900000647,002,P001,2025_Jan_17_1909,CategoryLocalizer,2021.2.3,59.948336524500114,
102.8,103.0,5,0.0,Stimuli\Blank.png,0,0,0,159,159,159,,,,,,,,,,,,,102.84076490000007,0.04076490000007027,None,,130.18496810000215,130.18496810000215,130.18496810000215,130.18496810000215,130.18496810000215,130.18496810000215,130.18496810000215,130.18496810000215,002,P001,2025_Jan_17_1909,CategoryLocalizer,2021.2.3,59.948336524500114,
103.0,103.8,3,0.75,Stimuli\ImageFiles-Set2\Faces\Face_00048.png,0,0,0,160,160,160,,,,,,,,,,,,,103.00638039999467,0.006380399994668551,None,,130.3851599000045,130.3851599000045,130.3851599000045,130.3851599000045,130.3851599000045,130.3851599000045,130.3851599000045,130.3851599000045,002,P001,2025_Jan_17_1909,CategoryLocalizer,2021.2.3,59.948336524500114,
103.8,104.0,5,0.0,Stimuli\Blank.png,0,0,0,161,161,161,,,,,,,,,,,,,103.84051319999708,0.04051319999707914,5,0.13135920000058832,131.18590770000446,131.18590770000446,131.18590770000446,131.18590770000446,131.18590770000446,131.18590770000446,131.18590770000446,131.18590770000446,002,P001,2025_Jan_17_1909,CategoryLocalizer,2021.2.3,59.948336524500114,
104.0,104.8,1,0.75,Stimuli\ImageFiles-Set2\Objects\Object_Ambulance_00001.png,0,0,0,162,162,162,,,,,,,,,,,,,104.00838259999728,0.008382599997275975,None,,131.35267560000648,131.35267560000648,131.35267560000648,131.35267560000648,131.35267560000648,131.35267560000648,131.35267560000648,131.35267560000648,002,P001,2025_Jan_17_1909,CategoryLocalizer,2021.2.3,59.948336524500114,
104.8,105.0,5,0.0,Stimuli\Blank.png,0,0,0,163,163,163,,,,,,,,,,,,,104.81054729999596,0.010547299995963044,None,,132.17007820000435,132.17007820000435,132.17007820000435,132.17007820000435,132.17007820000435,132.17007820000435,132.17007820000435,132.17007820000435,002,P001,2025_Jan_17_1909,CategoryLocalizer,2021.2.3,59.948336524500114,
105.0,105.8,1,0.75,Stimuli\ImageFiles-Set2\Objects\Object_Dumpster_00001.png,0,0,0,164,164,164,,,,,,,,,,,,,105.02624409999407,0.026244099994073622,None,,132.38691530000506,132.38691530000506,132.38691530000506,132.38691530000506,132.38691530000506,132.38691530000506,132.38691530000506,132.38691530000506,002,P001,2025_Jan_17_1909,CategoryLocalizer,2021.2.3,59.948336524500114,
105.8,106.0,5,0.0,Stimuli\Blank.png,0,0,0,165,165,165,,,,,,,,,,,,,105.82553539999935,0.025535399999355946,5,0.14610320000065258,133.170941400007,133.170941400007,133.170941400007,133.170941400007,133.170941400007,133.170941400007,133.170941400007,133.170941400007,002,P001,2025_Jan_17_1909,CategoryLocalizer,2021.2.3,59.948336524500114,
106.0,106.8,1,0.75,Stimuli\ImageFiles-Set2\Objects\Object_Keyboard_00001.png,0,0,0,166,166,166,,,,,,,,,,,,,106.01036469999963,0.010364699999627192,None,,133.37109580000106,133.37109580000106,133.37109580000106,133.37109580000106,133.37109580000106,133.37109580000106,133.37109580000106,133.37109580000106,002,P001,2025_Jan_17_1909,CategoryLocalizer,2021.2.3,59.948336524500114,
106.8,107.0,5,0.0,Stimuli\Blank.png,0,0,0,167,167,167,,,,,,,,,,,,,106.82683269999688,0.026832699996887754,None,,134.17184550000093,134.17184550000093,134.17184550000093,134.17184550000093,134.17184550000093,134.17184550000093,134.17184550000093,134.17184550000093,002,P001,2025_Jan_17_1909,CategoryLocalizer,2021.2.3,59.948336524500114,
107.0,107.8,1,0.75,Stimuli\ImageFiles-Set2\Objects\Object_Keyboard_00001.png,1,1,0,168,168,168,,,,,,,,,,,,,107.01057779999974,0.01057779999973718,3,0.3609465999979875,134.3553261000052,134.3553261000052,134.3553261000052,134.3553261000052,134.3553261000052,134.3553261000052,134.3553261000052,134.3553261000052,002,P001,2025_Jan_17_1909,CategoryLocalizer,2021.2.3,59.948336524500114,
107.8,108.0,5,0.0,Stimuli\Blank.png,0,0,0,169,169,169,,,,,,,,,,,,,107.81112039999425,0.011120399994254626,5,0.16100709999591345,135.1560360000003,135.1560360000003,135.1560360000003,135.1560360000003,135.1560360000003,135.1560360000003,135.1560360000003,135.1560360000003,002,P001,2025_Jan_17_1909,CategoryLocalizer,2021.2.3,59.948336524500114,
108.0,108.8,1,0.75,Stimuli\ImageFiles-Set2\Objects\Object_Hat_00001.png,0,0,0,170,170,170,,,,,,,,,,,,,108.01131419999729,0.011314199997286778,None,,135.35621630000242,135.35621630000242,135.35621630000242,135.35621630000242,135.35621630000242,135.35621630000242,135.35621630000242,135.35621630000242,002,P001,2025_Jan_17_1909,CategoryLocalizer,2021.2.3,59.948336524500114,
108.8,109.0,5,0.0,Stimuli\Blank.png,0,0,0,171,171,171,,,,,,,,,,,,,108.81297839999752,0.012978399997521706,None,,136.15694240000448,136.15694240000448,136.15694240000448,136.15694240000448,136.15694240000448,136.15694240000448,136.15694240000448,136.15694240000448,002,P001,2025_Jan_17_1909,CategoryLocalizer,2021.2.3,59.948336524500114,
109.0,109.8,1,0.75,Stimuli\ImageFiles-Set2\Objects\Object_Boot_00001.png,0,0,0,172,172,172,,,,,,,,,,,,,109.01215019999654,0.012150199996540323,None,,136.37378790000366,136.37378790000366,136.37378790000366,136.37378790000366,136.37378790000366,136.37378790000366,136.37378790000366,136.37378790000366,002,P001,2025_Jan_17_1909,CategoryLocalizer,2021.2.3,59.948336524500114,
109.8,110.0,5,0.0,Stimuli\Blank.png,0,0,0,173,173,173,,,,,,,,,,,,,109.83142889999726,0.03142889999726606,5,0.12589930000103777,137.19117250000272,137.19117250000272,137.19117250000272,137.19117250000272,137.19117250000272,137.19117250000272,137.19117250000272,137.19117250000272,002,P001,2025_Jan_17_1909,CategoryLocalizer,2021.2.3,59.948336524500114,
110.0,110.8,1,0.75,Stimuli\ImageFiles-Set2\Objects\Object_Dishwasher_00001.png,0,0,0,174,174,174,,,,,,,,,,,,,110.02996049999638,0.02996049999637762,None,,137.39133520000178,137.39133520000178,137.39133520000178,137.39133520000178,137.39133520000178,137.39133520000178,137.39133520000178,137.39133520000178,002,P001,2025_Jan_17_1909,CategoryLocalizer,2021.2.3,59.948336524500114,
110.8,111.0,5,0.0,Stimuli\Blank.png,0,0,0,175,175,175,,,,,,,,,,,,,110.83055289999902,0.030552899999022998,None,,138.17534950000118,138.17534950000118,138.17534950000118,138.17534950000118,138.17534950000118,138.17534950000118,138.17534950000118,138.17534950000118,002,P001,2025_Jan_17_1909,CategoryLocalizer,2021.2.3,59.948336524500114,
111.0,111.8,1,0.75,Stimuli\ImageFiles-Set2\Objects\Object_Pepper_00001.png,0,0,0,176,176,176,,,,,,,,,,,,,111.0154848999955,0.01548489999549929,None,,138.37554470000032,138.37554470000032,138.37554470000032,138.37554470000032,138.37554470000032,138.37554470000032,138.37554470000032,138.37554470000032,002,P001,2025_Jan_17_1909,CategoryLocalizer,2021.2.3,59.948336524500114,
111.8,112.0,5,0.0,Stimuli\Blank.png,0,0,0,177,177,177,,,,,,,,,,,,,111.81424129999505,0.014241299995049417,5,0.15746699999726843,139.1595712000053,139.1595712000053,139.1595712000053,139.1595712000053,139.1595712000053,139.1595712000053,139.1595712000053,139.1595712000053,002,P001,2025_Jan_17_1909,CategoryLocalizer,2021.2.3,59.948336524500114,
112.0,112.8,1,0.75,Stimuli\ImageFiles-Set2\Objects\Object_Belt_00001.png,0,0,0,178,178,178,,,,,,,,,,,,,112.0149775999962,0.014977599996200297,None,,139.3597463000042,139.3597463000042,139.3597463000042,139.3597463000042,139.3597463000042,139.3597463000042,139.3597463000042,139.3597463000042,002,P001,2025_Jan_17_1909,CategoryLocalizer,2021.2.3,59.948336524500114,
112.8,113.0,5,0.0,Stimuli\Blank.png,0,0,0,179,179,179,,,,,,,,,,,,,112.81524069999432,0.015240699994322426,None,,140.16044890000194,140.16044890000194,140.16044890000194,140.16044890000194,140.16044890000194,140.16044890000194,140.16044890000194,140.16044890000194,002,P001,2025_Jan_17_1909,CategoryLocalizer,2021.2.3,59.948336524500114,
113.0,113.8,1,0.75,Stimuli\ImageFiles-Set2\Objects\Object_WashingMachine_00001.png,0,0,0,180,180,180,,,,,,,,,,,,,113.0160276999959,0.016027699995902367,None,,140.39399360000243,140.39399360000243,140.39399360000243,140.39399360000243,140.39399360000243,140.39399360000243,140.39399360000243,140.39399360000243,002,P001,2025_Jan_17_1909,CategoryLocalizer,2021.2.3,59.948336524500114,
113.8,114.0,5,0.0,Stimuli\Blank.png,0,0,0,181,181,181,,,,,,,,,,,,,113.83306029999949,0.033060299999490894,None,,141.17802250000386,141.17802250000386,141.17802250000386,141.17802250000386,141.17802250000386,141.17802250000386,141.17802250000386,141.17802250000386,002,P001,2025_Jan_17_1909,CategoryLocalizer,2021.2.3,59.948336524500114,
114.0,114.8,1,0.75,Stimuli\ImageFiles-Set2\Objects\Object_Mailbox_00001.png,0,0,0,182,182,182,,,,,,,,,,,,,113.99932999999874,-0.0006700000012642704,None,,141.34483050000563,141.34483050000563,141.34483050000563,141.34483050000563,141.34483050000563,141.34483050000563,141.34483050000563,141.34483050000563,002,P001,2025_Jan_17_1909,CategoryLocalizer,2021.2.3,59.948336524500114,
114.8,115.0,5,0.0,Stimuli\Blank.png,0,0,0,183,183,183,,,,,,,,,,,,,114.80157119999785,0.001571199997854933,None,,142.14568520000466,142.14568520000466,142.14568520000466,142.14568520000466,142.14568520000466,142.14568520000466,142.14568520000466,142.14568520000466,002,P001,2025_Jan_17_1909,CategoryLocalizer,2021.2.3,59.948336524500114,
115.0,115.8,1,0.75,Stimuli\ImageFiles-Set2\Objects\Object_Coffee_00001.png,0,0,0,184,184,184,,,,,,,,,,,,,115.00128669999685,0.001286699996853713,None,,142.36239520000527,142.36239520000527,142.36239520000527,142.36239520000527,142.36239520000527,142.36239520000527,142.36239520000527,142.36239520000527,002,P001,2025_Jan_17_1909,CategoryLocalizer,2021.2.3,59.948336524500114,
115.8,116.0,5,0.0,Stimuli\Blank.png,0,0,0,185,185,185,,,,,,,,,,,,,115.81839249999757,0.01839249999757442,None,,143.1631073000026,143.1631073000026,143.1631073000026,143.1631073000026,143.1631073000026,143.1631073000026,143.1631073000026,143.1631073000026,002,P001,2025_Jan_17_1909,CategoryLocalizer,2021.2.3,59.948336524500114,
116.0,116.8,1,0.75,Stimuli\ImageFiles-Set2\Objects\Object_Glass_00001.png,0,0,0,186,186,186,,,,,,,,,,,,,116.0013267999966,0.0013267999966046773,None,,143.34659870000178,143.34659870000178,143.34659870000178,143.34659870000178,143.34659870000178,143.34659870000178,143.34659870000178,143.34659870000178,002,P001,2025_Jan_17_1909,CategoryLocalizer,2021.2.3,59.948336524500114,
116.8,117.0,5,0.0,Stimuli\Blank.png,0,0,0,187,187,187,,,,,,,,,,,,,116.80222409999988,0.0022240999998786037,None,,144.147312400004,144.147312400004,144.147312400004,144.147312400004,144.147312400004,144.147312400004,144.147312400004,144.147312400004,002,P001,2025_Jan_17_1909,CategoryLocalizer,2021.2.3,59.948336524500114,
117.0,117.8,1,0.75,Stimuli\ImageFiles-Set2\Objects\Object_Truck_00001.png,0,0,0,188,188,188,,,,,,,,,,,,,117.00268149999465,0.002681499994650949,None,,144.3641745000059,144.3641745000059,144.3641745000059,144.3641745000059,144.3641745000059,144.3641745000059,144.3641745000059,144.3641745000059,002,P001,2025_Jan_17_1909,CategoryLocalizer,2021.2.3,59.948336524500114,
117.8,118.0,5,0.0,Stimuli\Blank.png,0,0,0,189,189,189,,,,,,,,,,,,,117.82024329999695,0.02024329999694885,None,,145.16487150000466,145.16487150000466,145.16487150000466,145.16487150000466,145.16487150000466,145.16487150000466,145.16487150000466,145.16487150000466,002,P001,2025_Jan_17_1909,CategoryLocalizer,2021.2.3,59.948336524500114,
118.0,118.8,1,0.75,Stimuli\ImageFiles-Set2\Objects\Object_Car_00001.png,0,0,0,190,190,190,,,,,,,,,,,,,118.00516959999368,0.0051695999936782755,None,,145.36505390000093,145.36505390000093,145.36505390000093,145.36505390000093,145.36505390000093,145.36505390000093,145.36505390000093,145.36505390000093,002,P001,2025_Jan_17_1909,CategoryLocalizer,2021.2.3,59.948336524500114,
118.8,119.0,5,0.0,Stimuli\Blank.png,0,0,0,191,191,191,,,,,,,,,,,,,118.82163059999584,0.021630599995845046,None,,146.16576120000536,146.16576120000536,146.16576120000536,146.16576120000536,146.16576120000536,146.16576120000536,146.16576120000536,146.16576120000536,002,P001,2025_Jan_17_1909,CategoryLocalizer,2021.2.3,59.948336524500114,
119.0,119.8,1,0.75,Stimuli\ImageFiles-Set2\Objects\Object_Shoe_00001.png,0,0,0,192,192,192,,,,,,,,,,,,,119.00432029999502,0.004320299995015375,None,,146.3659242000067,146.3659242000067,146.3659242000067,146.3659242000067,146.3659242000067,146.3659242000067,146.3659242000067,146.3659242000067,002,P001,2025_Jan_17_1909,CategoryLocalizer,2021.2.3,59.948336524500114,
119.8,120.0,5,0.0,Stimuli\Blank.png,0,0,0,193,193,193,,,,,,,,,,,,,119.8220355999947,0.022035599994708832,5,0.15061530000093626,147.16662410000572,147.16662410000572,147.16662410000572,147.16662410000572,147.16662410000572,147.16662410000572,147.16662410000572,147.16662410000572,002,P001,2025_Jan_17_1909,CategoryLocalizer,2021.2.3,59.948336524500114,
120.0,120.8,4,0.75,Stimuli\ImageFiles-Set2\Scenes\Scenes_070.png,0,0,0,194,194,194,,,,,,,,,,,,,120.00496099999873,0.004960999998729676,None,,147.3667970000024,147.3667970000024,147.3667970000024,147.3667970000024,147.3667970000024,147.3667970000024,147.3667970000024,147.3667970000024,002,P001,2025_Jan_17_1909,CategoryLocalizer,2021.2.3,59.948336524500114,
120.8,121.0,5,0.0,Stimuli\Blank.png,0,0,0,195,195,195,,,,,,,,,,,,,120.8221293999959,0.022129399995904464,None,,148.16753090000566,148.16753090000566,148.16753090000566,148.16753090000566,148.16753090000566,148.16753090000566,148.16753090000566,148.16753090000566,002,P001,2025_Jan_17_1909,CategoryLocalizer,2021.2.3,59.948336524500114,
121.0,121.8,4,0.75,Stimuli\ImageFiles-Set2\Scenes\Scenes_084.png,0,0,0,196,196,196,,,,,,,,,,,,,121.00609339999937,0.0060933999993721955,None,,148.36772730000666,148.36772730000666,148.36772730000666,148.36772730000666,148.36772730000666,148.36772730000666,148.36772730000666,148.36772730000666,002,P001,2025_Jan_17_1909,CategoryLocalizer,2021.2.3,59.948336524500114,
121.8,122.0,5,0.0,Stimuli\Blank.png,0,0,0,197,197,197,,,,,,,,,,,,,121.82626249999885,0.02626249999885033,5,0.13201539999863598,149.18511010000657,149.18511010000657,149.18511010000657,149.18511010000657,149.18511010000657,149.18511010000657,149.18511010000657,149.18511010000657,002,P001,2025_Jan_17_1909,CategoryLocalizer,2021.2.3,59.948336524500114,
122.0,122.8,4,0.75,Stimuli\ImageFiles-Set2\Scenes\Scenes_084.png,1,1,0,198,198,198,,,,,,,,,,,,,122.02562499999476,0.02562499999476131,3,0.4478218000003835,149.3852726000041,149.3852726000041,149.3852726000041,149.3852726000041,149.3852726000041,149.3852726000041,149.3852726000041,149.3852726000041,002,P001,2025_Jan_17_1909,CategoryLocalizer,2021.2.3,59.948336524500114,
122.8,123.0,5,0.0,Stimuli\Blank.png,0,0,0,199,199,199,,,,,,,,,,,,,122.82594099999551,0.02594099999551247,None,,150.18599910000194,150.18599910000194,150.18599910000194,150.18599910000194,150.18599910000194,150.18599910000194,150.18599910000194,150.18599910000194,002,P001,2025_Jan_17_1909,CategoryLocalizer,2021.2.3,59.948336524500114,
123.0,123.8,4,0.75,Stimuli\ImageFiles-Set2\Scenes\Scenes_076.png,0,0,0,200,200,200,,,,,,,,,,,,,123.0258762999947,0.025876299994706642,None,,150.3862014000042,150.3862014000042,150.3862014000042,150.3862014000042,150.3862014000042,150.3862014000042,150.3862014000042,150.3862014000042,002,P001,2025_Jan_17_1909,CategoryLocalizer,2021.2.3,59.948336524500114,
123.8,124.0,5,0.0,Stimuli\Blank.png,0,0,0,201,201,201,,,,,,,,,,,,,123.82523539999966,0.025235399999658625,5,0.14689150000049267,151.17017710000073,151.17017710000073,151.17017710000073,151.17017710000073,151.17017710000073,151.17017710000073,151.17017710000073,151.17017710000073,002,P001,2025_Jan_17_1909,CategoryLocalizer,2021.2.3,59.948336524500114,
124.0,124.8,4,0.75,Stimuli\ImageFiles-Set2\Scenes\Scenes_117.png,0,0,0,202,202,202,,,,,,,,,,,,,124.00953069999377,0.00953069999377476,None,,151.37033240000164,151.37033240000164,151.37033240000164,151.37033240000164,151.37033240000164,151.37033240000164,151.37033240000164,151.37033240000164,002,P001,2025_Jan_17_1909,CategoryLocalizer,2021.2.3,59.948336524500114,
124.8,125.0,5,0.0,Stimuli\Blank.png,0,0,0,203,203,203,,,,,,,,,,,,,124.8264022000003,0.026402200000305243,None,,152.17107310000574,152.17107310000574,152.17107310000574,152.17107310000574,152.17107310000574,152.17107310000574,152.17107310000574,152.17107310000574,002,P001,2025_Jan_17_1909,CategoryLocalizer,2021.2.3,59.948336524500114,
125.0,125.8,4,0.75,Stimuli\ImageFiles-Set2\Scenes\Scenes_097.png,0,0,0,204,204,204,,,,,,,,,,,,,125.01137819999713,0.011378199997125193,None,,152.37124880000192,152.37124880000192,152.37124880000192,152.37124880000192,152.37124880000192,152.37124880000192,152.37124880000192,152.37124880000192,002,P001,2025_Jan_17_1909,CategoryLocalizer,2021.2.3,59.948336524500114,
125.8,126.0,5,0.0,Stimuli\Blank.png,0,0,0,205,205,205,,,,,,,,,,,,,125.82657130000007,0.026571300000071574,5,0.14521740000054706,153.1719505000001,153.1719505000001,153.1719505000001,153.1719505000001,153.1719505000001,153.1719505000001,153.1719505000001,153.1719505000001,002,P001,2025_Jan_17_1909,CategoryLocalizer,2021.2.3,59.948336524500114,
126.0,126.8,4,0.75,Stimuli\ImageFiles-Set2\Scenes\Scenes_082.png,0,0,0,206,206,206,,,,,,,,,,,,,126.01083609999478,0.010836099994776305,None,,153.3721266000066,153.3721266000066,153.3721266000066,153.3721266000066,153.3721266000066,153.3721266000066,153.3721266000066,153.3721266000066,002,P001,2025_Jan_17_1909,CategoryLocalizer,2021.2.3,59.948336524500114,
126.8,127.0,5,0.0,Stimuli\Blank.png,0,0,0,207,207,207,,,,,,,,,,,,,126.82777169999463,0.027771699994630694,None,,154.17281400000502,154.17281400000502,154.17281400000502,154.17281400000502,154.17281400000502,154.17281400000502,154.17281400000502,154.17281400000502,002,P001,2025_Jan_17_1909,CategoryLocalizer,2021.2.3,59.948336524500114,
127.0,127.8,4,0.75,Stimuli\ImageFiles-Set2\Scenes\Scenes_103.png,0,0,0,208,208,208,,,,,,,,,,,,,127.01125359999423,0.01125359999423381,None,,154.3563315000065,154.3563315000065,154.3563315000065,154.3563315000065,154.3563315000065,154.3563315000065,154.3563315000065,154.3563315000065,002,P001,2025_Jan_17_1909,CategoryLocalizer,2021.2.3,59.948336524500114,
127.8,128.0,5,0.0,Stimuli\Blank.png,0,0,0,209,209,209,,,,,,,,,,,,,127.81233280000015,0.012332800000152133,5,0.16003099999943515,155.15703860000212,155.15703860000212,155.15703860000212,155.15703860000212,155.15703860000212,155.15703860000212,155.15703860000212,155.15703860000212,002,P001,2025_Jan_17_1909,CategoryLocalizer,2021.2.3,59.948336524500114,
128.0,128.8,4,0.75,Stimuli\ImageFiles-Set2\Scenes\Scenes_099.png,0,0,0,210,210,210,,,,,,,,,,,,,128.01185909999913,0.011859099999128375,None,,155.37389470000198,155.37389470000198,155.37389470000198,155.37389470000198,155.37389470000198,155.37389470000198,155.37389470000198,155.37389470000198,002,P001,2025_Jan_17_1909,CategoryLocalizer,2021.2.3,59.948336524500114,
128.8,129.0,5,0.0,Stimuli\Blank.png,0,0,0,211,211,211,,,,,,,,,,,,,128.83096599999408,0.03096599999406635,None,,156.19129280000197,156.19129280000197,156.19129280000197,156.19129280000197,156.19129280000197,156.19129280000197,156.19129280000197,156.19129280000197,002,P001,2025_Jan_17_1909,CategoryLocalizer,2021.2.3,59.948336524500114,
129.0,129.8,4,0.75,Stimuli\ImageFiles-Set2\Scenes\Scenes_112.png,0,0,0,212,212,212,,,,,,,,,,,,,129.03046849999373,0.030468499993730802,None,,156.39146020000044,156.39146020000044,156.39146020000044,156.39146020000044,156.39146020000044,156.39146020000044,156.39146020000044,156.39146020000044,002,P001,2025_Jan_17_1909,CategoryLocalizer,2021.2.3,59.948336524500114,
129.8,130.0,5,0.0,Stimuli\Blank.png,0,0,0,213,213,213,,,,,,,,,,,,,129.83047399999487,0.030473999994853784,5,0.14156809999985853,157.17550360000314,157.17550360000314,157.17550360000314,157.17550360000314,157.17550360000314,157.17550360000314,157.17550360000314,157.17550360000314,002,P001,2025_Jan_17_1909,CategoryLocalizer,2021.2.3,59.948336524500114,
130.0,130.8,4,0.75,Stimuli\ImageFiles-Set2\Scenes\Scenes_077.png,0,0,0,214,214,214,,,,,,,,,,,,,130.01467949999642,0.014679499996418599,None,,157.37567590000253,157.37567590000253,157.37567590000253,157.37567590000253,157.37567590000253,157.37567590000253,157.37567590000253,157.37567590000253,002,P001,2025_Jan_17_1909,CategoryLocalizer,2021.2.3,59.948336524500114,
130.8,131.0,5,0.0,Stimuli\Blank.png,0,0,0,215,215,215,,,,,,,,,,,,,130.8316171999977,0.0316171999976973,None,,158.1763823000001,158.1763823000001,158.1763823000001,158.1763823000001,158.1763823000001,158.1763823000001,158.1763823000001,158.1763823000001,002,P001,2025_Jan_17_1909,CategoryLocalizer,2021.2.3,59.948336524500114,
131.0,131.8,4,0.75,Stimuli\ImageFiles-Set2\Scenes\Scenes_087.png,0,0,0,216,216,216,,,,,,,,,,,,,131.01558829999703,0.015588299997034483,None,,158.37652430000162,158.37652430000162,158.37652430000162,158.37652430000162,158.37652430000162,158.37652430000162,158.37652430000162,158.37652430000162,002,P001,2025_Jan_17_1909,CategoryLocalizer,2021.2.3,59.948336524500114,
131.8,132.0,5,0.0,Stimuli\Blank.png,0,0,0,217,217,217,,,,,,,,,,,,,131.81533269999636,0.015332699996349675,5,0.15673290000268025,159.160578300005,159.160578300005,159.160578300005,159.160578300005,159.160578300005,159.160578300005,159.160578300005,159.160578300005,002,P001,2025_Jan_17_1909,CategoryLocalizer,2021.2.3,59.948336524500114,
132.0,132.8,4,0.75,Stimuli\ImageFiles-Set2\Scenes\Scenes_068.png,0,0,0,218,218,218,,,,,,,,,,,,,132.0157631999973,0.01576319999730913,None,,159.37744620000012,159.37744620000012,159.37744620000012,159.37744620000012,159.37744620000012,159.37744620000012,159.37744620000012,159.37744620000012,002,P001,2025_Jan_17_1909,CategoryLocalizer,2021.2.3,59.948336524500114,
132.8,133.0,5,0.0,Stimuli\Blank.png,0,0,0,219,219,219,,,,,,,,,,,,,132.8165613999954,0.016561399995396187,None,,160.16159970000444,160.16159970000444,160.16159970000444,160.16159970000444,160.16159970000444,160.16159970000444,160.16159970000444,160.16159970000444,002,P001,2025_Jan_17_1909,CategoryLocalizer,2021.2.3,59.948336524500114,
133.0,133.8,4,0.75,Stimuli\ImageFiles-Set2\Scenes\Scenes_118.png,0,0,0,220,220,220,,,,,,,,,,,,,133.0005025999999,0.0005025999998906627,None,,160.36169950000476,160.36169950000476,160.36169950000476,160.36169950000476,160.36169950000476,160.36169950000476,160.36169950000476,160.36169950000476,002,P001,2025_Jan_17_1909,CategoryLocalizer,2021.2.3,59.948336524500114,
133.8,134.0,5,0.0,Stimuli\Blank.png,0,0,0,221,221,221,,,,,,,,,,,,,133.81767109999782,0.01767109999781269,None,,161.16234510000504,161.16234510000504,161.16234510000504,161.16234510000504,161.16234510000504,161.16234510000504,161.16234510000504,161.16234510000504,002,P001,2025_Jan_17_1909,CategoryLocalizer,2021.2.3,59.948336524500114,
134.0,134.8,4,0.75,Stimuli\ImageFiles-Set2\Scenes\Scenes_080.png,0,0,0,222,222,222,,,,,,,,,,,,,134.00086299999384,0.0008629999938420951,None,,161.36252550000063,161.36252550000063,161.36252550000063,161.36252550000063,161.36252550000063,161.36252550000063,161.36252550000063,161.36252550000063,002,P001,2025_Jan_17_1909,CategoryLocalizer,2021.2.3,59.948336524500114,
134.8,135.0,5,0.0,Stimuli\Blank.png,0,0,0,223,223,223,,,,,,,,,,,,,134.81802590000007,0.018025900000054662,None,,162.1632305000021,162.1632305000021,162.1632305000021,162.1632305000021,162.1632305000021,162.1632305000021,162.1632305000021,162.1632305000021,002,P001,2025_Jan_17_1909,CategoryLocalizer,2021.2.3,59.948336524500114,
135.0,135.8,4,0.75,Stimuli\ImageFiles-Set2\Scenes\Scenes_075.png,0,0,0,224,224,224,,,,,,,,,,,,,135.00117479999608,0.0011747999960789457,None,,162.36342290000175,162.36342290000175,162.36342290000175,162.36342290000175,162.36342290000175,162.36342290000175,162.36342290000175,162.36342290000175,002,P001,2025_Jan_17_1909,CategoryLocalizer,2021.2.3,59.948336524500114,
135.8,136.0,5,0.0,Stimuli\Blank.png,0,0,0,225,225,225,,,,,,,,,,,,,135.8199328999981,0.01993289999808212,None,,163.16412400000263,163.16412400000263,163.16412400000263,163.16412400000263,163.16412400000263,163.16412400000263,163.16412400000263,163.16412400000263,002,P001,2025_Jan_17_1909,CategoryLocalizer,2021.2.3,59.948336524500114,
136.0,136.8,2,0.75,Stimuli\ImageFiles-Set2\Bodies\Bodies_SittingFloor_00004.png,0,0,0,226,226,226,,,,,,,,,,,,,136.00287159999425,0.0028715999942505732,None,,163.364350200005,163.364350200005,163.364350200005,163.364350200005,163.364350200005,163.364350200005,163.364350200005,163.364350200005,002,P001,2025_Jan_17_1909,CategoryLocalizer,2021.2.3,59.948336524500114,
136.8,137.0,5,0.0,Stimuli\Blank.png,0,0,0,227,227,227,,,,,,,,,,,,,136.82022949999373,0.020229499993718036,None,,164.1650035000057,164.1650035000057,164.1650035000057,164.1650035000057,164.1650035000057,164.1650035000057,164.1650035000057,164.1650035000057,002,P001,2025_Jan_17_1909,CategoryLocalizer,2021.2.3,59.948336524500114,
137.0,137.8,2,0.75,Stimuli\ImageFiles-Set2\Bodies\Bodies_SittingStretch_00003.png,0,0,0,228,228,228,,,,,,,,,,,,,137.0034386999978,0.003438699997786898,None,,164.36517170000297,164.36517170000297,164.36517170000297,164.36517170000297,164.36517170000297,164.36517170000297,164.36517170000297,164.36517170000297,002,P001,2025_Jan_17_1909,CategoryLocalizer,2021.2.3,59.948336524500114,
137.8,138.0,5,0.0,Stimuli\Blank.png,0,0,0,229,229,229,,,,,,,,,,,,,137.821188899994,0.02118889999400153,5,0.1511802000022726,165.1658990000069,165.1658990000069,165.1658990000069,165.1658990000069,165.1658990000069,165.1658990000069,165.1658990000069,165.1658990000069,002,P001,2025_Jan_17_1909,CategoryLocalizer,2021.2.3,59.948336524500114,
138.0,138.8,2,0.75,Stimuli\ImageFiles-Set2\Bodies\Bodies_SittingChair_00006.png,0,0,0,230,230,230,,,,,,,,,,,,,138.0044987000001,0.004498700000112876,None,,165.38281770000322,165.38281770000322,165.38281770000322,165.38281770000322,165.38281770000322,165.38281770000322,165.38281770000322,165.38281770000322,002,P001,2025_Jan_17_1909,CategoryLocalizer,2021.2.3,59.948336524500114,
138.8,139.0,5,0.0,Stimuli\Blank.png,0,0,0,231,231,231,,,,,,,,,,,,,138.83826249999402,0.038262499994004884,None,,166.18345090000366,166.18345090000366,166.18345090000366,166.18345090000366,166.18345090000366,166.18345090000366,166.18345090000366,166.18345090000366,002,P001,2025_Jan_17_1909,CategoryLocalizer,2021.2.3,59.948336524500114,
139.0,139.8,2,0.75,Stimuli\ImageFiles-Set2\Bodies\Bodies_DownwardDog_00002.png,0,0,0,232,232,232,,,,,,,,,,,,,139.0052480999948,0.005248099994787481,None,,166.36701000000176,166.36701000000176,166.36701000000176,166.36701000000176,166.36701000000176,166.36701000000176,166.36701000000176,166.36701000000176,002,P001,2025_Jan_17_1909,CategoryLocalizer,2021.2.3,59.948336524500114,
139.8,140.0,5,0.0,Stimuli\Blank.png,0,0,0,233,233,233,,,,,,,,,,,,,139.8222827999998,0.022282799999800318,5,0.1493895000021439,167.167652300006,167.167652300006,167.167652300006,167.167652300006,167.167652300006,167.167652300006,167.167652300006,167.167652300006,002,P001,2025_Jan_17_1909,CategoryLocalizer,2021.2.3,59.948336524500114,
140.0,140.8,2,0.75,Stimuli\ImageFiles-Set2\Bodies\Bodies_CobraPose_00007.png,0,0,0,234,234,234,,,,,,,,,,,,,140.00641639999958,0.00641639999957988,None,,167.36783560000185,167.36783560000185,167.36783560000185,167.36783560000185,167.36783560000185,167.36783560000185,167.36783560000185,167.36783560000185,002,P001,2025_Jan_17_1909,CategoryLocalizer,2021.2.3,59.948336524500114,
140.8,141.0,5,0.0,Stimuli\Blank.png,0,0,0,235,235,235,,,,,,,,,,,,,140.8238440999994,0.023844099999394075,None,,168.16855380000197,168.16855380000197,168.16855380000197,168.16855380000197,168.16855380000197,168.16855380000197,168.16855380000197,168.16855380000197,002,P001,2025_Jan_17_1909,CategoryLocalizer,2021.2.3,59.948336524500114,
141.0,141.8,2,0.75,Stimuli\ImageFiles-Set2\Bodies\Bodies_Hanging_00001.png,0,0,0,236,236,236,,,,,,,,,,,,,141.00757769999473,0.007577699994726572,None,,168.36872470000526,168.36872470000526,168.36872470000526,168.36872470000526,168.36872470000526,168.36872470000526,168.36872470000526,168.36872470000526,002,P001,2025_Jan_17_1909,CategoryLocalizer,2021.2.3,59.948336524500114,
141.8,142.0,5,0.0,Stimuli\Blank.png,0,0,0,237,237,237,,,,,,,,,,,,,141.82641789999616,0.026417899996147298,5,0.13107049999962328,169.18610420000186,169.18610420000186,169.18610420000186,169.18610420000186,169.18610420000186,169.18610420000186,169.18610420000186,169.18610420000186,002,P001,2025_Jan_17_1909,CategoryLocalizer,2021.2.3,59.948336524500114,
142.0,142.8,2,0.75,Stimuli\ImageFiles-Set2\Bodies\Bodies_Kneeling_00001.png,0,0,0,238,238,238,,,,,,,,,,,,,142.02494709999883,0.02494709999882616,None,,169.40301460000046,169.40301460000046,169.40301460000046,169.40301460000046,169.40301460000046,169.40301460000046,169.40301460000046,169.40301460000046,002,P001,2025_Jan_17_1909,CategoryLocalizer,2021.2.3,59.948336524500114,
142.8,143.0,5,0.0,Stimuli\Blank.png,0,0,0,239,239,239,,,,,,,,,,,,,142.84224919999542,0.042249199995410436,None,,170.18699250000645,170.18699250000645,170.18699250000645,170.18699250000645,170.18699250000645,170.18699250000645,170.18699250000645,170.18699250000645,002,P001,2025_Jan_17_1909,CategoryLocalizer,2021.2.3,59.948336524500114,
143.0,143.8,2,0.75,Stimuli\ImageFiles-Set2\Bodies\Bodies_Punching_00007.png,0,0,0,240,240,240,,,,,,,,,,,,,143.0103902999981,0.010390299998107366,None,,170.37050500000623,170.37050500000623,170.37050500000623,170.37050500000623,170.37050500000623,170.37050500000623,170.37050500000623,170.37050500000623,002,P001,2025_Jan_17_1909,CategoryLocalizer,2021.2.3,59.948336524500114,
143.8,144.0,5,0.0,Stimuli\Blank.png,0,0,0,241,241,241,,,,,,,,,,,,,143.82662100000016,0.026621000000147887,5,0.14602689999446739,171.17119100000127,171.17119100000127,171.17119100000127,171.17119100000127,171.17119100000127,171.17119100000127,171.17119100000127,171.17119100000127,002,P001,2025_Jan_17_1909,CategoryLocalizer,2021.2.3,59.948336524500114,
144.0,144.8,2,0.75,Stimuli\ImageFiles-Set2\Bodies\Bodies_Crawling_00002.png,0,0,0,242,242,242,,,,,,,,,,,,,144.00960199999827,0.009601999998267274,None,,171.35468820000096,171.35468820000096,171.35468820000096,171.35468820000096,171.35468820000096,171.35468820000096,171.35468820000096,171.35468820000096,002,P001,2025_Jan_17_1909,CategoryLocalizer,2021.2.3,59.948336524500114,
144.8,145.0,5,0.0,Stimuli\Blank.png,0,0,0,243,243,243,,,,,,,,,,,,,144.81125059999613,0.011250599996117217,None,,172.15540790000523,172.15540790000523,172.15540790000523,172.15540790000523,172.15540790000523,172.15540790000523,172.15540790000523,172.15540790000523,002,P001,2025_Jan_17_1909,CategoryLocalizer,2021.2.3,59.948336524500114,
145.0,145.8,2,0.75,Stimuli\ImageFiles-Set2\Bodies\Bodies_Running_00002.png,0,0,0,244,244,244,,,,,,,,,,,,,145.01097279999522,0.01097279999521561,None,,172.3722654000012,172.3722654000012,172.3722654000012,172.3722654000012,172.3722654000012,172.3722654000012,172.3722654000012,172.3722654000012,002,P001,2025_Jan_17_1909,CategoryLocalizer,2021.2.3,59.948336524500114,
145.8,146.0,5,0.0,Stimuli\Blank.png,0,0,0,245,245,245,,,,,,,,,,,,,145.82772570000088,0.02772570000087171,5,0.1442181000020355,173.17296070000157,173.17296070000157,173.17296070000157,173.17296070000157,173.17296070000157,173.17296070000157,173.17296070000157,173.17296070000157,002,P001,2025_Jan_17_1909,CategoryLocalizer,2021.2.3,59.948336524500114,
146.0,146.8,2,0.75,Stimuli\ImageFiles-Set2\Bodies\Bodies_Waving_00002.png,0,0,0,246,246,246,,,,,,,,,,,,,146.0118755999938,0.011875599993800279,None,,173.37316510000528,173.37316510000528,173.37316510000528,173.37316510000528,173.37316510000528,173.37316510000528,173.37316510000528,173.37316510000528,002,P001,2025_Jan_17_1909,CategoryLocalizer,2021.2.3,59.948336524500114,
146.8,147.0,5,0.0,Stimuli\Blank.png,0,0,0,247,247,247,,,,,,,,,,,,,146.83024029999797,0.0302402999979563,None,,174.19053200000053,174.19053200000053,174.19053200000053,174.19053200000053,174.19053200000053,174.19053200000053,174.19053200000053,174.19053200000053,002,P001,2025_Jan_17_1909,CategoryLocalizer,2021.2.3,59.948336524500114,
147.0,147.8,2,0.75,Stimuli\ImageFiles-Set2\Bodies\Bodies_Jumping_00007.png,0,0,0,248,248,248,,,,,,,,,,,,,147.03085169999395,0.030851699993945658,None,,174.4073966000069,174.4073966000069,174.4073966000069,174.4073966000069,174.4073966000069,174.4073966000069,174.4073966000069,174.4073966000069,002,P001,2025_Jan_17_1909,CategoryLocalizer,2021.2.3,59.948336524500114,
147.8,148.0,5,0.0,Stimuli\Blank.png,0,0,0,249,249,249,,,,,,,,,,,,,147.8463516999982,0.04635169999818345,5,0.12568090000422671,175.19140990000597,175.19140990000597,175.19140990000597,175.19140990000597,175.19140990000597,175.19140990000597,175.19140990000597,175.19140990000597,002,P001,2025_Jan_17_1909,CategoryLocalizer,2021.2.3,59.948336524500114,
148.0,148.8,2,0.75,Stimuli\ImageFiles-Set2\Bodies\Bodies_Walking_00003.png,0,0,0,250,250,250,,,,,,,,,,,,,148.012771099995,0.012771099995006807,None,,175.37497240000084,175.37497240000084,175.37497240000084,175.37497240000084,175.37497240000084,175.37497240000084,175.37497240000084,175.37497240000084,002,P001,2025_Jan_17_1909,CategoryLocalizer,2021.2.3,59.948336524500114,
148.8,149.0,5,0.0,Stimuli\Blank.png,0,0,0,251,251,251,,,,,,,,,,,,,148.83026399999653,0.03026399999652085,None,,176.17559350000374,176.17559350000374,176.17559350000374,176.17559350000374,176.17559350000374,176.17559350000374,176.17559350000374,176.17559350000374,002,P001,2025_Jan_17_1909,CategoryLocalizer,2021.2.3,59.948336524500114,
149.0,149.8,2,0.75,Stimuli\ImageFiles-Set2\Bodies\Bodies_Falling_00005.png,0,0,0,252,252,252,,,,,,,,,,,,,149.01440219999495,0.014402199994947296,None,,176.37580160000653,176.37580160000653,176.37580160000653,176.37580160000653,176.37580160000653,176.37580160000653,176.37580160000653,176.37580160000653,002,P001,2025_Jan_17_1909,CategoryLocalizer,2021.2.3,59.948336524500114,
149.8,150.0,5,0.0,Stimuli\Blank.png,0,0,0,253,253,253,,,,,,,,,,,,,149.83165860000008,0.031658600000071146,5,0.14155269999901066,177.17649990000064,177.17649990000064,177.17649990000064,177.17649990000064,177.17649990000064,177.17649990000064,177.17649990000064,177.17649990000064,002,P001,2025_Jan_17_1909,CategoryLocalizer,2021.2.3,59.948336524500114,
150.0,150.8,2,0.75,Stimuli\ImageFiles-Set2\Bodies\Bodies_Falling_00005.png,1,1,0,254,254,254,,,,,,,,,,,,,150.015230099998,0.015230099998007063,3,0.39905540000472683,177.35999930000253,177.35999930000253,177.35999930000253,177.35999930000253,177.35999930000253,177.35999930000253,177.35999930000253,177.35999930000253,002,P001,2025_Jan_17_1909,CategoryLocalizer,2021.2.3,59.948336524500114,
150.8,151.0,5,0.0,Stimuli\Blank.png,0,0,0,255,255,255,,,,,,,,,,,,,150.8014980999942,0.0014980999941940354,None,,178.16071420000662,178.16071420000662,178.16071420000662,178.16071420000662,178.16071420000662,178.16071420000662,178.16071420000662,178.16071420000662,002,P001,2025_Jan_17_1909,CategoryLocalizer,2021.2.3,59.948336524500114,
151.0,151.8,2,0.75,Stimuli\ImageFiles-Set2\Bodies\Bodies_Running_00003.png,0,0,0,256,256,256,,,,,,,,,,,,,151.01619159999973,0.016191599999729078,None,,178.37766600000032,178.37766600000032,178.37766600000032,178.37766600000032,178.37766600000032,178.37766600000032,178.37766600000032,178.37766600000032,002,P001,2025_Jan_17_1909,CategoryLocalizer,2021.2.3,59.948336524500114,
151.8,152.0,5,0.0,Stimuli\Blank.png,0,0,0,257,257,257,,,,,,,,,,,,,151.81675449999602,0.016754499996011418,None,,179.16158420000284,179.16158420000284,179.16158420000284,179.16158420000284,179.16158420000284,179.16158420000284,179.16158420000284,179.16158420000284,002,P001,2025_Jan_17_1909,CategoryLocalizer,2021.2.3,59.948336524500114,
152.0,164.0,0,0.0,Stimuli\Blank.png,0,0,0,258,258,258,,,,,,,,,,,,,151.9998923999956,-0.00010760000441223383,5,11.973188000003574,179.3450976000022,179.3450976000022,179.3450976000022,179.3450976000022,179.3450976000022,179.3450976000022,179.3450976000022,179.3450976000022,002,P001,2025_Jan_17_1909,CategoryLocalizer,2021.2.3,59.948336524500114,
164.0,164.8,4,0.75,Stimuli\ImageFiles-Set2\Scenes\Scenes_063.png,0,0,0,259,259,259,,,,,,,,,,,,,164.01147520000086,0.011475200000859331,None,,191.372380300003,191.372380300003,191.372380300003,191.372380300003,191.372380300003,191.372380300003,191.372380300003,191.372380300003,002,P001,2025_Jan_17_1909,CategoryLocalizer,2021.2.3,59.948336524500114,
164.8,165.0,5,0.0,Stimuli\Blank.png,0,0,0,260,260,260,,,,,,,,,,,,,164.82836400000087,0.028364000000863143,None,,192.17317970000295,192.17317970000295,192.17317970000295,192.17317970000295,192.17317970000295,192.17317970000295,192.17317970000295,192.17317970000295,002,P001,2025_Jan_17_1909,CategoryLocalizer,2021.2.3,59.948336524500114,
165.0,165.8,4,0.75,Stimuli\ImageFiles-Set2\Scenes\Scenes_106.png,0,0,0,261,261,261,,,,,,,,,,,,,165.01158649999707,0.011586499997065403,None,,192.3732639000009,192.3732639000009,192.3732639000009,192.3732639000009,192.3732639000009,192.3732639000009,192.3732639000009,192.3732639000009,002,P001,2025_Jan_17_1909,CategoryLocalizer,2021.2.3,59.948336524500114,
165.8,166.0,5,0.0,Stimuli\Blank.png,0,0,0,262,262,262,,,,,,,,,,,,,165.83074399999896,0.030743999998946947,5,0.1274275999967358,193.19066400000156,193.19066400000156,193.19066400000156,193.19066400000156,193.19066400000156,193.19066400000156,193.19066400000156,193.19066400000156,002,P001,2025_Jan_17_1909,CategoryLocalizer,2021.2.3,59.948336524500114,
166.0,166.8,4,0.75,Stimuli\ImageFiles-Set2\Scenes\Scenes_106.png,1,1,0,263,263,263,,,,,,,,,,,,,166.02943709999818,0.029437099998176564,3,0.39006370000424795,193.37414900000294,193.37414900000294,193.37414900000294,193.37414900000294,193.37414900000294,193.37414900000294,193.37414900000294,193.37414900000294,002,P001,2025_Jan_17_1909,CategoryLocalizer,2021.2.3,59.948336524500114,
166.8,167.0,5,0.0,Stimuli\Blank.png,0,0,0,264,264,264,,,,,,,,,,,,,166.81366599999456,0.013665999994543654,None,,194.15817400000378,194.15817400000378,194.15817400000378,194.15817400000378,194.15817400000378,194.15817400000378,194.15817400000378,194.15817400000378,002,P001,2025_Jan_17_1909,CategoryLocalizer,2021.2.3,59.948336524500114,
167.0,167.8,4,0.75,Stimuli\ImageFiles-Set2\Scenes\Scenes_109.png,0,0,0,265,265,265,,,,,,,,,,,,,167.01532379999844,0.015323799998441245,None,,194.3750902000029,194.3750902000029,194.3750902000029,194.3750902000029,194.3750902000029,194.3750902000029,194.3750902000029,194.3750902000029,002,P001,2025_Jan_17_1909,CategoryLocalizer,2021.2.3,59.948336524500114,
167.8,168.0,5,0.0,Stimuli\Blank.png,0,0,0,266,266,266,,,,,,,,,,,,,167.81564499999513,0.015644999995117814,5,0.1423402000000351,195.1757429000063,195.1757429000063,195.1757429000063,195.1757429000063,195.1757429000063,195.1757429000063,195.1757429000063,195.1757429000063,002,P001,2025_Jan_17_1909,CategoryLocalizer,2021.2.3,59.948336524500114,
168.0,168.8,4,0.75,Stimuli\ImageFiles-Set2\Scenes\Scenes_066.png,0,0,0,267,267,267,,,,,,,,,,,,,168.0151337999996,0.01513379999960307,None,,195.37591140000586,195.37591140000586,195.37591140000586,195.37591140000586,195.37591140000586,195.37591140000586,195.37591140000586,195.37591140000586,002,P001,2025_Jan_17_1909,CategoryLocalizer,2021.2.3,59.948336524500114,
168.8,169.0,5,0.0,Stimuli\Blank.png,0,0,0,268,268,268,,,,,,,,,,,,,168.81530059999932,0.015300599999306996,None,,196.1599428000045,196.1599428000045,196.1599428000045,196.1599428000045,196.1599428000045,196.1599428000045,196.1599428000045,196.1599428000045,002,P001,2025_Jan_17_1909,CategoryLocalizer,2021.2.3,59.948336524500114,
169.0,169.8,4,0.75,Stimuli\ImageFiles-Set2\Scenes\Scenes_061.png,0,0,0,269,269,269,,,,,,,,,,,,,168.99950819999503,-0.0004918000049656257,None,,196.3601809000029,196.3601809000029,196.3601809000029,196.3601809000029,196.3601809000029,196.3601809000029,196.3601809000029,196.3601809000029,002,P001,2025_Jan_17_1909,CategoryLocalizer,2021.2.3,59.948336524500114,
169.8,170.0,5,0.0,Stimuli\Blank.png,0,0,0,270,270,270,,,,,,,,,,,,,169.8166787999944,0.01667879999439492,None,,197.16083460000664,197.16083460000664,197.16083460000664,197.16083460000664,197.16083460000664,197.16083460000664,197.16083460000664,197.16083460000664,002,P001,2025_Jan_17_1909,CategoryLocalizer,2021.2.3,59.948336524500114,
170.0,170.8,4,0.75,Stimuli\ImageFiles-Set2\Scenes\Scenes_088.png,0,0,0,271,271,271,,,,,,,,,,,,,170.00209589999577,0.0020958999957656488,None,,197.36101770000096,197.36101770000096,197.36101770000096,197.36101770000096,197.36101770000096,197.36101770000096,197.36101770000096,197.36101770000096,002,P001,2025_Jan_17_1909,CategoryLocalizer,2021.2.3,59.948336524500114,
170.8,171.0,5,0.0,Stimuli\Blank.png,0,0,0,272,272,272,,,,,,,,,,,,,170.81638929999463,0.016389299994614248,None,,198.1616875000036,198.1616875000036,198.1616875000036,198.1616875000036,198.1616875000036,198.1616875000036,198.1616875000036,198.1616875000036,002,P001,2025_Jan_17_1909,CategoryLocalizer,2021.2.3,59.948336524500114,
171.0,171.8,4,0.75,Stimuli\ImageFiles-Set2\Scenes\Scenes_085.png,0,0,0,273,273,273,,,,,,,,,,,,,171.0005772000004,0.0005772000004071742,None,,198.36188430000038,198.36188430000038,198.36188430000038,198.36188430000038,198.36188430000038,198.36188430000038,198.36188430000038,198.36188430000038,002,P001,2025_Jan_17_1909,CategoryLocalizer,2021.2.3,59.948336524500114,
171.8,172.0,5,0.0,Stimuli\Blank.png,0,0,0,274,274,274,,,,,,,,,,,,,171.8172424000004,0.01724240000038435,None,,199.16260960000363,199.16260960000363,199.16260960000363,199.16260960000363,199.16260960000363,199.16260960000363,199.16260960000363,199.16260960000363,002,P001,2025_Jan_17_1909,CategoryLocalizer,2021.2.3,59.948336524500114,
172.0,172.8,4,0.75,Stimuli\ImageFiles-Set2\Scenes\Scenes_108.png,0,0,0,275,275,275,,,,,,,,,,,,,172.00138029999653,0.0013802999965264462,None,,199.36277050000353,199.36277050000353,199.36277050000353,199.36277050000353,199.36277050000353,199.36277050000353,199.36277050000353,199.36277050000353,002,P001,2025_Jan_17_1909,CategoryLocalizer,2021.2.3,59.948336524500114,
172.8,173.0,5,0.0,Stimuli\Blank.png,0,0,0,276,276,276,,,,,,,,,,,,,172.81819220000034,0.018192200000328285,None,,200.16349250000349,200.16349250000349,200.16349250000349,200.16349250000349,200.16349250000349,200.16349250000349,200.16349250000349,200.16349250000349,002,P001,2025_Jan_17_1909,CategoryLocalizer,2021.2.3,59.948336524500114,
173.0,173.8,4,0.75,Stimuli\ImageFiles-Set2\Scenes\Scenes_105.png,0,0,0,277,277,277,,,,,,,,,,,,,173.00235189999512,0.002351899995119311,None,,200.3636262,200.3636262,200.3636262,200.3636262,200.3636262,200.3636262,200.3636262,200.3636262,002,P001,2025_Jan_17_1909,CategoryLocalizer,2021.2.3,59.948336524500114,
173.8,174.0,5,0.0,Stimuli\Blank.png,0,0,0,278,278,278,,,,,,,,,,,,,173.82169140000042,0.021691400000406702,5,0.13695450000523124,201.1810972000021,201.1810972000021,201.1810972000021,201.1810972000021,201.1810972000021,201.1810972000021,201.1810972000021,201.1810972000021,002,P001,2025_Jan_17_1909,CategoryLocalizer,2021.2.3,59.948336524500114,
174.0,174.8,4,0.75,Stimuli\ImageFiles-Set2\Scenes\Scenes_094.png,1,1,0,279,279,279,,,,,,,,,,,,,174.0212687999956,0.021268799995596055,None,,201.38123710000218,201.38123710000218,201.38123710000218,201.38123710000218,201.38123710000218,201.38123710000218,201.38123710000218,201.38123710000218,002,P001,2025_Jan_17_1909,CategoryLocalizer,2021.2.3,59.948336524500114,
174.8,175.0,5,0.0,Stimuli\Blank.png,0,0,0,280,280,280,,,,,,,,,,,,,174.8199542000002,0.019954200000199762,None,,202.16535470000235,202.16535470000235,202.16535470000235,202.16535470000235,202.16535470000235,202.16535470000235,202.16535470000235,202.16535470000235,002,P001,2025_Jan_17_1909,CategoryLocalizer,2021.2.3,59.948336524500114,
175.0,175.8,4,0.75,Stimuli\ImageFiles-Set2\Scenes\Scenes_064.png,0,0,0,281,281,281,,,,,,,,,,,,,175.00404719999642,0.004047199996421114,None,,202.36542960000224,202.36542960000224,202.36542960000224,202.36542960000224,202.36542960000224,202.36542960000224,202.36542960000224,202.36542960000224,002,P001,2025_Jan_17_1909,CategoryLocalizer,2021.2.3,59.948336524500114,
175.8,176.0,5,0.0,Stimuli\Blank.png,0,0,0,282,282,282,,,,,,,,,,,,,175.8216994999966,0.02169949999660048,None,,203.16614780000236,203.16614780000236,203.16614780000236,203.16614780000236,203.16614780000236,203.16614780000236,203.16614780000236,203.16614780000236,002,P001,2025_Jan_17_1909,CategoryLocalizer,2021.2.3,59.948336524500114,
