eventStartTime,eventEndTime,eventCond,imSize,imFile,repeatedImage,responseEvent,Events.thisRepN,Events.thisTrialN,Events.thisN,Events.thisIndex,Instructions.started,Instructions.stopped,participantReadyResponse.keys,participantReadyResponse.rt,participantReadyResponse.started,participantReadyResponse.stopped,startWaitforTrigger,triggerResponse.keys,triggerResponse.rt,triggerResponse.started,triggerResponse.stopped,globalTimer,actualStartTime,startTimingDiff,participantResponse.keys,participantResponse.rt,participantResponse.started,participantResponse.stopped,image.started,image.stopped,fixationOutside.started,fixationOutside.stopped,fixationInside.started,fixationInside.stopped,session,participant,date,expName,psychopyVersion,frameRate,
,,,,,,,,,,,12.730385699999715,None,1,8.293949400000201,12.730385699999715,None,,,,,,,,,,,,,,,,,,,002,P002,2025_Jan_18_1008,CategoryLocalizer,2021.2.3,59.91529176069127,
,,,,,,,,,,,,,,,,,21.036132899999757,5,14.954690700000356,21.048587000000225,None,,,,,,,,,,,,,,002,P002,2025_Jan_18_1008,CategoryLocalizer,2021.2.3,59.91529176069127,
0.0,12.0,0,0.0,Stimuli\Blank.png,0,0,0,0,0,0,,,,,,,,,,,,36.01570030000039,0.028852800000095158,0.028852800000095158,5,11.942631799999617,36.06172669999978,None,36.06172669999978,None,36.06172669999978,None,36.06172669999978,None,002,P002,2025_Jan_18_1008,CategoryLocalizer,2021.2.3,59.91529176069127,
12.0,12.8,1,0.75,Stimuli\ImageFiles-Set2\Objects\Object_Paper_00001.png,0,0,0,1,1,1,,,,,,,,,,,,,12.009906700000101,0.00990670000010141,None,,48.0556188999999,48.0556188999999,48.0556188999999,48.0556188999999,48.0556188999999,48.0556188999999,48.0556188999999,48.0556188999999,002,P002,2025_Jan_18_1008,CategoryLocalizer,2021.2.3,59.91529176069127,
12.8,13.0,5,0.0,Stimuli\Blank.png,0,0,0,2,2,2,,,,,,,,,,,,,12.826649200000247,0.02664920000024651,None,,48.858277199999975,48.858277199999975,48.858277199999975,48.858277199999975,48.858277199999975,48.858277199999975,48.858277199999975,48.858277199999975,002,P002,2025_Jan_18_1008,CategoryLocalizer,2021.2.3,59.91529176069127,
13.0,13.8,1,0.75,Stimuli\ImageFiles-Set2\Objects\Object_Dresser_00001.png,0,0,0,3,3,3,,,,,,,,,,,,,13.0102538000001,0.010253800000100455,None,,49.05654779999986,49.05654779999986,49.05654779999986,49.05654779999986,49.05654779999986,49.05654779999986,49.05654779999986,49.05654779999986,002,P002,2025_Jan_18_1008,CategoryLocalizer,2021.2.3,59.91529176069127,
13.8,14.0,5,0.0,Stimuli\Blank.png,0,0,0,4,4,4,,,,,,,,,,,,,13.827761900000041,0.02776190000004064,5,0.14708429999973305,49.85720310000033,49.85720310000033,49.85720310000033,49.85720310000033,49.85720310000033,49.85720310000033,49.85720310000033,49.85720310000033,002,P002,2025_Jan_18_1008,CategoryLocalizer,2021.2.3,59.91529176069127,
14.0,14.8,1,0.75,Stimuli\ImageFiles-Set2\Objects\Object_Hat_00001.png,0,0,0,5,5,5,,,,,,,,,,,,,14.011357399999724,0.011357399999724294,None,,50.057368900000256,50.057368900000256,50.057368900000256,50.057368900000256,50.057368900000256,50.057368900000256,50.057368900000256,50.057368900000256,002,P002,2025_Jan_18_1008,CategoryLocalizer,2021.2.3,59.91529176069127,
14.8,15.0,5,0.0,Stimuli\Blank.png,0,0,0,6,6,6,,,,,,,,,,,,,14.828431099999761,0.02843109999976079,None,,50.858086000000185,50.858086000000185,50.858086000000185,50.858086000000185,50.858086000000185,50.858086000000185,50.858086000000185,50.858086000000185,002,P002,2025_Jan_18_1008,CategoryLocalizer,2021.2.3,59.91529176069127,
15.0,15.8,1,0.75,Stimuli\ImageFiles-Set2\Objects\Object_Ladder_00001.png,0,0,0,7,7,7,,,,,,,,,,,,,15.01193930000045,0.011939300000449293,None,,51.058279400000174,51.058279400000174,51.058279400000174,51.058279400000174,51.058279400000174,51.058279400000174,51.058279400000174,51.058279400000174,002,P002,2025_Jan_18_1008,CategoryLocalizer,2021.2.3,59.91529176069127,
15.8,16.0,5,0.0,Stimuli\Blank.png,0,0,0,8,8,8,,,,,,,,,,,,,15.82890580000003,0.028905800000028847,5,0.14547070000025997,51.85895049999999,51.85895049999999,51.85895049999999,51.85895049999999,51.85895049999999,51.85895049999999,51.85895049999999,51.85895049999999,002,P002,2025_Jan_18_1008,CategoryLocalizer,2021.2.3,59.91529176069127,
16.0,16.8,1,0.75,Stimuli\ImageFiles-Set2\Objects\Object_Mailbox_00001.png,0,0,0,9,9,9,,,,,,,,,,,,,16.012276600000405,0.01227660000040487,None,,52.05916080000043,52.05916080000043,52.05916080000043,52.05916080000043,52.05916080000043,52.05916080000043,52.05916080000043,52.05916080000043,002,P002,2025_Jan_18_1008,CategoryLocalizer,2021.2.3,59.91529176069127,
16.8,17.0,5,0.0,Stimuli\Blank.png,0,0,0,10,10,10,,,,,,,,,,,,,16.829906900000424,0.029906900000423065,None,,52.859831400000076,52.859831400000076,52.859831400000076,52.859831400000076,52.859831400000076,52.859831400000076,52.859831400000076,52.859831400000076,002,P002,2025_Jan_18_1008,CategoryLocalizer,2021.2.3,59.91529176069127,
17.0,17.8,1,0.75,Stimuli\ImageFiles-Set2\Objects\Object_Mailbox_00001.png,1,1,0,11,11,11,,,,,,,,,,,,,17.0137921000005,0.013792100000500795,1,0.30688090000057855,53.043331200000466,53.043331200000466,53.043331200000466,53.043331200000466,53.043331200000466,53.043331200000466,53.043331200000466,53.043331200000466,002,P002,2025_Jan_18_1008,CategoryLocalizer,2021.2.3,59.91529176069127,
17.8,18.0,5,0.0,Stimuli\Blank.png,0,0,0,12,12,12,,,,,,,,,,,,,17.813919299999725,0.013919299999724188,5,0.16022220000013476,53.844034400000055,53.844034400000055,53.844034400000055,53.844034400000055,53.844034400000055,53.844034400000055,53.844034400000055,53.844034400000055,002,P002,2025_Jan_18_1008,CategoryLocalizer,2021.2.3,59.91529176069127,
18.0,18.8,1,0.75,Stimuli\ImageFiles-Set2\Objects\Object_Mug_00001.png,0,0,0,13,13,13,,,,,,,,,,,,,18.01472019999983,0.014720199999828765,None,,54.06089150000025,54.06089150000025,54.06089150000025,54.06089150000025,54.06089150000025,54.06089150000025,54.06089150000025,54.06089150000025,002,P002,2025_Jan_18_1008,CategoryLocalizer,2021.2.3,59.91529176069127,
18.8,19.0,5,0.0,Stimuli\Blank.png,0,0,0,14,14,14,,,,,,,,,,,,,18.831615400000373,0.03161540000037277,None,,54.861600700000054,54.861600700000054,54.861600700000054,54.861600700000054,54.861600700000054,54.861600700000054,54.861600700000054,54.861600700000054,002,P002,2025_Jan_18_1008,CategoryLocalizer,2021.2.3,59.91529176069127,
19.0,19.8,1,0.75,Stimuli\ImageFiles-Set2\Objects\Object_Switch_00001.png,0,0,0,15,15,15,,,,,,,,,,,,,19.015082699999766,0.015082699999766191,None,,55.04509490000055,55.04509490000055,55.04509490000055,55.04509490000055,55.04509490000055,55.04509490000055,55.04509490000055,55.04509490000055,002,P002,2025_Jan_18_1008,CategoryLocalizer,2021.2.3,59.91529176069127,
19.8,20.0,5,0.0,Stimuli\Blank.png,0,0,0,16,16,16,,,,,,,,,,,,,19.7993862000003,-0.0006137999997015697,None,,55.82911200000035,55.82911200000035,55.82911200000035,55.82911200000035,55.82911200000035,55.82911200000035,55.82911200000035,55.82911200000035,002,P002,2025_Jan_18_1008,CategoryLocalizer,2021.2.3,59.91529176069127,
20.0,20.8,1,0.75,Stimuli\ImageFiles-Set2\Objects\Object_Belt_00001.png,0,0,0,17,17,17,,,,,,,,,,,,,19.999002100000325,-0.0009978999996747007,None,,56.06267630000002,56.06267630000002,56.06267630000002,56.06267630000002,56.06267630000002,56.06267630000002,56.06267630000002,56.06267630000002,002,P002,2025_Jan_18_1008,CategoryLocalizer,2021.2.3,59.91529176069127,
20.8,21.0,5,0.0,Stimuli\Blank.png,0,0,0,18,18,18,,,,,,,,,,,,,20.83360730000004,0.033607300000038975,None,,56.863354199999776,56.863354199999776,56.863354199999776,56.863354199999776,56.863354199999776,56.863354199999776,56.863354199999776,56.863354199999776,002,P002,2025_Jan_18_1008,CategoryLocalizer,2021.2.3,59.91529176069127,
21.0,21.8,1,0.75,Stimuli\ImageFiles-Set2\Objects\Object_Pin_00001.png,0,0,0,19,19,19,,,,,,,,,,,,,21.000161500000104,0.00016150000010384247,None,,57.04692609999984,57.04692609999984,57.04692609999984,57.04692609999984,57.04692609999984,57.04692609999984,57.04692609999984,57.04692609999984,002,P002,2025_Jan_18_1008,CategoryLocalizer,2021.2.3,59.91529176069127,
21.8,22.0,5,0.0,Stimuli\Blank.png,0,0,0,20,20,20,,,,,,,,,,,,,21.817799399999785,0.017799399999784526,None,,57.847557099999904,57.847557099999904,57.847557099999904,57.847557099999904,57.847557099999904,57.847557099999904,57.847557099999904,57.847557099999904,002,P002,2025_Jan_18_1008,CategoryLocalizer,2021.2.3,59.91529176069127,
22.0,22.8,1,0.75,Stimuli\ImageFiles-Set2\Objects\Object_Fork_00001.png,0,0,0,21,21,21,,,,,,,,,,,,,22.001185300000543,0.0011853000005430658,None,,58.04776579999998,58.04776579999998,58.04776579999998,58.04776579999998,58.04776579999998,58.04776579999998,58.04776579999998,58.04776579999998,002,P002,2025_Jan_18_1008,CategoryLocalizer,2021.2.3,59.91529176069127,
22.8,23.0,5,0.0,Stimuli\Blank.png,0,0,0,22,22,22,,,,,,,,,,,,,22.81887199999983,0.018871999999827693,None,,58.84845880000012,58.84845880000012,58.84845880000012,58.84845880000012,58.84845880000012,58.84845880000012,58.84845880000012,58.84845880000012,002,P002,2025_Jan_18_1008,CategoryLocalizer,2021.2.3,59.91529176069127,
23.0,23.8,1,0.75,Stimuli\ImageFiles-Set2\Objects\Object_Perfume_00001.png,0,0,0,23,23,23,,,,,,,,,,,,,23.002371700000367,0.0023717000003671274,None,,59.048608900000545,59.048608900000545,59.048608900000545,59.048608900000545,59.048608900000545,59.048608900000545,59.048608900000545,59.048608900000545,002,P002,2025_Jan_18_1008,CategoryLocalizer,2021.2.3,59.91529176069127,
23.8,24.0,5,0.0,Stimuli\Blank.png,0,0,0,24,24,24,,,,,,,,,,,,,23.81900930000029,0.01900930000028822,None,,59.84931729999971,59.84931729999971,59.84931729999971,59.84931729999971,59.84931729999971,59.84931729999971,59.84931729999971,59.84931729999971,002,P002,2025_Jan_18_1008,CategoryLocalizer,2021.2.3,59.91529176069127,
24.0,24.8,1,0.75,Stimuli\ImageFiles-Set2\Objects\Object_Flashlight_00001.png,1,1,0,25,25,25,,,,,,,,,,,,,24.00393510000049,0.003935100000489911,None,,60.032818900000166,60.032818900000166,60.032818900000166,60.032818900000166,60.032818900000166,60.032818900000166,60.032818900000166,60.032818900000166,002,P002,2025_Jan_18_1008,CategoryLocalizer,2021.2.3,59.91529176069127,
24.8,25.0,5,0.0,Stimuli\Blank.png,0,0,0,26,26,26,,,,,,,,,,,,,24.803818299999875,0.003818299999874597,None,,60.83352560000003,60.83352560000003,60.83352560000003,60.83352560000003,60.83352560000003,60.83352560000003,60.83352560000003,60.83352560000003,002,P002,2025_Jan_18_1008,CategoryLocalizer,2021.2.3,59.91529176069127,
25.0,25.8,1,0.75,Stimuli\ImageFiles-Set2\Objects\Object_Barrel_00001.png,0,0,0,27,27,27,,,,,,,,,,,,,25.00428499999998,0.004284999999981665,None,,61.05040569999983,61.05040569999983,61.05040569999983,61.05040569999983,61.05040569999983,61.05040569999983,61.05040569999983,61.05040569999983,002,P002,2025_Jan_18_1008,CategoryLocalizer,2021.2.3,59.91529176069127,
25.8,26.0,5,0.0,Stimuli\Blank.png,0,0,0,28,28,28,,,,,,,,,,,,,25.82058649999999,0.020586499999989627,None,,61.85108029999992,61.85108029999992,61.85108029999992,61.85108029999992,61.85108029999992,61.85108029999992,61.85108029999992,61.85108029999992,002,P002,2025_Jan_18_1008,CategoryLocalizer,2021.2.3,59.91529176069127,
26.0,26.8,1,0.75,Stimuli\ImageFiles-Set2\Objects\Object_Barrel_00001.png,0,0,0,29,29,29,,,,,,,,,,,,,26.003946599999836,0.003946599999835598,1,0.32791050000014366,62.05125500000031,62.05125500000031,62.05125500000031,62.05125500000031,62.05125500000031,62.05125500000031,62.05125500000031,62.05125500000031,002,P002,2025_Jan_18_1008,CategoryLocalizer,2021.2.3,59.91529176069127,
26.8,27.0,5,0.0,Stimuli\Blank.png,0,0,0,30,30,30,,,,,,,,,,,,,26.822481500000322,0.02248150000032112,None,,62.85197070000049,62.85197070000049,62.85197070000049,62.85197070000049,62.85197070000049,62.85197070000049,62.85197070000049,62.85197070000049,002,P002,2025_Jan_18_1008,CategoryLocalizer,2021.2.3,59.91529176069127,
27.0,27.8,1,0.75,Stimuli\ImageFiles-Set2\Objects\Object_Strawberry_00001.png,0,0,0,31,31,31,,,,,,,,,,,,,27.00542200000018,0.00542200000018056,None,,63.05213350000031,63.05213350000031,63.05213350000031,63.05213350000031,63.05213350000031,63.05213350000031,63.05213350000031,63.05213350000031,002,P002,2025_Jan_18_1008,CategoryLocalizer,2021.2.3,59.91529176069127,
27.8,28.0,5,0.0,Stimuli\Blank.png,0,0,0,32,32,32,,,,,,,,,,,,,27.82281580000017,0.022815800000170583,None,,63.85283940000045,63.85283940000045,63.85283940000045,63.85283940000045,63.85283940000045,63.85283940000045,63.85283940000045,63.85283940000045,002,P002,2025_Jan_18_1008,CategoryLocalizer,2021.2.3,59.91529176069127,
28.0,28.8,2,0.75,Stimuli\ImageFiles-Set2\Bodies\Bodies_Kneeling_00001.png,0,0,0,33,33,33,,,,,,,,,,,,,28.00613500000054,0.006135000000540458,None,,64.05301520000012,64.05301520000012,64.05301520000012,64.05301520000012,64.05301520000012,64.05301520000012,64.05301520000012,64.05301520000012,002,P002,2025_Jan_18_1008,CategoryLocalizer,2021.2.3,59.91529176069127,
28.8,29.0,5,0.0,Stimuli\Blank.png,0,0,0,34,34,34,,,,,,,,,,,,,28.823934900000495,0.023934900000494252,None,,64.85372019999977,64.85372019999977,64.85372019999977,64.85372019999977,64.85372019999977,64.85372019999977,64.85372019999977,64.85372019999977,002,P002,2025_Jan_18_1008,CategoryLocalizer,2021.2.3,59.91529176069127,
29.0,29.8,2,0.75,Stimuli\ImageFiles-Set2\Bodies\Bodies_Running_00003.png,0,0,0,35,35,35,,,,,,,,,,,,,29.007320000000618,0.007320000000618165,None,,65.05391119999967,65.05391119999967,65.05391119999967,65.05391119999967,65.05391119999967,65.05391119999967,65.05391119999967,65.05391119999967,002,P002,2025_Jan_18_1008,CategoryLocalizer,2021.2.3,59.91529176069127,
29.8,30.0,5,0.0,Stimuli\Blank.png,0,0,0,36,36,36,,,,,,,,,,,,,29.824896900000567,0.024896900000566546,5,0.14969339999970543,65.85460150000017,65.85460150000017,65.85460150000017,65.85460150000017,65.85460150000017,65.85460150000017,65.85460150000017,65.85460150000017,002,P002,2025_Jan_18_1008,CategoryLocalizer,2021.2.3,59.91529176069127,
30.0,30.8,2,0.75,Stimuli\ImageFiles-Set2\Bodies\Bodies_Running_00003.png,1,1,0,37,37,37,,,,,,,,,,,,,30.008472900000015,0.008472900000015215,1,0.4371772000004057,66.03810239999984,66.03810239999984,66.03810239999984,66.03810239999984,66.03810239999984,66.03810239999984,66.03810239999984,66.03810239999984,002,P002,2025_Jan_18_1008,CategoryLocalizer,2021.2.3,59.91529176069127,
30.8,31.0,5,0.0,Stimuli\Blank.png,0,0,0,38,38,38,,,,,,,,,,,,,30.809296200000063,0.009296200000061816,None,,66.83880580000005,66.83880580000005,66.83880580000005,66.83880580000005,66.83880580000005,66.83880580000005,66.83880580000005,66.83880580000005,002,P002,2025_Jan_18_1008,CategoryLocalizer,2021.2.3,59.91529176069127,
31.0,31.8,2,0.75,Stimuli\ImageFiles-Set2\Bodies\Bodies_SittingChair_00006.png,0,0,0,39,39,39,,,,,,,,,,,,,31.008578800000578,0.008578800000577758,None,,67.07237350000014,67.07237350000014,67.07237350000014,67.07237350000014,67.07237350000014,67.07237350000014,67.07237350000014,67.07237350000014,002,P002,2025_Jan_18_1008,CategoryLocalizer,2021.2.3,59.91529176069127,
31.8,32.0,5,0.0,Stimuli\Blank.png,0,0,0,40,40,40,,,,,,,,,,,,,31.842773000000307,0.04277300000030593,5,0.13121899999987363,67.87304330000006,67.87304330000006,67.87304330000006,67.87304330000006,67.87304330000006,67.87304330000006,67.87304330000006,67.87304330000006,002,P002,2025_Jan_18_1008,CategoryLocalizer,2021.2.3,59.91529176069127,
32.0,32.8,2,0.75,Stimuli\ImageFiles-Set2\Bodies\Bodies_PushUp_00006.png,0,0,0,41,41,41,,,,,,,,,,,,,32.01023440000063,0.01023440000062692,None,,68.05661880000025,68.05661880000025,68.05661880000025,68.05661880000025,68.05661880000025,68.05661880000025,68.05661880000025,68.05661880000025,002,P002,2025_Jan_18_1008,CategoryLocalizer,2021.2.3,59.91529176069127,
32.8,33.0,5,0.0,Stimuli\Blank.png,0,0,0,42,42,42,,,,,,,,,,,,,32.82755559999987,0.02755559999987156,None,,68.85725290000028,68.85725290000028,68.85725290000028,68.85725290000028,68.85725290000028,68.85725290000028,68.85725290000028,68.85725290000028,002,P002,2025_Jan_18_1008,CategoryLocalizer,2021.2.3,59.91529176069127,
33.0,33.8,2,0.75,Stimuli\ImageFiles-Set2\Bodies\Bodies_CobraPose_00007.png,0,0,0,43,43,43,,,,,,,,,,,,,33.01275690000057,0.012756900000567839,None,,69.05741839999973,69.05741839999973,69.05741839999973,69.05741839999973,69.05741839999973,69.05741839999973,69.05741839999973,69.05741839999973,002,P002,2025_Jan_18_1008,CategoryLocalizer,2021.2.3,59.91529176069127,
33.8,34.0,5,0.0,Stimuli\Blank.png,0,0,0,44,44,44,,,,,,,,,,,,,33.8283220000003,0.028322000000301273,5,0.14605420000043523,69.85812110000006,69.85812110000006,69.85812110000006,69.85812110000006,69.85812110000006,69.85812110000006,69.85812110000006,69.85812110000006,002,P002,2025_Jan_18_1008,CategoryLocalizer,2021.2.3,59.91529176069127,
34.0,34.8,2,0.75,Stimuli\ImageFiles-Set2\Bodies\Bodies_SittingChair_00002.png,0,0,0,45,45,45,,,,,,,,,,,,,34.01179390000016,0.01179390000015701,None,,70.05830250000054,70.05830250000054,70.05830250000054,70.05830250000054,70.05830250000054,70.05830250000054,70.05830250000054,70.05830250000054,002,P002,2025_Jan_18_1008,CategoryLocalizer,2021.2.3,59.91529176069127,
34.8,35.0,5,0.0,Stimuli\Blank.png,0,0,0,46,46,46,,,,,,,,,,,,,34.82901230000061,0.029012300000616165,None,,70.85900420000053,70.85900420000053,70.85900420000053,70.85900420000053,70.85900420000053,70.85900420000053,70.85900420000053,70.85900420000053,002,P002,2025_Jan_18_1008,CategoryLocalizer,2021.2.3,59.91529176069127,
35.0,35.8,2,0.75,Stimuli\ImageFiles-Set2\Bodies\Bodies_PushUp_00001.png,0,0,0,47,47,47,,,,,,,,,,,,,35.01326539999991,0.013265399999909278,None,,71.05918540000039,71.05918540000039,71.05918540000039,71.05918540000039,71.05918540000039,71.05918540000039,71.05918540000039,71.05918540000039,002,P002,2025_Jan_18_1008,CategoryLocalizer,2021.2.3,59.91529176069127,
35.8,36.0,5,0.0,Stimuli\Blank.png,0,0,0,48,48,48,,,,,,,,,,,,,35.82947570000033,0.02947570000033295,5,0.1444363999999041,71.8598877000004,71.8598877000004,71.8598877000004,71.8598877000004,71.8598877000004,71.8598877000004,71.8598877000004,71.8598877000004,002,P002,2025_Jan_18_1008,CategoryLocalizer,2021.2.3,59.91529176069127,
36.0,36.8,2,0.75,Stimuli\ImageFiles-Set2\Bodies\Bodies_Running_00002.png,0,0,0,49,49,49,,,,,,,,,,,,,36.01294670000061,0.0129467000006116,None,,72.06012639999972,72.06012639999972,72.06012639999972,72.06012639999972,72.06012639999972,72.06012639999972,72.06012639999972,72.06012639999972,002,P002,2025_Jan_18_1008,CategoryLocalizer,2021.2.3,59.91529176069127,
36.8,37.0,5,0.0,Stimuli\Blank.png,0,0,0,50,50,50,,,,,,,,,,,,,36.832914900000105,0.032914900000108105,None,,72.8774813,72.8774813,72.8774813,72.8774813,72.8774813,72.8774813,72.8774813,72.8774813,002,P002,2025_Jan_18_1008,CategoryLocalizer,2021.2.3,59.91529176069127,
37.0,37.8,2,0.75,Stimuli\ImageFiles-Set2\Bodies\Bodies_QuadStretch_00006.png,0,0,0,51,51,51,,,,,,,,,,,,,37.01466690000052,0.0146669000005204,None,,73.06094519999988,73.06094519999988,73.06094519999988,73.06094519999988,73.06094519999988,73.06094519999988,73.06094519999988,73.06094519999988,002,P002,2025_Jan_18_1008,CategoryLocalizer,2021.2.3,59.91529176069127,
37.8,38.0,5,0.0,Stimuli\Blank.png,0,0,0,52,52,52,,,,,,,,,,,,,37.83235580000019,0.03235580000018956,None,,73.86166109999976,73.86166109999976,73.86166109999976,73.86166109999976,73.86166109999976,73.86166109999976,73.86166109999976,73.86166109999976,002,P002,2025_Jan_18_1008,CategoryLocalizer,2021.2.3,59.91529176069127,
38.0,38.8,2,0.75,Stimuli\ImageFiles-Set2\Bodies\Bodies_Punching_00005.png,1,1,0,53,53,53,,,,,,,,,,,,,37.99879280000005,-0.0012071999999534455,None,,74.04513959999986,74.04513959999986,74.04513959999986,74.04513959999986,74.04513959999986,74.04513959999986,74.04513959999986,74.04513959999986,002,P002,2025_Jan_18_1008,CategoryLocalizer,2021.2.3,59.91529176069127,
38.8,39.0,5,0.0,Stimuli\Blank.png,0,0,0,54,54,54,,,,,,,,,,,,,38.81773239999984,0.01773239999984355,None,,74.86257170000044,74.86257170000044,74.86257170000044,74.86257170000044,74.86257170000044,74.86257170000044,74.86257170000044,74.86257170000044,002,P002,2025_Jan_18_1008,CategoryLocalizer,2021.2.3,59.91529176069127,
39.0,39.8,2,0.75,Stimuli\ImageFiles-Set2\Bodies\Bodies_Jumping_00007.png,0,0,0,55,55,55,,,,,,,,,,,,,39.0164550999998,0.01645509999980277,None,,75.06270570000015,75.06270570000015,75.06270570000015,75.06270570000015,75.06270570000015,75.06270570000015,75.06270570000015,75.06270570000015,002,P002,2025_Jan_18_1008,CategoryLocalizer,2021.2.3,59.91529176069127,
39.8,40.0,5,0.0,Stimuli\Blank.png,0,0,0,56,56,56,,,,,,,,,,,,,39.81859179999992,0.018591799999924774,5,0.1407509000000573,75.86343250000027,75.86343250000027,75.86343250000027,75.86343250000027,75.86343250000027,75.86343250000027,75.86343250000027,75.86343250000027,002,P002,2025_Jan_18_1008,CategoryLocalizer,2021.2.3,59.91529176069127,
40.0,40.8,2,0.75,Stimuli\ImageFiles-Set2\Bodies\Bodies_Jumping_00007.png,0,0,0,57,57,57,,,,,,,,,,,,,40.01736520000031,0.017365200000313052,1,0.4643547999994553,76.04690699999992,76.04690699999992,76.04690699999992,76.04690699999992,76.04690699999992,76.04690699999992,76.04690699999992,76.04690699999992,002,P002,2025_Jan_18_1008,CategoryLocalizer,2021.2.3,59.91529176069127,
40.8,41.0,5,0.0,Stimuli\Blank.png,0,0,0,58,58,58,,,,,,,,,,,,,40.8005548000001,0.0005548000001027731,None,,76.83092339999985,76.83092339999985,76.83092339999985,76.83092339999985,76.83092339999985,76.83092339999985,76.83092339999985,76.83092339999985,002,P002,2025_Jan_18_1008,CategoryLocalizer,2021.2.3,59.91529176069127,
41.0,41.8,2,0.75,Stimuli\ImageFiles-Set2\Bodies\Bodies_Crawling_00004.png,0,0,0,59,59,59,,,,,,,,,,,,,41.00270790000013,0.002707900000132213,None,,77.04778400000032,77.04778400000032,77.04778400000032,77.04778400000032,77.04778400000032,77.04778400000032,77.04778400000032,77.04778400000032,002,P002,2025_Jan_18_1008,CategoryLocalizer,2021.2.3,59.91529176069127,
41.8,42.0,5,0.0,Stimuli\Blank.png,0,0,0,60,60,60,,,,,,,,,,,,,41.81944370000019,0.019443700000195463,None,,77.84849300000042,77.84849300000042,77.84849300000042,77.84849300000042,77.84849300000042,77.84849300000042,77.84849300000042,77.84849300000042,002,P002,2025_Jan_18_1008,CategoryLocalizer,2021.2.3,59.91529176069127,
42.0,42.8,2,0.75,Stimuli\ImageFiles-Set2\Bodies\Bodies_Waving_00004.png,0,0,0,61,61,61,,,,,,,,,,,,,42.00150300000041,0.0015030000004117028,None,,78.04866130000028,78.04866130000028,78.04866130000028,78.04866130000028,78.04866130000028,78.04866130000028,78.04866130000028,78.04866130000028,002,P002,2025_Jan_18_1008,CategoryLocalizer,2021.2.3,59.91529176069127,
42.8,43.0,5,0.0,Stimuli\Blank.png,0,0,0,62,62,62,,,,,,,,,,,,,42.81885430000057,0.018854300000569424,None,,78.84936819999984,78.84936819999984,78.84936819999984,78.84936819999984,78.84936819999984,78.84936819999984,78.84936819999984,78.84936819999984,002,P002,2025_Jan_18_1008,CategoryLocalizer,2021.2.3,59.91529176069127,
43.0,43.8,2,0.75,Stimuli\ImageFiles-Set2\Bodies\Bodies_Hanging_00007.png,0,0,0,63,63,63,,,,,,,,,,,,,43.003848299999845,0.0038482999998450396,None,,79.04954379999981,79.04954379999981,79.04954379999981,79.04954379999981,79.04954379999981,79.04954379999981,79.04954379999981,79.04954379999981,002,P002,2025_Jan_18_1008,CategoryLocalizer,2021.2.3,59.91529176069127,
43.8,44.0,5,0.0,Stimuli\Blank.png,0,0,0,64,64,64,,,,,,,,,,,,,43.82007630000044,0.02007630000044003,None,,79.85024770000018,79.85024770000018,79.85024770000018,79.85024770000018,79.85024770000018,79.85024770000018,79.85024770000018,79.85024770000018,002,P002,2025_Jan_18_1008,CategoryLocalizer,2021.2.3,59.91529176069127,
44.0,44.8,3,0.75,Stimuli\ImageFiles-Set2\Faces\Face_00118.png,0,0,0,65,65,65,,,,,,,,,,,,,44.003519900000356,0.0035199000003558467,None,,80.06710900000053,80.06710900000053,80.06710900000053,80.06710900000053,80.06710900000053,80.06710900000053,80.06710900000053,80.06710900000053,002,P002,2025_Jan_18_1008,CategoryLocalizer,2021.2.3,59.91529176069127,
44.8,45.0,5,0.0,Stimuli\Blank.png,0,0,0,66,66,66,,,,,,,,,,,,,44.83811909999986,0.03811909999986085,None,,80.86781960000008,80.86781960000008,80.86781960000008,80.86781960000008,80.86781960000008,80.86781960000008,80.86781960000008,80.86781960000008,002,P002,2025_Jan_18_1008,CategoryLocalizer,2021.2.3,59.91529176069127,
45.0,45.8,3,0.75,Stimuli\ImageFiles-Set2\Faces\Face_00084.png,0,0,0,67,67,67,,,,,,,,,,,,,45.00429230000009,0.004292300000088289,None,,81.05130509999981,81.05130509999981,81.05130509999981,81.05130509999981,81.05130509999981,81.05130509999981,81.05130509999981,81.05130509999981,002,P002,2025_Jan_18_1008,CategoryLocalizer,2021.2.3,59.91529176069127,
45.8,46.0,5,0.0,Stimuli\Blank.png,0,0,0,68,68,68,,,,,,,,,,,,,45.82222890000048,0.02222890000048494,None,,81.8520137000005,81.8520137000005,81.8520137000005,81.8520137000005,81.8520137000005,81.8520137000005,81.8520137000005,81.8520137000005,002,P002,2025_Jan_18_1008,CategoryLocalizer,2021.2.3,59.91529176069127,
46.0,46.8,3,0.75,Stimuli\ImageFiles-Set2\Faces\Face_00002.png,0,0,0,69,69,69,,,,,,,,,,,,,46.00571730000047,0.0057173000004695496,None,,82.05218680000053,82.05218680000053,82.05218680000053,82.05218680000053,82.05218680000053,82.05218680000053,82.05218680000053,82.05218680000053,002,P002,2025_Jan_18_1008,CategoryLocalizer,2021.2.3,59.91529176069127,
46.8,47.0,5,0.0,Stimuli\Blank.png,0,0,0,70,70,70,,,,,,,,,,,,,46.823555099999794,0.02355509999979688,None,,82.85289360000024,82.85289360000024,82.85289360000024,82.85289360000024,82.85289360000024,82.85289360000024,82.85289360000024,82.85289360000024,002,P002,2025_Jan_18_1008,CategoryLocalizer,2021.2.3,59.91529176069127,
47.0,47.8,3,0.75,Stimuli\ImageFiles-Set2\Faces\Face_00002.png,1,1,0,71,71,71,,,,,,,,,,,,,47.00655950000055,0.006559500000548724,1,0.4089566999991803,83.03639310000017,83.03639310000017,83.03639310000017,83.03639310000017,83.03639310000017,83.03639310000017,83.03639310000017,83.03639310000017,002,P002,2025_Jan_18_1008,CategoryLocalizer,2021.2.3,59.91529176069127,
47.8,48.0,5,0.0,Stimuli\Blank.png,0,0,0,72,72,72,,,,,,,,,,,,,47.80741330000001,0.007413300000010281,5,0.16702820000045904,83.83709540000018,83.83709540000018,83.83709540000018,83.83709540000018,83.83709540000018,83.83709540000018,83.83709540000018,83.83709540000018,002,P002,2025_Jan_18_1008,CategoryLocalizer,2021.2.3,59.91529176069127,
48.0,48.8,3,0.75,Stimuli\ImageFiles-Set2\Faces\Face_00004.png,0,0,0,73,73,73,,,,,,,,,,,,,48.00741360000029,0.007413600000290899,None,,84.0539262000002,84.0539262000002,84.0539262000002,84.0539262000002,84.0539262000002,84.0539262000002,84.0539262000002,84.0539262000002,002,P002,2025_Jan_18_1008,CategoryLocalizer,2021.2.3,59.91529176069127,
48.8,49.0,5,0.0,Stimuli\Blank.png,0,0,0,74,74,74,,,,,,,,,,,,,48.824384100000316,0.024384100000318654,None,,84.85465440000007,84.85465440000007,84.85465440000007,84.85465440000007,84.85465440000007,84.85465440000007,84.85465440000007,84.85465440000007,002,P002,2025_Jan_18_1008,CategoryLocalizer,2021.2.3,59.91529176069127,
49.0,49.8,3,0.75,Stimuli\ImageFiles-Set2\Faces\Face_00116.png,0,0,0,75,75,75,,,,,,,,,,,,,49.00842120000016,0.008421200000157114,None,,85.07151500000055,85.07151500000055,85.07151500000055,85.07151500000055,85.07151500000055,85.07151500000055,85.07151500000055,85.07151500000055,002,P002,2025_Jan_18_1008,CategoryLocalizer,2021.2.3,59.91529176069127,
49.8,50.0,5,0.0,Stimuli\Blank.png,0,0,0,76,76,76,,,,,,,,,,,,,49.843182999999954,0.04318299999995645,5,0.13191180000012537,85.87222010000005,85.87222010000005,85.87222010000005,85.87222010000005,85.87222010000005,85.87222010000005,85.87222010000005,85.87222010000005,002,P002,2025_Jan_18_1008,CategoryLocalizer,2021.2.3,59.91529176069127,
50.0,50.8,3,0.75,Stimuli\ImageFiles-Set2\Faces\Face_00068.png,0,0,0,77,77,77,,,,,,,,,,,,,50.00932130000001,0.009321300000010524,None,,86.05570950000038,86.05570950000038,86.05570950000038,86.05570950000038,86.05570950000038,86.05570950000038,86.05570950000038,86.05570950000038,002,P002,2025_Jan_18_1008,CategoryLocalizer,2021.2.3,59.91529176069127,
50.8,51.0,5,0.0,Stimuli\Blank.png,0,0,0,78,78,78,,,,,,,,,,,,,50.82866610000019,0.028666100000194206,None,,86.87311399999999,86.87311399999999,86.87311399999999,86.87311399999999,86.87311399999999,86.87311399999999,86.87311399999999,86.87311399999999,002,P002,2025_Jan_18_1008,CategoryLocalizer,2021.2.3,59.91529176069127,
51.0,51.8,3,0.75,Stimuli\ImageFiles-Set2\Faces\Face_00070.png,0,0,0,79,79,79,,,,,,,,,,,,,51.02811389999988,0.028113899999880232,None,,87.0732708000005,87.0732708000005,87.0732708000005,87.0732708000005,87.0732708000005,87.0732708000005,87.0732708000005,87.0732708000005,002,P002,2025_Jan_18_1008,CategoryLocalizer,2021.2.3,59.91529176069127,
51.8,52.0,5,0.0,Stimuli\Blank.png,0,0,0,80,80,80,,,,,,,,,,,,,51.82839150000018,0.028391500000182646,5,0.14682269999957498,87.85729820000051,87.85729820000051,87.85729820000051,87.85729820000051,87.85729820000051,87.85729820000051,87.85729820000051,87.85729820000051,002,P002,2025_Jan_18_1008,CategoryLocalizer,2021.2.3,59.91529176069127,
52.0,52.8,3,0.75,Stimuli\ImageFiles-Set2\Faces\Face_00088.png,0,0,0,81,81,81,,,,,,,,,,,,,52.010589900000014,0.010589900000013586,None,,88.05746830000044,88.05746830000044,88.05746830000044,88.05746830000044,88.05746830000044,88.05746830000044,88.05746830000044,88.05746830000044,002,P002,2025_Jan_18_1008,CategoryLocalizer,2021.2.3,59.91529176069127,
52.8,53.0,5,0.0,Stimuli\Blank.png,0,0,0,82,82,82,,,,,,,,,,,,,52.828399200000604,0.028399200000606584,None,,88.85817700000007,88.85817700000007,88.85817700000007,88.85817700000007,88.85817700000007,88.85817700000007,88.85817700000007,88.85817700000007,002,P002,2025_Jan_18_1008,CategoryLocalizer,2021.2.3,59.91529176069127,
53.0,53.8,3,0.75,Stimuli\ImageFiles-Set2\Faces\Face_00110.png,1,1,0,83,83,83,,,,,,,,,,,,,53.01361689999976,0.01361689999976079,None,,89.07506280000052,89.07506280000052,89.07506280000052,89.07506280000052,89.07506280000052,89.07506280000052,89.07506280000052,89.07506280000052,002,P002,2025_Jan_18_1008,CategoryLocalizer,2021.2.3,59.91529176069127,
53.8,54.0,5,0.0,Stimuli\Blank.png,0,0,0,84,84,84,,,,,,,,,,,,,53.84744969999974,0.047449699999745576,5,0.11166549999961717,89.89243950000036,89.89243950000036,89.89243950000036,89.89243950000036,89.89243950000036,89.89243950000036,89.89243950000036,89.89243950000036,002,P002,2025_Jan_18_1008,CategoryLocalizer,2021.2.3,59.91529176069127,
54.0,54.8,3,0.75,Stimuli\ImageFiles-Set2\Faces\Face_00102.png,0,0,0,85,85,85,,,,,,,,,,,,,54.029306700000234,0.029306700000233832,None,,90.09260919999997,90.09260919999997,90.09260919999997,90.09260919999997,90.09260919999997,90.09260919999997,90.09260919999997,90.09260919999997,002,P002,2025_Jan_18_1008,CategoryLocalizer,2021.2.3,59.91529176069127,
54.8,55.0,5,0.0,Stimuli\Blank.png,0,0,0,86,86,86,,,,,,,,,,,,,54.848611000000346,0.048611000000349236,None,,90.89332240000022,90.89332240000022,90.89332240000022,90.89332240000022,90.89332240000022,90.89332240000022,90.89332240000022,90.89332240000022,002,P002,2025_Jan_18_1008,CategoryLocalizer,2021.2.3,59.91529176069127,
55.0,55.8,3,0.75,Stimuli\ImageFiles-Set2\Faces\Face_00102.png,0,0,0,87,87,87,,,,,,,,,,,,,55.03039869999975,0.030398699999750534,1,0.6232432999995581,91.06011599999965,91.06011599999965,91.06011599999965,91.06011599999965,91.06011599999965,91.06011599999965,91.06011599999965,91.06011599999965,002,P002,2025_Jan_18_1008,CategoryLocalizer,2021.2.3,59.91529176069127,
55.8,56.0,5,0.0,Stimuli\Blank.png,0,0,0,88,88,88,,,,,,,,,,,,,55.81433509999988,0.014335099999883028,5,0.16021840000030352,91.84413680000034,91.84413680000034,91.84413680000034,91.84413680000034,91.84413680000034,91.84413680000034,91.84413680000034,91.84413680000034,002,P002,2025_Jan_18_1008,CategoryLocalizer,2021.2.3,59.91529176069127,
56.0,56.8,3,0.75,Stimuli\ImageFiles-Set2\Faces\Face_00064.png,0,0,0,89,89,89,,,,,,,,,,,,,56.014701799999784,0.01470179999978427,None,,92.0609929000002,92.0609929000002,92.0609929000002,92.0609929000002,92.0609929000002,92.0609929000002,92.0609929000002,92.0609929000002,002,P002,2025_Jan_18_1008,CategoryLocalizer,2021.2.3,59.91529176069127,
56.8,57.0,5,0.0,Stimuli\Blank.png,0,0,0,90,90,90,,,,,,,,,,,,,56.83149409999987,0.0314940999998754,None,,92.86169470000004,92.86169470000004,92.86169470000004,92.86169470000004,92.86169470000004,92.86169470000004,92.86169470000004,92.86169470000004,002,P002,2025_Jan_18_1008,CategoryLocalizer,2021.2.3,59.91529176069127,
57.0,57.8,3,0.75,Stimuli\ImageFiles-Set2\Faces\Face_00094.png,0,0,0,91,91,91,,,,,,,,,,,,,57.0149978999998,0.014997899999798392,None,,93.06187940000018,93.06187940000018,93.06187940000018,93.06187940000018,93.06187940000018,93.06187940000018,93.06187940000018,93.06187940000018,002,P002,2025_Jan_18_1008,CategoryLocalizer,2021.2.3,59.91529176069127,
57.8,58.0,5,0.0,Stimuli\Blank.png,0,0,0,92,92,92,,,,,,,,,,,,,57.81769559999975,0.017695599999754563,5,0.1414557000007335,93.86259859999973,93.86259859999973,93.86259859999973,93.86259859999973,93.86259859999973,93.86259859999973,93.86259859999973,93.86259859999973,002,P002,2025_Jan_18_1008,CategoryLocalizer,2021.2.3,59.91529176069127,
58.0,58.8,3,0.75,Stimuli\ImageFiles-Set2\Faces\Face_00011.png,0,0,0,93,93,93,,,,,,,,,,,,,58.01650979999977,0.016509799999766983,None,,94.06275410000035,94.06275410000035,94.06275410000035,94.06275410000035,94.06275410000035,94.06275410000035,94.06275410000035,94.06275410000035,002,P002,2025_Jan_18_1008,CategoryLocalizer,2021.2.3,59.91529176069127,
58.8,59.0,5,0.0,Stimuli\Blank.png,0,0,0,94,94,94,,,,,,,,,,,,,58.81841010000062,0.018410100000622265,None,,94.86347730000034,94.86347730000034,94.86347730000034,94.86347730000034,94.86347730000034,94.86347730000034,94.86347730000034,94.86347730000034,002,P002,2025_Jan_18_1008,CategoryLocalizer,2021.2.3,59.91529176069127,
59.0,59.8,3,0.75,Stimuli\ImageFiles-Set2\Faces\Face_00106.png,0,0,0,95,95,95,,,,,,,,,,,,,59.01762670000062,0.017626700000619167,None,,95.06364510000003,95.06364510000003,95.06364510000003,95.06364510000003,95.06364510000003,95.06364510000003,95.06364510000003,95.06364510000003,002,P002,2025_Jan_18_1008,CategoryLocalizer,2021.2.3,59.91529176069127,
59.8,60.0,5,0.0,Stimuli\Blank.png,0,0,0,96,96,96,,,,,,,,,,,,,59.81886560000021,0.018865600000211202,None,,95.84766279999985,95.84766279999985,95.84766279999985,95.84766279999985,95.84766279999985,95.84766279999985,95.84766279999985,95.84766279999985,002,P002,2025_Jan_18_1008,CategoryLocalizer,2021.2.3,59.91529176069127,
60.0,60.8,4,0.75,Stimuli\ImageFiles-Set2\Scenes\Scenes_084.png,0,0,0,97,97,97,,,,,,,,,,,,,60.001648399999794,0.001648399999794492,None,,96.06454329999997,96.06454329999997,96.06454329999997,96.06454329999997,96.06454329999997,96.06454329999997,96.06454329999997,96.06454329999997,002,P002,2025_Jan_18_1008,CategoryLocalizer,2021.2.3,59.91529176069127,
60.8,61.0,5,0.0,Stimuli\Blank.png,0,0,0,98,98,98,,,,,,,,,,,,,60.83510920000026,0.03510920000026374,None,,96.86522010000044,96.86522010000044,96.86522010000044,96.86522010000044,96.86522010000044,96.86522010000044,96.86522010000044,96.86522010000044,002,P002,2025_Jan_18_1008,CategoryLocalizer,2021.2.3,59.91529176069127,
61.0,61.8,4,0.75,Stimuli\ImageFiles-Set2\Scenes\Scenes_084.png,1,1,0,99,99,99,,,,,,,,,,,,,61.0016712000006,0.0016712000006009475,1,0.4283943000000363,97.04871470000035,97.04871470000035,97.04871470000035,97.04871470000035,97.04871470000035,97.04871470000035,97.04871470000035,97.04871470000035,002,P002,2025_Jan_18_1008,CategoryLocalizer,2021.2.3,59.91529176069127,
61.8,62.0,5,0.0,Stimuli\Blank.png,0,0,0,100,100,100,,,,,,,,,,,,,61.819405400000505,0.019405400000508166,None,,97.84941919999983,97.84941919999983,97.84941919999983,97.84941919999983,97.84941919999983,97.84941919999983,97.84941919999983,97.84941919999983,002,P002,2025_Jan_18_1008,CategoryLocalizer,2021.2.3,59.91529176069127,
62.0,62.8,4,0.75,Stimuli\ImageFiles-Set2\Scenes\Scenes_082.png,0,0,0,101,101,101,,,,,,,,,,,,,62.002786600000036,0.0027866000000358326,None,,98.06627889999982,98.06627889999982,98.06627889999982,98.06627889999982,98.06627889999982,98.06627889999982,98.06627889999982,98.06627889999982,002,P002,2025_Jan_18_1008,CategoryLocalizer,2021.2.3,59.91529176069127,
62.8,63.0,5,0.0,Stimuli\Blank.png,0,0,0,102,102,102,,,,,,,,,,,,,62.83769260000008,0.03769260000008501,None,,98.86698369999976,98.86698369999976,98.86698369999976,98.86698369999976,98.86698369999976,98.86698369999976,98.86698369999976,98.86698369999976,002,P002,2025_Jan_18_1008,CategoryLocalizer,2021.2.3,59.91529176069127,
63.0,63.8,4,0.75,Stimuli\ImageFiles-Set2\Scenes\Scenes_093.png,0,0,0,103,103,103,,,,,,,,,,,,,63.00374550000015,0.0037455000001500593,None,,99.06715919999988,99.06715919999988,99.06715919999988,99.06715919999988,99.06715919999988,99.06715919999988,99.06715919999988,99.06715919999988,002,P002,2025_Jan_18_1008,CategoryLocalizer,2021.2.3,59.91529176069127,
63.8,64.0,5,0.0,Stimuli\Blank.png,0,0,0,104,104,104,,,,,,,,,,,,,63.838250400000106,0.03825040000010915,None,,99.86786639999991,99.86786639999991,99.86786639999991,99.86786639999991,99.86786639999991,99.86786639999991,99.86786639999991,99.86786639999991,002,P002,2025_Jan_18_1008,CategoryLocalizer,2021.2.3,59.91529176069127,
64.0,64.8,4,0.75,Stimuli\ImageFiles-Set2\Scenes\Scenes_076.png,0,0,0,105,105,105,,,,,,,,,,,,,64.00432400000045,0.004324000000451633,None,,100.06805450000047,100.06805450000047,100.06805450000047,100.06805450000047,100.06805450000047,100.06805450000047,100.06805450000047,100.06805450000047,002,P002,2025_Jan_18_1008,CategoryLocalizer,2021.2.3,59.91529176069127,
64.8,65.0,5,0.0,Stimuli\Blank.png,0,0,0,106,106,106,,,,,,,,,,,,,64.83865250000053,0.03865250000053777,None,,100.86874259999968,100.86874259999968,100.86874259999968,100.86874259999968,100.86874259999968,100.86874259999968,100.86874259999968,100.86874259999968,002,P002,2025_Jan_18_1008,CategoryLocalizer,2021.2.3,59.91529176069127,
65.0,65.8,4,0.75,Stimuli\ImageFiles-Set2\Scenes\Scenes_101.png,0,0,0,107,107,107,,,,,,,,,,,,,65.00780279999981,0.007802799999808485,None,,101.06894629999988,101.06894629999988,101.06894629999988,101.06894629999988,101.06894629999988,101.06894629999988,101.06894629999988,101.06894629999988,002,P002,2025_Jan_18_1008,CategoryLocalizer,2021.2.3,59.91529176069127,
65.8,66.0,5,0.0,Stimuli\Blank.png,0,0,0,108,108,108,,,,,,,,,,,,,65.84005179999986,0.04005179999985842,5,0.13457180000023072,101.86962589999985,101.86962589999985,101.86962589999985,101.86962589999985,101.86962589999985,101.86962589999985,101.86962589999985,101.86962589999985,002,P002,2025_Jan_18_1008,CategoryLocalizer,2021.2.3,59.91529176069127,
66.0,66.8,4,0.75,Stimuli\ImageFiles-Set2\Scenes\Scenes_111.png,0,0,0,109,109,109,,,,,,,,,,,,,66.00650719999976,0.006507199999759905,None,,102.06981079999969,102.06981079999969,102.06981079999969,102.06981079999969,102.06981079999969,102.06981079999969,102.06981079999969,102.06981079999969,002,P002,2025_Jan_18_1008,CategoryLocalizer,2021.2.3,59.91529176069127,
66.8,67.0,5,0.0,Stimuli\Blank.png,0,0,0,110,110,110,,,,,,,,,,,,,66.84276500000033,0.04276500000032968,None,,102.88719519999995,102.88719519999995,102.88719519999995,102.88719519999995,102.88719519999995,102.88719519999995,102.88719519999995,102.88719519999995,002,P002,2025_Jan_18_1008,CategoryLocalizer,2021.2.3,59.91529176069127,
67.0,67.8,4,0.75,Stimuli\ImageFiles-Set2\Scenes\Scenes_075.png,0,0,0,111,111,111,,,,,,,,,,,,,67.0241418000005,0.02414180000050692,None,,103.08736570000019,103.08736570000019,103.08736570000019,103.08736570000019,103.08736570000019,103.08736570000019,103.08736570000019,103.08736570000019,002,P002,2025_Jan_18_1008,CategoryLocalizer,2021.2.3,59.91529176069127,
67.8,68.0,5,0.0,Stimuli\Blank.png,0,0,0,112,112,112,,,,,,,,,,,,,67.84147680000024,0.04147680000023968,5,0.1329094000002442,103.87137950000033,103.87137950000033,103.87137950000033,103.87137950000033,103.87137950000033,103.87137950000033,103.87137950000033,103.87137950000033,002,P002,2025_Jan_18_1008,CategoryLocalizer,2021.2.3,59.91529176069127,
68.0,68.8,4,0.75,Stimuli\ImageFiles-Set2\Scenes\Scenes_110.png,0,0,0,113,113,113,,,,,,,,,,,,,68.00864640000054,0.008646400000543508,None,,104.05491559999973,104.05491559999973,104.05491559999973,104.05491559999973,104.05491559999973,104.05491559999973,104.05491559999973,104.05491559999973,002,P002,2025_Jan_18_1008,CategoryLocalizer,2021.2.3,59.91529176069127,
68.8,69.0,5,0.0,Stimuli\Blank.png,0,0,0,114,114,114,,,,,,,,,,,,,68.82548889999998,0.025488899999984937,None,,104.85558130000027,104.85558130000027,104.85558130000027,104.85558130000027,104.85558130000027,104.85558130000027,104.85558130000027,104.85558130000027,002,P002,2025_Jan_18_1008,CategoryLocalizer,2021.2.3,59.91529176069127,
69.0,69.8,4,0.75,Stimuli\ImageFiles-Set2\Scenes\Scenes_099.png,0,0,0,115,115,115,,,,,,,,,,,,,69.00908510000045,0.00908510000044771,None,,105.07244040000023,105.07244040000023,105.07244040000023,105.07244040000023,105.07244040000023,105.07244040000023,105.07244040000023,105.07244040000023,002,P002,2025_Jan_18_1008,CategoryLocalizer,2021.2.3,59.91529176069127,
69.8,70.0,5,0.0,Stimuli\Blank.png,0,0,0,116,116,116,,,,,,,,,,,,,69.84330730000056,0.04330730000056349,5,0.13100560000020778,105.87314479999986,105.87314479999986,105.87314479999986,105.87314479999986,105.87314479999986,105.87314479999986,105.87314479999986,105.87314479999986,002,P002,2025_Jan_18_1008,CategoryLocalizer,2021.2.3,59.91529176069127,
70.0,70.8,4,0.75,Stimuli\ImageFiles-Set2\Scenes\Scenes_063.png,0,0,0,117,117,117,,,,,,,,,,,,,70.00983090000045,0.009830900000451948,None,,106.05665070000032,106.05665070000032,106.05665070000032,106.05665070000032,106.05665070000032,106.05665070000032,106.05665070000032,106.05665070000032,002,P002,2025_Jan_18_1008,CategoryLocalizer,2021.2.3,59.91529176069127,
70.8,71.0,5,0.0,Stimuli\Blank.png,0,0,0,118,118,118,,,,,,,,,,,,,70.82731969999986,0.02731969999986461,None,,106.85734760000014,106.85734760000014,106.85734760000014,106.85734760000014,106.85734760000014,106.85734760000014,106.85734760000014,106.85734760000014,002,P002,2025_Jan_18_1008,CategoryLocalizer,2021.2.3,59.91529176069127,
71.0,71.8,4,0.75,Stimuli\ImageFiles-Set2\Scenes\Scenes_088.png,0,0,0,119,119,119,,,,,,,,,,,,,71.0125122999998,0.012512299999798415,None,,107.05753120000008,107.05753120000008,107.05753120000008,107.05753120000008,107.05753120000008,107.05753120000008,107.05753120000008,107.05753120000008,002,P002,2025_Jan_18_1008,CategoryLocalizer,2021.2.3,59.91529176069127,
71.8,72.0,5,0.0,Stimuli\Blank.png,0,0,0,120,120,120,,,,,,,,,,,,,71.82855500000005,0.028555000000054065,5,0.14581669999915903,107.85822449999978,107.85822449999978,107.85822449999978,107.85822449999978,107.85822449999978,107.85822449999978,107.85822449999978,107.85822449999978,002,P002,2025_Jan_18_1008,CategoryLocalizer,2021.2.3,59.91529176069127,
72.0,72.8,4,0.75,Stimuli\ImageFiles-Set2\Scenes\Scenes_085.png,0,0,0,121,121,121,,,,,,,,,,,,,72.01196400000026,0.011964000000261876,None,,108.07509600000049,108.07509600000049,108.07509600000049,108.07509600000049,108.07509600000049,108.07509600000049,108.07509600000049,108.07509600000049,002,P002,2025_Jan_18_1008,CategoryLocalizer,2021.2.3,59.91529176069127,
72.8,73.0,5,0.0,Stimuli\Blank.png,0,0,0,122,122,122,,,,,,,,,,,,,72.84618690000025,0.04618690000025083,None,,108.89247660000001,108.89247660000001,108.89247660000001,108.89247660000001,108.89247660000001,108.89247660000001,108.89247660000001,108.89247660000001,002,P002,2025_Jan_18_1008,CategoryLocalizer,2021.2.3,59.91529176069127,
73.0,73.8,4,0.75,Stimuli\ImageFiles-Set2\Scenes\Scenes_073.png,1,1,0,123,123,123,,,,,,,,,,,,,73.02976930000023,0.029769300000225485,None,,109.07596459999968,109.07596459999968,109.07596459999968,109.07596459999968,109.07596459999968,109.07596459999968,109.07596459999968,109.07596459999968,002,P002,2025_Jan_18_1008,CategoryLocalizer,2021.2.3,59.91529176069127,
73.8,74.0,5,0.0,Stimuli\Blank.png,0,0,0,124,124,124,,,,,,,,,,,,,73.82947710000008,0.029477100000079304,5,0.14430989999982557,109.85999160000028,109.85999160000028,109.85999160000028,109.85999160000028,109.85999160000028,109.85999160000028,109.85999160000028,109.85999160000028,002,P002,2025_Jan_18_1008,CategoryLocalizer,2021.2.3,59.91529176069127,
74.0,74.8,4,0.75,Stimuli\ImageFiles-Set2\Scenes\Scenes_107.png,0,0,0,125,125,125,,,,,,,,,,,,,74.01394830000027,0.01394830000026559,None,,110.0768420000004,110.0768420000004,110.0768420000004,110.0768420000004,110.0768420000004,110.0768420000004,110.0768420000004,110.0768420000004,002,P002,2025_Jan_18_1008,CategoryLocalizer,2021.2.3,59.91529176069127,
74.8,75.0,5,0.0,Stimuli\Blank.png,0,0,0,126,126,126,,,,,,,,,,,,,74.84768900000017,0.04768900000017595,None,,110.87754370000039,110.87754370000039,110.87754370000039,110.87754370000039,110.87754370000039,110.87754370000039,110.87754370000039,110.87754370000039,002,P002,2025_Jan_18_1008,CategoryLocalizer,2021.2.3,59.91529176069127,
75.0,75.8,4,0.75,Stimuli\ImageFiles-Set2\Scenes\Scenes_107.png,0,0,0,127,127,127,,,,,,,,,,,,,75.01440640000055,0.014406400000552821,1,0.3636709000002156,111.04435860000012,111.04435860000012,111.04435860000012,111.04435860000012,111.04435860000012,111.04435860000012,111.04435860000012,111.04435860000012,002,P002,2025_Jan_18_1008,CategoryLocalizer,2021.2.3,59.91529176069127,
75.8,76.0,5,0.0,Stimuli\Blank.png,0,0,0,128,128,128,,,,,,,,,,,,,75.81532330000027,0.015323300000275708,5,0.1589837000001353,111.84506810000039,111.84506810000039,111.84506810000039,111.84506810000039,111.84506810000039,111.84506810000039,111.84506810000039,111.84506810000039,002,P002,2025_Jan_18_1008,CategoryLocalizer,2021.2.3,59.91529176069127,
76.0,88.0,0,0.0,Stimuli\Blank.png,0,0,0,129,129,129,,,,,,,,,,,,,76.01571520000016,0.015715200000158802,5,11.958825300000171,112.04526420000002,112.04526420000002,112.04526420000002,112.04526420000002,112.04526420000002,112.04526420000002,112.04526420000002,112.04526420000002,002,P002,2025_Jan_18_1008,CategoryLocalizer,2021.2.3,59.91529176069127,
88.0,88.8,3,0.75,Stimuli\ImageFiles-Set2\Faces\Face_00090.png,0,0,0,130,130,130,,,,,,,,,,,,,88.00928110000041,0.009281100000407605,None,,124.05583810000007,124.05583810000007,124.05583810000007,124.05583810000007,124.05583810000007,124.05583810000007,124.05583810000007,124.05583810000007,002,P002,2025_Jan_18_1008,CategoryLocalizer,2021.2.3,59.91529176069127,
88.8,89.0,5,0.0,Stimuli\Blank.png,0,0,0,131,131,131,,,,,,,,,,,,,88.8279806999999,0.02798069999990105,None,,124.85653079999975,124.85653079999975,124.85653079999975,124.85653079999975,124.85653079999975,124.85653079999975,124.85653079999975,124.85653079999975,002,P002,2025_Jan_18_1008,CategoryLocalizer,2021.2.3,59.91529176069127,
89.0,89.8,3,0.75,Stimuli\ImageFiles-Set2\Faces\Face_00052.png,0,0,0,132,132,132,,,,,,,,,,,,,89.0110236999999,0.011023699999896053,None,,125.05669980000039,125.05669980000039,125.05669980000039,125.05669980000039,125.05669980000039,125.05669980000039,125.05669980000039,125.05669980000039,002,P002,2025_Jan_18_1008,CategoryLocalizer,2021.2.3,59.91529176069127,
89.8,90.0,5,0.0,Stimuli\Blank.png,0,0,0,133,133,133,,,,,,,,,,,,,89.82831299999998,0.028312999999982935,5,0.14656019999983982,125.85739860000012,125.85739860000012,125.85739860000012,125.85739860000012,125.85739860000012,125.85739860000012,125.85739860000012,125.85739860000012,002,P002,2025_Jan_18_1008,CategoryLocalizer,2021.2.3,59.91529176069127,
90.0,90.8,3,0.75,Stimuli\ImageFiles-Set2\Faces\Face_00052.png,1,1,0,134,134,134,,,,,,,,,,,,,90.01141600000028,0.011416000000281201,1,0.4991970000000947,126.04088880000018,126.04088880000018,126.04088880000018,126.04088880000018,126.04088880000018,126.04088880000018,126.04088880000018,126.04088880000018,002,P002,2025_Jan_18_1008,CategoryLocalizer,2021.2.3,59.91529176069127,
90.8,91.0,5,0.0,Stimuli\Blank.png,0,0,0,135,135,135,,,,,,,,,,,,,90.8130669000002,0.013066900000197279,None,,126.85828109999966,126.85828109999966,126.85828109999966,126.85828109999966,126.85828109999966,126.85828109999966,126.85828109999966,126.85828109999966,002,P002,2025_Jan_18_1008,CategoryLocalizer,2021.2.3,59.91529176069127,
91.0,91.8,3,0.75,Stimuli\ImageFiles-Set2\Faces\Face_00112.png,0,0,0,136,136,136,,,,,,,,,,,,,91.02884220000033,0.028842200000326557,None,,127.07514809999975,127.07514809999975,127.07514809999975,127.07514809999975,127.07514809999975,127.07514809999975,127.07514809999975,127.07514809999975,002,P002,2025_Jan_18_1008,CategoryLocalizer,2021.2.3,59.91529176069127,
91.8,92.0,5,0.0,Stimuli\Blank.png,0,0,0,137,137,137,,,,,,,,,,,,,91.82947849999982,0.029478499999825658,5,0.1449722000006659,127.85915740000019,127.85915740000019,127.85915740000019,127.85915740000019,127.85915740000019,127.85915740000019,127.85915740000019,127.85915740000019,002,P002,2025_Jan_18_1008,CategoryLocalizer,2021.2.3,59.91529176069127,
92.0,92.8,3,0.75,Stimuli\ImageFiles-Set2\Faces\Face_00114.png,0,0,0,138,138,138,,,,,,,,,,,,,92.01353889999973,0.013538899999730347,None,,128.05932819999998,128.05932819999998,128.05932819999998,128.05932819999998,128.05932819999998,128.05932819999998,128.05932819999998,128.05932819999998,002,P002,2025_Jan_18_1008,CategoryLocalizer,2021.2.3,59.91529176069127,
92.8,93.0,5,0.0,Stimuli\Blank.png,0,0,0,139,139,139,,,,,,,,,,,,,92.83100160000049,0.031001600000493568,None,,128.8600395000003,128.8600395000003,128.8600395000003,128.8600395000003,128.8600395000003,128.8600395000003,128.8600395000003,128.8600395000003,002,P002,2025_Jan_18_1008,CategoryLocalizer,2021.2.3,59.91529176069127,
93.0,93.8,3,0.75,Stimuli\ImageFiles-Set2\Faces\Face_00026.png,0,0,0,140,140,140,,,,,,,,,,,,,93.01409330000024,0.01409330000024056,None,,129.0602283999997,129.0602283999997,129.0602283999997,129.0602283999997,129.0602283999997,129.0602283999997,129.0602283999997,129.0602283999997,002,P002,2025_Jan_18_1008,CategoryLocalizer,2021.2.3,59.91529176069127,
93.8,94.0,5,0.0,Stimuli\Blank.png,0,0,0,141,141,141,,,,,,,,,,,,,93.83044770000015,0.030447700000152622,5,0.14320239999960904,129.86092089999966,129.86092089999966,129.86092089999966,129.86092089999966,129.86092089999966,129.86092089999966,129.86092089999966,129.86092089999966,002,P002,2025_Jan_18_1008,CategoryLocalizer,2021.2.3,59.91529176069127,
94.0,94.8,3,0.75,Stimuli\ImageFiles-Set2\Faces\Face_00044.png,0,0,0,142,142,142,,,,,,,,,,,,,94.01391320000039,0.013913200000388315,None,,130.0610873000005,130.0610873000005,130.0610873000005,130.0610873000005,130.0610873000005,130.0610873000005,130.0610873000005,130.0610873000005,002,P002,2025_Jan_18_1008,CategoryLocalizer,2021.2.3,59.91529176069127,
94.8,95.0,5,0.0,Stimuli\Blank.png,0,0,0,143,143,143,,,,,,,,,,,,,94.83219720000034,0.032197200000339876,None,,130.86179509999965,130.86179509999965,130.86179509999965,130.86179509999965,130.86179509999965,130.86179509999965,130.86179509999965,130.86179509999965,002,P002,2025_Jan_18_1008,CategoryLocalizer,2021.2.3,59.91529176069127,
95.0,95.8,3,0.75,Stimuli\ImageFiles-Set2\Faces\Face_00036.png,0,0,0,144,144,144,,,,,,,,,,,,,94.99887070000023,-0.0011292999997749575,None,,131.04536949999965,131.04536949999965,131.04536949999965,131.04536949999965,131.04536949999965,131.04536949999965,131.04536949999965,131.04536949999965,002,P002,2025_Jan_18_1008,CategoryLocalizer,2021.2.3,59.91529176069127,
95.8,96.0,5,0.0,Stimuli\Blank.png,0,0,0,145,145,145,,,,,,,,,,,,,95.8170140000002,0.017014000000202145,None,,131.8460014000002,131.8460014000002,131.8460014000002,131.8460014000002,131.8460014000002,131.8460014000002,131.8460014000002,131.8460014000002,002,P002,2025_Jan_18_1008,CategoryLocalizer,2021.2.3,59.91529176069127,
96.0,96.8,3,0.75,Stimuli\ImageFiles-Set2\Faces\Face_00074.png,0,0,0,146,146,146,,,,,,,,,,,,,96.00006570000005,6.570000005012844e-05,None,,132.0628458000001,132.0628458000001,132.0628458000001,132.0628458000001,132.0628458000001,132.0628458000001,132.0628458000001,132.0628458000001,002,P002,2025_Jan_18_1008,CategoryLocalizer,2021.2.3,59.91529176069127,
96.8,97.0,5,0.0,Stimuli\Blank.png,0,0,0,147,147,147,,,,,,,,,,,,,96.83401950000007,0.03401950000007048,None,,132.86355989999993,132.86355989999993,132.86355989999993,132.86355989999993,132.86355989999993,132.86355989999993,132.86355989999993,132.86355989999993,002,P002,2025_Jan_18_1008,CategoryLocalizer,2021.2.3,59.91529176069127,
97.0,97.8,3,0.75,Stimuli\ImageFiles-Set2\Faces\Face_00082.png,0,0,0,148,148,148,,,,,,,,,,,,,97.0009785000002,0.0009785000002011657,None,,133.04706460000034,133.04706460000034,133.04706460000034,133.04706460000034,133.04706460000034,133.04706460000034,133.04706460000034,133.04706460000034,002,P002,2025_Jan_18_1008,CategoryLocalizer,2021.2.3,59.91529176069127,
97.8,98.0,5,0.0,Stimuli\Blank.png,0,0,0,149,149,149,,,,,,,,,,,,,97.81734120000056,0.017341200000558388,None,,133.84775830000035,133.84775830000035,133.84775830000035,133.84775830000035,133.84775830000035,133.84775830000035,133.84775830000035,133.84775830000035,002,P002,2025_Jan_18_1008,CategoryLocalizer,2021.2.3,59.91529176069127,
98.0,98.8,3,0.75,Stimuli\ImageFiles-Set2\Faces\Face_00104.png,0,0,0,150,150,150,,,,,,,,,,,,,98.00074289999975,0.0007428999997500796,None,,134.03125619999992,134.03125619999992,134.03125619999992,134.03125619999992,134.03125619999992,134.03125619999992,134.03125619999992,134.03125619999992,002,P002,2025_Jan_18_1008,CategoryLocalizer,2021.2.3,59.91529176069127,
98.8,99.0,5,0.0,Stimuli\Blank.png,0,0,0,151,151,151,,,,,,,,,,,,,98.8021976,0.0021976000000023532,None,,134.83196190000035,134.83196190000035,134.83196190000035,134.83196190000035,134.83196190000035,134.83196190000035,134.83196190000035,134.83196190000035,002,P002,2025_Jan_18_1008,CategoryLocalizer,2021.2.3,59.91529176069127,
99.0,99.8,3,0.75,Stimuli\ImageFiles-Set2\Faces\Face_00028.png,1,1,0,152,152,152,,,,,,,,,,,,,99.00216189999992,0.0021618999999191146,None,,135.04882879999968,135.04882879999968,135.04882879999968,135.04882879999968,135.04882879999968,135.04882879999968,135.04882879999968,135.04882879999968,002,P002,2025_Jan_18_1008,CategoryLocalizer,2021.2.3,59.91529176069127,
99.8,100.0,5,0.0,Stimuli\Blank.png,0,0,0,153,153,153,,,,,,,,,,,,,99.82015969999975,0.02015969999975198,None,,135.84972160000052,135.84972160000052,135.84972160000052,135.84972160000052,135.84972160000052,135.84972160000052,135.84972160000052,135.84972160000052,002,P002,2025_Jan_18_1008,CategoryLocalizer,2021.2.3,59.91529176069127,
100.0,100.8,3,0.75,Stimuli\ImageFiles-Set2\Faces\Face_00019.png,0,0,0,154,154,154,,,,,,,,,,,,,100.00358730000062,0.003587300000617688,None,,136.06639280000036,136.06639280000036,136.06639280000036,136.06639280000036,136.06639280000036,136.06639280000036,136.06639280000036,136.06639280000036,002,P002,2025_Jan_18_1008,CategoryLocalizer,2021.2.3,59.91529176069127,
100.8,101.0,5,0.0,Stimuli\Blank.png,0,0,0,155,155,155,,,,,,,,,,,,,100.83817340000041,0.038173400000417246,None,,136.86708780000026,136.86708780000026,136.86708780000026,136.86708780000026,136.86708780000026,136.86708780000026,136.86708780000026,136.86708780000026,002,P002,2025_Jan_18_1008,CategoryLocalizer,2021.2.3,59.91529176069127,
101.0,101.8,3,0.75,Stimuli\ImageFiles-Set2\Faces\Face_00019.png,0,0,0,156,156,156,,,,,,,,,,,,,101.00409529999979,0.004095299999789859,1,0.41318740000042453,137.0338638000003,137.0338638000003,137.0338638000003,137.0338638000003,137.0338638000003,137.0338638000003,137.0338638000003,137.0338638000003,002,P002,2025_Jan_18_1008,CategoryLocalizer,2021.2.3,59.91529176069127,
101.8,102.0,5,0.0,Stimuli\Blank.png,0,0,0,157,157,157,,,,,,,,,,,,,101.80511620000016,0.005116200000159665,None,,137.83459800000037,137.83459800000037,137.83459800000037,137.83459800000037,137.83459800000037,137.83459800000037,137.83459800000037,137.83459800000037,002,P002,2025_Jan_18_1008,CategoryLocalizer,2021.2.3,59.91529176069127,
102.0,102.8,3,0.75,Stimuli\ImageFiles-Set2\Faces\Face_00013.png,0,0,0,158,158,158,,,,,,,,,,,,,102.00533189999987,0.005331899999873713,None,,138.05145840000023,138.05145840000023,138.05145840000023,138.05145840000023,138.05145840000023,138.05145840000023,138.05145840000023,138.05145840000023,002,P002,2025_Jan_18_1008,CategoryLocalizer,2021.2.3,59.91529176069127,
102.8,103.0,5,0.0,Stimuli\Blank.png,0,0,0,159,159,159,,,,,,,,,,,,,102.82176630000049,0.02176630000049329,None,,138.85220819999995,138.85220819999995,138.85220819999995,138.85220819999995,138.85220819999995,138.85220819999995,138.85220819999995,138.85220819999995,002,P002,2025_Jan_18_1008,CategoryLocalizer,2021.2.3,59.91529176069127,
103.0,103.8,3,0.75,Stimuli\ImageFiles-Set2\Faces\Face_00080.png,0,0,0,160,160,160,,,,,,,,,,,,,103.00737970000046,0.007379700000456069,None,,139.05233490000046,139.05233490000046,139.05233490000046,139.05233490000046,139.05233490000046,139.05233490000046,139.05233490000046,139.05233490000046,002,P002,2025_Jan_18_1008,CategoryLocalizer,2021.2.3,59.91529176069127,
103.8,104.0,5,0.0,Stimuli\Blank.png,0,0,0,161,161,161,,,,,,,,,,,,,103.82357589999992,0.023575899999926264,5,0.15092039999944973,139.85304199999973,139.85304199999973,139.85304199999973,139.85304199999973,139.85304199999973,139.85304199999973,139.85304199999973,139.85304199999973,002,P002,2025_Jan_18_1008,CategoryLocalizer,2021.2.3,59.91529176069127,
104.0,104.8,1,0.75,Stimuli\ImageFiles-Set2\Objects\Object_Brick_00001.png,0,0,0,162,162,162,,,,,,,,,,,,,104.00746770000023,0.00746770000023389,None,,140.05321819999972,140.05321819999972,140.05321819999972,140.05321819999972,140.05321819999972,140.05321819999972,140.05321819999972,140.05321819999972,002,P002,2025_Jan_18_1008,CategoryLocalizer,2021.2.3,59.91529176069127,
104.8,105.0,5,0.0,Stimuli\Blank.png,0,0,0,163,163,163,,,,,,,,,,,,,104.8237794000006,0.023779400000606188,None,,140.8539767000002,140.8539767000002,140.8539767000002,140.8539767000002,140.8539767000002,140.8539767000002,140.8539767000002,140.8539767000002,002,P002,2025_Jan_18_1008,CategoryLocalizer,2021.2.3,59.91529176069127,
105.0,105.8,1,0.75,Stimuli\ImageFiles-Set2\Objects\Object_Pepper_00001.png,0,0,0,164,164,164,,,,,,,,,,,,,105.00728010000057,0.00728010000057111,None,,141.05410610000035,141.05410610000035,141.05410610000035,141.05410610000035,141.05410610000035,141.05410610000035,141.05410610000035,141.05410610000035,002,P002,2025_Jan_18_1008,CategoryLocalizer,2021.2.3,59.91529176069127,
105.8,106.0,5,0.0,Stimuli\Blank.png,0,0,0,165,165,165,,,,,,,,,,,,,105.82448000000022,0.024480000000224322,5,0.1492273000003479,141.85479769999984,141.85479769999984,141.85479769999984,141.85479769999984,141.85479769999984,141.85479769999984,141.85479769999984,141.85479769999984,002,P002,2025_Jan_18_1008,CategoryLocalizer,2021.2.3,59.91529176069127,
106.0,106.8,1,0.75,Stimuli\ImageFiles-Set2\Objects\Object_Razor_00001.png,0,0,0,166,166,166,,,,,,,,,,,,,106.00782619999973,0.007826199999726668,None,,142.05502069999966,142.05502069999966,142.05502069999966,142.05502069999966,142.05502069999966,142.05502069999966,142.05502069999966,142.05502069999966,002,P002,2025_Jan_18_1008,CategoryLocalizer,2021.2.3,59.91529176069127,
106.8,107.0,5,0.0,Stimuli\Blank.png,0,0,0,167,167,167,,,,,,,,,,,,,106.82731179999973,0.027311799999736763,None,,142.87238489999982,142.87238489999982,142.87238489999982,142.87238489999982,142.87238489999982,142.87238489999982,142.87238489999982,142.87238489999982,002,P002,2025_Jan_18_1008,CategoryLocalizer,2021.2.3,59.91529176069127,
107.0,107.8,1,0.75,Stimuli\ImageFiles-Set2\Objects\Object_Champagne_00001.png,0,0,0,168,168,168,,,,,,,,,,,,,107.02776360000007,0.027763600000071165,None,,143.07256940000025,143.07256940000025,143.07256940000025,143.07256940000025,143.07256940000025,143.07256940000025,143.07256940000025,143.07256940000025,002,P002,2025_Jan_18_1008,CategoryLocalizer,2021.2.3,59.91529176069127,
107.8,108.0,5,0.0,Stimuli\Blank.png,0,0,0,169,169,169,,,,,,,,,,,,,107.82854790000056,0.028547900000560844,5,0.13065370000003895,143.87325299999975,143.87325299999975,143.87325299999975,143.87325299999975,143.87325299999975,143.87325299999975,143.87325299999975,143.87325299999975,002,P002,2025_Jan_18_1008,CategoryLocalizer,2021.2.3,59.91529176069127,
108.0,108.8,1,0.75,Stimuli\ImageFiles-Set2\Objects\Object_Microphone_00001.png,0,0,0,170,170,170,,,,,,,,,,,,,108.02710819999993,0.02710819999992964,None,,144.05673970000043,144.05673970000043,144.05673970000043,144.05673970000043,144.05673970000043,144.05673970000043,144.05673970000043,144.05673970000043,002,P002,2025_Jan_18_1008,CategoryLocalizer,2021.2.3,59.91529176069127,
108.8,109.0,5,0.0,Stimuli\Blank.png,0,0,0,171,171,171,,,,,,,,,,,,,108.8116170000003,0.011617000000299527,None,,144.84078520000003,144.84078520000003,144.84078520000003,144.84078520000003,144.84078520000003,144.84078520000003,144.84078520000003,144.84078520000003,002,P002,2025_Jan_18_1008,CategoryLocalizer,2021.2.3,59.91529176069127,
109.0,109.8,1,0.75,Stimuli\ImageFiles-Set2\Objects\Object_Walker_00001.png,0,0,0,172,172,172,,,,,,,,,,,,,109.01161820000016,0.01161820000015723,None,,145.05761100000018,145.05761100000018,145.05761100000018,145.05761100000018,145.05761100000018,145.05761100000018,145.05761100000018,145.05761100000018,002,P002,2025_Jan_18_1008,CategoryLocalizer,2021.2.3,59.91529176069127,
109.8,110.0,5,0.0,Stimuli\Blank.png,0,0,0,173,173,173,,,,,,,,,,,,,109.828348,0.028348000000008255,5,0.14560729999993782,145.85831849999977,145.85831849999977,145.85831849999977,145.85831849999977,145.85831849999977,145.85831849999977,145.85831849999977,145.85831849999977,002,P002,2025_Jan_18_1008,CategoryLocalizer,2021.2.3,59.91529176069127,
110.0,110.8,1,0.75,Stimuli\ImageFiles-Set2\Objects\Object_Walker_00001.png,1,1,0,174,174,174,,,,,,,,,,,,,110.01184209999974,0.01184209999973973,1,0.46619379999992816,146.0418225000003,146.0418225000003,146.0418225000003,146.0418225000003,146.0418225000003,146.0418225000003,146.0418225000003,146.0418225000003,002,P002,2025_Jan_18_1008,CategoryLocalizer,2021.2.3,59.91529176069127,
110.8,111.0,5,0.0,Stimuli\Blank.png,0,0,0,175,175,175,,,,,,,,,,,,,110.81330239999988,0.013302399999886916,None,,146.84252800000013,146.84252800000013,146.84252800000013,146.84252800000013,146.84252800000013,146.84252800000013,146.84252800000013,146.84252800000013,002,P002,2025_Jan_18_1008,CategoryLocalizer,2021.2.3,59.91529176069127,
111.0,111.8,1,0.75,Stimuli\ImageFiles-Set2\Objects\Object_Refrigerator_00001.png,0,0,0,176,176,176,,,,,,,,,,,,,111.01216939999995,0.012169399999947927,None,,147.05941960000018,147.05941960000018,147.05941960000018,147.05941960000018,147.05941960000018,147.05941960000018,147.05941960000018,147.05941960000018,002,P002,2025_Jan_18_1008,CategoryLocalizer,2021.2.3,59.91529176069127,
111.8,112.0,5,0.0,Stimuli\Blank.png,0,0,0,177,177,177,,,,,,,,,,,,,111.83035670000027,0.030356700000268688,5,0.14396060000035504,147.8601620999998,147.8601620999998,147.8601620999998,147.8601620999998,147.8601620999998,147.8601620999998,147.8601620999998,147.8601620999998,002,P002,2025_Jan_18_1008,CategoryLocalizer,2021.2.3,59.91529176069127,
112.0,112.8,1,0.75,Stimuli\ImageFiles-Set2\Objects\Object_Desk_00001.png,0,0,0,178,178,178,,,,,,,,,,,,,112.0133065,0.013306499999998778,None,,148.06028229999993,148.06028229999993,148.06028229999993,148.06028229999993,148.06028229999993,148.06028229999993,148.06028229999993,148.06028229999993,002,P002,2025_Jan_18_1008,CategoryLocalizer,2021.2.3,59.91529176069127,
112.8,113.0,5,0.0,Stimuli\Blank.png,0,0,0,179,179,179,,,,,,,,,,,,,112.8332319000001,0.033231900000103565,None,,148.8776527,148.8776527,148.8776527,148.8776527,148.8776527,148.8776527,148.8776527,148.8776527,002,P002,2025_Jan_18_1008,CategoryLocalizer,2021.2.3,59.91529176069127,
113.0,113.8,1,0.75,Stimuli\ImageFiles-Set2\Objects\Object_Pitcher_00001.png,0,0,0,180,180,180,,,,,,,,,,,,,113.01486810000006,0.014868100000057893,None,,149.04445709999982,149.04445709999982,149.04445709999982,149.04445709999982,149.04445709999982,149.04445709999982,149.04445709999982,149.04445709999982,002,P002,2025_Jan_18_1008,CategoryLocalizer,2021.2.3,59.91529176069127,
113.8,114.0,5,0.0,Stimuli\Blank.png,0,0,0,181,181,181,,,,,,,,,,,,,113.81734419999975,0.017344199999755006,5,0.14202910000039992,149.86186819999966,149.86186819999966,149.86186819999966,149.86186819999966,149.86186819999966,149.86186819999966,149.86186819999966,149.86186819999966,002,P002,2025_Jan_18_1008,CategoryLocalizer,2021.2.3,59.91529176069127,
114.0,114.8,1,0.75,Stimuli\ImageFiles-Set2\Objects\Object_WaterCooler_00001.png,0,0,0,182,182,182,,,,,,,,,,,,,114.01510890000009,0.015108900000086578,None,,150.06203509999978,150.06203509999978,150.06203509999978,150.06203509999978,150.06203509999978,150.06203509999978,150.06203509999978,150.06203509999978,002,P002,2025_Jan_18_1008,CategoryLocalizer,2021.2.3,59.91529176069127,
114.8,115.0,5,0.0,Stimuli\Blank.png,0,0,0,183,183,183,,,,,,,,,,,,,114.81780450000042,0.017804500000423218,None,,150.8627475000003,150.8627475000003,150.8627475000003,150.8627475000003,150.8627475000003,150.8627475000003,150.8627475000003,150.8627475000003,002,P002,2025_Jan_18_1008,CategoryLocalizer,2021.2.3,59.91529176069127,
115.0,115.8,1,0.75,Stimuli\ImageFiles-Set2\Objects\Object_Couch_00001.png,0,0,0,184,184,184,,,,,,,,,,,,,115.01826090000031,0.018260900000313995,None,,151.06292250000024,151.06292250000024,151.06292250000024,151.06292250000024,151.06292250000024,151.06292250000024,151.06292250000024,151.06292250000024,002,P002,2025_Jan_18_1008,CategoryLocalizer,2021.2.3,59.91529176069127,
115.8,116.0,5,0.0,Stimuli\Blank.png,0,0,0,185,185,185,,,,,,,,,,,,,115.81708330000038,0.01708330000037961,None,,151.84693349999998,151.84693349999998,151.84693349999998,151.84693349999998,151.84693349999998,151.84693349999998,151.84693349999998,151.84693349999998,002,P002,2025_Jan_18_1008,CategoryLocalizer,2021.2.3,59.91529176069127,
116.0,116.8,1,0.75,Stimuli\ImageFiles-Set2\Objects\Object_Keyboard_00001.png,0,0,0,186,186,186,,,,,,,,,,,,,116.00008799999978,8.799999977782136e-05,None,,152.0470995000005,152.0470995000005,152.0470995000005,152.0470995000005,152.0470995000005,152.0470995000005,152.0470995000005,152.0470995000005,002,P002,2025_Jan_18_1008,CategoryLocalizer,2021.2.3,59.91529176069127,
116.8,117.0,5,0.0,Stimuli\Blank.png,0,0,0,187,187,187,,,,,,,,,,,,,116.81813820000025,0.01813820000025146,None,,152.84780260000025,152.84780260000025,152.84780260000025,152.84780260000025,152.84780260000025,152.84780260000025,152.84780260000025,152.84780260000025,002,P002,2025_Jan_18_1008,CategoryLocalizer,2021.2.3,59.91529176069127,
117.0,117.8,1,0.75,Stimuli\ImageFiles-Set2\Objects\Object_Grill_00001.png,0,0,0,188,188,188,,,,,,,,,,,,,117.00158460000057,0.0015846000005694805,None,,153.04797430000053,153.04797430000053,153.04797430000053,153.04797430000053,153.04797430000053,153.04797430000053,153.04797430000053,153.04797430000053,002,P002,2025_Jan_18_1008,CategoryLocalizer,2021.2.3,59.91529176069127,
117.8,118.0,5,0.0,Stimuli\Blank.png,0,0,0,189,189,189,,,,,,,,,,,,,117.81906560000061,0.019065600000615746,None,,153.8486898000001,153.8486898000001,153.8486898000001,153.8486898000001,153.8486898000001,153.8486898000001,153.8486898000001,153.8486898000001,002,P002,2025_Jan_18_1008,CategoryLocalizer,2021.2.3,59.91529176069127,
118.0,118.8,1,0.75,Stimuli\ImageFiles-Set2\Objects\Object_Truck_00001.png,0,0,0,190,190,190,,,,,,,,,,,,,118.00228109999989,0.002281099999891012,None,,154.03222520000054,154.03222520000054,154.03222520000054,154.03222520000054,154.03222520000054,154.03222520000054,154.03222520000054,154.03222520000054,002,P002,2025_Jan_18_1008,CategoryLocalizer,2021.2.3,59.91529176069127,
118.8,119.0,5,0.0,Stimuli\Blank.png,0,0,0,191,191,191,,,,,,,,,,,,,118.80286940000042,0.0028694000004207965,None,,154.83288470000025,154.83288470000025,154.83288470000025,154.83288470000025,154.83288470000025,154.83288470000025,154.83288470000025,154.83288470000025,002,P002,2025_Jan_18_1008,CategoryLocalizer,2021.2.3,59.91529176069127,
119.0,119.8,1,0.75,Stimuli\ImageFiles-Set2\Objects\Object_Dumpster_00001.png,0,0,0,192,192,192,,,,,,,,,,,,,119.0033328999998,0.003332899999804795,None,,155.0497518000002,155.0497518000002,155.0497518000002,155.0497518000002,155.0497518000002,155.0497518000002,155.0497518000002,155.0497518000002,002,P002,2025_Jan_18_1008,CategoryLocalizer,2021.2.3,59.91529176069127,
119.8,120.0,5,0.0,Stimuli\Blank.png,0,0,0,193,193,193,,,,,,,,,,,,,119.82223720000002,0.022237200000020607,5,0.13674010000067938,155.86715269999968,155.86715269999968,155.86715269999968,155.86715269999968,155.86715269999968,155.86715269999968,155.86715269999968,155.86715269999968,002,P002,2025_Jan_18_1008,CategoryLocalizer,2021.2.3,59.91529176069127,
120.0,120.8,4,0.75,Stimuli\ImageFiles-Set2\Scenes\Scenes_070.png,0,0,0,194,194,194,,,,,,,,,,,,,120.0229430999998,0.02294309999979305,None,,156.08401409999988,156.08401409999988,156.08401409999988,156.08401409999988,156.08401409999988,156.08401409999988,156.08401409999988,156.08401409999988,002,P002,2025_Jan_18_1008,CategoryLocalizer,2021.2.3,59.91529176069127,
120.8,121.0,5,0.0,Stimuli\Blank.png,0,0,0,195,195,195,,,,,,,,,,,,,120.83843799999977,0.03843799999977193,None,,156.86800459999995,156.86800459999995,156.86800459999995,156.86800459999995,156.86800459999995,156.86800459999995,156.86800459999995,156.86800459999995,002,P002,2025_Jan_18_1008,CategoryLocalizer,2021.2.3,59.91529176069127,
121.0,121.8,4,0.75,Stimuli\ImageFiles-Set2\Scenes\Scenes_118.png,0,0,0,196,196,196,,,,,,,,,,,,,121.00497660000019,0.004976600000190956,None,,157.06818010000006,157.06818010000006,157.06818010000006,157.06818010000006,157.06818010000006,157.06818010000006,157.06818010000006,157.06818010000006,002,P002,2025_Jan_18_1008,CategoryLocalizer,2021.2.3,59.91529176069127,
121.8,122.0,5,0.0,Stimuli\Blank.png,0,0,0,197,197,197,,,,,,,,,,,,,121.8390760000002,0.0390760000002075,5,0.13500380000004952,157.86889119999978,157.86889119999978,157.86889119999978,157.86889119999978,157.86889119999978,157.86889119999978,157.86889119999978,157.86889119999978,002,P002,2025_Jan_18_1008,CategoryLocalizer,2021.2.3,59.91529176069127,
122.0,122.8,4,0.75,Stimuli\ImageFiles-Set2\Scenes\Scenes_069.png,0,0,0,198,198,198,,,,,,,,,,,,,122.00800020000042,0.008000200000424229,None,,158.06908190000013,158.06908190000013,158.06908190000013,158.06908190000013,158.06908190000013,158.06908190000013,158.06908190000013,158.06908190000013,002,P002,2025_Jan_18_1008,CategoryLocalizer,2021.2.3,59.91529176069127,
122.8,123.0,5,0.0,Stimuli\Blank.png,0,0,0,199,199,199,,,,,,,,,,,,,122.84010610000041,0.04010610000041481,None,,158.86983520000013,158.86983520000013,158.86983520000013,158.86983520000013,158.86983520000013,158.86983520000013,158.86983520000013,158.86983520000013,002,P002,2025_Jan_18_1008,CategoryLocalizer,2021.2.3,59.91529176069127,
123.0,123.8,4,0.75,Stimuli\ImageFiles-Set2\Scenes\Scenes_091.png,0,0,0,200,200,200,,,,,,,,,,,,,123.00724900000023,0.007249000000228989,None,,159.0532903000003,159.0532903000003,159.0532903000003,159.0532903000003,159.0532903000003,159.0532903000003,159.0532903000003,159.0532903000003,002,P002,2025_Jan_18_1008,CategoryLocalizer,2021.2.3,59.91529176069127,
123.8,124.0,5,0.0,Stimuli\Blank.png,0,0,0,201,201,201,,,,,,,,,,,,,123.82361750000018,0.023617500000185032,5,0.14998909999940224,159.85396949999995,159.85396949999995,159.85396949999995,159.85396949999995,159.85396949999995,159.85396949999995,159.85396949999995,159.85396949999995,002,P002,2025_Jan_18_1008,CategoryLocalizer,2021.2.3,59.91529176069127,
124.0,124.8,4,0.75,Stimuli\ImageFiles-Set2\Scenes\Scenes_119.png,0,0,0,202,202,202,,,,,,,,,,,,,124.00694780000049,0.006947800000489224,None,,160.07082230000015,160.07082230000015,160.07082230000015,160.07082230000015,160.07082230000015,160.07082230000015,160.07082230000015,160.07082230000015,002,P002,2025_Jan_18_1008,CategoryLocalizer,2021.2.3,59.91529176069127,
124.8,125.0,5,0.0,Stimuli\Blank.png,0,0,0,203,203,203,,,,,,,,,,,,,124.84286799999973,0.04286799999972857,None,,160.88822359999995,160.88822359999995,160.88822359999995,160.88822359999995,160.88822359999995,160.88822359999995,160.88822359999995,160.88822359999995,002,P002,2025_Jan_18_1008,CategoryLocalizer,2021.2.3,59.91529176069127,
125.0,125.8,4,0.75,Stimuli\ImageFiles-Set2\Scenes\Scenes_102.png,0,0,0,204,204,204,,,,,,,,,,,,,125.02478880000035,0.02478880000035133,None,,161.07171600000038,161.07171600000038,161.07171600000038,161.07171600000038,161.07171600000038,161.07171600000038,161.07171600000038,161.07171600000038,002,P002,2025_Jan_18_1008,CategoryLocalizer,2021.2.3,59.91529176069127,
125.8,126.0,5,0.0,Stimuli\Blank.png,0,0,0,205,205,205,,,,,,,,,,,,,125.82634000000053,0.026340000000530495,5,0.1482415000000401,161.85573000000022,161.85573000000022,161.85573000000022,161.85573000000022,161.85573000000022,161.85573000000022,161.85573000000022,161.85573000000022,002,P002,2025_Jan_18_1008,CategoryLocalizer,2021.2.3,59.91529176069127,
126.0,126.8,4,0.75,Stimuli\ImageFiles-Set2\Scenes\Scenes_116.png,0,0,0,206,206,206,,,,,,,,,,,,,126.00890900000013,0.008909000000130618,None,,162.07258610000008,162.07258610000008,162.07258610000008,162.07258610000008,162.07258610000008,162.07258610000008,162.07258610000008,162.07258610000008,002,P002,2025_Jan_18_1008,CategoryLocalizer,2021.2.3,59.91529176069127,
126.8,127.0,5,0.0,Stimuli\Blank.png,0,0,0,207,207,207,,,,,,,,,,,,,126.84303480000017,0.04303480000017146,None,,162.87329529999988,162.87329529999988,162.87329529999988,162.87329529999988,162.87329529999988,162.87329529999988,162.87329529999988,162.87329529999988,002,P002,2025_Jan_18_1008,CategoryLocalizer,2021.2.3,59.91529176069127,
127.0,127.8,4,0.75,Stimuli\ImageFiles-Set2\Scenes\Scenes_116.png,1,1,0,208,208,208,,,,,,,,,,,,,127.01219690000016,0.012196900000162714,1,0.3502287000001161,163.0567904999998,163.0567904999998,163.0567904999998,163.0567904999998,163.0567904999998,163.0567904999998,163.0567904999998,163.0567904999998,002,P002,2025_Jan_18_1008,CategoryLocalizer,2021.2.3,59.91529176069127,
127.8,128.0,5,0.0,Stimuli\Blank.png,0,0,0,209,209,209,,,,,,,,,,,,,127.82740610000019,0.02740610000019217,5,0.14636689999952068,163.85749490000035,163.85749490000035,163.85749490000035,163.85749490000035,163.85749490000035,163.85749490000035,163.85749490000035,163.85749490000035,002,P002,2025_Jan_18_1008,CategoryLocalizer,2021.2.3,59.91529176069127,
128.0,128.8,4,0.75,Stimuli\ImageFiles-Set2\Scenes\Scenes_103.png,0,0,0,210,210,210,,,,,,,,,,,,,128.01061459999983,0.010614599999826169,None,,164.04098460000023,164.04098460000023,164.04098460000023,164.04098460000023,164.04098460000023,164.04098460000023,164.04098460000023,164.04098460000023,002,P002,2025_Jan_18_1008,CategoryLocalizer,2021.2.3,59.91529176069127,
128.8,129.0,5,0.0,Stimuli\Blank.png,0,0,0,211,211,211,,,,,,,,,,,,,128.81199509999988,0.011995099999865033,None,,164.84170280000035,164.84170280000035,164.84170280000035,164.84170280000035,164.84170280000035,164.84170280000035,164.84170280000035,164.84170280000035,002,P002,2025_Jan_18_1008,CategoryLocalizer,2021.2.3,59.91529176069127,
129.0,129.8,4,0.75,Stimuli\ImageFiles-Set2\Scenes\Scenes_072.png,0,0,0,212,212,212,,,,,,,,,,,,,129.01246270000047,0.01246270000046934,None,,165.07522719999997,165.07522719999997,165.07522719999997,165.07522719999997,165.07522719999997,165.07522719999997,165.07522719999997,165.07522719999997,002,P002,2025_Jan_18_1008,CategoryLocalizer,2021.2.3,59.91529176069127,
129.8,130.0,5,0.0,Stimuli\Blank.png,0,0,0,213,213,213,,,,,,,,,,,,,129.84734360000039,0.04734360000037441,5,0.11117160000048898,165.89265179999984,165.89265179999984,165.89265179999984,165.89265179999984,165.89265179999984,165.89265179999984,165.89265179999984,165.89265179999984,002,P002,2025_Jan_18_1008,CategoryLocalizer,2021.2.3,59.91529176069127,
130.0,130.8,4,0.75,Stimuli\ImageFiles-Set2\Scenes\Scenes_083.png,0,0,0,214,214,214,,,,,,,,,,,,,130.02916989999994,0.029169899999942572,None,,166.09278900000027,166.09278900000027,166.09278900000027,166.09278900000027,166.09278900000027,166.09278900000027,166.09278900000027,166.09278900000027,002,P002,2025_Jan_18_1008,CategoryLocalizer,2021.2.3,59.91529176069127,
130.8,131.0,5,0.0,Stimuli\Blank.png,0,0,0,215,215,215,,,,,,,,,,,,,130.84777060000033,0.04777060000031952,None,,166.87682320000022,166.87682320000022,166.87682320000022,166.87682320000022,166.87682320000022,166.87682320000022,166.87682320000022,166.87682320000022,002,P002,2025_Jan_18_1008,CategoryLocalizer,2021.2.3,59.91529176069127,
131.0,131.8,4,0.75,Stimuli\ImageFiles-Set2\Scenes\Scenes_079.png,0,0,0,216,216,216,,,,,,,,,,,,,131.0138364000004,0.013836400000400317,None,,167.07699130000037,167.07699130000037,167.07699130000037,167.07699130000037,167.07699130000037,167.07699130000037,167.07699130000037,167.07699130000037,002,P002,2025_Jan_18_1008,CategoryLocalizer,2021.2.3,59.91529176069127,
131.8,132.0,5,0.0,Stimuli\Blank.png,0,0,0,217,217,217,,,,,,,,,,,,,131.84817160000057,0.048171600000557646,5,0.1262840999997934,167.8777044999997,167.8777044999997,167.8777044999997,167.8777044999997,167.8777044999997,167.8777044999997,167.8777044999997,167.8777044999997,002,P002,2025_Jan_18_1008,CategoryLocalizer,2021.2.3,59.91529176069127,
132.0,132.8,4,0.75,Stimuli\ImageFiles-Set2\Scenes\Scenes_089.png,0,0,0,218,218,218,,,,,,,,,,,,,132.01420419999977,0.014204199999767297,None,,168.07787009999993,168.07787009999993,168.07787009999993,168.07787009999993,168.07787009999993,168.07787009999993,168.07787009999993,168.07787009999993,002,P002,2025_Jan_18_1008,CategoryLocalizer,2021.2.3,59.91529176069127,
132.8,133.0,5,0.0,Stimuli\Blank.png,0,0,0,219,219,219,,,,,,,,,,,,,132.84916890000022,0.049168900000211124,None,,168.87858159999996,168.87858159999996,168.87858159999996,168.87858159999996,168.87858159999996,168.87858159999996,168.87858159999996,168.87858159999996,002,P002,2025_Jan_18_1008,CategoryLocalizer,2021.2.3,59.91529176069127,
133.0,133.8,4,0.75,Stimuli\ImageFiles-Set2\Scenes\Scenes_115.png,0,0,0,220,220,220,,,,,,,,,,,,,132.99884120000024,-0.0011587999997573206,None,,169.04539079999995,169.04539079999995,169.04539079999995,169.04539079999995,169.04539079999995,169.04539079999995,169.04539079999995,169.04539079999995,002,P002,2025_Jan_18_1008,CategoryLocalizer,2021.2.3,59.91529176069127,
133.8,134.0,5,0.0,Stimuli\Blank.png,0,0,0,221,221,221,,,,,,,,,,,,,133.81620029999976,0.016200299999752588,None,,169.8460955999999,169.8460955999999,169.8460955999999,169.8460955999999,169.8460955999999,169.8460955999999,169.8460955999999,169.8460955999999,002,P002,2025_Jan_18_1008,CategoryLocalizer,2021.2.3,59.91529176069127,
134.0,134.8,4,0.75,Stimuli\ImageFiles-Set2\Scenes\Scenes_086.png,0,0,0,222,222,222,,,,,,,,,,,,,133.9998512000002,-0.00014879999980621506,None,,170.04626740000003,170.04626740000003,170.04626740000003,170.04626740000003,170.04626740000003,170.04626740000003,170.04626740000003,170.04626740000003,002,P002,2025_Jan_18_1008,CategoryLocalizer,2021.2.3,59.91529176069127,
134.8,135.0,5,0.0,Stimuli\Blank.png,0,0,0,223,223,223,,,,,,,,,,,,,134.81726789999993,0.017267899999922065,None,,170.8469753999998,170.8469753999998,170.8469753999998,170.8469753999998,170.8469753999998,170.8469753999998,170.8469753999998,170.8469753999998,002,P002,2025_Jan_18_1008,CategoryLocalizer,2021.2.3,59.91529176069127,
135.0,135.8,4,0.75,Stimuli\ImageFiles-Set2\Scenes\Scenes_105.png,0,0,0,224,224,224,,,,,,,,,,,,,135.00216739999996,0.002167399999962072,None,,171.0638257999999,171.0638257999999,171.0638257999999,171.0638257999999,171.0638257999999,171.0638257999999,171.0638257999999,171.0638257999999,002,P002,2025_Jan_18_1008,CategoryLocalizer,2021.2.3,59.91529176069127,
135.8,136.0,5,0.0,Stimuli\Blank.png,0,0,0,225,225,225,,,,,,,,,,,,,135.83465220000016,0.03465220000015279,None,,171.86453750000055,171.86453750000055,171.86453750000055,171.86453750000055,171.86453750000055,171.86453750000055,171.86453750000055,171.86453750000055,002,P002,2025_Jan_18_1008,CategoryLocalizer,2021.2.3,59.91529176069127,
136.0,136.8,2,0.75,Stimuli\ImageFiles-Set2\Bodies\Bodies_Kneeling_00002.png,0,0,0,226,226,226,,,,,,,,,,,,,136.0011967999999,0.0011967999998887535,None,,172.04803059999995,172.04803059999995,172.04803059999995,172.04803059999995,172.04803059999995,172.04803059999995,172.04803059999995,172.04803059999995,002,P002,2025_Jan_18_1008,CategoryLocalizer,2021.2.3,59.91529176069127,
136.8,137.0,5,0.0,Stimuli\Blank.png,0,0,0,227,227,227,,,,,,,,,,,,,136.81905129999996,0.01905129999994415,None,,172.84873960000004,172.84873960000004,172.84873960000004,172.84873960000004,172.84873960000004,172.84873960000004,172.84873960000004,172.84873960000004,002,P002,2025_Jan_18_1008,CategoryLocalizer,2021.2.3,59.91529176069127,
137.0,137.8,2,0.75,Stimuli\ImageFiles-Set2\Bodies\Bodies_Pushing_00002.png,0,0,0,228,228,228,,,,,,,,,,,,,137.00308289999975,0.003082899999753863,None,,173.0489146,173.0489146,173.0489146,173.0489146,173.0489146,173.0489146,173.0489146,173.0489146,002,P002,2025_Jan_18_1008,CategoryLocalizer,2021.2.3,59.91529176069127,
137.8,138.0,5,0.0,Stimuli\Blank.png,0,0,0,229,229,229,,,,,,,,,,,,,137.81911000000036,0.01911000000035301,None,,173.84961759999987,173.84961759999987,173.84961759999987,173.84961759999987,173.84961759999987,173.84961759999987,173.84961759999987,173.84961759999987,002,P002,2025_Jan_18_1008,CategoryLocalizer,2021.2.3,59.91529176069127,
138.0,138.8,2,0.75,Stimuli\ImageFiles-Set2\Bodies\Bodies_Running_00004.png,0,0,0,230,230,230,,,,,,,,,,,,,138.0033213000006,0.0033213000006071525,None,,174.04980609999984,174.04980609999984,174.04980609999984,174.04980609999984,174.04980609999984,174.04980609999984,174.04980609999984,174.04980609999984,002,P002,2025_Jan_18_1008,CategoryLocalizer,2021.2.3,59.91529176069127,
138.8,139.0,5,0.0,Stimuli\Blank.png,0,0,0,231,231,231,,,,,,,,,,,,,138.82020660000035,0.020206600000335584,None,,174.85049789999994,174.85049789999994,174.85049789999994,174.85049789999994,174.85049789999994,174.85049789999994,174.85049789999994,174.85049789999994,002,P002,2025_Jan_18_1008,CategoryLocalizer,2021.2.3,59.91529176069127,
139.0,139.8,2,0.75,Stimuli\ImageFiles-Set2\Bodies\Bodies_SittingStretch_00003.png,0,0,0,232,232,232,,,,,,,,,,,,,139.00381300000026,0.0038130000002638553,None,,175.05069280000043,175.05069280000043,175.05069280000043,175.05069280000043,175.05069280000043,175.05069280000043,175.05069280000043,175.05069280000043,002,P002,2025_Jan_18_1008,CategoryLocalizer,2021.2.3,59.91529176069127,
139.8,140.0,5,0.0,Stimuli\Blank.png,0,0,0,233,233,233,,,,,,,,,,,,,139.8214127000001,0.02141270000009854,None,,175.8513707000002,175.8513707000002,175.8513707000002,175.8513707000002,175.8513707000002,175.8513707000002,175.8513707000002,175.8513707000002,002,P002,2025_Jan_18_1008,CategoryLocalizer,2021.2.3,59.91529176069127,
140.0,140.8,2,0.75,Stimuli\ImageFiles-Set2\Bodies\Bodies_Crawling_00002.png,0,0,0,234,234,234,,,,,,,,,,,,,140.0048323000001,0.0048323000000891625,None,,176.05159470000035,176.05159470000035,176.05159470000035,176.05159470000035,176.05159470000035,176.05159470000035,176.05159470000035,176.05159470000035,002,P002,2025_Jan_18_1008,CategoryLocalizer,2021.2.3,59.91529176069127,
140.8,141.0,5,0.0,Stimuli\Blank.png,0,0,0,235,235,235,,,,,,,,,,,,,140.82239350000054,0.02239350000053264,None,,176.85226469999998,176.85226469999998,176.85226469999998,176.85226469999998,176.85226469999998,176.85226469999998,176.85226469999998,176.85226469999998,002,P002,2025_Jan_18_1008,CategoryLocalizer,2021.2.3,59.91529176069127,
141.0,141.8,2,0.75,Stimuli\ImageFiles-Set2\Bodies\Bodies_DownwardDog_00004.png,0,0,0,236,236,236,,,,,,,,,,,,,141.00749340000039,0.007493400000385009,None,,177.05245550000018,177.05245550000018,177.05245550000018,177.05245550000018,177.05245550000018,177.05245550000018,177.05245550000018,177.05245550000018,002,P002,2025_Jan_18_1008,CategoryLocalizer,2021.2.3,59.91529176069127,
141.8,142.0,5,0.0,Stimuli\Blank.png,0,0,0,237,237,237,,,,,,,,,,,,,141.82348860000002,0.02348860000000741,5,0.15071159999934025,177.85314650000055,177.85314650000055,177.85314650000055,177.85314650000055,177.85314650000055,177.85314650000055,177.85314650000055,177.85314650000055,002,P002,2025_Jan_18_1008,CategoryLocalizer,2021.2.3,59.91529176069127,
142.0,142.8,2,0.75,Stimuli\ImageFiles-Set2\Bodies\Bodies_Jumping_00005.png,0,0,0,238,238,238,,,,,,,,,,,,,142.00690630000008,0.00690630000008241,None,,178.0533092000005,178.0533092000005,178.0533092000005,178.0533092000005,178.0533092000005,178.0533092000005,178.0533092000005,178.0533092000005,002,P002,2025_Jan_18_1008,CategoryLocalizer,2021.2.3,59.91529176069127,
142.8,143.0,5,0.0,Stimuli\Blank.png,0,0,0,239,239,239,,,,,,,,,,,,,142.82413970000016,0.024139700000148423,None,,178.8540165000004,178.8540165000004,178.8540165000004,178.8540165000004,178.8540165000004,178.8540165000004,178.8540165000004,178.8540165000004,002,P002,2025_Jan_18_1008,CategoryLocalizer,2021.2.3,59.91529176069127,
143.0,143.8,2,0.75,Stimuli\ImageFiles-Set2\Bodies\Bodies_Kicking_00004.png,0,0,0,240,240,240,,,,,,,,,,,,,143.00781730000017,0.00781730000016978,None,,179.05419580000034,179.05419580000034,179.05419580000034,179.05419580000034,179.05419580000034,179.05419580000034,179.05419580000034,179.05419580000034,002,P002,2025_Jan_18_1008,CategoryLocalizer,2021.2.3,59.91529176069127,
143.8,144.0,5,0.0,Stimuli\Blank.png,0,0,0,241,241,241,,,,,,,,,,,,,143.8251138000005,0.025113800000497122,5,0.14898470000025554,179.8548952000001,179.8548952000001,179.8548952000001,179.8548952000001,179.8548952000001,179.8548952000001,179.8548952000001,179.8548952000001,002,P002,2025_Jan_18_1008,CategoryLocalizer,2021.2.3,59.91529176069127,
144.0,144.8,2,0.75,Stimuli\ImageFiles-Set2\Bodies\Bodies_Waving_00002.png,0,0,0,242,242,242,,,,,,,,,,,,,144.00871720000032,0.00871720000031928,None,,180.05509830000028,180.05509830000028,180.05509830000028,180.05509830000028,180.05509830000028,180.05509830000028,180.05509830000028,180.05509830000028,002,P002,2025_Jan_18_1008,CategoryLocalizer,2021.2.3,59.91529176069127,
144.8,145.0,5,0.0,Stimuli\Blank.png,0,0,0,243,243,243,,,,,,,,,,,,,144.8277392,0.027739199999984976,None,,180.8724715999997,180.8724715999997,180.8724715999997,180.8724715999997,180.8724715999997,180.8724715999997,180.8724715999997,180.8724715999997,002,P002,2025_Jan_18_1008,CategoryLocalizer,2021.2.3,59.91529176069127,
145.0,145.8,2,0.75,Stimuli\ImageFiles-Set2\Bodies\Bodies_Pushing_00004.png,0,0,0,244,244,244,,,,,,,,,,,,,145.0281947000003,0.028194700000312878,None,,181.08933830000024,181.08933830000024,181.08933830000024,181.08933830000024,181.08933830000024,181.08933830000024,181.08933830000024,181.08933830000024,002,P002,2025_Jan_18_1008,CategoryLocalizer,2021.2.3,59.91529176069127,
145.8,146.0,5,0.0,Stimuli\Blank.png,0,0,0,245,245,245,,,,,,,,,,,,,145.8435325999999,0.04353259999987813,5,0.1304485000000568,181.8733428000005,181.8733428000005,181.8733428000005,181.8733428000005,181.8733428000005,181.8733428000005,181.8733428000005,181.8733428000005,002,P002,2025_Jan_18_1008,CategoryLocalizer,2021.2.3,59.91529176069127,
146.0,146.8,2,0.75,Stimuli\ImageFiles-Set2\Bodies\Bodies_Pushing_00004.png,1,1,0,246,246,246,,,,,,,,,,,,,146.01012100000025,0.010121000000253844,1,0.5367943999999625,182.04018929999984,182.04018929999984,182.04018929999984,182.04018929999984,182.04018929999984,182.04018929999984,182.04018929999984,182.04018929999984,002,P002,2025_Jan_18_1008,CategoryLocalizer,2021.2.3,59.91529176069127,
146.8,147.0,5,0.0,Stimuli\Blank.png,0,0,0,247,247,247,,,,,,,,,,,,,146.8127140000006,0.012714000000585202,None,,182.85755789999985,182.85755789999985,182.85755789999985,182.85755789999985,182.85755789999985,182.85755789999985,182.85755789999985,182.85755789999985,002,P002,2025_Jan_18_1008,CategoryLocalizer,2021.2.3,59.91529176069127,
147.0,147.8,2,0.75,Stimuli\ImageFiles-Set2\Bodies\Bodies_SittingFloor_00002.png,0,0,0,248,248,248,,,,,,,,,,,,,147.02737570000045,0.027375700000447978,None,,183.0743978999999,183.0743978999999,183.0743978999999,183.0743978999999,183.0743978999999,183.0743978999999,183.0743978999999,183.0743978999999,002,P002,2025_Jan_18_1008,CategoryLocalizer,2021.2.3,59.91529176069127,
147.8,148.0,5,0.0,Stimuli\Blank.png,0,0,0,249,249,249,,,,,,,,,,,,,147.82790170000044,0.027901700000427354,5,0.14550689999941824,183.85842630000025,183.85842630000025,183.85842630000025,183.85842630000025,183.85842630000025,183.85842630000025,183.85842630000025,183.85842630000025,002,P002,2025_Jan_18_1008,CategoryLocalizer,2021.2.3,59.91529176069127,
148.0,148.8,2,0.75,Stimuli\ImageFiles-Set2\Bodies\Bodies_Walking_00007.png,0,0,0,250,250,250,,,,,,,,,,,,,148.0129547000006,0.012954700000591401,None,,184.0586000000003,184.0586000000003,184.0586000000003,184.0586000000003,184.0586000000003,184.0586000000003,184.0586000000003,184.0586000000003,002,P002,2025_Jan_18_1008,CategoryLocalizer,2021.2.3,59.91529176069127,
148.8,149.0,5,0.0,Stimuli\Blank.png,0,0,0,251,251,251,,,,,,,,,,,,,148.82915010000033,0.029150100000322254,None,,184.8592963000001,184.8592963000001,184.8592963000001,184.8592963000001,184.8592963000001,184.8592963000001,184.8592963000001,184.8592963000001,002,P002,2025_Jan_18_1008,CategoryLocalizer,2021.2.3,59.91529176069127,
149.0,149.8,2,0.75,Stimuli\ImageFiles-Set2\Bodies\Bodies_Crawling_00007.png,0,0,0,252,252,252,,,,,,,,,,,,,149.01314300000013,0.013143000000127358,None,,185.05949380000038,185.05949380000038,185.05949380000038,185.05949380000038,185.05949380000038,185.05949380000038,185.05949380000038,185.05949380000038,002,P002,2025_Jan_18_1008,CategoryLocalizer,2021.2.3,59.91529176069127,
149.8,150.0,5,0.0,Stimuli\Blank.png,0,0,0,253,253,253,,,,,,,,,,,,,149.83217700000023,0.032177000000217504,5,0.12685979999969277,185.87689090000003,185.87689090000003,185.87689090000003,185.87689090000003,185.87689090000003,185.87689090000003,185.87689090000003,185.87689090000003,002,P002,2025_Jan_18_1008,CategoryLocalizer,2021.2.3,59.91529176069127,
150.0,150.8,2,0.75,Stimuli\ImageFiles-Set2\Bodies\Bodies_Jumping_00001.png,0,0,0,254,254,254,,,,,,,,,,,,,150.03149720000056,0.03149720000055822,None,,186.07706169999983,186.07706169999983,186.07706169999983,186.07706169999983,186.07706169999983,186.07706169999983,186.07706169999983,186.07706169999983,002,P002,2025_Jan_18_1008,CategoryLocalizer,2021.2.3,59.91529176069127,
150.8,151.0,5,0.0,Stimuli\Blank.png,0,0,0,255,255,255,,,,,,,,,,,,,150.8326218000002,0.032621800000185885,None,,186.8777710000004,186.8777710000004,186.8777710000004,186.8777710000004,186.8777710000004,186.8777710000004,186.8777710000004,186.8777710000004,002,P002,2025_Jan_18_1008,CategoryLocalizer,2021.2.3,59.91529176069127,
151.0,151.8,2,0.75,Stimuli\ImageFiles-Set2\Bodies\Bodies_DownwardDog_00002.png,0,0,0,256,256,256,,,,,,,,,,,,,151.0146878000005,0.014687800000501738,None,,187.06125070000053,187.06125070000053,187.06125070000053,187.06125070000053,187.06125070000053,187.06125070000053,187.06125070000053,187.06125070000053,002,P002,2025_Jan_18_1008,CategoryLocalizer,2021.2.3,59.91529176069127,
151.8,152.0,5,0.0,Stimuli\Blank.png,0,0,0,257,257,257,,,,,,,,,,,,,151.8320764,0.03207639999999401,5,0.1418162999998458,187.86194460000024,187.86194460000024,187.86194460000024,187.86194460000024,187.86194460000024,187.86194460000024,187.86194460000024,187.86194460000024,002,P002,2025_Jan_18_1008,CategoryLocalizer,2021.2.3,59.91529176069127,
152.0,164.0,0,0.0,Stimuli\Blank.png,0,0,0,258,258,258,,,,,,,,,,,,,152.01624730000003,0.016247300000031828,5,11.958355000000665,188.04545430000053,188.04545430000053,188.04545430000053,188.04545430000053,188.04545430000053,188.04545430000053,188.04545430000053,188.04545430000053,002,P002,2025_Jan_18_1008,CategoryLocalizer,2021.2.3,59.91529176069127,
164.0,164.8,4,0.75,Stimuli\ImageFiles-Set2\Scenes\Scenes_074.png,0,0,0,259,259,259,,,,,,,,,,,,,164.00962530000015,0.009625300000152492,None,,200.07268180000028,200.07268180000028,200.07268180000028,200.07268180000028,200.07268180000028,200.07268180000028,200.07268180000028,200.07268180000028,002,P002,2025_Jan_18_1008,CategoryLocalizer,2021.2.3,59.91529176069127,
164.8,165.0,5,0.0,Stimuli\Blank.png,0,0,0,260,260,260,,,,,,,,,,,,,164.8429710999999,0.042971099999874696,None,,200.87338850000015,200.87338850000015,200.87338850000015,200.87338850000015,200.87338850000015,200.87338850000015,200.87338850000015,200.87338850000015,002,P002,2025_Jan_18_1008,CategoryLocalizer,2021.2.3,59.91529176069127,
165.0,165.8,4,0.75,Stimuli\ImageFiles-Set2\Scenes\Scenes_098.png,0,0,0,261,261,261,,,,,,,,,,,,,165.01218640000025,0.012186400000246067,None,,201.0735854000004,201.0735854000004,201.0735854000004,201.0735854000004,201.0735854000004,201.0735854000004,201.0735854000004,201.0735854000004,002,P002,2025_Jan_18_1008,CategoryLocalizer,2021.2.3,59.91529176069127,
165.8,166.0,5,0.0,Stimuli\Blank.png,0,0,0,262,262,262,,,,,,,,,,,,,165.84429869999985,0.044298699999842484,5,0.12943749999976717,201.87426700000015,201.87426700000015,201.87426700000015,201.87426700000015,201.87426700000015,201.87426700000015,201.87426700000015,201.87426700000015,002,P002,2025_Jan_18_1008,CategoryLocalizer,2021.2.3,59.91529176069127,
166.0,166.8,4,0.75,Stimuli\ImageFiles-Set2\Scenes\Scenes_100.png,0,0,0,263,263,263,,,,,,,,,,,,,166.01092040000003,0.010920400000031805,None,,202.05776940000032,202.05776940000032,202.05776940000032,202.05776940000032,202.05776940000032,202.05776940000032,202.05776940000032,202.05776940000032,002,P002,2025_Jan_18_1008,CategoryLocalizer,2021.2.3,59.91529176069127,
166.8,167.0,5,0.0,Stimuli\Blank.png,0,0,0,264,264,264,,,,,,,,,,,,,166.82862449999993,0.028624499999921227,None,,202.85846700000002,202.85846700000002,202.85846700000002,202.85846700000002,202.85846700000002,202.85846700000002,202.85846700000002,202.85846700000002,002,P002,2025_Jan_18_1008,CategoryLocalizer,2021.2.3,59.91529176069127,
167.0,167.8,4,0.75,Stimuli\ImageFiles-Set2\Scenes\Scenes_065.png,0,0,0,265,265,265,,,,,,,,,,,,,167.01202300000023,0.012023000000226602,None,,203.07536640000035,203.07536640000035,203.07536640000035,203.07536640000035,203.07536640000035,203.07536640000035,203.07536640000035,203.07536640000035,002,P002,2025_Jan_18_1008,CategoryLocalizer,2021.2.3,59.91529176069127,
167.8,168.0,5,0.0,Stimuli\Blank.png,0,0,0,266,266,266,,,,,,,,,,,,,167.84795310000027,0.047953100000256654,5,0.11098409999976866,203.89272020000044,203.89272020000044,203.89272020000044,203.89272020000044,203.89272020000044,203.89272020000044,203.89272020000044,203.89272020000044,002,P002,2025_Jan_18_1008,CategoryLocalizer,2021.2.3,59.91529176069127,
168.0,168.8,4,0.75,Stimuli\ImageFiles-Set2\Scenes\Scenes_065.png,1,1,0,267,267,267,,,,,,,,,,,,,168.02963210000053,0.029632100000526407,1,0.4097236999996312,204.07620169999973,204.07620169999973,204.07620169999973,204.07620169999973,204.07620169999973,204.07620169999973,204.07620169999973,204.07620169999973,002,P002,2025_Jan_18_1008,CategoryLocalizer,2021.2.3,59.91529176069127,
168.8,169.0,5,0.0,Stimuli\Blank.png,0,0,0,268,268,268,,,,,,,,,,,,,168.83218450000004,0.03218450000002804,None,,204.87693740000032,204.87693740000032,204.87693740000032,204.87693740000032,204.87693740000032,204.87693740000032,204.87693740000032,204.87693740000032,002,P002,2025_Jan_18_1008,CategoryLocalizer,2021.2.3,59.91529176069127,
169.0,169.8,4,0.75,Stimuli\ImageFiles-Set2\Scenes\Scenes_068.png,0,0,0,269,269,269,,,,,,,,,,,,,169.03215499999988,0.032154999999875145,None,,205.07709290000003,205.07709290000003,205.07709290000003,205.07709290000003,205.07709290000003,205.07709290000003,205.07709290000003,205.07709290000003,002,P002,2025_Jan_18_1008,CategoryLocalizer,2021.2.3,59.91529176069127,
169.8,170.0,5,0.0,Stimuli\Blank.png,0,0,0,270,270,270,,,,,,,,,,,,,169.81492510000044,0.014925100000425573,5,0.1594239000005473,205.84442649999983,205.84442649999983,205.84442649999983,205.84442649999983,205.84442649999983,205.84442649999983,205.84442649999983,205.84442649999983,002,P002,2025_Jan_18_1008,CategoryLocalizer,2021.2.3,59.91529176069127,
170.0,170.8,4,0.75,Stimuli\ImageFiles-Set2\Scenes\Scenes_090.png,0,0,0,271,271,271,,,,,,,,,,,,,170.01511960000062,0.015119600000616629,None,,206.06133649999992,206.06133649999992,206.06133649999992,206.06133649999992,206.06133649999992,206.06133649999992,206.06133649999992,206.06133649999992,002,P002,2025_Jan_18_1008,CategoryLocalizer,2021.2.3,59.91529176069127,
170.8,171.0,5,0.0,Stimuli\Blank.png,0,0,0,272,272,272,,,,,,,,,,,,,170.81726119999985,0.017261199999836663,None,,206.86201700000038,206.86201700000038,206.86201700000038,206.86201700000038,206.86201700000038,206.86201700000038,206.86201700000038,206.86201700000038,002,P002,2025_Jan_18_1008,CategoryLocalizer,2021.2.3,59.91529176069127,
171.0,171.8,4,0.75,Stimuli\ImageFiles-Set2\Scenes\Scenes_120.png,0,0,0,273,273,273,,,,,,,,,,,,,171.01496970000062,0.014969700000619923,None,,207.0622082,207.0622082,207.0622082,207.0622082,207.0622082,207.0622082,207.0622082,207.0622082,002,P002,2025_Jan_18_1008,CategoryLocalizer,2021.2.3,59.91529176069127,
171.8,172.0,5,0.0,Stimuli\Blank.png,0,0,0,274,274,274,,,,,,,,,,,,,171.83327670000017,0.033276700000158144,None,,207.86287820000052,207.86287820000052,207.86287820000052,207.86287820000052,207.86287820000052,207.86287820000052,207.86287820000052,207.86287820000052,002,P002,2025_Jan_18_1008,CategoryLocalizer,2021.2.3,59.91529176069127,
172.0,172.8,4,0.75,Stimuli\ImageFiles-Set2\Scenes\Scenes_092.png,0,0,0,275,275,275,,,,,,,,,,,,,171.9993774000004,-0.0006225999995876919,None,,208.04636610000034,208.04636610000034,208.04636610000034,208.04636610000034,208.04636610000034,208.04636610000034,208.04636610000034,208.04636610000034,002,P002,2025_Jan_18_1008,CategoryLocalizer,2021.2.3,59.91529176069127,
172.8,173.0,5,0.0,Stimuli\Blank.png,0,0,0,276,276,276,,,,,,,,,,,,,172.81729619999987,0.017296199999861983,None,,208.8470795000003,208.8470795000003,208.8470795000003,208.8470795000003,208.8470795000003,208.8470795000003,208.8470795000003,208.8470795000003,002,P002,2025_Jan_18_1008,CategoryLocalizer,2021.2.3,59.91529176069127,
173.0,173.8,4,0.75,Stimuli\ImageFiles-Set2\Scenes\Scenes_095.png,0,0,0,277,277,277,,,,,,,,,,,,,173.00267369999983,0.0026736999998320243,None,,209.06392930000038,209.06392930000038,209.06392930000038,209.06392930000038,209.06392930000038,209.06392930000038,209.06392930000038,209.06392930000038,002,P002,2025_Jan_18_1008,CategoryLocalizer,2021.2.3,59.91529176069127,
173.8,174.0,5,0.0,Stimuli\Blank.png,0,0,0,278,278,278,,,,,,,,,,,,,173.8346145000005,0.034614500000486714,None,,209.8646372000003,209.8646372000003,209.8646372000003,209.8646372000003,209.8646372000003,209.8646372000003,209.8646372000003,209.8646372000003,002,P002,2025_Jan_18_1008,CategoryLocalizer,2021.2.3,59.91529176069127,
174.0,174.8,4,0.75,Stimuli\ImageFiles-Set2\Scenes\Scenes_096.png,0,0,0,279,279,279,,,,,,,,,,,,,174.00108340000043,0.001083400000425172,None,,210.06480910000028,210.06480910000028,210.06480910000028,210.06480910000028,210.06480910000028,210.06480910000028,210.06480910000028,210.06480910000028,002,P002,2025_Jan_18_1008,CategoryLocalizer,2021.2.3,59.91529176069127,
174.8,175.0,5,0.0,Stimuli\Blank.png,0,0,0,280,280,280,,,,,,,,,,,,,174.83768860000055,0.037688600000535644,None,,210.8822037,210.8822037,210.8822037,210.8822037,210.8822037,210.8822037,210.8822037,210.8822037,002,P002,2025_Jan_18_1008,CategoryLocalizer,2021.2.3,59.91529176069127,
175.0,175.8,4,0.75,Stimuli\ImageFiles-Set2\Scenes\Scenes_112.png,0,0,0,281,281,281,,,,,,,,,,,,,175.01956340000015,0.019563400000151887,None,,211.08237290000034,211.08237290000034,211.08237290000034,211.08237290000034,211.08237290000034,211.08237290000034,211.08237290000034,211.08237290000034,002,P002,2025_Jan_18_1008,CategoryLocalizer,2021.2.3,59.91529176069127,
175.8,176.0,5,0.0,Stimuli\Blank.png,0,0,0,282,282,282,,,,,,,,,,,,,175.83840920000057,0.03840920000055803,5,0.12065000000075088,211.88308419999976,211.88308419999976,211.88308419999976,211.88308419999976,211.88308419999976,211.88308419999976,211.88308419999976,211.88308419999976,002,P002,2025_Jan_18_1008,CategoryLocalizer,2021.2.3,59.91529176069127,
