eventStartTime,eventEndTime,eventCond,imSize,imFile,repeatedImage,responseEvent,Events.thisRepN,Events.thisTrialN,Events.thisN,Events.thisIndex,Instructions.started,Instructions.stopped,participantReadyResponse.keys,participantReadyResponse.rt,participantReadyResponse.started,participantReadyResponse.stopped,startWaitforTrigger,triggerResponse.keys,triggerResponse.rt,triggerResponse.started,triggerResponse.stopped,globalTimer,actualStartTime,startTimingDiff,participantResponse.keys,participantResponse.rt,participantResponse.started,participantResponse.stopped,image.started,image.stopped,fixationOutside.started,fixationOutside.stopped,fixationInside.started,fixationInside.stopped,session,participant,date,expName,psychopyVersion,frameRate,
,,,,,,,,,,,27.962333599999965,None,1,6.012119999999868,27.962333599999965,None,,,,,,,,,,,,,,,,,,,001,P002,2025_Jan_18_0938,CategoryLocalizer,2021.2.3,59.93612008326343,
,,,,,,,,,,,,,,,,,33.97736920000034,5,15.23291859999972,33.99051439999994,None,,,,,,,,,,,,,,001,P002,2025_Jan_18_0938,CategoryLocalizer,2021.2.3,59.93612008326343,
0.0,12.0,0,0.0,Stimuli\Blank.png,0,0,0,0,0,0,,,,,,,,,,,,49.24068239999997,0.041542500000105065,0.041542500000105065,5,11.919408299999759,49.303937900000165,None,49.303937900000165,None,49.303937900000165,None,49.303937900000165,None,001,P002,2025_Jan_18_0938,CategoryLocalizer,2021.2.3,59.93612008326343,
12.0,12.8,1,0.75,Stimuli\ImageFiles-Set1\Objects\Object_Key_00001.png,0,0,0,1,1,1,,,,,,,,,,,,,12.015004599999884,0.015004599999883794,None,,61.28114330000017,61.28114330000017,61.28114330000017,61.28114330000017,61.28114330000017,61.28114330000017,61.28114330000017,61.28114330000017,001,P002,2025_Jan_18_0938,CategoryLocalizer,2021.2.3,59.93612008326343,
12.8,13.0,5,0.0,Stimuli\Blank.png,0,0,0,2,2,2,,,,,,,,,,,,,12.81051639999987,0.010516399999868753,None,,62.06516580000016,62.06516580000016,62.06516580000016,62.06516580000016,62.06516580000016,62.06516580000016,62.06516580000016,62.06516580000016,001,P002,2025_Jan_18_0938,CategoryLocalizer,2021.2.3,59.93612008326343,
13.0,13.8,1,0.75,Stimuli\ImageFiles-Set1\Objects\Object_Glasses_00001.png,0,0,0,3,3,3,,,,,,,,,,,,,13.010995900000125,0.010995900000125403,None,,62.28202510000028,62.28202510000028,62.28202510000028,62.28202510000028,62.28202510000028,62.28202510000028,62.28202510000028,62.28202510000028,001,P002,2025_Jan_18_0938,CategoryLocalizer,2021.2.3,59.93612008326343,
13.8,14.0,5,0.0,Stimuli\Blank.png,0,0,0,4,4,4,,,,,,,,,,,,,13.82751559999997,0.027515599999968998,5,0.14085760000034497,63.082720000000336,63.082720000000336,63.082720000000336,63.082720000000336,63.082720000000336,63.082720000000336,63.082720000000336,63.082720000000336,001,P002,2025_Jan_18_0938,CategoryLocalizer,2021.2.3,59.93612008326343,
14.0,14.8,1,0.75,Stimuli\ImageFiles-Set1\Objects\Object_Stool_00001.png,0,0,0,5,5,5,,,,,,,,,,,,,14.010971499999869,0.010971499999868684,None,,63.28292480000027,63.28292480000027,63.28292480000027,63.28292480000027,63.28292480000027,63.28292480000027,63.28292480000027,63.28292480000027,001,P002,2025_Jan_18_0938,CategoryLocalizer,2021.2.3,59.93612008326343,
14.8,15.0,5,0.0,Stimuli\Blank.png,0,0,0,6,6,6,,,,,,,,,,,,,14.828625099999954,0.028625099999953107,None,,64.08360059999995,64.08360059999995,64.08360059999995,64.08360059999995,64.08360059999995,64.08360059999995,64.08360059999995,64.08360059999995,001,P002,2025_Jan_18_0938,CategoryLocalizer,2021.2.3,59.93612008326343,
15.0,15.8,1,0.75,Stimuli\ImageFiles-Set1\Objects\Object_Stool_00001.png,1,1,0,7,7,7,,,,,,,,,,,,,15.012452999999823,0.012452999999823078,1,0.2961890999999923,64.26709500000015,64.26709500000015,64.26709500000015,64.26709500000015,64.26709500000015,64.26709500000015,64.26709500000015,64.26709500000015,001,P002,2025_Jan_18_0938,CategoryLocalizer,2021.2.3,59.93612008326343,
15.8,16.0,5,0.0,Stimuli\Blank.png,0,0,0,8,8,8,,,,,,,,,,,,,15.813355199999933,0.013355199999931955,5,0.15549950000013268,65.06780070000013,65.06780070000013,65.06780070000013,65.06780070000013,65.06780070000013,65.06780070000013,65.06780070000013,65.06780070000013,001,P002,2025_Jan_18_0938,CategoryLocalizer,2021.2.3,59.93612008326343,
16.0,16.8,1,0.75,Stimuli\ImageFiles-Set1\Objects\Object_Matches_00001.png,0,0,0,9,9,9,,,,,,,,,,,,,16.012654799999837,0.012654799999836541,None,,65.28465830000005,65.28465830000005,65.28465830000005,65.28465830000005,65.28465830000005,65.28465830000005,65.28465830000005,65.28465830000005,001,P002,2025_Jan_18_0938,CategoryLocalizer,2021.2.3,59.93612008326343,
16.8,17.0,5,0.0,Stimuli\Blank.png,0,0,0,10,10,10,,,,,,,,,,,,,16.830875399999968,0.030875399999967357,None,,66.08536230000027,66.08536230000027,66.08536230000027,66.08536230000027,66.08536230000027,66.08536230000027,66.08536230000027,66.08536230000027,001,P002,2025_Jan_18_0938,CategoryLocalizer,2021.2.3,59.93612008326343,
17.0,17.8,1,0.75,Stimuli\ImageFiles-Set1\Objects\Object_Motorcycle_00001.png,0,0,0,11,11,11,,,,,,,,,,,,,17.016030199999932,0.016030199999931938,None,,66.28554050000002,66.28554050000002,66.28554050000002,66.28554050000002,66.28554050000002,66.28554050000002,66.28554050000002,66.28554050000002,001,P002,2025_Jan_18_0938,CategoryLocalizer,2021.2.3,59.93612008326343,
17.8,18.0,5,0.0,Stimuli\Blank.png,0,0,0,12,12,12,,,,,,,,,,,,,17.816272600000048,0.016272600000046822,5,0.1372705000003407,67.08625990000019,67.08625990000019,67.08625990000019,67.08625990000019,67.08625990000019,67.08625990000019,67.08625990000019,67.08625990000019,001,P002,2025_Jan_18_0938,CategoryLocalizer,2021.2.3,59.93612008326343,
18.0,18.8,1,0.75,Stimuli\ImageFiles-Set1\Objects\Object_ShoppingCart_00001.png,0,0,0,13,13,13,,,,,,,,,,,,,18.016956299999947,0.016956299999947078,None,,67.28642239999999,67.28642239999999,67.28642239999999,67.28642239999999,67.28642239999999,67.28642239999999,67.28642239999999,67.28642239999999,001,P002,2025_Jan_18_0938,CategoryLocalizer,2021.2.3,59.93612008326343,
18.8,19.0,5,0.0,Stimuli\Blank.png,0,0,0,14,14,14,,,,,,,,,,,,,18.81648610000002,0.016486100000019377,None,,68.0704469000002,68.0704469000002,68.0704469000002,68.0704469000002,68.0704469000002,68.0704469000002,68.0704469000002,68.0704469000002,001,P002,2025_Jan_18_0938,CategoryLocalizer,2021.2.3,59.93612008326343,
19.0,19.8,1,0.75,Stimuli\ImageFiles-Set1\Objects\Object_FileFolder_00001.png,0,0,0,15,15,15,,,,,,,,,,,,,18.998521999999866,-0.0014780000001337612,None,,68.27063010000029,68.27063010000029,68.27063010000029,68.27063010000029,68.27063010000029,68.27063010000029,68.27063010000029,68.27063010000029,001,P002,2025_Jan_18_0938,CategoryLocalizer,2021.2.3,59.93612008326343,
19.8,20.0,5,0.0,Stimuli\Blank.png,0,0,0,16,16,16,,,,,,,,,,,,,19.818001300000105,0.018001300000104692,None,,69.0713509000002,69.0713509000002,69.0713509000002,69.0713509000002,69.0713509000002,69.0713509000002,69.0713509000002,69.0713509000002,001,P002,2025_Jan_18_0938,CategoryLocalizer,2021.2.3,59.93612008326343,
20.0,20.8,1,0.75,Stimuli\ImageFiles-Set1\Objects\Object_Gun_00001.png,0,0,0,17,17,17,,,,,,,,,,,,,20.00040059999992,0.0004005999999208143,None,,69.27149710000003,69.27149710000003,69.27149710000003,69.27149710000003,69.27149710000003,69.27149710000003,69.27149710000003,69.27149710000003,001,P002,2025_Jan_18_0938,CategoryLocalizer,2021.2.3,59.93612008326343,
20.8,21.0,5,0.0,Stimuli\Blank.png,0,0,0,18,18,18,,,,,,,,,,,,,20.817649199999778,0.01764919999977721,None,,70.07220469999993,70.07220469999993,70.07220469999993,70.07220469999993,70.07220469999993,70.07220469999993,70.07220469999993,70.07220469999993,001,P002,2025_Jan_18_0938,CategoryLocalizer,2021.2.3,59.93612008326343,
21.0,21.8,1,0.75,Stimuli\ImageFiles-Set1\Objects\Object_Chest_00001.png,0,0,0,19,19,19,,,,,,,,,,,,,21.001648599999953,0.0016485999999531487,None,,70.27236489999996,70.27236489999996,70.27236489999996,70.27236489999996,70.27236489999996,70.27236489999996,70.27236489999996,70.27236489999996,001,P002,2025_Jan_18_0938,CategoryLocalizer,2021.2.3,59.93612008326343,
21.8,22.0,5,0.0,Stimuli\Blank.png,0,0,0,20,20,20,,,,,,,,,,,,,21.818426400000135,0.01842640000013418,5,0.1504595999999765,71.07308600000033,71.07308600000033,71.07308600000033,71.07308600000033,71.07308600000033,71.07308600000033,71.07308600000033,71.07308600000033,001,P002,2025_Jan_18_0938,CategoryLocalizer,2021.2.3,59.93612008326343,
22.0,22.8,1,0.75,Stimuli\ImageFiles-Set1\Objects\Object_Hammer_00001.png,0,0,0,21,21,21,,,,,,,,,,,,,22.001759100000072,0.001759100000072067,None,,71.27327990000003,71.27327990000003,71.27327990000003,71.27327990000003,71.27327990000003,71.27327990000003,71.27327990000003,71.27327990000003,001,P002,2025_Jan_18_0938,CategoryLocalizer,2021.2.3,59.93612008326343,
22.8,23.0,5,0.0,Stimuli\Blank.png,0,0,0,22,22,22,,,,,,,,,,,,,22.820708899999772,0.020708899999771546,None,,72.09066470000016,72.09066470000016,72.09066470000016,72.09066470000016,72.09066470000016,72.09066470000016,72.09066470000016,72.09066470000016,001,P002,2025_Jan_18_0938,CategoryLocalizer,2021.2.3,59.93612008326343,
23.0,23.8,1,0.75,Stimuli\ImageFiles-Set1\Objects\Object_Highchair_00001.png,0,0,0,23,23,23,,,,,,,,,,,,,23.02111960000002,0.02111960000002,None,,72.29084430000012,72.29084430000012,72.29084430000012,72.29084430000012,72.29084430000012,72.29084430000012,72.29084430000012,72.29084430000012,001,P002,2025_Jan_18_0938,CategoryLocalizer,2021.2.3,59.93612008326343,
23.8,24.0,5,0.0,Stimuli\Blank.png,0,0,0,24,24,24,,,,,,,,,,,,,23.82195929999989,0.02195929999988877,5,0.1317535999996835,73.09153220000007,73.09153220000007,73.09153220000007,73.09153220000007,73.09153220000007,73.09153220000007,73.09153220000007,73.09153220000007,001,P002,2025_Jan_18_0938,CategoryLocalizer,2021.2.3,59.93612008326343,
24.0,24.8,1,0.75,Stimuli\ImageFiles-Set1\Objects\Object_Canoe_00001.png,0,0,0,25,25,25,,,,,,,,,,,,,24.021625400000175,0.021625400000175432,None,,73.29172070000004,73.29172070000004,73.29172070000004,73.29172070000004,73.29172070000004,73.29172070000004,73.29172070000004,73.29172070000004,001,P002,2025_Jan_18_0938,CategoryLocalizer,2021.2.3,59.93612008326343,
24.8,25.0,5,0.0,Stimuli\Blank.png,0,0,0,26,26,26,,,,,,,,,,,,,24.820485299999746,0.02048529999974491,None,,74.07573000000002,74.07573000000002,74.07573000000002,74.07573000000002,74.07573000000002,74.07573000000002,74.07573000000002,74.07573000000002,001,P002,2025_Jan_18_0938,CategoryLocalizer,2021.2.3,59.93612008326343,
25.0,25.8,1,0.75,Stimuli\ImageFiles-Set1\Objects\Object_Baseball_00001.png,0,0,0,27,27,27,,,,,,,,,,,,,25.005716399999983,0.0057163999999829684,None,,74.29258269999991,74.29258269999991,74.29258269999991,74.29258269999991,74.29258269999991,74.29258269999991,74.29258269999991,74.29258269999991,001,P002,2025_Jan_18_0938,CategoryLocalizer,2021.2.3,59.93612008326343,
25.8,26.0,5,0.0,Stimuli\Blank.png,0,0,0,28,28,28,,,,,,,,,,,,,25.838667500000156,0.038667500000155286,5,0.13012090000029275,75.09329520000028,75.09329520000028,75.09329520000028,75.09329520000028,75.09329520000028,75.09329520000028,75.09329520000028,75.09329520000028,001,P002,2025_Jan_18_0938,CategoryLocalizer,2021.2.3,59.93612008326343,
26.0,26.8,1,0.75,Stimuli\ImageFiles-Set1\Objects\Object_Lamp_00001.png,0,0,0,29,29,29,,,,,,,,,,,,,26.005024499999763,0.005024499999763066,None,,75.27678620000006,75.27678620000006,75.27678620000006,75.27678620000006,75.27678620000006,75.27678620000006,75.27678620000006,75.27678620000006,001,P002,2025_Jan_18_0938,CategoryLocalizer,2021.2.3,59.93612008326343,
26.8,27.0,5,0.0,Stimuli\Blank.png,0,0,0,30,30,30,,,,,,,,,,,,,26.822730200000024,0.022730200000022904,None,,76.07748600000014,76.07748600000014,76.07748600000014,76.07748600000014,76.07748600000014,76.07748600000014,76.07748600000014,76.07748600000014,001,P002,2025_Jan_18_0938,CategoryLocalizer,2021.2.3,59.93612008326343,
27.0,27.8,1,0.75,Stimuli\ImageFiles-Set1\Objects\Object_Boat_00001.png,0,0,0,31,31,31,,,,,,,,,,,,,27.006448600000112,0.006448600000112492,None,,76.27767010000025,76.27767010000025,76.27767010000025,76.27767010000025,76.27767010000025,76.27767010000025,76.27767010000025,76.27767010000025,001,P002,2025_Jan_18_0938,CategoryLocalizer,2021.2.3,59.93612008326343,
27.8,28.0,5,0.0,Stimuli\Blank.png,0,0,0,32,32,32,,,,,,,,,,,,,27.823579100000188,0.02357910000018748,5,0.14505469999994602,77.07837420000033,77.07837420000033,77.07837420000033,77.07837420000033,77.07837420000033,77.07837420000033,77.07837420000033,77.07837420000033,001,P002,2025_Jan_18_0938,CategoryLocalizer,2021.2.3,59.93612008326343,
28.0,28.8,2,0.75,Stimuli\ImageFiles-Set1\Bodies\Bodies_Walking_00006.png,0,0,0,33,33,33,,,,,,,,,,,,,28.007066300000133,0.007066300000133197,None,,77.2785587000003,77.2785587000003,77.2785587000003,77.2785587000003,77.2785587000003,77.2785587000003,77.2785587000003,77.2785587000003,001,P002,2025_Jan_18_0938,CategoryLocalizer,2021.2.3,59.93612008326343,
28.8,29.0,5,0.0,Stimuli\Blank.png,0,0,0,34,34,34,,,,,,,,,,,,,28.825930900000003,0.02593090000000231,None,,78.09595130000025,78.09595130000025,78.09595130000025,78.09595130000025,78.09595130000025,78.09595130000025,78.09595130000025,78.09595130000025,001,P002,2025_Jan_18_0938,CategoryLocalizer,2021.2.3,59.93612008326343,
29.0,29.8,2,0.75,Stimuli\ImageFiles-Set1\Bodies\Bodies_QuadStretch_00005.png,0,0,0,35,35,35,,,,,,,,,,,,,29.0246874999998,0.02468749999979991,None,,78.29615839999997,78.29615839999997,78.29615839999997,78.29615839999997,78.29615839999997,78.29615839999997,78.29615839999997,78.29615839999997,001,P002,2025_Jan_18_0938,CategoryLocalizer,2021.2.3,59.93612008326343,
29.8,30.0,5,0.0,Stimuli\Blank.png,0,0,0,36,36,36,,,,,,,,,,,,,29.825490499999887,0.025490499999886396,5,0.14315979999992123,79.08012940000026,79.08012940000026,79.08012940000026,79.08012940000026,79.08012940000026,79.08012940000026,79.08012940000026,79.08012940000026,001,P002,2025_Jan_18_0938,CategoryLocalizer,2021.2.3,59.93612008326343,
30.0,30.8,2,0.75,Stimuli\ImageFiles-Set1\Bodies\Bodies_Jumping_00004.png,0,0,0,37,37,37,,,,,,,,,,,,,30.009592599999905,0.00959259999990536,None,,79.28032239999993,79.28032239999993,79.28032239999993,79.28032239999993,79.28032239999993,79.28032239999993,79.28032239999993,79.28032239999993,001,P002,2025_Jan_18_0938,CategoryLocalizer,2021.2.3,59.93612008326343,
30.8,31.0,5,0.0,Stimuli\Blank.png,0,0,0,38,38,38,,,,,,,,,,,,,30.826460100000077,0.026460100000075926,None,,80.08101579999993,80.08101579999993,80.08101579999993,80.08101579999993,80.08101579999993,80.08101579999993,80.08101579999993,80.08101579999993,001,P002,2025_Jan_18_0938,CategoryLocalizer,2021.2.3,59.93612008326343,
31.0,31.8,2,0.75,Stimuli\ImageFiles-Set1\Bodies\Bodies_Crawling_00003.png,0,0,0,39,39,39,,,,,,,,,,,,,31.00960989999976,0.009609899999759364,None,,80.28124220000018,80.28124220000018,80.28124220000018,80.28124220000018,80.28124220000018,80.28124220000018,80.28124220000018,80.28124220000018,001,P002,2025_Jan_18_0938,CategoryLocalizer,2021.2.3,59.93612008326343,
31.8,32.0,5,0.0,Stimuli\Blank.png,0,0,0,40,40,40,,,,,,,,,,,,,31.826583200000186,0.02658320000018577,5,0.1416094000001067,81.08190450000029,81.08190450000029,81.08190450000029,81.08190450000029,81.08190450000029,81.08190450000029,81.08190450000029,81.08190450000029,001,P002,2025_Jan_18_0938,CategoryLocalizer,2021.2.3,59.93612008326343,
32.0,32.8,2,0.75,Stimuli\ImageFiles-Set1\Bodies\Bodies_Crawling_00006.png,0,0,0,41,41,41,,,,,,,,,,,,,32.010867999999846,0.010867999999845779,None,,81.29875029999994,81.29875029999994,81.29875029999994,81.29875029999994,81.29875029999994,81.29875029999994,81.29875029999994,81.29875029999994,001,P002,2025_Jan_18_0938,CategoryLocalizer,2021.2.3,59.93612008326343,
32.8,33.0,5,0.0,Stimuli\Blank.png,0,0,0,42,42,42,,,,,,,,,,,,,32.84662389999994,0.04662389999994332,None,,82.11615220000022,82.11615220000022,82.11615220000022,82.11615220000022,82.11615220000022,82.11615220000022,82.11615220000022,82.11615220000022,001,P002,2025_Jan_18_0938,CategoryLocalizer,2021.2.3,59.93612008326343,
33.0,33.8,2,0.75,Stimuli\ImageFiles-Set1\Bodies\Bodies_Kneeling_00005.png,0,0,0,43,43,43,,,,,,,,,,,,,33.02847780000002,0.02847780000001876,None,,82.29964020000034,82.29964020000034,82.29964020000034,82.29964020000034,82.29964020000034,82.29964020000034,82.29964020000034,82.29964020000034,001,P002,2025_Jan_18_0938,CategoryLocalizer,2021.2.3,59.93612008326343,
33.8,34.0,5,0.0,Stimuli\Blank.png,0,0,0,44,44,44,,,,,,,,,,,,,33.82933030000004,0.029330300000040666,5,0.13985049999973853,83.08365580000009,83.08365580000009,83.08365580000009,83.08365580000009,83.08365580000009,83.08365580000009,83.08365580000009,83.08365580000009,001,P002,2025_Jan_18_0938,CategoryLocalizer,2021.2.3,59.93612008326343,
34.0,34.8,2,0.75,Stimuli\ImageFiles-Set1\Bodies\Bodies_Kneeling_00005.png,1,1,0,45,45,45,,,,,,,,,,,,,34.01236430000017,0.01236430000017208,1,0.4054255999999441,83.28384290000031,83.28384290000031,83.28384290000031,83.28384290000031,83.28384290000031,83.28384290000031,83.28384290000031,83.28384290000031,001,P002,2025_Jan_18_0938,CategoryLocalizer,2021.2.3,59.93612008326343,
34.8,35.0,5,0.0,Stimuli\Blank.png,0,0,0,46,46,46,,,,,,,,,,,,,34.83069299999988,0.03069299999988573,None,,84.08450820000007,84.08450820000007,84.08450820000007,84.08450820000007,84.08450820000007,84.08450820000007,84.08450820000007,84.08450820000007,001,P002,2025_Jan_18_0938,CategoryLocalizer,2021.2.3,59.93612008326343,
35.0,35.8,2,0.75,Stimuli\ImageFiles-Set1\Bodies\Bodies_Walking_00002.png,0,0,0,47,47,47,,,,,,,,,,,,,35.012631000000056,0.012631000000055792,None,,84.28471910000007,84.28471910000007,84.28471910000007,84.28471910000007,84.28471910000007,84.28471910000007,84.28471910000007,84.28471910000007,001,P002,2025_Jan_18_0938,CategoryLocalizer,2021.2.3,59.93612008326343,
35.8,36.0,5,0.0,Stimuli\Blank.png,0,0,0,48,48,48,,,,,,,,,,,,,35.83033010000008,0.030330100000085736,5,0.13781860000017332,85.0854531,85.0854531,85.0854531,85.0854531,85.0854531,85.0854531,85.0854531,85.0854531,001,P002,2025_Jan_18_0938,CategoryLocalizer,2021.2.3,59.93612008326343,
36.0,36.8,2,0.75,Stimuli\ImageFiles-Set1\Bodies\Bodies_Crawling_00001.png,0,0,0,49,49,49,,,,,,,,,,,,,36.015969699999914,0.015969699999914155,None,,85.28559059999998,85.28559059999998,85.28559059999998,85.28559059999998,85.28559059999998,85.28559059999998,85.28559059999998,85.28559059999998,001,P002,2025_Jan_18_0938,CategoryLocalizer,2021.2.3,59.93612008326343,
36.8,37.0,5,0.0,Stimuli\Blank.png,0,0,0,50,50,50,,,,,,,,,,,,,36.81685659999994,0.01685659999994016,None,,86.08631970000033,86.08631970000033,86.08631970000033,86.08631970000033,86.08631970000033,86.08631970000033,86.08631970000033,86.08631970000033,001,P002,2025_Jan_18_0938,CategoryLocalizer,2021.2.3,59.93612008326343,
37.0,37.8,2,0.75,Stimuli\ImageFiles-Set1\Bodies\Bodies_CobraPose_00001.png,0,0,0,51,51,51,,,,,,,,,,,,,37.014612099999795,0.014612099999794737,None,,86.28649760000008,86.28649760000008,86.28649760000008,86.28649760000008,86.28649760000008,86.28649760000008,86.28649760000008,86.28649760000008,001,P002,2025_Jan_18_0938,CategoryLocalizer,2021.2.3,59.93612008326343,
37.8,38.0,5,0.0,Stimuli\Blank.png,0,0,0,52,52,52,,,,,,,,,,,,,37.832440600000155,0.03244060000015736,None,,87.08717359999991,87.08717359999991,87.08717359999991,87.08717359999991,87.08717359999991,87.08717359999991,87.08717359999991,87.08717359999991,001,P002,2025_Jan_18_0938,CategoryLocalizer,2021.2.3,59.93612008326343,
38.0,38.8,2,0.75,Stimuli\ImageFiles-Set1\Bodies\Bodies_Pushing_00003.png,0,0,0,53,53,53,,,,,,,,,,,,,37.99861419999979,-0.0013858000002073823,None,,87.27073120000023,87.27073120000023,87.27073120000023,87.27073120000023,87.27073120000023,87.27073120000023,87.27073120000023,87.27073120000023,001,P002,2025_Jan_18_0938,CategoryLocalizer,2021.2.3,59.93612008326343,
38.8,39.0,5,0.0,Stimuli\Blank.png,0,0,0,54,54,54,,,,,,,,,,,,,38.81737280000016,0.017372800000160282,None,,88.07138200000009,88.07138200000009,88.07138200000009,88.07138200000009,88.07138200000009,88.07138200000009,88.07138200000009,88.07138200000009,001,P002,2025_Jan_18_0938,CategoryLocalizer,2021.2.3,59.93612008326343,
39.0,39.8,2,0.75,Stimuli\ImageFiles-Set1\Bodies\Bodies_Kneeling_00007.png,0,0,0,55,55,55,,,,,,,,,,,,,39.002119799999946,0.002119799999945826,None,,88.28823779999993,88.28823779999993,88.28823779999993,88.28823779999993,88.28823779999993,88.28823779999993,88.28823779999993,88.28823779999993,001,P002,2025_Jan_18_0938,CategoryLocalizer,2021.2.3,59.93612008326343,
39.8,40.0,5,0.0,Stimuli\Blank.png,0,0,0,56,56,56,,,,,,,,,,,,,39.83581490000006,0.035814900000062266,5,0.11761049999995521,89.10568160000003,89.10568160000003,89.10568160000003,89.10568160000003,89.10568160000003,89.10568160000003,89.10568160000003,89.10568160000003,001,P002,2025_Jan_18_0938,CategoryLocalizer,2021.2.3,59.93612008326343,
40.0,40.8,2,0.75,Stimuli\ImageFiles-Set1\Bodies\Bodies_PushUp_00002.png,0,0,0,57,57,57,,,,,,,,,,,,,40.01766880000014,0.017668800000137708,None,,89.28913190000003,89.28913190000003,89.28913190000003,89.28913190000003,89.28913190000003,89.28913190000003,89.28913190000003,89.28913190000003,001,P002,2025_Jan_18_0938,CategoryLocalizer,2021.2.3,59.93612008326343,
40.8,41.0,5,0.0,Stimuli\Blank.png,0,0,0,58,58,58,,,,,,,,,,,,,40.818442700000105,0.018442700000107948,None,,90.0731323,90.0731323,90.0731323,90.0731323,90.0731323,90.0731323,90.0731323,90.0731323,001,P002,2025_Jan_18_0938,CategoryLocalizer,2021.2.3,59.93612008326343,
41.0,41.8,2,0.75,Stimuli\ImageFiles-Set1\Bodies\Bodies_QuadStretch_00001.png,0,0,0,59,59,59,,,,,,,,,,,,,41.001779499999884,0.0017794999998841377,None,,90.27331989999993,90.27331989999993,90.27331989999993,90.27331989999993,90.27331989999993,90.27331989999993,90.27331989999993,90.27331989999993,001,P002,2025_Jan_18_0938,CategoryLocalizer,2021.2.3,59.93612008326343,
41.8,42.0,5,0.0,Stimuli\Blank.png,0,0,0,60,60,60,,,,,,,,,,,,,41.820866099999876,0.02086609999987843,5,0.1490910999996231,91.07403569999997,91.07403569999997,91.07403569999997,91.07403569999997,91.07403569999997,91.07403569999997,91.07403569999997,91.07403569999997,001,P002,2025_Jan_18_0938,CategoryLocalizer,2021.2.3,59.93612008326343,
42.0,42.8,2,0.75,Stimuli\ImageFiles-Set1\Bodies\Bodies_Standing_00007.png,0,0,0,61,61,61,,,,,,,,,,,,,42.00268069999993,0.002680699999928038,None,,91.27422370000022,91.27422370000022,91.27422370000022,91.27422370000022,91.27422370000022,91.27422370000022,91.27422370000022,91.27422370000022,001,P002,2025_Jan_18_0938,CategoryLocalizer,2021.2.3,59.93612008326343,
42.8,43.0,5,0.0,Stimuli\Blank.png,0,0,0,62,62,62,,,,,,,,,,,,,42.82128990000001,0.021289900000013517,None,,92.0915758000001,92.0915758000001,92.0915758000001,92.0915758000001,92.0915758000001,92.0915758000001,92.0915758000001,92.0915758000001,001,P002,2025_Jan_18_0938,CategoryLocalizer,2021.2.3,59.93612008326343,
43.0,43.8,2,0.75,Stimuli\ImageFiles-Set1\Bodies\Bodies_Punching_00006.png,0,0,0,63,63,63,,,,,,,,,,,,,43.01998569999978,0.019985699999779172,None,,92.2917837,92.2917837,92.2917837,92.2917837,92.2917837,92.2917837,92.2917837,92.2917837,001,P002,2025_Jan_18_0938,CategoryLocalizer,2021.2.3,59.93612008326343,
43.8,44.0,5,0.0,Stimuli\Blank.png,0,0,0,64,64,64,,,,,,,,,,,,,43.82151269999986,0.021512699999860274,5,0.14740780000011,93.07578880000028,93.07578880000028,93.07578880000028,93.07578880000028,93.07578880000028,93.07578880000028,93.07578880000028,93.07578880000028,001,P002,2025_Jan_18_0938,CategoryLocalizer,2021.2.3,59.93612008326343,
44.0,44.8,3,0.75,Stimuli\ImageFiles-Set1\Faces\Face_00045.png,0,0,0,65,65,65,,,,,,,,,,,,,44.00461910000013,0.004619100000127219,None,,93.27592800000002,93.27592800000002,93.27592800000002,93.27592800000002,93.27592800000002,93.27592800000002,93.27592800000002,93.27592800000002,001,P002,2025_Jan_18_0938,CategoryLocalizer,2021.2.3,59.93612008326343,
44.8,45.0,5,0.0,Stimuli\Blank.png,0,0,0,66,66,66,,,,,,,,,,,,,44.82185389999995,0.021853899999953796,None,,94.07666659999995,94.07666659999995,94.07666659999995,94.07666659999995,94.07666659999995,94.07666659999995,94.07666659999995,94.07666659999995,001,P002,2025_Jan_18_0938,CategoryLocalizer,2021.2.3,59.93612008326343,
45.0,45.8,3,0.75,Stimuli\ImageFiles-Set1\Faces\Face_00055.png,0,0,0,67,67,67,,,,,,,,,,,,,45.00548299999991,0.005482999999912863,None,,94.29351470000029,94.29351470000029,94.29351470000029,94.29351470000029,94.29351470000029,94.29351470000029,94.29351470000029,94.29351470000029,001,P002,2025_Jan_18_0938,CategoryLocalizer,2021.2.3,59.93612008326343,
45.8,46.0,5,0.0,Stimuli\Blank.png,0,0,0,68,68,68,,,,,,,,,,,,,45.84064239999998,0.04064239999998165,5,0.1122387999998864,95.11093040000014,95.11093040000014,95.11093040000014,95.11093040000014,95.11093040000014,95.11093040000014,95.11093040000014,95.11093040000014,001,P002,2025_Jan_18_0938,CategoryLocalizer,2021.2.3,59.93612008326343,
46.0,46.8,3,0.75,Stimuli\ImageFiles-Set1\Faces\Face_00022.png,0,0,0,69,69,69,,,,,,,,,,,,,46.02241959999992,0.022419599999921047,None,,95.29440890000024,95.29440890000024,95.29440890000024,95.29440890000024,95.29440890000024,95.29440890000024,95.29440890000024,95.29440890000024,001,P002,2025_Jan_18_0938,CategoryLocalizer,2021.2.3,59.93612008326343,
46.8,47.0,5,0.0,Stimuli\Blank.png,0,0,0,70,70,70,,,,,,,,,,,,,46.823568499999965,0.023568499999967685,None,,96.07841550000012,96.07841550000012,96.07841550000012,96.07841550000012,96.07841550000012,96.07841550000012,96.07841550000012,96.07841550000012,001,P002,2025_Jan_18_0938,CategoryLocalizer,2021.2.3,59.93612008326343,
47.0,47.8,3,0.75,Stimuli\ImageFiles-Set1\Faces\Face_00016.png,0,0,0,71,71,71,,,,,,,,,,,,,47.00713360000009,0.007133600000088336,None,,96.2619152000002,96.2619152000002,96.2619152000002,96.2619152000002,96.2619152000002,96.2619152000002,96.2619152000002,96.2619152000002,001,P002,2025_Jan_18_0938,CategoryLocalizer,2021.2.3,59.93612008326343,
47.8,48.0,5,0.0,Stimuli\Blank.png,0,0,0,72,72,72,,,,,,,,,,,,,47.807915200000025,0.007915200000027767,5,0.16076099999963844,97.06261530000029,97.06261530000029,97.06261530000029,97.06261530000029,97.06261530000029,97.06261530000029,97.06261530000029,97.06261530000029,001,P002,2025_Jan_18_0938,CategoryLocalizer,2021.2.3,59.93612008326343,
48.0,48.8,3,0.75,Stimuli\ImageFiles-Set1\Faces\Face_00057.png,0,0,0,73,73,73,,,,,,,,,,,,,48.00824019999982,0.008240199999818287,None,,97.27950790000023,97.27950790000023,97.27950790000023,97.27950790000023,97.27950790000023,97.27950790000023,97.27950790000023,97.27950790000023,001,P002,2025_Jan_18_0938,CategoryLocalizer,2021.2.3,59.93612008326343,
48.8,49.0,5,0.0,Stimuli\Blank.png,0,0,0,74,74,74,,,,,,,,,,,,,48.82543099999975,0.025430999999755954,None,,98.0801891000001,98.0801891000001,98.0801891000001,98.0801891000001,98.0801891000001,98.0801891000001,98.0801891000001,98.0801891000001,001,P002,2025_Jan_18_0938,CategoryLocalizer,2021.2.3,59.93612008326343,
49.0,49.8,3,0.75,Stimuli\ImageFiles-Set1\Faces\Face_00077.png,0,0,0,75,75,75,,,,,,,,,,,,,49.008422699999755,0.008422699999755423,None,,98.28035040000032,98.28035040000032,98.28035040000032,98.28035040000032,98.28035040000032,98.28035040000032,98.28035040000032,98.28035040000032,001,P002,2025_Jan_18_0938,CategoryLocalizer,2021.2.3,59.93612008326343,
49.8,50.0,5,0.0,Stimuli\Blank.png,0,0,0,76,76,76,,,,,,,,,,,,,49.82652479999979,0.02652479999979107,5,0.1421490999996422,99.08107020000034,99.08107020000034,99.08107020000034,99.08107020000034,99.08107020000034,99.08107020000034,99.08107020000034,99.08107020000034,001,P002,2025_Jan_18_0938,CategoryLocalizer,2021.2.3,59.93612008326343,
50.0,50.8,3,0.75,Stimuli\ImageFiles-Set1\Faces\Face_00079.png,0,0,0,77,77,77,,,,,,,,,,,,,50.00974700000006,0.009747000000061234,None,,99.28123080000023,99.28123080000023,99.28123080000023,99.28123080000023,99.28123080000023,99.28123080000023,99.28123080000023,99.28123080000023,001,P002,2025_Jan_18_0938,CategoryLocalizer,2021.2.3,59.93612008326343,
50.8,51.0,5,0.0,Stimuli\Blank.png,0,0,0,78,78,78,,,,,,,,,,,,,50.827101200000016,0.027101200000018366,None,,100.0819406999999,100.0819406999999,100.0819406999999,100.0819406999999,100.0819406999999,100.0819406999999,100.0819406999999,100.0819406999999,001,P002,2025_Jan_18_0938,CategoryLocalizer,2021.2.3,59.93612008326343,
51.0,51.8,3,0.75,Stimuli\ImageFiles-Set1\Faces\Face_00012.png,0,0,0,79,79,79,,,,,,,,,,,,,51.011359300000095,0.011359300000094663,None,,100.29881440000008,100.29881440000008,100.29881440000008,100.29881440000008,100.29881440000008,100.29881440000008,100.29881440000008,100.29881440000008,001,P002,2025_Jan_18_0938,CategoryLocalizer,2021.2.3,59.93612008326343,
51.8,52.0,5,0.0,Stimuli\Blank.png,0,0,0,80,80,80,,,,,,,,,,,,,51.8471684000001,0.04716840000010336,5,0.10814049999999042,101.11618829999998,101.11618829999998,101.11618829999998,101.11618829999998,101.11618829999998,101.11618829999998,101.11618829999998,101.11618829999998,001,P002,2025_Jan_18_0938,CategoryLocalizer,2021.2.3,59.93612008326343,
52.0,52.8,3,0.75,Stimuli\ImageFiles-Set1\Faces\Face_00063.png,0,0,0,81,81,81,,,,,,,,,,,,,52.02848589999985,0.028485899999850517,None,,101.29967290000013,101.29967290000013,101.29967290000013,101.29967290000013,101.29967290000013,101.29967290000013,101.29967290000013,101.29967290000013,001,P002,2025_Jan_18_0938,CategoryLocalizer,2021.2.3,59.93612008326343,
52.8,53.0,5,0.0,Stimuli\Blank.png,0,0,0,82,82,82,,,,,,,,,,,,,52.8293577999998,0.029357799999800704,None,,102.08371149999994,102.08371149999994,102.08371149999994,102.08371149999994,102.08371149999994,102.08371149999994,102.08371149999994,102.08371149999994,001,P002,2025_Jan_18_0938,CategoryLocalizer,2021.2.3,59.93612008326343,
53.0,53.8,3,0.75,Stimuli\ImageFiles-Set1\Faces\Face_00007.png,0,0,0,83,83,83,,,,,,,,,,,,,53.01188309999998,0.011883099999977276,None,,102.28393790000018,102.28393790000018,102.28393790000018,102.28393790000018,102.28393790000018,102.28393790000018,102.28393790000018,102.28393790000018,001,P002,2025_Jan_18_0938,CategoryLocalizer,2021.2.3,59.93612008326343,
53.8,54.0,5,0.0,Stimuli\Blank.png,0,0,0,84,84,84,,,,,,,,,,,,,53.831847299999936,0.03184729999993863,5,0.12190879999980098,103.10126100000025,103.10126100000025,103.10126100000025,103.10126100000025,103.10126100000025,103.10126100000025,103.10126100000025,103.10126100000025,001,P002,2025_Jan_18_0938,CategoryLocalizer,2021.2.3,59.93612008326343,
54.0,54.8,3,0.75,Stimuli\ImageFiles-Set1\Faces\Face_00014.png,0,0,0,85,85,85,,,,,,,,,,,,,54.029669699999886,0.02966969999988578,None,,103.3014478,103.3014478,103.3014478,103.3014478,103.3014478,103.3014478,103.3014478,103.3014478,001,P002,2025_Jan_18_0938,CategoryLocalizer,2021.2.3,59.93612008326343,
54.8,55.0,5,0.0,Stimuli\Blank.png,0,0,0,86,86,86,,,,,,,,,,,,,54.83069859999978,0.03069859999978064,None,,104.08547510000017,104.08547510000017,104.08547510000017,104.08547510000017,104.08547510000017,104.08547510000017,104.08547510000017,104.08547510000017,001,P002,2025_Jan_18_0938,CategoryLocalizer,2021.2.3,59.93612008326343,
55.0,55.8,3,0.75,Stimuli\ImageFiles-Set1\Faces\Face_00067.png,0,0,0,87,87,87,,,,,,,,,,,,,55.01361459999998,0.013614599999982602,None,,104.28565190000018,104.28565190000018,104.28565190000018,104.28565190000018,104.28565190000018,104.28565190000018,104.28565190000018,104.28565190000018,001,P002,2025_Jan_18_0938,CategoryLocalizer,2021.2.3,59.93612008326343,
55.8,56.0,5,0.0,Stimuli\Blank.png,0,0,0,88,88,88,,,,,,,,,,,,,55.83187050000015,0.0318705000001529,5,0.13691160000007585,105.08635460000005,105.08635460000005,105.08635460000005,105.08635460000005,105.08635460000005,105.08635460000005,105.08635460000005,105.08635460000005,001,P002,2025_Jan_18_0938,CategoryLocalizer,2021.2.3,59.93612008326343,
56.0,56.8,3,0.75,Stimuli\ImageFiles-Set1\Faces\Face_00035.png,0,0,0,89,89,89,,,,,,,,,,,,,56.01695440000003,0.016954400000031455,None,,105.30319950000012,105.30319950000012,105.30319950000012,105.30319950000012,105.30319950000012,105.30319950000012,105.30319950000012,105.30319950000012,001,P002,2025_Jan_18_0938,CategoryLocalizer,2021.2.3,59.93612008326343,
56.8,57.0,5,0.0,Stimuli\Blank.png,0,0,0,90,90,90,,,,,,,,,,,,,56.832808099999966,0.032808099999968476,None,,106.08722340000031,106.08722340000031,106.08722340000031,106.08722340000031,106.08722340000031,106.08722340000031,106.08722340000031,106.08722340000031,001,P002,2025_Jan_18_0938,CategoryLocalizer,2021.2.3,59.93612008326343,
57.0,57.8,3,0.75,Stimuli\ImageFiles-Set1\Faces\Face_00001.png,0,0,0,91,91,91,,,,,,,,,,,,,57.001093500000025,0.0010935000000245054,None,,106.28739170000017,106.28739170000017,106.28739170000017,106.28739170000017,106.28739170000017,106.28739170000017,106.28739170000017,106.28739170000017,001,P002,2025_Jan_18_0938,CategoryLocalizer,2021.2.3,59.93612008326343,
57.8,58.0,5,0.0,Stimuli\Blank.png,0,0,0,92,92,92,,,,,,,,,,,,,57.833581400000185,0.0335814000001875,None,,107.08827390000033,107.08827390000033,107.08827390000033,107.08827390000033,107.08827390000033,107.08827390000033,107.08827390000033,107.08827390000033,001,P002,2025_Jan_18_0938,CategoryLocalizer,2021.2.3,59.93612008326343,
58.0,58.8,3,0.75,Stimuli\ImageFiles-Set1\Faces\Face_00001.png,1,1,0,93,93,93,,,,,,,,,,,,,58.00126080000018,0.0012608000001819164,1,0.4156189999998787,107.27160060000006,107.27160060000006,107.27160060000006,107.27160060000006,107.27160060000006,107.27160060000006,107.27160060000006,107.27160060000006,001,P002,2025_Jan_18_0938,CategoryLocalizer,2021.2.3,59.93612008326343,
58.8,59.0,5,0.0,Stimuli\Blank.png,0,0,0,94,94,94,,,,,,,,,,,,,58.81718189999992,0.01718189999992603,None,,108.07230389999995,108.07230389999995,108.07230389999995,108.07230389999995,108.07230389999995,108.07230389999995,108.07230389999995,108.07230389999995,001,P002,2025_Jan_18_0938,CategoryLocalizer,2021.2.3,59.93612008326343,
59.0,59.8,3,0.75,Stimuli\ImageFiles-Set1\Faces\Face_00095.png,0,0,0,95,95,95,,,,,,,,,,,,,59.00145169999996,0.00145169999996142,None,,108.27252850000013,108.27252850000013,108.27252850000013,108.27252850000013,108.27252850000013,108.27252850000013,108.27252850000013,108.27252850000013,001,P002,2025_Jan_18_0938,CategoryLocalizer,2021.2.3,59.93612008326343,
59.8,60.0,5,0.0,Stimuli\Blank.png,0,0,0,96,96,96,,,,,,,,,,,,,59.81869999999981,0.018699999999810757,5,0.15021260000003167,109.07317980000016,109.07317980000016,109.07317980000016,109.07317980000016,109.07317980000016,109.07317980000016,109.07317980000016,109.07317980000016,001,P002,2025_Jan_18_0938,CategoryLocalizer,2021.2.3,59.93612008326343,
60.0,60.8,4,0.75,Stimuli\ImageFiles-Set1\Scenes\Scenes_027.png,0,0,0,97,97,97,,,,,,,,,,,,,60.00225369999998,0.0022536999999829277,None,,109.2733588000001,109.2733588000001,109.2733588000001,109.2733588000001,109.2733588000001,109.2733588000001,109.2733588000001,109.2733588000001,001,P002,2025_Jan_18_0938,CategoryLocalizer,2021.2.3,59.93612008326343,
60.8,61.0,5,0.0,Stimuli\Blank.png,0,0,0,98,98,98,,,,,,,,,,,,,60.82121019999977,0.021210199999771362,None,,110.09075190000021,110.09075190000021,110.09075190000021,110.09075190000021,110.09075190000021,110.09075190000021,110.09075190000021,110.09075190000021,001,P002,2025_Jan_18_0938,CategoryLocalizer,2021.2.3,59.93612008326343,
61.0,61.8,4,0.75,Stimuli\ImageFiles-Set1\Scenes\Scenes_030.png,0,0,0,99,99,99,,,,,,,,,,,,,61.02068529999997,0.020685299999968265,None,,110.29092889999993,110.29092889999993,110.29092889999993,110.29092889999993,110.29092889999993,110.29092889999993,110.29092889999993,110.29092889999993,001,P002,2025_Jan_18_0938,CategoryLocalizer,2021.2.3,59.93612008326343,
61.8,62.0,5,0.0,Stimuli\Blank.png,0,0,0,100,100,100,,,,,,,,,,,,,61.8206925999998,0.020692599999804884,5,0.14918140000008862,111.07495319999998,111.07495319999998,111.07495319999998,111.07495319999998,111.07495319999998,111.07495319999998,111.07495319999998,111.07495319999998,001,P002,2025_Jan_18_0938,CategoryLocalizer,2021.2.3,59.93612008326343,
62.0,62.8,4,0.75,Stimuli\ImageFiles-Set1\Scenes\Scenes_049.png,0,0,0,101,101,101,,,,,,,,,,,,,62.00369379999984,0.0036937999998372106,None,,111.27512340000021,111.27512340000021,111.27512340000021,111.27512340000021,111.27512340000021,111.27512340000021,111.27512340000021,111.27512340000021,001,P002,2025_Jan_18_0938,CategoryLocalizer,2021.2.3,59.93612008326343,
62.8,63.0,5,0.0,Stimuli\Blank.png,0,0,0,102,102,102,,,,,,,,,,,,,62.821393799999896,0.021393799999898988,None,,112.07583960000011,112.07583960000011,112.07583960000011,112.07583960000011,112.07583960000011,112.07583960000011,112.07583960000011,112.07583960000011,001,P002,2025_Jan_18_0938,CategoryLocalizer,2021.2.3,59.93612008326343,
63.0,63.8,4,0.75,Stimuli\ImageFiles-Set1\Scenes\Scenes_049.png,1,1,0,103,103,103,,,,,,,,,,,,,63.00487759999987,0.004877599999872473,1,0.542411599999923,112.27599559999999,112.27599559999999,112.27599559999999,112.27599559999999,112.27599559999999,112.27599559999999,112.27599559999999,112.27599559999999,001,P002,2025_Jan_18_0938,CategoryLocalizer,2021.2.3,59.93612008326343,
63.8,64.0,5,0.0,Stimuli\Blank.png,0,0,0,104,104,104,,,,,,,,,,,,,63.82234070000004,0.022340700000043512,5,0.1475279999999657,113.07670290000033,113.07670290000033,113.07670290000033,113.07670290000033,113.07670290000033,113.07670290000033,113.07670290000033,113.07670290000033,001,P002,2025_Jan_18_0938,CategoryLocalizer,2021.2.3,59.93612008326343,
64.0,64.8,4,0.75,Stimuli\ImageFiles-Set1\Scenes\Scenes_005.png,0,0,0,105,105,105,,,,,,,,,,,,,64.00565700000016,0.005657000000155676,None,,113.27688250000028,113.27688250000028,113.27688250000028,113.27688250000028,113.27688250000028,113.27688250000028,113.27688250000028,113.27688250000028,001,P002,2025_Jan_18_0938,CategoryLocalizer,2021.2.3,59.93612008326343,
64.8,65.0,5,0.0,Stimuli\Blank.png,0,0,0,106,106,106,,,,,,,,,,,,,64.82223359999989,0.022233599999893272,None,,114.07758890000014,114.07758890000014,114.07758890000014,114.07758890000014,114.07758890000014,114.07758890000014,114.07758890000014,114.07758890000014,001,P002,2025_Jan_18_0938,CategoryLocalizer,2021.2.3,59.93612008326343,
65.0,65.8,4,0.75,Stimuli\ImageFiles-Set1\Scenes\Scenes_050.png,0,0,0,107,107,107,,,,,,,,,,,,,65.00575249999974,0.005752499999744032,None,,114.27776399999993,114.27776399999993,114.27776399999993,114.27776399999993,114.27776399999993,114.27776399999993,114.27776399999993,114.27776399999993,001,P002,2025_Jan_18_0938,CategoryLocalizer,2021.2.3,59.93612008326343,
65.8,66.0,5,0.0,Stimuli\Blank.png,0,0,0,108,108,108,,,,,,,,,,,,,65.82558500000005,0.025585000000049263,5,0.1289664000000812,115.09517030000006,115.09517030000006,115.09517030000006,115.09517030000006,115.09517030000006,115.09517030000006,115.09517030000006,115.09517030000006,001,P002,2025_Jan_18_0938,CategoryLocalizer,2021.2.3,59.93612008326343,
66.0,66.8,4,0.75,Stimuli\ImageFiles-Set1\Scenes\Scenes_019.png,0,0,0,109,109,109,,,,,,,,,,,,,66.02395949999982,0.023959499999818945,None,,115.3120286000003,115.3120286000003,115.3120286000003,115.3120286000003,115.3120286000003,115.3120286000003,115.3120286000003,115.3120286000003,001,P002,2025_Jan_18_0938,CategoryLocalizer,2021.2.3,59.93612008326343,
66.8,67.0,5,0.0,Stimuli\Blank.png,0,0,0,110,110,110,,,,,,,,,,,,,66.84139180000011,0.04139180000011322,None,,116.09602810000024,116.09602810000024,116.09602810000024,116.09602810000024,116.09602810000024,116.09602810000024,116.09602810000024,116.09602810000024,001,P002,2025_Jan_18_0938,CategoryLocalizer,2021.2.3,59.93612008326343,
67.0,67.8,4,0.75,Stimuli\ImageFiles-Set1\Scenes\Scenes_016.png,0,0,0,111,111,111,,,,,,,,,,,,,67.0079412,0.007941200000004756,None,,116.2962279000003,116.2962279000003,116.2962279000003,116.2962279000003,116.2962279000003,116.2962279000003,116.2962279000003,116.2962279000003,001,P002,2025_Jan_18_0938,CategoryLocalizer,2021.2.3,59.93612008326343,
67.8,68.0,5,0.0,Stimuli\Blank.png,0,0,0,112,112,112,,,,,,,,,,,,,67.84152730000005,0.041527300000055334,5,0.1272276999998212,117.09691090000024,117.09691090000024,117.09691090000024,117.09691090000024,117.09691090000024,117.09691090000024,117.09691090000024,117.09691090000024,001,P002,2025_Jan_18_0938,CategoryLocalizer,2021.2.3,59.93612008326343,
68.0,68.8,4,0.75,Stimuli\ImageFiles-Set1\Scenes\Scenes_032.png,0,0,0,113,113,113,,,,,,,,,,,,,68.0090697999999,0.009069799999906536,None,,117.28040510000028,117.28040510000028,117.28040510000028,117.28040510000028,117.28040510000028,117.28040510000028,117.28040510000028,117.28040510000028,001,P002,2025_Jan_18_0938,CategoryLocalizer,2021.2.3,59.93612008326343,
68.8,69.0,5,0.0,Stimuli\Blank.png,0,0,0,114,114,114,,,,,,,,,,,,,68.8264823999998,0.02648239999980717,None,,118.08111610000014,118.08111610000014,118.08111610000014,118.08111610000014,118.08111610000014,118.08111610000014,118.08111610000014,118.08111610000014,001,P002,2025_Jan_18_0938,CategoryLocalizer,2021.2.3,59.93612008326343,
69.0,69.8,4,0.75,Stimuli\ImageFiles-Set1\Scenes\Scenes_024.png,0,0,0,115,115,115,,,,,,,,,,,,,69.0097366,0.009736599999996542,None,,118.2812812000002,118.2812812000002,118.2812812000002,118.2812812000002,118.2812812000002,118.2812812000002,118.2812812000002,118.2812812000002,001,P002,2025_Jan_18_0938,CategoryLocalizer,2021.2.3,59.93612008326343,
69.8,70.0,5,0.0,Stimuli\Blank.png,0,0,0,116,116,116,,,,,,,,,,,,,69.82737659999975,0.027376599999755058,5,0.1422763999999006,119.08199360000026,119.08199360000026,119.08199360000026,119.08199360000026,119.08199360000026,119.08199360000026,119.08199360000026,119.08199360000026,001,P002,2025_Jan_18_0938,CategoryLocalizer,2021.2.3,59.93612008326343,
70.0,70.8,4,0.75,Stimuli\ImageFiles-Set1\Scenes\Scenes_012.png,0,0,0,117,117,117,,,,,,,,,,,,,70.0108411000001,0.010841100000106962,None,,119.29890730000034,119.29890730000034,119.29890730000034,119.29890730000034,119.29890730000034,119.29890730000034,119.29890730000034,119.29890730000034,001,P002,2025_Jan_18_0938,CategoryLocalizer,2021.2.3,59.93612008326343,
70.8,71.0,5,0.0,Stimuli\Blank.png,0,0,0,118,118,118,,,,,,,,,,,,,70.8460672000001,0.046067200000109665,None,,120.11624350000011,120.11624350000011,120.11624350000011,120.11624350000011,120.11624350000011,120.11624350000011,120.11624350000011,120.11624350000011,001,P002,2025_Jan_18_0938,CategoryLocalizer,2021.2.3,59.93612008326343,
71.0,71.8,4,0.75,Stimuli\ImageFiles-Set1\Scenes\Scenes_011.png,0,0,0,119,119,119,,,,,,,,,,,,,71.02811380000003,0.028113800000028277,None,,120.29972799999996,120.29972799999996,120.29972799999996,120.29972799999996,120.29972799999996,120.29972799999996,120.29972799999996,120.29972799999996,001,P002,2025_Jan_18_0938,CategoryLocalizer,2021.2.3,59.93612008326343,
71.8,72.0,5,0.0,Stimuli\Blank.png,0,0,0,120,120,120,,,,,,,,,,,,,71.82850899999994,0.02850899999994283,5,0.14053820000026462,121.08377490000021,121.08377490000021,121.08377490000021,121.08377490000021,121.08377490000021,121.08377490000021,121.08377490000021,121.08377490000021,001,P002,2025_Jan_18_0938,CategoryLocalizer,2021.2.3,59.93612008326343,
72.0,72.8,4,0.75,Stimuli\ImageFiles-Set1\Scenes\Scenes_020.png,0,0,0,121,121,121,,,,,,,,,,,,,72.01229030000013,0.012290300000131538,None,,121.30062840000028,121.30062840000028,121.30062840000028,121.30062840000028,121.30062840000028,121.30062840000028,121.30062840000028,121.30062840000028,001,P002,2025_Jan_18_0938,CategoryLocalizer,2021.2.3,59.93612008326343,
72.8,73.0,5,0.0,Stimuli\Blank.png,0,0,0,122,122,122,,,,,,,,,,,,,72.84752519999984,0.047525199999839174,None,,122.1013253000001,122.1013253000001,122.1013253000001,122.1013253000001,122.1013253000001,122.1013253000001,122.1013253000001,122.1013253000001,001,P002,2025_Jan_18_0938,CategoryLocalizer,2021.2.3,59.93612008326343,
73.0,73.8,4,0.75,Stimuli\ImageFiles-Set1\Scenes\Scenes_001.png,0,0,0,123,123,123,,,,,,,,,,,,,73.01347889999988,0.013478899999881833,None,,122.30148430000008,122.30148430000008,122.30148430000008,122.30148430000008,122.30148430000008,122.30148430000008,122.30148430000008,122.30148430000008,001,P002,2025_Jan_18_0938,CategoryLocalizer,2021.2.3,59.93612008326343,
73.8,74.0,5,0.0,Stimuli\Blank.png,0,0,0,124,124,124,,,,,,,,,,,,,73.8474299999998,0.04742999999980668,5,0.12194080000017493,123.10219580000012,123.10219580000012,123.10219580000012,123.10219580000012,123.10219580000012,123.10219580000012,123.10219580000012,123.10219580000012,001,P002,2025_Jan_18_0938,CategoryLocalizer,2021.2.3,59.93612008326343,
74.0,74.8,4,0.75,Stimuli\ImageFiles-Set1\Scenes\Scenes_059.png,0,0,0,125,125,125,,,,,,,,,,,,,74.01595110000017,0.015951100000165752,None,,123.30237070000021,123.30237070000021,123.30237070000021,123.30237070000021,123.30237070000021,123.30237070000021,123.30237070000021,123.30237070000021,001,P002,2025_Jan_18_0938,CategoryLocalizer,2021.2.3,59.93612008326343,
74.8,75.0,5,0.0,Stimuli\Blank.png,0,0,0,126,126,126,,,,,,,,,,,,,74.83218859999988,0.032188599999884104,None,,124.08639990000029,124.08639990000029,124.08639990000029,124.08639990000029,124.08639990000029,124.08639990000029,124.08639990000029,124.08639990000029,001,P002,2025_Jan_18_0938,CategoryLocalizer,2021.2.3,59.93612008326343,
75.0,75.8,4,0.75,Stimuli\ImageFiles-Set1\Scenes\Scenes_037.png,0,0,0,127,127,127,,,,,,,,,,,,,74.99825030000011,-0.0017496999998911633,None,,124.2865867999999,124.2865867999999,124.2865867999999,124.2865867999999,124.2865867999999,124.2865867999999,124.2865867999999,124.2865867999999,001,P002,2025_Jan_18_0938,CategoryLocalizer,2021.2.3,59.93612008326343,
75.8,76.0,5,0.0,Stimuli\Blank.png,0,0,0,128,128,128,,,,,,,,,,,,,75.84850099999994,0.04850099999994484,5,0.11936839999998483,125.10495990000027,125.10495990000027,125.10495990000027,125.10495990000027,125.10495990000027,125.10495990000027,125.10495990000027,125.10495990000027,001,P002,2025_Jan_18_0938,CategoryLocalizer,2021.2.3,59.93612008326343,
76.0,88.0,0,0.0,Stimuli\Blank.png,0,0,0,129,129,129,,,,,,,,,,,,,76.0159466,0.015946600000006583,5,11.953191900000093,125.2708748,125.2708748,125.2708748,125.2708748,125.2708748,125.2708748,125.2708748,125.2708748,001,P002,2025_Jan_18_0938,CategoryLocalizer,2021.2.3,59.93612008326343,
88.0,88.8,3,0.75,Stimuli\ImageFiles-Set1\Faces\Face_00097.png,0,0,0,130,130,130,,,,,,,,,,,,,88.01162740000018,0.011627400000179478,None,,137.29801339999995,137.29801339999995,137.29801339999995,137.29801339999995,137.29801339999995,137.29801339999995,137.29801339999995,137.29801339999995,001,P002,2025_Jan_18_0938,CategoryLocalizer,2021.2.3,59.93612008326343,
88.8,89.0,5,0.0,Stimuli\Blank.png,0,0,0,131,131,131,,,,,,,,,,,,,88.84588759999997,0.04588759999997194,None,,138.1154292000001,138.1154292000001,138.1154292000001,138.1154292000001,138.1154292000001,138.1154292000001,138.1154292000001,138.1154292000001,001,P002,2025_Jan_18_0938,CategoryLocalizer,2021.2.3,59.93612008326343,
89.0,89.8,3,0.75,Stimuli\ImageFiles-Set1\Faces\Face_00097.png,1,1,0,132,132,132,,,,,,,,,,,,,89.02776059999997,0.027760599999965052,1,0.4198634000003949,138.28221620000022,138.28221620000022,138.28221620000022,138.28221620000022,138.28221620000022,138.28221620000022,138.28221620000022,138.28221620000022,001,P002,2025_Jan_18_0938,CategoryLocalizer,2021.2.3,59.93612008326343,
89.8,90.0,5,0.0,Stimuli\Blank.png,0,0,0,133,133,133,,,,,,,,,,,,,89.81170889999976,0.011708899999760547,5,0.15777720000005502,139.0662385999999,139.0662385999999,139.0662385999999,139.0662385999999,139.0662385999999,139.0662385999999,139.0662385999999,139.0662385999999,001,P002,2025_Jan_18_0938,CategoryLocalizer,2021.2.3,59.93612008326343,
90.0,90.8,3,0.75,Stimuli\ImageFiles-Set1\Faces\Face_00091.png,0,0,0,134,134,134,,,,,,,,,,,,,90.01109929999984,0.011099299999841605,None,,139.2831183000003,139.2831183000003,139.2831183000003,139.2831183000003,139.2831183000003,139.2831183000003,139.2831183000003,139.2831183000003,001,P002,2025_Jan_18_0938,CategoryLocalizer,2021.2.3,59.93612008326343,
90.8,91.0,5,0.0,Stimuli\Blank.png,0,0,0,135,135,135,,,,,,,,,,,,,90.82837040000004,0.02837040000004265,None,,140.08380160000024,140.08380160000024,140.08380160000024,140.08380160000024,140.08380160000024,140.08380160000024,140.08380160000024,140.08380160000024,001,P002,2025_Jan_18_0938,CategoryLocalizer,2021.2.3,59.93612008326343,
91.0,91.8,3,0.75,Stimuli\ImageFiles-Set1\Faces\Face_00031.png,0,0,0,136,136,136,,,,,,,,,,,,,91.01288699999986,0.012886999999864202,None,,140.28400330000022,140.28400330000022,140.28400330000022,140.28400330000022,140.28400330000022,140.28400330000022,140.28400330000022,140.28400330000022,001,P002,2025_Jan_18_0938,CategoryLocalizer,2021.2.3,59.93612008326343,
91.8,92.0,5,0.0,Stimuli\Blank.png,0,0,0,137,137,137,,,,,,,,,,,,,91.83196709999993,0.03196709999993175,5,0.12289759999976013,141.10136839999996,141.10136839999996,141.10136839999996,141.10136839999996,141.10136839999996,141.10136839999996,141.10136839999996,141.10136839999996,001,P002,2025_Jan_18_0938,CategoryLocalizer,2021.2.3,59.93612008326343,
92.0,92.8,3,0.75,Stimuli\ImageFiles-Set1\Faces\Face_00003.png,0,0,0,138,138,138,,,,,,,,,,,,,92.03164370000013,0.0316437000001315,None,,141.3015390999999,141.3015390999999,141.3015390999999,141.3015390999999,141.3015390999999,141.3015390999999,141.3015390999999,141.3015390999999,001,P002,2025_Jan_18_0938,CategoryLocalizer,2021.2.3,59.93612008326343,
92.8,93.0,5,0.0,Stimuli\Blank.png,0,0,0,139,139,139,,,,,,,,,,,,,92.83126459999994,0.03126459999994324,None,,142.08556580000004,142.08556580000004,142.08556580000004,142.08556580000004,142.08556580000004,142.08556580000004,142.08556580000004,142.08556580000004,001,P002,2025_Jan_18_0938,CategoryLocalizer,2021.2.3,59.93612008326343,
93.0,93.8,3,0.75,Stimuli\ImageFiles-Set1\Faces\Face_00053.png,0,0,0,140,140,140,,,,,,,,,,,,,93.0160406,0.01604059999999663,None,,142.2857409000003,142.2857409000003,142.2857409000003,142.2857409000003,142.2857409000003,142.2857409000003,142.2857409000003,142.2857409000003,001,P002,2025_Jan_18_0938,CategoryLocalizer,2021.2.3,59.93612008326343,
93.8,94.0,5,0.0,Stimuli\Blank.png,0,0,0,141,141,141,,,,,,,,,,,,,93.8151883999999,0.01518839999990007,5,0.15423429999964355,143.0697699000002,143.0697699000002,143.0697699000002,143.0697699000002,143.0697699000002,143.0697699000002,143.0697699000002,143.0697699000002,001,P002,2025_Jan_18_0938,CategoryLocalizer,2021.2.3,59.93612008326343,
94.0,94.8,3,0.75,Stimuli\ImageFiles-Set1\Faces\Face_00103.png,0,0,0,142,142,142,,,,,,,,,,,,,94.0157564000001,0.015756400000100257,None,,143.30344890000015,143.30344890000015,143.30344890000015,143.30344890000015,143.30344890000015,143.30344890000015,143.30344890000015,143.30344890000015,001,P002,2025_Jan_18_0938,CategoryLocalizer,2021.2.3,59.93612008326343,
94.8,95.0,5,0.0,Stimuli\Blank.png,0,0,0,143,143,143,,,,,,,,,,,,,94.83238810000012,0.03238810000011938,None,,144.0873345,144.0873345,144.0873345,144.0873345,144.0873345,144.0873345,144.0873345,144.0873345,001,P002,2025_Jan_18_0938,CategoryLocalizer,2021.2.3,59.93612008326343,
95.0,95.8,3,0.75,Stimuli\ImageFiles-Set1\Faces\Face_00024.png,0,0,0,144,144,144,,,,,,,,,,,,,95.00148170000011,0.001481700000113051,None,,144.28751620000003,144.28751620000003,144.28751620000003,144.28751620000003,144.28751620000003,144.28751620000003,144.28751620000003,144.28751620000003,001,P002,2025_Jan_18_0938,CategoryLocalizer,2021.2.3,59.93612008326343,
95.8,96.0,5,0.0,Stimuli\Blank.png,0,0,0,145,145,145,,,,,,,,,,,,,95.83403640000006,0.03403640000006192,None,,145.08825449999995,145.08825449999995,145.08825449999995,145.08825449999995,145.08825449999995,145.08825449999995,145.08825449999995,145.08825449999995,001,P002,2025_Jan_18_0938,CategoryLocalizer,2021.2.3,59.93612008326343,
96.0,96.8,3,0.75,Stimuli\ImageFiles-Set1\Faces\Face_00107.png,0,0,0,146,146,146,,,,,,,,,,,,,96.00050529999999,0.000505299999986164,None,,145.28837710000016,145.28837710000016,145.28837710000016,145.28837710000016,145.28837710000016,145.28837710000016,145.28837710000016,145.28837710000016,001,P002,2025_Jan_18_0938,CategoryLocalizer,2021.2.3,59.93612008326343,
96.8,97.0,5,0.0,Stimuli\Blank.png,0,0,0,147,147,147,,,,,,,,,,,,,96.83481919999986,0.03481919999985905,None,,146.08910250000008,146.08910250000008,146.08910250000008,146.08910250000008,146.08910250000008,146.08910250000008,146.08910250000008,146.08910250000008,001,P002,2025_Jan_18_0938,CategoryLocalizer,2021.2.3,59.93612008326343,
97.0,97.8,3,0.75,Stimuli\ImageFiles-Set1\Faces\Face_00033.png,0,0,0,148,148,148,,,,,,,,,,,,,97.00135589999991,0.001355899999907706,None,,146.27259430000004,146.27259430000004,146.27259430000004,146.27259430000004,146.27259430000004,146.27259430000004,146.27259430000004,146.27259430000004,001,P002,2025_Jan_18_0938,CategoryLocalizer,2021.2.3,59.93612008326343,
97.8,98.0,5,0.0,Stimuli\Blank.png,0,0,0,149,149,149,,,,,,,,,,,,,97.81800840000005,0.018008400000056213,5,0.15078369999991992,147.07327729999997,147.07327729999997,147.07327729999997,147.07327729999997,147.07327729999997,147.07327729999997,147.07327729999997,147.07327729999997,001,P002,2025_Jan_18_0938,CategoryLocalizer,2021.2.3,59.93612008326343,
98.0,98.8,3,0.75,Stimuli\ImageFiles-Set1\Faces\Face_00043.png,0,0,0,150,150,150,,,,,,,,,,,,,98.00154299999986,0.0015429999998559651,None,,147.2567795,147.2567795,147.2567795,147.2567795,147.2567795,147.2567795,147.2567795,147.2567795,001,P002,2025_Jan_18_0938,CategoryLocalizer,2021.2.3,59.93612008326343,
98.8,99.0,5,0.0,Stimuli\Blank.png,0,0,0,151,151,151,,,,,,,,,,,,,98.80270560000008,0.0027056000000840186,None,,148.0574891000001,148.0574891000001,148.0574891000001,148.0574891000001,148.0574891000001,148.0574891000001,148.0574891000001,148.0574891000001,001,P002,2025_Jan_18_0938,CategoryLocalizer,2021.2.3,59.93612008326343,
99.0,99.8,3,0.75,Stimuli\ImageFiles-Set1\Faces\Face_00089.png,1,1,0,152,152,152,,,,,,,,,,,,,99.00307299999986,0.003072999999858439,None,,148.29104069999994,148.29104069999994,148.29104069999994,148.29104069999994,148.29104069999994,148.29104069999994,148.29104069999994,148.29104069999994,001,P002,2025_Jan_18_0938,CategoryLocalizer,2021.2.3,59.93612008326343,
99.8,100.0,5,0.0,Stimuli\Blank.png,0,0,0,153,153,153,,,,,,,,,,,,,99.83721139999989,0.037211399999890205,5,0.13227619999997842,149.09172579999995,149.09172579999995,149.09172579999995,149.09172579999995,149.09172579999995,149.09172579999995,149.09172579999995,149.09172579999995,001,P002,2025_Jan_18_0938,CategoryLocalizer,2021.2.3,59.93612008326343,
100.0,100.8,3,0.75,Stimuli\ImageFiles-Set1\Faces\Face_00027.png,0,0,0,154,154,154,,,,,,,,,,,,,100.00375050000002,0.0037505000000237487,None,,149.2585438000001,149.2585438000001,149.2585438000001,149.2585438000001,149.2585438000001,149.2585438000001,149.2585438000001,149.2585438000001,001,P002,2025_Jan_18_0938,CategoryLocalizer,2021.2.3,59.93612008326343,
100.8,101.0,5,0.0,Stimuli\Blank.png,0,0,0,155,155,155,,,,,,,,,,,,,100.8056803999998,0.0056803999998038535,None,,150.07594530000006,150.07594530000006,150.07594530000006,150.07594530000006,150.07594530000006,150.07594530000006,150.07594530000006,150.07594530000006,001,P002,2025_Jan_18_0938,CategoryLocalizer,2021.2.3,59.93612008326343,
101.0,101.8,3,0.75,Stimuli\ImageFiles-Set1\Faces\Face_00027.png,0,0,0,156,156,156,,,,,,,,,,,,,101.02137119999998,0.021371199999975943,1,0.4078997999999956,150.27610000000004,150.27610000000004,150.27610000000004,150.27610000000004,150.27610000000004,150.27610000000004,150.27610000000004,150.27610000000004,001,P002,2025_Jan_18_0938,CategoryLocalizer,2021.2.3,59.93612008326343,
101.8,102.0,5,0.0,Stimuli\Blank.png,0,0,0,157,157,157,,,,,,,,,,,,,101.80530649999992,0.005306499999917946,5,0.16395169999987047,151.06012520000013,151.06012520000013,151.06012520000013,151.06012520000013,151.06012520000013,151.06012520000013,151.06012520000013,151.06012520000013,001,P002,2025_Jan_18_0938,CategoryLocalizer,2021.2.3,59.93612008326343,
102.0,102.8,3,0.75,Stimuli\ImageFiles-Set1\Faces\Face_00059.png,0,0,0,158,158,158,,,,,,,,,,,,,102.00571249999985,0.005712499999845022,None,,151.29370180000024,151.29370180000024,151.29370180000024,151.29370180000024,151.29370180000024,151.29370180000024,151.29370180000024,151.29370180000024,001,P002,2025_Jan_18_0938,CategoryLocalizer,2021.2.3,59.93612008326343,
102.8,103.0,5,0.0,Stimuli\Blank.png,0,0,0,159,159,159,,,,,,,,,,,,,102.84175449999975,0.04175449999975456,None,,152.11105940000016,152.11105940000016,152.11105940000016,152.11105940000016,152.11105940000016,152.11105940000016,152.11105940000016,152.11105940000016,001,P002,2025_Jan_18_0938,CategoryLocalizer,2021.2.3,59.93612008326343,
103.0,103.8,3,0.75,Stimuli\ImageFiles-Set1\Faces\Face_00069.png,0,0,0,160,160,160,,,,,,,,,,,,,103.02261469999985,0.02261469999984911,None,,152.27786130000004,152.27786130000004,152.27786130000004,152.27786130000004,152.27786130000004,152.27786130000004,152.27786130000004,152.27786130000004,001,P002,2025_Jan_18_0938,CategoryLocalizer,2021.2.3,59.93612008326343,
103.8,104.0,5,0.0,Stimuli\Blank.png,0,0,0,161,161,161,,,,,,,,,,,,,103.80715950000013,0.007159500000128105,5,0.1622059999999692,153.0618840000002,153.0618840000002,153.0618840000002,153.0618840000002,153.0618840000002,153.0618840000002,153.0618840000002,153.0618840000002,001,P002,2025_Jan_18_0938,CategoryLocalizer,2021.2.3,59.93612008326343,
104.0,104.8,1,0.75,Stimuli\ImageFiles-Set1\Objects\Object_Door_00001.png,0,0,0,162,162,162,,,,,,,,,,,,,104.00737630000003,0.007376300000032643,None,,153.2787432,153.2787432,153.2787432,153.2787432,153.2787432,153.2787432,153.2787432,153.2787432,001,P002,2025_Jan_18_0938,CategoryLocalizer,2021.2.3,59.93612008326343,
104.8,105.0,5,0.0,Stimuli\Blank.png,0,0,0,163,163,163,,,,,,,,,,,,,104.8271077999998,0.027107799999797066,None,,154.09613919999993,154.09613919999993,154.09613919999993,154.09613919999993,154.09613919999993,154.09613919999993,154.09613919999993,154.09613919999993,001,P002,2025_Jan_18_0938,CategoryLocalizer,2021.2.3,59.93612008326343,
105.0,105.8,1,0.75,Stimuli\ImageFiles-Set1\Objects\Object_Lipstick_00001.png,0,0,0,164,164,164,,,,,,,,,,,,,105.02684020000015,0.026840200000151526,None,,154.29631150000023,154.29631150000023,154.29631150000023,154.29631150000023,154.29631150000023,154.29631150000023,154.29631150000023,154.29631150000023,001,P002,2025_Jan_18_0938,CategoryLocalizer,2021.2.3,59.93612008326343,
105.8,106.0,5,0.0,Stimuli\Blank.png,0,0,0,165,165,165,,,,,,,,,,,,,105.82632469999999,0.02632469999998932,5,0.14367109999966488,155.0803377000002,155.0803377000002,155.0803377000002,155.0803377000002,155.0803377000002,155.0803377000002,155.0803377000002,155.0803377000002,001,P002,2025_Jan_18_0938,CategoryLocalizer,2021.2.3,59.93612008326343,
106.0,106.8,1,0.75,Stimuli\ImageFiles-Set1\Objects\Object_Lipstick_00001.png,1,1,0,166,166,166,,,,,,,,,,,,,106.00895159999982,0.008951599999818427,1,0.41019469999992,155.26382349999994,155.26382349999994,155.26382349999994,155.26382349999994,155.26382349999994,155.26382349999994,155.26382349999994,155.26382349999994,001,P002,2025_Jan_18_0938,CategoryLocalizer,2021.2.3,59.93612008326343,
106.8,107.0,5,0.0,Stimuli\Blank.png,0,0,0,167,167,167,,,,,,,,,,,,,106.8117099000001,0.011709900000099083,None,,156.08121299999993,156.08121299999993,156.08121299999993,156.08121299999993,156.08121299999993,156.08121299999993,156.08121299999993,156.08121299999993,001,P002,2025_Jan_18_0938,CategoryLocalizer,2021.2.3,59.93612008326343,
107.0,107.8,1,0.75,Stimuli\ImageFiles-Set1\Objects\Object_Recliner_00001.png,0,0,0,168,168,168,,,,,,,,,,,,,107.02690960000018,0.026909600000180944,None,,156.28138350000017,156.28138350000017,156.28138350000017,156.28138350000017,156.28138350000017,156.28138350000017,156.28138350000017,156.28138350000017,001,P002,2025_Jan_18_0938,CategoryLocalizer,2021.2.3,59.93612008326343,
107.8,108.0,5,0.0,Stimuli\Blank.png,0,0,0,169,169,169,,,,,,,,,,,,,107.81123579999985,0.011235799999852247,5,0.15884520000008706,157.06542100000024,157.06542100000024,157.06542100000024,157.06542100000024,157.06542100000024,157.06542100000024,157.06542100000024,157.06542100000024,001,P002,2025_Jan_18_0938,CategoryLocalizer,2021.2.3,59.93612008326343,
108.0,108.8,1,0.75,Stimuli\ImageFiles-Set1\Objects\Object_IroningBoard_00001.png,0,0,0,170,170,170,,,,,,,,,,,,,108.0102910999999,0.010291099999903963,None,,157.26558590000013,157.26558590000013,157.26558590000013,157.26558590000013,157.26558590000013,157.26558590000013,157.26558590000013,157.26558590000013,001,P002,2025_Jan_18_0938,CategoryLocalizer,2021.2.3,59.93612008326343,
108.8,109.0,5,0.0,Stimuli\Blank.png,0,0,0,171,171,171,,,,,,,,,,,,,108.81215810000003,0.012158100000036143,None,,158.06629350000003,158.06629350000003,158.06629350000003,158.06629350000003,158.06629350000003,158.06629350000003,158.06629350000003,158.06629350000003,001,P002,2025_Jan_18_0938,CategoryLocalizer,2021.2.3,59.93612008326343,
109.0,109.8,1,0.75,Stimuli\ImageFiles-Set1\Objects\Object_TeaBag_00001.png,0,0,0,172,172,172,,,,,,,,,,,,,109.01112689999991,0.011126899999908346,None,,158.28318630000012,158.28318630000012,158.28318630000012,158.28318630000012,158.28318630000012,158.28318630000012,158.28318630000012,158.28318630000012,001,P002,2025_Jan_18_0938,CategoryLocalizer,2021.2.3,59.93612008326343,
109.8,110.0,5,0.0,Stimuli\Blank.png,0,0,0,173,173,173,,,,,,,,,,,,,109.83088210000005,0.03088210000005631,5,0.12353840000014316,159.10056280000026,159.10056280000026,159.10056280000026,159.10056280000026,159.10056280000026,159.10056280000026,159.10056280000026,159.10056280000026,001,P002,2025_Jan_18_0938,CategoryLocalizer,2021.2.3,59.93612008326343,
110.0,110.8,1,0.75,Stimuli\ImageFiles-Set1\Objects\Object_GarbageCan_00001.png,0,0,0,174,174,174,,,,,,,,,,,,,110.03154510000013,0.03154510000013033,None,,159.3007192,159.3007192,159.3007192,159.3007192,159.3007192,159.3007192,159.3007192,159.3007192,001,P002,2025_Jan_18_0938,CategoryLocalizer,2021.2.3,59.93612008326343,
110.8,111.0,5,0.0,Stimuli\Blank.png,0,0,0,175,175,175,,,,,,,,,,,,,110.83039849999977,0.030398499999776618,None,,160.08473989999993,160.08473989999993,160.08473989999993,160.08473989999993,160.08473989999993,160.08473989999993,160.08473989999993,160.08473989999993,001,P002,2025_Jan_18_0938,CategoryLocalizer,2021.2.3,59.93612008326343,
111.0,111.8,1,0.75,Stimuli\ImageFiles-Set1\Objects\Object_Dryer_00001.png,0,0,0,176,176,176,,,,,,,,,,,,,111.0134079999998,0.013407999999799358,None,,160.2849186000003,160.2849186000003,160.2849186000003,160.2849186000003,160.2849186000003,160.2849186000003,160.2849186000003,160.2849186000003,001,P002,2025_Jan_18_0938,CategoryLocalizer,2021.2.3,59.93612008326343,
111.8,112.0,5,0.0,Stimuli\Blank.png,0,0,0,177,177,177,,,,,,,,,,,,,111.83037289999993,0.0303728999999322,5,0.13838899999973364,161.08561150000014,161.08561150000014,161.08561150000014,161.08561150000014,161.08561150000014,161.08561150000014,161.08561150000014,161.08561150000014,001,P002,2025_Jan_18_0938,CategoryLocalizer,2021.2.3,59.93612008326343,
112.0,112.8,1,0.75,Stimuli\ImageFiles-Set1\Objects\Object_ComputerMouse_00001.png,0,0,0,178,178,178,,,,,,,,,,,,,112.01519629999984,0.015196299999843177,None,,161.28580869999996,161.28580869999996,161.28580869999996,161.28580869999996,161.28580869999996,161.28580869999996,161.28580869999996,161.28580869999996,001,P002,2025_Jan_18_0938,CategoryLocalizer,2021.2.3,59.93612008326343,
112.8,113.0,5,0.0,Stimuli\Blank.png,0,0,0,179,179,179,,,,,,,,,,,,,112.81488309999986,0.014883099999863703,None,,162.06985890000033,162.06985890000033,162.06985890000033,162.06985890000033,162.06985890000033,162.06985890000033,162.06985890000033,162.06985890000033,001,P002,2025_Jan_18_0938,CategoryLocalizer,2021.2.3,59.93612008326343,
113.0,113.8,1,0.75,Stimuli\ImageFiles-Set1\Objects\Object_Peanut_00001.png,0,0,0,180,180,180,,,,,,,,,,,,,113.0156207,0.015620699999999488,None,,162.28666539999995,162.28666539999995,162.28666539999995,162.28666539999995,162.28666539999995,162.28666539999995,162.28666539999995,162.28666539999995,001,P002,2025_Jan_18_0938,CategoryLocalizer,2021.2.3,59.93612008326343,
113.8,114.0,5,0.0,Stimuli\Blank.png,0,0,0,181,181,181,,,,,,,,,,,,,113.8165328,0.01653280000000734,None,,163.0707040000002,163.0707040000002,163.0707040000002,163.0707040000002,163.0707040000002,163.0707040000002,163.0707040000002,163.0707040000002,001,P002,2025_Jan_18_0938,CategoryLocalizer,2021.2.3,59.93612008326343,
114.0,114.8,1,0.75,Stimuli\ImageFiles-Set1\Objects\Object_Sock_00001.png,0,0,0,182,182,182,,,,,,,,,,,,,113.99943639999992,-0.000563600000077713,None,,163.27089400000023,163.27089400000023,163.27089400000023,163.27089400000023,163.27089400000023,163.27089400000023,163.27089400000023,163.27089400000023,001,P002,2025_Jan_18_0938,CategoryLocalizer,2021.2.3,59.93612008326343,
114.8,115.0,5,0.0,Stimuli\Blank.png,0,0,0,183,183,183,,,,,,,,,,,,,114.81681759999992,0.016817599999924937,None,,164.0715737999999,164.0715737999999,164.0715737999999,164.0715737999999,164.0715737999999,164.0715737999999,164.0715737999999,164.0715737999999,001,P002,2025_Jan_18_0938,CategoryLocalizer,2021.2.3,59.93612008326343,
115.0,115.8,1,0.75,Stimuli\ImageFiles-Set1\Objects\Object_Locker_00001.png,0,0,0,184,184,184,,,,,,,,,,,,,115.0002227,0.00022269999999480206,None,,164.2717665,164.2717665,164.2717665,164.2717665,164.2717665,164.2717665,164.2717665,164.2717665,001,P002,2025_Jan_18_0938,CategoryLocalizer,2021.2.3,59.93612008326343,
115.8,116.0,5,0.0,Stimuli\Blank.png,0,0,0,185,185,185,,,,,,,,,,,,,115.81721010000001,0.017210100000013995,5,0.151753699999972,165.07245140000032,165.07245140000032,165.07245140000032,165.07245140000032,165.07245140000032,165.07245140000032,165.07245140000032,165.07245140000032,001,P002,2025_Jan_18_0938,CategoryLocalizer,2021.2.3,59.93612008326343,
116.0,116.8,1,0.75,Stimuli\ImageFiles-Set1\Objects\Object_Walnut_00001.png,0,0,0,186,186,186,,,,,,,,,,,,,116.00065450000011,0.0006545000001096923,None,,165.27263399999993,165.27263399999993,165.27263399999993,165.27263399999993,165.27263399999993,165.27263399999993,165.27263399999993,165.27263399999993,001,P002,2025_Jan_18_0938,CategoryLocalizer,2021.2.3,59.93612008326343,
116.8,117.0,5,0.0,Stimuli\Blank.png,0,0,0,187,187,187,,,,,,,,,,,,,116.8203711000001,0.020371100000105002,None,,166.09001830000034,166.09001830000034,166.09001830000034,166.09001830000034,166.09001830000034,166.09001830000034,166.09001830000034,166.09001830000034,001,P002,2025_Jan_18_0938,CategoryLocalizer,2021.2.3,59.93612008326343,
117.0,117.8,1,0.75,Stimuli\ImageFiles-Set1\Objects\Object_Pencil_00001.png,1,1,0,188,188,188,,,,,,,,,,,,,117.0204174999999,0.020417499999894062,None,,166.29019890000018,166.29019890000018,166.29019890000018,166.29019890000018,166.29019890000018,166.29019890000018,166.29019890000018,166.29019890000018,001,P002,2025_Jan_18_0938,CategoryLocalizer,2021.2.3,59.93612008326343,
117.8,118.0,5,0.0,Stimuli\Blank.png,0,0,0,189,189,189,,,,,,,,,,,,,117.82122729999992,0.021227299999921456,5,0.13310879999971803,167.09089960000028,167.09089960000028,167.09089960000028,167.09089960000028,167.09089960000028,167.09089960000028,167.09089960000028,167.09089960000028,001,P002,2025_Jan_18_0938,CategoryLocalizer,2021.2.3,59.93612008326343,
118.0,118.8,1,0.75,Stimuli\ImageFiles-Set1\Objects\Object_Card_00001.png,0,0,0,190,190,190,,,,,,,,,,,,,118.02164330000005,0.021643300000050658,None,,167.29107750000003,167.29107750000003,167.29107750000003,167.29107750000003,167.29107750000003,167.29107750000003,167.29107750000003,167.29107750000003,001,P002,2025_Jan_18_0938,CategoryLocalizer,2021.2.3,59.93612008326343,
118.8,119.0,5,0.0,Stimuli\Blank.png,0,0,0,191,191,191,,,,,,,,,,,,,118.82052579999981,0.02052579999981674,None,,168.07510129999991,168.07510129999991,168.07510129999991,168.07510129999991,168.07510129999991,168.07510129999991,168.07510129999991,168.07510129999991,001,P002,2025_Jan_18_0938,CategoryLocalizer,2021.2.3,59.93612008326343,
119.0,119.8,1,0.75,Stimuli\ImageFiles-Set1\Objects\Object_Card_00001.png,0,0,0,192,192,192,,,,,,,,,,,,,119.00343960000009,0.0034396000000924687,1,0.4152724999999009,168.25859530000025,168.25859530000025,168.25859530000025,168.25859530000025,168.25859530000025,168.25859530000025,168.25859530000025,168.25859530000025,001,P002,2025_Jan_18_0938,CategoryLocalizer,2021.2.3,59.93612008326343,
119.8,120.0,5,0.0,Stimuli\Blank.png,0,0,0,193,193,193,,,,,,,,,,,,,119.80644729999995,0.006447299999948086,5,0.14796749999959502,169.07597990000022,169.07597990000022,169.07597990000022,169.07597990000022,169.07597990000022,169.07597990000022,169.07597990000022,169.07597990000022,001,P002,2025_Jan_18_0938,CategoryLocalizer,2021.2.3,59.93612008326343,
120.0,120.8,4,0.75,Stimuli\ImageFiles-Set1\Scenes\Scenes_043.png,0,0,0,194,194,194,,,,,,,,,,,,,120.02099859999998,0.020998599999984435,None,,169.29285019999998,169.29285019999998,169.29285019999998,169.29285019999998,169.29285019999998,169.29285019999998,169.29285019999998,169.29285019999998,001,P002,2025_Jan_18_0938,CategoryLocalizer,2021.2.3,59.93612008326343,
120.8,121.0,5,0.0,Stimuli\Blank.png,0,0,0,195,195,195,,,,,,,,,,,,,120.82162119999975,0.021621199999756868,None,,170.07685310000033,170.07685310000033,170.07685310000033,170.07685310000033,170.07685310000033,170.07685310000033,170.07685310000033,170.07685310000033,001,P002,2025_Jan_18_0938,CategoryLocalizer,2021.2.3,59.93612008326343,
121.0,121.8,4,0.75,Stimuli\ImageFiles-Set1\Scenes\Scenes_047.png,0,0,0,196,196,196,,,,,,,,,,,,,121.00549349999983,0.00549349999982951,None,,170.29373030000033,170.29373030000033,170.29373030000033,170.29373030000033,170.29373030000033,170.29373030000033,170.29373030000033,170.29373030000033,001,P002,2025_Jan_18_0938,CategoryLocalizer,2021.2.3,59.93612008326343,
121.8,122.0,5,0.0,Stimuli\Blank.png,0,0,0,197,197,197,,,,,,,,,,,,,121.8422486999998,0.04224869999980285,5,0.11275100000011662,171.1111423000002,171.1111423000002,171.1111423000002,171.1111423000002,171.1111423000002,171.1111423000002,171.1111423000002,171.1111423000002,001,P002,2025_Jan_18_0938,CategoryLocalizer,2021.2.3,59.93612008326343,
122.0,122.8,4,0.75,Stimuli\ImageFiles-Set1\Scenes\Scenes_060.png,0,0,0,198,198,198,,,,,,,,,,,,,122.02280470000005,0.022804700000051525,None,,171.31128220000028,171.31128220000028,171.31128220000028,171.31128220000028,171.31128220000028,171.31128220000028,171.31128220000028,171.31128220000028,001,P002,2025_Jan_18_0938,CategoryLocalizer,2021.2.3,59.93612008326343,
122.8,123.0,5,0.0,Stimuli\Blank.png,0,0,0,199,199,199,,,,,,,,,,,,,122.83988180000006,0.03988180000006025,None,,172.0953601000001,172.0953601000001,172.0953601000001,172.0953601000001,172.0953601000001,172.0953601000001,172.0953601000001,172.0953601000001,001,P002,2025_Jan_18_0938,CategoryLocalizer,2021.2.3,59.93612008326343,
123.0,123.8,4,0.75,Stimuli\ImageFiles-Set1\Scenes\Scenes_025.png,0,0,0,200,200,200,,,,,,,,,,,,,123.00756369999999,0.007563699999991513,None,,172.2787957999999,172.2787957999999,172.2787957999999,172.2787957999999,172.2787957999999,172.2787957999999,172.2787957999999,172.2787957999999,001,P002,2025_Jan_18_0938,CategoryLocalizer,2021.2.3,59.93612008326343,
123.8,124.0,5,0.0,Stimuli\Blank.png,0,0,0,201,201,201,,,,,,,,,,,,,123.82428130000017,0.024281300000168926,5,0.14442030000009254,173.07949970000027,173.07949970000027,173.07949970000027,173.07949970000027,173.07949970000027,173.07949970000027,173.07949970000027,173.07949970000027,001,P002,2025_Jan_18_0938,CategoryLocalizer,2021.2.3,59.93612008326343,
124.0,124.8,4,0.75,Stimuli\ImageFiles-Set1\Scenes\Scenes_025.png,1,1,0,202,202,202,,,,,,,,,,,,,124.00786430000016,0.007864300000164803,1,0.4950966999999764,173.2629925000001,173.2629925000001,173.2629925000001,173.2629925000001,173.2629925000001,173.2629925000001,173.2629925000001,173.2629925000001,001,P002,2025_Jan_18_0938,CategoryLocalizer,2021.2.3,59.93612008326343,
124.8,125.0,5,0.0,Stimuli\Blank.png,0,0,0,203,203,203,,,,,,,,,,,,,124.81053310000016,0.010533100000159834,None,,174.0803980999999,174.0803980999999,174.0803980999999,174.0803980999999,174.0803980999999,174.0803980999999,174.0803980999999,174.0803980999999,001,P002,2025_Jan_18_0938,CategoryLocalizer,2021.2.3,59.93612008326343,
125.0,125.8,4,0.75,Stimuli\ImageFiles-Set1\Scenes\Scenes_007.png,0,0,0,204,204,204,,,,,,,,,,,,,125.02655210000012,0.026552100000117207,None,,174.31391900000017,174.31391900000017,174.31391900000017,174.31391900000017,174.31391900000017,174.31391900000017,174.31391900000017,174.31391900000017,001,P002,2025_Jan_18_0938,CategoryLocalizer,2021.2.3,59.93612008326343,
125.8,126.0,5,0.0,Stimuli\Blank.png,0,0,0,205,205,205,,,,,,,,,,,,,125.84300769999982,0.04300769999981924,5,0.12612730000000738,175.09794340000008,175.09794340000008,175.09794340000008,175.09794340000008,175.09794340000008,175.09794340000008,175.09794340000008,175.09794340000008,001,P002,2025_Jan_18_0938,CategoryLocalizer,2021.2.3,59.93612008326343,
126.0,126.8,4,0.75,Stimuli\ImageFiles-Set1\Scenes\Scenes_017.png,0,0,0,206,206,206,,,,,,,,,,,,,126.0094552999999,0.00945529999989958,None,,175.29812119999997,175.29812119999997,175.29812119999997,175.29812119999997,175.29812119999997,175.29812119999997,175.29812119999997,175.29812119999997,001,P002,2025_Jan_18_0938,CategoryLocalizer,2021.2.3,59.93612008326343,
126.8,127.0,5,0.0,Stimuli\Blank.png,0,0,0,207,207,207,,,,,,,,,,,,,126.84575829999994,0.04575829999994596,None,,176.1155243000003,176.1155243000003,176.1155243000003,176.1155243000003,176.1155243000003,176.1155243000003,176.1155243000003,176.1155243000003,001,P002,2025_Jan_18_0938,CategoryLocalizer,2021.2.3,59.93612008326343,
127.0,127.8,4,0.75,Stimuli\ImageFiles-Set1\Scenes\Scenes_042.png,0,0,0,208,208,208,,,,,,,,,,,,,127.02717810000013,0.027178100000128325,None,,176.2990036000001,176.2990036000001,176.2990036000001,176.2990036000001,176.2990036000001,176.2990036000001,176.2990036000001,176.2990036000001,001,P002,2025_Jan_18_0938,CategoryLocalizer,2021.2.3,59.93612008326343,
127.8,128.0,5,0.0,Stimuli\Blank.png,0,0,0,209,209,209,,,,,,,,,,,,,127.82826149999983,0.028261499999828743,5,0.14110030000028928,177.0830206999999,177.0830206999999,177.0830206999999,177.0830206999999,177.0830206999999,177.0830206999999,177.0830206999999,177.0830206999999,001,P002,2025_Jan_18_0938,CategoryLocalizer,2021.2.3,59.93612008326343,
128.0,128.8,4,0.75,Stimuli\ImageFiles-Set1\Scenes\Scenes_054.png,0,0,0,210,210,210,,,,,,,,,,,,,128.01154450000013,0.0115445000001273,None,,177.28320490000033,177.28320490000033,177.28320490000033,177.28320490000033,177.28320490000033,177.28320490000033,177.28320490000033,177.28320490000033,001,P002,2025_Jan_18_0938,CategoryLocalizer,2021.2.3,59.93612008326343,
128.8,129.0,5,0.0,Stimuli\Blank.png,0,0,0,211,211,211,,,,,,,,,,,,,128.8304337999998,0.03043379999979834,None,,178.10059420000016,178.10059420000016,178.10059420000016,178.10059420000016,178.10059420000016,178.10059420000016,178.10059420000016,178.10059420000016,001,P002,2025_Jan_18_0938,CategoryLocalizer,2021.2.3,59.93612008326343,
129.0,129.8,4,0.75,Stimuli\ImageFiles-Set1\Scenes\Scenes_009.png,0,0,0,212,212,212,,,,,,,,,,,,,129.0296675999998,0.0296675999998115,None,,178.3007719000002,178.3007719000002,178.3007719000002,178.3007719000002,178.3007719000002,178.3007719000002,178.3007719000002,178.3007719000002,001,P002,2025_Jan_18_0938,CategoryLocalizer,2021.2.3,59.93612008326343,
129.8,130.0,5,0.0,Stimuli\Blank.png,0,0,0,213,213,213,,,,,,,,,,,,,129.8293491999998,0.02934919999978547,5,0.1391457999998238,179.08478330000025,179.08478330000025,179.08478330000025,179.08478330000025,179.08478330000025,179.08478330000025,179.08478330000025,179.08478330000025,001,P002,2025_Jan_18_0938,CategoryLocalizer,2021.2.3,59.93612008326343,
130.0,130.8,4,0.75,Stimuli\ImageFiles-Set1\Scenes\Scenes_058.png,0,0,0,214,214,214,,,,,,,,,,,,,130.01295290000007,0.012952900000072987,None,,179.30163810000022,179.30163810000022,179.30163810000022,179.30163810000022,179.30163810000022,179.30163810000022,179.30163810000022,179.30163810000022,001,P002,2025_Jan_18_0938,CategoryLocalizer,2021.2.3,59.93612008326343,
130.8,131.0,5,0.0,Stimuli\Blank.png,0,0,0,215,215,215,,,,,,,,,,,,,130.84721709999985,0.04721709999984114,None,,180.10234549999996,180.10234549999996,180.10234549999996,180.10234549999996,180.10234549999996,180.10234549999996,180.10234549999996,180.10234549999996,001,P002,2025_Jan_18_0938,CategoryLocalizer,2021.2.3,59.93612008326343,
131.0,131.8,4,0.75,Stimuli\ImageFiles-Set1\Scenes\Scenes_056.png,0,0,0,216,216,216,,,,,,,,,,,,,131.01650370000016,0.01650370000015755,None,,180.285844,180.285844,180.285844,180.285844,180.285844,180.285844,180.285844,180.285844,001,P002,2025_Jan_18_0938,CategoryLocalizer,2021.2.3,59.93612008326343,
131.8,132.0,5,0.0,Stimuli\Blank.png,0,0,0,217,217,217,,,,,,,,,,,,,131.81524600000012,0.015246000000104232,5,0.15397389999998268,181.06986340000003,181.06986340000003,181.06986340000003,181.06986340000003,181.06986340000003,181.06986340000003,181.06986340000003,181.06986340000003,001,P002,2025_Jan_18_0938,CategoryLocalizer,2021.2.3,59.93612008326343,
132.0,132.8,4,0.75,Stimuli\ImageFiles-Set1\Scenes\Scenes_006.png,0,0,0,218,218,218,,,,,,,,,,,,,132.01528180000014,0.015281800000138901,None,,181.30341249999992,181.30341249999992,181.30341249999992,181.30341249999992,181.30341249999992,181.30341249999992,181.30341249999992,181.30341249999992,001,P002,2025_Jan_18_0938,CategoryLocalizer,2021.2.3,59.93612008326343,
132.8,133.0,5,0.0,Stimuli\Blank.png,0,0,0,219,219,219,,,,,,,,,,,,,132.83269819999987,0.03269819999985657,None,,182.08742770000026,182.08742770000026,182.08742770000026,182.08742770000026,182.08742770000026,182.08742770000026,182.08742770000026,182.08742770000026,001,P002,2025_Jan_18_0938,CategoryLocalizer,2021.2.3,59.93612008326343,
133.0,133.8,4,0.75,Stimuli\ImageFiles-Set1\Scenes\Scenes_022.png,0,0,0,220,220,220,,,,,,,,,,,,,133.0013057000001,0.0013057000001026609,None,,182.27096200000005,182.27096200000005,182.27096200000005,182.27096200000005,182.27096200000005,182.27096200000005,182.27096200000005,182.27096200000005,001,P002,2025_Jan_18_0938,CategoryLocalizer,2021.2.3,59.93612008326343,
133.8,134.0,5,0.0,Stimuli\Blank.png,0,0,0,221,221,221,,,,,,,,,,,,,133.81671270000015,0.016712700000141467,None,,183.07163020000007,183.07163020000007,183.07163020000007,183.07163020000007,183.07163020000007,183.07163020000007,183.07163020000007,183.07163020000007,001,P002,2025_Jan_18_0938,CategoryLocalizer,2021.2.3,59.93612008326343,
134.0,134.8,4,0.75,Stimuli\ImageFiles-Set1\Scenes\Scenes_028.png,0,0,0,222,222,222,,,,,,,,,,,,,133.9999942999998,-5.700000201613875e-06,None,,183.27179980000028,183.27179980000028,183.27179980000028,183.27179980000028,183.27179980000028,183.27179980000028,183.27179980000028,183.27179980000028,001,P002,2025_Jan_18_0938,CategoryLocalizer,2021.2.3,59.93612008326343,
134.8,135.0,5,0.0,Stimuli\Blank.png,0,0,0,223,223,223,,,,,,,,,,,,,134.81760480000003,0.017604800000015075,None,,184.07250750000003,184.07250750000003,184.07250750000003,184.07250750000003,184.07250750000003,184.07250750000003,184.07250750000003,184.07250750000003,001,P002,2025_Jan_18_0938,CategoryLocalizer,2021.2.3,59.93612008326343,
135.0,135.8,4,0.75,Stimuli\ImageFiles-Set1\Scenes\Scenes_033.png,0,0,0,224,224,224,,,,,,,,,,,,,135.00200859999995,0.0020085999999537307,None,,184.28936720000002,184.28936720000002,184.28936720000002,184.28936720000002,184.28936720000002,184.28936720000002,184.28936720000002,184.28936720000002,001,P002,2025_Jan_18_0938,CategoryLocalizer,2021.2.3,59.93612008326343,
135.8,136.0,5,0.0,Stimuli\Blank.png,0,0,0,225,225,225,,,,,,,,,,,,,135.8360748,0.03607479999999441,5,0.13378130000000965,185.0900783000002,185.0900783000002,185.0900783000002,185.0900783000002,185.0900783000002,185.0900783000002,185.0900783000002,185.0900783000002,001,P002,2025_Jan_18_0938,CategoryLocalizer,2021.2.3,59.93612008326343,
136.0,136.8,2,0.75,Stimuli\ImageFiles-Set1\Bodies\Bodies_Jumping_00006.png,0,0,0,226,226,226,,,,,,,,,,,,,136.00233230000003,0.002332300000034593,None,,185.27359100000012,185.27359100000012,185.27359100000012,185.27359100000012,185.27359100000012,185.27359100000012,185.27359100000012,185.27359100000012,001,P002,2025_Jan_18_0938,CategoryLocalizer,2021.2.3,59.93612008326343,
136.8,137.0,5,0.0,Stimuli\Blank.png,0,0,0,227,227,227,,,,,,,,,,,,,136.81997039999987,0.019970399999863275,None,,186.0742736000002,186.0742736000002,186.0742736000002,186.0742736000002,186.0742736000002,186.0742736000002,186.0742736000002,186.0742736000002,001,P002,2025_Jan_18_0938,CategoryLocalizer,2021.2.3,59.93612008326343,
137.0,137.8,2,0.75,Stimuli\ImageFiles-Set1\Bodies\Bodies_Waving_00003.png,0,0,0,228,228,228,,,,,,,,,,,,,137.00318019999986,0.0031801999998606334,None,,186.25776330000008,186.25776330000008,186.25776330000008,186.25776330000008,186.25776330000008,186.25776330000008,186.25776330000008,186.25776330000008,001,P002,2025_Jan_18_0938,CategoryLocalizer,2021.2.3,59.93612008326343,
137.8,138.0,5,0.0,Stimuli\Blank.png,0,0,0,229,229,229,,,,,,,,,,,,,137.80569419999983,0.005694199999823013,5,0.14869239999961792,187.07516680000026,187.07516680000026,187.07516680000026,187.07516680000026,187.07516680000026,187.07516680000026,187.07516680000026,187.07516680000026,001,P002,2025_Jan_18_0938,CategoryLocalizer,2021.2.3,59.93612008326343,
138.0,138.8,2,0.75,Stimuli\ImageFiles-Set1\Bodies\Bodies_Kicking_00003.png,0,0,0,230,230,230,,,,,,,,,,,,,138.0203376999998,0.020337699999799952,None,,187.27532259999998,187.27532259999998,187.27532259999998,187.27532259999998,187.27532259999998,187.27532259999998,187.27532259999998,187.27532259999998,001,P002,2025_Jan_18_0938,CategoryLocalizer,2021.2.3,59.93612008326343,
138.8,139.0,5,0.0,Stimuli\Blank.png,0,0,0,231,231,231,,,,,,,,,,,,,138.80423549999978,0.0042354999997655796,None,,188.059346,188.059346,188.059346,188.059346,188.059346,188.059346,188.059346,188.059346,001,P002,2025_Jan_18_0938,CategoryLocalizer,2021.2.3,59.93612008326343,
139.0,139.8,2,0.75,Stimuli\ImageFiles-Set1\Bodies\Bodies_SittingFloor_00005.png,0,0,0,232,232,232,,,,,,,,,,,,,139.0064170999999,0.006417099999907805,None,,188.29288670000005,188.29288670000005,188.29288670000005,188.29288670000005,188.29288670000005,188.29288670000005,188.29288670000005,188.29288670000005,001,P002,2025_Jan_18_0938,CategoryLocalizer,2021.2.3,59.93612008326343,
139.8,140.0,5,0.0,Stimuli\Blank.png,0,0,0,233,233,233,,,,,,,,,,,,,139.8403026000001,0.04030260000007502,5,0.11366420000013022,189.11029670000016,189.11029670000016,189.11029670000016,189.11029670000016,189.11029670000016,189.11029670000016,189.11029670000016,189.11029670000016,001,P002,2025_Jan_18_0938,CategoryLocalizer,2021.2.3,59.93612008326343,
140.0,140.8,2,0.75,Stimuli\ImageFiles-Set1\Bodies\Bodies_Kicking_00007.png,0,0,0,234,234,234,,,,,,,,,,,,,140.02223349999986,0.022233499999856576,None,,189.293815,189.293815,189.293815,189.293815,189.293815,189.293815,189.293815,189.293815,001,P002,2025_Jan_18_0938,CategoryLocalizer,2021.2.3,59.93612008326343,
140.8,141.0,5,0.0,Stimuli\Blank.png,0,0,0,235,235,235,,,,,,,,,,,,,140.82325059999994,0.02325059999992618,None,,190.0778623000001,190.0778623000001,190.0778623000001,190.0778623000001,190.0778623000001,190.0778623000001,190.0778623000001,190.0778623000001,001,P002,2025_Jan_18_0938,CategoryLocalizer,2021.2.3,59.93612008326343,
141.0,141.8,2,0.75,Stimuli\ImageFiles-Set1\Bodies\Bodies_PushUp_00004.png,0,0,0,236,236,236,,,,,,,,,,,,,141.0067866999998,0.0067866999997932,None,,190.2779932000003,190.2779932000003,190.2779932000003,190.2779932000003,190.2779932000003,190.2779932000003,190.2779932000003,190.2779932000003,001,P002,2025_Jan_18_0938,CategoryLocalizer,2021.2.3,59.93612008326343,
141.8,142.0,5,0.0,Stimuli\Blank.png,0,0,0,237,237,237,,,,,,,,,,,,,141.8255825000001,0.025582500000098207,5,0.12850040000012086,191.09537309999996,191.09537309999996,191.09537309999996,191.09537309999996,191.09537309999996,191.09537309999996,191.09537309999996,191.09537309999996,001,P002,2025_Jan_18_0938,CategoryLocalizer,2021.2.3,59.93612008326343,
142.0,142.8,2,0.75,Stimuli\ImageFiles-Set1\Bodies\Bodies_CobraPose_00005.png,0,0,0,238,238,238,,,,,,,,,,,,,142.02434200000016,0.024342000000160624,None,,191.29553830000032,191.29553830000032,191.29553830000032,191.29553830000032,191.29553830000032,191.29553830000032,191.29553830000032,191.29553830000032,001,P002,2025_Jan_18_0938,CategoryLocalizer,2021.2.3,59.93612008326343,
142.8,143.0,5,0.0,Stimuli\Blank.png,0,0,0,239,239,239,,,,,,,,,,,,,142.82433140000012,0.024331400000107806,None,,192.07954830000017,192.07954830000017,192.07954830000017,192.07954830000017,192.07954830000017,192.07954830000017,192.07954830000017,192.07954830000017,001,P002,2025_Jan_18_0938,CategoryLocalizer,2021.2.3,59.93612008326343,
143.0,143.8,2,0.75,Stimuli\ImageFiles-Set1\Bodies\Bodies_Running_00006.png,0,0,0,240,240,240,,,,,,,,,,,,,143.0103184999998,0.010318499999812047,None,,192.27976130000025,192.27976130000025,192.27976130000025,192.27976130000025,192.27976130000025,192.27976130000025,192.27976130000025,192.27976130000025,001,P002,2025_Jan_18_0938,CategoryLocalizer,2021.2.3,59.93612008326343,
143.8,144.0,5,0.0,Stimuli\Blank.png,0,0,0,241,241,241,,,,,,,,,,,,,143.82552510000005,0.025525100000038492,5,0.1434463999999025,193.08043440000029,193.08043440000029,193.08043440000029,193.08043440000029,193.08043440000029,193.08043440000029,193.08043440000029,193.08043440000029,001,P002,2025_Jan_18_0938,CategoryLocalizer,2021.2.3,59.93612008326343,
144.0,144.8,2,0.75,Stimuli\ImageFiles-Set1\Bodies\Bodies_DownwardDog_00007.png,0,0,0,242,242,242,,,,,,,,,,,,,144.00886790000004,0.008867900000041118,None,,193.28060700000015,193.28060700000015,193.28060700000015,193.28060700000015,193.28060700000015,193.28060700000015,193.28060700000015,193.28060700000015,001,P002,2025_Jan_18_0938,CategoryLocalizer,2021.2.3,59.93612008326343,
144.8,145.0,5,0.0,Stimuli\Blank.png,0,0,0,243,243,243,,,,,,,,,,,,,144.82622360000005,0.026223600000037095,None,,194.0813151000002,194.0813151000002,194.0813151000002,194.0813151000002,194.0813151000002,194.0813151000002,194.0813151000002,194.0813151000002,001,P002,2025_Jan_18_0938,CategoryLocalizer,2021.2.3,59.93612008326343,
145.0,145.8,2,0.75,Stimuli\ImageFiles-Set1\Bodies\Bodies_SittingChair_00005.png,0,0,0,244,244,244,,,,,,,,,,,,,145.01023339999983,0.010233399999833637,None,,194.28151460000026,194.28151460000026,194.28151460000026,194.28151460000026,194.28151460000026,194.28151460000026,194.28151460000026,194.28151460000026,001,P002,2025_Jan_18_0938,CategoryLocalizer,2021.2.3,59.93612008326343,
145.8,146.0,5,0.0,Stimuli\Blank.png,0,0,0,245,245,245,,,,,,,,,,,,,145.82731890000014,0.027318900000125268,5,0.14181069999995088,195.08219430000008,195.08219430000008,195.08219430000008,195.08219430000008,195.08219430000008,195.08219430000008,195.08219430000008,195.08219430000008,001,P002,2025_Jan_18_0938,CategoryLocalizer,2021.2.3,59.93612008326343,
146.0,146.8,2,0.75,Stimuli\ImageFiles-Set1\Bodies\Bodies_Standing_00005.png,0,0,0,246,246,246,,,,,,,,,,,,,146.01080279999996,0.010802799999964918,None,,195.28240700000015,195.28240700000015,195.28240700000015,195.28240700000015,195.28240700000015,195.28240700000015,195.28240700000015,195.28240700000015,001,P002,2025_Jan_18_0938,CategoryLocalizer,2021.2.3,59.93612008326343,
146.8,147.0,5,0.0,Stimuli\Blank.png,0,0,0,247,247,247,,,,,,,,,,,,,146.82792519999975,0.027925199999742745,None,,196.0830744,196.0830744,196.0830744,196.0830744,196.0830744,196.0830744,196.0830744,196.0830744,001,P002,2025_Jan_18_0938,CategoryLocalizer,2021.2.3,59.93612008326343,
147.0,147.8,2,0.75,Stimuli\ImageFiles-Set1\Bodies\Bodies_QuadStretch_00003.png,0,0,0,248,248,248,,,,,,,,,,,,,147.0115526999998,0.011552699999811011,None,,196.28326400000014,196.28326400000014,196.28326400000014,196.28326400000014,196.28326400000014,196.28326400000014,196.28326400000014,196.28326400000014,001,P002,2025_Jan_18_0938,CategoryLocalizer,2021.2.3,59.93612008326343,
147.8,148.0,5,0.0,Stimuli\Blank.png,0,0,0,249,249,249,,,,,,,,,,,,,147.83038140000008,0.03038140000006706,5,0.12333669999998165,197.1006582,197.1006582,197.1006582,197.1006582,197.1006582,197.1006582,197.1006582,197.1006582,001,P002,2025_Jan_18_0938,CategoryLocalizer,2021.2.3,59.93612008326343,
148.0,148.8,2,0.75,Stimuli\ImageFiles-Set1\Bodies\Bodies_Falling_00004.png,0,0,0,250,250,250,,,,,,,,,,,,,148.03089420000015,0.030894200000147976,None,,197.30083090000016,197.30083090000016,197.30083090000016,197.30083090000016,197.30083090000016,197.30083090000016,197.30083090000016,197.30083090000016,001,P002,2025_Jan_18_0938,CategoryLocalizer,2021.2.3,59.93612008326343,
148.8,149.0,5,0.0,Stimuli\Blank.png,0,0,0,251,251,251,,,,,,,,,,,,,148.83048419999977,0.03048419999976204,None,,198.0848418999999,198.0848418999999,198.0848418999999,198.0848418999999,198.0848418999999,198.0848418999999,198.0848418999999,198.0848418999999,001,P002,2025_Jan_18_0938,CategoryLocalizer,2021.2.3,59.93612008326343,
149.0,149.8,2,0.75,Stimuli\ImageFiles-Set1\Bodies\Bodies_Walking_00004.png,0,0,0,252,252,252,,,,,,,,,,,,,149.01391920000015,0.013919200000145793,None,,198.28502000000026,198.28502000000026,198.28502000000026,198.28502000000026,198.28502000000026,198.28502000000026,198.28502000000026,198.28502000000026,001,P002,2025_Jan_18_0938,CategoryLocalizer,2021.2.3,59.93612008326343,
149.8,150.0,5,0.0,Stimuli\Blank.png,0,0,0,253,253,253,,,,,,,,,,,,,149.83118869999998,0.03118869999997287,5,0.13815089999980046,199.08571810000012,199.08571810000012,199.08571810000012,199.08571810000012,199.08571810000012,199.08571810000012,199.08571810000012,199.08571810000012,001,P002,2025_Jan_18_0938,CategoryLocalizer,2021.2.3,59.93612008326343,
150.0,150.8,2,0.75,Stimuli\ImageFiles-Set1\Bodies\Bodies_Walking_00004.png,1,1,0,254,254,254,,,,,,,,,,,,,150.01664389999996,0.01664389999996274,1,0.44900200000029145,199.28592460000027,199.28592460000027,199.28592460000027,199.28592460000027,199.28592460000027,199.28592460000027,199.28592460000027,199.28592460000027,001,P002,2025_Jan_18_0938,CategoryLocalizer,2021.2.3,59.93612008326343,
150.8,151.0,5,0.0,Stimuli\Blank.png,0,0,0,255,255,255,,,,,,,,,,,,,150.81610790000013,0.0161079000001223,None,,200.06992330000003,200.06992330000003,200.06992330000003,200.06992330000003,200.06992330000003,200.06992330000003,200.06992330000003,200.06992330000003,001,P002,2025_Jan_18_0938,CategoryLocalizer,2021.2.3,59.93612008326343,
151.0,151.8,2,0.75,Stimuli\ImageFiles-Set1\Bodies\Bodies_SittingFloor_00003.png,0,0,0,256,256,256,,,,,,,,,,,,,150.99830740000016,-0.0016925999998420593,None,,200.27009750000025,200.27009750000025,200.27009750000025,200.27009750000025,200.27009750000025,200.27009750000025,200.27009750000025,200.27009750000025,001,P002,2025_Jan_18_0938,CategoryLocalizer,2021.2.3,59.93612008326343,
151.8,152.0,5,0.0,Stimuli\Blank.png,0,0,0,257,257,257,,,,,,,,,,,,,151.81612730000006,0.01612730000005058,None,,201.07079920000024,201.07079920000024,201.07079920000024,201.07079920000024,201.07079920000024,201.07079920000024,201.07079920000024,201.07079920000024,001,P002,2025_Jan_18_0938,CategoryLocalizer,2021.2.3,59.93612008326343,
152.0,164.0,0,0.0,Stimuli\Blank.png,0,0,0,258,258,258,,,,,,,,,,,,,151.99909470000011,-0.0009052999998857558,5,11.96939539999994,201.25429310000027,201.25429310000027,201.25429310000027,201.25429310000027,201.25429310000027,201.25429310000027,201.25429310000027,201.25429310000027,001,P002,2025_Jan_18_0938,CategoryLocalizer,2021.2.3,59.93612008326343,
164.0,164.8,4,0.75,Stimuli\ImageFiles-Set1\Scenes\Scenes_003.png,0,0,0,259,259,259,,,,,,,,,,,,,164.0105706999998,0.010570699999789213,None,,213.28156400000034,213.28156400000034,213.28156400000034,213.28156400000034,213.28156400000034,213.28156400000034,213.28156400000034,213.28156400000034,001,P002,2025_Jan_18_0938,CategoryLocalizer,2021.2.3,59.93612008326343,
164.8,165.0,5,0.0,Stimuli\Blank.png,0,0,0,260,260,260,,,,,,,,,,,,,164.82738949999975,0.027389499999742384,None,,214.0822475,214.0822475,214.0822475,214.0822475,214.0822475,214.0822475,214.0822475,214.0822475,001,P002,2025_Jan_18_0938,CategoryLocalizer,2021.2.3,59.93612008326343,
165.0,165.8,4,0.75,Stimuli\ImageFiles-Set1\Scenes\Scenes_036.png,0,0,0,261,261,261,,,,,,,,,,,,,165.01136700000006,0.011367000000063854,None,,214.29909859999998,214.29909859999998,214.29909859999998,214.29909859999998,214.29909859999998,214.29909859999998,214.29909859999998,214.29909859999998,001,P002,2025_Jan_18_0938,CategoryLocalizer,2021.2.3,59.93612008326343,
165.8,166.0,5,0.0,Stimuli\Blank.png,0,0,0,262,262,262,,,,,,,,,,,,,165.8451160999998,0.04511609999980237,5,0.12394380000023375,215.09981920000018,215.09981920000018,215.09981920000018,215.09981920000018,215.09981920000018,215.09981920000018,215.09981920000018,215.09981920000018,001,P002,2025_Jan_18_0938,CategoryLocalizer,2021.2.3,59.93612008326343,
166.0,166.8,4,0.75,Stimuli\ImageFiles-Set1\Scenes\Scenes_021.png,0,0,0,263,263,263,,,,,,,,,,,,,166.0112484000001,0.011248400000113179,None,,215.28331530000014,215.28331530000014,215.28331530000014,215.28331530000014,215.28331530000014,215.28331530000014,215.28331530000014,215.28331530000014,001,P002,2025_Jan_18_0938,CategoryLocalizer,2021.2.3,59.93612008326343,
166.8,167.0,5,0.0,Stimuli\Blank.png,0,0,0,264,264,264,,,,,,,,,,,,,166.8298417000001,0.0298417000000768,None,,216.08401189999995,216.08401189999995,216.08401189999995,216.08401189999995,216.08401189999995,216.08401189999995,216.08401189999995,216.08401189999995,001,P002,2025_Jan_18_0938,CategoryLocalizer,2021.2.3,59.93612008326343,
167.0,167.8,4,0.75,Stimuli\ImageFiles-Set1\Scenes\Scenes_013.png,0,0,0,265,265,265,,,,,,,,,,,,,167.01295709999977,0.012957099999766797,None,,216.3008619000002,216.3008619000002,216.3008619000002,216.3008619000002,216.3008619000002,216.3008619000002,216.3008619000002,216.3008619000002,001,P002,2025_Jan_18_0938,CategoryLocalizer,2021.2.3,59.93612008326343,
167.8,168.0,5,0.0,Stimuli\Blank.png,0,0,0,266,266,266,,,,,,,,,,,,,167.8464039999999,0.04640399999988176,5,0.12222700000029363,217.10155920000034,217.10155920000034,217.10155920000034,217.10155920000034,217.10155920000034,217.10155920000034,217.10155920000034,217.10155920000034,001,P002,2025_Jan_18_0938,CategoryLocalizer,2021.2.3,59.93612008326343,
168.0,168.8,4,0.75,Stimuli\ImageFiles-Set1\Scenes\Scenes_044.png,0,0,0,267,267,267,,,,,,,,,,,,,168.01581399999986,0.01581399999986388,None,,217.30175430000008,217.30175430000008,217.30175430000008,217.30175430000008,217.30175430000008,217.30175430000008,217.30175430000008,217.30175430000008,001,P002,2025_Jan_18_0938,CategoryLocalizer,2021.2.3,59.93612008326343,
168.8,169.0,5,0.0,Stimuli\Blank.png,0,0,0,268,268,268,,,,,,,,,,,,,168.83079859999998,0.0307985999999687,None,,218.08576510000012,218.08576510000012,218.08576510000012,218.08576510000012,218.08576510000012,218.08576510000012,218.08576510000012,218.08576510000012,001,P002,2025_Jan_18_0938,CategoryLocalizer,2021.2.3,59.93612008326343,
169.0,169.8,4,0.75,Stimuli\ImageFiles-Set1\Scenes\Scenes_044.png,1,1,0,269,269,269,,,,,,,,,,,,,169.01419069999974,0.014190699999744538,1,0.345476299999973,218.2692603999999,218.2692603999999,218.2692603999999,218.2692603999999,218.2692603999999,218.2692603999999,218.2692603999999,218.2692603999999,001,P002,2025_Jan_18_0938,CategoryLocalizer,2021.2.3,59.93612008326343,
169.8,170.0,5,0.0,Stimuli\Blank.png,0,0,0,270,270,270,,,,,,,,,,,,,169.81513129999985,0.015131299999836756,5,0.1540471000002981,219.0699628000002,219.0699628000002,219.0699628000002,219.0699628000002,219.0699628000002,219.0699628000002,219.0699628000002,219.0699628000002,001,P002,2025_Jan_18_0938,CategoryLocalizer,2021.2.3,59.93612008326343,
170.0,170.8,4,0.75,Stimuli\ImageFiles-Set1\Scenes\Scenes_041.png,0,0,0,271,271,271,,,,,,,,,,,,,170.0161208999998,0.01612089999980526,None,,219.30351840000003,219.30351840000003,219.30351840000003,219.30351840000003,219.30351840000003,219.30351840000003,219.30351840000003,219.30351840000003,001,P002,2025_Jan_18_0938,CategoryLocalizer,2021.2.3,59.93612008326343,
170.8,171.0,5,0.0,Stimuli\Blank.png,0,0,0,272,272,272,,,,,,,,,,,,,170.83272639999996,0.03272639999994453,None,,220.08753500000012,220.08753500000012,220.08753500000012,220.08753500000012,220.08753500000012,220.08753500000012,220.08753500000012,220.08753500000012,001,P002,2025_Jan_18_0938,CategoryLocalizer,2021.2.3,59.93612008326343,
171.0,171.8,4,0.75,Stimuli\ImageFiles-Set1\Scenes\Scenes_002.png,0,0,0,273,273,273,,,,,,,,,,,,,171.00070419999975,0.0007041999997454695,None,,220.2877053000002,220.2877053000002,220.2877053000002,220.2877053000002,220.2877053000002,220.2877053000002,220.2877053000002,220.2877053000002,001,P002,2025_Jan_18_0938,CategoryLocalizer,2021.2.3,59.93612008326343,
171.8,172.0,5,0.0,Stimuli\Blank.png,0,0,0,274,274,274,,,,,,,,,,,,,171.8355664999999,0.035566499999902135,5,0.11886720000029527,221.10510180000028,221.10510180000028,221.10510180000028,221.10510180000028,221.10510180000028,221.10510180000028,221.10510180000028,221.10510180000028,001,P002,2025_Jan_18_0938,CategoryLocalizer,2021.2.3,59.93612008326343,
172.0,172.8,4,0.75,Stimuli\ImageFiles-Set1\Scenes\Scenes_046.png,0,0,0,275,275,275,,,,,,,,,,,,,172.01752549999992,0.017525499999919703,None,,221.30525830000033,221.30525830000033,221.30525830000033,221.30525830000033,221.30525830000033,221.30525830000033,221.30525830000033,221.30525830000033,001,P002,2025_Jan_18_0938,CategoryLocalizer,2021.2.3,59.93612008326343,
172.8,173.0,5,0.0,Stimuli\Blank.png,0,0,0,276,276,276,,,,,,,,,,,,,172.83613639999976,0.03613639999974794,None,,222.10600720000002,222.10600720000002,222.10600720000002,222.10600720000002,222.10600720000002,222.10600720000002,222.10600720000002,222.10600720000002,001,P002,2025_Jan_18_0938,CategoryLocalizer,2021.2.3,59.93612008326343,
173.0,173.8,4,0.75,Stimuli\ImageFiles-Set1\Scenes\Scenes_045.png,0,0,0,277,277,277,,,,,,,,,,,,,173.01802129999987,0.01802129999987301,None,,222.30615720000014,222.30615720000014,222.30615720000014,222.30615720000014,222.30615720000014,222.30615720000014,222.30615720000014,222.30615720000014,001,P002,2025_Jan_18_0938,CategoryLocalizer,2021.2.3,59.93612008326343,
173.8,174.0,5,0.0,Stimuli\Blank.png,0,0,0,278,278,278,,,,,,,,,,,,,173.8360864000001,0.03608640000010155,5,0.13368549999995594,223.0901818000002,223.0901818000002,223.0901818000002,223.0901818000002,223.0901818000002,223.0901818000002,223.0901818000002,223.0901818000002,001,P002,2025_Jan_18_0938,CategoryLocalizer,2021.2.3,59.93612008326343,
174.0,174.8,4,0.75,Stimuli\ImageFiles-Set1\Scenes\Scenes_048.png,0,0,0,279,279,279,,,,,,,,,,,,,174.00218489999997,0.002184899999974732,None,,223.27365980000013,223.27365980000013,223.27365980000013,223.27365980000013,223.27365980000013,223.27365980000013,223.27365980000013,223.27365980000013,001,P002,2025_Jan_18_0938,CategoryLocalizer,2021.2.3,59.93612008326343,
174.8,175.0,5,0.0,Stimuli\Blank.png,0,0,0,280,280,280,,,,,,,,,,,,,174.82116769999993,0.021167699999921297,None,,224.09108220000007,224.09108220000007,224.09108220000007,224.09108220000007,224.09108220000007,224.09108220000007,224.09108220000007,224.09108220000007,001,P002,2025_Jan_18_0938,CategoryLocalizer,2021.2.3,59.93612008326343,
175.0,175.8,4,0.75,Stimuli\ImageFiles-Set1\Scenes\Scenes_055.png,1,1,0,281,281,281,,,,,,,,,,,,,175.02041969999982,0.020419699999820295,None,,224.3079098000003,224.3079098000003,224.3079098000003,224.3079098000003,224.3079098000003,224.3079098000003,224.3079098000003,224.3079098000003,001,P002,2025_Jan_18_0938,CategoryLocalizer,2021.2.3,59.93612008326343,
175.8,176.0,5,0.0,Stimuli\Blank.png,0,0,0,282,282,282,,,,,,,,,,,,,175.83730379999997,0.03730379999996103,5,0.13178289999996196,225.0919415000003,225.0919415000003,225.0919415000003,225.0919415000003,225.0919415000003,225.0919415000003,225.0919415000003,225.0919415000003,001,P002,2025_Jan_18_0938,CategoryLocalizer,2021.2.3,59.93612008326343,
176.0,176.8,4,0.75,Stimuli\ImageFiles-Set1\Scenes\Scenes_010.png,0,0,0,283,283,283,,,,,,,,,,,,,176.00610610000012,0.00610610000012457,None,,225.29213280000022,225.29213280000022,225.29213280000022,225.29213280000022,225.29213280000022,225.29213280000022,225.29213280000022,225.29213280000022,001,P002,2025_Jan_18_0938,CategoryLocalizer,2021.2.3,59.93612008326343,
176.8,177.0,5,0.0,Stimuli\Blank.png,0,0,0,284,284,284,,,,,,,,,,,,,176.83769729999995,0.037697299999933875,None,,226.09282140000005,226.09282140000005,226.09282140000005,226.09282140000005,226.09282140000005,226.09282140000005,226.09282140000005,226.09282140000005,001,P002,2025_Jan_18_0938,CategoryLocalizer,2021.2.3,59.93612008326343,
