eventStartTime,eventEndTime,eventCond,imSize,imFile,repeatedImage,responseEvent,Events.thisRepN,Events.thisTrialN,Events.thisN,Events.thisIndex,Instructions.started,Instructions.stopped,participantReadyResponse.keys,participantReadyResponse.rt,participantReadyResponse.started,participantReadyResponse.stopped,startWaitforTrigger,triggerResponse.keys,triggerResponse.rt,triggerResponse.started,triggerResponse.stopped,globalTimer,actualStartTime,startTimingDiff,participantResponse.keys,participantResponse.rt,participantResponse.started,participantResponse.stopped,image.started,image.stopped,fixationOutside.started,fixationOutside.stopped,fixationInside.started,fixationInside.stopped,session,participant,date,expName,psychopyVersion,frameRate,
,,,,,,,,,,,11.986352300000362,None,1,0.227552199999991,11.986352300000362,None,,,,,,,,,,,,,,,,,,,003,P003,2025_Jan_18_1229,CategoryLocalizer,2021.2.3,59.98785845774614,
,,,,,,,,,,,,,,,,,12.218581400000403,5,16.123343699999168,12.231559800000468,None,,,,,,,,,,,,,,003,P003,2025_Jan_18_1229,CategoryLocalizer,2021.2.3,59.98785845774614,
0.0,12.0,0,0.0,Stimuli\Blank.png,0,0,0,0,0,0,,,,,,,,,,,,28.366166600000724,0.05201139999917359,0.05201139999917359,5,11.908890799999426,28.445876400000998,None,28.445876400000998,None,28.445876400000998,None,28.445876400000998,None,003,P003,2025_Jan_18_1229,CategoryLocalizer,2021.2.3,59.98785845774614,
12.0,12.8,1,0.75,Stimuli\ImageFiles-Set1\Objects\Object_Recliner_00001.png,0,0,0,1,1,1,,,,,,,,,,,,,12.02743829999963,0.027438299999630544,None,,40.406398799999806,40.406398799999806,40.406398799999806,40.406398799999806,40.406398799999806,40.406398799999806,40.406398799999806,40.406398799999806,003,P003,2025_Jan_18_1229,CategoryLocalizer,2021.2.3,59.98785845774614,
12.8,13.0,5,0.0,Stimuli\Blank.png,0,0,0,2,2,2,,,,,,,,,,,,,12.809989699999278,0.009989699999277235,None,,41.19042940000145,41.19042940000145,41.19042940000145,41.19042940000145,41.19042940000145,41.19042940000145,41.19042940000145,41.19042940000145,003,P003,2025_Jan_18_1229,CategoryLocalizer,2021.2.3,59.98785845774614,
13.0,13.8,1,0.75,Stimuli\ImageFiles-Set1\Objects\Object_Gun_00001.png,0,0,0,3,3,3,,,,,,,,,,,,,13.010534899998675,0.010534899998674518,None,,41.39059530000122,41.39059530000122,41.39059530000122,41.39059530000122,41.39059530000122,41.39059530000122,41.39059530000122,41.39059530000122,003,P003,2025_Jan_18_1229,CategoryLocalizer,2021.2.3,59.98785845774614,
13.8,14.0,5,0.0,Stimuli\Blank.png,0,0,0,4,4,4,,,,,,,,,,,,,13.81129619999956,0.011296199999559775,5,0.16353069999968284,42.191299199999776,42.191299199999776,42.191299199999776,42.191299199999776,42.191299199999776,42.191299199999776,42.191299199999776,42.191299199999776,003,P003,2025_Jan_18_1229,CategoryLocalizer,2021.2.3,59.98785845774614,
14.0,14.8,1,0.75,Stimuli\ImageFiles-Set1\Objects\Object_Book_00001.png,0,0,0,5,5,5,,,,,,,,,,,,,14.010721799999374,0.010721799999373616,None,,42.39147200000116,42.39147200000116,42.39147200000116,42.39147200000116,42.39147200000116,42.39147200000116,42.39147200000116,42.39147200000116,003,P003,2025_Jan_18_1229,CategoryLocalizer,2021.2.3,59.98785845774614,
14.8,15.0,5,0.0,Stimuli\Blank.png,0,0,0,6,6,6,,,,,,,,,,,,,14.811494099998527,0.011494099998525797,None,,43.19218120000005,43.19218120000005,43.19218120000005,43.19218120000005,43.19218120000005,43.19218120000005,43.19218120000005,43.19218120000005,003,P003,2025_Jan_18_1229,CategoryLocalizer,2021.2.3,59.98785845774614,
15.0,15.8,1,0.75,Stimuli\ImageFiles-Set1\Objects\Object_Book_00001.png,1,1,0,7,7,7,,,,,,,,,,,,,15.01375089999965,0.013750899999649846,1,0.4438088000006246,43.40904010000122,43.40904010000122,43.40904010000122,43.40904010000122,43.40904010000122,43.40904010000122,43.40904010000122,43.40904010000122,003,P003,2025_Jan_18_1229,CategoryLocalizer,2021.2.3,59.98785845774614,
15.8,16.0,5,0.0,Stimuli\Blank.png,0,0,0,8,8,8,,,,,,,,,,,,,15.828811999999743,0.02881199999974271,5,0.14504849999866565,44.2097485000013,44.2097485000013,44.2097485000013,44.2097485000013,44.2097485000013,44.2097485000013,44.2097485000013,44.2097485000013,003,P003,2025_Jan_18_1229,CategoryLocalizer,2021.2.3,59.98785845774614,
16.0,16.8,1,0.75,Stimuli\ImageFiles-Set1\Objects\Object_Boat_00001.png,0,0,0,9,9,9,,,,,,,,,,,,,16.013086699998894,0.013086699998893891,None,,44.39323570000124,44.39323570000124,44.39323570000124,44.39323570000124,44.39323570000124,44.39323570000124,44.39323570000124,44.39323570000124,003,P003,2025_Jan_18_1229,CategoryLocalizer,2021.2.3,59.98785845774614,
16.8,17.0,5,0.0,Stimuli\Blank.png,0,0,0,10,10,10,,,,,,,,,,,,,16.815770600000178,0.01577060000017738,None,,45.210644000000684,45.210644000000684,45.210644000000684,45.210644000000684,45.210644000000684,45.210644000000684,45.210644000000684,45.210644000000684,003,P003,2025_Jan_18_1229,CategoryLocalizer,2021.2.3,59.98785845774614,
17.0,17.8,1,0.75,Stimuli\ImageFiles-Set1\Objects\Object_Baseball_00001.png,0,0,0,11,11,11,,,,,,,,,,,,,17.014054499999475,0.014054499999474501,None,,45.410799600000246,45.410799600000246,45.410799600000246,45.410799600000246,45.410799600000246,45.410799600000246,45.410799600000246,45.410799600000246,003,P003,2025_Jan_18_1229,CategoryLocalizer,2021.2.3,59.98785845774614,
17.8,18.0,5,0.0,Stimuli\Blank.png,0,0,0,12,12,12,,,,,,,,,,,,,17.830770200000188,0.030770200000187486,5,0.14368259999901056,46.21150170000146,46.21150170000146,46.21150170000146,46.21150170000146,46.21150170000146,46.21150170000146,46.21150170000146,46.21150170000146,003,P003,2025_Jan_18_1229,CategoryLocalizer,2021.2.3,59.98785845774614,
18.0,18.8,1,0.75,Stimuli\ImageFiles-Set1\Objects\Object_Brush_00001.png,0,0,0,13,13,13,,,,,,,,,,,,,18.014300699998785,0.014300699998784694,None,,46.394971700001406,46.394971700001406,46.394971700001406,46.394971700001406,46.394971700001406,46.394971700001406,46.394971700001406,46.394971700001406,003,P003,2025_Jan_18_1229,CategoryLocalizer,2021.2.3,59.98785845774614,
18.8,19.0,5,0.0,Stimuli\Blank.png,0,0,0,14,14,14,,,,,,,,,,,,,18.81514109999989,0.015141099999890884,None,,47.195716000000175,47.195716000000175,47.195716000000175,47.195716000000175,47.195716000000175,47.195716000000175,47.195716000000175,47.195716000000175,003,P003,2025_Jan_18_1229,CategoryLocalizer,2021.2.3,59.98785845774614,
19.0,19.8,1,0.75,Stimuli\ImageFiles-Set1\Objects\Object_Watch_00001.png,0,0,0,15,15,15,,,,,,,,,,,,,19.01580929999909,0.01580929999909131,None,,47.39587910000046,47.39587910000046,47.39587910000046,47.39587910000046,47.39587910000046,47.39587910000046,47.39587910000046,47.39587910000046,003,P003,2025_Jan_18_1229,CategoryLocalizer,2021.2.3,59.98785845774614,
19.8,20.0,5,0.0,Stimuli\Blank.png,0,0,0,16,16,16,,,,,,,,,,,,,19.799664199999825,-0.0003358000001760786,None,,48.17989800000032,48.17989800000032,48.17989800000032,48.17989800000032,48.17989800000032,48.17989800000032,48.17989800000032,48.17989800000032,003,P003,2025_Jan_18_1229,CategoryLocalizer,2021.2.3,59.98785845774614,
20.0,20.8,1,0.75,Stimuli\ImageFiles-Set1\Objects\Object_Sock_00001.png,0,0,0,17,17,17,,,,,,,,,,,,,19.999357199998485,-0.0006428000015148427,None,,48.38007480000124,48.38007480000124,48.38007480000124,48.38007480000124,48.38007480000124,48.38007480000124,48.38007480000124,48.38007480000124,003,P003,2025_Jan_18_1229,CategoryLocalizer,2021.2.3,59.98785845774614,
20.8,21.0,5,0.0,Stimuli\Blank.png,0,0,0,18,18,18,,,,,,,,,,,,,20.80018579999887,0.0001857999988708059,None,,49.180785800001104,49.180785800001104,49.180785800001104,49.180785800001104,49.180785800001104,49.180785800001104,49.180785800001104,49.180785800001104,003,P003,2025_Jan_18_1229,CategoryLocalizer,2021.2.3,59.98785845774614,
21.0,21.8,1,0.75,Stimuli\ImageFiles-Set1\Objects\Object_Bench_00001.png,0,0,0,19,19,19,,,,,,,,,,,,,21.000572299999476,0.0005722999994759448,None,,49.38095340000109,49.38095340000109,49.38095340000109,49.38095340000109,49.38095340000109,49.38095340000109,49.38095340000109,49.38095340000109,003,P003,2025_Jan_18_1229,CategoryLocalizer,2021.2.3,59.98785845774614,
21.8,22.0,5,0.0,Stimuli\Blank.png,0,0,0,20,20,20,,,,,,,,,,,,,21.801678099998753,0.001678099998752458,None,,50.18166750000091,50.18166750000091,50.18166750000091,50.18166750000091,50.18166750000091,50.18166750000091,50.18166750000091,50.18166750000091,003,P003,2025_Jan_18_1229,CategoryLocalizer,2021.2.3,59.98785845774614,
22.0,22.8,1,0.75,Stimuli\ImageFiles-Set1\Objects\Object_Lamp_00001.png,0,0,0,21,21,21,,,,,,,,,,,,,22.001008499999443,0.001008499999443302,None,,50.38183680000111,50.38183680000111,50.38183680000111,50.38183680000111,50.38183680000111,50.38183680000111,50.38183680000111,50.38183680000111,003,P003,2025_Jan_18_1229,CategoryLocalizer,2021.2.3,59.98785845774614,
22.8,23.0,5,0.0,Stimuli\Blank.png,0,0,0,22,22,22,,,,,,,,,,,,,22.803630699998394,0.003630699998392828,None,,51.199234000001525,51.199234000001525,51.199234000001525,51.199234000001525,51.199234000001525,51.199234000001525,51.199234000001525,51.199234000001525,003,P003,2025_Jan_18_1229,CategoryLocalizer,2021.2.3,59.98785845774614,
23.0,23.8,1,0.75,Stimuli\ImageFiles-Set1\Objects\Object_Peanut_00001.png,1,1,0,23,23,23,,,,,,,,,,,,,23.019784599999184,0.019784599999184138,None,,51.41610020000007,51.41610020000007,51.41610020000007,51.41610020000007,51.41610020000007,51.41610020000007,51.41610020000007,51.41610020000007,003,P003,2025_Jan_18_1229,CategoryLocalizer,2021.2.3,59.98785845774614,
23.8,24.0,5,0.0,Stimuli\Blank.png,0,0,0,24,24,24,,,,,,,,,,,,,23.820636799999193,0.02063679999919188,None,,52.20011530000011,52.20011530000011,52.20011530000011,52.20011530000011,52.20011530000011,52.20011530000011,52.20011530000011,52.20011530000011,003,P003,2025_Jan_18_1229,CategoryLocalizer,2021.2.3,59.98785845774614,
24.0,24.8,1,0.75,Stimuli\ImageFiles-Set1\Objects\Object_Ring_00001.png,0,0,0,25,25,25,,,,,,,,,,,,,24.00364660000014,0.003646600000138278,None,,52.38361210000039,52.38361210000039,52.38361210000039,52.38361210000039,52.38361210000039,52.38361210000039,52.38361210000039,52.38361210000039,003,P003,2025_Jan_18_1229,CategoryLocalizer,2021.2.3,59.98785845774614,
24.8,25.0,5,0.0,Stimuli\Blank.png,0,0,0,26,26,26,,,,,,,,,,,,,24.803747199999634,0.003747199999633466,None,,53.184301100000084,53.184301100000084,53.184301100000084,53.184301100000084,53.184301100000084,53.184301100000084,53.184301100000084,53.184301100000084,003,P003,2025_Jan_18_1229,CategoryLocalizer,2021.2.3,59.98785845774614,
25.0,25.8,1,0.75,Stimuli\ImageFiles-Set1\Objects\Object_Ring_00001.png,0,0,0,27,27,27,,,,,,,,,,,,,25.004736099999718,0.004736099999718135,1,0.4048994999993738,53.40118419999999,53.40118419999999,53.40118419999999,53.40118419999999,53.40118419999999,53.40118419999999,53.40118419999999,53.40118419999999,003,P003,2025_Jan_18_1229,CategoryLocalizer,2021.2.3,59.98785845774614,
25.8,26.0,5,0.0,Stimuli\Blank.png,0,0,0,28,28,28,,,,,,,,,,,,,25.821784199999456,0.021784199999455467,None,,54.20194570000058,54.20194570000058,54.20194570000058,54.20194570000058,54.20194570000058,54.20194570000058,54.20194570000058,54.20194570000058,003,P003,2025_Jan_18_1229,CategoryLocalizer,2021.2.3,59.98785845774614,
26.0,26.8,1,0.75,Stimuli\ImageFiles-Set1\Objects\Object_Knife_00001.png,0,0,0,29,29,29,,,,,,,,,,,,,26.004546999998638,0.004546999998638057,None,,54.38537440000073,54.38537440000073,54.38537440000073,54.38537440000073,54.38537440000073,54.38537440000073,54.38537440000073,54.38537440000073,003,P003,2025_Jan_18_1229,CategoryLocalizer,2021.2.3,59.98785845774614,
26.8,27.0,5,0.0,Stimuli\Blank.png,0,0,0,30,30,30,,,,,,,,,,,,,26.805649699999776,0.005649699999775493,None,,55.18607010000051,55.18607010000051,55.18607010000051,55.18607010000051,55.18607010000051,55.18607010000051,55.18607010000051,55.18607010000051,003,P003,2025_Jan_18_1229,CategoryLocalizer,2021.2.3,59.98785845774614,
27.0,27.8,1,0.75,Stimuli\ImageFiles-Set1\Objects\Object_Nightstand_00001.png,0,0,0,31,31,31,,,,,,,,,,,,,27.006146799998533,0.006146799998532515,None,,55.386254900000495,55.386254900000495,55.386254900000495,55.386254900000495,55.386254900000495,55.386254900000495,55.386254900000495,55.386254900000495,003,P003,2025_Jan_18_1229,CategoryLocalizer,2021.2.3,59.98785845774614,
27.8,28.0,5,0.0,Stimuli\Blank.png,0,0,0,32,32,32,,,,,,,,,,,,,27.806746599999315,0.006746599999313929,5,0.16785019999952056,56.18695210000078,56.18695210000078,56.18695210000078,56.18695210000078,56.18695210000078,56.18695210000078,56.18695210000078,56.18695210000078,003,P003,2025_Jan_18_1229,CategoryLocalizer,2021.2.3,59.98785845774614,
28.0,28.8,2,0.75,Stimuli\ImageFiles-Set1\Bodies\Bodies_Standing_00007.png,0,0,0,33,33,33,,,,,,,,,,,,,28.00615419999849,0.0061541999984910944,None,,56.38712560000022,56.38712560000022,56.38712560000022,56.38712560000022,56.38712560000022,56.38712560000022,56.38712560000022,56.38712560000022,003,P003,2025_Jan_18_1229,CategoryLocalizer,2021.2.3,59.98785845774614,
28.8,29.0,5,0.0,Stimuli\Blank.png,0,0,0,34,34,34,,,,,,,,,,,,,28.808764499999597,0.008764499999596609,None,,57.204520799999955,57.204520799999955,57.204520799999955,57.204520799999955,57.204520799999955,57.204520799999955,57.204520799999955,57.204520799999955,003,P003,2025_Jan_18_1229,CategoryLocalizer,2021.2.3,59.98785845774614,
29.0,29.8,2,0.75,Stimuli\ImageFiles-Set1\Bodies\Bodies_Punching_00001.png,0,0,0,35,35,35,,,,,,,,,,,,,29.02477109999927,0.02477109999927052,None,,57.40468820000024,57.40468820000024,57.40468820000024,57.40468820000024,57.40468820000024,57.40468820000024,57.40468820000024,57.40468820000024,003,P003,2025_Jan_18_1229,CategoryLocalizer,2021.2.3,59.98785845774614,
29.8,30.0,5,0.0,Stimuli\Blank.png,0,0,0,36,36,36,,,,,,,,,,,,,29.80886389999978,0.008863899999777658,5,0.16615890000139188,58.18871860000036,58.18871860000036,58.18871860000036,58.18871860000036,58.18871860000036,58.18871860000036,58.18871860000036,58.18871860000036,003,P003,2025_Jan_18_1229,CategoryLocalizer,2021.2.3,59.98785845774614,
30.0,30.8,2,0.75,Stimuli\ImageFiles-Set1\Bodies\Bodies_Waving_00005.png,0,0,0,37,37,37,,,,,,,,,,,,,30.00883149999936,0.008831499999359949,None,,58.38888730000144,58.38888730000144,58.38888730000144,58.38888730000144,58.38888730000144,58.38888730000144,58.38888730000144,58.38888730000144,003,P003,2025_Jan_18_1229,CategoryLocalizer,2021.2.3,59.98785845774614,
30.8,31.0,5,0.0,Stimuli\Blank.png,0,0,0,38,38,38,,,,,,,,,,,,,30.809592099998554,0.009592099998553039,None,,59.189725199999884,59.189725199999884,59.189725199999884,59.189725199999884,59.189725199999884,59.189725199999884,59.189725199999884,59.189725199999884,003,P003,2025_Jan_18_1229,CategoryLocalizer,2021.2.3,59.98785845774614,
31.0,31.8,2,0.75,Stimuli\ImageFiles-Set1\Bodies\Bodies_CobraPose_00001.png,0,0,0,39,39,39,,,,,,,,,,,,,31.009764799999175,0.009764799999175011,None,,59.389774000001125,59.389774000001125,59.389774000001125,59.389774000001125,59.389774000001125,59.389774000001125,59.389774000001125,59.389774000001125,003,P003,2025_Jan_18_1229,CategoryLocalizer,2021.2.3,59.98785845774614,
31.8,32.0,5,0.0,Stimuli\Blank.png,0,0,0,40,40,40,,,,,,,,,,,,,31.81023539999842,0.01023539999841816,5,0.16426229999888164,60.19049770000129,60.19049770000129,60.19049770000129,60.19049770000129,60.19049770000129,60.19049770000129,60.19049770000129,60.19049770000129,003,P003,2025_Jan_18_1229,CategoryLocalizer,2021.2.3,59.98785845774614,
32.0,32.8,2,0.75,Stimuli\ImageFiles-Set1\Bodies\Bodies_DownwardDog_00007.png,0,0,0,41,41,41,,,,,,,,,,,,,32.01065159999962,0.010651599999619066,None,,60.390643400000044,60.390643400000044,60.390643400000044,60.390643400000044,60.390643400000044,60.390643400000044,60.390643400000044,60.390643400000044,003,P003,2025_Jan_18_1229,CategoryLocalizer,2021.2.3,59.98785845774614,
32.8,33.0,5,0.0,Stimuli\Blank.png,0,0,0,42,42,42,,,,,,,,,,,,,32.81133799999952,0.011337999999526005,None,,61.19136090000029,61.19136090000029,61.19136090000029,61.19136090000029,61.19136090000029,61.19136090000029,61.19136090000029,61.19136090000029,003,P003,2025_Jan_18_1229,CategoryLocalizer,2021.2.3,59.98785845774614,
33.0,33.8,2,0.75,Stimuli\ImageFiles-Set1\Bodies\Bodies_Falling_00006.png,0,0,0,43,43,43,,,,,,,,,,,,,33.010700499999075,0.010700499999074964,None,,61.39153760000045,61.39153760000045,61.39153760000045,61.39153760000045,61.39153760000045,61.39153760000045,61.39153760000045,61.39153760000045,003,P003,2025_Jan_18_1229,CategoryLocalizer,2021.2.3,59.98785845774614,
33.8,34.0,5,0.0,Stimuli\Blank.png,0,0,0,44,44,44,,,,,,,,,,,,,33.81156809999993,0.011568099999934134,5,0.16354150000006484,62.192233900001156,62.192233900001156,62.192233900001156,62.192233900001156,62.192233900001156,62.192233900001156,62.192233900001156,62.192233900001156,003,P003,2025_Jan_18_1229,CategoryLocalizer,2021.2.3,59.98785845774614,
34.0,34.8,2,0.75,Stimuli\ImageFiles-Set1\Bodies\Bodies_Falling_00006.png,1,1,0,45,45,45,,,,,,,,,,,,,34.012047499998516,0.012047499998516287,1,0.45035770000140474,62.39241670000047,62.39241670000047,62.39241670000047,62.39241670000047,62.39241670000047,62.39241670000047,62.39241670000047,62.39241670000047,003,P003,2025_Jan_18_1229,CategoryLocalizer,2021.2.3,59.98785845774614,
34.8,35.0,5,0.0,Stimuli\Blank.png,0,0,0,46,46,46,,,,,,,,,,,,,34.81276739999885,0.012767399998850237,None,,63.19310890000088,63.19310890000088,63.19310890000088,63.19310890000088,63.19310890000088,63.19310890000088,63.19310890000088,63.19310890000088,003,P003,2025_Jan_18_1229,CategoryLocalizer,2021.2.3,59.98785845774614,
35.0,35.8,2,0.75,Stimuli\ImageFiles-Set1\Bodies\Bodies_Hanging_00002.png,0,0,0,47,47,47,,,,,,,,,,,,,35.01491480000004,0.014914800000042305,None,,63.40997840000091,63.40997840000091,63.40997840000091,63.40997840000091,63.40997840000091,63.40997840000091,63.40997840000091,63.40997840000091,003,P003,2025_Jan_18_1229,CategoryLocalizer,2021.2.3,59.98785845774614,
35.8,36.0,5,0.0,Stimuli\Blank.png,0,0,0,48,48,48,,,,,,,,,,,,,35.830088999999134,0.030088999999136945,5,0.14416520000122546,64.21068259999993,64.21068259999993,64.21068259999993,64.21068259999993,64.21068259999993,64.21068259999993,64.21068259999993,64.21068259999993,003,P003,2025_Jan_18_1229,CategoryLocalizer,2021.2.3,59.98785845774614,
36.0,36.8,2,0.75,Stimuli\ImageFiles-Set1\Bodies\Bodies_DownwardDog_00005.png,0,0,0,49,49,49,,,,,,,,,,,,,36.01356779999878,0.013567799998781993,None,,64.39416940000046,64.39416940000046,64.39416940000046,64.39416940000046,64.39416940000046,64.39416940000046,64.39416940000046,64.39416940000046,003,P003,2025_Jan_18_1229,CategoryLocalizer,2021.2.3,59.98785845774614,
36.8,37.0,5,0.0,Stimuli\Blank.png,0,0,0,50,50,50,,,,,,,,,,,,,36.814410699998916,0.014410699998919085,None,,65.19487980000122,65.19487980000122,65.19487980000122,65.19487980000122,65.19487980000122,65.19487980000122,65.19487980000122,65.19487980000122,003,P003,2025_Jan_18_1229,CategoryLocalizer,2021.2.3,59.98785845774614,
37.0,37.8,2,0.75,Stimuli\ImageFiles-Set1\Bodies\Bodies_Crawling_00003.png,0,0,0,51,51,51,,,,,,,,,,,,,37.01441939999859,0.014419399998587323,None,,65.39505160000044,65.39505160000044,65.39505160000044,65.39505160000044,65.39505160000044,65.39505160000044,65.39505160000044,65.39505160000044,003,P003,2025_Jan_18_1229,CategoryLocalizer,2021.2.3,59.98785845774614,
37.8,38.0,5,0.0,Stimuli\Blank.png,0,0,0,52,52,52,,,,,,,,,,,,,37.81527089999872,0.01527089999872544,5,0.15907979999974486,66.19577130000107,66.19577130000107,66.19577130000107,66.19577130000107,66.19577130000107,66.19577130000107,66.19577130000107,66.19577130000107,003,P003,2025_Jan_18_1229,CategoryLocalizer,2021.2.3,59.98785845774614,
38.0,38.8,2,0.75,Stimuli\ImageFiles-Set1\Bodies\Bodies_SittingFloor_00003.png,1,1,0,53,53,53,,,,,,,,,,,,,38.01576269999896,0.01576269999895885,None,,66.41263640000034,66.41263640000034,66.41263640000034,66.41263640000034,66.41263640000034,66.41263640000034,66.41263640000034,66.41263640000034,003,P003,2025_Jan_18_1229,CategoryLocalizer,2021.2.3,59.98785845774614,
38.8,39.0,5,0.0,Stimuli\Blank.png,0,0,0,54,54,54,,,,,,,,,,,,,38.81654789999993,0.016547899999935112,None,,67.19663850000143,67.19663850000143,67.19663850000143,67.19663850000143,67.19663850000143,67.19663850000143,67.19663850000143,67.19663850000143,003,P003,2025_Jan_18_1229,CategoryLocalizer,2021.2.3,59.98785845774614,
39.0,39.8,2,0.75,Stimuli\ImageFiles-Set1\Bodies\Bodies_Running_00006.png,0,0,0,55,55,55,,,,,,,,,,,,,38.99939319999976,-0.0006068000002414919,None,,67.3801323000007,67.3801323000007,67.3801323000007,67.3801323000007,67.3801323000007,67.3801323000007,67.3801323000007,67.3801323000007,003,P003,2025_Jan_18_1229,CategoryLocalizer,2021.2.3,59.98785845774614,
39.8,40.0,5,0.0,Stimuli\Blank.png,0,0,0,56,56,56,,,,,,,,,,,,,39.80070479999995,0.0007047999999514332,None,,68.18083500000103,68.18083500000103,68.18083500000103,68.18083500000103,68.18083500000103,68.18083500000103,68.18083500000103,68.18083500000103,003,P003,2025_Jan_18_1229,CategoryLocalizer,2021.2.3,59.98785845774614,
40.0,40.8,2,0.75,Stimuli\ImageFiles-Set1\Bodies\Bodies_Running_00006.png,0,0,0,57,57,57,,,,,,,,,,,,,40.00029629999881,0.00029629999880853575,1,0.44970920000014303,68.38102360000084,68.38102360000084,68.38102360000084,68.38102360000084,68.38102360000084,68.38102360000084,68.38102360000084,68.38102360000084,003,P003,2025_Jan_18_1229,CategoryLocalizer,2021.2.3,59.98785845774614,
40.8,41.0,5,0.0,Stimuli\Blank.png,0,0,0,58,58,58,,,,,,,,,,,,,40.80132599999888,0.001325999998883276,None,,69.18171940000138,69.18171940000138,69.18171940000138,69.18171940000138,69.18171940000138,69.18171940000138,69.18171940000138,69.18171940000138,003,P003,2025_Jan_18_1229,CategoryLocalizer,2021.2.3,59.98785845774614,
41.0,41.8,2,0.75,Stimuli\ImageFiles-Set1\Bodies\Bodies_Punching_00003.png,0,0,0,59,59,59,,,,,,,,,,,,,41.001703399999315,0.0017033999993145699,None,,69.38190150000082,69.38190150000082,69.38190150000082,69.38190150000082,69.38190150000082,69.38190150000082,69.38190150000082,69.38190150000082,003,P003,2025_Jan_18_1229,CategoryLocalizer,2021.2.3,59.98785845774614,
41.8,42.0,5,0.0,Stimuli\Blank.png,0,0,0,60,60,60,,,,,,,,,,,,,41.80301580000014,0.0030158000001421215,None,,70.18263110000044,70.18263110000044,70.18263110000044,70.18263110000044,70.18263110000044,70.18263110000044,70.18263110000044,70.18263110000044,003,P003,2025_Jan_18_1229,CategoryLocalizer,2021.2.3,59.98785845774614,
42.0,42.8,2,0.75,Stimuli\ImageFiles-Set1\Bodies\Bodies_SittingChair_00003.png,0,0,0,61,61,61,,,,,,,,,,,,,42.002401499999905,0.0024014999999053543,None,,70.38277139999991,70.38277139999991,70.38277139999991,70.38277139999991,70.38277139999991,70.38277139999991,70.38277139999991,70.38277139999991,003,P003,2025_Jan_18_1229,CategoryLocalizer,2021.2.3,59.98785845774614,
42.8,43.0,5,0.0,Stimuli\Blank.png,0,0,0,62,62,62,,,,,,,,,,,,,42.80381679999846,0.0038167999984608514,None,,71.18349110000054,71.18349110000054,71.18349110000054,71.18349110000054,71.18349110000054,71.18349110000054,71.18349110000054,71.18349110000054,003,P003,2025_Jan_18_1229,CategoryLocalizer,2021.2.3,59.98785845774614,
43.0,43.8,2,0.75,Stimuli\ImageFiles-Set1\Bodies\Bodies_Crawling_00001.png,0,0,0,63,63,63,,,,,,,,,,,,,43.00370759999896,0.0037075999989610864,None,,71.3836592000007,71.3836592000007,71.3836592000007,71.3836592000007,71.3836592000007,71.3836592000007,71.3836592000007,71.3836592000007,003,P003,2025_Jan_18_1229,CategoryLocalizer,2021.2.3,59.98785845774614,
43.8,44.0,5,0.0,Stimuli\Blank.png,0,0,0,64,64,64,,,,,,,,,,,,,43.80453999999918,0.004539999999181532,None,,72.18437540000014,72.18437540000014,72.18437540000014,72.18437540000014,72.18437540000014,72.18437540000014,72.18437540000014,72.18437540000014,003,P003,2025_Jan_18_1229,CategoryLocalizer,2021.2.3,59.98785845774614,
44.0,44.8,3,0.75,Stimuli\ImageFiles-Set1\Faces\Face_00097.png,0,0,0,65,65,65,,,,,,,,,,,,,44.004623199998605,0.004623199998604832,None,,72.38453850000042,72.38453850000042,72.38453850000042,72.38453850000042,72.38453850000042,72.38453850000042,72.38453850000042,72.38453850000042,003,P003,2025_Jan_18_1229,CategoryLocalizer,2021.2.3,59.98785845774614,
44.8,45.0,5,0.0,Stimuli\Blank.png,0,0,0,66,66,66,,,,,,,,,,,,,44.80446579999989,0.0044657999998918285,None,,73.18524040000011,73.18524040000011,73.18524040000011,73.18524040000011,73.18524040000011,73.18524040000011,73.18524040000011,73.18524040000011,003,P003,2025_Jan_18_1229,CategoryLocalizer,2021.2.3,59.98785845774614,
45.0,45.8,3,0.75,Stimuli\ImageFiles-Set1\Faces\Face_00089.png,0,0,0,67,67,67,,,,,,,,,,,,,45.00502289999895,0.00502289999894856,None,,73.38542460000099,73.38542460000099,73.38542460000099,73.38542460000099,73.38542460000099,73.38542460000099,73.38542460000099,73.38542460000099,003,P003,2025_Jan_18_1229,CategoryLocalizer,2021.2.3,59.98785845774614,
45.8,46.0,5,0.0,Stimuli\Blank.png,0,0,0,68,68,68,,,,,,,,,,,,,45.8062235999987,0.006223599998705254,None,,74.1861245,74.1861245,74.1861245,74.1861245,74.1861245,74.1861245,74.1861245,74.1861245,003,P003,2025_Jan_18_1229,CategoryLocalizer,2021.2.3,59.98785845774614,
46.0,46.8,3,0.75,Stimuli\ImageFiles-Set1\Faces\Face_00005.png,0,0,0,69,69,69,,,,,,,,,,,,,46.005609199999526,0.005609199999526027,None,,74.38630100000046,74.38630100000046,74.38630100000046,74.38630100000046,74.38630100000046,74.38630100000046,74.38630100000046,74.38630100000046,003,P003,2025_Jan_18_1229,CategoryLocalizer,2021.2.3,59.98785845774614,
46.8,47.0,5,0.0,Stimuli\Blank.png,0,0,0,70,70,70,,,,,,,,,,,,,46.806594899999254,0.006594899999257109,None,,75.18701340000007,75.18701340000007,75.18701340000007,75.18701340000007,75.18701340000007,75.18701340000007,75.18701340000007,75.18701340000007,003,P003,2025_Jan_18_1229,CategoryLocalizer,2021.2.3,59.98785845774614,
47.0,47.8,3,0.75,Stimuli\ImageFiles-Set1\Faces\Face_00083.png,0,0,0,71,71,71,,,,,,,,,,,,,47.00630589999855,0.006305899998551467,None,,75.38719630000014,75.38719630000014,75.38719630000014,75.38719630000014,75.38719630000014,75.38719630000014,75.38719630000014,75.38719630000014,003,P003,2025_Jan_18_1229,CategoryLocalizer,2021.2.3,59.98785845774614,
47.8,48.0,5,0.0,Stimuli\Blank.png,0,0,0,72,72,72,,,,,,,,,,,,,47.80894420000004,0.008944200000044589,5,0.1512323999995715,76.20458510000026,76.20458510000026,76.20458510000026,76.20458510000026,76.20458510000026,76.20458510000026,76.20458510000026,76.20458510000026,003,P003,2025_Jan_18_1229,CategoryLocalizer,2021.2.3,59.98785845774614,
48.0,48.8,3,0.75,Stimuli\ImageFiles-Set1\Faces\Face_00069.png,0,0,0,73,73,73,,,,,,,,,,,,,48.02467759999854,0.024677599998540245,None,,76.42144910000025,76.42144910000025,76.42144910000025,76.42144910000025,76.42144910000025,76.42144910000025,76.42144910000025,76.42144910000025,003,P003,2025_Jan_18_1229,CategoryLocalizer,2021.2.3,59.98785845774614,
48.8,49.0,5,0.0,Stimuli\Blank.png,0,0,0,74,74,74,,,,,,,,,,,,,48.82489629999873,0.024896299998729887,None,,77.20558810000148,77.20558810000148,77.20558810000148,77.20558810000148,77.20558810000148,77.20558810000148,77.20558810000148,77.20558810000148,003,P003,2025_Jan_18_1229,CategoryLocalizer,2021.2.3,59.98785845774614,
49.0,49.8,3,0.75,Stimuli\ImageFiles-Set1\Faces\Face_00009.png,0,0,0,75,75,75,,,,,,,,,,,,,49.008790699999736,0.008790699999735807,None,,77.4057040000007,77.4057040000007,77.4057040000007,77.4057040000007,77.4057040000007,77.4057040000007,77.4057040000007,77.4057040000007,003,P003,2025_Jan_18_1229,CategoryLocalizer,2021.2.3,59.98785845774614,
49.8,50.0,5,0.0,Stimuli\Blank.png,0,0,0,76,76,76,,,,,,,,,,,,,49.826536299999134,0.02653629999913676,5,0.14946379999855708,78.20633860000089,78.20633860000089,78.20633860000089,78.20633860000089,78.20633860000089,78.20633860000089,78.20633860000089,78.20633860000089,003,P003,2025_Jan_18_1229,CategoryLocalizer,2021.2.3,59.98785845774614,
50.0,50.8,3,0.75,Stimuli\ImageFiles-Set1\Faces\Face_00041.png,0,0,0,77,77,77,,,,,,,,,,,,,50.00887319999856,0.008873199998561176,None,,78.38982240000041,78.38982240000041,78.38982240000041,78.38982240000041,78.38982240000041,78.38982240000041,78.38982240000041,78.38982240000041,003,P003,2025_Jan_18_1229,CategoryLocalizer,2021.2.3,59.98785845774614,
50.8,51.0,5,0.0,Stimuli\Blank.png,0,0,0,78,78,78,,,,,,,,,,,,,50.81013329999951,0.010133299999509404,None,,79.1905295000015,79.1905295000015,79.1905295000015,79.1905295000015,79.1905295000015,79.1905295000015,79.1905295000015,79.1905295000015,003,P003,2025_Jan_18_1229,CategoryLocalizer,2021.2.3,59.98785845774614,
51.0,51.8,3,0.75,Stimuli\ImageFiles-Set1\Faces\Face_00061.png,0,0,0,79,79,79,,,,,,,,,,,,,51.010484699998415,0.010484699998414726,None,,79.40738240000064,79.40738240000064,79.40738240000064,79.40738240000064,79.40738240000064,79.40738240000064,79.40738240000064,79.40738240000064,003,P003,2025_Jan_18_1229,CategoryLocalizer,2021.2.3,59.98785845774614,
51.8,52.0,5,0.0,Stimuli\Blank.png,0,0,0,80,80,80,,,,,,,,,,,,,51.82917549999911,0.02917549999911273,5,0.1310169999997015,80.22479019999992,80.22479019999992,80.22479019999992,80.22479019999992,80.22479019999992,80.22479019999992,80.22479019999992,80.22479019999992,003,P003,2025_Jan_18_1229,CategoryLocalizer,2021.2.3,59.98785845774614,
52.0,52.8,3,0.75,Stimuli\ImageFiles-Set1\Faces\Face_00003.png,0,0,0,81,81,81,,,,,,,,,,,,,52.029788499999995,0.02978849999999511,None,,80.42495170000075,80.42495170000075,80.42495170000075,80.42495170000075,80.42495170000075,80.42495170000075,80.42495170000075,80.42495170000075,003,P003,2025_Jan_18_1229,CategoryLocalizer,2021.2.3,59.98785845774614,
52.8,53.0,5,0.0,Stimuli\Blank.png,0,0,0,82,82,82,,,,,,,,,,,,,52.82872039999893,0.02872039999893161,None,,81.208977100001,81.208977100001,81.208977100001,81.208977100001,81.208977100001,81.208977100001,81.208977100001,81.208977100001,003,P003,2025_Jan_18_1229,CategoryLocalizer,2021.2.3,59.98785845774614,
53.0,53.8,3,0.75,Stimuli\ImageFiles-Set1\Faces\Face_00087.png,0,0,0,83,83,83,,,,,,,,,,,,,53.0122410999993,0.012241099999300786,None,,81.40916079999988,81.40916079999988,81.40916079999988,81.40916079999988,81.40916079999988,81.40916079999988,81.40916079999988,81.40916079999988,003,P003,2025_Jan_18_1229,CategoryLocalizer,2021.2.3,59.98785845774614,
53.8,54.0,5,0.0,Stimuli\Blank.png,0,0,0,84,84,84,,,,,,,,,,,,,53.82946709999851,0.029467099998512936,5,0.14577879999887955,82.20985340000152,82.20985340000152,82.20985340000152,82.20985340000152,82.20985340000152,82.20985340000152,82.20985340000152,82.20985340000152,003,P003,2025_Jan_18_1229,CategoryLocalizer,2021.2.3,59.98785845774614,
54.0,54.8,3,0.75,Stimuli\ImageFiles-Set1\Faces\Face_00049.png,0,0,0,85,85,85,,,,,,,,,,,,,54.01445749999948,0.014457499999480206,None,,82.41005399999995,82.41005399999995,82.41005399999995,82.41005399999995,82.41005399999995,82.41005399999995,82.41005399999995,82.41005399999995,003,P003,2025_Jan_18_1229,CategoryLocalizer,2021.2.3,59.98785845774614,
54.8,55.0,5,0.0,Stimuli\Blank.png,0,0,0,86,86,86,,,,,,,,,,,,,54.83040110000002,0.030401100000020165,None,,83.21072830000048,83.21072830000048,83.21072830000048,83.21072830000048,83.21072830000048,83.21072830000048,83.21072830000048,83.21072830000048,003,P003,2025_Jan_18_1229,CategoryLocalizer,2021.2.3,59.98785845774614,
55.0,55.8,3,0.75,Stimuli\ImageFiles-Set1\Faces\Face_00029.png,0,0,0,87,87,87,,,,,,,,,,,,,55.01436189999913,0.0143618999991304,None,,83.41093010000077,83.41093010000077,83.41093010000077,83.41093010000077,83.41093010000077,83.41093010000077,83.41093010000077,83.41093010000077,003,P003,2025_Jan_18_1229,CategoryLocalizer,2021.2.3,59.98785845774614,
55.8,56.0,5,0.0,Stimuli\Blank.png,0,0,0,88,88,88,,,,,,,,,,,,,55.831375599998864,0.03137559999886719,5,0.1442442999996274,84.21161500000017,84.21161500000017,84.21161500000017,84.21161500000017,84.21161500000017,84.21161500000017,84.21161500000017,84.21161500000017,003,P003,2025_Jan_18_1229,CategoryLocalizer,2021.2.3,59.98785845774614,
56.0,56.8,3,0.75,Stimuli\ImageFiles-Set1\Faces\Face_00029.png,1,1,0,89,89,89,,,,,,,,,,,,,56.01477559999876,0.014775599998756661,1,0.47482769999987795,84.41183690000071,84.41183690000071,84.41183690000071,84.41183690000071,84.41183690000071,84.41183690000071,84.41183690000071,84.41183690000071,003,P003,2025_Jan_18_1229,CategoryLocalizer,2021.2.3,59.98785845774614,
56.8,57.0,5,0.0,Stimuli\Blank.png,0,0,0,90,90,90,,,,,,,,,,,,,56.833721299999524,0.03372129999952733,None,,85.2291804000015,85.2291804000015,85.2291804000015,85.2291804000015,85.2291804000015,85.2291804000015,85.2291804000015,85.2291804000015,003,P003,2025_Jan_18_1229,CategoryLocalizer,2021.2.3,59.98785845774614,
57.0,57.8,3,0.75,Stimuli\ImageFiles-Set1\Faces\Face_00057.png,0,0,0,91,91,91,,,,,,,,,,,,,57.01546199999939,0.015461999999388354,None,,85.39598260000093,85.39598260000093,85.39598260000093,85.39598260000093,85.39598260000093,85.39598260000093,85.39598260000093,85.39598260000093,003,P003,2025_Jan_18_1229,CategoryLocalizer,2021.2.3,59.98785845774614,
57.8,58.0,5,0.0,Stimuli\Blank.png,0,0,0,92,92,92,,,,,,,,,,,,,57.79973389999941,-0.0002661000005872438,None,,86.18002160000106,86.18002160000106,86.18002160000106,86.18002160000106,86.18002160000106,86.18002160000106,86.18002160000106,86.18002160000106,003,P003,2025_Jan_18_1229,CategoryLocalizer,2021.2.3,59.98785845774614,
58.0,58.8,3,0.75,Stimuli\ImageFiles-Set1\Faces\Face_00007.png,0,0,0,93,93,93,,,,,,,,,,,,,58.000259299999016,0.0002592999990156386,None,,86.39686980000079,86.39686980000079,86.39686980000079,86.39686980000079,86.39686980000079,86.39686980000079,86.39686980000079,86.39686980000079,003,P003,2025_Jan_18_1229,CategoryLocalizer,2021.2.3,59.98785845774614,
58.8,59.0,5,0.0,Stimuli\Blank.png,0,0,0,94,94,94,,,,,,,,,,,,,58.819248299998435,0.0192482999984378,None,,87.21427589999985,87.21427589999985,87.21427589999985,87.21427589999985,87.21427589999985,87.21427589999985,87.21427589999985,87.21427589999985,003,P003,2025_Jan_18_1229,CategoryLocalizer,2021.2.3,59.98785845774614,
59.0,59.8,3,0.75,Stimuli\ImageFiles-Set1\Faces\Face_00035.png,0,0,0,95,95,95,,,,,,,,,,,,,59.01870189999863,0.018701899998632143,None,,87.41443390000131,87.41443390000131,87.41443390000131,87.41443390000131,87.41443390000131,87.41443390000131,87.41443390000131,87.41443390000131,003,P003,2025_Jan_18_1229,CategoryLocalizer,2021.2.3,59.98785845774614,
59.8,60.0,5,0.0,Stimuli\Blank.png,0,0,0,96,96,96,,,,,,,,,,,,,59.81771799999842,0.017717999998424716,None,,88.19846270000016,88.19846270000016,88.19846270000016,88.19846270000016,88.19846270000016,88.19846270000016,88.19846270000016,88.19846270000016,003,P003,2025_Jan_18_1229,CategoryLocalizer,2021.2.3,59.98785845774614,
60.0,60.8,4,0.75,Stimuli\ImageFiles-Set1\Scenes\Scenes_006.png,0,0,0,97,97,97,,,,,,,,,,,,,60.0011300999995,0.0011300999995000893,None,,88.39864940000007,88.39864940000007,88.39864940000007,88.39864940000007,88.39864940000007,88.39864940000007,88.39864940000007,88.39864940000007,003,P003,2025_Jan_18_1229,CategoryLocalizer,2021.2.3,59.98785845774614,
60.8,61.0,5,0.0,Stimuli\Blank.png,0,0,0,98,98,98,,,,,,,,,,,,,60.81974809999883,0.019748099998835755,None,,89.19934760000069,89.19934760000069,89.19934760000069,89.19934760000069,89.19934760000069,89.19934760000069,89.19934760000069,89.19934760000069,003,P003,2025_Jan_18_1229,CategoryLocalizer,2021.2.3,59.98785845774614,
61.0,61.8,4,0.75,Stimuli\ImageFiles-Set1\Scenes\Scenes_019.png,0,0,0,99,99,99,,,,,,,,,,,,,61.00451179999982,0.004511799999818322,None,,89.39952530000119,89.39952530000119,89.39952530000119,89.39952530000119,89.39952530000119,89.39952530000119,89.39952530000119,89.39952530000119,003,P003,2025_Jan_18_1229,CategoryLocalizer,2021.2.3,59.98785845774614,
61.8,62.0,5,0.0,Stimuli\Blank.png,0,0,0,100,100,100,,,,,,,,,,,,,61.81959399999869,0.019593999998690492,None,,90.2002091000013,90.2002091000013,90.2002091000013,90.2002091000013,90.2002091000013,90.2002091000013,90.2002091000013,90.2002091000013,003,P003,2025_Jan_18_1229,CategoryLocalizer,2021.2.3,59.98785845774614,
62.0,62.8,4,0.75,Stimuli\ImageFiles-Set1\Scenes\Scenes_021.png,0,0,0,101,101,101,,,,,,,,,,,,,62.00303290000011,0.0030329000001074746,None,,90.38370570000006,90.38370570000006,90.38370570000006,90.38370570000006,90.38370570000006,90.38370570000006,90.38370570000006,90.38370570000006,003,P003,2025_Jan_18_1229,CategoryLocalizer,2021.2.3,59.98785845774614,
62.8,63.0,5,0.0,Stimuli\Blank.png,0,0,0,102,102,102,,,,,,,,,,,,,62.80449729999964,0.004497299999641768,None,,91.18442330000107,91.18442330000107,91.18442330000107,91.18442330000107,91.18442330000107,91.18442330000107,91.18442330000107,91.18442330000107,003,P003,2025_Jan_18_1229,CategoryLocalizer,2021.2.3,59.98785845774614,
63.0,63.8,4,0.75,Stimuli\ImageFiles-Set1\Scenes\Scenes_021.png,1,1,0,103,103,103,,,,,,,,,,,,,63.00489529999868,0.004895299998679548,1,0.4955100000006496,91.40126910000072,91.40126910000072,91.40126910000072,91.40126910000072,91.40126910000072,91.40126910000072,91.40126910000072,91.40126910000072,003,P003,2025_Jan_18_1229,CategoryLocalizer,2021.2.3,59.98785845774614,
63.8,64.0,5,0.0,Stimuli\Blank.png,0,0,0,104,104,104,,,,,,,,,,,,,63.82189689999905,0.021896899999049424,None,,92.20199130000037,92.20199130000037,92.20199130000037,92.20199130000037,92.20199130000037,92.20199130000037,92.20199130000037,92.20199130000037,003,P003,2025_Jan_18_1229,CategoryLocalizer,2021.2.3,59.98785845774614,
64.0,64.8,4,0.75,Stimuli\ImageFiles-Set1\Scenes\Scenes_029.png,0,0,0,105,105,105,,,,,,,,,,,,,64.0047383000001,0.004738300000099116,None,,92.3854734000015,92.3854734000015,92.3854734000015,92.3854734000015,92.3854734000015,92.3854734000015,92.3854734000015,92.3854734000015,003,P003,2025_Jan_18_1229,CategoryLocalizer,2021.2.3,59.98785845774614,
64.8,65.0,5,0.0,Stimuli\Blank.png,0,0,0,106,106,106,,,,,,,,,,,,,64.8058302999998,0.005830299999800559,None,,93.1861800000006,93.1861800000006,93.1861800000006,93.1861800000006,93.1861800000006,93.1861800000006,93.1861800000006,93.1861800000006,003,P003,2025_Jan_18_1229,CategoryLocalizer,2021.2.3,59.98785845774614,
65.0,65.8,4,0.75,Stimuli\ImageFiles-Set1\Scenes\Scenes_033.png,0,0,0,107,107,107,,,,,,,,,,,,,65.00637279999864,0.006372799998644041,None,,93.38635109999996,93.38635109999996,93.38635109999996,93.38635109999996,93.38635109999996,93.38635109999996,93.38635109999996,93.38635109999996,003,P003,2025_Jan_18_1229,CategoryLocalizer,2021.2.3,59.98785845774614,
65.8,66.0,5,0.0,Stimuli\Blank.png,0,0,0,108,108,108,,,,,,,,,,,,,65.808734799999,0.008734799999004395,5,0.1519165999998222,94.2037476000005,94.2037476000005,94.2037476000005,94.2037476000005,94.2037476000005,94.2037476000005,94.2037476000005,94.2037476000005,003,P003,2025_Jan_18_1229,CategoryLocalizer,2021.2.3,59.98785845774614,
66.0,66.8,4,0.75,Stimuli\ImageFiles-Set1\Scenes\Scenes_018.png,0,0,0,109,109,109,,,,,,,,,,,,,66.02327139999943,0.023271399999430287,None,,94.4206103000015,94.4206103000015,94.4206103000015,94.4206103000015,94.4206103000015,94.4206103000015,94.4206103000015,94.4206103000015,003,P003,2025_Jan_18_1229,CategoryLocalizer,2021.2.3,59.98785845774614,
66.8,67.0,5,0.0,Stimuli\Blank.png,0,0,0,110,110,110,,,,,,,,,,,,,66.82445430000007,0.024454300000073204,None,,95.2046420000006,95.2046420000006,95.2046420000006,95.2046420000006,95.2046420000006,95.2046420000006,95.2046420000006,95.2046420000006,003,P003,2025_Jan_18_1229,CategoryLocalizer,2021.2.3,59.98785845774614,
67.0,67.8,4,0.75,Stimuli\ImageFiles-Set1\Scenes\Scenes_026.png,0,0,0,111,111,111,,,,,,,,,,,,,67.00920379999843,0.00920379999843135,None,,95.40493310000056,95.40493310000056,95.40493310000056,95.40493310000056,95.40493310000056,95.40493310000056,95.40493310000056,95.40493310000056,003,P003,2025_Jan_18_1229,CategoryLocalizer,2021.2.3,59.98785845774614,
67.8,68.0,5,0.0,Stimuli\Blank.png,0,0,0,112,112,112,,,,,,,,,,,,,67.82528399999865,0.025283999998649165,5,0.1504691999998613,96.20550940000066,96.20550940000066,96.20550940000066,96.20550940000066,96.20550940000066,96.20550940000066,96.20550940000066,96.20550940000066,003,P003,2025_Jan_18_1229,CategoryLocalizer,2021.2.3,59.98785845774614,
68.0,68.8,4,0.75,Stimuli\ImageFiles-Set1\Scenes\Scenes_030.png,0,0,0,113,113,113,,,,,,,,,,,,,68.00929819999874,0.00929819999873871,None,,96.4056698000004,96.4056698000004,96.4056698000004,96.4056698000004,96.4056698000004,96.4056698000004,96.4056698000004,96.4056698000004,003,P003,2025_Jan_18_1229,CategoryLocalizer,2021.2.3,59.98785845774614,
68.8,69.0,5,0.0,Stimuli\Blank.png,0,0,0,114,114,114,,,,,,,,,,,,,68.82564850000017,0.025648500000173158,None,,97.20640480000111,97.20640480000111,97.20640480000111,97.20640480000111,97.20640480000111,97.20640480000111,97.20640480000111,97.20640480000111,003,P003,2025_Jan_18_1229,CategoryLocalizer,2021.2.3,59.98785845774614,
69.0,69.8,4,0.75,Stimuli\ImageFiles-Set1\Scenes\Scenes_058.png,0,0,0,115,115,115,,,,,,,,,,,,,69.0103683999987,0.010368399998696987,None,,97.40656110000054,97.40656110000054,97.40656110000054,97.40656110000054,97.40656110000054,97.40656110000054,97.40656110000054,97.40656110000054,003,P003,2025_Jan_18_1229,CategoryLocalizer,2021.2.3,59.98785845774614,
69.8,70.0,5,0.0,Stimuli\Blank.png,0,0,0,116,116,116,,,,,,,,,,,,,69.826429499999,0.02642949999899713,5,0.1484723000012309,98.20726490000015,98.20726490000015,98.20726490000015,98.20726490000015,98.20726490000015,98.20726490000015,98.20726490000015,98.20726490000015,003,P003,2025_Jan_18_1229,CategoryLocalizer,2021.2.3,59.98785845774614,
70.0,70.8,4,0.75,Stimuli\ImageFiles-Set1\Scenes\Scenes_039.png,0,0,0,117,117,117,,,,,,,,,,,,,70.01002619999963,0.01002619999962917,None,,98.4074571000001,98.4074571000001,98.4074571000001,98.4074571000001,98.4074571000001,98.4074571000001,98.4074571000001,98.4074571000001,003,P003,2025_Jan_18_1229,CategoryLocalizer,2021.2.3,59.98785845774614,
70.8,71.0,5,0.0,Stimuli\Blank.png,0,0,0,118,118,118,,,,,,,,,,,,,70.82755649999854,0.027556499998539152,None,,99.20814170000085,99.20814170000085,99.20814170000085,99.20814170000085,99.20814170000085,99.20814170000085,99.20814170000085,99.20814170000085,003,P003,2025_Jan_18_1229,CategoryLocalizer,2021.2.3,59.98785845774614,
71.0,71.8,4,0.75,Stimuli\ImageFiles-Set1\Scenes\Scenes_002.png,0,0,0,119,119,119,,,,,,,,,,,,,71.01106769999933,0.011067699999330216,None,,99.39163850000114,99.39163850000114,99.39163850000114,99.39163850000114,99.39163850000114,99.39163850000114,99.39163850000114,99.39163850000114,003,P003,2025_Jan_18_1229,CategoryLocalizer,2021.2.3,59.98785845774614,
71.8,72.0,5,0.0,Stimuli\Blank.png,0,0,0,120,120,120,,,,,,,,,,,,,71.8136641000001,0.01366410000009921,5,0.1465645999996923,100.20904390000032,100.20904390000032,100.20904390000032,100.20904390000032,100.20904390000032,100.20904390000032,100.20904390000032,100.20904390000032,003,P003,2025_Jan_18_1229,CategoryLocalizer,2021.2.3,59.98785845774614,
72.0,72.8,4,0.75,Stimuli\ImageFiles-Set1\Scenes\Scenes_053.png,0,0,0,121,121,121,,,,,,,,,,,,,72.0284001,0.02840009999999893,None,,100.42590460000065,100.42590460000065,100.42590460000065,100.42590460000065,100.42590460000065,100.42590460000065,100.42590460000065,100.42590460000065,003,P003,2025_Jan_18_1229,CategoryLocalizer,2021.2.3,59.98785845774614,
72.8,73.0,5,0.0,Stimuli\Blank.png,0,0,0,122,122,122,,,,,,,,,,,,,72.82969279999998,0.029692799999978092,None,,101.20990730000085,101.20990730000085,101.20990730000085,101.20990730000085,101.20990730000085,101.20990730000085,101.20990730000085,101.20990730000085,003,P003,2025_Jan_18_1229,CategoryLocalizer,2021.2.3,59.98785845774614,
73.0,73.8,4,0.75,Stimuli\ImageFiles-Set1\Scenes\Scenes_015.png,1,1,0,123,123,123,,,,,,,,,,,,,73.01281099999869,0.012810999998691841,None,,101.39339910000126,101.39339910000126,101.39339910000126,101.39339910000126,101.39339910000126,101.39339910000126,101.39339910000126,101.39339910000126,003,P003,2025_Jan_18_1229,CategoryLocalizer,2021.2.3,59.98785845774614,
73.8,74.0,5,0.0,Stimuli\Blank.png,0,0,0,124,124,124,,,,,,,,,,,,,73.81357539999954,0.013575399999538718,5,0.1616293000006408,102.19413490000079,102.19413490000079,102.19413490000079,102.19413490000079,102.19413490000079,102.19413490000079,102.19413490000079,102.19413490000079,003,P003,2025_Jan_18_1229,CategoryLocalizer,2021.2.3,59.98785845774614,
74.0,74.8,4,0.75,Stimuli\ImageFiles-Set1\Scenes\Scenes_008.png,0,0,0,125,125,125,,,,,,,,,,,,,74.01384429999962,0.01384429999961867,None,,102.39428279999993,102.39428279999993,102.39428279999993,102.39428279999993,102.39428279999993,102.39428279999993,102.39428279999993,102.39428279999993,003,P003,2025_Jan_18_1229,CategoryLocalizer,2021.2.3,59.98785845774614,
74.8,75.0,5,0.0,Stimuli\Blank.png,0,0,0,126,126,126,,,,,,,,,,,,,74.81532979999974,0.015329799999747706,None,,103.19499950000136,103.19499950000136,103.19499950000136,103.19499950000136,103.19499950000136,103.19499950000136,103.19499950000136,103.19499950000136,003,P003,2025_Jan_18_1229,CategoryLocalizer,2021.2.3,59.98785845774614,
75.0,75.8,4,0.75,Stimuli\ImageFiles-Set1\Scenes\Scenes_008.png,0,0,0,127,127,127,,,,,,,,,,,,,75.01485270000012,0.014852700000119512,1,0.6630509000005986,103.41187340000033,103.41187340000033,103.41187340000033,103.41187340000033,103.41187340000033,103.41187340000033,103.41187340000033,103.41187340000033,003,P003,2025_Jan_18_1229,CategoryLocalizer,2021.2.3,59.98785845774614,
75.8,76.0,5,0.0,Stimuli\Blank.png,0,0,0,128,128,128,,,,,,,,,,,,,75.83259389999876,0.0325938999987585,None,,104.21254460000091,104.21254460000091,104.21254460000091,104.21254460000091,104.21254460000091,104.21254460000091,104.21254460000091,104.21254460000091,003,P003,2025_Jan_18_1229,CategoryLocalizer,2021.2.3,59.98785845774614,
76.0,88.0,0,0.0,Stimuli\Blank.png,0,0,0,129,129,129,,,,,,,,,,,,,75.99963119999848,-0.0003688000015245052,5,11.976137499999822,104.37937090000014,104.37937090000014,104.37937090000014,104.37937090000014,104.37937090000014,104.37937090000014,104.37937090000014,104.37937090000014,003,P003,2025_Jan_18_1229,CategoryLocalizer,2021.2.3,59.98785845774614,
88.0,88.8,3,0.75,Stimuli\ImageFiles-Set1\Faces\Face_00027.png,0,0,0,130,130,130,,,,,,,,,,,,,88.00991559999966,0.009915599999658298,None,,116.40660970000135,116.40660970000135,116.40660970000135,116.40660970000135,116.40660970000135,116.40660970000135,116.40660970000135,116.40660970000135,003,P003,2025_Jan_18_1229,CategoryLocalizer,2021.2.3,59.98785845774614,
88.8,89.0,5,0.0,Stimuli\Blank.png,0,0,0,131,131,131,,,,,,,,,,,,,88.828945199999,0.028945199999000693,None,,117.22402169999987,117.22402169999987,117.22402169999987,117.22402169999987,117.22402169999987,117.22402169999987,117.22402169999987,117.22402169999987,003,P003,2025_Jan_18_1229,CategoryLocalizer,2021.2.3,59.98785845774614,
89.0,89.8,3,0.75,Stimuli\ImageFiles-Set1\Faces\Face_00053.png,0,0,0,132,132,132,,,,,,,,,,,,,89.02854409999964,0.028544099999635364,None,,117.42419700000028,117.42419700000028,117.42419700000028,117.42419700000028,117.42419700000028,117.42419700000028,117.42419700000028,117.42419700000028,003,P003,2025_Jan_18_1229,CategoryLocalizer,2021.2.3,59.98785845774614,
89.8,90.0,5,0.0,Stimuli\Blank.png,0,0,0,133,133,133,,,,,,,,,,,,,89.82984039999974,0.029840399999741862,5,0.13059959999918647,118.22489170000154,118.22489170000154,118.22489170000154,118.22489170000154,118.22489170000154,118.22489170000154,118.22489170000154,118.22489170000154,003,P003,2025_Jan_18_1229,CategoryLocalizer,2021.2.3,59.98785845774614,
90.0,90.8,3,0.75,Stimuli\ImageFiles-Set1\Faces\Face_00051.png,0,0,0,134,134,134,,,,,,,,,,,,,90.02759229999901,0.027592299999014358,None,,118.4083769000008,118.4083769000008,118.4083769000008,118.4083769000008,118.4083769000008,118.4083769000008,118.4083769000008,118.4083769000008,003,P003,2025_Jan_18_1229,CategoryLocalizer,2021.2.3,59.98785845774614,
90.8,91.0,5,0.0,Stimuli\Blank.png,0,0,0,135,135,135,,,,,,,,,,,,,90.81156279999959,0.011562799999595086,None,,119.19239950000156,119.19239950000156,119.19239950000156,119.19239950000156,119.19239950000156,119.19239950000156,119.19239950000156,119.19239950000156,003,P003,2025_Jan_18_1229,CategoryLocalizer,2021.2.3,59.98785845774614,
91.0,91.8,3,0.75,Stimuli\ImageFiles-Set1\Faces\Face_00022.png,0,0,0,136,136,136,,,,,,,,,,,,,91.01378399999885,0.01378399999885005,None,,119.40926500000023,119.40926500000023,119.40926500000023,119.40926500000023,119.40926500000023,119.40926500000023,119.40926500000023,119.40926500000023,003,P003,2025_Jan_18_1229,CategoryLocalizer,2021.2.3,59.98785845774614,
91.8,92.0,5,0.0,Stimuli\Blank.png,0,0,0,137,137,137,,,,,,,,,,,,,91.8303219999998,0.030321999999799232,5,0.14557119999881252,120.20996980000018,120.20996980000018,120.20996980000018,120.20996980000018,120.20996980000018,120.20996980000018,120.20996980000018,120.20996980000018,003,P003,2025_Jan_18_1229,CategoryLocalizer,2021.2.3,59.98785845774614,
92.0,92.8,3,0.75,Stimuli\ImageFiles-Set1\Faces\Face_00103.png,0,0,0,138,138,138,,,,,,,,,,,,,92.01342069999919,0.013420699999187491,None,,120.39345310000135,120.39345310000135,120.39345310000135,120.39345310000135,120.39345310000135,120.39345310000135,120.39345310000135,120.39345310000135,003,P003,2025_Jan_18_1229,CategoryLocalizer,2021.2.3,59.98785845774614,
92.8,93.0,5,0.0,Stimuli\Blank.png,0,0,0,139,139,139,,,,,,,,,,,,,92.81470209999861,0.014702099998615381,None,,121.19416300000012,121.19416300000012,121.19416300000012,121.19416300000012,121.19416300000012,121.19416300000012,121.19416300000012,121.19416300000012,003,P003,2025_Jan_18_1229,CategoryLocalizer,2021.2.3,59.98785845774614,
93.0,93.8,3,0.75,Stimuli\ImageFiles-Set1\Faces\Face_00093.png,0,0,0,140,140,140,,,,,,,,,,,,,93.01406429999952,0.01406429999951797,None,,121.41101620000154,121.41101620000154,121.41101620000154,121.41101620000154,121.41101620000154,121.41101620000154,121.41101620000154,121.41101620000154,003,P003,2025_Jan_18_1229,CategoryLocalizer,2021.2.3,59.98785845774614,
93.8,94.0,5,0.0,Stimuli\Blank.png,0,0,0,141,141,141,,,,,,,,,,,,,93.83148139999867,0.03148139999866828,5,0.14403979999951844,122.21172260000094,122.21172260000094,122.21172260000094,122.21172260000094,122.21172260000094,122.21172260000094,122.21172260000094,122.21172260000094,003,P003,2025_Jan_18_1229,CategoryLocalizer,2021.2.3,59.98785845774614,
94.0,94.8,3,0.75,Stimuli\ImageFiles-Set1\Faces\Face_00037.png,0,0,0,142,142,142,,,,,,,,,,,,,94.01495009999962,0.01495009999962349,None,,122.41189690000101,122.41189690000101,122.41189690000101,122.41189690000101,122.41189690000101,122.41189690000101,122.41189690000101,122.41189690000101,003,P003,2025_Jan_18_1229,CategoryLocalizer,2021.2.3,59.98785845774614,
94.8,95.0,5,0.0,Stimuli\Blank.png,0,0,0,143,143,143,,,,,,,,,,,,,94.83351969999967,0.033519699999672525,None,,123.22929110000041,123.22929110000041,123.22929110000041,123.22929110000041,123.22929110000041,123.22929110000041,123.22929110000041,123.22929110000041,003,P003,2025_Jan_18_1229,CategoryLocalizer,2021.2.3,59.98785845774614,
95.0,95.8,3,0.75,Stimuli\ImageFiles-Set1\Faces\Face_00115.png,0,0,0,144,144,144,,,,,,,,,,,,,95.0159550999997,0.015955099999700906,None,,123.39609420000124,123.39609420000124,123.39609420000124,123.39609420000124,123.39609420000124,123.39609420000124,123.39609420000124,123.39609420000124,003,P003,2025_Jan_18_1229,CategoryLocalizer,2021.2.3,59.98785845774614,
95.8,96.0,5,0.0,Stimuli\Blank.png,0,0,0,145,145,145,,,,,,,,,,,,,95.7999749999999,-2.500000009320047e-05,None,,124.18012120000094,124.18012120000094,124.18012120000094,124.18012120000094,124.18012120000094,124.18012120000094,124.18012120000094,124.18012120000094,003,P003,2025_Jan_18_1229,CategoryLocalizer,2021.2.3,59.98785845774614,
96.0,96.8,3,0.75,Stimuli\ImageFiles-Set1\Faces\Face_00105.png,0,0,0,146,146,146,,,,,,,,,,,,,96.00034779999987,0.00034779999987222254,None,,124.39698300000055,124.39698300000055,124.39698300000055,124.39698300000055,124.39698300000055,124.39698300000055,124.39698300000055,124.39698300000055,003,P003,2025_Jan_18_1229,CategoryLocalizer,2021.2.3,59.98785845774614,
96.8,97.0,5,0.0,Stimuli\Blank.png,0,0,0,147,147,147,,,,,,,,,,,,,96.81889509999928,0.01889509999928407,None,,125.21436859999994,125.21436859999994,125.21436859999994,125.21436859999994,125.21436859999994,125.21436859999994,125.21436859999994,125.21436859999994,003,P003,2025_Jan_18_1229,CategoryLocalizer,2021.2.3,59.98785845774614,
97.0,97.8,3,0.75,Stimuli\ImageFiles-Set1\Faces\Face_00105.png,1,1,0,148,148,148,,,,,,,,,,,,,97.01932119999947,0.019321199999467353,1,0.43895209999936924,125.41455240000141,125.41455240000141,125.41455240000141,125.41455240000141,125.41455240000141,125.41455240000141,125.41455240000141,125.41455240000141,003,P003,2025_Jan_18_1229,CategoryLocalizer,2021.2.3,59.98785845774614,
97.8,98.0,5,0.0,Stimuli\Blank.png,0,0,0,149,149,149,,,,,,,,,,,,,97.81846099999893,0.018460999998936245,None,,126.19856290000098,126.19856290000098,126.19856290000098,126.19856290000098,126.19856290000098,126.19856290000098,126.19856290000098,126.19856290000098,003,P003,2025_Jan_18_1229,CategoryLocalizer,2021.2.3,59.98785845774614,
98.0,98.8,3,0.75,Stimuli\ImageFiles-Set1\Faces\Face_00059.png,0,0,0,150,150,150,,,,,,,,,,,,,98.0011042999995,0.001104299999497016,None,,126.38205910000033,126.38205910000033,126.38205910000033,126.38205910000033,126.38205910000033,126.38205910000033,126.38205910000033,126.38205910000033,003,P003,2025_Jan_18_1229,CategoryLocalizer,2021.2.3,59.98785845774614,
98.8,99.0,5,0.0,Stimuli\Blank.png,0,0,0,151,151,151,,,,,,,,,,,,,98.80482179999854,0.004821799998538268,None,,127.19948110000041,127.19948110000041,127.19948110000041,127.19948110000041,127.19948110000041,127.19948110000041,127.19948110000041,127.19948110000041,003,P003,2025_Jan_18_1229,CategoryLocalizer,2021.2.3,59.98785845774614,
99.0,99.8,3,0.75,Stimuli\ImageFiles-Set1\Faces\Face_00099.png,0,0,0,152,152,152,,,,,,,,,,,,,99.0194819999997,0.01948199999969802,None,,127.41632730000129,127.41632730000129,127.41632730000129,127.41632730000129,127.41632730000129,127.41632730000129,127.41632730000129,127.41632730000129,003,P003,2025_Jan_18_1229,CategoryLocalizer,2021.2.3,59.98785845774614,
99.8,100.0,5,0.0,Stimuli\Blank.png,0,0,0,153,153,153,,,,,,,,,,,,,99.81968809999853,0.019688099998532493,None,,128.2003521000006,128.2003521000006,128.2003521000006,128.2003521000006,128.2003521000006,128.2003521000006,128.2003521000006,128.2003521000006,003,P003,2025_Jan_18_1229,CategoryLocalizer,2021.2.3,59.98785845774614,
100.0,100.8,3,0.75,Stimuli\ImageFiles-Set1\Faces\Face_00025.png,0,0,0,154,154,154,,,,,,,,,,,,,100.00341899999876,0.0034189999987574993,None,,128.40052240000114,128.40052240000114,128.40052240000114,128.40052240000114,128.40052240000114,128.40052240000114,128.40052240000114,128.40052240000114,003,P003,2025_Jan_18_1229,CategoryLocalizer,2021.2.3,59.98785845774614,
100.8,101.0,5,0.0,Stimuli\Blank.png,0,0,0,155,155,155,,,,,,,,,,,,,100.82100480000008,0.02100480000008531,None,,129.20121120000113,129.20121120000113,129.20121120000113,129.20121120000113,129.20121120000113,129.20121120000113,129.20121120000113,129.20121120000113,003,P003,2025_Jan_18_1229,CategoryLocalizer,2021.2.3,59.98785845774614,
101.0,101.8,3,0.75,Stimuli\ImageFiles-Set1\Faces\Face_00119.png,0,0,0,156,156,156,,,,,,,,,,,,,101.00438140000006,0.004381400000056601,None,,129.38470320000124,129.38470320000124,129.38470320000124,129.38470320000124,129.38470320000124,129.38470320000124,129.38470320000124,129.38470320000124,003,P003,2025_Jan_18_1229,CategoryLocalizer,2021.2.3,59.98785845774614,
101.8,102.0,5,0.0,Stimuli\Blank.png,0,0,0,157,157,157,,,,,,,,,,,,,101.80501849999928,0.005018499999280834,None,,130.18542830000115,130.18542830000115,130.18542830000115,130.18542830000115,130.18542830000115,130.18542830000115,130.18542830000115,130.18542830000115,003,P003,2025_Jan_18_1229,CategoryLocalizer,2021.2.3,59.98785845774614,
102.0,102.8,3,0.75,Stimuli\ImageFiles-Set1\Faces\Face_00065.png,0,0,0,158,158,158,,,,,,,,,,,,,102.00525930000003,0.005259300000034273,None,,130.40228970000135,130.40228970000135,130.40228970000135,130.40228970000135,130.40228970000135,130.40228970000135,130.40228970000135,130.40228970000135,003,P003,2025_Jan_18_1229,CategoryLocalizer,2021.2.3,59.98785845774614,
102.8,103.0,5,0.0,Stimuli\Blank.png,0,0,0,159,159,159,,,,,,,,,,,,,102.82489469999928,0.024894699999279624,None,,131.2196702000001,131.2196702000001,131.2196702000001,131.2196702000001,131.2196702000001,131.2196702000001,131.2196702000001,131.2196702000001,003,P003,2025_Jan_18_1229,CategoryLocalizer,2021.2.3,59.98785845774614,
103.0,103.8,3,0.75,Stimuli\ImageFiles-Set1\Faces\Face_00033.png,0,0,0,160,160,160,,,,,,,,,,,,,103.02250639999875,0.02250639999874693,None,,131.4031458999998,131.4031458999998,131.4031458999998,131.4031458999998,131.4031458999998,131.4031458999998,131.4031458999998,131.4031458999998,003,P003,2025_Jan_18_1229,CategoryLocalizer,2021.2.3,59.98785845774614,
103.8,104.0,5,0.0,Stimuli\Blank.png,0,0,0,161,161,161,,,,,,,,,,,,,103.80872229999841,0.008722299998410676,5,0.15166680000038468,132.20384700000068,132.20384700000068,132.20384700000068,132.20384700000068,132.20384700000068,132.20384700000068,132.20384700000068,132.20384700000068,003,P003,2025_Jan_18_1229,CategoryLocalizer,2021.2.3,59.98785845774614,
104.0,104.8,1,0.75,Stimuli\ImageFiles-Set1\Objects\Object_Pencil_00001.png,0,0,0,162,162,162,,,,,,,,,,,,,104.02343479999945,0.02343479999944975,None,,132.40402690000155,132.40402690000155,132.40402690000155,132.40402690000155,132.40402690000155,132.40402690000155,132.40402690000155,132.40402690000155,003,P003,2025_Jan_18_1229,CategoryLocalizer,2021.2.3,59.98785845774614,
104.8,105.0,5,0.0,Stimuli\Blank.png,0,0,0,163,163,163,,,,,,,,,,,,,104.80906849999883,0.009068499998832635,None,,133.20476130000134,133.20476130000134,133.20476130000134,133.20476130000134,133.20476130000134,133.20476130000134,133.20476130000134,133.20476130000134,003,P003,2025_Jan_18_1229,CategoryLocalizer,2021.2.3,59.98785845774614,
105.0,105.8,1,0.75,Stimuli\ImageFiles-Set1\Objects\Object_ComputerMouse_00001.png,0,0,0,164,164,164,,,,,,,,,,,,,105.0254133999988,0.025413399998797104,None,,133.4049102000008,133.4049102000008,133.4049102000008,133.4049102000008,133.4049102000008,133.4049102000008,133.4049102000008,133.4049102000008,003,P003,2025_Jan_18_1229,CategoryLocalizer,2021.2.3,59.98785845774614,
105.8,106.0,5,0.0,Stimuli\Blank.png,0,0,0,165,165,165,,,,,,,,,,,,,105.80898809999962,0.008988099999626797,5,0.1665911000000051,134.18893759999992,134.18893759999992,134.18893759999992,134.18893759999992,134.18893759999992,134.18893759999992,134.18893759999992,134.18893759999992,003,P003,2025_Jan_18_1229,CategoryLocalizer,2021.2.3,59.98785845774614,
106.0,106.8,1,0.75,Stimuli\ImageFiles-Set1\Objects\Object_IroningBoard_00001.png,0,0,0,166,166,166,,,,,,,,,,,,,106.00847499999873,0.008474999998725252,None,,134.38911929999995,134.38911929999995,134.38911929999995,134.38911929999995,134.38911929999995,134.38911929999995,134.38911929999995,134.38911929999995,003,P003,2025_Jan_18_1229,CategoryLocalizer,2021.2.3,59.98785845774614,
106.8,107.0,5,0.0,Stimuli\Blank.png,0,0,0,167,167,167,,,,,,,,,,,,,106.8097428000001,0.009742800000097418,None,,135.18981060000078,135.18981060000078,135.18981060000078,135.18981060000078,135.18981060000078,135.18981060000078,135.18981060000078,135.18981060000078,003,P003,2025_Jan_18_1229,CategoryLocalizer,2021.2.3,59.98785845774614,
107.0,107.8,1,0.75,Stimuli\ImageFiles-Set1\Objects\Object_Stroller_00001.png,0,0,0,168,168,168,,,,,,,,,,,,,107.00998269999945,0.00998269999945478,None,,135.40667360000043,135.40667360000043,135.40667360000043,135.40667360000043,135.40667360000043,135.40667360000043,135.40667360000043,135.40667360000043,003,P003,2025_Jan_18_1229,CategoryLocalizer,2021.2.3,59.98785845774614,
107.8,108.0,5,0.0,Stimuli\Blank.png,0,0,0,169,169,169,,,,,,,,,,,,,107.82860059999985,0.028600599999847987,5,0.1314170000005106,136.2240784000005,136.2240784000005,136.2240784000005,136.2240784000005,136.2240784000005,136.2240784000005,136.2240784000005,136.2240784000005,003,P003,2025_Jan_18_1229,CategoryLocalizer,2021.2.3,59.98785845774614,
108.0,108.8,1,0.75,Stimuli\ImageFiles-Set1\Objects\Object_Canoe_00001.png,0,0,0,170,170,170,,,,,,,,,,,,,108.02918769999997,0.029187699999965844,None,,136.42423830000007,136.42423830000007,136.42423830000007,136.42423830000007,136.42423830000007,136.42423830000007,136.42423830000007,136.42423830000007,003,P003,2025_Jan_18_1229,CategoryLocalizer,2021.2.3,59.98785845774614,
108.8,109.0,5,0.0,Stimuli\Blank.png,0,0,0,171,171,171,,,,,,,,,,,,,108.82857979999972,0.028579799999718603,None,,137.20826769999985,137.20826769999985,137.20826769999985,137.20826769999985,137.20826769999985,137.20826769999985,137.20826769999985,137.20826769999985,003,P003,2025_Jan_18_1229,CategoryLocalizer,2021.2.3,59.98785845774614,
109.0,109.8,1,0.75,Stimuli\ImageFiles-Set1\Objects\Object_Oven_00001.png,0,0,0,172,172,172,,,,,,,,,,,,,109.01213159999861,0.012131599998610909,None,,137.40845830000035,137.40845830000035,137.40845830000035,137.40845830000035,137.40845830000035,137.40845830000035,137.40845830000035,137.40845830000035,003,P003,2025_Jan_18_1229,CategoryLocalizer,2021.2.3,59.98785845774614,
109.8,110.0,5,0.0,Stimuli\Blank.png,0,0,0,173,173,173,,,,,,,,,,,,,109.8292924999987,0.029292499998703647,5,0.14639480000005278,138.20914750000156,138.20914750000156,138.20914750000156,138.20914750000156,138.20914750000156,138.20914750000156,138.20914750000156,138.20914750000156,003,P003,2025_Jan_18_1229,CategoryLocalizer,2021.2.3,59.98785845774614,
110.0,110.8,1,0.75,Stimuli\ImageFiles-Set1\Objects\Object_Hammer_00001.png,0,0,0,174,174,174,,,,,,,,,,,,,110.01265729999977,0.012657299999773386,None,,138.3926104000002,138.3926104000002,138.3926104000002,138.3926104000002,138.3926104000002,138.3926104000002,138.3926104000002,138.3926104000002,003,P003,2025_Jan_18_1229,CategoryLocalizer,2021.2.3,59.98785845774614,
110.8,111.0,5,0.0,Stimuli\Blank.png,0,0,0,175,175,175,,,,,,,,,,,,,110.81333019999875,0.013330199998748071,None,,139.19334400000116,139.19334400000116,139.19334400000116,139.19334400000116,139.19334400000116,139.19334400000116,139.19334400000116,139.19334400000116,003,P003,2025_Jan_18_1229,CategoryLocalizer,2021.2.3,59.98785845774614,
111.0,111.8,1,0.75,Stimuli\ImageFiles-Set1\Objects\Object_FileFolder_00001.png,0,0,0,176,176,176,,,,,,,,,,,,,111.01328589999866,0.013285899998663808,None,,139.41019530000085,139.41019530000085,139.41019530000085,139.41019530000085,139.41019530000085,139.41019530000085,139.41019530000085,139.41019530000085,003,P003,2025_Jan_18_1229,CategoryLocalizer,2021.2.3,59.98785845774614,
111.8,112.0,5,0.0,Stimuli\Blank.png,0,0,0,177,177,177,,,,,,,,,,,,,111.83042310000019,0.030423100000191994,5,0.1449166000002151,140.21087480000097,140.21087480000097,140.21087480000097,140.21087480000097,140.21087480000097,140.21087480000097,140.21087480000097,140.21087480000097,003,P003,2025_Jan_18_1229,CategoryLocalizer,2021.2.3,59.98785845774614,
112.0,112.8,1,0.75,Stimuli\ImageFiles-Set1\Objects\Object_Pot_00001.png,0,0,0,178,178,178,,,,,,,,,,,,,112.01452079999945,0.014520799999445444,None,,140.39439850000053,140.39439850000053,140.39439850000053,140.39439850000053,140.39439850000053,140.39439850000053,140.39439850000053,140.39439850000053,003,P003,2025_Jan_18_1229,CategoryLocalizer,2021.2.3,59.98785845774614,
112.8,113.0,5,0.0,Stimuli\Blank.png,0,0,0,179,179,179,,,,,,,,,,,,,112.81505399999878,0.015053999998784207,None,,141.1950934000015,141.1950934000015,141.1950934000015,141.1950934000015,141.1950934000015,141.1950934000015,141.1950934000015,141.1950934000015,003,P003,2025_Jan_18_1229,CategoryLocalizer,2021.2.3,59.98785845774614,
113.0,113.8,1,0.75,Stimuli\ImageFiles-Set1\Objects\Object_Bed_00001.png,0,0,0,180,180,180,,,,,,,,,,,,,113.01488959999915,0.01488959999915096,None,,141.41197920000013,141.41197920000013,141.41197920000013,141.41197920000013,141.41197920000013,141.41197920000013,141.41197920000013,141.41197920000013,003,P003,2025_Jan_18_1229,CategoryLocalizer,2021.2.3,59.98785845774614,
113.8,114.0,5,0.0,Stimuli\Blank.png,0,0,0,181,181,181,,,,,,,,,,,,,113.83308880000004,0.033088800000044216,None,,142.2126747000002,142.2126747000002,142.2126747000002,142.2126747000002,142.2126747000002,142.2126747000002,142.2126747000002,142.2126747000002,003,P003,2025_Jan_18_1229,CategoryLocalizer,2021.2.3,59.98785845774614,
114.0,114.8,1,0.75,Stimuli\ImageFiles-Set1\Objects\Object_Banana_00001.png,0,0,0,182,182,182,,,,,,,,,,,,,113.99959119999949,-0.0004088000005140202,None,,142.39612410000154,142.39612410000154,142.39612410000154,142.39612410000154,142.39612410000154,142.39612410000154,142.39612410000154,142.39612410000154,003,P003,2025_Jan_18_1229,CategoryLocalizer,2021.2.3,59.98785845774614,
114.8,115.0,5,0.0,Stimuli\Blank.png,0,0,0,183,183,183,,,,,,,,,,,,,114.81932939999933,0.019329399999335806,None,,143.2135605000003,143.2135605000003,143.2135605000003,143.2135605000003,143.2135605000003,143.2135605000003,143.2135605000003,143.2135605000003,003,P003,2025_Jan_18_1229,CategoryLocalizer,2021.2.3,59.98785845774614,
115.0,115.8,1,0.75,Stimuli\ImageFiles-Set1\Objects\Object_Box_00001.png,0,0,0,184,184,184,,,,,,,,,,,,,115.01633439999932,0.016334399999323068,None,,143.3970347000013,143.3970347000013,143.3970347000013,143.3970347000013,143.3970347000013,143.3970347000013,143.3970347000013,143.3970347000013,003,P003,2025_Jan_18_1229,CategoryLocalizer,2021.2.3,59.98785845774614,
115.8,116.0,5,0.0,Stimuli\Blank.png,0,0,0,185,185,185,,,,,,,,,,,,,115.80032629999914,0.0003262999991449078,None,,144.18105950000063,144.18105950000063,144.18105950000063,144.18105950000063,144.18105950000063,144.18105950000063,144.18105950000063,144.18105950000063,003,P003,2025_Jan_18_1229,CategoryLocalizer,2021.2.3,59.98785845774614,
116.0,116.8,1,0.75,Stimuli\ImageFiles-Set1\Objects\Object_Shirt_00001.png,0,0,0,186,186,186,,,,,,,,,,,,,116.00082779999866,0.000827799998660339,None,,144.38123620000079,144.38123620000079,144.38123620000079,144.38123620000079,144.38123620000079,144.38123620000079,144.38123620000079,144.38123620000079,003,P003,2025_Jan_18_1229,CategoryLocalizer,2021.2.3,59.98785845774614,
116.8,117.0,5,0.0,Stimuli\Blank.png,0,0,0,187,187,187,,,,,,,,,,,,,116.8024175999999,0.002417599999901654,None,,145.18195340000057,145.18195340000057,145.18195340000057,145.18195340000057,145.18195340000057,145.18195340000057,145.18195340000057,145.18195340000057,003,P003,2025_Jan_18_1229,CategoryLocalizer,2021.2.3,59.98785845774614,
117.0,117.8,1,0.75,Stimuli\ImageFiles-Set1\Objects\Object_Shirt_00001.png,1,1,0,188,188,188,,,,,,,,,,,,,117.0040571999998,0.004057199999806471,1,0.4476801000000705,145.39880000000085,145.39880000000085,145.39880000000085,145.39880000000085,145.39880000000085,145.39880000000085,145.39880000000085,145.39880000000085,003,P003,2025_Jan_18_1229,CategoryLocalizer,2021.2.3,59.98785845774614,
117.8,118.0,5,0.0,Stimuli\Blank.png,0,0,0,189,189,189,,,,,,,,,,,,,117.81958549999945,0.019585499999450917,None,,146.1995044000014,146.1995044000014,146.1995044000014,146.1995044000014,146.1995044000014,146.1995044000014,146.1995044000014,146.1995044000014,003,P003,2025_Jan_18_1229,CategoryLocalizer,2021.2.3,59.98785845774614,
118.0,118.8,1,0.75,Stimuli\ImageFiles-Set1\Objects\Object_Pipe_00001.png,0,0,0,190,190,190,,,,,,,,,,,,,118.00246639999932,0.0024663999993208563,None,,146.38299820000066,146.38299820000066,146.38299820000066,146.38299820000066,146.38299820000066,146.38299820000066,146.38299820000066,146.38299820000066,003,P003,2025_Jan_18_1229,CategoryLocalizer,2021.2.3,59.98785845774614,
118.8,119.0,5,0.0,Stimuli\Blank.png,0,0,0,191,191,191,,,,,,,,,,,,,118.80328759999975,0.003287599999751478,None,,147.1837013000004,147.1837013000004,147.1837013000004,147.1837013000004,147.1837013000004,147.1837013000004,147.1837013000004,147.1837013000004,003,P003,2025_Jan_18_1229,CategoryLocalizer,2021.2.3,59.98785845774614,
119.0,119.8,1,0.75,Stimuli\ImageFiles-Set1\Objects\Object_Wagon_00001.png,0,0,0,192,192,192,,,,,,,,,,,,,119.00374749999901,0.0037474999990081415,None,,147.3838807000011,147.3838807000011,147.3838807000011,147.3838807000011,147.3838807000011,147.3838807000011,147.3838807000011,147.3838807000011,003,P003,2025_Jan_18_1229,CategoryLocalizer,2021.2.3,59.98785845774614,
119.8,120.0,5,0.0,Stimuli\Blank.png,0,0,0,193,193,193,,,,,,,,,,,,,119.80480329999955,0.004803299999551314,None,,148.18458340000143,148.18458340000143,148.18458340000143,148.18458340000143,148.18458340000143,148.18458340000143,148.18458340000143,148.18458340000143,003,P003,2025_Jan_18_1229,CategoryLocalizer,2021.2.3,59.98785845774614,
120.0,120.8,4,0.75,Stimuli\ImageFiles-Set1\Scenes\Scenes_001.png,0,0,0,194,194,194,,,,,,,,,,,,,120.00439129999904,0.0043912999990425305,None,,148.38476710000032,148.38476710000032,148.38476710000032,148.38476710000032,148.38476710000032,148.38476710000032,148.38476710000032,148.38476710000032,003,P003,2025_Jan_18_1229,CategoryLocalizer,2021.2.3,59.98785845774614,
120.8,121.0,5,0.0,Stimuli\Blank.png,0,0,0,195,195,195,,,,,,,,,,,,,120.80531410000003,0.005314100000035182,None,,149.18546250000145,149.18546250000145,149.18546250000145,149.18546250000145,149.18546250000145,149.18546250000145,149.18546250000145,149.18546250000145,003,P003,2025_Jan_18_1229,CategoryLocalizer,2021.2.3,59.98785845774614,
121.0,121.8,4,0.75,Stimuli\ImageFiles-Set1\Scenes\Scenes_055.png,0,0,0,196,196,196,,,,,,,,,,,,,121.00485369999842,0.00485369999842078,None,,149.40235120000034,149.40235120000034,149.40235120000034,149.40235120000034,149.40235120000034,149.40235120000034,149.40235120000034,149.40235120000034,003,P003,2025_Jan_18_1229,CategoryLocalizer,2021.2.3,59.98785845774614,
121.8,122.0,5,0.0,Stimuli\Blank.png,0,0,0,197,197,197,,,,,,,,,,,,,121.8243668999985,0.024366899998497615,5,0.13569730000017444,150.21973140000046,150.21973140000046,150.21973140000046,150.21973140000046,150.21973140000046,150.21973140000046,150.21973140000046,150.21973140000046,003,P003,2025_Jan_18_1229,CategoryLocalizer,2021.2.3,59.98785845774614,
122.0,122.8,4,0.75,Stimuli\ImageFiles-Set1\Scenes\Scenes_032.png,0,0,0,198,198,198,,,,,,,,,,,,,122.02429019999909,0.024290199999086326,None,,150.4198929000013,150.4198929000013,150.4198929000013,150.4198929000013,150.4198929000013,150.4198929000013,150.4198929000013,150.4198929000013,003,P003,2025_Jan_18_1229,CategoryLocalizer,2021.2.3,59.98785845774614,
122.8,123.0,5,0.0,Stimuli\Blank.png,0,0,0,199,199,199,,,,,,,,,,,,,122.82363599999917,0.023635999999171986,None,,151.20391290000043,151.20391290000043,151.20391290000043,151.20391290000043,151.20391290000043,151.20391290000043,151.20391290000043,151.20391290000043,003,P003,2025_Jan_18_1229,CategoryLocalizer,2021.2.3,59.98785845774614,
123.0,123.8,4,0.75,Stimuli\ImageFiles-Set1\Scenes\Scenes_012.png,0,0,0,200,200,200,,,,,,,,,,,,,123.00837619999947,0.00837619999947492,None,,151.40409140000156,151.40409140000156,151.40409140000156,151.40409140000156,151.40409140000156,151.40409140000156,151.40409140000156,151.40409140000156,003,P003,2025_Jan_18_1229,CategoryLocalizer,2021.2.3,59.98785845774614,
123.8,124.0,5,0.0,Stimuli\Blank.png,0,0,0,201,201,201,,,,,,,,,,,,,123.82513870000002,0.025138700000027825,5,0.15054140000029292,152.20484840000063,152.20484840000063,152.20484840000063,152.20484840000063,152.20484840000063,152.20484840000063,152.20484840000063,152.20484840000063,003,P003,2025_Jan_18_1229,CategoryLocalizer,2021.2.3,59.98785845774614,
124.0,124.8,4,0.75,Stimuli\ImageFiles-Set1\Scenes\Scenes_025.png,0,0,0,202,202,202,,,,,,,,,,,,,124.00815679999869,0.008156799998687347,None,,152.38828280000052,152.38828280000052,152.38828280000052,152.38828280000052,152.38828280000052,152.38828280000052,152.38828280000052,152.38828280000052,003,P003,2025_Jan_18_1229,CategoryLocalizer,2021.2.3,59.98785845774614,
124.8,125.0,5,0.0,Stimuli\Blank.png,0,0,0,203,203,203,,,,,,,,,,,,,124.80915529999947,0.009155299999477506,None,,153.1889983000001,153.1889983000001,153.1889983000001,153.1889983000001,153.1889983000001,153.1889983000001,153.1889983000001,153.1889983000001,003,P003,2025_Jan_18_1229,CategoryLocalizer,2021.2.3,59.98785845774614,
125.0,125.8,4,0.75,Stimuli\ImageFiles-Set1\Scenes\Scenes_046.png,0,0,0,204,204,204,,,,,,,,,,,,,125.00951789999999,0.009517899999991641,None,,153.40584450000097,153.40584450000097,153.40584450000097,153.40584450000097,153.40584450000097,153.40584450000097,153.40584450000097,153.40584450000097,003,P003,2025_Jan_18_1229,CategoryLocalizer,2021.2.3,59.98785845774614,
125.8,126.0,5,0.0,Stimuli\Blank.png,0,0,0,205,205,205,,,,,,,,,,,,,125.8258294999996,0.02582949999960249,5,0.14883289999852423,154.20655179999994,154.20655179999994,154.20655179999994,154.20655179999994,154.20655179999994,154.20655179999994,154.20655179999994,154.20655179999994,003,P003,2025_Jan_18_1229,CategoryLocalizer,2021.2.3,59.98785845774614,
126.0,126.8,4,0.75,Stimuli\ImageFiles-Set1\Scenes\Scenes_031.png,0,0,0,206,206,206,,,,,,,,,,,,,126.0094285999985,0.009428599998500431,None,,154.39003720000073,154.39003720000073,154.39003720000073,154.39003720000073,154.39003720000073,154.39003720000073,154.39003720000073,154.39003720000073,003,P003,2025_Jan_18_1229,CategoryLocalizer,2021.2.3,59.98785845774614,
126.8,127.0,5,0.0,Stimuli\Blank.png,0,0,0,207,207,207,,,,,,,,,,,,,126.81032149999919,0.010321499999193406,None,,155.1907525000006,155.1907525000006,155.1907525000006,155.1907525000006,155.1907525000006,155.1907525000006,155.1907525000006,155.1907525000006,003,P003,2025_Jan_18_1229,CategoryLocalizer,2021.2.3,59.98785845774614,
127.0,127.8,4,0.75,Stimuli\ImageFiles-Set1\Scenes\Scenes_054.png,0,0,0,208,208,208,,,,,,,,,,,,,127.01092329999847,0.010923299998466973,None,,155.39093560000038,155.39093560000038,155.39093560000038,155.39093560000038,155.39093560000038,155.39093560000038,155.39093560000038,155.39093560000038,003,P003,2025_Jan_18_1229,CategoryLocalizer,2021.2.3,59.98785845774614,
127.8,128.0,5,0.0,Stimuli\Blank.png,0,0,0,209,209,209,,,,,,,,,,,,,127.81103929999881,0.01103929999881359,5,0.1637960000007297,156.1916326999999,156.1916326999999,156.1916326999999,156.1916326999999,156.1916326999999,156.1916326999999,156.1916326999999,156.1916326999999,003,P003,2025_Jan_18_1229,CategoryLocalizer,2021.2.3,59.98785845774614,
128.0,128.8,4,0.75,Stimuli\ImageFiles-Set1\Scenes\Scenes_017.png,0,0,0,210,210,210,,,,,,,,,,,,,128.011577199999,0.01157719999901019,None,,156.4084907000015,156.4084907000015,156.4084907000015,156.4084907000015,156.4084907000015,156.4084907000015,156.4084907000015,156.4084907000015,003,P003,2025_Jan_18_1229,CategoryLocalizer,2021.2.3,59.98785845774614,
128.8,129.0,5,0.0,Stimuli\Blank.png,0,0,0,211,211,211,,,,,,,,,,,,,128.82831029999943,0.028310299999418476,None,,157.20918780000102,157.20918780000102,157.20918780000102,157.20918780000102,157.20918780000102,157.20918780000102,157.20918780000102,157.20918780000102,003,P003,2025_Jan_18_1229,CategoryLocalizer,2021.2.3,59.98785845774614,
129.0,129.8,4,0.75,Stimuli\ImageFiles-Set1\Scenes\Scenes_035.png,0,0,0,212,212,212,,,,,,,,,,,,,129.01459409999916,0.014594099999158061,None,,157.4093748000014,157.4093748000014,157.4093748000014,157.4093748000014,157.4093748000014,157.4093748000014,157.4093748000014,157.4093748000014,003,P003,2025_Jan_18_1229,CategoryLocalizer,2021.2.3,59.98785845774614,
129.8,130.0,5,0.0,Stimuli\Blank.png,0,0,0,213,213,213,,,,,,,,,,,,,129.8296706000001,0.029670600000088143,5,0.14540040000065346,158.21007550000104,158.21007550000104,158.21007550000104,158.21007550000104,158.21007550000104,158.21007550000104,158.21007550000104,158.21007550000104,003,P003,2025_Jan_18_1229,CategoryLocalizer,2021.2.3,59.98785845774614,
130.0,130.8,4,0.75,Stimuli\ImageFiles-Set1\Scenes\Scenes_007.png,0,0,0,214,214,214,,,,,,,,,,,,,130.01323779999984,0.013237799999842537,None,,158.3935687000012,158.3935687000012,158.3935687000012,158.3935687000012,158.3935687000012,158.3935687000012,158.3935687000012,158.3935687000012,003,P003,2025_Jan_18_1229,CategoryLocalizer,2021.2.3,59.98785845774614,
130.8,131.0,5,0.0,Stimuli\Blank.png,0,0,0,215,215,215,,,,,,,,,,,,,130.81400509999912,0.01400509999911037,None,,159.1942766000011,159.1942766000011,159.1942766000011,159.1942766000011,159.1942766000011,159.1942766000011,159.1942766000011,159.1942766000011,003,P003,2025_Jan_18_1229,CategoryLocalizer,2021.2.3,59.98785845774614,
131.0,131.8,4,0.75,Stimuli\ImageFiles-Set1\Scenes\Scenes_052.png,0,0,0,216,216,216,,,,,,,,,,,,,131.01468829999976,0.014688299999761512,None,,159.41112539999995,159.41112539999995,159.41112539999995,159.41112539999995,159.41112539999995,159.41112539999995,159.41112539999995,159.41112539999995,003,P003,2025_Jan_18_1229,CategoryLocalizer,2021.2.3,59.98785845774614,
131.8,132.0,5,0.0,Stimuli\Blank.png,0,0,0,217,217,217,,,,,,,,,,,,,131.83164690000012,0.031646900000112055,5,0.14385239999865007,160.21184770000036,160.21184770000036,160.21184770000036,160.21184770000036,160.21184770000036,160.21184770000036,160.21184770000036,160.21184770000036,003,P003,2025_Jan_18_1229,CategoryLocalizer,2021.2.3,59.98785845774614,
132.0,132.8,4,0.75,Stimuli\ImageFiles-Set1\Scenes\Scenes_052.png,1,1,0,218,218,218,,,,,,,,,,,,,132.0146597999992,0.01465979999920819,1,0.5414706000010483,160.41203649999989,160.41203649999989,160.41203649999989,160.41203649999989,160.41203649999989,160.41203649999989,160.41203649999989,160.41203649999989,003,P003,2025_Jan_18_1229,CategoryLocalizer,2021.2.3,59.98785845774614,
132.8,133.0,5,0.0,Stimuli\Blank.png,0,0,0,219,219,219,,,,,,,,,,,,,132.83361139999943,0.033611399999415426,None,,161.21273100000144,161.21273100000144,161.21273100000144,161.21273100000144,161.21273100000144,161.21273100000144,161.21273100000144,161.21273100000144,003,P003,2025_Jan_18_1229,CategoryLocalizer,2021.2.3,59.98785845774614,
133.0,133.8,4,0.75,Stimuli\ImageFiles-Set1\Scenes\Scenes_048.png,0,0,0,220,220,220,,,,,,,,,,,,,132.9990328999993,-0.0009671000007074326,None,,161.39622410000084,161.39622410000084,161.39622410000084,161.39622410000084,161.39622410000084,161.39622410000084,161.39622410000084,161.39622410000084,003,P003,2025_Jan_18_1229,CategoryLocalizer,2021.2.3,59.98785845774614,
133.8,134.0,5,0.0,Stimuli\Blank.png,0,0,0,221,221,221,,,,,,,,,,,,,133.81834439999875,0.018344399998738936,5,0.14177639999979874,162.21360129999994,162.21360129999994,162.21360129999994,162.21360129999994,162.21360129999994,162.21360129999994,162.21360129999994,162.21360129999994,003,P003,2025_Jan_18_1229,CategoryLocalizer,2021.2.3,59.98785845774614,
134.0,134.8,4,0.75,Stimuli\ImageFiles-Set1\Scenes\Scenes_009.png,0,0,0,222,222,222,,,,,,,,,,,,,134.01708609999878,0.01708609999877808,None,,162.3971061000011,162.3971061000011,162.3971061000011,162.3971061000011,162.3971061000011,162.3971061000011,162.3971061000011,162.3971061000011,003,P003,2025_Jan_18_1229,CategoryLocalizer,2021.2.3,59.98785845774614,
134.8,135.0,5,0.0,Stimuli\Blank.png,0,0,0,223,223,223,,,,,,,,,,,,,134.80074849999983,0.0007484999998155217,None,,163.18111370000042,163.18111370000042,163.18111370000042,163.18111370000042,163.18111370000042,163.18111370000042,163.18111370000042,163.18111370000042,003,P003,2025_Jan_18_1229,CategoryLocalizer,2021.2.3,59.98785845774614,
135.0,135.8,4,0.75,Stimuli\ImageFiles-Set1\Scenes\Scenes_057.png,0,0,0,224,224,224,,,,,,,,,,,,,135.0012085999988,0.001208599998790305,None,,163.38129410000147,163.38129410000147,163.38129410000147,163.38129410000147,163.38129410000147,163.38129410000147,163.38129410000147,163.38129410000147,003,P003,2025_Jan_18_1229,CategoryLocalizer,2021.2.3,59.98785845774614,
135.8,136.0,5,0.0,Stimuli\Blank.png,0,0,0,225,225,225,,,,,,,,,,,,,135.80452759999935,0.004527599999335052,5,0.1570541000000958,164.19869590000053,164.19869590000053,164.19869590000053,164.19869590000053,164.19869590000053,164.19869590000053,164.19869590000053,164.19869590000053,003,P003,2025_Jan_18_1229,CategoryLocalizer,2021.2.3,59.98785845774614,
136.0,136.8,2,0.75,Stimuli\ImageFiles-Set1\Bodies\Bodies_Punching_00006.png,0,0,0,226,226,226,,,,,,,,,,,,,136.01838229999885,0.018382299998847884,None,,164.39887199999976,164.39887199999976,164.39887199999976,164.39887199999976,164.39887199999976,164.39887199999976,164.39887199999976,164.39887199999976,003,P003,2025_Jan_18_1229,CategoryLocalizer,2021.2.3,59.98785845774614,
136.8,137.0,5,0.0,Stimuli\Blank.png,0,0,0,227,227,227,,,,,,,,,,,,,136.80387979999978,0.0038797999997655097,None,,165.1995304000011,165.1995304000011,165.1995304000011,165.1995304000011,165.1995304000011,165.1995304000011,165.1995304000011,165.1995304000011,003,P003,2025_Jan_18_1229,CategoryLocalizer,2021.2.3,59.98785845774614,
137.0,137.8,2,0.75,Stimuli\ImageFiles-Set1\Bodies\Bodies_Kneeling_00003.png,0,0,0,228,228,228,,,,,,,,,,,,,137.02000169999883,0.02000169999882928,None,,165.39973960000134,165.39973960000134,165.39973960000134,165.39973960000134,165.39973960000134,165.39973960000134,165.39973960000134,165.39973960000134,003,P003,2025_Jan_18_1229,CategoryLocalizer,2021.2.3,59.98785845774614,
137.8,138.0,5,0.0,Stimuli\Blank.png,0,0,0,229,229,229,,,,,,,,,,,,,137.80356399999982,0.003563999999812495,None,,166.18376880000142,166.18376880000142,166.18376880000142,166.18376880000142,166.18376880000142,166.18376880000142,166.18376880000142,166.18376880000142,003,P003,2025_Jan_18_1229,CategoryLocalizer,2021.2.3,59.98785845774614,
138.0,138.8,2,0.75,Stimuli\ImageFiles-Set1\Bodies\Bodies_Standing_00005.png,0,0,0,230,230,230,,,,,,,,,,,,,138.00385060000008,0.003850600000077975,None,,166.3839312,166.3839312,166.3839312,166.3839312,166.3839312,166.3839312,166.3839312,166.3839312,003,P003,2025_Jan_18_1229,CategoryLocalizer,2021.2.3,59.98785845774614,
138.8,139.0,5,0.0,Stimuli\Blank.png,0,0,0,231,231,231,,,,,,,,,,,,,138.80427109999982,0.004271099999812122,None,,167.18464440000025,167.18464440000025,167.18464440000025,167.18464440000025,167.18464440000025,167.18464440000025,167.18464440000025,167.18464440000025,003,P003,2025_Jan_18_1229,CategoryLocalizer,2021.2.3,59.98785845774614,
139.0,139.8,2,0.75,Stimuli\ImageFiles-Set1\Bodies\Bodies_Falling_00004.png,0,0,0,232,232,232,,,,,,,,,,,,,139.00403969999934,0.004039699999339064,None,,167.38481860000138,167.38481860000138,167.38481860000138,167.38481860000138,167.38481860000138,167.38481860000138,167.38481860000138,167.38481860000138,003,P003,2025_Jan_18_1229,CategoryLocalizer,2021.2.3,59.98785845774614,
139.8,140.0,5,0.0,Stimuli\Blank.png,0,0,0,233,233,233,,,,,,,,,,,,,139.8046945999995,0.004694599999481852,None,,168.18551670000124,168.18551670000124,168.18551670000124,168.18551670000124,168.18551670000124,168.18551670000124,168.18551670000124,168.18551670000124,003,P003,2025_Jan_18_1229,CategoryLocalizer,2021.2.3,59.98785845774614,
140.0,140.8,2,0.75,Stimuli\ImageFiles-Set1\Bodies\Bodies_Standing_00003.png,0,0,0,234,234,234,,,,,,,,,,,,,140.0051298999988,0.005129899998792098,None,,168.38570059999984,168.38570059999984,168.38570059999984,168.38570059999984,168.38570059999984,168.38570059999984,168.38570059999984,168.38570059999984,003,P003,2025_Jan_18_1229,CategoryLocalizer,2021.2.3,59.98785845774614,
140.8,141.0,5,0.0,Stimuli\Blank.png,0,0,0,235,235,235,,,,,,,,,,,,,140.8060620999986,0.0060620999985872,None,,169.1863994000014,169.1863994000014,169.1863994000014,169.1863994000014,169.1863994000014,169.1863994000014,169.1863994000014,169.1863994000014,003,P003,2025_Jan_18_1229,CategoryLocalizer,2021.2.3,59.98785845774614,
141.0,141.8,2,0.75,Stimuli\ImageFiles-Set1\Bodies\Bodies_Standing_00003.png,1,1,0,236,236,236,,,,,,,,,,,,,141.00640049999856,0.0064004999985627364,1,0.5459136999998009,169.38657000000057,169.38657000000057,169.38657000000057,169.38657000000057,169.38657000000057,169.38657000000057,169.38657000000057,169.38657000000057,003,P003,2025_Jan_18_1229,CategoryLocalizer,2021.2.3,59.98785845774614,
141.8,142.0,5,0.0,Stimuli\Blank.png,0,0,0,237,237,237,,,,,,,,,,,,,141.80900479999946,0.009004799999445368,5,0.15132749999975204,170.2039832999999,170.2039832999999,170.2039832999999,170.2039832999999,170.2039832999999,170.2039832999999,170.2039832999999,170.2039832999999,003,P003,2025_Jan_18_1229,CategoryLocalizer,2021.2.3,59.98785845774614,
142.0,142.8,2,0.75,Stimuli\ImageFiles-Set1\Bodies\Bodies_Jumping_00006.png,0,0,0,238,238,238,,,,,,,,,,,,,142.02356659999896,0.023566599998957827,None,,170.4041410000009,170.4041410000009,170.4041410000009,170.4041410000009,170.4041410000009,170.4041410000009,170.4041410000009,170.4041410000009,003,P003,2025_Jan_18_1229,CategoryLocalizer,2021.2.3,59.98785845774614,
142.8,143.0,5,0.0,Stimuli\Blank.png,0,0,0,239,239,239,,,,,,,,,,,,,142.80820419999873,0.008204199998715467,None,,171.18816680000054,171.18816680000054,171.18816680000054,171.18816680000054,171.18816680000054,171.18816680000054,171.18816680000054,171.18816680000054,003,P003,2025_Jan_18_1229,CategoryLocalizer,2021.2.3,59.98785845774614,
143.0,143.8,2,0.75,Stimuli\ImageFiles-Set1\Bodies\Bodies_Pushing_00005.png,0,0,0,240,240,240,,,,,,,,,,,,,143.00829259999955,0.008292599999549566,None,,171.38833599999998,171.38833599999998,171.38833599999998,171.38833599999998,171.38833599999998,171.38833599999998,171.38833599999998,171.38833599999998,003,P003,2025_Jan_18_1229,CategoryLocalizer,2021.2.3,59.98785845774614,
143.8,144.0,5,0.0,Stimuli\Blank.png,0,0,0,241,241,241,,,,,,,,,,,,,143.80865879999874,0.008658799998727318,5,0.16641669999989972,172.18904570000086,172.18904570000086,172.18904570000086,172.18904570000086,172.18904570000086,172.18904570000086,172.18904570000086,172.18904570000086,003,P003,2025_Jan_18_1229,CategoryLocalizer,2021.2.3,59.98785845774614,
144.0,144.8,2,0.75,Stimuli\ImageFiles-Set1\Bodies\Bodies_DownwardDog_00006.png,0,0,0,242,242,242,,,,,,,,,,,,,144.00857339999857,0.008573399998567766,None,,172.38921980000123,172.38921980000123,172.38921980000123,172.38921980000123,172.38921980000123,172.38921980000123,172.38921980000123,172.38921980000123,003,P003,2025_Jan_18_1229,CategoryLocalizer,2021.2.3,59.98785845774614,
144.8,145.0,5,0.0,Stimuli\Blank.png,0,0,0,243,243,243,,,,,,,,,,,,,144.8095856,0.009585599999979877,None,,173.18992680000156,173.18992680000156,173.18992680000156,173.18992680000156,173.18992680000156,173.18992680000156,173.18992680000156,173.18992680000156,003,P003,2025_Jan_18_1229,CategoryLocalizer,2021.2.3,59.98785845774614,
145.0,145.8,2,0.75,Stimuli\ImageFiles-Set1\Bodies\Bodies_Lunging_00003.png,0,0,0,244,244,244,,,,,,,,,,,,,145.0100427999987,0.010042799998700502,None,,173.39009690000057,173.39009690000057,173.39009690000057,173.39009690000057,173.39009690000057,173.39009690000057,173.39009690000057,173.39009690000057,003,P003,2025_Jan_18_1229,CategoryLocalizer,2021.2.3,59.98785845774614,
145.8,146.0,5,0.0,Stimuli\Blank.png,0,0,0,245,245,245,,,,,,,,,,,,,145.81084009999904,0.010840099999029462,5,0.16453159999946365,174.1908125000009,174.1908125000009,174.1908125000009,174.1908125000009,174.1908125000009,174.1908125000009,174.1908125000009,174.1908125000009,003,P003,2025_Jan_18_1229,CategoryLocalizer,2021.2.3,59.98785845774614,
146.0,146.8,2,0.75,Stimuli\ImageFiles-Set1\Bodies\Bodies_QuadStretch_00001.png,0,0,0,246,246,246,,,,,,,,,,,,,146.0101340000001,0.010134000000107335,None,,174.39098210000157,174.39098210000157,174.39098210000157,174.39098210000157,174.39098210000157,174.39098210000157,174.39098210000157,174.39098210000157,003,P003,2025_Jan_18_1229,CategoryLocalizer,2021.2.3,59.98785845774614,
146.8,147.0,5,0.0,Stimuli\Blank.png,0,0,0,247,247,247,,,,,,,,,,,,,146.8110233999996,0.011023399999601224,None,,175.19171900000038,175.19171900000038,175.19171900000038,175.19171900000038,175.19171900000038,175.19171900000038,175.19171900000038,175.19171900000038,003,P003,2025_Jan_18_1229,CategoryLocalizer,2021.2.3,59.98785845774614,
147.0,147.8,2,0.75,Stimuli\ImageFiles-Set1\Bodies\Bodies_SittingFloor_00005.png,0,0,0,248,248,248,,,,,,,,,,,,,147.0132520999996,0.013252099999590428,None,,175.40854930000023,175.40854930000023,175.40854930000023,175.40854930000023,175.40854930000023,175.40854930000023,175.40854930000023,175.40854930000023,003,P003,2025_Jan_18_1229,CategoryLocalizer,2021.2.3,59.98785845774614,
147.8,148.0,5,0.0,Stimuli\Blank.png,0,0,0,249,249,249,,,,,,,,,,,,,147.8282894999993,0.02828949999928909,5,0.14610969999921508,176.2092474000001,176.2092474000001,176.2092474000001,176.2092474000001,176.2092474000001,176.2092474000001,176.2092474000001,176.2092474000001,003,P003,2025_Jan_18_1229,CategoryLocalizer,2021.2.3,59.98785845774614,
148.0,148.8,2,0.75,Stimuli\ImageFiles-Set1\Bodies\Bodies_Falling_00002.png,0,0,0,250,250,250,,,,,,,,,,,,,148.0127565999992,0.012756599999192986,None,,176.39275799999996,176.39275799999996,176.39275799999996,176.39275799999996,176.39275799999996,176.39275799999996,176.39275799999996,176.39275799999996,003,P003,2025_Jan_18_1229,CategoryLocalizer,2021.2.3,59.98785845774614,
148.8,149.0,5,0.0,Stimuli\Blank.png,0,0,0,251,251,251,,,,,,,,,,,,,148.81315480000012,0.013154800000108935,None,,177.19345500000054,177.19345500000054,177.19345500000054,177.19345500000054,177.19345500000054,177.19345500000054,177.19345500000054,177.19345500000054,003,P003,2025_Jan_18_1229,CategoryLocalizer,2021.2.3,59.98785845774614,
149.0,149.8,2,0.75,Stimuli\ImageFiles-Set1\Bodies\Bodies_SittingChair_00005.png,1,1,0,252,252,252,,,,,,,,,,,,,149.01322609999988,0.013226099999883445,None,,177.39363120000053,177.39363120000053,177.39363120000053,177.39363120000053,177.39363120000053,177.39363120000053,177.39363120000053,177.39363120000053,003,P003,2025_Jan_18_1229,CategoryLocalizer,2021.2.3,59.98785845774614,
149.8,150.0,5,0.0,Stimuli\Blank.png,0,0,0,253,253,253,,,,,,,,,,,,,149.81337819999862,0.013378199998612672,5,0.1611760999985563,178.19432810000035,178.19432810000035,178.19432810000035,178.19432810000035,178.19432810000035,178.19432810000035,178.19432810000035,178.19432810000035,003,P003,2025_Jan_18_1229,CategoryLocalizer,2021.2.3,59.98785845774614,
150.0,150.8,2,0.75,Stimuli\ImageFiles-Set1\Bodies\Bodies_Kneeling_00005.png,0,0,0,254,254,254,,,,,,,,,,,,,150.01382419999936,0.013824199999362463,None,,178.39451410000038,178.39451410000038,178.39451410000038,178.39451410000038,178.39451410000038,178.39451410000038,178.39451410000038,178.39451410000038,003,P003,2025_Jan_18_1229,CategoryLocalizer,2021.2.3,59.98785845774614,
150.8,151.0,5,0.0,Stimuli\Blank.png,0,0,0,255,255,255,,,,,,,,,,,,,150.8142629999984,0.014262999998379655,None,,179.19522550000147,179.19522550000147,179.19522550000147,179.19522550000147,179.19522550000147,179.19522550000147,179.19522550000147,179.19522550000147,003,P003,2025_Jan_18_1229,CategoryLocalizer,2021.2.3,59.98785845774614,
151.0,151.8,2,0.75,Stimuli\ImageFiles-Set1\Bodies\Bodies_Kneeling_00005.png,0,0,0,256,256,256,,,,,,,,,,,,,151.0150412999992,0.015041299999211333,1,0.5622415999987425,179.4120851000007,179.4120851000007,179.4120851000007,179.4120851000007,179.4120851000007,179.4120851000007,179.4120851000007,179.4120851000007,003,P003,2025_Jan_18_1229,CategoryLocalizer,2021.2.3,59.98785845774614,
151.8,152.0,5,0.0,Stimuli\Blank.png,0,0,0,257,257,257,,,,,,,,,,,,,151.81593619999876,0.01593619999874818,None,,180.19610180000018,180.19610180000018,180.19610180000018,180.19610180000018,180.19610180000018,180.19610180000018,180.19610180000018,180.19610180000018,003,P003,2025_Jan_18_1229,CategoryLocalizer,2021.2.3,59.98785845774614,
152.0,164.0,0,0.0,Stimuli\Blank.png,0,0,0,258,258,258,,,,,,,,,,,,,151.99940719999904,-0.0005928000009589596,5,11.975708299998587,180.37958570000046,180.37958570000046,180.37958570000046,180.37958570000046,180.37958570000046,180.37958570000046,180.37958570000046,180.37958570000046,003,P003,2025_Jan_18_1229,CategoryLocalizer,2021.2.3,59.98785845774614,
164.0,164.8,4,0.75,Stimuli\ImageFiles-Set1\Scenes\Scenes_045.png,0,0,0,259,259,259,,,,,,,,,,,,,164.01101559999915,0.011015599999154801,None,,192.4068315000004,192.4068315000004,192.4068315000004,192.4068315000004,192.4068315000004,192.4068315000004,192.4068315000004,192.4068315000004,003,P003,2025_Jan_18_1229,CategoryLocalizer,2021.2.3,59.98785845774614,
164.8,165.0,5,0.0,Stimuli\Blank.png,0,0,0,260,260,260,,,,,,,,,,,,,164.82886199999848,0.028861999998468946,None,,193.22424800000044,193.22424800000044,193.22424800000044,193.22424800000044,193.22424800000044,193.22424800000044,193.22424800000044,193.22424800000044,003,P003,2025_Jan_18_1229,CategoryLocalizer,2021.2.3,59.98785845774614,
165.0,165.8,4,0.75,Stimuli\ImageFiles-Set1\Scenes\Scenes_043.png,0,0,0,261,261,261,,,,,,,,,,,,,165.0272832999999,0.027283299999908195,None,,193.4077197000006,193.4077197000006,193.4077197000006,193.4077197000006,193.4077197000006,193.4077197000006,193.4077197000006,193.4077197000006,003,P003,2025_Jan_18_1229,CategoryLocalizer,2021.2.3,59.98785845774614,
165.8,166.0,5,0.0,Stimuli\Blank.png,0,0,0,262,262,262,,,,,,,,,,,,,165.81096669999897,0.010966699998959939,5,0.16352270000061253,194.19174480000038,194.19174480000038,194.19174480000038,194.19174480000038,194.19174480000038,194.19174480000038,194.19174480000038,194.19174480000038,003,P003,2025_Jan_18_1229,CategoryLocalizer,2021.2.3,59.98785845774614,
166.0,166.8,4,0.75,Stimuli\ImageFiles-Set1\Scenes\Scenes_059.png,0,0,0,263,263,263,,,,,,,,,,,,,166.0133549000002,0.013354900000194903,None,,194.40860720000092,194.40860720000092,194.40860720000092,194.40860720000092,194.40860720000092,194.40860720000092,194.40860720000092,194.40860720000092,003,P003,2025_Jan_18_1229,CategoryLocalizer,2021.2.3,59.98785845774614,
166.8,167.0,5,0.0,Stimuli\Blank.png,0,0,0,264,264,264,,,,,,,,,,,,,166.82921749999878,0.029217499998765106,None,,195.20930670000052,195.20930670000052,195.20930670000052,195.20930670000052,195.20930670000052,195.20930670000052,195.20930670000052,195.20930670000052,003,P003,2025_Jan_18_1229,CategoryLocalizer,2021.2.3,59.98785845774614,
167.0,167.8,4,0.75,Stimuli\ImageFiles-Set1\Scenes\Scenes_027.png,0,0,0,265,265,265,,,,,,,,,,,,,167.01444039999842,0.014440399998420617,None,,195.40948650000064,195.40948650000064,195.40948650000064,195.40948650000064,195.40948650000064,195.40948650000064,195.40948650000064,195.40948650000064,003,P003,2025_Jan_18_1229,CategoryLocalizer,2021.2.3,59.98785845774614,
167.8,168.0,5,0.0,Stimuli\Blank.png,0,0,0,266,266,266,,,,,,,,,,,,,167.8300513999984,0.03005139999839912,5,0.14525079999839363,196.2101634999999,196.2101634999999,196.2101634999999,196.2101634999999,196.2101634999999,196.2101634999999,196.2101634999999,196.2101634999999,003,P003,2025_Jan_18_1229,CategoryLocalizer,2021.2.3,59.98785845774614,
168.0,168.8,4,0.75,Stimuli\ImageFiles-Set1\Scenes\Scenes_011.png,0,0,0,267,267,267,,,,,,,,,,,,,168.01425070000005,0.0142507000000478,None,,196.41035460000057,196.41035460000057,196.41035460000057,196.41035460000057,196.41035460000057,196.41035460000057,196.41035460000057,196.41035460000057,003,P003,2025_Jan_18_1229,CategoryLocalizer,2021.2.3,59.98785845774614,
168.8,169.0,5,0.0,Stimuli\Blank.png,0,0,0,268,268,268,,,,,,,,,,,,,168.83055280000008,0.030552800000066327,None,,197.21109340000112,197.21109340000112,197.21109340000112,197.21109340000112,197.21109340000112,197.21109340000112,197.21109340000112,197.21109340000112,003,P003,2025_Jan_18_1229,CategoryLocalizer,2021.2.3,59.98785845774614,
169.0,169.8,4,0.75,Stimuli\ImageFiles-Set1\Scenes\Scenes_005.png,0,0,0,269,269,269,,,,,,,,,,,,,169.014448599999,0.014448599999013823,None,,197.41138060000048,197.41138060000048,197.41138060000048,197.41138060000048,197.41138060000048,197.41138060000048,197.41138060000048,197.41138060000048,003,P003,2025_Jan_18_1229,CategoryLocalizer,2021.2.3,59.98785845774614,
169.8,170.0,5,0.0,Stimuli\Blank.png,0,0,0,270,270,270,,,,,,,,,,,,,169.833539199999,0.033539199998983804,5,0.12666820000049483,198.2286337000005,198.2286337000005,198.2286337000005,198.2286337000005,198.2286337000005,198.2286337000005,198.2286337000005,198.2286337000005,003,P003,2025_Jan_18_1229,CategoryLocalizer,2021.2.3,59.98785845774614,
170.0,170.8,4,0.75,Stimuli\ImageFiles-Set1\Scenes\Scenes_056.png,0,0,0,271,271,271,,,,,,,,,,,,,170.01534039999933,0.015340399999331567,None,,198.3954442000013,198.3954442000013,198.3954442000013,198.3954442000013,198.3954442000013,198.3954442000013,198.3954442000013,198.3954442000013,003,P003,2025_Jan_18_1229,CategoryLocalizer,2021.2.3,59.98785845774614,
170.8,171.0,5,0.0,Stimuli\Blank.png,0,0,0,272,272,272,,,,,,,,,,,,,170.7991390999996,-0.0008609000004184963,None,,199.17947240000103,199.17947240000103,199.17947240000103,199.17947240000103,199.17947240000103,199.17947240000103,199.17947240000103,199.17947240000103,003,P003,2025_Jan_18_1229,CategoryLocalizer,2021.2.3,59.98785845774614,
171.0,171.8,4,0.75,Stimuli\ImageFiles-Set1\Scenes\Scenes_003.png,0,0,0,273,273,273,,,,,,,,,,,,,171.00002679999852,2.6799998522619717e-05,None,,199.3963175000008,199.3963175000008,199.3963175000008,199.3963175000008,199.3963175000008,199.3963175000008,199.3963175000008,199.3963175000008,003,P003,2025_Jan_18_1229,CategoryLocalizer,2021.2.3,59.98785845774614,
171.8,172.0,5,0.0,Stimuli\Blank.png,0,0,0,274,274,274,,,,,,,,,,,,,171.81807870000011,0.018078700000103254,5,0.14165820000016538,200.21371220000037,200.21371220000037,200.21371220000037,200.21371220000037,200.21371220000037,200.21371220000037,200.21371220000037,200.21371220000037,003,P003,2025_Jan_18_1229,CategoryLocalizer,2021.2.3,59.98785845774614,
172.0,172.8,4,0.75,Stimuli\ImageFiles-Set1\Scenes\Scenes_040.png,0,0,0,275,275,275,,,,,,,,,,,,,172.0187363999994,0.01873639999939769,None,,200.41388670000015,200.41388670000015,200.41388670000015,200.41388670000015,200.41388670000015,200.41388670000015,200.41388670000015,200.41388670000015,003,P003,2025_Jan_18_1229,CategoryLocalizer,2021.2.3,59.98785845774614,
172.8,173.0,5,0.0,Stimuli\Blank.png,0,0,0,276,276,276,,,,,,,,,,,,,172.81844239999918,0.01844239999917363,None,,201.1979091000012,201.1979091000012,201.1979091000012,201.1979091000012,201.1979091000012,201.1979091000012,201.1979091000012,201.1979091000012,003,P003,2025_Jan_18_1229,CategoryLocalizer,2021.2.3,59.98785845774614,
173.0,173.8,4,0.75,Stimuli\ImageFiles-Set1\Scenes\Scenes_022.png,0,0,0,277,277,277,,,,,,,,,,,,,173.0031928999997,0.0031928999997035135,None,,201.3981091000005,201.3981091000005,201.3981091000005,201.3981091000005,201.3981091000005,201.3981091000005,201.3981091000005,201.3981091000005,003,P003,2025_Jan_18_1229,CategoryLocalizer,2021.2.3,59.98785845774614,
173.8,174.0,5,0.0,Stimuli\Blank.png,0,0,0,278,278,278,,,,,,,,,,,,,173.81828009999845,0.018280099998435162,None,,202.19879600000058,202.19879600000058,202.19879600000058,202.19879600000058,202.19879600000058,202.19879600000058,202.19879600000058,202.19879600000058,003,P003,2025_Jan_18_1229,CategoryLocalizer,2021.2.3,59.98785845774614,
174.0,174.8,4,0.75,Stimuli\ImageFiles-Set1\Scenes\Scenes_022.png,1,1,0,279,279,279,,,,,,,,,,,,,174.0035981000001,0.0035981000000901986,1,0.41536530000121274,202.39897160000146,202.39897160000146,202.39897160000146,202.39897160000146,202.39897160000146,202.39897160000146,202.39897160000146,202.39897160000146,003,P003,2025_Jan_18_1229,CategoryLocalizer,2021.2.3,59.98785845774614,
174.8,175.0,5,0.0,Stimuli\Blank.png,0,0,0,280,280,280,,,,,,,,,,,,,174.81995039999856,0.01995039999854953,None,,203.19966940000086,203.19966940000086,203.19966940000086,203.19966940000086,203.19966940000086,203.19966940000086,203.19966940000086,203.19966940000086,003,P003,2025_Jan_18_1229,CategoryLocalizer,2021.2.3,59.98785845774614,
175.0,175.8,4,0.75,Stimuli\ImageFiles-Set1\Scenes\Scenes_028.png,0,0,0,281,281,281,,,,,,,,,,,,,175.00320829999873,0.0032082999987324,None,,203.3831854,203.3831854,203.3831854,203.3831854,203.3831854,203.3831854,203.3831854,203.3831854,003,P003,2025_Jan_18_1229,CategoryLocalizer,2021.2.3,59.98785845774614,
175.8,176.0,5,0.0,Stimuli\Blank.png,0,0,0,282,282,282,,,,,,,,,,,,,175.8042435999996,0.004243599999597336,None,,204.18392099999983,204.18392099999983,204.18392099999983,204.18392099999983,204.18392099999983,204.18392099999983,204.18392099999983,204.18392099999983,003,P003,2025_Jan_18_1229,CategoryLocalizer,2021.2.3,59.98785845774614,
176.0,176.8,4,0.75,Stimuli\ImageFiles-Set1\Scenes\Scenes_034.png,0,0,0,283,283,283,,,,,,,,,,,,,176.00317480000012,0.003174800000124378,None,,204.38407710000138,204.38407710000138,204.38407710000138,204.38407710000138,204.38407710000138,204.38407710000138,204.38407710000138,204.38407710000138,003,P003,2025_Jan_18_1229,CategoryLocalizer,2021.2.3,59.98785845774614,
