eventStartTime,eventEndTime,eventCond,imSize,imFile,repeatedImage,responseEvent,Events.thisRepN,Events.thisTrialN,Events.thisN,Events.thisIndex,Instructions.started,Instructions.stopped,participantReadyResponse.keys,participantReadyResponse.rt,participantReadyResponse.started,participantReadyResponse.stopped,startWaitforTrigger,triggerResponse.keys,triggerResponse.rt,triggerResponse.started,triggerResponse.stopped,globalTimer,actualStartTime,startTimingDiff,participantResponse.keys,participantResponse.rt,participantResponse.started,participantResponse.stopped,image.started,image.stopped,fixationOutside.started,fixationOutside.stopped,fixationInside.started,fixationInside.stopped,session,participant,date,expName,psychopyVersion,frameRate,
,,,,,,,,,,,20.876750299999912,None,1,9.425429600001735,20.876750299999912,None,,,,,,,,,,,,,,,,,,,001,P003,2025_Jan_18_1131,CategoryLocalizer,2021.2.3,59.94632406140874,
,,,,,,,,,,,,,,,,,30.306294299998626,5,15.756776499998523,30.319277599999623,None,,,,,,,,,,,,,,001,P003,2025_Jan_18_1131,CategoryLocalizer,2021.2.3,59.94632406140874,
0.0,12.0,0,0.0,Stimuli\Blank.png,0,0,0,0,0,0,,,,,,,,,,,,46.0864318999993,0.06640490000063437,0.06640490000063437,5,11.909560100000817,46.16656349999903,None,46.16656349999903,None,46.16656349999903,None,46.16656349999903,None,001,P003,2025_Jan_18_1131,CategoryLocalizer,2021.2.3,59.94632406140874,
12.0,12.8,1,0.75,Stimuli\ImageFiles-Set1\Objects\Object_ComputerMouse_00001.png,0,0,0,1,1,1,,,,,,,,,,,,,12.011250499999733,0.01125049999973271,None,,58.11045629999899,58.11045629999899,58.11045629999899,58.11045629999899,58.11045629999899,58.11045629999899,58.11045629999899,58.11045629999899,001,P003,2025_Jan_18_1131,CategoryLocalizer,2021.2.3,59.94632406140874,
12.8,13.0,5,0.0,Stimuli\Blank.png,0,0,0,2,2,2,,,,,,,,,,,,,12.812651500000356,0.012651500000355753,None,,58.9278448999994,58.9278448999994,58.9278448999994,58.9278448999994,58.9278448999994,58.9278448999994,58.9278448999994,58.9278448999994,001,P003,2025_Jan_18_1131,CategoryLocalizer,2021.2.3,59.94632406140874,
13.0,13.8,1,0.75,Stimuli\ImageFiles-Set1\Objects\Object_Football_00001.png,0,0,0,3,3,3,,,,,,,,,,,,,13.027829399999973,0.027829399999973248,None,,59.144670899999255,59.144670899999255,59.144670899999255,59.144670899999255,59.144670899999255,59.144670899999255,59.144670899999255,59.144670899999255,001,P003,2025_Jan_18_1131,CategoryLocalizer,2021.2.3,59.94632406140874,
13.8,14.0,5,0.0,Stimuli\Blank.png,0,0,0,4,4,4,,,,,,,,,,,,,13.828420800000458,0.028420800000457547,5,0.14728459999969346,59.928689999998824,59.928689999998824,59.928689999998824,59.928689999998824,59.928689999998824,59.928689999998824,59.928689999998824,59.928689999998824,001,P003,2025_Jan_18_1131,CategoryLocalizer,2021.2.3,59.94632406140874,
14.0,14.8,1,0.75,Stimuli\ImageFiles-Set1\Objects\Object_GarbageCan_00001.png,0,0,0,5,5,5,,,,,,,,,,,,,14.013420600000245,0.013420600000245031,None,,60.12886239999898,60.12886239999898,60.12886239999898,60.12886239999898,60.12886239999898,60.12886239999898,60.12886239999898,60.12886239999898,001,P003,2025_Jan_18_1131,CategoryLocalizer,2021.2.3,59.94632406140874,
14.8,15.0,5,0.0,Stimuli\Blank.png,0,0,0,6,6,6,,,,,,,,,,,,,14.828326800001378,0.028326800001376995,None,,60.92956139999842,60.92956139999842,60.92956139999842,60.92956139999842,60.92956139999842,60.92956139999842,60.92956139999842,60.92956139999842,001,P003,2025_Jan_18_1131,CategoryLocalizer,2021.2.3,59.94632406140874,
15.0,15.8,1,0.75,Stimuli\ImageFiles-Set1\Objects\Object_Card_00001.png,0,0,0,7,7,7,,,,,,,,,,,,,15.012538200000563,0.012538200000562938,None,,61.113052900000184,61.113052900000184,61.113052900000184,61.113052900000184,61.113052900000184,61.113052900000184,61.113052900000184,61.113052900000184,001,P003,2025_Jan_18_1131,CategoryLocalizer,2021.2.3,59.94632406140874,
15.8,16.0,5,0.0,Stimuli\Blank.png,0,0,0,8,8,8,,,,,,,,,,,,,15.813398000000234,0.013398000000233168,5,0.162379499999588,61.91375749999861,61.91375749999861,61.91375749999861,61.91375749999861,61.91375749999861,61.91375749999861,61.91375749999861,61.91375749999861,001,P003,2025_Jan_18_1131,CategoryLocalizer,2021.2.3,59.94632406140874,
16.0,16.8,1,0.75,Stimuli\ImageFiles-Set1\Objects\Object_Screw_00001.png,0,0,0,9,9,9,,,,,,,,,,,,,16.013425799999823,0.01342579999982263,None,,62.113945299999614,62.113945299999614,62.113945299999614,62.113945299999614,62.113945299999614,62.113945299999614,62.113945299999614,62.113945299999614,001,P003,2025_Jan_18_1131,CategoryLocalizer,2021.2.3,59.94632406140874,
16.8,17.0,5,0.0,Stimuli\Blank.png,0,0,0,10,10,10,,,,,,,,,,,,,16.813864800000374,0.013864800000373378,None,,62.91464019999876,62.91464019999876,62.91464019999876,62.91464019999876,62.91464019999876,62.91464019999876,62.91464019999876,62.91464019999876,001,P003,2025_Jan_18_1131,CategoryLocalizer,2021.2.3,59.94632406140874,
17.0,17.8,1,0.75,Stimuli\ImageFiles-Set1\Objects\Object_Table_00001.png,0,0,0,11,11,11,,,,,,,,,,,,,17.014334400000735,0.014334400000734604,None,,63.114816899998914,63.114816899998914,63.114816899998914,63.114816899998914,63.114816899998914,63.114816899998914,63.114816899998914,63.114816899998914,001,P003,2025_Jan_18_1131,CategoryLocalizer,2021.2.3,59.94632406140874,
17.8,18.0,5,0.0,Stimuli\Blank.png,0,0,0,12,12,12,,,,,,,,,,,,,17.81517840000015,0.01517840000014914,5,0.16061919999992824,63.91551999999865,63.91551999999865,63.91551999999865,63.91551999999865,63.91551999999865,63.91551999999865,63.91551999999865,63.91551999999865,001,P003,2025_Jan_18_1131,CategoryLocalizer,2021.2.3,59.94632406140874,
18.0,18.8,1,0.75,Stimuli\ImageFiles-Set1\Objects\Object_Sock_00001.png,0,0,0,13,13,13,,,,,,,,,,,,,18.015248600000632,0.015248600000631995,None,,64.13238349999847,64.13238349999847,64.13238349999847,64.13238349999847,64.13238349999847,64.13238349999847,64.13238349999847,64.13238349999847,001,P003,2025_Jan_18_1131,CategoryLocalizer,2021.2.3,59.94632406140874,
18.8,19.0,5,0.0,Stimuli\Blank.png,0,0,0,14,14,14,,,,,,,,,,,,,18.817808400001013,0.01780840000101236,None,,64.93310209999981,64.93310209999981,64.93310209999981,64.93310209999981,64.93310209999981,64.93310209999981,64.93310209999981,64.93310209999981,001,P003,2025_Jan_18_1131,CategoryLocalizer,2021.2.3,59.94632406140874,
19.0,19.8,1,0.75,Stimuli\ImageFiles-Set1\Objects\Object_Dice_00001.png,0,0,0,15,15,15,,,,,,,,,,,,,19.015566000000035,0.015566000000035274,None,,65.11657679999917,65.11657679999917,65.11657679999917,65.11657679999917,65.11657679999917,65.11657679999917,65.11657679999917,65.11657679999917,001,P003,2025_Jan_18_1131,CategoryLocalizer,2021.2.3,59.94632406140874,
19.8,20.0,5,0.0,Stimuli\Blank.png,0,0,0,16,16,16,,,,,,,,,,,,,19.799736200000552,-0.0002637999994483664,None,,65.90059909999945,65.90059909999945,65.90059909999945,65.90059909999945,65.90059909999945,65.90059909999945,65.90059909999945,65.90059909999945,001,P003,2025_Jan_18_1131,CategoryLocalizer,2021.2.3,59.94632406140874,
20.0,20.8,1,0.75,Stimuli\ImageFiles-Set1\Objects\Object_PepperShaker_00001.png,0,0,0,17,17,17,,,,,,,,,,,,,20.000219200001084,0.00021920000108366366,None,,66.1174589000002,66.1174589000002,66.1174589000002,66.1174589000002,66.1174589000002,66.1174589000002,66.1174589000002,66.1174589000002,001,P003,2025_Jan_18_1131,CategoryLocalizer,2021.2.3,59.94632406140874,
20.8,21.0,5,0.0,Stimuli\Blank.png,0,0,0,18,18,18,,,,,,,,,,,,,20.818276699999842,0.018276699999841384,None,,66.9182337000002,66.9182337000002,66.9182337000002,66.9182337000002,66.9182337000002,66.9182337000002,66.9182337000002,66.9182337000002,001,P003,2025_Jan_18_1131,CategoryLocalizer,2021.2.3,59.94632406140874,
21.0,21.8,1,0.75,Stimuli\ImageFiles-Set1\Objects\Object_Boat_00001.png,0,0,0,19,19,19,,,,,,,,,,,,,21.00259610000103,0.0025961000010283897,None,,67.11834839999938,67.11834839999938,67.11834839999938,67.11834839999938,67.11834839999938,67.11834839999938,67.11834839999938,67.11834839999938,001,P003,2025_Jan_18_1131,CategoryLocalizer,2021.2.3,59.94632406140874,
21.8,22.0,5,0.0,Stimuli\Blank.png,0,0,0,20,20,20,,,,,,,,,,,,,21.818817400000626,0.01881740000062493,None,,67.91903579999962,67.91903579999962,67.91903579999962,67.91903579999962,67.91903579999962,67.91903579999962,67.91903579999962,67.91903579999962,001,P003,2025_Jan_18_1131,CategoryLocalizer,2021.2.3,59.94632406140874,
22.0,22.8,1,0.75,Stimuli\ImageFiles-Set1\Objects\Object_Hammer_00001.png,0,0,0,21,21,21,,,,,,,,,,,,,22.00215190000017,0.002151900000171736,None,,68.1025411999999,68.1025411999999,68.1025411999999,68.1025411999999,68.1025411999999,68.1025411999999,68.1025411999999,68.1025411999999,001,P003,2025_Jan_18_1131,CategoryLocalizer,2021.2.3,59.94632406140874,
22.8,23.0,5,0.0,Stimuli\Blank.png,0,0,0,22,22,22,,,,,,,,,,,,,22.80234829999972,0.0023482999997206377,None,,68.90324129999863,68.90324129999863,68.90324129999863,68.90324129999863,68.90324129999863,68.90324129999863,68.90324129999863,68.90324129999863,001,P003,2025_Jan_18_1131,CategoryLocalizer,2021.2.3,59.94632406140874,
23.0,23.8,1,0.75,Stimuli\ImageFiles-Set1\Objects\Object_Whistle_00001.png,0,0,0,23,23,23,,,,,,,,,,,,,23.002541600000768,0.002541600000768085,None,,69.10342129999844,69.10342129999844,69.10342129999844,69.10342129999844,69.10342129999844,69.10342129999844,69.10342129999844,69.10342129999844,001,P003,2025_Jan_18_1131,CategoryLocalizer,2021.2.3,59.94632406140874,
23.8,24.0,5,0.0,Stimuli\Blank.png,0,0,0,24,24,24,,,,,,,,,,,,,23.803474500000448,0.003474500000447023,None,,69.90412829999877,69.90412829999877,69.90412829999877,69.90412829999877,69.90412829999877,69.90412829999877,69.90412829999877,69.90412829999877,001,P003,2025_Jan_18_1131,CategoryLocalizer,2021.2.3,59.94632406140874,
24.0,24.8,1,0.75,Stimuli\ImageFiles-Set1\Objects\Object_Whistle_00001.png,1,1,0,25,25,25,,,,,,,,,,,,,24.00388380000004,0.0038838000000396278,1,0.5867013999995834,70.10429859999931,70.10429859999931,70.10429859999931,70.10429859999931,70.10429859999931,70.10429859999931,70.10429859999931,70.10429859999931,001,P003,2025_Jan_18_1131,CategoryLocalizer,2021.2.3,59.94632406140874,
24.8,25.0,5,0.0,Stimuli\Blank.png,0,0,0,26,26,26,,,,,,,,,,,,,24.803952400001435,0.003952400001434597,None,,70.90501009999934,70.90501009999934,70.90501009999934,70.90501009999934,70.90501009999934,70.90501009999934,70.90501009999934,70.90501009999934,001,P003,2025_Jan_18_1131,CategoryLocalizer,2021.2.3,59.94632406140874,
25.0,25.8,1,0.75,Stimuli\ImageFiles-Set1\Objects\Object_Watch_00001.png,0,0,0,27,27,27,,,,,,,,,,,,,25.004388700001073,0.004388700001072721,None,,71.1218632,71.1218632,71.1218632,71.1218632,71.1218632,71.1218632,71.1218632,71.1218632,001,P003,2025_Jan_18_1131,CategoryLocalizer,2021.2.3,59.94632406140874,
25.8,26.0,5,0.0,Stimuli\Blank.png,0,0,0,28,28,28,,,,,,,,,,,,,25.823738200000662,0.02373820000066118,5,0.136671700000079,71.93926659999852,71.93926659999852,71.93926659999852,71.93926659999852,71.93926659999852,71.93926659999852,71.93926659999852,71.93926659999852,001,P003,2025_Jan_18_1131,CategoryLocalizer,2021.2.3,59.94632406140874,
26.0,26.8,1,0.75,Stimuli\ImageFiles-Set1\Objects\Object_Banana_00001.png,0,0,0,29,29,29,,,,,,,,,,,,,26.024255100001028,0.02425510000102804,None,,72.1393952999988,72.1393952999988,72.1393952999988,72.1393952999988,72.1393952999988,72.1393952999988,72.1393952999988,72.1393952999988,001,P003,2025_Jan_18_1131,CategoryLocalizer,2021.2.3,59.94632406140874,
26.8,27.0,5,0.0,Stimuli\Blank.png,0,0,0,30,30,30,,,,,,,,,,,,,26.822539300001154,0.022539300001152895,None,,72.92345249999926,72.92345249999926,72.92345249999926,72.92345249999926,72.92345249999926,72.92345249999926,72.92345249999926,72.92345249999926,001,P003,2025_Jan_18_1131,CategoryLocalizer,2021.2.3,59.94632406140874,
27.0,27.8,1,0.75,Stimuli\ImageFiles-Set1\Objects\Object_Ring_00001.png,0,0,0,31,31,31,,,,,,,,,,,,,27.007745900000373,0.007745900000372785,None,,73.12362089999988,73.12362089999988,73.12362089999988,73.12362089999988,73.12362089999988,73.12362089999988,73.12362089999988,73.12362089999988,001,P003,2025_Jan_18_1131,CategoryLocalizer,2021.2.3,59.94632406140874,
27.8,28.0,5,0.0,Stimuli\Blank.png,0,0,0,32,32,32,,,,,,,,,,,,,27.824436000000787,0.024436000000786606,5,0.1516776000007667,73.92434030000004,73.92434030000004,73.92434030000004,73.92434030000004,73.92434030000004,73.92434030000004,73.92434030000004,73.92434030000004,001,P003,2025_Jan_18_1131,CategoryLocalizer,2021.2.3,59.94632406140874,
28.0,28.8,2,0.75,Stimuli\ImageFiles-Set1\Bodies\Bodies_Waving_00007.png,0,0,0,33,33,33,,,,,,,,,,,,,28.006653800001004,0.006653800001004129,None,,74.10782010000003,74.10782010000003,74.10782010000003,74.10782010000003,74.10782010000003,74.10782010000003,74.10782010000003,74.10782010000003,001,P003,2025_Jan_18_1131,CategoryLocalizer,2021.2.3,59.94632406140874,
28.8,29.0,5,0.0,Stimuli\Blank.png,0,0,0,34,34,34,,,,,,,,,,,,,28.808787900001334,0.008787900001333782,None,,74.90853369999968,74.90853369999968,74.90853369999968,74.90853369999968,74.90853369999968,74.90853369999968,74.90853369999968,74.90853369999968,001,P003,2025_Jan_18_1131,CategoryLocalizer,2021.2.3,59.94632406140874,
29.0,29.8,2,0.75,Stimuli\ImageFiles-Set1\Bodies\Bodies_Waving_00007.png,1,1,0,35,35,35,,,,,,,,,,,,,29.00826810000035,0.008268100000350387,1,0.5554697999996279,75.10872930000005,75.10872930000005,75.10872930000005,75.10872930000005,75.10872930000005,75.10872930000005,75.10872930000005,75.10872930000005,001,P003,2025_Jan_18_1131,CategoryLocalizer,2021.2.3,59.94632406140874,
29.8,30.0,5,0.0,Stimuli\Blank.png,0,0,0,36,36,36,,,,,,,,,,,,,29.80867070000022,0.008670700000219966,5,0.16662489999907848,75.90940760000012,75.90940760000012,75.90940760000012,75.90940760000012,75.90940760000012,75.90940760000012,75.90940760000012,75.90940760000012,001,P003,2025_Jan_18_1131,CategoryLocalizer,2021.2.3,59.94632406140874,
30.0,30.8,2,0.75,Stimuli\ImageFiles-Set1\Bodies\Bodies_Pushing_00003.png,0,0,0,37,37,37,,,,,,,,,,,,,30.009094600000026,0.009094600000025821,None,,76.10958159999973,76.10958159999973,76.10958159999973,76.10958159999973,76.10958159999973,76.10958159999973,76.10958159999973,76.10958159999973,001,P003,2025_Jan_18_1131,CategoryLocalizer,2021.2.3,59.94632406140874,
30.8,31.0,5,0.0,Stimuli\Blank.png,0,0,0,38,38,38,,,,,,,,,,,,,30.810498000000734,0.010498000000733754,None,,76.92702180000015,76.92702180000015,76.92702180000015,76.92702180000015,76.92702180000015,76.92702180000015,76.92702180000015,76.92702180000015,001,P003,2025_Jan_18_1131,CategoryLocalizer,2021.2.3,59.94632406140874,
31.0,31.8,2,0.75,Stimuli\ImageFiles-Set1\Bodies\Bodies_SittingStretch_00002.png,0,0,0,39,39,39,,,,,,,,,,,,,31.026476099999854,0.02647609999985434,None,,77.12718099999984,77.12718099999984,77.12718099999984,77.12718099999984,77.12718099999984,77.12718099999984,77.12718099999984,77.12718099999984,001,P003,2025_Jan_18_1131,CategoryLocalizer,2021.2.3,59.94632406140874,
31.8,32.0,5,0.0,Stimuli\Blank.png,0,0,0,40,40,40,,,,,,,,,,,,,31.8103787,0.010378700000000407,5,0.16470849999859638,77.9111701999991,77.9111701999991,77.9111701999991,77.9111701999991,77.9111701999991,77.9111701999991,77.9111701999991,77.9111701999991,001,P003,2025_Jan_18_1131,CategoryLocalizer,2021.2.3,59.94632406140874,
32.0,32.8,2,0.75,Stimuli\ImageFiles-Set1\Bodies\Bodies_Falling_00004.png,0,0,0,41,41,41,,,,,,,,,,,,,32.010814299999765,0.010814299999765353,None,,78.11134329999913,78.11134329999913,78.11134329999913,78.11134329999913,78.11134329999913,78.11134329999913,78.11134329999913,78.11134329999913,001,P003,2025_Jan_18_1131,CategoryLocalizer,2021.2.3,59.94632406140874,
32.8,33.0,5,0.0,Stimuli\Blank.png,0,0,0,42,42,42,,,,,,,,,,,,,32.813535900000716,0.01353590000071847,None,,78.92870479999874,78.92870479999874,78.92870479999874,78.92870479999874,78.92870479999874,78.92870479999874,78.92870479999874,78.92870479999874,001,P003,2025_Jan_18_1131,CategoryLocalizer,2021.2.3,59.94632406140874,
33.0,33.8,2,0.75,Stimuli\ImageFiles-Set1\Bodies\Bodies_Punching_00003.png,0,0,0,43,43,43,,,,,,,,,,,,,33.028731000000334,0.02873100000033446,None,,79.14560439999877,79.14560439999877,79.14560439999877,79.14560439999877,79.14560439999877,79.14560439999877,79.14560439999877,79.14560439999877,001,P003,2025_Jan_18_1131,CategoryLocalizer,2021.2.3,59.94632406140874,
33.8,34.0,5,0.0,Stimuli\Blank.png,0,0,0,44,44,44,,,,,,,,,,,,,33.829116500000964,0.029116500000966994,5,0.14648809999926016,79.92961099999957,79.92961099999957,79.92961099999957,79.92961099999957,79.92961099999957,79.92961099999957,79.92961099999957,79.92961099999957,001,P003,2025_Jan_18_1131,CategoryLocalizer,2021.2.3,59.94632406140874,
34.0,34.8,2,0.75,Stimuli\ImageFiles-Set1\Bodies\Bodies_Waving_00005.png,0,0,0,45,45,45,,,,,,,,,,,,,34.01228059999994,0.012280599999940023,None,,80.11310299999968,80.11310299999968,80.11310299999968,80.11310299999968,80.11310299999968,80.11310299999968,80.11310299999968,80.11310299999968,001,P003,2025_Jan_18_1131,CategoryLocalizer,2021.2.3,59.94632406140874,
34.8,35.0,5,0.0,Stimuli\Blank.png,0,0,0,46,46,46,,,,,,,,,,,,,34.8136527000006,0.013652700000605478,None,,80.91382840000006,80.91382840000006,80.91382840000006,80.91382840000006,80.91382840000006,80.91382840000006,80.91382840000006,80.91382840000006,001,P003,2025_Jan_18_1131,CategoryLocalizer,2021.2.3,59.94632406140874,
35.0,35.8,2,0.75,Stimuli\ImageFiles-Set1\Bodies\Bodies_Lunging_00001.png,0,0,0,47,47,47,,,,,,,,,,,,,35.013615600000776,0.013615600000775885,None,,81.11398409999856,81.11398409999856,81.11398409999856,81.11398409999856,81.11398409999856,81.11398409999856,81.11398409999856,81.11398409999856,001,P003,2025_Jan_18_1131,CategoryLocalizer,2021.2.3,59.94632406140874,
35.8,36.0,5,0.0,Stimuli\Blank.png,0,0,0,48,48,48,,,,,,,,,,,,,35.81440550000116,0.014405500001160476,5,0.1613708000004408,81.9146970999991,81.9146970999991,81.9146970999991,81.9146970999991,81.9146970999991,81.9146970999991,81.9146970999991,81.9146970999991,001,P003,2025_Jan_18_1131,CategoryLocalizer,2021.2.3,59.94632406140874,
36.0,36.8,2,0.75,Stimuli\ImageFiles-Set1\Bodies\Bodies_PushUp_00002.png,0,0,0,49,49,49,,,,,,,,,,,,,36.01389080000081,0.013890800000808667,None,,82.1315670999993,82.1315670999993,82.1315670999993,82.1315670999993,82.1315670999993,82.1315670999993,82.1315670999993,82.1315670999993,001,P003,2025_Jan_18_1131,CategoryLocalizer,2021.2.3,59.94632406140874,
36.8,37.0,5,0.0,Stimuli\Blank.png,0,0,0,50,50,50,,,,,,,,,,,,,36.833545600000434,0.03354560000043705,None,,82.94895949999955,82.94895949999955,82.94895949999955,82.94895949999955,82.94895949999955,82.94895949999955,82.94895949999955,82.94895949999955,001,P003,2025_Jan_18_1131,CategoryLocalizer,2021.2.3,59.94632406140874,
37.0,37.8,2,0.75,Stimuli\ImageFiles-Set1\Bodies\Bodies_Kneeling_00005.png,0,0,0,51,51,51,,,,,,,,,,,,,37.015474700001505,0.01547470000150497,None,,83.1157475,83.1157475,83.1157475,83.1157475,83.1157475,83.1157475,83.1157475,83.1157475,001,P003,2025_Jan_18_1131,CategoryLocalizer,2021.2.3,59.94632406140874,
37.8,38.0,5,0.0,Stimuli\Blank.png,0,0,0,52,52,52,,,,,,,,,,,,,37.79863380000097,-0.0013661999990262075,5,0.17609040000024834,83.89977249999902,83.89977249999902,83.89977249999902,83.89977249999902,83.89977249999902,83.89977249999902,83.89977249999902,83.89977249999902,001,P003,2025_Jan_18_1131,CategoryLocalizer,2021.2.3,59.94632406140874,
38.0,38.8,2,0.75,Stimuli\ImageFiles-Set1\Bodies\Bodies_Standing_00007.png,1,1,0,53,53,53,,,,,,,,,,,,,38.016755900000135,0.016755900000134716,None,,84.11664969999947,84.11664969999947,84.11664969999947,84.11664969999947,84.11664969999947,84.11664969999947,84.11664969999947,84.11664969999947,001,P003,2025_Jan_18_1131,CategoryLocalizer,2021.2.3,59.94632406140874,
38.8,39.0,5,0.0,Stimuli\Blank.png,0,0,0,54,54,54,,,,,,,,,,,,,38.80007380000097,7.380000097612083e-05,None,,84.90084339999885,84.90084339999885,84.90084339999885,84.90084339999885,84.90084339999885,84.90084339999885,84.90084339999885,84.90084339999885,001,P003,2025_Jan_18_1131,CategoryLocalizer,2021.2.3,59.94632406140874,
39.0,39.8,2,0.75,Stimuli\ImageFiles-Set1\Bodies\Bodies_SittingChair_00003.png,0,0,0,55,55,55,,,,,,,,,,,,,39.00042780000149,0.00042780000148923136,None,,85.10089429999971,85.10089429999971,85.10089429999971,85.10089429999971,85.10089429999971,85.10089429999971,85.10089429999971,85.10089429999971,001,P003,2025_Jan_18_1131,CategoryLocalizer,2021.2.3,59.94632406140874,
39.8,40.0,5,0.0,Stimuli\Blank.png,0,0,0,56,56,56,,,,,,,,,,,,,39.80300630000056,0.0030063000005640106,5,0.15794049999931303,85.91823399999885,85.91823399999885,85.91823399999885,85.91823399999885,85.91823399999885,85.91823399999885,85.91823399999885,85.91823399999885,001,P003,2025_Jan_18_1131,CategoryLocalizer,2021.2.3,59.94632406140874,
40.0,40.8,2,0.75,Stimuli\ImageFiles-Set1\Bodies\Bodies_SittingChair_00003.png,0,0,0,57,57,57,,,,,,,,,,,,,40.017763200001355,0.017763200001354562,1,0.4445044999993115,86.11838639999951,86.11838639999951,86.11838639999951,86.11838639999951,86.11838639999951,86.11838639999951,86.11838639999951,86.11838639999951,001,P003,2025_Jan_18_1131,CategoryLocalizer,2021.2.3,59.94632406140874,
40.8,41.0,5,0.0,Stimuli\Blank.png,0,0,0,58,58,58,,,,,,,,,,,,,40.80164400000103,0.001644000001036261,None,,86.90240979999908,86.90240979999908,86.90240979999908,86.90240979999908,86.90240979999908,86.90240979999908,86.90240979999908,86.90240979999908,001,P003,2025_Jan_18_1131,CategoryLocalizer,2021.2.3,59.94632406140874,
41.0,41.8,2,0.75,Stimuli\ImageFiles-Set1\Bodies\Bodies_Jumping_00002.png,0,0,0,59,59,59,,,,,,,,,,,,,41.002612500000396,0.002612500000395812,None,,87.11928900000021,87.11928900000021,87.11928900000021,87.11928900000021,87.11928900000021,87.11928900000021,87.11928900000021,87.11928900000021,001,P003,2025_Jan_18_1131,CategoryLocalizer,2021.2.3,59.94632406140874,
41.8,42.0,5,0.0,Stimuli\Blank.png,0,0,0,60,60,60,,,,,,,,,,,,,41.8189153000003,0.018915300000301727,None,,87.92000599999847,87.92000599999847,87.92000599999847,87.92000599999847,87.92000599999847,87.92000599999847,87.92000599999847,87.92000599999847,001,P003,2025_Jan_18_1131,CategoryLocalizer,2021.2.3,59.94632406140874,
42.0,42.8,2,0.75,Stimuli\ImageFiles-Set1\Bodies\Bodies_DownwardDog_00007.png,0,0,0,61,61,61,,,,,,,,,,,,,42.00375890000032,0.003758900000320864,None,,88.10348069999964,88.10348069999964,88.10348069999964,88.10348069999964,88.10348069999964,88.10348069999964,88.10348069999964,88.10348069999964,001,P003,2025_Jan_18_1131,CategoryLocalizer,2021.2.3,59.94632406140874,
42.8,43.0,5,0.0,Stimuli\Blank.png,0,0,0,62,62,62,,,,,,,,,,,,,42.80365580000034,0.003655800000345266,None,,88.90417939999861,88.90417939999861,88.90417939999861,88.90417939999861,88.90417939999861,88.90417939999861,88.90417939999861,88.90417939999861,001,P003,2025_Jan_18_1131,CategoryLocalizer,2021.2.3,59.94632406140874,
43.0,43.8,2,0.75,Stimuli\ImageFiles-Set1\Bodies\Bodies_Hanging_00006.png,0,0,0,63,63,63,,,,,,,,,,,,,43.00374440000087,0.0037444000008690637,None,,89.10435139999936,89.10435139999936,89.10435139999936,89.10435139999936,89.10435139999936,89.10435139999936,89.10435139999936,89.10435139999936,001,P003,2025_Jan_18_1131,CategoryLocalizer,2021.2.3,59.94632406140874,
43.8,44.0,5,0.0,Stimuli\Blank.png,0,0,0,64,64,64,,,,,,,,,,,,,43.804327300000296,0.004327300000298351,None,,89.90506089999872,89.90506089999872,89.90506089999872,89.90506089999872,89.90506089999872,89.90506089999872,89.90506089999872,89.90506089999872,001,P003,2025_Jan_18_1131,CategoryLocalizer,2021.2.3,59.94632406140874,
44.0,44.8,3,0.75,Stimuli\ImageFiles-Set1\Faces\Face_00105.png,0,0,0,65,65,65,,,,,,,,,,,,,44.0047222000012,0.004722200001197052,None,,90.10523809999904,90.10523809999904,90.10523809999904,90.10523809999904,90.10523809999904,90.10523809999904,90.10523809999904,90.10523809999904,001,P003,2025_Jan_18_1131,CategoryLocalizer,2021.2.3,59.94632406140874,
44.8,45.0,5,0.0,Stimuli\Blank.png,0,0,0,66,66,66,,,,,,,,,,,,,44.80554370000027,0.005543700000274043,None,,90.90593429999899,90.90593429999899,90.90593429999899,90.90593429999899,90.90593429999899,90.90593429999899,90.90593429999899,90.90593429999899,001,P003,2025_Jan_18_1131,CategoryLocalizer,2021.2.3,59.94632406140874,
45.0,45.8,3,0.75,Stimuli\ImageFiles-Set1\Faces\Face_00073.png,0,0,0,67,67,67,,,,,,,,,,,,,45.00542029999997,0.005420299999968847,None,,91.10611759999847,91.10611759999847,91.10611759999847,91.10611759999847,91.10611759999847,91.10611759999847,91.10611759999847,91.10611759999847,001,P003,2025_Jan_18_1131,CategoryLocalizer,2021.2.3,59.94632406140874,
45.8,46.0,5,0.0,Stimuli\Blank.png,0,0,0,68,68,68,,,,,,,,,,,,,45.80775640000138,0.007756400001383668,5,0.15240489999996498,91.92350719999922,91.92350719999922,91.92350719999922,91.92350719999922,91.92350719999922,91.92350719999922,91.92350719999922,91.92350719999922,001,P003,2025_Jan_18_1131,CategoryLocalizer,2021.2.3,59.94632406140874,
46.0,46.8,3,0.75,Stimuli\ImageFiles-Set1\Faces\Face_00001.png,0,0,0,69,69,69,,,,,,,,,,,,,46.023166000000856,0.023166000000856002,None,,92.12367399999857,92.12367399999857,92.12367399999857,92.12367399999857,92.12367399999857,92.12367399999857,92.12367399999857,92.12367399999857,001,P003,2025_Jan_18_1131,CategoryLocalizer,2021.2.3,59.94632406140874,
46.8,47.0,5,0.0,Stimuli\Blank.png,0,0,0,70,70,70,,,,,,,,,,,,,46.80748520000088,0.007485200000886039,None,,92.9077144999992,92.9077144999992,92.9077144999992,92.9077144999992,92.9077144999992,92.9077144999992,92.9077144999992,92.9077144999992,001,P003,2025_Jan_18_1131,CategoryLocalizer,2021.2.3,59.94632406140874,
47.0,47.8,3,0.75,Stimuli\ImageFiles-Set1\Faces\Face_00020.png,0,0,0,71,71,71,,,,,,,,,,,,,47.00745400000051,0.0074540000005072216,None,,93.10788199999843,93.10788199999843,93.10788199999843,93.10788199999843,93.10788199999843,93.10788199999843,93.10788199999843,93.10788199999843,001,P003,2025_Jan_18_1131,CategoryLocalizer,2021.2.3,59.94632406140874,
47.8,48.0,5,0.0,Stimuli\Blank.png,0,0,0,72,72,72,,,,,,,,,,,,,47.80884960000003,0.00884960000003332,5,0.16735660000085772,93.9085825000002,93.9085825000002,93.9085825000002,93.9085825000002,93.9085825000002,93.9085825000002,93.9085825000002,93.9085825000002,001,P003,2025_Jan_18_1131,CategoryLocalizer,2021.2.3,59.94632406140874,
48.0,48.8,3,0.75,Stimuli\ImageFiles-Set1\Faces\Face_00024.png,0,0,0,73,73,73,,,,,,,,,,,,,48.0076439000004,0.007643900000402937,None,,94.10875579999993,94.10875579999993,94.10875579999993,94.10875579999993,94.10875579999993,94.10875579999993,94.10875579999993,94.10875579999993,001,P003,2025_Jan_18_1131,CategoryLocalizer,2021.2.3,59.94632406140874,
48.8,49.0,5,0.0,Stimuli\Blank.png,0,0,0,74,74,74,,,,,,,,,,,,,48.80861019999975,0.00861019999975099,None,,94.90946579999945,94.90946579999945,94.90946579999945,94.90946579999945,94.90946579999945,94.90946579999945,94.90946579999945,94.90946579999945,001,P003,2025_Jan_18_1131,CategoryLocalizer,2021.2.3,59.94632406140874,
49.0,49.8,3,0.75,Stimuli\ImageFiles-Set1\Faces\Face_00065.png,0,0,0,75,75,75,,,,,,,,,,,,,49.00850480000008,0.008504800000082469,None,,95.10963569999876,95.10963569999876,95.10963569999876,95.10963569999876,95.10963569999876,95.10963569999876,95.10963569999876,95.10963569999876,001,P003,2025_Jan_18_1131,CategoryLocalizer,2021.2.3,59.94632406140874,
49.8,50.0,5,0.0,Stimuli\Blank.png,0,0,0,76,76,76,,,,,,,,,,,,,49.80953480000062,0.009534800000622567,5,0.16564119999929972,95.91034189999846,95.91034189999846,95.91034189999846,95.91034189999846,95.91034189999846,95.91034189999846,95.91034189999846,95.91034189999846,001,P003,2025_Jan_18_1131,CategoryLocalizer,2021.2.3,59.94632406140874,
50.0,50.8,3,0.75,Stimuli\ImageFiles-Set1\Faces\Face_00049.png,0,0,0,77,77,77,,,,,,,,,,,,,50.01003810000111,0.010038100001111161,None,,96.11052089999976,96.11052089999976,96.11052089999976,96.11052089999976,96.11052089999976,96.11052089999976,96.11052089999976,96.11052089999976,001,P003,2025_Jan_18_1131,CategoryLocalizer,2021.2.3,59.94632406140874,
50.8,51.0,5,0.0,Stimuli\Blank.png,0,0,0,78,78,78,,,,,,,,,,,,,50.812590000001364,0.01259000000136723,None,,96.9279321999984,96.9279321999984,96.9279321999984,96.9279321999984,96.9279321999984,96.9279321999984,96.9279321999984,96.9279321999984,001,P003,2025_Jan_18_1131,CategoryLocalizer,2021.2.3,59.94632406140874,
51.0,51.8,3,0.75,Stimuli\ImageFiles-Set1\Faces\Face_00049.png,1,1,0,79,79,79,,,,,,,,,,,,,51.0274771000004,0.027477100000396604,1,0.37104309999995166,97.12808319999931,97.12808319999931,97.12808319999931,97.12808319999931,97.12808319999931,97.12808319999931,97.12808319999931,97.12808319999931,001,P003,2025_Jan_18_1131,CategoryLocalizer,2021.2.3,59.94632406140874,
51.8,52.0,5,0.0,Stimuli\Blank.png,0,0,0,80,80,80,,,,,,,,,,,,,51.813858999999866,0.013858999999868615,5,0.14709190000030503,97.92879729999913,97.92879729999913,97.92879729999913,97.92879729999913,97.92879729999913,97.92879729999913,97.92879729999913,97.92879729999913,001,P003,2025_Jan_18_1131,CategoryLocalizer,2021.2.3,59.94632406140874,
52.0,52.8,3,0.75,Stimuli\ImageFiles-Set1\Faces\Face_00099.png,0,0,0,81,81,81,,,,,,,,,,,,,52.02860190000138,0.028601900001376634,None,,98.14564769999924,98.14564769999924,98.14564769999924,98.14564769999924,98.14564769999924,98.14564769999924,98.14564769999924,98.14564769999924,001,P003,2025_Jan_18_1131,CategoryLocalizer,2021.2.3,59.94632406140874,
52.8,53.0,5,0.0,Stimuli\Blank.png,0,0,0,82,82,82,,,,,,,,,,,,,52.829290200001196,0.029290200001199196,None,,98.92966659999911,98.92966659999911,98.92966659999911,98.92966659999911,98.92966659999911,98.92966659999911,98.92966659999911,98.92966659999911,001,P003,2025_Jan_18_1131,CategoryLocalizer,2021.2.3,59.94632406140874,
53.0,53.8,3,0.75,Stimuli\ImageFiles-Set1\Faces\Face_00063.png,0,0,0,83,83,83,,,,,,,,,,,,,53.01318150000043,0.01318150000042806,None,,99.12983739999981,99.12983739999981,99.12983739999981,99.12983739999981,99.12983739999981,99.12983739999981,99.12983739999981,99.12983739999981,001,P003,2025_Jan_18_1131,CategoryLocalizer,2021.2.3,59.94632406140874,
53.8,54.0,5,0.0,Stimuli\Blank.png,0,0,0,84,84,84,,,,,,,,,,,,,53.83034510000107,0.030345100001071046,5,0.145485799999733,99.93055219999951,99.93055219999951,99.93055219999951,99.93055219999951,99.93055219999951,99.93055219999951,99.93055219999951,99.93055219999951,001,P003,2025_Jan_18_1131,CategoryLocalizer,2021.2.3,59.94632406140874,
54.0,54.8,3,0.75,Stimuli\ImageFiles-Set1\Faces\Face_00061.png,0,0,0,85,85,85,,,,,,,,,,,,,54.01373120000062,0.013731200000620447,None,,100.13069559999894,100.13069559999894,100.13069559999894,100.13069559999894,100.13069559999894,100.13069559999894,100.13069559999894,100.13069559999894,001,P003,2025_Jan_18_1131,CategoryLocalizer,2021.2.3,59.94632406140874,
54.8,55.0,5,0.0,Stimuli\Blank.png,0,0,0,86,86,86,,,,,,,,,,,,,54.83248470000035,0.03248470000035297,None,,100.94812509999974,100.94812509999974,100.94812509999974,100.94812509999974,100.94812509999974,100.94812509999974,100.94812509999974,100.94812509999974,001,P003,2025_Jan_18_1131,CategoryLocalizer,2021.2.3,59.94632406140874,
55.0,55.8,3,0.75,Stimuli\ImageFiles-Set1\Faces\Face_00016.png,0,0,0,87,87,87,,,,,,,,,,,,,55.01433569999972,0.014335699999719509,None,,101.13157510000019,101.13157510000019,101.13157510000019,101.13157510000019,101.13157510000019,101.13157510000019,101.13157510000019,101.13157510000019,001,P003,2025_Jan_18_1131,CategoryLocalizer,2021.2.3,59.94632406140874,
55.8,56.0,5,0.0,Stimuli\Blank.png,0,0,0,88,88,88,,,,,,,,,,,,,55.832132999999885,0.03213299999988806,5,0.14352700000017649,101.93231849999938,101.93231849999938,101.93231849999938,101.93231849999938,101.93231849999938,101.93231849999938,101.93231849999938,101.93231849999938,001,P003,2025_Jan_18_1131,CategoryLocalizer,2021.2.3,59.94632406140874,
56.0,56.8,3,0.75,Stimuli\ImageFiles-Set1\Faces\Face_00031.png,0,0,0,89,89,89,,,,,,,,,,,,,56.0152448000008,0.015244800000800751,None,,102.11578089999966,102.11578089999966,102.11578089999966,102.11578089999966,102.11578089999966,102.11578089999966,102.11578089999966,102.11578089999966,001,P003,2025_Jan_18_1131,CategoryLocalizer,2021.2.3,59.94632406140874,
56.8,57.0,5,0.0,Stimuli\Blank.png,0,0,0,90,90,90,,,,,,,,,,,,,56.798695400000724,-0.001304599999272682,None,,102.89994859999933,102.89994859999933,102.89994859999933,102.89994859999933,102.89994859999933,102.89994859999933,102.89994859999933,102.89994859999933,001,P003,2025_Jan_18_1131,CategoryLocalizer,2021.2.3,59.94632406140874,
57.0,57.8,3,0.75,Stimuli\ImageFiles-Set1\Faces\Face_00014.png,0,0,0,91,91,91,,,,,,,,,,,,,57.017823100000896,0.017823100000896375,None,,103.13344539999889,103.13344539999889,103.13344539999889,103.13344539999889,103.13344539999889,103.13344539999889,103.13344539999889,103.13344539999889,001,P003,2025_Jan_18_1131,CategoryLocalizer,2021.2.3,59.94632406140874,
57.8,58.0,5,0.0,Stimuli\Blank.png,0,0,0,92,92,92,,,,,,,,,,,,,57.81882360000054,0.018823600000544616,5,0.14192259999981616,103.93408569999883,103.93408569999883,103.93408569999883,103.93408569999883,103.93408569999883,103.93408569999883,103.93408569999883,103.93408569999883,001,P003,2025_Jan_18_1131,CategoryLocalizer,2021.2.3,59.94632406140874,
58.0,58.8,3,0.75,Stimuli\ImageFiles-Set1\Faces\Face_00037.png,0,0,0,93,93,93,,,,,,,,,,,,,58.01759780000066,0.017597800000658026,None,,104.1175674999995,104.1175674999995,104.1175674999995,104.1175674999995,104.1175674999995,104.1175674999995,104.1175674999995,104.1175674999995,001,P003,2025_Jan_18_1131,CategoryLocalizer,2021.2.3,59.94632406140874,
58.8,59.0,5,0.0,Stimuli\Blank.png,0,0,0,94,94,94,,,,,,,,,,,,,58.80295389999992,0.0029538999999232374,None,,104.91828039999928,104.91828039999928,104.91828039999928,104.91828039999928,104.91828039999928,104.91828039999928,104.91828039999928,104.91828039999928,001,P003,2025_Jan_18_1131,CategoryLocalizer,2021.2.3,59.94632406140874,
59.0,59.8,3,0.75,Stimuli\ImageFiles-Set1\Faces\Face_00055.png,0,0,0,95,95,95,,,,,,,,,,,,,59.01814259999992,0.018142599999919184,None,,105.1351238999996,105.1351238999996,105.1351238999996,105.1351238999996,105.1351238999996,105.1351238999996,105.1351238999996,105.1351238999996,001,P003,2025_Jan_18_1131,CategoryLocalizer,2021.2.3,59.94632406140874,
59.8,60.0,5,0.0,Stimuli\Blank.png,0,0,0,96,96,96,,,,,,,,,,,,,59.81852750000144,0.01852750000143999,None,,105.9191479000001,105.9191479000001,105.9191479000001,105.9191479000001,105.9191479000001,105.9191479000001,105.9191479000001,105.9191479000001,001,P003,2025_Jan_18_1131,CategoryLocalizer,2021.2.3,59.94632406140874,
60.0,60.8,4,0.75,Stimuli\ImageFiles-Set1\Scenes\Scenes_017.png,0,0,0,97,97,97,,,,,,,,,,,,,60.002133900001354,0.00213390000135405,None,,106.11934440000005,106.11934440000005,106.11934440000005,106.11934440000005,106.11934440000005,106.11934440000005,106.11934440000005,106.11934440000005,001,P003,2025_Jan_18_1131,CategoryLocalizer,2021.2.3,59.94632406140874,
60.8,61.0,5,0.0,Stimuli\Blank.png,0,0,0,98,98,98,,,,,,,,,,,,,60.81906580000032,0.019065800000319655,None,,106.92003729999851,106.92003729999851,106.92003729999851,106.92003729999851,106.92003729999851,106.92003729999851,106.92003729999851,106.92003729999851,001,P003,2025_Jan_18_1131,CategoryLocalizer,2021.2.3,59.94632406140874,
61.0,61.8,4,0.75,Stimuli\ImageFiles-Set1\Scenes\Scenes_017.png,1,1,0,99,99,99,,,,,,,,,,,,,61.00252189999992,0.0025218999999196967,1,0.41728260000127193,107.10351319999972,107.10351319999972,107.10351319999972,107.10351319999972,107.10351319999972,107.10351319999972,107.10351319999972,107.10351319999972,001,P003,2025_Jan_18_1131,CategoryLocalizer,2021.2.3,59.94632406140874,
61.8,62.0,5,0.0,Stimuli\Blank.png,0,0,0,100,100,100,,,,,,,,,,,,,61.80304200000137,0.0030420000013720028,None,,107.90422880000006,107.90422880000006,107.90422880000006,107.90422880000006,107.90422880000006,107.90422880000006,107.90422880000006,107.90422880000006,001,P003,2025_Jan_18_1131,CategoryLocalizer,2021.2.3,59.94632406140874,
62.0,62.8,4,0.75,Stimuli\ImageFiles-Set1\Scenes\Scenes_045.png,0,0,0,101,101,101,,,,,,,,,,,,,62.00349520000054,0.0034952000005432637,None,,108.10447039999963,108.10447039999963,108.10447039999963,108.10447039999963,108.10447039999963,108.10447039999963,108.10447039999963,108.10447039999963,001,P003,2025_Jan_18_1131,CategoryLocalizer,2021.2.3,59.94632406140874,
62.8,63.0,5,0.0,Stimuli\Blank.png,0,0,0,102,102,102,,,,,,,,,,,,,62.80419230000007,0.004192300000070759,None,,108.90511389999847,108.90511389999847,108.90511389999847,108.90511389999847,108.90511389999847,108.90511389999847,108.90511389999847,108.90511389999847,001,P003,2025_Jan_18_1131,CategoryLocalizer,2021.2.3,59.94632406140874,
63.0,63.8,4,0.75,Stimuli\ImageFiles-Set1\Scenes\Scenes_023.png,0,0,0,103,103,103,,,,,,,,,,,,,63.004442200000994,0.0044422000009944895,None,,109.138681299999,109.138681299999,109.138681299999,109.138681299999,109.138681299999,109.138681299999,109.138681299999,109.138681299999,001,P003,2025_Jan_18_1131,CategoryLocalizer,2021.2.3,59.94632406140874,
63.8,64.0,5,0.0,Stimuli\Blank.png,0,0,0,104,104,104,,,,,,,,,,,,,63.838606600000276,0.03860660000027849,None,,109.9393500999995,109.9393500999995,109.9393500999995,109.9393500999995,109.9393500999995,109.9393500999995,109.9393500999995,109.9393500999995,001,P003,2025_Jan_18_1131,CategoryLocalizer,2021.2.3,59.94632406140874,
64.0,64.8,4,0.75,Stimuli\ImageFiles-Set1\Scenes\Scenes_051.png,0,0,0,105,105,105,,,,,,,,,,,,,64.00537580000127,0.005375800001274911,None,,110.1061680999992,110.1061680999992,110.1061680999992,110.1061680999992,110.1061680999992,110.1061680999992,110.1061680999992,110.1061680999992,001,P003,2025_Jan_18_1131,CategoryLocalizer,2021.2.3,59.94632406140874,
64.8,65.0,5,0.0,Stimuli\Blank.png,0,0,0,106,106,106,,,,,,,,,,,,,64.80790210000123,0.007902100001231815,None,,110.92362009999852,110.92362009999852,110.92362009999852,110.92362009999852,110.92362009999852,110.92362009999852,110.92362009999852,110.92362009999852,001,P003,2025_Jan_18_1131,CategoryLocalizer,2021.2.3,59.94632406140874,
65.0,65.8,4,0.75,Stimuli\ImageFiles-Set1\Scenes\Scenes_052.png,0,0,0,107,107,107,,,,,,,,,,,,,65.02311569999983,0.02311569999983476,None,,111.14042479999989,111.14042479999989,111.14042479999989,111.14042479999989,111.14042479999989,111.14042479999989,111.14042479999989,111.14042479999989,001,P003,2025_Jan_18_1131,CategoryLocalizer,2021.2.3,59.94632406140874,
65.8,66.0,5,0.0,Stimuli\Blank.png,0,0,0,108,108,108,,,,,,,,,,,,,65.82348380000076,0.023483800000761335,5,0.1514485000006971,111.92448960000002,111.92448960000002,111.92448960000002,111.92448960000002,111.92448960000002,111.92448960000002,111.92448960000002,111.92448960000002,001,P003,2025_Jan_18_1131,CategoryLocalizer,2021.2.3,59.94632406140874,
66.0,66.8,4,0.75,Stimuli\ImageFiles-Set1\Scenes\Scenes_053.png,0,0,0,109,109,109,,,,,,,,,,,,,66.00695140000062,0.006951400000616559,None,,112.12462839999898,112.12462839999898,112.12462839999898,112.12462839999898,112.12462839999898,112.12462839999898,112.12462839999898,112.12462839999898,001,P003,2025_Jan_18_1131,CategoryLocalizer,2021.2.3,59.94632406140874,
66.8,67.0,5,0.0,Stimuli\Blank.png,0,0,0,110,110,110,,,,,,,,,,,,,66.82490940000025,0.024909400000254323,None,,112.92531069999859,112.92531069999859,112.92531069999859,112.92531069999859,112.92531069999859,112.92531069999859,112.92531069999859,112.92531069999859,001,P003,2025_Jan_18_1131,CategoryLocalizer,2021.2.3,59.94632406140874,
67.0,67.8,4,0.75,Stimuli\ImageFiles-Set1\Scenes\Scenes_056.png,0,0,0,111,111,111,,,,,,,,,,,,,67.0082223999998,0.008222399999795016,None,,113.10880949999955,113.10880949999955,113.10880949999955,113.10880949999955,113.10880949999955,113.10880949999955,113.10880949999955,113.10880949999955,001,P003,2025_Jan_18_1131,CategoryLocalizer,2021.2.3,59.94632406140874,
67.8,68.0,5,0.0,Stimuli\Blank.png,0,0,0,112,112,112,,,,,,,,,,,,,67.80927260000135,0.009272600001352771,5,0.16636469999866677,113.90952339999967,113.90952339999967,113.90952339999967,113.90952339999967,113.90952339999967,113.90952339999967,113.90952339999967,113.90952339999967,001,P003,2025_Jan_18_1131,CategoryLocalizer,2021.2.3,59.94632406140874,
68.0,68.8,4,0.75,Stimuli\ImageFiles-Set1\Scenes\Scenes_060.png,0,0,0,113,113,113,,,,,,,,,,,,,68.00872840000011,0.008728400000109104,None,,114.109692,114.109692,114.109692,114.109692,114.109692,114.109692,114.109692,114.109692,001,P003,2025_Jan_18_1131,CategoryLocalizer,2021.2.3,59.94632406140874,
68.8,69.0,5,0.0,Stimuli\Blank.png,0,0,0,114,114,114,,,,,,,,,,,,,68.81008440000005,0.010084400000053506,None,,114.91039490000003,114.91039490000003,114.91039490000003,114.91039490000003,114.91039490000003,114.91039490000003,114.91039490000003,114.91039490000003,001,P003,2025_Jan_18_1131,CategoryLocalizer,2021.2.3,59.94632406140874,
69.0,69.8,4,0.75,Stimuli\ImageFiles-Set1\Scenes\Scenes_043.png,1,1,0,115,115,115,,,,,,,,,,,,,69.00968230000035,0.009682300000349642,None,,115.11058299999968,115.11058299999968,115.11058299999968,115.11058299999968,115.11058299999968,115.11058299999968,115.11058299999968,115.11058299999968,001,P003,2025_Jan_18_1131,CategoryLocalizer,2021.2.3,59.94632406140874,
69.8,70.0,5,0.0,Stimuli\Blank.png,0,0,0,116,116,116,,,,,,,,,,,,,69.81041300000106,0.010413000001065598,5,0.164522200000647,115.91127779999988,115.91127779999988,115.91127779999988,115.91127779999988,115.91127779999988,115.91127779999988,115.91127779999988,115.91127779999988,001,P003,2025_Jan_18_1131,CategoryLocalizer,2021.2.3,59.94632406140874,
70.0,70.8,4,0.75,Stimuli\ImageFiles-Set1\Scenes\Scenes_005.png,0,0,0,117,117,117,,,,,,,,,,,,,70.01288840000052,0.01288840000052005,None,,116.12814900000012,116.12814900000012,116.12814900000012,116.12814900000012,116.12814900000012,116.12814900000012,116.12814900000012,116.12814900000012,001,P003,2025_Jan_18_1131,CategoryLocalizer,2021.2.3,59.94632406140874,
70.8,71.0,5,0.0,Stimuli\Blank.png,0,0,0,118,118,118,,,,,,,,,,,,,70.8282876000012,0.02828760000120667,None,,116.9288435999988,116.9288435999988,116.9288435999988,116.9288435999988,116.9288435999988,116.9288435999988,116.9288435999988,116.9288435999988,001,P003,2025_Jan_18_1131,CategoryLocalizer,2021.2.3,59.94632406140874,
71.0,71.8,4,0.75,Stimuli\ImageFiles-Set1\Scenes\Scenes_005.png,0,0,0,119,119,119,,,,,,,,,,,,,71.01306579999982,0.013065799999822048,1,0.3037934000003588,117.12901729999976,117.12901729999976,117.12901729999976,117.12901729999976,117.12901729999976,117.12901729999976,117.12901729999976,117.12901729999976,001,P003,2025_Jan_18_1131,CategoryLocalizer,2021.2.3,59.94632406140874,
71.8,72.0,5,0.0,Stimuli\Blank.png,0,0,0,120,120,120,,,,,,,,,,,,,71.82924869999988,0.029248699999882888,5,0.14638940000077127,117.92971799999941,117.92971799999941,117.92971799999941,117.92971799999941,117.92971799999941,117.92971799999941,117.92971799999941,117.92971799999941,001,P003,2025_Jan_18_1131,CategoryLocalizer,2021.2.3,59.94632406140874,
72.0,72.8,4,0.75,Stimuli\ImageFiles-Set1\Scenes\Scenes_025.png,0,0,0,121,121,121,,,,,,,,,,,,,72.01269990000037,0.01269990000037069,None,,118.12991689999944,118.12991689999944,118.12991689999944,118.12991689999944,118.12991689999944,118.12991689999944,118.12991689999944,118.12991689999944,001,P003,2025_Jan_18_1131,CategoryLocalizer,2021.2.3,59.94632406140874,
72.8,73.0,5,0.0,Stimuli\Blank.png,0,0,0,122,122,122,,,,,,,,,,,,,72.82953009999983,0.029530099999831805,None,,118.93060239999977,118.93060239999977,118.93060239999977,118.93060239999977,118.93060239999977,118.93060239999977,118.93060239999977,118.93060239999977,001,P003,2025_Jan_18_1131,CategoryLocalizer,2021.2.3,59.94632406140874,
73.0,73.8,4,0.75,Stimuli\ImageFiles-Set1\Scenes\Scenes_003.png,0,0,0,123,123,123,,,,,,,,,,,,,73.01350700000148,0.013507000001482083,None,,119.13078369999857,119.13078369999857,119.13078369999857,119.13078369999857,119.13078369999857,119.13078369999857,119.13078369999857,119.13078369999857,001,P003,2025_Jan_18_1131,CategoryLocalizer,2021.2.3,59.94632406140874,
73.8,74.0,5,0.0,Stimuli\Blank.png,0,0,0,124,124,124,,,,,,,,,,,,,73.83107910000035,0.031079100000354742,5,0.1444511000008788,119.93149869999979,119.93149869999979,119.93149869999979,119.93149869999979,119.93149869999979,119.93149869999979,119.93149869999979,119.93149869999979,001,P003,2025_Jan_18_1131,CategoryLocalizer,2021.2.3,59.94632406140874,
74.0,74.8,4,0.75,Stimuli\ImageFiles-Set1\Scenes\Scenes_042.png,0,0,0,125,125,125,,,,,,,,,,,,,74.0140620000002,0.01406200000019453,None,,120.11497489999965,120.11497489999965,120.11497489999965,120.11497489999965,120.11497489999965,120.11497489999965,120.11497489999965,120.11497489999965,001,P003,2025_Jan_18_1131,CategoryLocalizer,2021.2.3,59.94632406140874,
74.8,75.0,5,0.0,Stimuli\Blank.png,0,0,0,126,126,126,,,,,,,,,,,,,74.8150383000011,0.01503830000110895,None,,120.91569659999914,120.91569659999914,120.91569659999914,120.91569659999914,120.91569659999914,120.91569659999914,120.91569659999914,120.91569659999914,001,P003,2025_Jan_18_1131,CategoryLocalizer,2021.2.3,59.94632406140874,
75.0,75.8,4,0.75,Stimuli\ImageFiles-Set1\Scenes\Scenes_019.png,0,0,0,127,127,127,,,,,,,,,,,,,74.99943840000014,-0.0005615999998553889,None,,121.11599679999927,121.11599679999927,121.11599679999927,121.11599679999927,121.11599679999927,121.11599679999927,121.11599679999927,121.11599679999927,001,P003,2025_Jan_18_1131,CategoryLocalizer,2021.2.3,59.94632406140874,
75.8,76.0,5,0.0,Stimuli\Blank.png,0,0,0,128,128,128,,,,,,,,,,,,,75.81626310000138,0.01626310000138176,None,,121.91661369999929,121.91661369999929,121.91661369999929,121.91661369999929,121.91661369999929,121.91661369999929,121.91661369999929,121.91661369999929,001,P003,2025_Jan_18_1131,CategoryLocalizer,2021.2.3,59.94632406140874,
76.0,88.0,0,0.0,Stimuli\Blank.png,0,0,0,129,129,129,,,,,,,,,,,,,75.9999069000005,-9.309999950346537e-05,5,11.975628300000608,122.1000699999986,122.1000699999986,122.1000699999986,122.1000699999986,122.1000699999986,122.1000699999986,122.1000699999986,122.1000699999986,001,P003,2025_Jan_18_1131,CategoryLocalizer,2021.2.3,59.94632406140874,
88.0,88.8,3,0.75,Stimuli\ImageFiles-Set1\Faces\Face_00029.png,0,0,0,130,130,130,,,,,,,,,,,,,88.01019030000134,0.010190300001340802,None,,134.1439913999984,134.1439913999984,134.1439913999984,134.1439913999984,134.1439913999984,134.1439913999984,134.1439913999984,134.1439913999984,001,P003,2025_Jan_18_1131,CategoryLocalizer,2021.2.3,59.94632406140874,
88.8,89.0,5,0.0,Stimuli\Blank.png,0,0,0,131,131,131,,,,,,,,,,,,,88.84420990000035,0.04420990000035374,None,,134.94470719999845,134.94470719999845,134.94470719999845,134.94470719999845,134.94470719999845,134.94470719999845,134.94470719999845,134.94470719999845,001,P003,2025_Jan_18_1131,CategoryLocalizer,2021.2.3,59.94632406140874,
89.0,89.8,3,0.75,Stimuli\ImageFiles-Set1\Faces\Face_00083.png,0,0,0,132,132,132,,,,,,,,,,,,,89.01037189999988,0.010371899999881862,None,,135.11151019999852,135.11151019999852,135.11151019999852,135.11151019999852,135.11151019999852,135.11151019999852,135.11151019999852,135.11151019999852,001,P003,2025_Jan_18_1131,CategoryLocalizer,2021.2.3,59.94632406140874,
89.8,90.0,5,0.0,Stimuli\Blank.png,0,0,0,133,133,133,,,,,,,,,,,,,89.81304210000053,0.013042100000532741,5,0.14679960000103165,135.92894159999923,135.92894159999923,135.92894159999923,135.92894159999923,135.92894159999923,135.92894159999923,135.92894159999923,135.92894159999923,001,P003,2025_Jan_18_1131,CategoryLocalizer,2021.2.3,59.94632406140874,
90.0,90.8,3,0.75,Stimuli\ImageFiles-Set1\Faces\Face_00069.png,0,0,0,134,134,134,,,,,,,,,,,,,90.02876810000089,0.028768100000888808,None,,136.14576289999968,136.14576289999968,136.14576289999968,136.14576289999968,136.14576289999968,136.14576289999968,136.14576289999968,136.14576289999968,001,P003,2025_Jan_18_1131,CategoryLocalizer,2021.2.3,59.94632406140874,
90.8,91.0,5,0.0,Stimuli\Blank.png,0,0,0,135,135,135,,,,,,,,,,,,,90.82929970000077,0.029299700000777307,None,,136.92977289999908,136.92977289999908,136.92977289999908,136.92977289999908,136.92977289999908,136.92977289999908,136.92977289999908,136.92977289999908,001,P003,2025_Jan_18_1131,CategoryLocalizer,2021.2.3,59.94632406140874,
91.0,91.8,3,0.75,Stimuli\ImageFiles-Set1\Faces\Face_00081.png,0,0,0,136,136,136,,,,,,,,,,,,,91.01330299999972,0.013302999999723397,None,,137.12994889999936,137.12994889999936,137.12994889999936,137.12994889999936,137.12994889999936,137.12994889999936,137.12994889999936,137.12994889999936,001,P003,2025_Jan_18_1131,CategoryLocalizer,2021.2.3,59.94632406140874,
91.8,92.0,5,0.0,Stimuli\Blank.png,0,0,0,137,137,137,,,,,,,,,,,,,91.83025500000076,0.0302550000007642,5,0.14512680000007094,137.93074679999881,137.93074679999881,137.93074679999881,137.93074679999881,137.93074679999881,137.93074679999881,137.93074679999881,137.93074679999881,001,P003,2025_Jan_18_1131,CategoryLocalizer,2021.2.3,59.94632406140874,
92.0,92.8,3,0.75,Stimuli\ImageFiles-Set1\Faces\Face_00115.png,0,0,0,138,138,138,,,,,,,,,,,,,92.0130594000002,0.013059400000202004,None,,138.11417139999867,138.11417139999867,138.11417139999867,138.11417139999867,138.11417139999867,138.11417139999867,138.11417139999867,138.11417139999867,001,P003,2025_Jan_18_1131,CategoryLocalizer,2021.2.3,59.94632406140874,
92.8,93.0,5,0.0,Stimuli\Blank.png,0,0,0,139,139,139,,,,,,,,,,,,,92.8146813000003,0.014681300000304986,None,,138.9148542999992,138.9148542999992,138.9148542999992,138.9148542999992,138.9148542999992,138.9148542999992,138.9148542999992,138.9148542999992,001,P003,2025_Jan_18_1131,CategoryLocalizer,2021.2.3,59.94632406140874,
93.0,93.8,3,0.75,Stimuli\ImageFiles-Set1\Faces\Face_00053.png,0,0,0,140,140,140,,,,,,,,,,,,,93.01415220000126,0.014152200001262827,None,,139.1317287999991,139.1317287999991,139.1317287999991,139.1317287999991,139.1317287999991,139.1317287999991,139.1317287999991,139.1317287999991,001,P003,2025_Jan_18_1131,CategoryLocalizer,2021.2.3,59.94632406140874,
93.8,94.0,5,0.0,Stimuli\Blank.png,0,0,0,141,141,141,,,,,,,,,,,,,93.83366580000074,0.03366580000074748,5,0.1266073000006145,139.94910749999872,139.94910749999872,139.94910749999872,139.94910749999872,139.94910749999872,139.94910749999872,139.94910749999872,139.94910749999872,001,P003,2025_Jan_18_1131,CategoryLocalizer,2021.2.3,59.94632406140874,
94.0,94.8,3,0.75,Stimuli\ImageFiles-Set1\Faces\Face_00103.png,0,0,0,142,142,142,,,,,,,,,,,,,94.01546560000133,0.015465600001334678,None,,140.1159160999996,140.1159160999996,140.1159160999996,140.1159160999996,140.1159160999996,140.1159160999996,140.1159160999996,140.1159160999996,001,P003,2025_Jan_18_1131,CategoryLocalizer,2021.2.3,59.94632406140874,
94.8,95.0,5,0.0,Stimuli\Blank.png,0,0,0,143,143,143,,,,,,,,,,,,,94.79932610000105,-0.0006738999989437389,None,,140.899964799999,140.899964799999,140.899964799999,140.899964799999,140.899964799999,140.899964799999,140.899964799999,140.899964799999,001,P003,2025_Jan_18_1131,CategoryLocalizer,2021.2.3,59.94632406140874,
95.0,95.8,3,0.75,Stimuli\ImageFiles-Set1\Faces\Face_00022.png,0,0,0,144,144,144,,,,,,,,,,,,,94.99958390000029,-0.0004160999997111503,None,,141.1001207999998,141.1001207999998,141.1001207999998,141.1001207999998,141.1001207999998,141.1001207999998,141.1001207999998,141.1001207999998,001,P003,2025_Jan_18_1131,CategoryLocalizer,2021.2.3,59.94632406140874,
95.8,96.0,5,0.0,Stimuli\Blank.png,0,0,0,145,145,145,,,,,,,,,,,,,95.80035660000067,0.0003566000006713921,None,,141.90081549999923,141.90081549999923,141.90081549999923,141.90081549999923,141.90081549999923,141.90081549999923,141.90081549999923,141.90081549999923,001,P003,2025_Jan_18_1131,CategoryLocalizer,2021.2.3,59.94632406140874,
96.0,96.8,3,0.75,Stimuli\ImageFiles-Set1\Faces\Face_00043.png,0,0,0,146,146,146,,,,,,,,,,,,,95.99974509999993,-0.00025490000007266644,None,,142.10099420000006,142.10099420000006,142.10099420000006,142.10099420000006,142.10099420000006,142.10099420000006,142.10099420000006,142.10099420000006,001,P003,2025_Jan_18_1131,CategoryLocalizer,2021.2.3,59.94632406140874,
96.8,97.0,5,0.0,Stimuli\Blank.png,0,0,0,147,147,147,,,,,,,,,,,,,96.80242650000037,0.002426500000368037,None,,142.91839909999908,142.91839909999908,142.91839909999908,142.91839909999908,142.91839909999908,142.91839909999908,142.91839909999908,142.91839909999908,001,P003,2025_Jan_18_1131,CategoryLocalizer,2021.2.3,59.94632406140874,
97.0,97.8,3,0.75,Stimuli\ImageFiles-Set1\Faces\Face_00027.png,0,0,0,148,148,148,,,,,,,,,,,,,97.01858080000056,0.018580800000563613,None,,143.13523480000003,143.13523480000003,143.13523480000003,143.13523480000003,143.13523480000003,143.13523480000003,143.13523480000003,143.13523480000003,001,P003,2025_Jan_18_1131,CategoryLocalizer,2021.2.3,59.94632406140874,
97.8,98.0,5,0.0,Stimuli\Blank.png,0,0,0,149,149,149,,,,,,,,,,,,,97.81905800000095,0.019058000000953257,None,,143.91929059999893,143.91929059999893,143.91929059999893,143.91929059999893,143.91929059999893,143.91929059999893,143.91929059999893,143.91929059999893,001,P003,2025_Jan_18_1131,CategoryLocalizer,2021.2.3,59.94632406140874,
98.0,98.8,3,0.75,Stimuli\ImageFiles-Set1\Faces\Face_00027.png,1,1,0,150,150,150,,,,,,,,,,,,,98.0017485999997,0.001748599999700673,1,0.5429359000008844,144.10275179999917,144.10275179999917,144.10275179999917,144.10275179999917,144.10275179999917,144.10275179999917,144.10275179999917,144.10275179999917,001,P003,2025_Jan_18_1131,CategoryLocalizer,2021.2.3,59.94632406140874,
98.8,99.0,5,0.0,Stimuli\Blank.png,0,0,0,151,151,151,,,,,,,,,,,,,98.80325930000072,0.003259300000721055,None,,144.9034331999992,144.9034331999992,144.9034331999992,144.9034331999992,144.9034331999992,144.9034331999992,144.9034331999992,144.9034331999992,001,P003,2025_Jan_18_1131,CategoryLocalizer,2021.2.3,59.94632406140874,
99.0,99.8,3,0.75,Stimuli\ImageFiles-Set1\Faces\Face_00035.png,0,0,0,152,152,152,,,,,,,,,,,,,99.00346250000075,0.003462500000750879,None,,145.1203186999992,145.1203186999992,145.1203186999992,145.1203186999992,145.1203186999992,145.1203186999992,145.1203186999992,145.1203186999992,001,P003,2025_Jan_18_1131,CategoryLocalizer,2021.2.3,59.94632406140874,
99.8,100.0,5,0.0,Stimuli\Blank.png,0,0,0,153,153,153,,,,,,,,,,,,,99.82030420000046,0.020304200000467176,None,,145.92101639999964,145.92101639999964,145.92101639999964,145.92101639999964,145.92101639999964,145.92101639999964,145.92101639999964,145.92101639999964,001,P003,2025_Jan_18_1131,CategoryLocalizer,2021.2.3,59.94632406140874,
100.0,100.8,3,0.75,Stimuli\ImageFiles-Set1\Faces\Face_00109.png,0,0,0,154,154,154,,,,,,,,,,,,,100.00398620000124,0.003986200001236284,None,,146.12122119999913,146.12122119999913,146.12122119999913,146.12122119999913,146.12122119999913,146.12122119999913,146.12122119999913,146.12122119999913,001,P003,2025_Jan_18_1131,CategoryLocalizer,2021.2.3,59.94632406140874,
100.8,101.0,5,0.0,Stimuli\Blank.png,0,0,0,155,155,155,,,,,,,,,,,,,100.82135580000067,0.02135580000067705,None,,146.92190200000005,146.92190200000005,146.92190200000005,146.92190200000005,146.92190200000005,146.92190200000005,146.92190200000005,146.92190200000005,001,P003,2025_Jan_18_1131,CategoryLocalizer,2021.2.3,59.94632406140874,
101.0,101.8,3,0.75,Stimuli\ImageFiles-Set1\Faces\Face_00051.png,0,0,0,156,156,156,,,,,,,,,,,,,101.00494470000012,0.004944700000123703,None,,147.10539909999898,147.10539909999898,147.10539909999898,147.10539909999898,147.10539909999898,147.10539909999898,147.10539909999898,147.10539909999898,001,P003,2025_Jan_18_1131,CategoryLocalizer,2021.2.3,59.94632406140874,
101.8,102.0,5,0.0,Stimuli\Blank.png,0,0,0,157,157,157,,,,,,,,,,,,,101.80634620000092,0.006346200000919566,None,,147.90613269999994,147.90613269999994,147.90613269999994,147.90613269999994,147.90613269999994,147.90613269999994,147.90613269999994,147.90613269999994,001,P003,2025_Jan_18_1131,CategoryLocalizer,2021.2.3,59.94632406140874,
102.0,102.8,3,0.75,Stimuli\ImageFiles-Set1\Faces\Face_00077.png,0,0,0,158,158,158,,,,,,,,,,,,,102.00536140000077,0.0053614000007655704,None,,148.10628109999925,148.10628109999925,148.10628109999925,148.10628109999925,148.10628109999925,148.10628109999925,148.10628109999925,148.10628109999925,001,P003,2025_Jan_18_1131,CategoryLocalizer,2021.2.3,59.94632406140874,
102.8,103.0,5,0.0,Stimuli\Blank.png,0,0,0,159,159,159,,,,,,,,,,,,,102.80671050000092,0.006710500000920661,None,,148.90699459999996,148.90699459999996,148.90699459999996,148.90699459999996,148.90699459999996,148.90699459999996,148.90699459999996,148.90699459999996,001,P003,2025_Jan_18_1131,CategoryLocalizer,2021.2.3,59.94632406140874,
103.0,103.8,3,0.75,Stimuli\ImageFiles-Set1\Faces\Face_00091.png,0,0,0,160,160,160,,,,,,,,,,,,,103.00839500000075,0.008395000000746222,None,,149.12384609999935,149.12384609999935,149.12384609999935,149.12384609999935,149.12384609999935,149.12384609999935,149.12384609999935,149.12384609999935,001,P003,2025_Jan_18_1131,CategoryLocalizer,2021.2.3,59.94632406140874,
103.8,104.0,5,0.0,Stimuli\Blank.png,0,0,0,161,161,161,,,,,,,,,,,,,103.82403119999981,0.024031199999811292,5,0.15121449999969627,149.9245538999985,149.9245538999985,149.9245538999985,149.9245538999985,149.9245538999985,149.9245538999985,149.9245538999985,149.9245538999985,001,P003,2025_Jan_18_1131,CategoryLocalizer,2021.2.3,59.94632406140874,
104.0,104.8,1,0.75,Stimuli\ImageFiles-Set1\Objects\Object_Knife_00001.png,0,0,0,162,162,162,,,,,,,,,,,,,104.00810210000054,0.008102100000542123,None,,150.1080478999993,150.1080478999993,150.1080478999993,150.1080478999993,150.1080478999993,150.1080478999993,150.1080478999993,150.1080478999993,001,P003,2025_Jan_18_1131,CategoryLocalizer,2021.2.3,59.94632406140874,
104.8,105.0,5,0.0,Stimuli\Blank.png,0,0,0,163,163,163,,,,,,,,,,,,,104.80856380000114,0.00856380000114143,None,,150.90877379999984,150.90877379999984,150.90877379999984,150.90877379999984,150.90877379999984,150.90877379999984,150.90877379999984,150.90877379999984,001,P003,2025_Jan_18_1131,CategoryLocalizer,2021.2.3,59.94632406140874,
105.0,105.8,1,0.75,Stimuli\ImageFiles-Set1\Objects\Object_Knife_00001.png,1,1,0,164,164,164,,,,,,,,,,,,,105.00828340000044,0.008283400000436814,1,0.6627530000005208,151.10892629999944,151.10892629999944,151.10892629999944,151.10892629999944,151.10892629999944,151.10892629999944,151.10892629999944,151.10892629999944,001,P003,2025_Jan_18_1131,CategoryLocalizer,2021.2.3,59.94632406140874,
105.8,106.0,5,0.0,Stimuli\Blank.png,0,0,0,165,165,165,,,,,,,,,,,,,105.8092370000013,0.009237000001306228,5,0.16605170000002545,151.90962729999956,151.90962729999956,151.90962729999956,151.90962729999956,151.90962729999956,151.90962729999956,151.90962729999956,151.90962729999956,001,P003,2025_Jan_18_1131,CategoryLocalizer,2021.2.3,59.94632406140874,
106.0,106.8,1,0.75,Stimuli\ImageFiles-Set1\Objects\Object_Gun_00001.png,0,0,0,166,166,166,,,,,,,,,,,,,106.00949840000067,0.009498400000666152,None,,152.10980930000005,152.10980930000005,152.10980930000005,152.10980930000005,152.10980930000005,152.10980930000005,152.10980930000005,152.10980930000005,001,P003,2025_Jan_18_1131,CategoryLocalizer,2021.2.3,59.94632406140874,
106.8,107.0,5,0.0,Stimuli\Blank.png,0,0,0,167,167,167,,,,,,,,,,,,,106.80930350000017,0.009303500000171994,None,,152.9105041999992,152.9105041999992,152.9105041999992,152.9105041999992,152.9105041999992,152.9105041999992,152.9105041999992,152.9105041999992,001,P003,2025_Jan_18_1131,CategoryLocalizer,2021.2.3,59.94632406140874,
107.0,107.8,1,0.75,Stimuli\ImageFiles-Set1\Objects\Object_Bench_00001.png,0,0,0,168,168,168,,,,,,,,,,,,,107.00988030000008,0.009880300000077114,None,,153.1107704999995,153.1107704999995,153.1107704999995,153.1107704999995,153.1107704999995,153.1107704999995,153.1107704999995,153.1107704999995,001,P003,2025_Jan_18_1131,CategoryLocalizer,2021.2.3,59.94632406140874,
107.8,108.0,5,0.0,Stimuli\Blank.png,0,0,0,169,169,169,,,,,,,,,,,,,107.81236979999994,0.01236979999994503,5,0.1475968999984616,153.9280906999993,153.9280906999993,153.9280906999993,153.9280906999993,153.9280906999993,153.9280906999993,153.9280906999993,153.9280906999993,001,P003,2025_Jan_18_1131,CategoryLocalizer,2021.2.3,59.94632406140874,
108.0,108.8,1,0.75,Stimuli\ImageFiles-Set1\Objects\Object_Tool_00001.png,0,0,0,170,170,170,,,,,,,,,,,,,108.02708840000014,0.02708840000013879,None,,154.12825279999925,154.12825279999925,154.12825279999925,154.12825279999925,154.12825279999925,154.12825279999925,154.12825279999925,154.12825279999925,001,P003,2025_Jan_18_1131,CategoryLocalizer,2021.2.3,59.94632406140874,
108.8,109.0,5,0.0,Stimuli\Blank.png,0,0,0,171,171,171,,,,,,,,,,,,,108.81377710000015,0.013777100000154974,None,,154.92895529999987,154.92895529999987,154.92895529999987,154.92895529999987,154.92895529999987,154.92895529999987,154.92895529999987,154.92895529999987,001,P003,2025_Jan_18_1131,CategoryLocalizer,2021.2.3,59.94632406140874,
109.0,109.8,1,0.75,Stimuli\ImageFiles-Set1\Objects\Object_Toilet_00001.png,0,0,0,172,172,172,,,,,,,,,,,,,109.0284614000011,0.028461400001106085,None,,155.12912519999918,155.12912519999918,155.12912519999918,155.12912519999918,155.12912519999918,155.12912519999918,155.12912519999918,155.12912519999918,001,P003,2025_Jan_18_1131,CategoryLocalizer,2021.2.3,59.94632406140874,
109.8,110.0,5,0.0,Stimuli\Blank.png,0,0,0,173,173,173,,,,,,,,,,,,,109.81224640000073,0.01224640000073407,5,0.1626685000010184,155.91315759999998,155.91315759999998,155.91315759999998,155.91315759999998,155.91315759999998,155.91315759999998,155.91315759999998,155.91315759999998,001,P003,2025_Jan_18_1131,CategoryLocalizer,2021.2.3,59.94632406140874,
110.0,110.8,1,0.75,Stimuli\ImageFiles-Set1\Objects\Object_ShoppingCart_00001.png,0,0,0,174,174,174,,,,,,,,,,,,,110.01257400000031,0.01257400000031339,None,,156.1133274999993,156.1133274999993,156.1133274999993,156.1133274999993,156.1133274999993,156.1133274999993,156.1133274999993,156.1133274999993,001,P003,2025_Jan_18_1131,CategoryLocalizer,2021.2.3,59.94632406140874,
110.8,111.0,5,0.0,Stimuli\Blank.png,0,0,0,175,175,175,,,,,,,,,,,,,110.81378870000117,0.013788700001171605,None,,156.91404199999852,156.91404199999852,156.91404199999852,156.91404199999852,156.91404199999852,156.91404199999852,156.91404199999852,156.91404199999852,001,P003,2025_Jan_18_1131,CategoryLocalizer,2021.2.3,59.94632406140874,
111.0,111.8,1,0.75,Stimuli\ImageFiles-Set1\Objects\Object_Glasses_00001.png,0,0,0,176,176,176,,,,,,,,,,,,,111.01374190000024,0.013741900000241003,None,,157.1142087999997,157.1142087999997,157.1142087999997,157.1142087999997,157.1142087999997,157.1142087999997,157.1142087999997,157.1142087999997,001,P003,2025_Jan_18_1131,CategoryLocalizer,2021.2.3,59.94632406140874,
111.8,112.0,5,0.0,Stimuli\Blank.png,0,0,0,177,177,177,,,,,,,,,,,,,111.81382470000062,0.013824700000625967,5,0.16090189999886206,157.91490909999993,157.91490909999993,157.91490909999993,157.91490909999993,157.91490909999993,157.91490909999993,157.91490909999993,157.91490909999993,001,P003,2025_Jan_18_1131,CategoryLocalizer,2021.2.3,59.94632406140874,
112.0,112.8,1,0.75,Stimuli\ImageFiles-Set1\Objects\Object_Bottle_00001.png,0,0,0,178,178,178,,,,,,,,,,,,,112.01414590000059,0.014145900000585243,None,,158.11509639999895,158.11509639999895,158.11509639999895,158.11509639999895,158.11509639999895,158.11509639999895,158.11509639999895,158.11509639999895,001,P003,2025_Jan_18_1131,CategoryLocalizer,2021.2.3,59.94632406140874,
112.8,113.0,5,0.0,Stimuli\Blank.png,0,0,0,179,179,179,,,,,,,,,,,,,112.81527800000003,0.01527800000003765,None,,158.9157911000002,158.9157911000002,158.9157911000002,158.9157911000002,158.9157911000002,158.9157911000002,158.9157911000002,158.9157911000002,001,P003,2025_Jan_18_1131,CategoryLocalizer,2021.2.3,59.94632406140874,
113.0,113.8,1,0.75,Stimuli\ImageFiles-Set1\Objects\Object_Highchair_00001.png,0,0,0,180,180,180,,,,,,,,,,,,,113.01740109999992,0.01740109999991546,None,,159.13265219999994,159.13265219999994,159.13265219999994,159.13265219999994,159.13265219999994,159.13265219999994,159.13265219999994,159.13265219999994,001,P003,2025_Jan_18_1131,CategoryLocalizer,2021.2.3,59.94632406140874,
113.8,114.0,5,0.0,Stimuli\Blank.png,0,0,0,181,181,181,,,,,,,,,,,,,113.81542310000077,0.01542310000077407,5,0.15895939999973052,159.91667210000014,159.91667210000014,159.91667210000014,159.91667210000014,159.91667210000014,159.91667210000014,159.91667210000014,159.91667210000014,001,P003,2025_Jan_18_1131,CategoryLocalizer,2021.2.3,59.94632406140874,
114.0,114.8,1,0.75,Stimuli\ImageFiles-Set1\Objects\Object_Pillow_00001.png,1,1,0,182,182,182,,,,,,,,,,,,,114.01656900000125,0.016569000001254608,None,,160.13352929999928,160.13352929999928,160.13352929999928,160.13352929999928,160.13352929999928,160.13352929999928,160.13352929999928,160.13352929999928,001,P003,2025_Jan_18_1131,CategoryLocalizer,2021.2.3,59.94632406140874,
114.8,115.0,5,0.0,Stimuli\Blank.png,0,0,0,183,183,183,,,,,,,,,,,,,114.81735180000032,0.01735180000032699,None,,160.91756799999894,160.91756799999894,160.91756799999894,160.91756799999894,160.91756799999894,160.91756799999894,160.91756799999894,160.91756799999894,001,P003,2025_Jan_18_1131,CategoryLocalizer,2021.2.3,59.94632406140874,
115.0,115.8,1,0.75,Stimuli\ImageFiles-Set1\Objects\Object_Door_00001.png,0,0,0,184,184,184,,,,,,,,,,,,,115.00004580000132,4.580000131682027e-05,None,,161.10104639999918,161.10104639999918,161.10104639999918,161.10104639999918,161.10104639999918,161.10104639999918,161.10104639999918,161.10104639999918,001,P003,2025_Jan_18_1131,CategoryLocalizer,2021.2.3,59.94632406140874,
115.8,116.0,5,0.0,Stimuli\Blank.png,0,0,0,185,185,185,,,,,,,,,,,,,115.80287550000139,0.002875500001394471,5,0.1574479999999312,161.91845139999896,161.91845139999896,161.91845139999896,161.91845139999896,161.91845139999896,161.91845139999896,161.91845139999896,161.91845139999896,001,P003,2025_Jan_18_1131,CategoryLocalizer,2021.2.3,59.94632406140874,
116.0,116.8,1,0.75,Stimuli\ImageFiles-Set1\Objects\Object_Door_00001.png,0,0,0,186,186,186,,,,,,,,,,,,,116.01764270000058,0.01764270000057877,1,0.5541742000004888,162.11861219999992,162.11861219999992,162.11861219999992,162.11861219999992,162.11861219999992,162.11861219999992,162.11861219999992,162.11861219999992,001,P003,2025_Jan_18_1131,CategoryLocalizer,2021.2.3,59.94632406140874,
116.8,117.0,5,0.0,Stimuli\Blank.png,0,0,0,187,187,187,,,,,,,,,,,,,116.80215280000084,0.002152800000843058,None,,162.90264409999872,162.90264409999872,162.90264409999872,162.90264409999872,162.90264409999872,162.90264409999872,162.90264409999872,162.90264409999872,001,P003,2025_Jan_18_1131,CategoryLocalizer,2021.2.3,59.94632406140874,
117.0,117.8,1,0.75,Stimuli\ImageFiles-Set1\Objects\Object_Airplane_00001.png,0,0,0,188,188,188,,,,,,,,,,,,,117.00237030000062,0.002370300000620773,None,,163.10281509999913,163.10281509999913,163.10281509999913,163.10281509999913,163.10281509999913,163.10281509999913,163.10281509999913,163.10281509999913,001,P003,2025_Jan_18_1131,CategoryLocalizer,2021.2.3,59.94632406140874,
117.8,118.0,5,0.0,Stimuli\Blank.png,0,0,0,189,189,189,,,,,,,,,,,,,117.80321240000012,0.003212400000123239,None,,163.9035193999989,163.9035193999989,163.9035193999989,163.9035193999989,163.9035193999989,163.9035193999989,163.9035193999989,163.9035193999989,001,P003,2025_Jan_18_1131,CategoryLocalizer,2021.2.3,59.94632406140874,
118.0,118.8,1,0.75,Stimuli\ImageFiles-Set1\Objects\Object_Stroller_00001.png,0,0,0,190,190,190,,,,,,,,,,,,,118.003448200001,0.003448200001002988,None,,164.1036871999986,164.1036871999986,164.1036871999986,164.1036871999986,164.1036871999986,164.1036871999986,164.1036871999986,164.1036871999986,001,P003,2025_Jan_18_1131,CategoryLocalizer,2021.2.3,59.94632406140874,
118.8,119.0,5,0.0,Stimuli\Blank.png,0,0,0,191,191,191,,,,,,,,,,,,,118.8041845000007,0.004184500000704361,None,,164.90440080000008,164.90440080000008,164.90440080000008,164.90440080000008,164.90440080000008,164.90440080000008,164.90440080000008,164.90440080000008,001,P003,2025_Jan_18_1131,CategoryLocalizer,2021.2.3,59.94632406140874,
119.0,119.8,1,0.75,Stimuli\ImageFiles-Set1\Objects\Object_Scale_00001.png,0,0,0,192,192,192,,,,,,,,,,,,,119.00334750000002,0.0033475000000180444,None,,165.1045772999987,165.1045772999987,165.1045772999987,165.1045772999987,165.1045772999987,165.1045772999987,165.1045772999987,165.1045772999987,001,P003,2025_Jan_18_1131,CategoryLocalizer,2021.2.3,59.94632406140874,
119.8,120.0,5,0.0,Stimuli\Blank.png,0,0,0,193,193,193,,,,,,,,,,,,,119.80459239999982,0.004592399999822305,None,,165.90527800000018,165.90527800000018,165.90527800000018,165.90527800000018,165.90527800000018,165.90527800000018,165.90527800000018,165.90527800000018,001,P003,2025_Jan_18_1131,CategoryLocalizer,2021.2.3,59.94632406140874,
120.0,120.8,4,0.75,Stimuli\ImageFiles-Set1\Scenes\Scenes_054.png,0,0,0,194,194,194,,,,,,,,,,,,,120.00513850000061,0.005138500000612112,None,,166.12212849999923,166.12212849999923,166.12212849999923,166.12212849999923,166.12212849999923,166.12212849999923,166.12212849999923,166.12212849999923,001,P003,2025_Jan_18_1131,CategoryLocalizer,2021.2.3,59.94632406140874,
120.8,121.0,5,0.0,Stimuli\Blank.png,0,0,0,195,195,195,,,,,,,,,,,,,120.82238430000143,0.0223843000014341,None,,166.9228422999986,166.9228422999986,166.9228422999986,166.9228422999986,166.9228422999986,166.9228422999986,166.9228422999986,166.9228422999986,001,P003,2025_Jan_18_1131,CategoryLocalizer,2021.2.3,59.94632406140874,
121.0,121.8,4,0.75,Stimuli\ImageFiles-Set1\Scenes\Scenes_046.png,0,0,0,196,196,196,,,,,,,,,,,,,121.00592590000088,0.005925900000875117,None,,167.1230147999995,167.1230147999995,167.1230147999995,167.1230147999995,167.1230147999995,167.1230147999995,167.1230147999995,167.1230147999995,001,P003,2025_Jan_18_1131,CategoryLocalizer,2021.2.3,59.94632406140874,
121.8,122.0,5,0.0,Stimuli\Blank.png,0,0,0,197,197,197,,,,,,,,,,,,,121.82322300000124,0.023223000001237892,None,,167.92371889999959,167.92371889999959,167.92371889999959,167.92371889999959,167.92371889999959,167.92371889999959,167.92371889999959,167.92371889999959,001,P003,2025_Jan_18_1131,CategoryLocalizer,2021.2.3,59.94632406140874,
122.0,122.8,4,0.75,Stimuli\ImageFiles-Set1\Scenes\Scenes_035.png,0,0,0,198,198,198,,,,,,,,,,,,,122.00672380000105,0.006723800001054769,None,,168.1238758999989,168.1238758999989,168.1238758999989,168.1238758999989,168.1238758999989,168.1238758999989,168.1238758999989,168.1238758999989,001,P003,2025_Jan_18_1131,CategoryLocalizer,2021.2.3,59.94632406140874,
122.8,123.0,5,0.0,Stimuli\Blank.png,0,0,0,199,199,199,,,,,,,,,,,,,122.82464570000047,0.024645700000476722,None,,168.92467269999906,168.92467269999906,168.92467269999906,168.92467269999906,168.92467269999906,168.92467269999906,168.92467269999906,168.92467269999906,001,P003,2025_Jan_18_1131,CategoryLocalizer,2021.2.3,59.94632406140874,
123.0,123.8,4,0.75,Stimuli\ImageFiles-Set1\Scenes\Scenes_055.png,0,0,0,200,200,200,,,,,,,,,,,,,123.00800110000091,0.00800110000091081,None,,169.12474979999934,169.12474979999934,169.12474979999934,169.12474979999934,169.12474979999934,169.12474979999934,169.12474979999934,169.12474979999934,001,P003,2025_Jan_18_1131,CategoryLocalizer,2021.2.3,59.94632406140874,
123.8,124.0,5,0.0,Stimuli\Blank.png,0,0,0,201,201,201,,,,,,,,,,,,,123.82512150000002,0.025121500000025776,5,0.1502637000012328,169.92549259999942,169.92549259999942,169.92549259999942,169.92549259999942,169.92549259999942,169.92549259999942,169.92549259999942,169.92549259999942,001,P003,2025_Jan_18_1131,CategoryLocalizer,2021.2.3,59.94632406140874,
124.0,124.8,4,0.75,Stimuli\ImageFiles-Set1\Scenes\Scenes_015.png,0,0,0,202,202,202,,,,,,,,,,,,,124.00792790000014,0.007927900000140653,None,,170.12567679999847,170.12567679999847,170.12567679999847,170.12567679999847,170.12567679999847,170.12567679999847,170.12567679999847,170.12567679999847,001,P003,2025_Jan_18_1131,CategoryLocalizer,2021.2.3,59.94632406140874,
124.8,125.0,5,0.0,Stimuli\Blank.png,0,0,0,203,203,203,,,,,,,,,,,,,124.82738710000012,0.027387100000126452,None,,170.94306489999872,170.94306489999872,170.94306489999872,170.94306489999872,170.94306489999872,170.94306489999872,170.94306489999872,170.94306489999872,001,P003,2025_Jan_18_1131,CategoryLocalizer,2021.2.3,59.94632406140874,
125.0,125.8,4,0.75,Stimuli\ImageFiles-Set1\Scenes\Scenes_040.png,0,0,0,204,204,204,,,,,,,,,,,,,125.02659010000025,0.02659010000024864,None,,171.14321669999845,171.14321669999845,171.14321669999845,171.14321669999845,171.14321669999845,171.14321669999845,171.14321669999845,171.14321669999845,001,P003,2025_Jan_18_1131,CategoryLocalizer,2021.2.3,59.94632406140874,
125.8,126.0,5,0.0,Stimuli\Blank.png,0,0,0,205,205,205,,,,,,,,,,,,,125.82868840000083,0.028688400000831393,5,0.13165380000100413,171.9439481999998,171.9439481999998,171.9439481999998,171.9439481999998,171.9439481999998,171.9439481999998,171.9439481999998,171.9439481999998,001,P003,2025_Jan_18_1131,CategoryLocalizer,2021.2.3,59.94632406140874,
126.0,126.8,4,0.75,Stimuli\ImageFiles-Set1\Scenes\Scenes_041.png,0,0,0,206,206,206,,,,,,,,,,,,,126.02648770000087,0.026487700000870973,None,,172.12742040000012,172.12742040000012,172.12742040000012,172.12742040000012,172.12742040000012,172.12742040000012,172.12742040000012,172.12742040000012,001,P003,2025_Jan_18_1131,CategoryLocalizer,2021.2.3,59.94632406140874,
126.8,127.0,5,0.0,Stimuli\Blank.png,0,0,0,207,207,207,,,,,,,,,,,,,126.81220850000136,0.012208500001364087,None,,172.92812559999948,172.92812559999948,172.92812559999948,172.92812559999948,172.92812559999948,172.92812559999948,172.92812559999948,172.92812559999948,001,P003,2025_Jan_18_1131,CategoryLocalizer,2021.2.3,59.94632406140874,
127.0,127.8,4,0.75,Stimuli\ImageFiles-Set1\Scenes\Scenes_013.png,0,0,0,208,208,208,,,,,,,,,,,,,127.0283743,0.028374299999995856,None,,173.1449733999998,173.1449733999998,173.1449733999998,173.1449733999998,173.1449733999998,173.1449733999998,173.1449733999998,173.1449733999998,001,P003,2025_Jan_18_1131,CategoryLocalizer,2021.2.3,59.94632406140874,
127.8,128.0,5,0.0,Stimuli\Blank.png,0,0,0,209,209,209,,,,,,,,,,,,,127.82833170000049,0.028331700000492788,5,0.1465408000003663,173.92900599999848,173.92900599999848,173.92900599999848,173.92900599999848,173.92900599999848,173.92900599999848,173.92900599999848,173.92900599999848,001,P003,2025_Jan_18_1131,CategoryLocalizer,2021.2.3,59.94632406140874,
128.0,128.8,4,0.75,Stimuli\ImageFiles-Set1\Scenes\Scenes_036.png,0,0,0,210,210,210,,,,,,,,,,,,,128.01215140000022,0.012151400000220747,None,,174.11249979999957,174.11249979999957,174.11249979999957,174.11249979999957,174.11249979999957,174.11249979999957,174.11249979999957,174.11249979999957,001,P003,2025_Jan_18_1131,CategoryLocalizer,2021.2.3,59.94632406140874,
128.8,129.0,5,0.0,Stimuli\Blank.png,0,0,0,211,211,211,,,,,,,,,,,,,128.81327280000005,0.013272800000038387,None,,174.91321739999876,174.91321739999876,174.91321739999876,174.91321739999876,174.91321739999876,174.91321739999876,174.91321739999876,174.91321739999876,001,P003,2025_Jan_18_1131,CategoryLocalizer,2021.2.3,59.94632406140874,
129.0,129.8,4,0.75,Stimuli\ImageFiles-Set1\Scenes\Scenes_036.png,1,1,0,212,212,212,,,,,,,,,,,,,129.0122549000007,0.012254900000698399,1,0.5852375000013126,175.11338859999887,175.11338859999887,175.11338859999887,175.11338859999887,175.11338859999887,175.11338859999887,175.11338859999887,175.11338859999887,001,P003,2025_Jan_18_1131,CategoryLocalizer,2021.2.3,59.94632406140874,
129.8,130.0,5,0.0,Stimuli\Blank.png,0,0,0,213,213,213,,,,,,,,,,,,,129.813822600001,0.013822600000992225,5,0.16157939999902737,175.9140650999998,175.9140650999998,175.9140650999998,175.9140650999998,175.9140650999998,175.9140650999998,175.9140650999998,175.9140650999998,001,P003,2025_Jan_18_1131,CategoryLocalizer,2021.2.3,59.94632406140874,
130.0,130.8,4,0.75,Stimuli\ImageFiles-Set1\Scenes\Scenes_059.png,0,0,0,214,214,214,,,,,,,,,,,,,130.01363350000065,0.013633500000651111,None,,176.13096229999974,176.13096229999974,176.13096229999974,176.13096229999974,176.13096229999974,176.13096229999974,176.13096229999974,176.13096229999974,001,P003,2025_Jan_18_1131,CategoryLocalizer,2021.2.3,59.94632406140874,
130.8,131.0,5,0.0,Stimuli\Blank.png,0,0,0,215,215,215,,,,,,,,,,,,,130.83186940000087,0.031869400000857695,None,,176.93165129999943,176.93165129999943,176.93165129999943,176.93165129999943,176.93165129999943,176.93165129999943,176.93165129999943,176.93165129999943,001,P003,2025_Jan_18_1131,CategoryLocalizer,2021.2.3,59.94632406140874,
131.0,131.8,4,0.75,Stimuli\ImageFiles-Set1\Scenes\Scenes_049.png,0,0,0,216,216,216,,,,,,,,,,,,,131.0143895000001,0.014389500000106636,None,,177.11514429999988,177.11514429999988,177.11514429999988,177.11514429999988,177.11514429999988,177.11514429999988,177.11514429999988,177.11514429999988,001,P003,2025_Jan_18_1131,CategoryLocalizer,2021.2.3,59.94632406140874,
131.8,132.0,5,0.0,Stimuli\Blank.png,0,0,0,217,217,217,,,,,,,,,,,,,131.8153527000013,0.0153527000013014,5,0.15975459999935993,177.91585010000017,177.91585010000017,177.91585010000017,177.91585010000017,177.91585010000017,177.91585010000017,177.91585010000017,177.91585010000017,001,P003,2025_Jan_18_1131,CategoryLocalizer,2021.2.3,59.94632406140874,
132.0,132.8,4,0.75,Stimuli\ImageFiles-Set1\Scenes\Scenes_026.png,0,0,0,218,218,218,,,,,,,,,,,,,132.01573540000027,0.015735400000266964,None,,178.11602839999978,178.11602839999978,178.11602839999978,178.11602839999978,178.11602839999978,178.11602839999978,178.11602839999978,178.11602839999978,001,P003,2025_Jan_18_1131,CategoryLocalizer,2021.2.3,59.94632406140874,
132.8,133.0,5,0.0,Stimuli\Blank.png,0,0,0,219,219,219,,,,,,,,,,,,,132.79964560000008,-0.00035439999993513993,None,,178.90004859999863,178.90004859999863,178.90004859999863,178.90004859999863,178.90004859999863,178.90004859999863,178.90004859999863,178.90004859999863,001,P003,2025_Jan_18_1131,CategoryLocalizer,2021.2.3,59.94632406140874,
133.0,133.8,4,0.75,Stimuli\ImageFiles-Set1\Scenes\Scenes_029.png,0,0,0,220,220,220,,,,,,,,,,,,,132.99933659999988,-0.000663400000121328,None,,179.10022089999984,179.10022089999984,179.10022089999984,179.10022089999984,179.10022089999984,179.10022089999984,179.10022089999984,179.10022089999984,001,P003,2025_Jan_18_1131,CategoryLocalizer,2021.2.3,59.94632406140874,
133.8,134.0,5,0.0,Stimuli\Blank.png,0,0,0,221,221,221,,,,,,,,,,,,,133.80226310000035,0.0022631000003343615,5,0.15793370000028517,179.91762769999877,179.91762769999877,179.91762769999877,179.91762769999877,179.91762769999877,179.91762769999877,179.91762769999877,179.91762769999877,001,P003,2025_Jan_18_1131,CategoryLocalizer,2021.2.3,59.94632406140874,
134.0,134.8,4,0.75,Stimuli\ImageFiles-Set1\Scenes\Scenes_004.png,0,0,0,222,222,222,,,,,,,,,,,,,134.01714580000043,0.017145800000434974,None,,180.1177934999996,180.1177934999996,180.1177934999996,180.1177934999996,180.1177934999996,180.1177934999996,180.1177934999996,180.1177934999996,001,P003,2025_Jan_18_1131,CategoryLocalizer,2021.2.3,59.94632406140874,
134.8,135.0,5,0.0,Stimuli\Blank.png,0,0,0,223,223,223,,,,,,,,,,,,,134.8026856000015,0.002685600001484545,None,,180.91849729999922,180.91849729999922,180.91849729999922,180.91849729999922,180.91849729999922,180.91849729999922,180.91849729999922,180.91849729999922,001,P003,2025_Jan_18_1131,CategoryLocalizer,2021.2.3,59.94632406140874,
135.0,135.8,4,0.75,Stimuli\ImageFiles-Set1\Scenes\Scenes_032.png,0,0,0,224,224,224,,,,,,,,,,,,,135.01891830000022,0.0189183000002231,None,,181.1353479999998,181.1353479999998,181.1353479999998,181.1353479999998,181.1353479999998,181.1353479999998,181.1353479999998,181.1353479999998,001,P003,2025_Jan_18_1131,CategoryLocalizer,2021.2.3,59.94632406140874,
135.8,136.0,5,0.0,Stimuli\Blank.png,0,0,0,225,225,225,,,,,,,,,,,,,135.81823609999992,0.018236099999910493,None,,181.9193781999984,181.9193781999984,181.9193781999984,181.9193781999984,181.9193781999984,181.9193781999984,181.9193781999984,181.9193781999984,001,P003,2025_Jan_18_1131,CategoryLocalizer,2021.2.3,59.94632406140874,
136.0,136.8,2,0.75,Stimuli\ImageFiles-Set1\Bodies\Bodies_SittingChair_00005.png,0,0,0,226,226,226,,,,,,,,,,,,,136.0037026000009,0.0037026000009063864,None,,182.11954389999846,182.11954389999846,182.11954389999846,182.11954389999846,182.11954389999846,182.11954389999846,182.11954389999846,182.11954389999846,001,P003,2025_Jan_18_1131,CategoryLocalizer,2021.2.3,59.94632406140874,
136.8,137.0,5,0.0,Stimuli\Blank.png,0,0,0,227,227,227,,,,,,,,,,,,,136.81964979999975,0.01964979999974048,None,,182.92025039999862,182.92025039999862,182.92025039999862,182.92025039999862,182.92025039999862,182.92025039999862,182.92025039999862,182.92025039999862,001,P003,2025_Jan_18_1131,CategoryLocalizer,2021.2.3,59.94632406140874,
137.0,137.8,2,0.75,Stimuli\ImageFiles-Set1\Bodies\Bodies_SittingFloor_00007.png,0,0,0,228,228,228,,,,,,,,,,,,,137.00353450000148,0.003534500001478591,None,,183.12045109999963,183.12045109999963,183.12045109999963,183.12045109999963,183.12045109999963,183.12045109999963,183.12045109999963,183.12045109999963,001,P003,2025_Jan_18_1131,CategoryLocalizer,2021.2.3,59.94632406140874,
137.8,138.0,5,0.0,Stimuli\Blank.png,0,0,0,229,229,229,,,,,,,,,,,,,137.82258170000023,0.022581700000216642,5,0.1378114999988611,183.93783709999843,183.93783709999843,183.93783709999843,183.93783709999843,183.93783709999843,183.93783709999843,183.93783709999843,183.93783709999843,001,P003,2025_Jan_18_1131,CategoryLocalizer,2021.2.3,59.94632406140874,
138.0,138.8,2,0.75,Stimuli\ImageFiles-Set1\Bodies\Bodies_SittingFloor_00007.png,1,1,0,230,230,230,,,,,,,,,,,,,138.02099400000043,0.02099400000042806,1,0.6078421000001981,184.13798849999876,184.13798849999876,184.13798849999876,184.13798849999876,184.13798849999876,184.13798849999876,184.13798849999876,184.13798849999876,001,P003,2025_Jan_18_1131,CategoryLocalizer,2021.2.3,59.94632406140874,
138.8,139.0,5,0.0,Stimuli\Blank.png,0,0,0,231,231,231,,,,,,,,,,,,,138.8229545000013,0.0229545000012763,None,,184.9387201999998,184.9387201999998,184.9387201999998,184.9387201999998,184.9387201999998,184.9387201999998,184.9387201999998,184.9387201999998,001,P003,2025_Jan_18_1131,CategoryLocalizer,2021.2.3,59.94632406140874,
139.0,139.8,2,0.75,Stimuli\ImageFiles-Set1\Bodies\Bodies_Falling_00006.png,0,0,0,232,232,232,,,,,,,,,,,,,139.0233121000001,0.023312100000111968,None,,185.13894989999972,185.13894989999972,185.13894989999972,185.13894989999972,185.13894989999972,185.13894989999972,185.13894989999972,185.13894989999972,001,P003,2025_Jan_18_1131,CategoryLocalizer,2021.2.3,59.94632406140874,
139.8,140.0,5,0.0,Stimuli\Blank.png,0,0,0,233,233,233,,,,,,,,,,,,,139.82303090000096,0.023030900000946986,None,,185.92292469999848,185.92292469999848,185.92292469999848,185.92292469999848,185.92292469999848,185.92292469999848,185.92292469999848,185.92292469999848,001,P003,2025_Jan_18_1131,CategoryLocalizer,2021.2.3,59.94632406140874,
140.0,140.8,2,0.75,Stimuli\ImageFiles-Set1\Bodies\Bodies_Running_00006.png,0,0,0,234,234,234,,,,,,,,,,,,,140.00607950000085,0.006079500000851112,None,,186.1063901999987,186.1063901999987,186.1063901999987,186.1063901999987,186.1063901999987,186.1063901999987,186.1063901999987,186.1063901999987,001,P003,2025_Jan_18_1131,CategoryLocalizer,2021.2.3,59.94632406140874,
140.8,141.0,5,0.0,Stimuli\Blank.png,0,0,0,235,235,235,,,,,,,,,,,,,140.80768060000082,0.0076806000008105,None,,186.92379509999955,186.92379509999955,186.92379509999955,186.92379509999955,186.92379509999955,186.92379509999955,186.92379509999955,186.92379509999955,001,P003,2025_Jan_18_1131,CategoryLocalizer,2021.2.3,59.94632406140874,
141.0,141.8,2,0.75,Stimuli\ImageFiles-Set1\Bodies\Bodies_CobraPose_00003.png,0,0,0,236,236,236,,,,,,,,,,,,,141.02397460000066,0.02397460000065621,None,,187.1406293,187.1406293,187.1406293,187.1406293,187.1406293,187.1406293,187.1406293,187.1406293,001,P003,2025_Jan_18_1131,CategoryLocalizer,2021.2.3,59.94632406140874,
141.8,142.0,5,0.0,Stimuli\Blank.png,0,0,0,237,237,237,,,,,,,,,,,,,141.8245351000005,0.02453510000049164,5,0.15098849999958475,187.9246590999992,187.9246590999992,187.9246590999992,187.9246590999992,187.9246590999992,187.9246590999992,187.9246590999992,187.9246590999992,001,P003,2025_Jan_18_1131,CategoryLocalizer,2021.2.3,59.94632406140874,
142.0,142.8,2,0.75,Stimuli\ImageFiles-Set1\Bodies\Bodies_Standing_00003.png,0,0,0,238,238,238,,,,,,,,,,,,,142.00741000000016,0.0074100000001635635,None,,188.1081927999985,188.1081927999985,188.1081927999985,188.1081927999985,188.1081927999985,188.1081927999985,188.1081927999985,188.1081927999985,001,P003,2025_Jan_18_1131,CategoryLocalizer,2021.2.3,59.94632406140874,
142.8,143.0,5,0.0,Stimuli\Blank.png,0,0,0,239,239,239,,,,,,,,,,,,,142.80813710000075,0.008137100000737973,None,,188.9088619999984,188.9088619999984,188.9088619999984,188.9088619999984,188.9088619999984,188.9088619999984,188.9088619999984,188.9088619999984,001,P003,2025_Jan_18_1131,CategoryLocalizer,2021.2.3,59.94632406140874,
143.0,143.8,2,0.75,Stimuli\ImageFiles-Set1\Bodies\Bodies_SittingStretch_00005.png,0,0,0,240,240,240,,,,,,,,,,,,,143.00870840000061,0.008708400000614347,None,,189.1090306999995,189.1090306999995,189.1090306999995,189.1090306999995,189.1090306999995,189.1090306999995,189.1090306999995,189.1090306999995,001,P003,2025_Jan_18_1131,CategoryLocalizer,2021.2.3,59.94632406140874,
143.8,144.0,5,0.0,Stimuli\Blank.png,0,0,0,241,241,241,,,,,,,,,,,,,143.80949230000078,0.009492300000772502,5,0.1659163999993325,189.9097260999988,189.9097260999988,189.9097260999988,189.9097260999988,189.9097260999988,189.9097260999988,189.9097260999988,189.9097260999988,001,P003,2025_Jan_18_1131,CategoryLocalizer,2021.2.3,59.94632406140874,
144.0,144.8,2,0.75,Stimuli\ImageFiles-Set1\Bodies\Bodies_Punching_00001.png,0,0,0,242,242,242,,,,,,,,,,,,,144.0092292999998,0.009229299999788054,None,,190.1099110999985,190.1099110999985,190.1099110999985,190.1099110999985,190.1099110999985,190.1099110999985,190.1099110999985,190.1099110999985,001,P003,2025_Jan_18_1131,CategoryLocalizer,2021.2.3,59.94632406140874,
144.8,145.0,5,0.0,Stimuli\Blank.png,0,0,0,243,243,243,,,,,,,,,,,,,144.81037680000009,0.010376800000074127,None,,190.91063119999853,190.91063119999853,190.91063119999853,190.91063119999853,190.91063119999853,190.91063119999853,190.91063119999853,190.91063119999853,001,P003,2025_Jan_18_1131,CategoryLocalizer,2021.2.3,59.94632406140874,
145.0,145.8,2,0.75,Stimuli\ImageFiles-Set1\Bodies\Bodies_DownwardDog_00006.png,0,0,0,244,244,244,,,,,,,,,,,,,145.01226570000108,0.012265700001080404,None,,191.12747369999852,191.12747369999852,191.12747369999852,191.12747369999852,191.12747369999852,191.12747369999852,191.12747369999852,191.12747369999852,001,P003,2025_Jan_18_1131,CategoryLocalizer,2021.2.3,59.94632406140874,
145.8,146.0,5,0.0,Stimuli\Blank.png,0,0,0,245,245,245,,,,,,,,,,,,,145.8273396000004,0.027339600000402697,5,0.1473955000001297,191.92818119999902,191.92818119999902,191.92818119999902,191.92818119999902,191.92818119999902,191.92818119999902,191.92818119999902,191.92818119999902,001,P003,2025_Jan_18_1131,CategoryLocalizer,2021.2.3,59.94632406140874,
146.0,146.8,2,0.75,Stimuli\ImageFiles-Set1\Bodies\Bodies_CobraPose_00005.png,0,0,0,246,246,246,,,,,,,,,,,,,146.01139830000102,0.011398300001019379,None,,192.11168559999896,192.11168559999896,192.11168559999896,192.11168559999896,192.11168559999896,192.11168559999896,192.11168559999896,192.11168559999896,001,P003,2025_Jan_18_1131,CategoryLocalizer,2021.2.3,59.94632406140874,
146.8,147.0,5,0.0,Stimuli\Blank.png,0,0,0,247,247,247,,,,,,,,,,,,,146.81192350000128,0.011923500001273624,None,,192.91235669999878,192.91235669999878,192.91235669999878,192.91235669999878,192.91235669999878,192.91235669999878,192.91235669999878,192.91235669999878,001,P003,2025_Jan_18_1131,CategoryLocalizer,2021.2.3,59.94632406140874,
147.0,147.8,2,0.75,Stimuli\ImageFiles-Set1\Bodies\Bodies_Walking_00002.png,0,0,0,248,248,248,,,,,,,,,,,,,147.0123945000014,0.012394500001391862,None,,193.11256559999856,193.11256559999856,193.11256559999856,193.11256559999856,193.11256559999856,193.11256559999856,193.11256559999856,193.11256559999856,001,P003,2025_Jan_18_1131,CategoryLocalizer,2021.2.3,59.94632406140874,
147.8,148.0,5,0.0,Stimuli\Blank.png,0,0,0,249,249,249,,,,,,,,,,,,,147.8132325000006,0.013232500000583514,5,0.1622525000002497,193.91327699999965,193.91327699999965,193.91327699999965,193.91327699999965,193.91327699999965,193.91327699999965,193.91327699999965,193.91327699999965,001,P003,2025_Jan_18_1131,CategoryLocalizer,2021.2.3,59.94632406140874,
148.0,148.8,2,0.75,Stimuli\ImageFiles-Set1\Bodies\Bodies_Standing_00001.png,0,0,0,250,250,250,,,,,,,,,,,,,148.01325200000065,0.013252000000647968,None,,194.11343579999993,194.11343579999993,194.11343579999993,194.11343579999993,194.11343579999993,194.11343579999993,194.11343579999993,194.11343579999993,001,P003,2025_Jan_18_1131,CategoryLocalizer,2021.2.3,59.94632406140874,
148.8,149.0,5,0.0,Stimuli\Blank.png,0,0,0,251,251,251,,,,,,,,,,,,,148.81349750000118,0.013497500001165008,None,,194.91415029999916,194.91415029999916,194.91415029999916,194.91415029999916,194.91415029999916,194.91415029999916,194.91415029999916,194.91415029999916,001,P003,2025_Jan_18_1131,CategoryLocalizer,2021.2.3,59.94632406140874,
149.0,149.8,2,0.75,Stimuli\ImageFiles-Set1\Bodies\Bodies_QuadStretch_00001.png,0,0,0,252,252,252,,,,,,,,,,,,,149.01394670000082,0.013946700000815326,None,,195.11431079999966,195.11431079999966,195.11431079999966,195.11431079999966,195.11431079999966,195.11431079999966,195.11431079999966,195.11431079999966,001,P003,2025_Jan_18_1131,CategoryLocalizer,2021.2.3,59.94632406140874,
149.8,150.0,5,0.0,Stimuli\Blank.png,0,0,0,253,253,253,,,,,,,,,,,,,149.81466050000017,0.014660500000161392,5,0.1606484999992972,195.91502889999902,195.91502889999902,195.91502889999902,195.91502889999902,195.91502889999902,195.91502889999902,195.91502889999902,195.91502889999902,001,P003,2025_Jan_18_1131,CategoryLocalizer,2021.2.3,59.94632406140874,
150.0,150.8,2,0.75,Stimuli\ImageFiles-Set1\Bodies\Bodies_QuadStretch_00005.png,0,0,0,254,254,254,,,,,,,,,,,,,150.01424880000013,0.014248800000132178,None,,196.11518949999845,196.11518949999845,196.11518949999845,196.11518949999845,196.11518949999845,196.11518949999845,196.11518949999845,196.11518949999845,001,P003,2025_Jan_18_1131,CategoryLocalizer,2021.2.3,59.94632406140874,
150.8,151.0,5,0.0,Stimuli\Blank.png,0,0,0,255,255,255,,,,,,,,,,,,,150.81582890000027,0.015828900000258272,None,,196.91592599999967,196.91592599999967,196.91592599999967,196.91592599999967,196.91592599999967,196.91592599999967,196.91592599999967,196.91592599999967,001,P003,2025_Jan_18_1131,CategoryLocalizer,2021.2.3,59.94632406140874,
151.0,151.8,2,0.75,Stimuli\ImageFiles-Set1\Bodies\Bodies_Kicking_00005.png,0,0,0,256,256,256,,,,,,,,,,,,,150.99891300000127,-0.0010869999987335177,None,,197.09939759999907,197.09939759999907,197.09939759999907,197.09939759999907,197.09939759999907,197.09939759999907,197.09939759999907,197.09939759999907,001,P003,2025_Jan_18_1131,CategoryLocalizer,2021.2.3,59.94632406140874,
151.8,152.0,5,0.0,Stimuli\Blank.png,0,0,0,257,257,257,,,,,,,,,,,,,151.79979470000035,-0.00020529999966356627,None,,197.90011139999842,197.90011139999842,197.90011139999842,197.90011139999842,197.90011139999842,197.90011139999842,197.90011139999842,197.90011139999842,001,P003,2025_Jan_18_1131,CategoryLocalizer,2021.2.3,59.94632406140874,
152.0,164.0,0,0.0,Stimuli\Blank.png,0,0,0,258,258,258,,,,,,,,,,,,,151.99960880000071,-0.00039119999928516336,5,11.975175800000216,198.1002787999987,198.1002787999987,198.1002787999987,198.1002787999987,198.1002787999987,198.1002787999987,198.1002787999987,198.1002787999987,001,P003,2025_Jan_18_1131,CategoryLocalizer,2021.2.3,59.94632406140874,
164.0,164.8,4,0.75,Stimuli\ImageFiles-Set1\Scenes\Scenes_038.png,0,0,0,259,259,259,,,,,,,,,,,,,164.0099220000011,0.00992200000109733,None,,210.11084990000018,210.11084990000018,210.11084990000018,210.11084990000018,210.11084990000018,210.11084990000018,210.11084990000018,210.11084990000018,001,P003,2025_Jan_18_1131,CategoryLocalizer,2021.2.3,59.94632406140874,
164.8,165.0,5,0.0,Stimuli\Blank.png,0,0,0,260,260,260,,,,,,,,,,,,,164.81250660000114,0.012506600001131574,None,,210.92824929999915,210.92824929999915,210.92824929999915,210.92824929999915,210.92824929999915,210.92824929999915,210.92824929999915,210.92824929999915,001,P003,2025_Jan_18_1131,CategoryLocalizer,2021.2.3,59.94632406140874,
165.0,165.8,4,0.75,Stimuli\ImageFiles-Set1\Scenes\Scenes_050.png,0,0,0,261,261,261,,,,,,,,,,,,,165.02743920000103,0.02743920000102662,None,,211.12841399999888,211.12841399999888,211.12841399999888,211.12841399999888,211.12841399999888,211.12841399999888,211.12841399999888,211.12841399999888,001,P003,2025_Jan_18_1131,CategoryLocalizer,2021.2.3,59.94632406140874,
165.8,166.0,5,0.0,Stimuli\Blank.png,0,0,0,262,262,262,,,,,,,,,,,,,165.81229600000006,0.012296000000048934,5,0.16299650000109978,211.91255939999974,211.91255939999974,211.91255939999974,211.91255939999974,211.91255939999974,211.91255939999974,211.91255939999974,211.91255939999974,001,P003,2025_Jan_18_1131,CategoryLocalizer,2021.2.3,59.94632406140874,
166.0,166.8,4,0.75,Stimuli\ImageFiles-Set1\Scenes\Scenes_044.png,0,0,0,263,263,263,,,,,,,,,,,,,166.01305000000139,0.013050000001385342,None,,212.12928739999916,212.12928739999916,212.12928739999916,212.12928739999916,212.12928739999916,212.12928739999916,212.12928739999916,212.12928739999916,001,P003,2025_Jan_18_1131,CategoryLocalizer,2021.2.3,59.94632406140874,
166.8,167.0,5,0.0,Stimuli\Blank.png,0,0,0,264,264,264,,,,,,,,,,,,,166.82931480000116,0.029314800001145613,None,,212.93000070000016,212.93000070000016,212.93000070000016,212.93000070000016,212.93000070000016,212.93000070000016,212.93000070000016,212.93000070000016,001,P003,2025_Jan_18_1131,CategoryLocalizer,2021.2.3,59.94632406140874,
167.0,167.8,4,0.75,Stimuli\ImageFiles-Set1\Scenes\Scenes_044.png,1,1,0,265,265,265,,,,,,,,,,,,,167.01320459999988,0.013204599999880884,1,0.6402856999993674,213.13016309999875,213.13016309999875,213.13016309999875,213.13016309999875,213.13016309999875,213.13016309999875,213.13016309999875,213.13016309999875,001,P003,2025_Jan_18_1131,CategoryLocalizer,2021.2.3,59.94632406140874,
167.8,168.0,5,0.0,Stimuli\Blank.png,0,0,0,266,266,266,,,,,,,,,,,,,167.83242560000144,0.032425600001431576,5,0.12787720000051195,213.9475883999985,213.9475883999985,213.9475883999985,213.9475883999985,213.9475883999985,213.9475883999985,213.9475883999985,213.9475883999985,001,P003,2025_Jan_18_1131,CategoryLocalizer,2021.2.3,59.94632406140874,
168.0,168.8,4,0.75,Stimuli\ImageFiles-Set1\Scenes\Scenes_057.png,0,0,0,267,267,267,,,,,,,,,,,,,168.0141003000008,0.014100300000791322,None,,214.11440969999967,214.11440969999967,214.11440969999967,214.11440969999967,214.11440969999967,214.11440969999967,214.11440969999967,214.11440969999967,001,P003,2025_Jan_18_1131,CategoryLocalizer,2021.2.3,59.94632406140874,
168.8,169.0,5,0.0,Stimuli\Blank.png,0,0,0,268,268,268,,,,,,,,,,,,,168.8148068999999,0.014806899999882717,None,,214.9150797000002,214.9150797000002,214.9150797000002,214.9150797000002,214.9150797000002,214.9150797000002,214.9150797000002,214.9150797000002,001,P003,2025_Jan_18_1131,CategoryLocalizer,2021.2.3,59.94632406140874,
169.0,169.8,4,0.75,Stimuli\ImageFiles-Set1\Scenes\Scenes_031.png,0,0,0,269,269,269,,,,,,,,,,,,,169.01434380000137,0.014343800001370255,None,,215.1152465999985,215.1152465999985,215.1152465999985,215.1152465999985,215.1152465999985,215.1152465999985,215.1152465999985,215.1152465999985,001,P003,2025_Jan_18_1131,CategoryLocalizer,2021.2.3,59.94632406140874,
169.8,170.0,5,0.0,Stimuli\Blank.png,0,0,0,270,270,270,,,,,,,,,,,,,169.81498980000106,0.01498980000104666,5,0.15951240000140388,215.91595719999896,215.91595719999896,215.91595719999896,215.91595719999896,215.91595719999896,215.91595719999896,215.91595719999896,215.91595719999896,001,P003,2025_Jan_18_1131,CategoryLocalizer,2021.2.3,59.94632406140874,
170.0,170.8,4,0.75,Stimuli\ImageFiles-Set1\Scenes\Scenes_009.png,0,0,0,271,271,271,,,,,,,,,,,,,170.0173706000005,0.017370600000504055,None,,216.13281909999932,216.13281909999932,216.13281909999932,216.13281909999932,216.13281909999932,216.13281909999932,216.13281909999932,216.13281909999932,001,P003,2025_Jan_18_1131,CategoryLocalizer,2021.2.3,59.94632406140874,
170.8,171.0,5,0.0,Stimuli\Blank.png,0,0,0,272,272,272,,,,,,,,,,,,,170.81815000000097,0.01815000000095779,None,,216.93353229999957,216.93353229999957,216.93353229999957,216.93353229999957,216.93353229999957,216.93353229999957,216.93353229999957,216.93353229999957,001,P003,2025_Jan_18_1131,CategoryLocalizer,2021.2.3,59.94632406140874,
171.0,171.8,4,0.75,Stimuli\ImageFiles-Set1\Scenes\Scenes_020.png,0,0,0,273,273,273,,,,,,,,,,,,,171.01821010000094,0.018210100000942475,None,,217.1336969999993,217.1336969999993,217.1336969999993,217.1336969999993,217.1336969999993,217.1336969999993,217.1336969999993,217.1336969999993,001,P003,2025_Jan_18_1131,CategoryLocalizer,2021.2.3,59.94632406140874,
171.8,172.0,5,0.0,Stimuli\Blank.png,0,0,0,274,274,274,,,,,,,,,,,,,171.81785149999996,0.017851499999949283,None,,217.91772479999963,217.91772479999963,217.91772479999963,217.91772479999963,217.91772479999963,217.91772479999963,217.91772479999963,217.91772479999963,001,P003,2025_Jan_18_1131,CategoryLocalizer,2021.2.3,59.94632406140874,
172.0,172.8,4,0.75,Stimuli\ImageFiles-Set1\Scenes\Scenes_033.png,0,0,0,275,275,275,,,,,,,,,,,,,172.00264290000086,0.0026429000008647563,None,,218.1178903,218.1178903,218.1178903,218.1178903,218.1178903,218.1178903,218.1178903,218.1178903,001,P003,2025_Jan_18_1131,CategoryLocalizer,2021.2.3,59.94632406140874,
172.8,173.0,5,0.0,Stimuli\Blank.png,0,0,0,276,276,276,,,,,,,,,,,,,172.81819340000038,0.01819340000037073,None,,218.91861029999927,218.91861029999927,218.91861029999927,218.91861029999927,218.91861029999927,218.91861029999927,218.91861029999927,218.91861029999927,001,P003,2025_Jan_18_1131,CategoryLocalizer,2021.2.3,59.94632406140874,
173.0,173.8,4,0.75,Stimuli\ImageFiles-Set1\Scenes\Scenes_014.png,0,0,0,277,277,277,,,,,,,,,,,,,173.00123820000044,0.0012382000004436122,None,,219.1020895999991,219.1020895999991,219.1020895999991,219.1020895999991,219.1020895999991,219.1020895999991,219.1020895999991,219.1020895999991,001,P003,2025_Jan_18_1131,CategoryLocalizer,2021.2.3,59.94632406140874,
173.8,174.0,5,0.0,Stimuli\Blank.png,0,0,0,278,278,278,,,,,,,,,,,,,173.80209670000113,0.002096700001118279,None,,219.9028013999996,219.9028013999996,219.9028013999996,219.9028013999996,219.9028013999996,219.9028013999996,219.9028013999996,219.9028013999996,001,P003,2025_Jan_18_1131,CategoryLocalizer,2021.2.3,59.94632406140874,
174.0,174.8,4,0.75,Stimuli\ImageFiles-Set1\Scenes\Scenes_018.png,0,0,0,279,279,279,,,,,,,,,,,,,174.00240120000126,0.002401200001258985,None,,220.1196777999994,220.1196777999994,220.1196777999994,220.1196777999994,220.1196777999994,220.1196777999994,220.1196777999994,220.1196777999994,001,P003,2025_Jan_18_1131,CategoryLocalizer,2021.2.3,59.94632406140874,
174.8,175.0,5,0.0,Stimuli\Blank.png,0,0,0,280,280,280,,,,,,,,,,,,,174.81929730000047,0.019297300000459927,None,,220.92035919999944,220.92035919999944,220.92035919999944,220.92035919999944,220.92035919999944,220.92035919999944,220.92035919999944,220.92035919999944,001,P003,2025_Jan_18_1131,CategoryLocalizer,2021.2.3,59.94632406140874,
175.0,175.8,4,0.75,Stimuli\ImageFiles-Set1\Scenes\Scenes_024.png,1,1,0,281,281,281,,,,,,,,,,,,,175.00280660000135,0.0028066000013495795,None,,221.1038654999993,221.1038654999993,221.1038654999993,221.1038654999993,221.1038654999993,221.1038654999993,221.1038654999993,221.1038654999993,001,P003,2025_Jan_18_1131,CategoryLocalizer,2021.2.3,59.94632406140874,
175.8,176.0,5,0.0,Stimuli\Blank.png,0,0,0,282,282,282,,,,,,,,,,,,,175.8039903000008,0.003990300000793923,None,,221.90455250000014,221.90455250000014,221.90455250000014,221.90455250000014,221.90455250000014,221.90455250000014,221.90455250000014,221.90455250000014,001,P003,2025_Jan_18_1131,CategoryLocalizer,2021.2.3,59.94632406140874,
176.0,176.8,4,0.75,Stimuli\ImageFiles-Set1\Scenes\Scenes_048.png,0,0,0,283,283,283,,,,,,,,,,,,,176.00451840000096,0.004518400000961265,None,,222.12142419999873,222.12142419999873,222.12142419999873,222.12142419999873,222.12142419999873,222.12142419999873,222.12142419999873,222.12142419999873,001,P003,2025_Jan_18_1131,CategoryLocalizer,2021.2.3,59.94632406140874,
