eventStartTime,eventEndTime,eventCond,imSize,imFile,repeatedImage,responseEvent,Events.thisRepN,Events.thisTrialN,Events.thisN,Events.thisIndex,Instructions.started,Instructions.stopped,participantReadyResponse.keys,participantReadyResponse.rt,participantReadyResponse.started,participantReadyResponse.stopped,startWaitforTrigger,triggerResponse.keys,triggerResponse.rt,triggerResponse.started,triggerResponse.stopped,globalTimer,actualStartTime,startTimingDiff,participantResponse.keys,participantResponse.rt,participantResponse.started,participantResponse.stopped,image.started,image.stopped,fixationOutside.started,fixationOutside.stopped,fixationInside.started,fixationInside.stopped,session,participant,date,expName,psychopyVersion,frameRate,
,,,,,,,,,,,11.029848500000298,None,1,0.47560840000005555,11.029848500000298,None,,,,,,,,,,,,,,,,,,,002,P003,2025_Jan_18_1201,CategoryLocalizer,2021.2.3,59.93888631171721,
,,,,,,,,,,,,,,,,,11.514332099999592,5,14.920476400000553,11.526858400000492,None,,,,,,,,,,,,,,002,P003,2025_Jan_18_1201,CategoryLocalizer,2021.2.3,59.93888631171721,
0.0,12.0,0,0.0,Stimuli\Blank.png,0,0,0,0,0,0,,,,,,,,,,,,26.460472599999775,0.0556073000007018,0.0556073000007018,5,11.907117099999596,26.54015690000051,None,26.54015690000051,None,26.54015690000051,None,26.54015690000051,None,002,P003,2025_Jan_18_1201,CategoryLocalizer,2021.2.3,59.93888631171721,
12.0,12.8,1,0.75,Stimuli\ImageFiles-Set2\Objects\Object_Mailbox_00001.png,0,0,0,1,1,1,,,,,,,,,,,,,12.010877999999138,0.01087799999913841,None,,38.48400080000101,38.48400080000101,38.48400080000101,38.48400080000101,38.48400080000101,38.48400080000101,38.48400080000101,38.48400080000101,002,P003,2025_Jan_18_1201,CategoryLocalizer,2021.2.3,59.93888631171721,
12.8,13.0,5,0.0,Stimuli\Blank.png,0,0,0,2,2,2,,,,,,,,,,,,,12.809925899999143,0.009925899999142729,None,,39.28470170000037,39.28470170000037,39.28470170000037,39.28470170000037,39.28470170000037,39.28470170000037,39.28470170000037,39.28470170000037,002,P003,2025_Jan_18_1201,CategoryLocalizer,2021.2.3,59.93888631171721,
13.0,13.8,1,0.75,Stimuli\ImageFiles-Set2\Objects\Object_Coffee_00001.png,0,0,0,3,3,3,,,,,,,,,,,,,13.012229899999511,0.012229899999510963,None,,39.501573699999426,39.501573699999426,39.501573699999426,39.501573699999426,39.501573699999426,39.501573699999426,39.501573699999426,39.501573699999426,002,P003,2025_Jan_18_1201,CategoryLocalizer,2021.2.3,59.93888631171721,
13.8,14.0,5,0.0,Stimuli\Blank.png,0,0,0,4,4,4,,,,,,,,,,,,,13.827788799999325,0.02778879999932471,5,0.1449735000005603,40.302266799999416,40.302266799999416,40.302266799999416,40.302266799999416,40.302266799999416,40.302266799999416,40.302266799999416,40.302266799999416,002,P003,2025_Jan_18_1201,CategoryLocalizer,2021.2.3,59.93888631171721,
14.0,14.8,1,0.75,Stimuli\ImageFiles-Set2\Objects\Object_Champagne_00001.png,0,0,0,5,5,5,,,,,,,,,,,,,14.011359099999027,0.011359099999026512,None,,40.485758000000715,40.485758000000715,40.485758000000715,40.485758000000715,40.485758000000715,40.485758000000715,40.485758000000715,40.485758000000715,002,P003,2025_Jan_18_1201,CategoryLocalizer,2021.2.3,59.93888631171721,
14.8,15.0,5,0.0,Stimuli\Blank.png,0,0,0,6,6,6,,,,,,,,,,,,,14.812179799999285,0.012179799999284313,None,,41.286477900001046,41.286477900001046,41.286477900001046,41.286477900001046,41.286477900001046,41.286477900001046,41.286477900001046,41.286477900001046,002,P003,2025_Jan_18_1201,CategoryLocalizer,2021.2.3,59.93888631171721,
15.0,15.8,1,0.75,Stimuli\ImageFiles-Set2\Objects\Object_Boot_00001.png,0,0,0,7,7,7,,,,,,,,,,,,,15.012089800000467,0.012089800000467221,None,,41.50331759999972,41.50331759999972,41.50331759999972,41.50331759999972,41.50331759999972,41.50331759999972,41.50331759999972,41.50331759999972,002,P003,2025_Jan_18_1201,CategoryLocalizer,2021.2.3,59.93888631171721,
15.8,16.0,5,0.0,Stimuli\Blank.png,0,0,0,8,8,8,,,,,,,,,,,,,15.829531600000337,0.029531600000336056,5,0.1432022999997571,42.30403280000064,42.30403280000064,42.30403280000064,42.30403280000064,42.30403280000064,42.30403280000064,42.30403280000064,42.30403280000064,002,P003,2025_Jan_18_1201,CategoryLocalizer,2021.2.3,59.93888631171721,
16.0,16.8,1,0.75,Stimuli\ImageFiles-Set2\Objects\Object_Mug_00001.png,0,0,0,9,9,9,,,,,,,,,,,,,16.012902899999972,0.01290289999997185,None,,42.487521999999444,42.487521999999444,42.487521999999444,42.487521999999444,42.487521999999444,42.487521999999444,42.487521999999444,42.487521999999444,002,P003,2025_Jan_18_1201,CategoryLocalizer,2021.2.3,59.93888631171721,
16.8,17.0,5,0.0,Stimuli\Blank.png,0,0,0,10,10,10,,,,,,,,,,,,,16.813733299999512,0.013733299999511672,None,,43.28820000000087,43.28820000000087,43.28820000000087,43.28820000000087,43.28820000000087,43.28820000000087,43.28820000000087,43.28820000000087,002,P003,2025_Jan_18_1201,CategoryLocalizer,2021.2.3,59.93888631171721,
17.0,17.8,1,0.75,Stimuli\ImageFiles-Set2\Objects\Object_Sandal_00001.png,0,0,0,11,11,11,,,,,,,,,,,,,17.01355230000081,0.013552300000810646,None,,43.48840720000044,43.48840720000044,43.48840720000044,43.48840720000044,43.48840720000044,43.48840720000044,43.48840720000044,43.48840720000044,002,P003,2025_Jan_18_1201,CategoryLocalizer,2021.2.3,59.93888631171721,
17.8,18.0,5,0.0,Stimuli\Blank.png,0,0,0,12,12,12,,,,,,,,,,,,,17.81431580000026,0.014315800000257894,5,0.15826449999985925,44.28913450000073,44.28913450000073,44.28913450000073,44.28913450000073,44.28913450000073,44.28913450000073,44.28913450000073,44.28913450000073,002,P003,2025_Jan_18_1201,CategoryLocalizer,2021.2.3,59.93888631171721,
18.0,18.8,1,0.75,Stimuli\ImageFiles-Set2\Objects\Object_Pen_00001.png,0,0,0,13,13,13,,,,,,,,,,,,,18.014772799999264,0.014772799999263952,None,,44.48935010000059,44.48935010000059,44.48935010000059,44.48935010000059,44.48935010000059,44.48935010000059,44.48935010000059,44.48935010000059,002,P003,2025_Jan_18_1201,CategoryLocalizer,2021.2.3,59.93888631171721,
18.8,19.0,5,0.0,Stimuli\Blank.png,0,0,0,14,14,14,,,,,,,,,,,,,18.814833799999178,0.014833799999177444,None,,45.289990000001126,45.289990000001126,45.289990000001126,45.289990000001126,45.289990000001126,45.289990000001126,45.289990000001126,45.289990000001126,002,P003,2025_Jan_18_1201,CategoryLocalizer,2021.2.3,59.93888631171721,
19.0,19.8,1,0.75,Stimuli\ImageFiles-Set2\Objects\Object_Scissors_00001.png,0,0,0,15,15,15,,,,,,,,,,,,,19.01723259999926,0.017232599999260856,None,,45.50684850000107,45.50684850000107,45.50684850000107,45.50684850000107,45.50684850000107,45.50684850000107,45.50684850000107,45.50684850000107,002,P003,2025_Jan_18_1201,CategoryLocalizer,2021.2.3,59.93888631171721,
19.8,20.0,5,0.0,Stimuli\Blank.png,0,0,0,16,16,16,,,,,,,,,,,,,19.818055600000662,0.018055600000661087,5,0.13965680000001157,46.307562699999835,46.307562699999835,46.307562699999835,46.307562699999835,46.307562699999835,46.307562699999835,46.307562699999835,46.307562699999835,002,P003,2025_Jan_18_1201,CategoryLocalizer,2021.2.3,59.93888631171721,
20.0,20.8,1,0.75,Stimuli\ImageFiles-Set2\Objects\Object_Sponge_00001.png,0,0,0,17,17,17,,,,,,,,,,,,,20.01588289999927,0.015882899999269284,None,,46.49106370000118,46.49106370000118,46.49106370000118,46.49106370000118,46.49106370000118,46.49106370000118,46.49106370000118,46.49106370000118,002,P003,2025_Jan_18_1201,CategoryLocalizer,2021.2.3,59.93888631171721,
20.8,21.0,5,0.0,Stimuli\Blank.png,0,0,0,18,18,18,,,,,,,,,,,,,20.8024475000002,0.0024475000001977776,None,,47.29177280000113,47.29177280000113,47.29177280000113,47.29177280000113,47.29177280000113,47.29177280000113,47.29177280000113,47.29177280000113,002,P003,2025_Jan_18_1201,CategoryLocalizer,2021.2.3,59.93888631171721,
21.0,21.8,1,0.75,Stimuli\ImageFiles-Set2\Objects\Object_Ambulance_00001.png,0,0,0,19,19,19,,,,,,,,,,,,,21.0177036999994,0.01770369999940158,None,,47.50862740000048,47.50862740000048,47.50862740000048,47.50862740000048,47.50862740000048,47.50862740000048,47.50862740000048,47.50862740000048,002,P003,2025_Jan_18_1201,CategoryLocalizer,2021.2.3,59.93888631171721,
21.8,22.0,5,0.0,Stimuli\Blank.png,0,0,0,20,20,20,,,,,,,,,,,,,21.81855010000072,0.018550100000719993,None,,48.292641,48.292641,48.292641,48.292641,48.292641,48.292641,48.292641,48.292641,002,P003,2025_Jan_18_1201,CategoryLocalizer,2021.2.3,59.93888631171721,
22.0,22.8,1,0.75,Stimuli\ImageFiles-Set2\Objects\Object_Ambulance_00001.png,1,1,0,21,21,21,,,,,,,,,,,,,22.001475900000514,0.0014759000005142298,1,0.4254894999994576,48.476126400000794,48.476126400000794,48.476126400000794,48.476126400000794,48.476126400000794,48.476126400000794,48.476126400000794,48.476126400000794,002,P003,2025_Jan_18_1201,CategoryLocalizer,2021.2.3,59.93888631171721,
22.8,23.0,5,0.0,Stimuli\Blank.png,0,0,0,22,22,22,,,,,,,,,,,,,22.802612699999372,0.002612699999371415,None,,49.276830200000404,49.276830200000404,49.276830200000404,49.276830200000404,49.276830200000404,49.276830200000404,49.276830200000404,49.276830200000404,002,P003,2025_Jan_18_1201,CategoryLocalizer,2021.2.3,59.93888631171721,
23.0,23.8,1,0.75,Stimuli\ImageFiles-Set2\Objects\Object_Car_00001.png,0,0,0,23,23,23,,,,,,,,,,,,,23.001918199999636,0.001918199999636272,None,,49.477005000000645,49.477005000000645,49.477005000000645,49.477005000000645,49.477005000000645,49.477005000000645,49.477005000000645,49.477005000000645,002,P003,2025_Jan_18_1201,CategoryLocalizer,2021.2.3,59.93888631171721,
23.8,24.0,5,0.0,Stimuli\Blank.png,0,0,0,24,24,24,,,,,,,,,,,,,23.80289090000042,0.002890900000419805,None,,50.27771290000055,50.27771290000055,50.27771290000055,50.27771290000055,50.27771290000055,50.27771290000055,50.27771290000055,50.27771290000055,002,P003,2025_Jan_18_1201,CategoryLocalizer,2021.2.3,59.93888631171721,
24.0,24.8,1,0.75,Stimuli\ImageFiles-Set2\Objects\Object_Fork_00001.png,0,0,0,25,25,25,,,,,,,,,,,,,24.003558399999747,0.003558399999747053,None,,50.47789550000016,50.47789550000016,50.47789550000016,50.47789550000016,50.47789550000016,50.47789550000016,50.47789550000016,50.47789550000016,002,P003,2025_Jan_18_1201,CategoryLocalizer,2021.2.3,59.93888631171721,
24.8,25.0,5,0.0,Stimuli\Blank.png,0,0,0,26,26,26,,,,,,,,,,,,,24.804386699999668,0.004386699999667343,None,,51.278591600001164,51.278591600001164,51.278591600001164,51.278591600001164,51.278591600001164,51.278591600001164,51.278591600001164,51.278591600001164,002,P003,2025_Jan_18_1201,CategoryLocalizer,2021.2.3,59.93888631171721,
25.0,25.8,1,0.75,Stimuli\ImageFiles-Set2\Objects\Object_Razor_00001.png,0,0,0,27,27,27,,,,,,,,,,,,,25.003756000000067,0.003756000000066706,None,,51.47877590000098,51.47877590000098,51.47877590000098,51.47877590000098,51.47877590000098,51.47877590000098,51.47877590000098,51.47877590000098,002,P003,2025_Jan_18_1201,CategoryLocalizer,2021.2.3,59.93888631171721,
25.8,26.0,5,0.0,Stimuli\Blank.png,0,0,0,28,28,28,,,,,,,,,,,,,25.80459680000058,0.004596800000580714,5,0.1676815999999235,52.27947040000072,52.27947040000072,52.27947040000072,52.27947040000072,52.27947040000072,52.27947040000072,52.27947040000072,52.27947040000072,002,P003,2025_Jan_18_1201,CategoryLocalizer,2021.2.3,59.93888631171721,
26.0,26.8,1,0.75,Stimuli\ImageFiles-Set2\Objects\Object_Shovel_00001.png,0,0,0,29,29,29,,,,,,,,,,,,,26.00502620000043,0.005026200000429526,None,,52.49632829999973,52.49632829999973,52.49632829999973,52.49632829999973,52.49632829999973,52.49632829999973,52.49632829999973,52.49632829999973,002,P003,2025_Jan_18_1201,CategoryLocalizer,2021.2.3,59.93888631171721,
26.8,27.0,5,0.0,Stimuli\Blank.png,0,0,0,30,30,30,,,,,,,,,,,,,26.82258069999989,0.022580699999888765,None,,53.29704320000019,53.29704320000019,53.29704320000019,53.29704320000019,53.29704320000019,53.29704320000019,53.29704320000019,53.29704320000019,002,P003,2025_Jan_18_1201,CategoryLocalizer,2021.2.3,59.93888631171721,
27.0,27.8,1,0.75,Stimuli\ImageFiles-Set2\Objects\Object_Refrigerator_00001.png,0,0,0,31,31,31,,,,,,,,,,,,,27.006099399999584,0.006099399999584421,None,,53.480537400000685,53.480537400000685,53.480537400000685,53.480537400000685,53.480537400000685,53.480537400000685,53.480537400000685,53.480537400000685,002,P003,2025_Jan_18_1201,CategoryLocalizer,2021.2.3,59.93888631171721,
27.8,28.0,5,0.0,Stimuli\Blank.png,0,0,0,32,32,32,,,,,,,,,,,,,27.807533799999874,0.007533799999873025,5,0.16605889999846113,54.281242200000634,54.281242200000634,54.281242200000634,54.281242200000634,54.281242200000634,54.281242200000634,54.281242200000634,54.281242200000634,002,P003,2025_Jan_18_1201,CategoryLocalizer,2021.2.3,59.93888631171721,
28.0,28.8,2,0.75,Stimuli\ImageFiles-Set2\Bodies\Bodies_Jumping_00007.png,0,0,0,33,33,33,,,,,,,,,,,,,28.006597600000532,0.006597600000532111,None,,54.4814150000002,54.4814150000002,54.4814150000002,54.4814150000002,54.4814150000002,54.4814150000002,54.4814150000002,54.4814150000002,002,P003,2025_Jan_18_1201,CategoryLocalizer,2021.2.3,59.93888631171721,
28.8,29.0,5,0.0,Stimuli\Blank.png,0,0,0,34,34,34,,,,,,,,,,,,,28.807477700000163,0.007477700000162457,None,,55.28211510000074,55.28211510000074,55.28211510000074,55.28211510000074,55.28211510000074,55.28211510000074,55.28211510000074,55.28211510000074,002,P003,2025_Jan_18_1201,CategoryLocalizer,2021.2.3,59.93888631171721,
29.0,29.8,2,0.75,Stimuli\ImageFiles-Set2\Bodies\Bodies_Walking_00003.png,0,0,0,35,35,35,,,,,,,,,,,,,29.00813670000025,0.00813670000025013,None,,55.49899120000009,55.49899120000009,55.49899120000009,55.49899120000009,55.49899120000009,55.49899120000009,55.49899120000009,55.49899120000009,002,P003,2025_Jan_18_1201,CategoryLocalizer,2021.2.3,59.93888631171721,
29.8,30.0,5,0.0,Stimuli\Blank.png,0,0,0,36,36,36,,,,,,,,,,,,,29.827287300000535,0.02728730000053403,5,0.13090639999973064,56.31638870000097,56.31638870000097,56.31638870000097,56.31638870000097,56.31638870000097,56.31638870000097,56.31638870000097,56.31638870000097,002,P003,2025_Jan_18_1201,CategoryLocalizer,2021.2.3,59.93888631171721,
30.0,30.8,2,0.75,Stimuli\ImageFiles-Set2\Bodies\Bodies_Running_00001.png,0,0,0,37,37,37,,,,,,,,,,,,,30.025514799999655,0.025514799999655224,None,,56.499862000000576,56.499862000000576,56.499862000000576,56.499862000000576,56.499862000000576,56.499862000000576,56.499862000000576,56.499862000000576,002,P003,2025_Jan_18_1201,CategoryLocalizer,2021.2.3,59.93888631171721,
30.8,31.0,5,0.0,Stimuli\Blank.png,0,0,0,38,38,38,,,,,,,,,,,,,30.808809399999518,0.008809399999517353,None,,57.283860900000946,57.283860900000946,57.283860900000946,57.283860900000946,57.283860900000946,57.283860900000946,57.283860900000946,57.283860900000946,002,P003,2025_Jan_18_1201,CategoryLocalizer,2021.2.3,59.93888631171721,
31.0,31.8,2,0.75,Stimuli\ImageFiles-Set2\Bodies\Bodies_Running_00001.png,1,1,0,39,39,39,,,,,,,,,,,,,31.00944189999973,0.009441899999728776,1,0.418039600001066,57.48414109999976,57.48414109999976,57.48414109999976,57.48414109999976,57.48414109999976,57.48414109999976,57.48414109999976,57.48414109999976,002,P003,2025_Jan_18_1201,CategoryLocalizer,2021.2.3,59.93888631171721,
31.8,32.0,5,0.0,Stimuli\Blank.png,0,0,0,40,40,40,,,,,,,,,,,,,31.812075699999696,0.012075699999694933,5,0.14568959999996878,58.3014820999997,58.3014820999997,58.3014820999997,58.3014820999997,58.3014820999997,58.3014820999997,58.3014820999997,58.3014820999997,002,P003,2025_Jan_18_1201,CategoryLocalizer,2021.2.3,59.93888631171721,
32.0,32.8,2,0.75,Stimuli\ImageFiles-Set2\Bodies\Bodies_Lunging_00006.png,0,0,0,41,41,41,,,,,,,,,,,,,32.026988800000254,0.026988800000253832,None,,58.50161169999956,58.50161169999956,58.50161169999956,58.50161169999956,58.50161169999956,58.50161169999956,58.50161169999956,58.50161169999956,002,P003,2025_Jan_18_1201,CategoryLocalizer,2021.2.3,59.93888631171721,
32.8,33.0,5,0.0,Stimuli\Blank.png,0,0,0,42,42,42,,,,,,,,,,,,,32.81283330000042,0.012833300000423264,None,,59.30236660000082,59.30236660000082,59.30236660000082,59.30236660000082,59.30236660000082,59.30236660000082,59.30236660000082,59.30236660000082,002,P003,2025_Jan_18_1201,CategoryLocalizer,2021.2.3,59.93888631171721,
33.0,33.8,2,0.75,Stimuli\ImageFiles-Set2\Bodies\Bodies_Waving_00006.png,0,0,0,43,43,43,,,,,,,,,,,,,33.02815759999976,0.02815759999975853,None,,59.51918250000017,59.51918250000017,59.51918250000017,59.51918250000017,59.51918250000017,59.51918250000017,59.51918250000017,59.51918250000017,002,P003,2025_Jan_18_1201,CategoryLocalizer,2021.2.3,59.93888631171721,
33.8,34.0,5,0.0,Stimuli\Blank.png,0,0,0,44,44,44,,,,,,,,,,,,,33.82883269999911,0.028832699999114197,5,0.14415790000020934,60.30320229999961,60.30320229999961,60.30320229999961,60.30320229999961,60.30320229999961,60.30320229999961,60.30320229999961,60.30320229999961,002,P003,2025_Jan_18_1201,CategoryLocalizer,2021.2.3,59.93888631171721,
34.0,34.8,2,0.75,Stimuli\ImageFiles-Set2\Bodies\Bodies_Crawling_00004.png,0,0,0,45,45,45,,,,,,,,,,,,,34.0123179000002,0.012317900000198279,None,,60.486713000000236,60.486713000000236,60.486713000000236,60.486713000000236,60.486713000000236,60.486713000000236,60.486713000000236,60.486713000000236,002,P003,2025_Jan_18_1201,CategoryLocalizer,2021.2.3,59.93888631171721,
34.8,35.0,5,0.0,Stimuli\Blank.png,0,0,0,46,46,46,,,,,,,,,,,,,34.812767299999905,0.012767299999907777,None,,61.28740490000018,61.28740490000018,61.28740490000018,61.28740490000018,61.28740490000018,61.28740490000018,61.28740490000018,61.28740490000018,002,P003,2025_Jan_18_1201,CategoryLocalizer,2021.2.3,59.93888631171721,
35.0,35.8,2,0.75,Stimuli\ImageFiles-Set2\Bodies\Bodies_Walking_00007.png,0,0,0,47,47,47,,,,,,,,,,,,,35.013243900000816,0.013243900000816211,None,,61.504287900001145,61.504287900001145,61.504287900001145,61.504287900001145,61.504287900001145,61.504287900001145,61.504287900001145,61.504287900001145,002,P003,2025_Jan_18_1201,CategoryLocalizer,2021.2.3,59.93888631171721,
35.8,36.0,5,0.0,Stimuli\Blank.png,0,0,0,48,48,48,,,,,,,,,,,,,35.83168979999937,0.03168979999936994,5,0.12568309999915073,62.32165789999999,62.32165789999999,62.32165789999999,62.32165789999999,62.32165789999999,62.32165789999999,62.32165789999999,62.32165789999999,002,P003,2025_Jan_18_1201,CategoryLocalizer,2021.2.3,59.93888631171721,
36.0,36.8,2,0.75,Stimuli\ImageFiles-Set2\Bodies\Bodies_Kneeling_00004.png,0,0,0,49,49,49,,,,,,,,,,,,,36.031951999999364,0.03195199999936449,None,,62.52184810000108,62.52184810000108,62.52184810000108,62.52184810000108,62.52184810000108,62.52184810000108,62.52184810000108,62.52184810000108,002,P003,2025_Jan_18_1201,CategoryLocalizer,2021.2.3,59.93888631171721,
36.8,37.0,5,0.0,Stimuli\Blank.png,0,0,0,50,50,50,,,,,,,,,,,,,36.81738840000071,0.017388400000712068,None,,63.30591730000015,63.30591730000015,63.30591730000015,63.30591730000015,63.30591730000015,63.30591730000015,63.30591730000015,63.30591730000015,002,P003,2025_Jan_18_1201,CategoryLocalizer,2021.2.3,59.93888631171721,
37.0,37.8,2,0.75,Stimuli\ImageFiles-Set2\Bodies\Bodies_Crawling_00002.png,0,0,0,51,51,51,,,,,,,,,,,,,37.01443710000058,0.01443710000057763,None,,63.48933510000097,63.48933510000097,63.48933510000097,63.48933510000097,63.48933510000097,63.48933510000097,63.48933510000097,63.48933510000097,002,P003,2025_Jan_18_1201,CategoryLocalizer,2021.2.3,59.93888631171721,
37.8,38.0,5,0.0,Stimuli\Blank.png,0,0,0,52,52,52,,,,,,,,,,,,,37.814944199999445,0.01494419999944796,None,,64.290046600001,64.290046600001,64.290046600001,64.290046600001,64.290046600001,64.290046600001,64.290046600001,64.290046600001,002,P003,2025_Jan_18_1201,CategoryLocalizer,2021.2.3,59.93888631171721,
38.0,38.8,2,0.75,Stimuli\ImageFiles-Set2\Bodies\Bodies_Kicking_00006.png,0,0,0,53,53,53,,,,,,,,,,,,,38.00250120000055,0.002501200000551762,None,,64.49021449999964,64.49021449999964,64.49021449999964,64.49021449999964,64.49021449999964,64.49021449999964,64.49021449999964,64.49021449999964,002,P003,2025_Jan_18_1201,CategoryLocalizer,2021.2.3,59.93888631171721,
38.8,39.0,5,0.0,Stimuli\Blank.png,0,0,0,54,54,54,,,,,,,,,,,,,38.81677850000051,0.01677850000051251,None,,65.29092990000026,65.29092990000026,65.29092990000026,65.29092990000026,65.29092990000026,65.29092990000026,65.29092990000026,65.29092990000026,002,P003,2025_Jan_18_1201,CategoryLocalizer,2021.2.3,59.93888631171721,
39.0,39.8,2,0.75,Stimuli\ImageFiles-Set2\Bodies\Bodies_PushUp_00003.png,0,0,0,55,55,55,,,,,,,,,,,,,39.00044899999921,0.0004489999992074445,None,,65.47439280000071,65.47439280000071,65.47439280000071,65.47439280000071,65.47439280000071,65.47439280000071,65.47439280000071,65.47439280000071,002,P003,2025_Jan_18_1201,CategoryLocalizer,2021.2.3,59.93888631171721,
39.8,40.0,5,0.0,Stimuli\Blank.png,0,0,0,56,56,56,,,,,,,,,,,,,39.80066310000075,0.0006631000007502053,None,,66.27512419999948,66.27512419999948,66.27512419999948,66.27512419999948,66.27512419999948,66.27512419999948,66.27512419999948,66.27512419999948,002,P003,2025_Jan_18_1201,CategoryLocalizer,2021.2.3,59.93888631171721,
40.0,40.8,2,0.75,Stimuli\ImageFiles-Set2\Bodies\Bodies_Hanging_00001.png,0,0,0,57,57,57,,,,,,,,,,,,,40.00007650000043,7.650000043213367e-05,None,,66.47529489999943,66.47529489999943,66.47529489999943,66.47529489999943,66.47529489999943,66.47529489999943,66.47529489999943,66.47529489999943,002,P003,2025_Jan_18_1201,CategoryLocalizer,2021.2.3,59.93888631171721,
40.8,41.0,5,0.0,Stimuli\Blank.png,0,0,0,58,58,58,,,,,,,,,,,,,40.800962600000275,0.0009626000002782575,None,,67.27605279999989,67.27605279999989,67.27605279999989,67.27605279999989,67.27605279999989,67.27605279999989,67.27605279999989,67.27605279999989,002,P003,2025_Jan_18_1201,CategoryLocalizer,2021.2.3,59.93888631171721,
41.0,41.8,2,0.75,Stimuli\ImageFiles-Set2\Bodies\Bodies_SittingChair_00004.png,0,0,0,59,59,59,,,,,,,,,,,,,41.00192860000061,0.0019286000006104587,None,,67.49291110000013,67.49291110000013,67.49291110000013,67.49291110000013,67.49291110000013,67.49291110000013,67.49291110000013,67.49291110000013,002,P003,2025_Jan_18_1201,CategoryLocalizer,2021.2.3,59.93888631171721,
41.8,42.0,5,0.0,Stimuli\Blank.png,0,0,0,60,60,60,,,,,,,,,,,,,41.81924289999915,0.019242899999156293,None,,68.29356569999982,68.29356569999982,68.29356569999982,68.29356569999982,68.29356569999982,68.29356569999982,68.29356569999982,68.29356569999982,002,P003,2025_Jan_18_1201,CategoryLocalizer,2021.2.3,59.93888631171721,
42.0,42.8,2,0.75,Stimuli\ImageFiles-Set2\Bodies\Bodies_DownwardDog_00002.png,0,0,0,61,61,61,,,,,,,,,,,,,42.00275039999906,0.0027503999990585726,None,,68.4770582000001,68.4770582000001,68.4770582000001,68.4770582000001,68.4770582000001,68.4770582000001,68.4770582000001,68.4770582000001,002,P003,2025_Jan_18_1201,CategoryLocalizer,2021.2.3,59.93888631171721,
42.8,43.0,5,0.0,Stimuli\Blank.png,0,0,0,62,62,62,,,,,,,,,,,,,42.802623100000346,0.0026231000003491545,None,,69.27776830000039,69.27776830000039,69.27776830000039,69.27776830000039,69.27776830000039,69.27776830000039,69.27776830000039,69.27776830000039,002,P003,2025_Jan_18_1201,CategoryLocalizer,2021.2.3,59.93888631171721,
43.0,43.8,2,0.75,Stimuli\ImageFiles-Set2\Bodies\Bodies_Crawling_00007.png,0,0,0,63,63,63,,,,,,,,,,,,,43.003099499999735,0.0030994999997346895,None,,69.4779393000008,69.4779393000008,69.4779393000008,69.4779393000008,69.4779393000008,69.4779393000008,69.4779393000008,69.4779393000008,002,P003,2025_Jan_18_1201,CategoryLocalizer,2021.2.3,59.93888631171721,
43.8,44.0,5,0.0,Stimuli\Blank.png,0,0,0,64,64,64,,,,,,,,,,,,,43.80405419999988,0.0040541999998851,None,,70.27864910000062,70.27864910000062,70.27864910000062,70.27864910000062,70.27864910000062,70.27864910000062,70.27864910000062,70.27864910000062,002,P003,2025_Jan_18_1201,CategoryLocalizer,2021.2.3,59.93888631171721,
44.0,44.8,3,0.75,Stimuli\ImageFiles-Set2\Faces\Face_00048.png,0,0,0,65,65,65,,,,,,,,,,,,,44.00431389999903,0.0043138999990333105,None,,70.49551710000014,70.49551710000014,70.49551710000014,70.49551710000014,70.49551710000014,70.49551710000014,70.49551710000014,70.49551710000014,002,P003,2025_Jan_18_1201,CategoryLocalizer,2021.2.3,59.93888631171721,
44.8,45.0,5,0.0,Stimuli\Blank.png,0,0,0,66,66,66,,,,,,,,,,,,,44.82172709999941,0.021727099999409916,None,,71.29622150000068,71.29622150000068,71.29622150000068,71.29622150000068,71.29622150000068,71.29622150000068,71.29622150000068,71.29622150000068,002,P003,2025_Jan_18_1201,CategoryLocalizer,2021.2.3,59.93888631171721,
45.0,45.8,3,0.75,Stimuli\ImageFiles-Set2\Faces\Face_00002.png,0,0,0,67,67,67,,,,,,,,,,,,,45.00473000000056,0.00473000000056345,None,,71.47969730000113,71.47969730000113,71.47969730000113,71.47969730000113,71.47969730000113,71.47969730000113,71.47969730000113,71.47969730000113,002,P003,2025_Jan_18_1201,CategoryLocalizer,2021.2.3,59.93888631171721,
45.8,46.0,5,0.0,Stimuli\Blank.png,0,0,0,68,68,68,,,,,,,,,,,,,45.807336199999554,0.007336199999556925,5,0.1501007999995636,72.29711820000011,72.29711820000011,72.29711820000011,72.29711820000011,72.29711820000011,72.29711820000011,72.29711820000011,72.29711820000011,002,P003,2025_Jan_18_1201,CategoryLocalizer,2021.2.3,59.93888631171721,
46.0,46.8,3,0.75,Stimuli\ImageFiles-Set2\Faces\Face_00028.png,0,0,0,69,69,69,,,,,,,,,,,,,46.0221932000004,0.022193200000401703,None,,72.51397859999997,72.51397859999997,72.51397859999997,72.51397859999997,72.51397859999997,72.51397859999997,72.51397859999997,72.51397859999997,002,P003,2025_Jan_18_1201,CategoryLocalizer,2021.2.3,59.93888631171721,
46.8,47.0,5,0.0,Stimuli\Blank.png,0,0,0,70,70,70,,,,,,,,,,,,,46.822970400000486,0.022970400000488667,None,,73.29796979999992,73.29796979999992,73.29796979999992,73.29796979999992,73.29796979999992,73.29796979999992,73.29796979999992,73.29796979999992,002,P003,2025_Jan_18_1201,CategoryLocalizer,2021.2.3,59.93888631171721,
47.0,47.8,3,0.75,Stimuli\ImageFiles-Set2\Faces\Face_00076.png,0,0,0,71,71,71,,,,,,,,,,,,,47.00640310000017,0.006403100000170525,None,,73.48147150000113,73.48147150000113,73.48147150000113,73.48147150000113,73.48147150000113,73.48147150000113,73.48147150000113,73.48147150000113,002,P003,2025_Jan_18_1201,CategoryLocalizer,2021.2.3,59.93888631171721,
47.8,48.0,5,0.0,Stimuli\Blank.png,0,0,0,72,72,72,,,,,,,,,,,,,47.8077272999999,0.007727299999899628,5,0.16494520000014745,74.28217159999986,74.28217159999986,74.28217159999986,74.28217159999986,74.28217159999986,74.28217159999986,74.28217159999986,74.28217159999986,002,P003,2025_Jan_18_1201,CategoryLocalizer,2021.2.3,59.93888631171721,
48.0,48.8,3,0.75,Stimuli\ImageFiles-Set2\Faces\Face_00038.png,0,0,0,73,73,73,,,,,,,,,,,,,48.00782760000038,0.007827600000382517,None,,74.49903389999963,74.49903389999963,74.49903389999963,74.49903389999963,74.49903389999963,74.49903389999963,74.49903389999963,74.49903389999963,002,P003,2025_Jan_18_1201,CategoryLocalizer,2021.2.3,59.93888631171721,
48.8,49.0,5,0.0,Stimuli\Blank.png,0,0,0,74,74,74,,,,,,,,,,,,,48.824599300000045,0.024599300000048174,None,,75.29973600000085,75.29973600000085,75.29973600000085,75.29973600000085,75.29973600000085,75.29973600000085,75.29973600000085,75.29973600000085,002,P003,2025_Jan_18_1201,CategoryLocalizer,2021.2.3,59.93888631171721,
49.0,49.8,3,0.75,Stimuli\ImageFiles-Set2\Faces\Face_00112.png,0,0,0,75,75,75,,,,,,,,,,,,,49.00886709999941,0.008867099999406491,None,,75.48322949999965,75.48322949999965,75.48322949999965,75.48322949999965,75.48322949999965,75.48322949999965,75.48322949999965,75.48322949999965,002,P003,2025_Jan_18_1201,CategoryLocalizer,2021.2.3,59.93888631171721,
49.8,50.0,5,0.0,Stimuli\Blank.png,0,0,0,76,76,76,,,,,,,,,,,,,49.80948929999977,0.009489299999771106,5,0.1632806999987224,76.28393510000024,76.28393510000024,76.28393510000024,76.28393510000024,76.28393510000024,76.28393510000024,76.28393510000024,76.28393510000024,002,P003,2025_Jan_18_1201,CategoryLocalizer,2021.2.3,59.93888631171721,
50.0,50.8,3,0.75,Stimuli\ImageFiles-Set2\Faces\Face_00112.png,1,1,0,77,77,77,,,,,,,,,,,,,50.00986919999923,0.00986919999922975,1,0.3520480999995925,76.4841077000001,76.4841077000001,76.4841077000001,76.4841077000001,76.4841077000001,76.4841077000001,76.4841077000001,76.4841077000001,002,P003,2025_Jan_18_1201,CategoryLocalizer,2021.2.3,59.93888631171721,
50.8,51.0,5,0.0,Stimuli\Blank.png,0,0,0,78,78,78,,,,,,,,,,,,,50.80981199999951,0.009811999999513432,None,,77.2848195000006,77.2848195000006,77.2848195000006,77.2848195000006,77.2848195000006,77.2848195000006,77.2848195000006,77.2848195000006,002,P003,2025_Jan_18_1201,CategoryLocalizer,2021.2.3,59.93888631171721,
51.0,51.8,3,0.75,Stimuli\ImageFiles-Set2\Faces\Face_00092.png,0,0,0,79,79,79,,,,,,,,,,,,,51.01202009999906,0.01202009999906295,None,,77.50169610000012,77.50169610000012,77.50169610000012,77.50169610000012,77.50169610000012,77.50169610000012,77.50169610000012,77.50169610000012,002,P003,2025_Jan_18_1201,CategoryLocalizer,2021.2.3,59.93888631171721,
51.8,52.0,5,0.0,Stimuli\Blank.png,0,0,0,80,80,80,,,,,,,,,,,,,51.8283835000002,0.028383500000202844,5,0.14488100000016857,78.30239170000095,78.30239170000095,78.30239170000095,78.30239170000095,78.30239170000095,78.30239170000095,78.30239170000095,78.30239170000095,002,P003,2025_Jan_18_1201,CategoryLocalizer,2021.2.3,59.93888631171721,
52.0,52.8,3,0.75,Stimuli\ImageFiles-Set2\Faces\Face_00120.png,0,0,0,81,81,81,,,,,,,,,,,,,52.01163219999944,0.011632199999439763,None,,78.48585319999984,78.48585319999984,78.48585319999984,78.48585319999984,78.48585319999984,78.48585319999984,78.48585319999984,78.48585319999984,002,P003,2025_Jan_18_1201,CategoryLocalizer,2021.2.3,59.93888631171721,
52.8,53.0,5,0.0,Stimuli\Blank.png,0,0,0,82,82,82,,,,,,,,,,,,,52.81177199999911,0.011771999999112381,None,,79.28657019999991,79.28657019999991,79.28657019999991,79.28657019999991,79.28657019999991,79.28657019999991,79.28657019999991,79.28657019999991,002,P003,2025_Jan_18_1201,CategoryLocalizer,2021.2.3,59.93888631171721,
53.0,53.8,3,0.75,Stimuli\ImageFiles-Set2\Faces\Face_00102.png,0,0,0,83,83,83,,,,,,,,,,,,,53.01275429999987,0.012754299999869545,None,,79.50343109999994,79.50343109999994,79.50343109999994,79.50343109999994,79.50343109999994,79.50343109999994,79.50343109999994,79.50343109999994,002,P003,2025_Jan_18_1201,CategoryLocalizer,2021.2.3,59.93888631171721,
53.8,54.0,5,0.0,Stimuli\Blank.png,0,0,0,84,84,84,,,,,,,,,,,,,53.82969039999989,0.029690399999893202,5,0.14286910000009811,80.3042172000005,80.3042172000005,80.3042172000005,80.3042172000005,80.3042172000005,80.3042172000005,80.3042172000005,80.3042172000005,002,P003,2025_Jan_18_1201,CategoryLocalizer,2021.2.3,59.93888631171721,
54.0,54.8,3,0.75,Stimuli\ImageFiles-Set2\Faces\Face_00068.png,0,0,0,85,85,85,,,,,,,,,,,,,54.01266609999948,0.01266609999947832,None,,80.50433300000077,80.50433300000077,80.50433300000077,80.50433300000077,80.50433300000077,80.50433300000077,80.50433300000077,80.50433300000077,002,P003,2025_Jan_18_1201,CategoryLocalizer,2021.2.3,59.93888631171721,
54.8,55.0,5,0.0,Stimuli\Blank.png,0,0,0,86,86,86,,,,,,,,,,,,,54.83218490000036,0.03218490000035956,None,,81.32184899999993,81.32184899999993,81.32184899999993,81.32184899999993,81.32184899999993,81.32184899999993,81.32184899999993,81.32184899999993,002,P003,2025_Jan_18_1201,CategoryLocalizer,2021.2.3,59.93888631171721,
55.0,55.8,3,0.75,Stimuli\ImageFiles-Set2\Faces\Face_00064.png,0,0,0,87,87,87,,,,,,,,,,,,,55.030819800000245,0.030819800000244868,None,,81.50524410000071,81.50524410000071,81.50524410000071,81.50524410000071,81.50524410000071,81.50524410000071,81.50524410000071,81.50524410000071,002,P003,2025_Jan_18_1201,CategoryLocalizer,2021.2.3,59.93888631171721,
55.8,56.0,5,0.0,Stimuli\Blank.png,0,0,0,88,88,88,,,,,,,,,,,,,55.81672780000008,0.016727800000083448,5,0.14116920000014943,82.3059188999996,82.3059188999996,82.3059188999996,82.3059188999996,82.3059188999996,82.3059188999996,82.3059188999996,82.3059188999996,002,P003,2025_Jan_18_1201,CategoryLocalizer,2021.2.3,59.93888631171721,
56.0,56.8,3,0.75,Stimuli\ImageFiles-Set2\Faces\Face_00078.png,0,0,0,89,89,89,,,,,,,,,,,,,56.01461519999975,0.014615199999752804,None,,82.48939489999975,82.48939489999975,82.48939489999975,82.48939489999975,82.48939489999975,82.48939489999975,82.48939489999975,82.48939489999975,002,P003,2025_Jan_18_1201,CategoryLocalizer,2021.2.3,59.93888631171721,
56.8,57.0,5,0.0,Stimuli\Blank.png,0,0,0,90,90,90,,,,,,,,,,,,,56.81709480000063,0.01709480000063479,None,,83.30679080000118,83.30679080000118,83.30679080000118,83.30679080000118,83.30679080000118,83.30679080000118,83.30679080000118,83.30679080000118,002,P003,2025_Jan_18_1201,CategoryLocalizer,2021.2.3,59.93888631171721,
57.0,57.8,3,0.75,Stimuli\ImageFiles-Set2\Faces\Face_00021.png,1,1,0,91,91,91,,,,,,,,,,,,,57.0170820000003,0.017082000000300468,None,,83.50695880000058,83.50695880000058,83.50695880000058,83.50695880000058,83.50695880000058,83.50695880000058,83.50695880000058,83.50695880000058,002,P003,2025_Jan_18_1201,CategoryLocalizer,2021.2.3,59.93888631171721,
57.8,58.0,5,0.0,Stimuli\Blank.png,0,0,0,92,92,92,,,,,,,,,,,,,57.81641169999966,0.016411699999665075,None,,84.29099169999972,84.29099169999972,84.29099169999972,84.29099169999972,84.29099169999972,84.29099169999972,84.29099169999972,84.29099169999972,002,P003,2025_Jan_18_1201,CategoryLocalizer,2021.2.3,59.93888631171721,
58.0,58.8,3,0.75,Stimuli\ImageFiles-Set2\Faces\Face_00094.png,0,0,0,93,93,93,,,,,,,,,,,,,57.99936060000073,-0.0006393999992724275,None,,84.47447140000077,84.47447140000077,84.47447140000077,84.47447140000077,84.47447140000077,84.47447140000077,84.47447140000077,84.47447140000077,002,P003,2025_Jan_18_1201,CategoryLocalizer,2021.2.3,59.93888631171721,
58.8,59.0,5,0.0,Stimuli\Blank.png,0,0,0,94,94,94,,,,,,,,,,,,,58.802686499999254,0.002686499999256853,None,,85.29188310000063,85.29188310000063,85.29188310000063,85.29188310000063,85.29188310000063,85.29188310000063,85.29188310000063,85.29188310000063,002,P003,2025_Jan_18_1201,CategoryLocalizer,2021.2.3,59.93888631171721,
59.0,59.8,3,0.75,Stimuli\ImageFiles-Set2\Faces\Face_00094.png,0,0,0,95,95,95,,,,,,,,,,,,,59.0173907999997,0.017390799999702722,1,0.5370532999986608,85.492035700001,85.492035700001,85.492035700001,85.492035700001,85.492035700001,85.492035700001,85.492035700001,85.492035700001,002,P003,2025_Jan_18_1201,CategoryLocalizer,2021.2.3,59.93888631171721,
59.8,60.0,5,0.0,Stimuli\Blank.png,0,0,0,96,96,96,,,,,,,,,,,,,59.8019062000003,0.0019062000003060575,None,,86.27606279999964,86.27606279999964,86.27606279999964,86.27606279999964,86.27606279999964,86.27606279999964,86.27606279999964,86.27606279999964,002,P003,2025_Jan_18_1201,CategoryLocalizer,2021.2.3,59.93888631171721,
60.0,60.8,4,0.75,Stimuli\ImageFiles-Set2\Scenes\Scenes_074.png,0,0,0,97,97,97,,,,,,,,,,,,,60.00177040000017,0.0017704000001685927,None,,86.49295340000026,86.49295340000026,86.49295340000026,86.49295340000026,86.49295340000026,86.49295340000026,86.49295340000026,86.49295340000026,002,P003,2025_Jan_18_1201,CategoryLocalizer,2021.2.3,59.93888631171721,
60.8,61.0,5,0.0,Stimuli\Blank.png,0,0,0,98,98,98,,,,,,,,,,,,,60.81900490000044,0.019004900000439306,None,,87.29362460000084,87.29362460000084,87.29362460000084,87.29362460000084,87.29362460000084,87.29362460000084,87.29362460000084,87.29362460000084,002,P003,2025_Jan_18_1201,CategoryLocalizer,2021.2.3,59.93888631171721,
61.0,61.8,4,0.75,Stimuli\ImageFiles-Set2\Scenes\Scenes_111.png,0,0,0,99,99,99,,,,,,,,,,,,,61.002912100000685,0.0029121000006853137,None,,87.49381139999969,87.49381139999969,87.49381139999969,87.49381139999969,87.49381139999969,87.49381139999969,87.49381139999969,87.49381139999969,002,P003,2025_Jan_18_1201,CategoryLocalizer,2021.2.3,59.93888631171721,
61.8,62.0,5,0.0,Stimuli\Blank.png,0,0,0,100,100,100,,,,,,,,,,,,,61.82206059999953,0.022060599999534247,5,0.13590219999969122,88.31120809999993,88.31120809999993,88.31120809999993,88.31120809999993,88.31120809999993,88.31120809999993,88.31120809999993,88.31120809999993,002,P003,2025_Jan_18_1201,CategoryLocalizer,2021.2.3,59.93888631171721,
62.0,62.8,4,0.75,Stimuli\ImageFiles-Set2\Scenes\Scenes_088.png,0,0,0,101,101,101,,,,,,,,,,,,,62.019823700000416,0.019823700000415556,None,,88.4946774,88.4946774,88.4946774,88.4946774,88.4946774,88.4946774,88.4946774,88.4946774,002,P003,2025_Jan_18_1201,CategoryLocalizer,2021.2.3,59.93888631171721,
62.8,63.0,5,0.0,Stimuli\Blank.png,0,0,0,102,102,102,,,,,,,,,,,,,62.80438949999916,0.004389499999163604,None,,89.27870360000088,89.27870360000088,89.27870360000088,89.27870360000088,89.27870360000088,89.27870360000088,89.27870360000088,89.27870360000088,002,P003,2025_Jan_18_1201,CategoryLocalizer,2021.2.3,59.93888631171721,
63.0,63.8,4,0.75,Stimuli\ImageFiles-Set2\Scenes\Scenes_105.png,0,0,0,103,103,103,,,,,,,,,,,,,63.00416629999927,0.00416629999926954,None,,89.47887219999939,89.47887219999939,89.47887219999939,89.47887219999939,89.47887219999939,89.47887219999939,89.47887219999939,89.47887219999939,002,P003,2025_Jan_18_1201,CategoryLocalizer,2021.2.3,59.93888631171721,
63.8,64.0,5,0.0,Stimuli\Blank.png,0,0,0,104,104,104,,,,,,,,,,,,,63.806636600000274,0.006636600000277326,5,0.15080499999930908,90.29626749999989,90.29626749999989,90.29626749999989,90.29626749999989,90.29626749999989,90.29626749999989,90.29626749999989,90.29626749999989,002,P003,2025_Jan_18_1201,CategoryLocalizer,2021.2.3,59.93888631171721,
64.0,64.8,4,0.75,Stimuli\ImageFiles-Set2\Scenes\Scenes_086.png,0,0,0,105,105,105,,,,,,,,,,,,,64.02137199999925,0.021371999999246327,None,,90.49643490000017,90.49643490000017,90.49643490000017,90.49643490000017,90.49643490000017,90.49643490000017,90.49643490000017,90.49643490000017,002,P003,2025_Jan_18_1201,CategoryLocalizer,2021.2.3,59.93888631171721,
64.8,65.0,5,0.0,Stimuli\Blank.png,0,0,0,106,106,106,,,,,,,,,,,,,64.80795539999963,0.007955399999630686,None,,91.29716619999999,91.29716619999999,91.29716619999999,91.29716619999999,91.29716619999999,91.29716619999999,91.29716619999999,91.29716619999999,002,P003,2025_Jan_18_1201,CategoryLocalizer,2021.2.3,59.93888631171721,
65.0,65.8,4,0.75,Stimuli\ImageFiles-Set2\Scenes\Scenes_118.png,0,0,0,107,107,107,,,,,,,,,,,,,65.02275050000026,0.02275050000025658,None,,91.49732100000074,91.49732100000074,91.49732100000074,91.49732100000074,91.49732100000074,91.49732100000074,91.49732100000074,91.49732100000074,002,P003,2025_Jan_18_1201,CategoryLocalizer,2021.2.3,59.93888631171721,
65.8,66.0,5,0.0,Stimuli\Blank.png,0,0,0,108,108,108,,,,,,,,,,,,,65.8066018999998,0.00660189999980787,5,0.1658114999991085,92.28134890000001,92.28134890000001,92.28134890000001,92.28134890000001,92.28134890000001,92.28134890000001,92.28134890000001,92.28134890000001,002,P003,2025_Jan_18_1201,CategoryLocalizer,2021.2.3,59.93888631171721,
66.0,66.8,4,0.75,Stimuli\ImageFiles-Set2\Scenes\Scenes_096.png,0,0,0,109,109,109,,,,,,,,,,,,,66.00702140000067,0.0070214000006671995,None,,92.48152169999958,92.48152169999958,92.48152169999958,92.48152169999958,92.48152169999958,92.48152169999958,92.48152169999958,92.48152169999958,002,P003,2025_Jan_18_1201,CategoryLocalizer,2021.2.3,59.93888631171721,
66.8,67.0,5,0.0,Stimuli\Blank.png,0,0,0,110,110,110,,,,,,,,,,,,,66.80836679999993,0.008366799999933505,None,,93.28222880000067,93.28222880000067,93.28222880000067,93.28222880000067,93.28222880000067,93.28222880000067,93.28222880000067,93.28222880000067,002,P003,2025_Jan_18_1201,CategoryLocalizer,2021.2.3,59.93888631171721,
67.0,67.8,4,0.75,Stimuli\ImageFiles-Set2\Scenes\Scenes_080.png,0,0,0,111,111,111,,,,,,,,,,,,,67.00783090000004,0.007830900000044494,None,,93.4990773999998,93.4990773999998,93.4990773999998,93.4990773999998,93.4990773999998,93.4990773999998,93.4990773999998,93.4990773999998,002,P003,2025_Jan_18_1201,CategoryLocalizer,2021.2.3,59.93888631171721,
67.8,68.0,5,0.0,Stimuli\Blank.png,0,0,0,112,112,112,,,,,,,,,,,,,67.82481949999965,0.024819499999651384,5,0.14738800000122865,94.29978420000043,94.29978420000043,94.29978420000043,94.29978420000043,94.29978420000043,94.29978420000043,94.29978420000043,94.29978420000043,002,P003,2025_Jan_18_1201,CategoryLocalizer,2021.2.3,59.93888631171721,
68.0,68.8,4,0.75,Stimuli\ImageFiles-Set2\Scenes\Scenes_106.png,0,0,0,113,113,113,,,,,,,,,,,,,68.0083580999999,0.008358099999895785,None,,94.48328310000034,94.48328310000034,94.48328310000034,94.48328310000034,94.48328310000034,94.48328310000034,94.48328310000034,94.48328310000034,002,P003,2025_Jan_18_1201,CategoryLocalizer,2021.2.3,59.93888631171721,
68.8,69.0,5,0.0,Stimuli\Blank.png,0,0,0,114,114,114,,,,,,,,,,,,,68.80941990000065,0.009419900000651182,None,,95.28398220000054,95.28398220000054,95.28398220000054,95.28398220000054,95.28398220000054,95.28398220000054,95.28398220000054,95.28398220000054,002,P003,2025_Jan_18_1201,CategoryLocalizer,2021.2.3,59.93888631171721,
69.0,69.8,4,0.75,Stimuli\ImageFiles-Set2\Scenes\Scenes_082.png,0,0,0,115,115,115,,,,,,,,,,,,,69.01036159999967,0.010361599999669124,None,,95.50083430000086,95.50083430000086,95.50083430000086,95.50083430000086,95.50083430000086,95.50083430000086,95.50083430000086,95.50083430000086,002,P003,2025_Jan_18_1201,CategoryLocalizer,2021.2.3,59.93888631171721,
69.8,70.0,5,0.0,Stimuli\Blank.png,0,0,0,116,116,116,,,,,,,,,,,,,69.82773669999915,0.027736699999152847,5,0.14550229999986186,96.30155650000052,96.30155650000052,96.30155650000052,96.30155650000052,96.30155650000052,96.30155650000052,96.30155650000052,96.30155650000052,002,P003,2025_Jan_18_1201,CategoryLocalizer,2021.2.3,59.93888631171721,
70.0,70.8,4,0.75,Stimuli\ImageFiles-Set2\Scenes\Scenes_117.png,0,0,0,117,117,117,,,,,,,,,,,,,70.00983880000058,0.009838800000579795,None,,96.48504030000004,96.48504030000004,96.48504030000004,96.48504030000004,96.48504030000004,96.48504030000004,96.48504030000004,96.48504030000004,002,P003,2025_Jan_18_1201,CategoryLocalizer,2021.2.3,59.93888631171721,
70.8,71.0,5,0.0,Stimuli\Blank.png,0,0,0,118,118,118,,,,,,,,,,,,,70.81063130000075,0.010631300000753185,None,,97.28579859999991,97.28579859999991,97.28579859999991,97.28579859999991,97.28579859999991,97.28579859999991,97.28579859999991,97.28579859999991,002,P003,2025_Jan_18_1201,CategoryLocalizer,2021.2.3,59.93888631171721,
71.0,71.8,4,0.75,Stimuli\ImageFiles-Set2\Scenes\Scenes_112.png,0,0,0,119,119,119,,,,,,,,,,,,,71.0115679999999,0.011567999999897438,None,,97.50260530000014,97.50260530000014,97.50260530000014,97.50260530000014,97.50260530000014,97.50260530000014,97.50260530000014,97.50260530000014,002,P003,2025_Jan_18_1201,CategoryLocalizer,2021.2.3,59.93888631171721,
71.8,72.0,5,0.0,Stimuli\Blank.png,0,0,0,120,120,120,,,,,,,,,,,,,71.82891500000005,0.028915000000054647,5,0.14390450000064448,98.30331040000056,98.30331040000056,98.30331040000056,98.30331040000056,98.30331040000056,98.30331040000056,98.30331040000056,98.30331040000056,002,P003,2025_Jan_18_1201,CategoryLocalizer,2021.2.3,59.93888631171721,
72.0,72.8,4,0.75,Stimuli\ImageFiles-Set2\Scenes\Scenes_113.png,0,0,0,121,121,121,,,,,,,,,,,,,72.0130805000008,0.013080500000796746,None,,98.50348500000109,98.50348500000109,98.50348500000109,98.50348500000109,98.50348500000109,98.50348500000109,98.50348500000109,98.50348500000109,002,P003,2025_Jan_18_1201,CategoryLocalizer,2021.2.3,59.93888631171721,
72.8,73.0,5,0.0,Stimuli\Blank.png,0,0,0,122,122,122,,,,,,,,,,,,,72.82930280000073,0.029302800000735374,None,,99.30419459999939,99.30419459999939,99.30419459999939,99.30419459999939,99.30419459999939,99.30419459999939,99.30419459999939,99.30419459999939,002,P003,2025_Jan_18_1201,CategoryLocalizer,2021.2.3,59.93888631171721,
73.0,73.8,4,0.75,Stimuli\ImageFiles-Set2\Scenes\Scenes_113.png,1,1,0,123,123,123,,,,,,,,,,,,,73.01290999999947,0.012909999999465072,1,0.43921550000050047,99.4878676999997,99.4878676999997,99.4878676999997,99.4878676999997,99.4878676999997,99.4878676999997,99.4878676999997,99.4878676999997,002,P003,2025_Jan_18_1201,CategoryLocalizer,2021.2.3,59.93888631171721,
73.8,74.0,5,0.0,Stimuli\Blank.png,0,0,0,124,124,124,,,,,,,,,,,,,73.81362609999996,0.013626099999967778,5,0.15876120000029914,100.2884052999998,100.2884052999998,100.2884052999998,100.2884052999998,100.2884052999998,100.2884052999998,100.2884052999998,100.2884052999998,002,P003,2025_Jan_18_1201,CategoryLocalizer,2021.2.3,59.93888631171721,
74.0,74.8,4,0.75,Stimuli\ImageFiles-Set2\Scenes\Scenes_067.png,0,0,0,125,125,125,,,,,,,,,,,,,74.0140979000007,0.014097900000706431,None,,100.50526189999982,100.50526189999982,100.50526189999982,100.50526189999982,100.50526189999982,100.50526189999982,100.50526189999982,100.50526189999982,002,P003,2025_Jan_18_1201,CategoryLocalizer,2021.2.3,59.93888631171721,
74.8,75.0,5,0.0,Stimuli\Blank.png,0,0,0,126,126,126,,,,,,,,,,,,,74.8315588000005,0.03155880000049649,None,,101.30596230000083,101.30596230000083,101.30596230000083,101.30596230000083,101.30596230000083,101.30596230000083,101.30596230000083,101.30596230000083,002,P003,2025_Jan_18_1201,CategoryLocalizer,2021.2.3,59.93888631171721,
75.0,75.8,4,0.75,Stimuli\ImageFiles-Set2\Scenes\Scenes_114.png,0,0,0,127,127,127,,,,,,,,,,,,,75.0168532000007,0.016853200000696233,None,,101.50613870000052,101.50613870000052,101.50613870000052,101.50613870000052,101.50613870000052,101.50613870000052,101.50613870000052,101.50613870000052,002,P003,2025_Jan_18_1201,CategoryLocalizer,2021.2.3,59.93888631171721,
75.8,76.0,5,0.0,Stimuli\Blank.png,0,0,0,128,128,128,,,,,,,,,,,,,75.81770289999986,0.017702899999861188,5,0.14018970000142872,102.30686360000072,102.30686360000072,102.30686360000072,102.30686360000072,102.30686360000072,102.30686360000072,102.30686360000072,102.30686360000072,002,P003,2025_Jan_18_1201,CategoryLocalizer,2021.2.3,59.93888631171721,
76.0,88.0,0,0.0,Stimuli\Blank.png,0,0,0,129,129,129,,,,,,,,,,,,,76.01523470000029,0.015234700000291923,5,11.956641200000377,102.49033650000092,102.49033650000092,102.49033650000092,102.49033650000092,102.49033650000092,102.49033650000092,102.49033650000092,102.49033650000092,002,P003,2025_Jan_18_1201,CategoryLocalizer,2021.2.3,59.93888631171721,
88.0,88.8,3,0.75,Stimuli\ImageFiles-Set2\Faces\Face_00050.png,0,0,0,130,130,130,,,,,,,,,,,,,88.00960979999945,0.009609799999452662,None,,114.48421690000032,114.48421690000032,114.48421690000032,114.48421690000032,114.48421690000032,114.48421690000032,114.48421690000032,114.48421690000032,002,P003,2025_Jan_18_1201,CategoryLocalizer,2021.2.3,59.93888631171721,
88.8,89.0,5,0.0,Stimuli\Blank.png,0,0,0,131,131,131,,,,,,,,,,,,,88.81166719999965,0.011667199999649824,None,,115.30161950000002,115.30161950000002,115.30161950000002,115.30161950000002,115.30161950000002,115.30161950000002,115.30161950000002,115.30161950000002,002,P003,2025_Jan_18_1201,CategoryLocalizer,2021.2.3,59.93888631171721,
89.0,89.8,3,0.75,Stimuli\ImageFiles-Set2\Faces\Face_00006.png,0,0,0,132,132,132,,,,,,,,,,,,,89.02789669999947,0.02789669999947364,None,,115.51843890000055,115.51843890000055,115.51843890000055,115.51843890000055,115.51843890000055,115.51843890000055,115.51843890000055,115.51843890000055,002,P003,2025_Jan_18_1201,CategoryLocalizer,2021.2.3,59.93888631171721,
89.8,90.0,5,0.0,Stimuli\Blank.png,0,0,0,133,133,133,,,,,,,,,,,,,89.82736280000063,0.027362800000631182,5,0.14464960000077554,116.30248310000025,116.30248310000025,116.30248310000025,116.30248310000025,116.30248310000025,116.30248310000025,116.30248310000025,116.30248310000025,002,P003,2025_Jan_18_1201,CategoryLocalizer,2021.2.3,59.93888631171721,
90.0,90.8,3,0.75,Stimuli\ImageFiles-Set2\Faces\Face_00082.png,0,0,0,134,134,134,,,,,,,,,,,,,90.01106000000073,0.011060000000725267,None,,116.48598130000028,116.48598130000028,116.48598130000028,116.48598130000028,116.48598130000028,116.48598130000028,116.48598130000028,116.48598130000028,002,P003,2025_Jan_18_1201,CategoryLocalizer,2021.2.3,59.93888631171721,
90.8,91.0,5,0.0,Stimuli\Blank.png,0,0,0,135,135,135,,,,,,,,,,,,,90.81250229999932,0.012502299999326283,None,,117.2866881000009,117.2866881000009,117.2866881000009,117.2866881000009,117.2866881000009,117.2866881000009,117.2866881000009,117.2866881000009,002,P003,2025_Jan_18_1201,CategoryLocalizer,2021.2.3,59.93888631171721,
91.0,91.8,3,0.75,Stimuli\ImageFiles-Set2\Faces\Face_00070.png,0,0,0,136,136,136,,,,,,,,,,,,,91.01345570000012,0.013455700000122306,None,,117.50365620000048,117.50365620000048,117.50365620000048,117.50365620000048,117.50365620000048,117.50365620000048,117.50365620000048,117.50365620000048,002,P003,2025_Jan_18_1201,CategoryLocalizer,2021.2.3,59.93888631171721,
91.8,92.0,5,0.0,Stimuli\Blank.png,0,0,0,137,137,137,,,,,,,,,,,,,91.83027849999962,0.03027849999962484,5,0.14289310000094702,118.30426110000008,118.30426110000008,118.30426110000008,118.30426110000008,118.30426110000008,118.30426110000008,118.30426110000008,118.30426110000008,002,P003,2025_Jan_18_1201,CategoryLocalizer,2021.2.3,59.93888631171721,
92.0,92.8,3,0.75,Stimuli\ImageFiles-Set2\Faces\Face_00058.png,0,0,0,138,138,138,,,,,,,,,,,,,92.01325630000065,0.01325630000064848,None,,118.50443710000036,118.50443710000036,118.50443710000036,118.50443710000036,118.50443710000036,118.50443710000036,118.50443710000036,118.50443710000036,002,P003,2025_Jan_18_1201,CategoryLocalizer,2021.2.3,59.93888631171721,
92.8,93.0,5,0.0,Stimuli\Blank.png,0,0,0,139,139,139,,,,,,,,,,,,,92.83259840000028,0.03259840000028191,None,,119.32180999999946,119.32180999999946,119.32180999999946,119.32180999999946,119.32180999999946,119.32180999999946,119.32180999999946,119.32180999999946,002,P003,2025_Jan_18_1201,CategoryLocalizer,2021.2.3,59.93888631171721,
93.0,93.8,3,0.75,Stimuli\ImageFiles-Set2\Faces\Face_00058.png,1,1,0,140,140,140,,,,,,,,,,,,,93.01358959999925,0.013589599999249913,1,0.5502732999993896,119.48862250000093,119.48862250000093,119.48862250000093,119.48862250000093,119.48862250000093,119.48862250000093,119.48862250000093,119.48862250000093,002,P003,2025_Jan_18_1201,CategoryLocalizer,2021.2.3,59.93888631171721,
93.8,94.0,5,0.0,Stimuli\Blank.png,0,0,0,141,141,141,,,,,,,,,,,,,93.81490320000012,0.01490320000011991,5,0.15756669999973383,120.28940880000118,120.28940880000118,120.28940880000118,120.28940880000118,120.28940880000118,120.28940880000118,120.28940880000118,120.28940880000118,002,P003,2025_Jan_18_1201,CategoryLocalizer,2021.2.3,59.93888631171721,
94.0,94.8,3,0.75,Stimuli\ImageFiles-Set2\Faces\Face_00088.png,0,0,0,142,142,142,,,,,,,,,,,,,94.0148365999994,0.014836599999398459,None,,120.48950139999943,120.48950139999943,120.48950139999943,120.48950139999943,120.48950139999943,120.48950139999943,120.48950139999943,120.48950139999943,002,P003,2025_Jan_18_1201,CategoryLocalizer,2021.2.3,59.93888631171721,
94.8,95.0,5,0.0,Stimuli\Blank.png,0,0,0,143,143,143,,,,,,,,,,,,,94.81620809999913,0.016208099999133196,None,,121.29021439999997,121.29021439999997,121.29021439999997,121.29021439999997,121.29021439999997,121.29021439999997,121.29021439999997,121.29021439999997,002,P003,2025_Jan_18_1201,CategoryLocalizer,2021.2.3,59.93888631171721,
95.0,95.8,3,0.75,Stimuli\ImageFiles-Set2\Faces\Face_00084.png,0,0,0,144,144,144,,,,,,,,,,,,,94.99897629999941,-0.0010237000005872687,None,,121.47370679999949,121.47370679999949,121.47370679999949,121.47370679999949,121.47370679999949,121.47370679999949,121.47370679999949,121.47370679999949,002,P003,2025_Jan_18_1201,CategoryLocalizer,2021.2.3,59.93888631171721,
95.8,96.0,5,0.0,Stimuli\Blank.png,0,0,0,145,145,145,,,,,,,,,,,,,95.79977800000052,-0.00022199999948213645,None,,122.27447779999966,122.27447779999966,122.27447779999966,122.27447779999966,122.27447779999966,122.27447779999966,122.27447779999966,122.27447779999966,002,P003,2025_Jan_18_1201,CategoryLocalizer,2021.2.3,59.93888631171721,
96.0,96.8,3,0.75,Stimuli\ImageFiles-Set2\Faces\Face_00056.png,0,0,0,146,146,146,,,,,,,,,,,,,96.00024610000037,0.0002461000003677327,None,,122.47458779999943,122.47458779999943,122.47458779999943,122.47458779999943,122.47458779999943,122.47458779999943,122.47458779999943,122.47458779999943,002,P003,2025_Jan_18_1201,CategoryLocalizer,2021.2.3,59.93888631171721,
96.8,97.0,5,0.0,Stimuli\Blank.png,0,0,0,147,147,147,,,,,,,,,,,,,96.80286200000046,0.002862000000462217,None,,123.29199329999938,123.29199329999938,123.29199329999938,123.29199329999938,123.29199329999938,123.29199329999938,123.29199329999938,123.29199329999938,002,P003,2025_Jan_18_1201,CategoryLocalizer,2021.2.3,59.93888631171721,
97.0,97.8,3,0.75,Stimuli\ImageFiles-Set2\Faces\Face_00030.png,0,0,0,148,148,148,,,,,,,,,,,,,97.0174977000006,0.0174977000006038,None,,123.49214089999987,123.49214089999987,123.49214089999987,123.49214089999987,123.49214089999987,123.49214089999987,123.49214089999987,123.49214089999987,002,P003,2025_Jan_18_1201,CategoryLocalizer,2021.2.3,59.93888631171721,
97.8,98.0,5,0.0,Stimuli\Blank.png,0,0,0,149,149,149,,,,,,,,,,,,,97.80163700000048,0.0016370000004855,None,,124.27617509999982,124.27617509999982,124.27617509999982,124.27617509999982,124.27617509999982,124.27617509999982,124.27617509999982,124.27617509999982,002,P003,2025_Jan_18_1201,CategoryLocalizer,2021.2.3,59.93888631171721,
98.0,98.8,3,0.75,Stimuli\ImageFiles-Set2\Faces\Face_00066.png,0,0,0,150,150,150,,,,,,,,,,,,,98.00194809999994,0.0019480999999359483,None,,124.49302780000107,124.49302780000107,124.49302780000107,124.49302780000107,124.49302780000107,124.49302780000107,124.49302780000107,124.49302780000107,002,P003,2025_Jan_18_1201,CategoryLocalizer,2021.2.3,59.93888631171721,
98.8,99.0,5,0.0,Stimuli\Blank.png,0,0,0,151,151,151,,,,,,,,,,,,,98.81892650000009,0.01892650000009155,None,,125.29373040000064,125.29373040000064,125.29373040000064,125.29373040000064,125.29373040000064,125.29373040000064,125.29373040000064,125.29373040000064,002,P003,2025_Jan_18_1201,CategoryLocalizer,2021.2.3,59.93888631171721,
99.0,99.8,3,0.75,Stimuli\ImageFiles-Set2\Faces\Face_00062.png,0,0,0,152,152,152,,,,,,,,,,,,,99.00282379999953,0.002823799999532639,None,,125.49390529999982,125.49390529999982,125.49390529999982,125.49390529999982,125.49390529999982,125.49390529999982,125.49390529999982,125.49390529999982,002,P003,2025_Jan_18_1201,CategoryLocalizer,2021.2.3,59.93888631171721,
99.8,100.0,5,0.0,Stimuli\Blank.png,0,0,0,153,153,153,,,,,,,,,,,,,99.82198260000041,0.0219826000004133,5,0.1355764999989333,126.31131240000104,126.31131240000104,126.31131240000104,126.31131240000104,126.31131240000104,126.31131240000104,126.31131240000104,126.31131240000104,002,P003,2025_Jan_18_1201,CategoryLocalizer,2021.2.3,59.93888631171721,
100.0,100.8,3,0.75,Stimuli\ImageFiles-Set2\Faces\Face_00104.png,0,0,0,154,154,154,,,,,,,,,,,,,100.01967820000027,0.019678200000271318,None,,126.49479150000116,126.49479150000116,126.49479150000116,126.49479150000116,126.49479150000116,126.49479150000116,126.49479150000116,126.49479150000116,002,P003,2025_Jan_18_1201,CategoryLocalizer,2021.2.3,59.93888631171721,
100.8,101.0,5,0.0,Stimuli\Blank.png,0,0,0,155,155,155,,,,,,,,,,,,,100.80447149999964,0.004471499999638695,None,,127.27881209999941,127.27881209999941,127.27881209999941,127.27881209999941,127.27881209999941,127.27881209999941,127.27881209999941,127.27881209999941,002,P003,2025_Jan_18_1201,CategoryLocalizer,2021.2.3,59.93888631171721,
101.0,101.8,3,0.75,Stimuli\ImageFiles-Set2\Faces\Face_00032.png,0,0,0,156,156,156,,,,,,,,,,,,,101.0039510000006,0.00395100000059756,None,,127.47899520000101,127.47899520000101,127.47899520000101,127.47899520000101,127.47899520000101,127.47899520000101,127.47899520000101,127.47899520000101,002,P003,2025_Jan_18_1201,CategoryLocalizer,2021.2.3,59.93888631171721,
101.8,102.0,5,0.0,Stimuli\Blank.png,0,0,0,157,157,157,,,,,,,,,,,,,101.80678710000029,0.006787100000295254,5,0.15049109999927168,128.29638030000024,128.29638030000024,128.29638030000024,128.29638030000024,128.29638030000024,128.29638030000024,128.29638030000024,128.29638030000024,002,P003,2025_Jan_18_1201,CategoryLocalizer,2021.2.3,59.93888631171721,
102.0,102.8,3,0.75,Stimuli\ImageFiles-Set2\Faces\Face_00100.png,0,0,0,158,158,158,,,,,,,,,,,,,102.02231050000046,0.022310500000457978,None,,128.51324589999967,128.51324589999967,128.51324589999967,128.51324589999967,128.51324589999967,128.51324589999967,128.51324589999967,128.51324589999967,002,P003,2025_Jan_18_1201,CategoryLocalizer,2021.2.3,59.93888631171721,
102.8,103.0,5,0.0,Stimuli\Blank.png,0,0,0,159,159,159,,,,,,,,,,,,,102.8228440999992,0.02284409999920456,None,,129.29725770000005,129.29725770000005,129.29725770000005,129.29725770000005,129.29725770000005,129.29725770000005,129.29725770000005,129.29725770000005,002,P003,2025_Jan_18_1201,CategoryLocalizer,2021.2.3,59.93888631171721,
103.0,103.8,3,0.75,Stimuli\ImageFiles-Set2\Faces\Face_00074.png,0,0,0,160,160,160,,,,,,,,,,,,,103.00595489999978,0.005954899999778718,None,,129.4807578,129.4807578,129.4807578,129.4807578,129.4807578,129.4807578,129.4807578,129.4807578,002,P003,2025_Jan_18_1201,CategoryLocalizer,2021.2.3,59.93888631171721,
103.8,104.0,5,0.0,Stimuli\Blank.png,0,0,0,161,161,161,,,,,,,,,,,,,103.80656169999929,0.006561699999295456,5,0.16557920000013837,130.28145080000104,130.28145080000104,130.28145080000104,130.28145080000104,130.28145080000104,130.28145080000104,130.28145080000104,130.28145080000104,002,P003,2025_Jan_18_1201,CategoryLocalizer,2021.2.3,59.93888631171721,
104.0,104.8,1,0.75,Stimuli\ImageFiles-Set2\Objects\Object_Hook_00001.png,0,0,0,162,162,162,,,,,,,,,,,,,104.00723909999942,0.00723909999942407,None,,130.48163550000027,130.48163550000027,130.48163550000027,130.48163550000027,130.48163550000027,130.48163550000027,130.48163550000027,130.48163550000027,002,P003,2025_Jan_18_1201,CategoryLocalizer,2021.2.3,59.93888631171721,
104.8,105.0,5,0.0,Stimuli\Blank.png,0,0,0,163,163,163,,,,,,,,,,,,,104.80771649999951,0.007716499999517623,None,,131.28233440000076,131.28233440000076,131.28233440000076,131.28233440000076,131.28233440000076,131.28233440000076,131.28233440000076,131.28233440000076,002,P003,2025_Jan_18_1201,CategoryLocalizer,2021.2.3,59.93888631171721,
105.0,105.8,1,0.75,Stimuli\ImageFiles-Set2\Objects\Object_Tape_00001.png,0,0,0,164,164,164,,,,,,,,,,,,,105.00738119999914,0.007381199999144883,None,,131.48251660000096,131.48251660000096,131.48251660000096,131.48251660000096,131.48251660000096,131.48251660000096,131.48251660000096,131.48251660000096,002,P003,2025_Jan_18_1201,CategoryLocalizer,2021.2.3,59.93888631171721,
105.8,106.0,5,0.0,Stimuli\Blank.png,0,0,0,165,165,165,,,,,,,,,,,,,105.80824009999924,0.008240099999241579,5,0.16372260000025562,132.28321069999947,132.28321069999947,132.28321069999947,132.28321069999947,132.28321069999947,132.28321069999947,132.28321069999947,132.28321069999947,002,P003,2025_Jan_18_1201,CategoryLocalizer,2021.2.3,59.93888631171721,
106.0,106.8,1,0.75,Stimuli\ImageFiles-Set2\Objects\Object_Barrel_00001.png,0,0,0,166,166,166,,,,,,,,,,,,,106.0086252000001,0.008625200000096811,None,,132.48339470000064,132.48339470000064,132.48339470000064,132.48339470000064,132.48339470000064,132.48339470000064,132.48339470000064,132.48339470000064,002,P003,2025_Jan_18_1201,CategoryLocalizer,2021.2.3,59.93888631171721,
106.8,107.0,5,0.0,Stimuli\Blank.png,0,0,0,167,167,167,,,,,,,,,,,,,106.80943079999997,0.009430799999975648,None,,133.28409570000076,133.28409570000076,133.28409570000076,133.28409570000076,133.28409570000076,133.28409570000076,133.28409570000076,133.28409570000076,002,P003,2025_Jan_18_1201,CategoryLocalizer,2021.2.3,59.93888631171721,
107.0,107.8,1,0.75,Stimuli\ImageFiles-Set2\Objects\Object_Keyboard_00001.png,0,0,0,168,168,168,,,,,,,,,,,,,107.01165550000042,0.011655500000415486,None,,133.50096140000096,133.50096140000096,133.50096140000096,133.50096140000096,133.50096140000096,133.50096140000096,133.50096140000096,133.50096140000096,002,P003,2025_Jan_18_1201,CategoryLocalizer,2021.2.3,59.93888631171721,
107.8,108.0,5,0.0,Stimuli\Blank.png,0,0,0,169,169,169,,,,,,,,,,,,,107.82778110000072,0.027781100000723313,5,0.14525999999932537,134.3016705000009,134.3016705000009,134.3016705000009,134.3016705000009,134.3016705000009,134.3016705000009,134.3016705000009,134.3016705000009,002,P003,2025_Jan_18_1201,CategoryLocalizer,2021.2.3,59.93888631171721,
108.0,108.8,1,0.75,Stimuli\ImageFiles-Set2\Objects\Object_Bicycle_00001.png,0,0,0,170,170,170,,,,,,,,,,,,,108.0108106000007,0.010810600000695558,None,,134.48515340000085,134.48515340000085,134.48515340000085,134.48515340000085,134.48515340000085,134.48515340000085,134.48515340000085,134.48515340000085,002,P003,2025_Jan_18_1201,CategoryLocalizer,2021.2.3,59.93888631171721,
108.8,109.0,5,0.0,Stimuli\Blank.png,0,0,0,171,171,171,,,,,,,,,,,,,108.81218380000064,0.012183800000642009,None,,135.28586709999945,135.28586709999945,135.28586709999945,135.28586709999945,135.28586709999945,135.28586709999945,135.28586709999945,135.28586709999945,002,P003,2025_Jan_18_1201,CategoryLocalizer,2021.2.3,59.93888631171721,
109.0,109.8,1,0.75,Stimuli\ImageFiles-Set2\Objects\Object_Bicycle_00001.png,1,1,0,172,172,172,,,,,,,,,,,,,109.01153929999964,0.011539299999640207,1,0.4458669999985432,135.48605040000075,135.48605040000075,135.48605040000075,135.48605040000075,135.48605040000075,135.48605040000075,135.48605040000075,135.48605040000075,002,P003,2025_Jan_18_1201,CategoryLocalizer,2021.2.3,59.93888631171721,
109.8,110.0,5,0.0,Stimuli\Blank.png,0,0,0,173,173,173,,,,,,,,,,,,,109.8116386999991,0.011638699999096502,5,0.1603305000007822,136.2867365000002,136.2867365000002,136.2867365000002,136.2867365000002,136.2867365000002,136.2867365000002,136.2867365000002,136.2867365000002,002,P003,2025_Jan_18_1201,CategoryLocalizer,2021.2.3,59.93888631171721,
110.0,110.8,1,0.75,Stimuli\ImageFiles-Set2\Objects\Object_Couch_00001.png,0,0,0,174,174,174,,,,,,,,,,,,,110.0126135999999,0.012613599999895087,None,,136.4869348000011,136.4869348000011,136.4869348000011,136.4869348000011,136.4869348000011,136.4869348000011,136.4869348000011,136.4869348000011,002,P003,2025_Jan_18_1201,CategoryLocalizer,2021.2.3,59.93888631171721,
110.8,111.0,5,0.0,Stimuli\Blank.png,0,0,0,175,175,175,,,,,,,,,,,,,110.81304439999985,0.013044399999856182,None,,137.28761769999983,137.28761769999983,137.28761769999983,137.28761769999983,137.28761769999983,137.28761769999983,137.28761769999983,137.28761769999983,002,P003,2025_Jan_18_1201,CategoryLocalizer,2021.2.3,59.93888631171721,
111.0,111.8,1,0.75,Stimuli\ImageFiles-Set2\Objects\Object_Pin_00001.png,0,0,0,176,176,176,,,,,,,,,,,,,111.01280240000051,0.012802400000509806,None,,137.4879858000004,137.4879858000004,137.4879858000004,137.4879858000004,137.4879858000004,137.4879858000004,137.4879858000004,137.4879858000004,002,P003,2025_Jan_18_1201,CategoryLocalizer,2021.2.3,59.93888631171721,
111.8,112.0,5,0.0,Stimuli\Blank.png,0,0,0,177,177,177,,,,,,,,,,,,,111.81338309999956,0.013383099999558112,5,0.1585438999991311,138.2885239999996,138.2885239999996,138.2885239999996,138.2885239999996,138.2885239999996,138.2885239999996,138.2885239999996,138.2885239999996,002,P003,2025_Jan_18_1201,CategoryLocalizer,2021.2.3,59.93888631171721,
112.0,112.8,1,0.75,Stimuli\ImageFiles-Set2\Objects\Object_Button1_00001.png,0,0,0,178,178,178,,,,,,,,,,,,,112.01406739999948,0.014067399999476038,None,,138.5053740000003,138.5053740000003,138.5053740000003,138.5053740000003,138.5053740000003,138.5053740000003,138.5053740000003,138.5053740000003,002,P003,2025_Jan_18_1201,CategoryLocalizer,2021.2.3,59.93888631171721,
112.8,113.0,5,0.0,Stimuli\Blank.png,0,0,0,179,179,179,,,,,,,,,,,,,112.83177500000056,0.031775000000564546,None,,139.3060607999996,139.3060607999996,139.3060607999996,139.3060607999996,139.3060607999996,139.3060607999996,139.3060607999996,139.3060607999996,002,P003,2025_Jan_18_1201,CategoryLocalizer,2021.2.3,59.93888631171721,
113.0,113.8,1,0.75,Stimuli\ImageFiles-Set2\Objects\Object_Desk_00001.png,1,1,0,180,180,180,,,,,,,,,,,,,113.01686840000002,0.01686840000002121,None,,139.50625260000015,139.50625260000015,139.50625260000015,139.50625260000015,139.50625260000015,139.50625260000015,139.50625260000015,139.50625260000015,002,P003,2025_Jan_18_1201,CategoryLocalizer,2021.2.3,59.93888631171721,
113.8,114.0,5,0.0,Stimuli\Blank.png,0,0,0,181,181,181,,,,,,,,,,,,,113.81771079999999,0.017710799999989035,5,0.13992479999978968,140.30696119999993,140.30696119999993,140.30696119999993,140.30696119999993,140.30696119999993,140.30696119999993,140.30696119999993,140.30696119999993,002,P003,2025_Jan_18_1201,CategoryLocalizer,2021.2.3,59.93888631171721,
114.0,114.8,1,0.75,Stimuli\ImageFiles-Set2\Objects\Object_Hamburger_00001.png,0,0,0,182,182,182,,,,,,,,,,,,,114.0155563999997,0.015556399999695714,None,,140.49044140000115,140.49044140000115,140.49044140000115,140.49044140000115,140.49044140000115,140.49044140000115,140.49044140000115,140.49044140000115,002,P003,2025_Jan_18_1201,CategoryLocalizer,2021.2.3,59.93888631171721,
114.8,115.0,5,0.0,Stimuli\Blank.png,0,0,0,183,183,183,,,,,,,,,,,,,114.79940979999992,-0.0005902000000759244,None,,141.2744784000006,141.2744784000006,141.2744784000006,141.2744784000006,141.2744784000006,141.2744784000006,141.2744784000006,141.2744784000006,002,P003,2025_Jan_18_1201,CategoryLocalizer,2021.2.3,59.93888631171721,
115.0,115.8,1,0.75,Stimuli\ImageFiles-Set2\Objects\Object_Hamburger_00001.png,0,0,0,184,184,184,,,,,,,,,,,,,115.00154959999963,0.0015495999996346654,1,0.4156529000010778,141.4913316000002,141.4913316000002,141.4913316000002,141.4913316000002,141.4913316000002,141.4913316000002,141.4913316000002,141.4913316000002,002,P003,2025_Jan_18_1201,CategoryLocalizer,2021.2.3,59.93888631171721,
115.8,116.0,5,0.0,Stimuli\Blank.png,0,0,0,185,185,185,,,,,,,,,,,,,115.81765970000015,0.017659700000152156,None,,142.2920226999995,142.2920226999995,142.2920226999995,142.2920226999995,142.2920226999995,142.2920226999995,142.2920226999995,142.2920226999995,002,P003,2025_Jan_18_1201,CategoryLocalizer,2021.2.3,59.93888631171721,
116.0,116.8,1,0.75,Stimuli\ImageFiles-Set2\Objects\Object_Perfume_00001.png,0,0,0,186,186,186,,,,,,,,,,,,,116.00215949999983,0.0021594999998342246,None,,142.49221190000026,142.49221190000026,142.49221190000026,142.49221190000026,142.49221190000026,142.49221190000026,142.49221190000026,142.49221190000026,002,P003,2025_Jan_18_1201,CategoryLocalizer,2021.2.3,59.93888631171721,
116.8,117.0,5,0.0,Stimuli\Blank.png,0,0,0,187,187,187,,,,,,,,,,,,,116.81830439999976,0.018304399999763632,None,,143.2929340999999,143.2929340999999,143.2929340999999,143.2929340999999,143.2929340999999,143.2929340999999,143.2929340999999,143.2929340999999,002,P003,2025_Jan_18_1201,CategoryLocalizer,2021.2.3,59.93888631171721,
117.0,117.8,1,0.75,Stimuli\ImageFiles-Set2\Objects\Object_WashingMachine_00001.png,0,0,0,188,188,188,,,,,,,,,,,,,117.00218470000073,0.00218470000072557,None,,143.4764066000007,143.4764066000007,143.4764066000007,143.4764066000007,143.4764066000007,143.4764066000007,143.4764066000007,143.4764066000007,002,P003,2025_Jan_18_1201,CategoryLocalizer,2021.2.3,59.93888631171721,
117.8,118.0,5,0.0,Stimuli\Blank.png,0,0,0,189,189,189,,,,,,,,,,,,,117.80242200000066,0.0024220000006636155,None,,144.2771100000009,144.2771100000009,144.2771100000009,144.2771100000009,144.2771100000009,144.2771100000009,144.2771100000009,144.2771100000009,002,P003,2025_Jan_18_1201,CategoryLocalizer,2021.2.3,59.93888631171721,
118.0,118.8,1,0.75,Stimuli\ImageFiles-Set2\Objects\Object_Battery_00001.png,0,0,0,190,190,190,,,,,,,,,,,,,118.00266550000015,0.002665500000148313,None,,144.47728470000038,144.47728470000038,144.47728470000038,144.47728470000038,144.47728470000038,144.47728470000038,144.47728470000038,144.47728470000038,002,P003,2025_Jan_18_1201,CategoryLocalizer,2021.2.3,59.93888631171721,
118.8,119.0,5,0.0,Stimuli\Blank.png,0,0,0,191,191,191,,,,,,,,,,,,,118.8033904999993,0.003390499999298413,None,,145.2779857000005,145.2779857000005,145.2779857000005,145.2779857000005,145.2779857000005,145.2779857000005,145.2779857000005,145.2779857000005,002,P003,2025_Jan_18_1201,CategoryLocalizer,2021.2.3,59.93888631171721,
119.0,119.8,1,0.75,Stimuli\ImageFiles-Set2\Objects\Object_Toast_00001.png,0,0,0,192,192,192,,,,,,,,,,,,,119.00396240000009,0.003962400000091293,None,,145.47815919999994,145.47815919999994,145.47815919999994,145.47815919999994,145.47815919999994,145.47815919999994,145.47815919999994,145.47815919999994,002,P003,2025_Jan_18_1201,CategoryLocalizer,2021.2.3,59.93888631171721,
119.8,120.0,5,0.0,Stimuli\Blank.png,0,0,0,193,193,193,,,,,,,,,,,,,119.80640529999982,0.006405299999826752,None,,146.29561490000015,146.29561490000015,146.29561490000015,146.29561490000015,146.29561490000015,146.29561490000015,146.29561490000015,146.29561490000015,002,P003,2025_Jan_18_1201,CategoryLocalizer,2021.2.3,59.93888631171721,
120.0,120.8,4,0.75,Stimuli\ImageFiles-Set2\Scenes\Scenes_062.png,0,0,0,194,194,194,,,,,,,,,,,,,120.0216603000008,0.021660300000803545,None,,146.51240379999945,146.51240379999945,146.51240379999945,146.51240379999945,146.51240379999945,146.51240379999945,146.51240379999945,146.51240379999945,002,P003,2025_Jan_18_1201,CategoryLocalizer,2021.2.3,59.93888631171721,
120.8,121.0,5,0.0,Stimuli\Blank.png,0,0,0,195,195,195,,,,,,,,,,,,,120.82250460000068,0.02250460000068699,None,,147.29643059999944,147.29643059999944,147.29643059999944,147.29643059999944,147.29643059999944,147.29643059999944,147.29643059999944,147.29643059999944,002,P003,2025_Jan_18_1201,CategoryLocalizer,2021.2.3,59.93888631171721,
121.0,121.8,4,0.75,Stimuli\ImageFiles-Set2\Scenes\Scenes_087.png,0,0,0,196,196,196,,,,,,,,,,,,,121.0054882000004,0.0054882000003999565,None,,147.4799163000007,147.4799163000007,147.4799163000007,147.4799163000007,147.4799163000007,147.4799163000007,147.4799163000007,147.4799163000007,002,P003,2025_Jan_18_1201,CategoryLocalizer,2021.2.3,59.93888631171721,
121.8,122.0,5,0.0,Stimuli\Blank.png,0,0,0,197,197,197,,,,,,,,,,,,,121.80655660000048,0.006556600000479307,5,0.1661746999998286,148.28063180000026,148.28063180000026,148.28063180000026,148.28063180000026,148.28063180000026,148.28063180000026,148.28063180000026,148.28063180000026,002,P003,2025_Jan_18_1201,CategoryLocalizer,2021.2.3,59.93888631171721,
122.0,122.8,4,0.75,Stimuli\ImageFiles-Set2\Scenes\Scenes_085.png,0,0,0,198,198,198,,,,,,,,,,,,,122.00660550000066,0.0066055000006599585,None,,148.4808035999995,148.4808035999995,148.4808035999995,148.4808035999995,148.4808035999995,148.4808035999995,148.4808035999995,148.4808035999995,002,P003,2025_Jan_18_1201,CategoryLocalizer,2021.2.3,59.93888631171721,
122.8,123.0,5,0.0,Stimuli\Blank.png,0,0,0,199,199,199,,,,,,,,,,,,,122.80643260000033,0.006432600000337629,None,,149.28150170000117,149.28150170000117,149.28150170000117,149.28150170000117,149.28150170000117,149.28150170000117,149.28150170000117,149.28150170000117,002,P003,2025_Jan_18_1201,CategoryLocalizer,2021.2.3,59.93888631171721,
123.0,123.8,4,0.75,Stimuli\ImageFiles-Set2\Scenes\Scenes_061.png,0,0,0,200,200,200,,,,,,,,,,,,,123.00650610000048,0.006506100000478909,None,,149.48168020000048,149.48168020000048,149.48168020000048,149.48168020000048,149.48168020000048,149.48168020000048,149.48168020000048,149.48168020000048,002,P003,2025_Jan_18_1201,CategoryLocalizer,2021.2.3,59.93888631171721,
123.8,124.0,5,0.0,Stimuli\Blank.png,0,0,0,201,201,201,,,,,,,,,,,,,123.80720160000055,0.007201600000556141,5,0.1645829999997659,150.28238469999997,150.28238469999997,150.28238469999997,150.28238469999997,150.28238469999997,150.28238469999997,150.28238469999997,150.28238469999997,002,P003,2025_Jan_18_1201,CategoryLocalizer,2021.2.3,59.93888631171721,
124.0,124.8,4,0.75,Stimuli\ImageFiles-Set2\Scenes\Scenes_108.png,0,0,0,202,202,202,,,,,,,,,,,,,124.00776829999995,0.007768299999952433,None,,150.49927390000084,150.49927390000084,150.49927390000084,150.49927390000084,150.49927390000084,150.49927390000084,150.49927390000084,150.49927390000084,002,P003,2025_Jan_18_1201,CategoryLocalizer,2021.2.3,59.93888631171721,
124.8,125.0,5,0.0,Stimuli\Blank.png,0,0,0,203,203,203,,,,,,,,,,,,,124.82548769999994,0.025487699999942492,None,,151.2999560999997,151.2999560999997,151.2999560999997,151.2999560999997,151.2999560999997,151.2999560999997,151.2999560999997,151.2999560999997,002,P003,2025_Jan_18_1201,CategoryLocalizer,2021.2.3,59.93888631171721,
125.0,125.8,4,0.75,Stimuli\ImageFiles-Set2\Scenes\Scenes_073.png,0,0,0,204,204,204,,,,,,,,,,,,,125.00909259999935,0.00909259999934875,None,,151.5001271000001,151.5001271000001,151.5001271000001,151.5001271000001,151.5001271000001,151.5001271000001,151.5001271000001,151.5001271000001,002,P003,2025_Jan_18_1201,CategoryLocalizer,2021.2.3,59.93888631171721,
125.8,126.0,5,0.0,Stimuli\Blank.png,0,0,0,205,205,205,,,,,,,,,,,,,125.82582870000078,0.025828700000786853,5,0.1459316000000399,152.30090349999955,152.30090349999955,152.30090349999955,152.30090349999955,152.30090349999955,152.30090349999955,152.30090349999955,152.30090349999955,002,P003,2025_Jan_18_1201,CategoryLocalizer,2021.2.3,59.93888631171721,
126.0,126.8,4,0.75,Stimuli\ImageFiles-Set2\Scenes\Scenes_073.png,1,1,0,206,206,206,,,,,,,,,,,,,126.00937750000048,0.009377500000482542,1,0.5155408999999054,152.48433040000054,152.48433040000054,152.48433040000054,152.48433040000054,152.48433040000054,152.48433040000054,152.48433040000054,152.48433040000054,002,P003,2025_Jan_18_1201,CategoryLocalizer,2021.2.3,59.93888631171721,
126.8,127.0,5,0.0,Stimuli\Blank.png,0,0,0,207,207,207,,,,,,,,,,,,,126.81201909999982,0.01201909999981865,None,,153.30174100000113,153.30174100000113,153.30174100000113,153.30174100000113,153.30174100000113,153.30174100000113,153.30174100000113,153.30174100000113,002,P003,2025_Jan_18_1201,CategoryLocalizer,2021.2.3,59.93888631171721,
127.0,127.8,4,0.75,Stimuli\ImageFiles-Set2\Scenes\Scenes_077.png,0,0,0,208,208,208,,,,,,,,,,,,,127.02768389999983,0.02768389999982901,None,,153.5018985000006,153.5018985000006,153.5018985000006,153.5018985000006,153.5018985000006,153.5018985000006,153.5018985000006,153.5018985000006,002,P003,2025_Jan_18_1201,CategoryLocalizer,2021.2.3,59.93888631171721,
127.8,128.0,5,0.0,Stimuli\Blank.png,0,0,0,209,209,209,,,,,,,,,,,,,127.81149410000035,0.01149410000034834,5,0.16109030000006896,154.2859129999997,154.2859129999997,154.2859129999997,154.2859129999997,154.2859129999997,154.2859129999997,154.2859129999997,154.2859129999997,002,P003,2025_Jan_18_1201,CategoryLocalizer,2021.2.3,59.93888631171721,
128.0,128.8,4,0.75,Stimuli\ImageFiles-Set2\Scenes\Scenes_089.png,0,0,0,210,210,210,,,,,,,,,,,,,128.0114991999999,0.011499199999889242,None,,154.5027659999996,154.5027659999996,154.5027659999996,154.5027659999996,154.5027659999996,154.5027659999996,154.5027659999996,154.5027659999996,002,P003,2025_Jan_18_1201,CategoryLocalizer,2021.2.3,59.93888631171721,
128.8,129.0,5,0.0,Stimuli\Blank.png,0,0,0,211,211,211,,,,,,,,,,,,,128.8288592000008,0.028859200000795227,None,,155.3034760999999,155.3034760999999,155.3034760999999,155.3034760999999,155.3034760999999,155.3034760999999,155.3034760999999,155.3034760999999,002,P003,2025_Jan_18_1201,CategoryLocalizer,2021.2.3,59.93888631171721,
129.0,129.8,4,0.75,Stimuli\ImageFiles-Set2\Scenes\Scenes_109.png,0,0,0,212,212,212,,,,,,,,,,,,,129.0128468999992,0.012846899999203742,None,,155.50365079999938,155.50365079999938,155.50365079999938,155.50365079999938,155.50365079999938,155.50365079999938,155.50365079999938,155.50365079999938,002,P003,2025_Jan_18_1201,CategoryLocalizer,2021.2.3,59.93888631171721,
129.8,130.0,5,0.0,Stimuli\Blank.png,0,0,0,213,213,213,,,,,,,,,,,,,129.83179299999938,0.03179299999936802,5,0.12592550000044866,156.32106050000039,156.32106050000039,156.32106050000039,156.32106050000039,156.32106050000039,156.32106050000039,156.32106050000039,156.32106050000039,002,P003,2025_Jan_18_1201,CategoryLocalizer,2021.2.3,59.93888631171721,
130.0,130.8,4,0.75,Stimuli\ImageFiles-Set2\Scenes\Scenes_076.png,0,0,0,214,214,214,,,,,,,,,,,,,130.0295900000001,0.02959000000009837,None,,156.50453949999974,156.50453949999974,156.50453949999974,156.50453949999974,156.50453949999974,156.50453949999974,156.50453949999974,156.50453949999974,002,P003,2025_Jan_18_1201,CategoryLocalizer,2021.2.3,59.93888631171721,
130.8,131.0,5,0.0,Stimuli\Blank.png,0,0,0,215,215,215,,,,,,,,,,,,,130.81345069999952,0.013450699999509652,None,,157.28855750000002,157.28855750000002,157.28855750000002,157.28855750000002,157.28855750000002,157.28855750000002,157.28855750000002,157.28855750000002,002,P003,2025_Jan_18_1201,CategoryLocalizer,2021.2.3,59.93888631171721,
131.0,131.8,4,0.75,Stimuli\ImageFiles-Set2\Scenes\Scenes_119.png,0,0,0,216,216,216,,,,,,,,,,,,,131.01390189999984,0.013901899999837042,None,,157.50541580000026,157.50541580000026,157.50541580000026,157.50541580000026,157.50541580000026,157.50541580000026,157.50541580000026,157.50541580000026,002,P003,2025_Jan_18_1201,CategoryLocalizer,2021.2.3,59.93888631171721,
131.8,132.0,5,0.0,Stimuli\Blank.png,0,0,0,217,217,217,,,,,,,,,,,,,131.8322150999993,0.0322150999992914,None,,158.3061233999997,158.3061233999997,158.3061233999997,158.3061233999997,158.3061233999997,158.3061233999997,158.3061233999997,158.3061233999997,002,P003,2025_Jan_18_1201,CategoryLocalizer,2021.2.3,59.93888631171721,
132.0,132.8,4,0.75,Stimuli\ImageFiles-Set2\Scenes\Scenes_102.png,0,0,0,218,218,218,,,,,,,,,,,,,131.99830180000026,-0.0016981999997369712,None,,158.47292820000075,158.47292820000075,158.47292820000075,158.47292820000075,158.47292820000075,158.47292820000075,158.47292820000075,158.47292820000075,002,P003,2025_Jan_18_1201,CategoryLocalizer,2021.2.3,59.93888631171721,
132.8,133.0,5,0.0,Stimuli\Blank.png,0,0,0,219,219,219,,,,,,,,,,,,,132.79921850000028,-0.0007814999997322047,None,,159.27363909999985,159.27363909999985,159.27363909999985,159.27363909999985,159.27363909999985,159.27363909999985,159.27363909999985,159.27363909999985,002,P003,2025_Jan_18_1201,CategoryLocalizer,2021.2.3,59.93888631171721,
133.0,133.8,4,0.75,Stimuli\ImageFiles-Set2\Scenes\Scenes_075.png,0,0,0,220,220,220,,,,,,,,,,,,,132.99946739999905,-0.0005326000009517884,None,,159.49049000000014,159.49049000000014,159.49049000000014,159.49049000000014,159.49049000000014,159.49049000000014,159.49049000000014,159.49049000000014,002,P003,2025_Jan_18_1201,CategoryLocalizer,2021.2.3,59.93888631171721,
133.8,134.0,5,0.0,Stimuli\Blank.png,0,0,0,221,221,221,,,,,,,,,,,,,133.81671359999928,0.016713599999263806,None,,160.29120599999987,160.29120599999987,160.29120599999987,160.29120599999987,160.29120599999987,160.29120599999987,160.29120599999987,160.29120599999987,002,P003,2025_Jan_18_1201,CategoryLocalizer,2021.2.3,59.93888631171721,
134.0,134.8,4,0.75,Stimuli\ImageFiles-Set2\Scenes\Scenes_101.png,0,0,0,222,222,222,,,,,,,,,,,,,133.99970369999937,-0.00029630000062752515,None,,160.4746926000007,160.4746926000007,160.4746926000007,160.4746926000007,160.4746926000007,160.4746926000007,160.4746926000007,160.4746926000007,002,P003,2025_Jan_18_1201,CategoryLocalizer,2021.2.3,59.93888631171721,
134.8,135.0,5,0.0,Stimuli\Blank.png,0,0,0,223,223,223,,,,,,,,,,,,,134.8010833999997,0.0010833999996862076,None,,161.2754100000002,161.2754100000002,161.2754100000002,161.2754100000002,161.2754100000002,161.2754100000002,161.2754100000002,161.2754100000002,002,P003,2025_Jan_18_1201,CategoryLocalizer,2021.2.3,59.93888631171721,
135.0,135.8,4,0.75,Stimuli\ImageFiles-Set2\Scenes\Scenes_092.png,0,0,0,224,224,224,,,,,,,,,,,,,135.0015352999999,0.0015352999998867745,None,,161.49225339999975,161.49225339999975,161.49225339999975,161.49225339999975,161.49225339999975,161.49225339999975,161.49225339999975,161.49225339999975,002,P003,2025_Jan_18_1201,CategoryLocalizer,2021.2.3,59.93888631171721,
135.8,136.0,5,0.0,Stimuli\Blank.png,0,0,0,225,225,225,,,,,,,,,,,,,135.81788179999967,0.017881799999656778,None,,162.29295360000106,162.29295360000106,162.29295360000106,162.29295360000106,162.29295360000106,162.29295360000106,162.29295360000106,162.29295360000106,002,P003,2025_Jan_18_1201,CategoryLocalizer,2021.2.3,59.93888631171721,
136.0,136.8,2,0.75,Stimuli\ImageFiles-Set2\Bodies\Bodies_Jumping_00003.png,0,0,0,226,226,226,,,,,,,,,,,,,136.00141819999953,0.0014181999995344086,None,,162.47645700000066,162.47645700000066,162.47645700000066,162.47645700000066,162.47645700000066,162.47645700000066,162.47645700000066,162.47645700000066,002,P003,2025_Jan_18_1201,CategoryLocalizer,2021.2.3,59.93888631171721,
136.8,137.0,5,0.0,Stimuli\Blank.png,0,0,0,227,227,227,,,,,,,,,,,,,136.80271729999913,0.0027172999991194047,None,,163.27717029999985,163.27717029999985,163.27717029999985,163.27717029999985,163.27717029999985,163.27717029999985,163.27717029999985,163.27717029999985,002,P003,2025_Jan_18_1201,CategoryLocalizer,2021.2.3,59.93888631171721,
137.0,137.8,2,0.75,Stimuli\ImageFiles-Set2\Bodies\Bodies_QuadStretch_00006.png,0,0,0,228,228,228,,,,,,,,,,,,,137.00302460000057,0.0030246000005718088,None,,163.49403470000107,163.49403470000107,163.49403470000107,163.49403470000107,163.49403470000107,163.49403470000107,163.49403470000107,163.49403470000107,002,P003,2025_Jan_18_1201,CategoryLocalizer,2021.2.3,59.93888631171721,
137.8,138.0,5,0.0,Stimuli\Blank.png,0,0,0,229,229,229,,,,,,,,,,,,,137.8204824000004,0.02048240000038959,None,,164.29472680000072,164.29472680000072,164.29472680000072,164.29472680000072,164.29472680000072,164.29472680000072,164.29472680000072,164.29472680000072,002,P003,2025_Jan_18_1201,CategoryLocalizer,2021.2.3,59.93888631171721,
138.0,138.8,2,0.75,Stimuli\ImageFiles-Set2\Bodies\Bodies_Kicking_00001.png,0,0,0,230,230,230,,,,,,,,,,,,,138.00361820000035,0.0036182000003464054,None,,164.49491330000092,164.49491330000092,164.49491330000092,164.49491330000092,164.49491330000092,164.49491330000092,164.49491330000092,164.49491330000092,002,P003,2025_Jan_18_1201,CategoryLocalizer,2021.2.3,59.93888631171721,
138.8,139.0,5,0.0,Stimuli\Blank.png,0,0,0,231,231,231,,,,,,,,,,,,,138.82143499999984,0.021434999999826232,None,,165.29561699999977,165.29561699999977,165.29561699999977,165.29561699999977,165.29561699999977,165.29561699999977,165.29561699999977,165.29561699999977,002,P003,2025_Jan_18_1201,CategoryLocalizer,2021.2.3,59.93888631171721,
139.0,139.8,2,0.75,Stimuli\ImageFiles-Set2\Bodies\Bodies_Kicking_00001.png,1,1,0,232,232,232,,,,,,,,,,,,,139.0044600000001,0.004460000000108266,1,0.48184239999864076,165.47910690000026,165.47910690000026,165.47910690000026,165.47910690000026,165.47910690000026,165.47910690000026,165.47910690000026,165.47910690000026,002,P003,2025_Jan_18_1201,CategoryLocalizer,2021.2.3,59.93888631171721,
139.8,140.0,5,0.0,Stimuli\Blank.png,0,0,0,233,233,233,,,,,,,,,,,,,139.80588680000074,0.005886800000723724,5,0.16710710000006657,166.27980790000038,166.27980790000038,166.27980790000038,166.27980790000038,166.27980790000038,166.27980790000038,166.27980790000038,166.27980790000038,002,P003,2025_Jan_18_1201,CategoryLocalizer,2021.2.3,59.93888631171721,
140.0,140.8,2,0.75,Stimuli\ImageFiles-Set2\Bodies\Bodies_CobraPose_00007.png,0,0,0,234,234,234,,,,,,,,,,,,,140.00742309999987,0.0074230999998690095,None,,166.49666100000104,166.49666100000104,166.49666100000104,166.49666100000104,166.49666100000104,166.49666100000104,166.49666100000104,166.49666100000104,002,P003,2025_Jan_18_1201,CategoryLocalizer,2021.2.3,59.93888631171721,
140.8,141.0,5,0.0,Stimuli\Blank.png,0,0,0,235,235,235,,,,,,,,,,,,,140.8223969999999,0.022396999999898526,None,,167.2974219000007,167.2974219000007,167.2974219000007,167.2974219000007,167.2974219000007,167.2974219000007,167.2974219000007,167.2974219000007,002,P003,2025_Jan_18_1201,CategoryLocalizer,2021.2.3,59.93888631171721,
141.0,141.8,2,0.75,Stimuli\ImageFiles-Set2\Bodies\Bodies_Kneeling_00001.png,0,0,0,236,236,236,,,,,,,,,,,,,141.0063566000008,0.006356600000799517,None,,167.49755670000013,167.49755670000013,167.49755670000013,167.49755670000013,167.49755670000013,167.49755670000013,167.49755670000013,167.49755670000013,002,P003,2025_Jan_18_1201,CategoryLocalizer,2021.2.3,59.93888631171721,
141.8,142.0,5,0.0,Stimuli\Blank.png,0,0,0,237,237,237,,,,,,,,,,,,,141.8239467000003,0.02394670000029464,5,0.14850420000038866,168.2982718000003,168.2982718000003,168.2982718000003,168.2982718000003,168.2982718000003,168.2982718000003,168.2982718000003,168.2982718000003,002,P003,2025_Jan_18_1201,CategoryLocalizer,2021.2.3,59.93888631171721,
142.0,142.8,2,0.75,Stimuli\ImageFiles-Set2\Bodies\Bodies_Walking_00005.png,0,0,0,238,238,238,,,,,,,,,,,,,142.00681710000026,0.006817100000262144,None,,168.48174520000066,168.48174520000066,168.48174520000066,168.48174520000066,168.48174520000066,168.48174520000066,168.48174520000066,168.48174520000066,002,P003,2025_Jan_18_1201,CategoryLocalizer,2021.2.3,59.93888631171721,
142.8,143.0,5,0.0,Stimuli\Blank.png,0,0,0,239,239,239,,,,,,,,,,,,,142.80755259999933,0.00755259999931468,None,,169.28244540000014,169.28244540000014,169.28244540000014,169.28244540000014,169.28244540000014,169.28244540000014,169.28244540000014,169.28244540000014,002,P003,2025_Jan_18_1201,CategoryLocalizer,2021.2.3,59.93888631171721,
143.0,143.8,2,0.75,Stimuli\ImageFiles-Set2\Bodies\Bodies_Punching_00005.png,0,0,0,240,240,240,,,,,,,,,,,,,143.00790339999912,0.007903399999122485,None,,169.4993185000003,169.4993185000003,169.4993185000003,169.4993185000003,169.4993185000003,169.4993185000003,169.4993185000003,169.4993185000003,002,P003,2025_Jan_18_1201,CategoryLocalizer,2021.2.3,59.93888631171721,
143.8,144.0,5,0.0,Stimuli\Blank.png,0,0,0,241,241,241,,,,,,,,,,,,,143.8260692999993,0.026069299999278428,5,0.14689090000138094,170.30000110000037,170.30000110000037,170.30000110000037,170.30000110000037,170.30000110000037,170.30000110000037,170.30000110000037,170.30000110000037,002,P003,2025_Jan_18_1201,CategoryLocalizer,2021.2.3,59.93888631171721,
144.0,144.8,2,0.75,Stimuli\ImageFiles-Set2\Bodies\Bodies_Jumping_00005.png,0,0,0,242,242,242,,,,,,,,,,,,,144.00920199999928,0.009201999999277177,None,,170.50018509999973,170.50018509999973,170.50018509999973,170.50018509999973,170.50018509999973,170.50018509999973,170.50018509999973,170.50018509999973,002,P003,2025_Jan_18_1201,CategoryLocalizer,2021.2.3,59.93888631171721,
144.8,145.0,5,0.0,Stimuli\Blank.png,0,0,0,243,243,243,,,,,,,,,,,,,144.82666430000063,0.02666430000061837,None,,171.30089120000048,171.30089120000048,171.30089120000048,171.30089120000048,171.30089120000048,171.30089120000048,171.30089120000048,171.30089120000048,002,P003,2025_Jan_18_1201,CategoryLocalizer,2021.2.3,59.93888631171721,
145.0,145.8,2,0.75,Stimuli\ImageFiles-Set2\Bodies\Bodies_Jumping_00001.png,1,1,0,244,244,244,,,,,,,,,,,,,145.01162010000007,0.011620100000072853,None,,171.50106360000063,171.50106360000063,171.50106360000063,171.50106360000063,171.50106360000063,171.50106360000063,171.50106360000063,171.50106360000063,002,P003,2025_Jan_18_1201,CategoryLocalizer,2021.2.3,59.93888631171721,
145.8,146.0,5,0.0,Stimuli\Blank.png,0,0,0,245,245,245,,,,,,,,,,,,,145.8271380999995,0.02713809999949035,5,0.1449931999995897,172.30178100000012,172.30178100000012,172.30178100000012,172.30178100000012,172.30178100000012,172.30178100000012,172.30178100000012,172.30178100000012,002,P003,2025_Jan_18_1201,CategoryLocalizer,2021.2.3,59.93888631171721,
146.0,146.8,2,0.75,Stimuli\ImageFiles-Set2\Bodies\Bodies_Punching_00007.png,0,0,0,246,246,246,,,,,,,,,,,,,146.01170119999915,0.011701199999151868,None,,172.5019396000007,172.5019396000007,172.5019396000007,172.5019396000007,172.5019396000007,172.5019396000007,172.5019396000007,172.5019396000007,002,P003,2025_Jan_18_1201,CategoryLocalizer,2021.2.3,59.93888631171721,
146.8,147.0,5,0.0,Stimuli\Blank.png,0,0,0,247,247,247,,,,,,,,,,,,,146.82806250000067,0.02806250000065802,None,,173.30265280000094,173.30265280000094,173.30265280000094,173.30265280000094,173.30265280000094,173.30265280000094,173.30265280000094,173.30265280000094,002,P003,2025_Jan_18_1201,CategoryLocalizer,2021.2.3,59.93888631171721,
147.0,147.8,2,0.75,Stimuli\ImageFiles-Set2\Bodies\Bodies_Punching_00007.png,0,0,0,248,248,248,,,,,,,,,,,,,147.01145449999967,0.011454499999672407,1,0.47777899999891815,173.48615340000106,173.48615340000106,173.48615340000106,173.48615340000106,173.48615340000106,173.48615340000106,173.48615340000106,173.48615340000106,002,P003,2025_Jan_18_1201,CategoryLocalizer,2021.2.3,59.93888631171721,
147.8,148.0,5,0.0,Stimuli\Blank.png,0,0,0,249,249,249,,,,,,,,,,,,,147.81241659999978,0.012416599999767186,5,0.16010389999973995,174.28684450000037,174.28684450000037,174.28684450000037,174.28684450000037,174.28684450000037,174.28684450000037,174.28684450000037,174.28684450000037,002,P003,2025_Jan_18_1201,CategoryLocalizer,2021.2.3,59.93888631171721,
148.0,148.8,2,0.75,Stimuli\ImageFiles-Set2\Bodies\Bodies_Running_00007.png,0,0,0,250,250,250,,,,,,,,,,,,,148.01219149999997,0.012191499999971711,None,,174.48702439999943,174.48702439999943,174.48702439999943,174.48702439999943,174.48702439999943,174.48702439999943,174.48702439999943,174.48702439999943,002,P003,2025_Jan_18_1201,CategoryLocalizer,2021.2.3,59.93888631171721,
148.8,149.0,5,0.0,Stimuli\Blank.png,0,0,0,251,251,251,,,,,,,,,,,,,148.81321749999915,0.013217499999143456,None,,175.2877208000009,175.2877208000009,175.2877208000009,175.2877208000009,175.2877208000009,175.2877208000009,175.2877208000009,175.2877208000009,002,P003,2025_Jan_18_1201,CategoryLocalizer,2021.2.3,59.93888631171721,
149.0,149.8,2,0.75,Stimuli\ImageFiles-Set2\Bodies\Bodies_Running_00002.png,0,0,0,252,252,252,,,,,,,,,,,,,149.01376920000075,0.01376920000075188,None,,175.50460530000055,175.50460530000055,175.50460530000055,175.50460530000055,175.50460530000055,175.50460530000055,175.50460530000055,175.50460530000055,002,P003,2025_Jan_18_1201,CategoryLocalizer,2021.2.3,59.93888631171721,
149.8,150.0,5,0.0,Stimuli\Blank.png,0,0,0,253,253,253,,,,,,,,,,,,,149.8304707999996,0.030470799999591236,5,0.14158559999850695,176.30529170000045,176.30529170000045,176.30529170000045,176.30529170000045,176.30529170000045,176.30529170000045,176.30529170000045,176.30529170000045,002,P003,2025_Jan_18_1201,CategoryLocalizer,2021.2.3,59.93888631171721,
150.0,150.8,2,0.75,Stimuli\ImageFiles-Set2\Bodies\Bodies_SittingFloor_00004.png,0,0,0,254,254,254,,,,,,,,,,,,,150.01404790000015,0.014047900000150548,None,,176.5221633000001,176.5221633000001,176.5221633000001,176.5221633000001,176.5221633000001,176.5221633000001,176.5221633000001,176.5221633000001,002,P003,2025_Jan_18_1201,CategoryLocalizer,2021.2.3,59.93888631171721,
150.8,151.0,5,0.0,Stimuli\Blank.png,0,0,0,255,255,255,,,,,,,,,,,,,150.84839230000034,0.048392300000330124,None,,177.32285140000022,177.32285140000022,177.32285140000022,177.32285140000022,177.32285140000022,177.32285140000022,177.32285140000022,177.32285140000022,002,P003,2025_Jan_18_1201,CategoryLocalizer,2021.2.3,59.93888631171721,
151.0,151.8,2,0.75,Stimuli\ImageFiles-Set2\Bodies\Bodies_Hanging_00005.png,0,0,0,256,256,256,,,,,,,,,,,,,151.01672340000005,0.01672340000004624,None,,177.50635630000033,177.50635630000033,177.50635630000033,177.50635630000033,177.50635630000033,177.50635630000033,177.50635630000033,177.50635630000033,002,P003,2025_Jan_18_1201,CategoryLocalizer,2021.2.3,59.93888631171721,
151.8,152.0,5,0.0,Stimuli\Blank.png,0,0,0,257,257,257,,,,,,,,,,,,,151.81586489999972,0.015864899999712634,None,,178.29037679999965,178.29037679999965,178.29037679999965,178.29037679999965,178.29037679999965,178.29037679999965,178.29037679999965,178.29037679999965,002,P003,2025_Jan_18_1201,CategoryLocalizer,2021.2.3,59.93888631171721,
152.0,164.0,0,0.0,Stimuli\Blank.png,0,0,0,258,258,258,,,,,,,,,,,,,151.9993412999993,-0.0006587000007129973,5,11.972851500000615,178.47387789999993,178.47387789999993,178.47387789999993,178.47387789999993,178.47387789999993,178.47387789999993,178.47387789999993,178.47387789999993,002,P003,2025_Jan_18_1201,CategoryLocalizer,2021.2.3,59.93888631171721,
164.0,164.8,4,0.75,Stimuli\ImageFiles-Set2\Scenes\Scenes_098.png,0,0,0,259,259,259,,,,,,,,,,,,,164.0104377000007,0.01043770000069344,None,,190.5011147999994,190.5011147999994,190.5011147999994,190.5011147999994,190.5011147999994,190.5011147999994,190.5011147999994,190.5011147999994,002,P003,2025_Jan_18_1201,CategoryLocalizer,2021.2.3,59.93888631171721,
164.8,165.0,5,0.0,Stimuli\Blank.png,0,0,0,260,260,260,,,,,,,,,,,,,164.82717339999908,0.027173399999071535,None,,191.30183639999996,191.30183639999996,191.30183639999996,191.30183639999996,191.30183639999996,191.30183639999996,191.30183639999996,191.30183639999996,002,P003,2025_Jan_18_1201,CategoryLocalizer,2021.2.3,59.93888631171721,
165.0,165.8,4,0.75,Stimuli\ImageFiles-Set2\Scenes\Scenes_115.png,0,0,0,261,261,261,,,,,,,,,,,,,165.01020620000054,0.010206200000538956,None,,191.48530879999998,191.48530879999998,191.48530879999998,191.48530879999998,191.48530879999998,191.48530879999998,191.48530879999998,191.48530879999998,002,P003,2025_Jan_18_1201,CategoryLocalizer,2021.2.3,59.93888631171721,
165.8,166.0,5,0.0,Stimuli\Blank.png,0,0,0,262,262,262,,,,,,,,,,,,,165.81102979999923,0.011029799999221268,5,0.16058499999962805,192.28606840000066,192.28606840000066,192.28606840000066,192.28606840000066,192.28606840000066,192.28606840000066,192.28606840000066,192.28606840000066,002,P003,2025_Jan_18_1201,CategoryLocalizer,2021.2.3,59.93888631171721,
166.0,166.8,4,0.75,Stimuli\ImageFiles-Set2\Scenes\Scenes_064.png,0,0,0,263,263,263,,,,,,,,,,,,,166.011665,0.011664999999993597,None,,192.48619250000047,192.48619250000047,192.48619250000047,192.48619250000047,192.48619250000047,192.48619250000047,192.48619250000047,192.48619250000047,002,P003,2025_Jan_18_1201,CategoryLocalizer,2021.2.3,59.93888631171721,
166.8,167.0,5,0.0,Stimuli\Blank.png,0,0,0,264,264,264,,,,,,,,,,,,,166.81304830000045,0.013048300000434665,None,,193.28690520000055,193.28690520000055,193.28690520000055,193.28690520000055,193.28690520000055,193.28690520000055,193.28690520000055,193.28690520000055,002,P003,2025_Jan_18_1201,CategoryLocalizer,2021.2.3,59.93888631171721,
167.0,167.8,4,0.75,Stimuli\ImageFiles-Set2\Scenes\Scenes_078.png,0,0,0,265,265,265,,,,,,,,,,,,,167.01202340000054,0.012023400000543916,None,,193.50378219999948,193.50378219999948,193.50378219999948,193.50378219999948,193.50378219999948,193.50378219999948,193.50378219999948,193.50378219999948,002,P003,2025_Jan_18_1201,CategoryLocalizer,2021.2.3,59.93888631171721,
167.8,168.0,5,0.0,Stimuli\Blank.png,0,0,0,266,266,266,,,,,,,,,,,,,167.83154379999905,0.03154379999904222,5,0.12552119999963907,194.32115990000057,194.32115990000057,194.32115990000057,194.32115990000057,194.32115990000057,194.32115990000057,194.32115990000057,194.32115990000057,002,P003,2025_Jan_18_1201,CategoryLocalizer,2021.2.3,59.93888631171721,
168.0,168.8,4,0.75,Stimuli\ImageFiles-Set2\Scenes\Scenes_065.png,0,0,0,267,267,267,,,,,,,,,,,,,168.03034649999972,0.030346499999723164,None,,194.50463930000114,194.50463930000114,194.50463930000114,194.50463930000114,194.50463930000114,194.50463930000114,194.50463930000114,194.50463930000114,002,P003,2025_Jan_18_1201,CategoryLocalizer,2021.2.3,59.93888631171721,
168.8,169.0,5,0.0,Stimuli\Blank.png,0,0,0,268,268,268,,,,,,,,,,,,,168.81410499999947,0.014104999999460688,None,,195.28870730000017,195.28870730000017,195.28870730000017,195.28870730000017,195.28870730000017,195.28870730000017,195.28870730000017,195.28870730000017,002,P003,2025_Jan_18_1201,CategoryLocalizer,2021.2.3,59.93888631171721,
169.0,169.8,4,0.75,Stimuli\ImageFiles-Set2\Scenes\Scenes_065.png,1,1,0,269,269,269,,,,,,,,,,,,,169.01447929999995,0.014479299999948125,1,0.5280567999998311,195.48880790000112,195.48880790000112,195.48880790000112,195.48880790000112,195.48880790000112,195.48880790000112,195.48880790000112,195.48880790000112,002,P003,2025_Jan_18_1201,CategoryLocalizer,2021.2.3,59.93888631171721,
169.8,170.0,5,0.0,Stimuli\Blank.png,0,0,0,270,270,270,,,,,,,,,,,,,169.8143815000003,0.014381500000297365,5,0.15719210000133899,196.28954770000018,196.28954770000018,196.28954770000018,196.28954770000018,196.28954770000018,196.28954770000018,196.28954770000018,196.28954770000018,002,P003,2025_Jan_18_1201,CategoryLocalizer,2021.2.3,59.93888631171721,
170.0,170.8,4,0.75,Stimuli\ImageFiles-Set2\Scenes\Scenes_079.png,0,0,0,271,271,271,,,,,,,,,,,,,170.01672709999912,0.016727099999116035,None,,196.5063811,196.5063811,196.5063811,196.5063811,196.5063811,196.5063811,196.5063811,196.5063811,002,P003,2025_Jan_18_1201,CategoryLocalizer,2021.2.3,59.93888631171721,
170.8,171.0,5,0.0,Stimuli\Blank.png,0,0,0,272,272,272,,,,,,,,,,,,,170.81752369999958,0.017523699999571818,None,,197.30710460000046,197.30710460000046,197.30710460000046,197.30710460000046,197.30710460000046,197.30710460000046,197.30710460000046,197.30710460000046,002,P003,2025_Jan_18_1201,CategoryLocalizer,2021.2.3,59.93888631171721,
171.0,171.8,4,0.75,Stimuli\ImageFiles-Set2\Scenes\Scenes_091.png,0,0,0,273,273,273,,,,,,,,,,,,,171.01621720000003,0.016217200000028242,None,,197.49060009999994,197.49060009999994,197.49060009999994,197.49060009999994,197.49060009999994,197.49060009999994,197.49060009999994,197.49060009999994,002,P003,2025_Jan_18_1201,CategoryLocalizer,2021.2.3,59.93888631171721,
171.8,172.0,5,0.0,Stimuli\Blank.png,0,0,0,274,274,274,,,,,,,,,,,,,171.8013434000004,0.0013434000003940127,5,0.15563620000102674,198.2913155999995,198.2913155999995,198.2913155999995,198.2913155999995,198.2913155999995,198.2913155999995,198.2913155999995,198.2913155999995,002,P003,2025_Jan_18_1201,CategoryLocalizer,2021.2.3,59.93888631171721,
172.0,172.8,4,0.75,Stimuli\ImageFiles-Set2\Scenes\Scenes_093.png,1,1,0,275,275,275,,,,,,,,,,,,,172.01727179999943,0.017271799999434734,None,,198.50816599999962,198.50816599999962,198.50816599999962,198.50816599999962,198.50816599999962,198.50816599999962,198.50816599999962,198.50816599999962,002,P003,2025_Jan_18_1201,CategoryLocalizer,2021.2.3,59.93888631171721,
172.8,173.0,5,0.0,Stimuli\Blank.png,0,0,0,276,276,276,,,,,,,,,,,,,172.81737939999948,0.017379399999470024,None,,199.2921877000008,199.2921877000008,199.2921877000008,199.2921877000008,199.2921877000008,199.2921877000008,199.2921877000008,199.2921877000008,002,P003,2025_Jan_18_1201,CategoryLocalizer,2021.2.3,59.93888631171721,
173.0,173.8,4,0.75,Stimuli\ImageFiles-Set2\Scenes\Scenes_100.png,0,0,0,277,277,277,,,,,,,,,,,,,173.00155669999913,0.0015566999991278863,None,,199.49236159999964,199.49236159999964,199.49236159999964,199.49236159999964,199.49236159999964,199.49236159999964,199.49236159999964,199.49236159999964,002,P003,2025_Jan_18_1201,CategoryLocalizer,2021.2.3,59.93888631171721,
173.8,174.0,5,0.0,Stimuli\Blank.png,0,0,0,278,278,278,,,,,,,,,,,,,173.81835890000002,0.018358900000009726,None,,200.29307449999942,200.29307449999942,200.29307449999942,200.29307449999942,200.29307449999942,200.29307449999942,200.29307449999942,200.29307449999942,002,P003,2025_Jan_18_1201,CategoryLocalizer,2021.2.3,59.93888631171721,
174.0,174.8,4,0.75,Stimuli\ImageFiles-Set2\Scenes\Scenes_100.png,0,0,0,279,279,279,,,,,,,,,,,,,174.002376299999,0.002376299999014009,1,0.5214175000000978,200.49325150000004,200.49325150000004,200.49325150000004,200.49325150000004,200.49325150000004,200.49325150000004,200.49325150000004,200.49325150000004,002,P003,2025_Jan_18_1201,CategoryLocalizer,2021.2.3,59.93888631171721,
174.8,175.0,5,0.0,Stimuli\Blank.png,0,0,0,280,280,280,,,,,,,,,,,,,174.81876159999956,0.01876159999955007,None,,201.29394830000092,201.29394830000092,201.29394830000092,201.29394830000092,201.29394830000092,201.29394830000092,201.29394830000092,201.29394830000092,002,P003,2025_Jan_18_1201,CategoryLocalizer,2021.2.3,59.93888631171721,
175.0,175.8,4,0.75,Stimuli\ImageFiles-Set2\Scenes\Scenes_095.png,0,0,0,281,281,281,,,,,,,,,,,,,175.00223209999967,0.0022320999996736646,None,,201.49416700000074,201.49416700000074,201.49416700000074,201.49416700000074,201.49416700000074,201.49416700000074,201.49416700000074,201.49416700000074,002,P003,2025_Jan_18_1201,CategoryLocalizer,2021.2.3,59.93888631171721,
175.8,176.0,5,0.0,Stimuli\Blank.png,0,0,0,282,282,282,,,,,,,,,,,,,175.82005220000065,0.020052200000634457,None,,202.29489169999943,202.29489169999943,202.29489169999943,202.29489169999943,202.29489169999943,202.29489169999943,202.29489169999943,202.29489169999943,002,P003,2025_Jan_18_1201,CategoryLocalizer,2021.2.3,59.93888631171721,
176.0,176.8,4,0.75,Stimuli\ImageFiles-Set2\Scenes\Scenes_084.png,0,0,0,283,283,283,,,,,,,,,,,,,176.0036512000006,0.003651200000604149,None,,202.49500079999962,202.49500079999962,202.49500079999962,202.49500079999962,202.49500079999962,202.49500079999962,202.49500079999962,202.49500079999962,002,P003,2025_Jan_18_1201,CategoryLocalizer,2021.2.3,59.93888631171721,
