eventStartTime,eventEndTime,eventCond,imSize,imFile,repeatedImage,responseEvent,Events.thisRepN,Events.thisTrialN,Events.thisN,Events.thisIndex,Instructions.started,Instructions.stopped,participantReadyResponse.keys,participantReadyResponse.rt,participantReadyResponse.started,participantReadyResponse.stopped,startWaitforTrigger,triggerResponse.keys,triggerResponse.rt,triggerResponse.started,triggerResponse.stopped,globalTimer,actualStartTime,startTimingDiff,participantResponse.keys,participantResponse.rt,participantResponse.started,participantResponse.stopped,image.started,image.stopped,fixationOutside.started,fixationOutside.stopped,fixationInside.started,fixationInside.stopped,session,participant,date,expName,psychopyVersion,frameRate,
,,,,,,,,,,,22.61641410000084,None,4,4.29103049999685,22.61641410000084,None,,,,,,,,,,,,,,,,,,,001,P004,2025_Jan_18_1354,CategoryLocalizer,2021.2.3,59.92477044239689,
,,,,,,,,,,,,,,,,,26.91676180000286,5,13.04122759999882,26.930045000000973,None,,,,,,,,,,,,,,001,P004,2025_Jan_18_1354,CategoryLocalizer,2021.2.3,59.92477044239689,
0.0,12.0,0,0.0,Stimuli\Blank.png,0,0,0,0,0,0,,,,,,,,,,,,39.978091900000436,0.0529218999981822,0.0529218999981822,5,9.929893300002732,40.041576100000384,None,40.041576100000384,None,40.041576100000384,None,40.041576100000384,None,001,P004,2025_Jan_18_1354,CategoryLocalizer,2021.2.3,59.92477044239689,
12.0,12.8,1,0.75,Stimuli\ImageFiles-Set1\Objects\Object_Football_00001.png,0,0,0,1,1,1,,,,,,,,,,,,,12.011699799997587,0.011699799997586524,None,,52.01878840000063,52.01878840000063,52.01878840000063,52.01878840000063,52.01878840000063,52.01878840000063,52.01878840000063,52.01878840000063,001,P004,2025_Jan_18_1354,CategoryLocalizer,2021.2.3,59.92477044239689,
12.8,13.0,5,0.0,Stimuli\Blank.png,0,0,0,2,2,2,,,,,,,,,,,,,12.827415600000677,0.02741560000067622,None,,52.81951459999982,52.81951459999982,52.81951459999982,52.81951459999982,52.81951459999982,52.81951459999982,52.81951459999982,52.81951459999982,001,P004,2025_Jan_18_1354,CategoryLocalizer,2021.2.3,59.92477044239689,
13.0,13.8,1,0.75,Stimuli\ImageFiles-Set1\Objects\Object_Knife_00001.png,0,0,0,3,3,3,,,,,,,,,,,,,13.01043799999752,0.01043799999752082,None,,53.01969680000184,53.01969680000184,53.01969680000184,53.01969680000184,53.01969680000184,53.01969680000184,53.01969680000184,53.01969680000184,001,P004,2025_Jan_18_1354,CategoryLocalizer,2021.2.3,59.92477044239689,
13.8,14.0,5,0.0,Stimuli\Blank.png,0,0,0,4,4,4,,,,,,,,,,,,,13.828132899998309,0.028132899998308147,5,0.1508352000018931,53.820370400000684,53.820370400000684,53.820370400000684,53.820370400000684,53.820370400000684,53.820370400000684,53.820370400000684,53.820370400000684,001,P004,2025_Jan_18_1354,CategoryLocalizer,2021.2.3,59.92477044239689,
14.0,14.8,1,0.75,Stimuli\ImageFiles-Set1\Objects\Object_Toilet_00001.png,0,0,0,5,5,5,,,,,,,,,,,,,14.011607799999183,0.011607799999183044,None,,54.020555400002195,54.020555400002195,54.020555400002195,54.020555400002195,54.020555400002195,54.020555400002195,54.020555400002195,54.020555400002195,001,P004,2025_Jan_18_1354,CategoryLocalizer,2021.2.3,59.92477044239689,
14.8,15.0,5,0.0,Stimuli\Blank.png,0,0,0,6,6,6,,,,,,,,,,,,,14.828720900000917,0.028720900000916316,None,,54.82125790000282,54.82125790000282,54.82125790000282,54.82125790000282,54.82125790000282,54.82125790000282,54.82125790000282,54.82125790000282,001,P004,2025_Jan_18_1354,CategoryLocalizer,2021.2.3,59.92477044239689,
15.0,15.8,1,0.75,Stimuli\ImageFiles-Set1\Objects\Object_Pizza_00001.png,0,0,0,7,7,7,,,,,,,,,,,,,15.014194499999576,0.014194499999575783,None,,55.021431799999846,55.021431799999846,55.021431799999846,55.021431799999846,55.021431799999846,55.021431799999846,55.021431799999846,55.021431799999846,001,P004,2025_Jan_18_1354,CategoryLocalizer,2021.2.3,59.92477044239689,
15.8,16.0,5,0.0,Stimuli\Blank.png,0,0,0,8,8,8,,,,,,,,,,,,,15.829941500000132,0.02994150000013107,5,0.14897130000099423,55.822140399999626,55.822140399999626,55.822140399999626,55.822140399999626,55.822140399999626,55.822140399999626,55.822140399999626,55.822140399999626,001,P004,2025_Jan_18_1354,CategoryLocalizer,2021.2.3,59.92477044239689,
16.0,16.8,1,0.75,Stimuli\ImageFiles-Set1\Objects\Object_Pizza_00001.png,1,1,0,9,9,9,,,,,,,,,,,,,16.01483200000075,0.014832000000751577,4,0.5838289999992412,56.02231320000283,56.02231320000283,56.02231320000283,56.02231320000283,56.02231320000283,56.02231320000283,56.02231320000283,56.02231320000283,001,P004,2025_Jan_18_1354,CategoryLocalizer,2021.2.3,59.92477044239689,
16.8,17.0,5,0.0,Stimuli\Blank.png,0,0,0,10,10,10,,,,,,,,,,,,,16.83072909999828,0.030729099998278997,None,,56.82301229999939,56.82301229999939,56.82301229999939,56.82301229999939,56.82301229999939,56.82301229999939,56.82301229999939,56.82301229999939,001,P004,2025_Jan_18_1354,CategoryLocalizer,2021.2.3,59.92477044239689,
17.0,17.8,1,0.75,Stimuli\ImageFiles-Set1\Objects\Object_GarbageCan_00001.png,0,0,0,11,11,11,,,,,,,,,,,,,17.01400029999786,0.014000299997860566,None,,57.00650790000145,57.00650790000145,57.00650790000145,57.00650790000145,57.00650790000145,57.00650790000145,57.00650790000145,57.00650790000145,001,P004,2025_Jan_18_1354,CategoryLocalizer,2021.2.3,59.92477044239689,
17.8,18.0,5,0.0,Stimuli\Blank.png,0,0,0,12,12,12,,,,,,,,,,,,,17.81546460000027,0.015464600000267836,5,0.1650225000012142,57.80721640000047,57.80721640000047,57.80721640000047,57.80721640000047,57.80721640000047,57.80721640000047,57.80721640000047,57.80721640000047,001,P004,2025_Jan_18_1354,CategoryLocalizer,2021.2.3,59.92477044239689,
18.0,18.8,1,0.75,Stimuli\ImageFiles-Set1\Objects\Object_Bottle_00001.png,0,0,0,13,13,13,,,,,,,,,,,,,18.01611259999845,0.016112599998450605,None,,58.00739530000283,58.00739530000283,58.00739530000283,58.00739530000283,58.00739530000283,58.00739530000283,58.00739530000283,58.00739530000283,001,P004,2025_Jan_18_1354,CategoryLocalizer,2021.2.3,59.92477044239689,
18.8,19.0,5,0.0,Stimuli\Blank.png,0,0,0,14,14,14,,,,,,,,,,,,,18.79992839999977,-7.160000022921054e-05,None,,58.791423000002396,58.791423000002396,58.791423000002396,58.791423000002396,58.791423000002396,58.791423000002396,58.791423000002396,58.791423000002396,001,P004,2025_Jan_18_1354,CategoryLocalizer,2021.2.3,59.92477044239689,
19.0,19.8,1,0.75,Stimuli\ImageFiles-Set1\Objects\Object_Banana_00001.png,0,0,0,15,15,15,,,,,,,,,,,,,18.998943899998267,-0.0010561000017332844,None,,58.99159510000027,58.99159510000027,58.99159510000027,58.99159510000027,58.99159510000027,58.99159510000027,58.99159510000027,58.99159510000027,001,P004,2025_Jan_18_1354,CategoryLocalizer,2021.2.3,59.92477044239689,
19.8,20.0,5,0.0,Stimuli\Blank.png,0,0,0,16,16,16,,,,,,,,,,,,,19.80015110000022,0.00015110000022033887,None,,59.79230169999937,59.79230169999937,59.79230169999937,59.79230169999937,59.79230169999937,59.79230169999937,59.79230169999937,59.79230169999937,001,P004,2025_Jan_18_1354,CategoryLocalizer,2021.2.3,59.92477044239689,
20.0,20.8,1,0.75,Stimuli\ImageFiles-Set1\Objects\Object_IroningBoard_00001.png,0,0,0,17,17,17,,,,,,,,,,,,,20.000155099998665,0.0001550999986648094,None,,59.99251709999953,59.99251709999953,59.99251709999953,59.99251709999953,59.99251709999953,59.99251709999953,59.99251709999953,59.99251709999953,001,P004,2025_Jan_18_1354,CategoryLocalizer,2021.2.3,59.92477044239689,
20.8,21.0,5,0.0,Stimuli\Blank.png,0,0,0,18,18,18,,,,,,,,,,,,,20.800991899999644,0.000991899999643664,None,,60.79316169999947,60.79316169999947,60.79316169999947,60.79316169999947,60.79316169999947,60.79316169999947,60.79316169999947,60.79316169999947,001,P004,2025_Jan_18_1354,CategoryLocalizer,2021.2.3,59.92477044239689,
21.0,21.8,1,0.75,Stimuli\ImageFiles-Set1\Objects\Object_Airplane_00001.png,0,0,0,19,19,19,,,,,,,,,,,,,21.00059709999914,0.0005970999991404824,None,,60.99335509999946,60.99335509999946,60.99335509999946,60.99335509999946,60.99335509999946,60.99335509999946,60.99335509999946,60.99335509999946,001,P004,2025_Jan_18_1354,CategoryLocalizer,2021.2.3,59.92477044239689,
21.8,22.0,5,0.0,Stimuli\Blank.png,0,0,0,20,20,20,,,,,,,,,,,,,21.802044500000193,0.0020445000001920732,None,,61.79405890000271,61.79405890000271,61.79405890000271,61.79405890000271,61.79405890000271,61.79405890000271,61.79405890000271,61.79405890000271,001,P004,2025_Jan_18_1354,CategoryLocalizer,2021.2.3,59.92477044239689,
22.0,22.8,1,0.75,Stimuli\ImageFiles-Set1\Objects\Object_Book_00001.png,0,0,0,21,21,21,,,,,,,,,,,,,22.002164800000173,0.0021648000001732726,None,,62.01092500000232,62.01092500000232,62.01092500000232,62.01092500000232,62.01092500000232,62.01092500000232,62.01092500000232,62.01092500000232,001,P004,2025_Jan_18_1354,CategoryLocalizer,2021.2.3,59.92477044239689,
22.8,23.0,5,0.0,Stimuli\Blank.png,0,0,0,22,22,22,,,,,,,,,,,,,22.81982269999935,0.019822699999348714,None,,62.81162260000201,62.81162260000201,62.81162260000201,62.81162260000201,62.81162260000201,62.81162260000201,62.81162260000201,62.81162260000201,001,P004,2025_Jan_18_1354,CategoryLocalizer,2021.2.3,59.92477044239689,
23.0,23.8,1,0.75,Stimuli\ImageFiles-Set1\Objects\Object_Table_00001.png,0,0,0,23,23,23,,,,,,,,,,,,,23.005246000000625,0.0052460000006249174,None,,63.01176990000022,63.01176990000022,63.01176990000022,63.01176990000022,63.01176990000022,63.01176990000022,63.01176990000022,63.01176990000022,001,P004,2025_Jan_18_1354,CategoryLocalizer,2021.2.3,59.92477044239689,
23.8,24.0,5,0.0,Stimuli\Blank.png,0,0,0,24,24,24,,,,,,,,,,,,,23.82017509999787,0.020175099997867818,None,,63.81247190000067,63.81247190000067,63.81247190000067,63.81247190000067,63.81247190000067,63.81247190000067,63.81247190000067,63.81247190000067,001,P004,2025_Jan_18_1354,CategoryLocalizer,2021.2.3,59.92477044239689,
24.0,24.8,1,0.75,Stimuli\ImageFiles-Set1\Objects\Object_FileFolder_00001.png,0,0,0,25,25,25,,,,,,,,,,,,,24.00385240000105,0.0038524000010511372,None,,64.01268130000244,64.01268130000244,64.01268130000244,64.01268130000244,64.01268130000244,64.01268130000244,64.01268130000244,64.01268130000244,001,P004,2025_Jan_18_1354,CategoryLocalizer,2021.2.3,59.92477044239689,
24.8,25.0,5,0.0,Stimuli\Blank.png,0,0,0,26,26,26,,,,,,,,,,,,,24.821246399998927,0.02124639999892608,None,,64.81337890000214,64.81337890000214,64.81337890000214,64.81337890000214,64.81337890000214,64.81337890000214,64.81337890000214,64.81337890000214,001,P004,2025_Jan_18_1354,CategoryLocalizer,2021.2.3,59.92477044239689,
25.0,25.8,1,0.75,Stimuli\ImageFiles-Set1\Objects\Object_Walnut_00001.png,1,1,0,27,27,27,,,,,,,,,,,,,25.005135899999004,0.005135899999004323,None,,65.01355110000077,65.01355110000077,65.01355110000077,65.01355110000077,65.01355110000077,65.01355110000077,65.01355110000077,65.01355110000077,001,P004,2025_Jan_18_1354,CategoryLocalizer,2021.2.3,59.92477044239689,
25.8,26.0,5,0.0,Stimuli\Blank.png,0,0,0,28,28,28,,,,,,,,,,,,,25.824293599998782,0.024293599998781445,5,0.14114390000031563,65.83097480000288,65.83097480000288,65.83097480000288,65.83097480000288,65.83097480000288,65.83097480000288,65.83097480000288,65.83097480000288,001,P004,2025_Jan_18_1354,CategoryLocalizer,2021.2.3,59.92477044239689,
26.0,26.8,1,0.75,Stimuli\ImageFiles-Set1\Objects\Object_Shirt_00001.png,0,0,0,29,29,29,,,,,,,,,,,,,26.02188860000024,0.02188860000023851,None,,66.01462710000123,66.01462710000123,66.01462710000123,66.01462710000123,66.01462710000123,66.01462710000123,66.01462710000123,66.01462710000123,001,P004,2025_Jan_18_1354,CategoryLocalizer,2021.2.3,59.92477044239689,
26.8,27.0,5,0.0,Stimuli\Blank.png,0,0,0,30,30,30,,,,,,,,,,,,,26.80648039999869,0.00648039999868999,None,,66.79849160000231,66.79849160000231,66.79849160000231,66.79849160000231,66.79849160000231,66.79849160000231,66.79849160000231,66.79849160000231,001,P004,2025_Jan_18_1354,CategoryLocalizer,2021.2.3,59.92477044239689,
27.0,27.8,1,0.75,Stimuli\ImageFiles-Set1\Objects\Object_Shirt_00001.png,0,0,0,31,31,31,,,,,,,,,,,,,27.006287799998972,0.006287799998972332,4,0.6595507000020007,66.99863390000246,66.99863390000246,66.99863390000246,66.99863390000246,66.99863390000246,66.99863390000246,66.99863390000246,66.99863390000246,001,P004,2025_Jan_18_1354,CategoryLocalizer,2021.2.3,59.92477044239689,
27.8,28.0,5,0.0,Stimuli\Blank.png,0,0,0,32,32,32,,,,,,,,,,,,,27.80717839999852,0.007178399998519325,None,,67.79934340000182,67.79934340000182,67.79934340000182,67.79934340000182,67.79934340000182,67.79934340000182,67.79934340000182,67.79934340000182,001,P004,2025_Jan_18_1354,CategoryLocalizer,2021.2.3,59.92477044239689,
28.0,28.8,2,0.75,Stimuli\ImageFiles-Set1\Bodies\Bodies_Punching_00003.png,0,0,0,33,33,33,,,,,,,,,,,,,28.007550499998615,0.007550499998615123,None,,67.99952810000104,67.99952810000104,67.99952810000104,67.99952810000104,67.99952810000104,67.99952810000104,67.99952810000104,67.99952810000104,001,P004,2025_Jan_18_1354,CategoryLocalizer,2021.2.3,59.92477044239689,
28.8,29.0,5,0.0,Stimuli\Blank.png,0,0,0,34,34,34,,,,,,,,,,,,,28.80924469999809,0.009244699998088635,None,,68.8169274000029,68.8169274000029,68.8169274000029,68.8169274000029,68.8169274000029,68.8169274000029,68.8169274000029,68.8169274000029,001,P004,2025_Jan_18_1354,CategoryLocalizer,2021.2.3,59.92477044239689,
29.0,29.8,2,0.75,Stimuli\ImageFiles-Set1\Bodies\Bodies_SittingStretch_00002.png,0,0,0,35,35,35,,,,,,,,,,,,,29.02490409999882,0.02490409999882104,None,,69.0170872000017,69.0170872000017,69.0170872000017,69.0170872000017,69.0170872000017,69.0170872000017,69.0170872000017,69.0170872000017,001,P004,2025_Jan_18_1354,CategoryLocalizer,2021.2.3,59.92477044239689,
29.8,30.0,5,0.0,Stimuli\Blank.png,0,0,0,36,36,36,,,,,,,,,,,,,29.809035099999164,0.00903509999916352,None,,69.80110319999949,69.80110319999949,69.80110319999949,69.80110319999949,69.80110319999949,69.80110319999949,69.80110319999949,69.80110319999949,001,P004,2025_Jan_18_1354,CategoryLocalizer,2021.2.3,59.92477044239689,
30.0,30.8,2,0.75,Stimuli\ImageFiles-Set1\Bodies\Bodies_Pushing_00003.png,0,0,0,37,37,37,,,,,,,,,,,,,30.008978099998785,0.008978099998785183,None,,70.00128590000168,70.00128590000168,70.00128590000168,70.00128590000168,70.00128590000168,70.00128590000168,70.00128590000168,70.00128590000168,001,P004,2025_Jan_18_1354,CategoryLocalizer,2021.2.3,59.92477044239689,
30.8,31.0,5,0.0,Stimuli\Blank.png,0,0,0,38,38,38,,,,,,,,,,,,,30.80983600000036,0.00983600000035878,None,,70.8019932999996,70.8019932999996,70.8019932999996,70.8019932999996,70.8019932999996,70.8019932999996,70.8019932999996,70.8019932999996,001,P004,2025_Jan_18_1354,CategoryLocalizer,2021.2.3,59.92477044239689,
31.0,31.8,2,0.75,Stimuli\ImageFiles-Set1\Bodies\Bodies_SittingChair_00001.png,0,0,0,39,39,39,,,,,,,,,,,,,31.009977199999412,0.009977199999411823,None,,71.00215560000288,71.00215560000288,71.00215560000288,71.00215560000288,71.00215560000288,71.00215560000288,71.00215560000288,71.00215560000288,001,P004,2025_Jan_18_1354,CategoryLocalizer,2021.2.3,59.92477044239689,
31.8,32.0,5,0.0,Stimuli\Blank.png,0,0,0,40,40,40,,,,,,,,,,,,,31.81083750000107,0.01083750000107031,None,,71.8028688000013,71.8028688000013,71.8028688000013,71.8028688000013,71.8028688000013,71.8028688000013,71.8028688000013,71.8028688000013,001,P004,2025_Jan_18_1354,CategoryLocalizer,2021.2.3,59.92477044239689,
32.0,32.8,2,0.75,Stimuli\ImageFiles-Set1\Bodies\Bodies_Hanging_00006.png,0,0,0,41,41,41,,,,,,,,,,,,,32.010184599999775,0.010184599999774946,None,,72.00304150000011,72.00304150000011,72.00304150000011,72.00304150000011,72.00304150000011,72.00304150000011,72.00304150000011,72.00304150000011,001,P004,2025_Jan_18_1354,CategoryLocalizer,2021.2.3,59.92477044239689,
32.8,33.0,5,0.0,Stimuli\Blank.png,0,0,0,42,42,42,,,,,,,,,,,,,32.81104240000059,0.011042400000590646,None,,72.80374800000209,72.80374800000209,72.80374800000209,72.80374800000209,72.80374800000209,72.80374800000209,72.80374800000209,72.80374800000209,001,P004,2025_Jan_18_1354,CategoryLocalizer,2021.2.3,59.92477044239689,
33.0,33.8,2,0.75,Stimuli\ImageFiles-Set1\Bodies\Bodies_DownwardDog_00007.png,0,0,0,43,43,43,,,,,,,,,,,,,33.01150290000078,0.011502900000778027,None,,73.00398730000234,73.00398730000234,73.00398730000234,73.00398730000234,73.00398730000234,73.00398730000234,73.00398730000234,73.00398730000234,001,P004,2025_Jan_18_1354,CategoryLocalizer,2021.2.3,59.92477044239689,
33.8,34.0,5,0.0,Stimuli\Blank.png,0,0,0,44,44,44,,,,,,,,,,,,,33.81466050000017,0.014660500000175603,5,0.1507458999985829,73.82133629999953,73.82133629999953,73.82133629999953,73.82133629999953,73.82133629999953,73.82133629999953,73.82133629999953,73.82133629999953,001,P004,2025_Jan_18_1354,CategoryLocalizer,2021.2.3,59.92477044239689,
34.0,34.8,2,0.75,Stimuli\ImageFiles-Set1\Bodies\Bodies_Standing_00001.png,0,0,0,45,45,45,,,,,,,,,,,,,34.02890900000057,0.028909000000567175,None,,74.02147790000163,74.02147790000163,74.02147790000163,74.02147790000163,74.02147790000163,74.02147790000163,74.02147790000163,74.02147790000163,001,P004,2025_Jan_18_1354,CategoryLocalizer,2021.2.3,59.92477044239689,
34.8,35.0,5,0.0,Stimuli\Blank.png,0,0,0,46,46,46,,,,,,,,,,,,,34.815402500000346,0.015402500000348596,None,,74.82219510000141,74.82219510000141,74.82219510000141,74.82219510000141,74.82219510000141,74.82219510000141,74.82219510000141,74.82219510000141,001,P004,2025_Jan_18_1354,CategoryLocalizer,2021.2.3,59.92477044239689,
35.0,35.8,2,0.75,Stimuli\ImageFiles-Set1\Bodies\Bodies_Kicking_00003.png,0,0,0,47,47,47,,,,,,,,,,,,,35.03009580000071,0.03009580000070855,None,,75.0223713000014,75.0223713000014,75.0223713000014,75.0223713000014,75.0223713000014,75.0223713000014,75.0223713000014,75.0223713000014,001,P004,2025_Jan_18_1354,CategoryLocalizer,2021.2.3,59.92477044239689,
35.8,36.0,5,0.0,Stimuli\Blank.png,0,0,0,48,48,48,,,,,,,,,,,,,35.81398139999874,0.01398139999874104,5,0.16580380000232253,75.80639180000071,75.80639180000071,75.80639180000071,75.80639180000071,75.80639180000071,75.80639180000071,75.80639180000071,75.80639180000071,001,P004,2025_Jan_18_1354,CategoryLocalizer,2021.2.3,59.92477044239689,
36.0,36.8,2,0.75,Stimuli\ImageFiles-Set1\Bodies\Bodies_Walking_00006.png,0,0,0,49,49,49,,,,,,,,,,,,,36.01436040000044,0.014360400000441587,None,,76.00656549999985,76.00656549999985,76.00656549999985,76.00656549999985,76.00656549999985,76.00656549999985,76.00656549999985,76.00656549999985,001,P004,2025_Jan_18_1354,CategoryLocalizer,2021.2.3,59.92477044239689,
36.8,37.0,5,0.0,Stimuli\Blank.png,0,0,0,50,50,50,,,,,,,,,,,,,36.81486450000011,0.0148645000001153,None,,76.8072702999998,76.8072702999998,76.8072702999998,76.8072702999998,76.8072702999998,76.8072702999998,76.8072702999998,76.8072702999998,001,P004,2025_Jan_18_1354,CategoryLocalizer,2021.2.3,59.92477044239689,
37.0,37.8,2,0.75,Stimuli\ImageFiles-Set1\Bodies\Bodies_Walking_00006.png,1,1,0,51,51,51,,,,,,,,,,,,,37.01516300000003,0.01516300000002957,4,0.5569108000017877,77.00745219999953,77.00745219999953,77.00745219999953,77.00745219999953,77.00745219999953,77.00745219999953,77.00745219999953,77.00745219999953,001,P004,2025_Jan_18_1354,CategoryLocalizer,2021.2.3,59.92477044239689,
37.8,38.0,5,0.0,Stimuli\Blank.png,0,0,0,52,52,52,,,,,,,,,,,,,37.799264799999946,-0.0007352000000508951,None,,77.79147270000249,77.79147270000249,77.79147270000249,77.79147270000249,77.79147270000249,77.79147270000249,77.79147270000249,77.79147270000249,001,P004,2025_Jan_18_1354,CategoryLocalizer,2021.2.3,59.92477044239689,
38.0,38.8,2,0.75,Stimuli\ImageFiles-Set1\Bodies\Bodies_Jumping_00002.png,0,0,0,53,53,53,,,,,,,,,,,,,38.00009829999908,9.829999908106402e-05,None,,78.00832540000192,78.00832540000192,78.00832540000192,78.00832540000192,78.00832540000192,78.00832540000192,78.00832540000192,78.00832540000192,001,P004,2025_Jan_18_1354,CategoryLocalizer,2021.2.3,59.92477044239689,
38.8,39.0,5,0.0,Stimuli\Blank.png,0,0,0,54,54,54,,,,,,,,,,,,,38.81661999999778,0.016619999997786294,None,,78.80903730000136,78.80903730000136,78.80903730000136,78.80903730000136,78.80903730000136,78.80903730000136,78.80903730000136,78.80903730000136,001,P004,2025_Jan_18_1354,CategoryLocalizer,2021.2.3,59.92477044239689,
39.0,39.8,2,0.75,Stimuli\ImageFiles-Set1\Bodies\Bodies_Hanging_00002.png,0,0,0,55,55,55,,,,,,,,,,,,,39.00032369999826,0.0003236999982618727,None,,78.99252280000292,78.99252280000292,78.99252280000292,78.99252280000292,78.99252280000292,78.99252280000292,78.99252280000292,78.99252280000292,001,P004,2025_Jan_18_1354,CategoryLocalizer,2021.2.3,59.92477044239689,
39.8,40.0,5,0.0,Stimuli\Blank.png,0,0,0,56,56,56,,,,,,,,,,,,,39.801424000001134,0.0014240000011369602,None,,79.79323750000185,79.79323750000185,79.79323750000185,79.79323750000185,79.79323750000185,79.79323750000185,79.79323750000185,79.79323750000185,001,P004,2025_Jan_18_1354,CategoryLocalizer,2021.2.3,59.92477044239689,
40.0,40.8,2,0.75,Stimuli\ImageFiles-Set1\Bodies\Bodies_Standing_00003.png,0,0,0,57,57,57,,,,,,,,,,,,,40.000777400000516,0.0007774000005156267,None,,79.99341090000235,79.99341090000235,79.99341090000235,79.99341090000235,79.99341090000235,79.99341090000235,79.99341090000235,79.99341090000235,001,P004,2025_Jan_18_1354,CategoryLocalizer,2021.2.3,59.92477044239689,
40.8,41.0,5,0.0,Stimuli\Blank.png,0,0,0,58,58,58,,,,,,,,,,,,,40.80149859999801,0.001498599998015493,None,,80.79411080000136,80.79411080000136,80.79411080000136,80.79411080000136,80.79411080000136,80.79411080000136,80.79411080000136,80.79411080000136,001,P004,2025_Jan_18_1354,CategoryLocalizer,2021.2.3,59.92477044239689,
41.0,41.8,2,0.75,Stimuli\ImageFiles-Set1\Bodies\Bodies_Punching_00006.png,0,0,0,59,59,59,,,,,,,,,,,,,41.001953799997864,0.0019537999978638254,None,,80.99437659999967,80.99437659999967,80.99437659999967,80.99437659999967,80.99437659999967,80.99437659999967,80.99437659999967,80.99437659999967,001,P004,2025_Jan_18_1354,CategoryLocalizer,2021.2.3,59.92477044239689,
41.8,42.0,5,0.0,Stimuli\Blank.png,0,0,0,60,60,60,,,,,,,,,,,,,41.802867599999445,0.0028675999994476342,None,,81.79500030000054,81.79500030000054,81.79500030000054,81.79500030000054,81.79500030000054,81.79500030000054,81.79500030000054,81.79500030000054,001,P004,2025_Jan_18_1354,CategoryLocalizer,2021.2.3,59.92477044239689,
42.0,42.8,2,0.75,Stimuli\ImageFiles-Set1\Bodies\Bodies_PushUp_00004.png,0,0,0,61,61,61,,,,,,,,,,,,,42.005113999999594,0.005113999999593943,None,,82.01186000000234,82.01186000000234,82.01186000000234,82.01186000000234,82.01186000000234,82.01186000000234,82.01186000000234,82.01186000000234,001,P004,2025_Jan_18_1354,CategoryLocalizer,2021.2.3,59.92477044239689,
42.8,43.0,5,0.0,Stimuli\Blank.png,0,0,0,62,62,62,,,,,,,,,,,,,42.819706599999336,0.019706599999338437,None,,82.81255710000187,82.81255710000187,82.81255710000187,82.81255710000187,82.81255710000187,82.81255710000187,82.81255710000187,82.81255710000187,001,P004,2025_Jan_18_1354,CategoryLocalizer,2021.2.3,59.92477044239689,
43.0,43.8,2,0.75,Stimuli\ImageFiles-Set1\Bodies\Bodies_Lunging_00003.png,0,0,0,63,63,63,,,,,,,,,,,,,43.00319339999987,0.0031933999998727813,None,,82.9960456000008,82.9960456000008,82.9960456000008,82.9960456000008,82.9960456000008,82.9960456000008,82.9960456000008,82.9960456000008,001,P004,2025_Jan_18_1354,CategoryLocalizer,2021.2.3,59.92477044239689,
43.8,44.0,5,0.0,Stimuli\Blank.png,0,0,0,64,64,64,,,,,,,,,,,,,43.804063399998995,0.004063399998997852,None,,83.79676050000126,83.79676050000126,83.79676050000126,83.79676050000126,83.79676050000126,83.79676050000126,83.79676050000126,83.79676050000126,001,P004,2025_Jan_18_1354,CategoryLocalizer,2021.2.3,59.92477044239689,
44.0,44.8,3,0.75,Stimuli\ImageFiles-Set1\Faces\Face_00003.png,0,0,0,65,65,65,,,,,,,,,,,,,44.005053699998825,0.005053699998825323,None,,84.01362119999976,84.01362119999976,84.01362119999976,84.01362119999976,84.01362119999976,84.01362119999976,84.01362119999976,84.01362119999976,001,P004,2025_Jan_18_1354,CategoryLocalizer,2021.2.3,59.92477044239689,
44.8,45.0,5,0.0,Stimuli\Blank.png,0,0,0,66,66,66,,,,,,,,,,,,,44.82404609999867,0.02404609999867091,None,,84.83102700000018,84.83102700000018,84.83102700000018,84.83102700000018,84.83102700000018,84.83102700000018,84.83102700000018,84.83102700000018,001,P004,2025_Jan_18_1354,CategoryLocalizer,2021.2.3,59.92477044239689,
45.0,45.8,3,0.75,Stimuli\ImageFiles-Set1\Faces\Face_00079.png,0,0,0,67,67,67,,,,,,,,,,,,,45.02237049999894,0.02237049999894225,None,,85.03117220000058,85.03117220000058,85.03117220000058,85.03117220000058,85.03117220000058,85.03117220000058,85.03117220000058,85.03117220000058,001,P004,2025_Jan_18_1354,CategoryLocalizer,2021.2.3,59.92477044239689,
45.8,46.0,5,0.0,Stimuli\Blank.png,0,0,0,68,68,68,,,,,,,,,,,,,45.824366400000144,0.024366400000147337,5,0.14019109999935608,85.83190100000138,85.83190100000138,85.83190100000138,85.83190100000138,85.83190100000138,85.83190100000138,85.83190100000138,85.83190100000138,001,P004,2025_Jan_18_1354,CategoryLocalizer,2021.2.3,59.92477044239689,
46.0,46.8,3,0.75,Stimuli\ImageFiles-Set1\Faces\Face_00016.png,0,0,0,69,69,69,,,,,,,,,,,,,46.023099199999706,0.02309919999970589,None,,86.01537269999972,86.01537269999972,86.01537269999972,86.01537269999972,86.01537269999972,86.01537269999972,86.01537269999972,86.01537269999972,001,P004,2025_Jan_18_1354,CategoryLocalizer,2021.2.3,59.92477044239689,
46.8,47.0,5,0.0,Stimuli\Blank.png,0,0,0,70,70,70,,,,,,,,,,,,,46.80926410000029,0.009264100000294206,None,,86.8160803000028,86.8160803000028,86.8160803000028,86.8160803000028,86.8160803000028,86.8160803000028,86.8160803000028,86.8160803000028,001,P004,2025_Jan_18_1354,CategoryLocalizer,2021.2.3,59.92477044239689,
47.0,47.8,3,0.75,Stimuli\ImageFiles-Set1\Faces\Face_00111.png,0,0,0,71,71,71,,,,,,,,,,,,,47.025021400000696,0.025021400000696303,None,,87.0329313000002,87.0329313000002,87.0329313000002,87.0329313000002,87.0329313000002,87.0329313000002,87.0329313000002,87.0329313000002,001,P004,2025_Jan_18_1354,CategoryLocalizer,2021.2.3,59.92477044239689,
47.8,48.0,5,0.0,Stimuli\Blank.png,0,0,0,72,72,72,,,,,,,,,,,,,47.824244600000384,0.02424460000038664,None,,87.81696310000189,87.81696310000189,87.81696310000189,87.81696310000189,87.81696310000189,87.81696310000189,87.81696310000189,87.81696310000189,001,P004,2025_Jan_18_1354,CategoryLocalizer,2021.2.3,59.92477044239689,
48.0,48.8,3,0.75,Stimuli\ImageFiles-Set1\Faces\Face_00041.png,0,0,0,73,73,73,,,,,,,,,,,,,48.00762010000108,0.007620100001076935,None,,88.00044750000234,88.00044750000234,88.00044750000234,88.00044750000234,88.00044750000234,88.00044750000234,88.00044750000234,88.00044750000234,001,P004,2025_Jan_18_1354,CategoryLocalizer,2021.2.3,59.92477044239689,
48.8,49.0,5,0.0,Stimuli\Blank.png,0,0,0,74,74,74,,,,,,,,,,,,,48.80897299999924,0.00897299999924428,None,,88.80117050000263,88.80117050000263,88.80117050000263,88.80117050000263,88.80117050000263,88.80117050000263,88.80117050000263,88.80117050000263,001,P004,2025_Jan_18_1354,CategoryLocalizer,2021.2.3,59.92477044239689,
49.0,49.8,3,0.75,Stimuli\ImageFiles-Set1\Faces\Face_00045.png,0,0,0,75,75,75,,,,,,,,,,,,,49.008928499999456,0.008928499999456108,None,,89.0013394000016,89.0013394000016,89.0013394000016,89.0013394000016,89.0013394000016,89.0013394000016,89.0013394000016,89.0013394000016,001,P004,2025_Jan_18_1354,CategoryLocalizer,2021.2.3,59.92477044239689,
49.8,50.0,5,0.0,Stimuli\Blank.png,0,0,0,76,76,76,,,,,,,,,,,,,49.80981849999807,0.009818499998075936,None,,89.80204640000011,89.80204640000011,89.80204640000011,89.80204640000011,89.80204640000011,89.80204640000011,89.80204640000011,89.80204640000011,001,P004,2025_Jan_18_1354,CategoryLocalizer,2021.2.3,59.92477044239689,
50.0,50.8,3,0.75,Stimuli\ImageFiles-Set1\Faces\Face_00045.png,1,1,0,77,77,77,,,,,,,,,,,,,50.01003520000086,0.010035200000857003,4,0.648214699998789,90.01892100000259,90.01892100000259,90.01892100000259,90.01892100000259,90.01892100000259,90.01892100000259,90.01892100000259,90.01892100000259,001,P004,2025_Jan_18_1354,CategoryLocalizer,2021.2.3,59.92477044239689,
50.8,51.0,5,0.0,Stimuli\Blank.png,0,0,0,78,78,78,,,,,,,,,,,,,50.82697339999868,0.026973399998681202,None,,90.81959540000025,90.81959540000025,90.81959540000025,90.81959540000025,90.81959540000025,90.81959540000025,90.81959540000025,90.81959540000025,001,P004,2025_Jan_18_1354,CategoryLocalizer,2021.2.3,59.92477044239689,
51.0,51.8,3,0.75,Stimuli\ImageFiles-Set1\Faces\Face_00085.png,0,0,0,79,79,79,,,,,,,,,,,,,51.01128139999855,0.011281399998551933,None,,91.00309100000231,91.00309100000231,91.00309100000231,91.00309100000231,91.00309100000231,91.00309100000231,91.00309100000231,91.00309100000231,001,P004,2025_Jan_18_1354,CategoryLocalizer,2021.2.3,59.92477044239689,
51.8,52.0,5,0.0,Stimuli\Blank.png,0,0,0,80,80,80,,,,,,,,,,,,,51.81136780000088,0.011367800000883221,None,,91.8038082000021,91.8038082000021,91.8038082000021,91.8038082000021,91.8038082000021,91.8038082000021,91.8038082000021,91.8038082000021,001,P004,2025_Jan_18_1354,CategoryLocalizer,2021.2.3,59.92477044239689,
52.0,52.8,3,0.75,Stimuli\ImageFiles-Set1\Faces\Face_00069.png,0,0,0,81,81,81,,,,,,,,,,,,,52.01134649999949,0.011346499999490334,None,,92.00397850000081,92.00397850000081,92.00397850000081,92.00397850000081,92.00397850000081,92.00397850000081,92.00397850000081,92.00397850000081,001,P004,2025_Jan_18_1354,CategoryLocalizer,2021.2.3,59.92477044239689,
52.8,53.0,5,0.0,Stimuli\Blank.png,0,0,0,82,82,82,,,,,,,,,,,,,52.81403080000018,0.014030800000185195,None,,92.82134380000207,92.82134380000207,92.82134380000207,92.82134380000207,92.82134380000207,92.82134380000207,92.82134380000207,92.82134380000207,001,P004,2025_Jan_18_1354,CategoryLocalizer,2021.2.3,59.92477044239689,
53.0,53.8,3,0.75,Stimuli\ImageFiles-Set1\Faces\Face_00027.png,0,0,0,83,83,83,,,,,,,,,,,,,53.03020579999793,0.030205799997929716,None,,93.03822760000185,93.03822760000185,93.03822760000185,93.03822760000185,93.03822760000185,93.03822760000185,93.03822760000185,93.03822760000185,001,P004,2025_Jan_18_1354,CategoryLocalizer,2021.2.3,59.92477044239689,
53.8,54.0,5,0.0,Stimuli\Blank.png,0,0,0,84,84,84,,,,,,,,,,,,,53.83006630000091,0.030066300000910928,5,0.14988520000042627,93.82224720000158,93.82224720000158,93.82224720000158,93.82224720000158,93.82224720000158,93.82224720000158,93.82224720000158,93.82224720000158,001,P004,2025_Jan_18_1354,CategoryLocalizer,2021.2.3,59.92477044239689,
54.0,54.8,3,0.75,Stimuli\ImageFiles-Set1\Faces\Face_00022.png,0,0,0,85,85,85,,,,,,,,,,,,,54.01302949999808,0.013029499998083338,None,,94.00574300000153,94.00574300000153,94.00574300000153,94.00574300000153,94.00574300000153,94.00574300000153,94.00574300000153,94.00574300000153,001,P004,2025_Jan_18_1354,CategoryLocalizer,2021.2.3,59.92477044239689,
54.8,55.0,5,0.0,Stimuli\Blank.png,0,0,0,86,86,86,,,,,,,,,,,,,54.813950299998396,0.013950299998398918,None,,94.8064415000008,94.8064415000008,94.8064415000008,94.8064415000008,94.8064415000008,94.8064415000008,94.8064415000008,94.8064415000008,001,P004,2025_Jan_18_1354,CategoryLocalizer,2021.2.3,59.92477044239689,
55.0,55.8,3,0.75,Stimuli\ImageFiles-Set1\Faces\Face_00035.png,0,0,0,87,87,87,,,,,,,,,,,,,55.01489600000059,0.014896000000589993,None,,95.02329610000015,95.02329610000015,95.02329610000015,95.02329610000015,95.02329610000015,95.02329610000015,95.02329610000015,95.02329610000015,001,P004,2025_Jan_18_1354,CategoryLocalizer,2021.2.3,59.92477044239689,
55.8,56.0,5,0.0,Stimuli\Blank.png,0,0,0,88,88,88,,,,,,,,,,,,,55.83394860000044,0.03394860000044275,5,0.13129380000100355,95.84071519999998,95.84071519999998,95.84071519999998,95.84071519999998,95.84071519999998,95.84071519999998,95.84071519999998,95.84071519999998,001,P004,2025_Jan_18_1354,CategoryLocalizer,2021.2.3,59.92477044239689,
56.0,56.8,3,0.75,Stimuli\ImageFiles-Set1\Faces\Face_00049.png,1,1,0,89,89,89,,,,,,,,,,,,,56.01475909999863,0.01475909999862779,None,,96.00750410000182,96.00750410000182,96.00750410000182,96.00750410000182,96.00750410000182,96.00750410000182,96.00750410000182,96.00750410000182,001,P004,2025_Jan_18_1354,CategoryLocalizer,2021.2.3,59.92477044239689,
56.8,57.0,5,0.0,Stimuli\Blank.png,0,0,0,90,90,90,,,,,,,,,,,,,56.81560040000113,0.015600400001133607,None,,96.80820820000008,96.80820820000008,96.80820820000008,96.80820820000008,96.80820820000008,96.80820820000008,96.80820820000008,96.80820820000008,001,P004,2025_Jan_18_1354,CategoryLocalizer,2021.2.3,59.92477044239689,
57.0,57.8,3,0.75,Stimuli\ImageFiles-Set1\Faces\Face_00024.png,0,0,0,91,91,91,,,,,,,,,,,,,56.99920539999948,-0.0007946000005176757,None,,96.99167440000019,96.99167440000019,96.99167440000019,96.99167440000019,96.99167440000019,96.99167440000019,96.99167440000019,96.99167440000019,001,P004,2025_Jan_18_1354,CategoryLocalizer,2021.2.3,59.92477044239689,
57.8,58.0,5,0.0,Stimuli\Blank.png,0,0,0,92,92,92,,,,,,,,,,,,,57.799895500000275,-0.00010449999972195201,None,,97.79241449999972,97.79241449999972,97.79241449999972,97.79241449999972,97.79241449999972,97.79241449999972,97.79241449999972,97.79241449999972,001,P004,2025_Jan_18_1354,CategoryLocalizer,2021.2.3,59.92477044239689,
58.0,58.8,3,0.75,Stimuli\ImageFiles-Set1\Faces\Face_00024.png,0,0,0,93,93,93,,,,,,,,,,,,,58.000677399999404,0.0006773999994038604,4,0.522743100002117,98.0092633000022,98.0092633000022,98.0092633000022,98.0092633000022,98.0092633000022,98.0092633000022,98.0092633000022,98.0092633000022,001,P004,2025_Jan_18_1354,CategoryLocalizer,2021.2.3,59.92477044239689,
58.8,59.0,5,0.0,Stimuli\Blank.png,0,0,0,94,94,94,,,,,,,,,,,,,58.81721389999802,0.01721389999802625,None,,98.80998050000198,98.80998050000198,98.80998050000198,98.80998050000198,98.80998050000198,98.80998050000198,98.80998050000198,98.80998050000198,001,P004,2025_Jan_18_1354,CategoryLocalizer,2021.2.3,59.92477044239689,
59.0,59.8,3,0.75,Stimuli\ImageFiles-Set1\Faces\Face_00067.png,0,0,0,95,95,95,,,,,,,,,,,,,59.00131739999779,0.0013173999977880158,None,,98.99345870000252,98.99345870000252,98.99345870000252,98.99345870000252,98.99345870000252,98.99345870000252,98.99345870000252,98.99345870000252,001,P004,2025_Jan_18_1354,CategoryLocalizer,2021.2.3,59.92477044239689,
59.8,60.0,5,0.0,Stimuli\Blank.png,0,0,0,96,96,96,,,,,,,,,,,,,59.804059599999164,0.004059599999166608,5,0.16112380000049598,99.81085560000065,99.81085560000065,99.81085560000065,99.81085560000065,99.81085560000065,99.81085560000065,99.81085560000065,99.81085560000065,001,P004,2025_Jan_18_1354,CategoryLocalizer,2021.2.3,59.92477044239689,
60.0,60.8,4,0.75,Stimuli\ImageFiles-Set1\Scenes\Scenes_004.png,0,0,0,97,97,97,,,,,,,,,,,,,60.01889569999912,0.018895699999120552,None,,100.0110308000003,100.0110308000003,100.0110308000003,100.0110308000003,100.0110308000003,100.0110308000003,100.0110308000003,100.0110308000003,001,P004,2025_Jan_18_1354,CategoryLocalizer,2021.2.3,59.92477044239689,
60.8,61.0,5,0.0,Stimuli\Blank.png,0,0,0,98,98,98,,,,,,,,,,,,,60.80442849999963,0.004428499999633573,None,,100.81174550000287,100.81174550000287,100.81174550000287,100.81174550000287,100.81174550000287,100.81174550000287,100.81174550000287,100.81174550000287,001,P004,2025_Jan_18_1354,CategoryLocalizer,2021.2.3,59.92477044239689,
61.0,61.8,4,0.75,Stimuli\ImageFiles-Set1\Scenes\Scenes_030.png,0,0,0,99,99,99,,,,,,,,,,,,,61.01960549999785,0.01960549999785144,None,,101.02860259999943,101.02860259999943,101.02860259999943,101.02860259999943,101.02860259999943,101.02860259999943,101.02860259999943,101.02860259999943,001,P004,2025_Jan_18_1354,CategoryLocalizer,2021.2.3,59.92477044239689,
61.8,62.0,5,0.0,Stimuli\Blank.png,0,0,0,100,100,100,,,,,,,,,,,,,61.82018980000066,0.02018980000066506,None,,101.81258750000052,101.81258750000052,101.81258750000052,101.81258750000052,101.81258750000052,101.81258750000052,101.81258750000052,101.81258750000052,001,P004,2025_Jan_18_1354,CategoryLocalizer,2021.2.3,59.92477044239689,
62.0,62.8,4,0.75,Stimuli\ImageFiles-Set1\Scenes\Scenes_052.png,0,0,0,101,101,101,,,,,,,,,,,,,62.004714099999546,0.004714099999546306,None,,102.0127547000011,102.0127547000011,102.0127547000011,102.0127547000011,102.0127547000011,102.0127547000011,102.0127547000011,102.0127547000011,001,P004,2025_Jan_18_1354,CategoryLocalizer,2021.2.3,59.92477044239689,
62.8,63.0,5,0.0,Stimuli\Blank.png,0,0,0,102,102,102,,,,,,,,,,,,,62.82116699999824,0.02116699999824334,None,,102.81348760000037,102.81348760000037,102.81348760000037,102.81348760000037,102.81348760000037,102.81348760000037,102.81348760000037,102.81348760000037,001,P004,2025_Jan_18_1354,CategoryLocalizer,2021.2.3,59.92477044239689,
63.0,63.8,4,0.75,Stimuli\ImageFiles-Set1\Scenes\Scenes_038.png,0,0,0,103,103,103,,,,,,,,,,,,,63.004945900000166,0.004945900000166148,None,,102.99699070000133,102.99699070000133,102.99699070000133,102.99699070000133,102.99699070000133,102.99699070000133,102.99699070000133,102.99699070000133,001,P004,2025_Jan_18_1354,CategoryLocalizer,2021.2.3,59.92477044239689,
63.8,64.0,5,0.0,Stimuli\Blank.png,0,0,0,104,104,104,,,,,,,,,,,,,63.80480109999917,0.004801099999170333,None,,103.79769220000162,103.79769220000162,103.79769220000162,103.79769220000162,103.79769220000162,103.79769220000162,103.79769220000162,103.79769220000162,001,P004,2025_Jan_18_1354,CategoryLocalizer,2021.2.3,59.92477044239689,
64.0,64.8,4,0.75,Stimuli\ImageFiles-Set1\Scenes\Scenes_016.png,0,0,0,105,105,105,,,,,,,,,,,,,64.00539070000013,0.0053907000001345295,None,,104.01454650000233,104.01454650000233,104.01454650000233,104.01454650000233,104.01454650000233,104.01454650000233,104.01454650000233,104.01454650000233,001,P004,2025_Jan_18_1354,CategoryLocalizer,2021.2.3,59.92477044239689,
64.8,65.0,5,0.0,Stimuli\Blank.png,0,0,0,106,106,106,,,,,,,,,,,,,64.82285820000106,0.02285820000106753,None,,104.81526210000084,104.81526210000084,104.81526210000084,104.81526210000084,104.81526210000084,104.81526210000084,104.81526210000084,104.81526210000084,001,P004,2025_Jan_18_1354,CategoryLocalizer,2021.2.3,59.92477044239689,
65.0,65.8,4,0.75,Stimuli\ImageFiles-Set1\Scenes\Scenes_034.png,0,0,0,107,107,107,,,,,,,,,,,,,65.00657409999985,0.0065740999998524785,None,,104.99875059999977,104.99875059999977,104.99875059999977,104.99875059999977,104.99875059999977,104.99875059999977,104.99875059999977,104.99875059999977,001,P004,2025_Jan_18_1354,CategoryLocalizer,2021.2.3,59.92477044239689,
65.8,66.0,5,0.0,Stimuli\Blank.png,0,0,0,108,108,108,,,,,,,,,,,,,65.80892369999856,0.008923699998561574,5,0.155829299998004,105.81615450000027,105.81615450000027,105.81615450000027,105.81615450000027,105.81615450000027,105.81615450000027,105.81615450000027,105.81615450000027,001,P004,2025_Jan_18_1354,CategoryLocalizer,2021.2.3,59.92477044239689,
66.0,66.8,4,0.75,Stimuli\ImageFiles-Set1\Scenes\Scenes_034.png,1,1,0,109,109,109,,,,,,,,,,,,,66.02414499999941,0.024144999999407446,4,0.5560181000000739,106.03302679999979,106.03302679999979,106.03302679999979,106.03302679999979,106.03302679999979,106.03302679999979,106.03302679999979,106.03302679999979,001,P004,2025_Jan_18_1354,CategoryLocalizer,2021.2.3,59.92477044239689,
66.8,67.0,5,0.0,Stimuli\Blank.png,0,0,0,110,110,110,,,,,,,,,,,,,66.8250506000004,0.02505060000039805,None,,106.81702360000054,106.81702360000054,106.81702360000054,106.81702360000054,106.81702360000054,106.81702360000054,106.81702360000054,106.81702360000054,001,P004,2025_Jan_18_1354,CategoryLocalizer,2021.2.3,59.92477044239689,
67.0,67.8,4,0.75,Stimuli\ImageFiles-Set1\Scenes\Scenes_033.png,0,0,0,111,111,111,,,,,,,,,,,,,67.00972679999904,0.009726799999043578,None,,107.0171960000007,107.0171960000007,107.0171960000007,107.0171960000007,107.0171960000007,107.0171960000007,107.0171960000007,107.0171960000007,001,P004,2025_Jan_18_1354,CategoryLocalizer,2021.2.3,59.92477044239689,
67.8,68.0,5,0.0,Stimuli\Blank.png,0,0,0,112,112,112,,,,,,,,,,,,,67.82589799999914,0.025897999999145327,None,,107.81789729999946,107.81789729999946,107.81789729999946,107.81789729999946,107.81789729999946,107.81789729999946,107.81789729999946,107.81789729999946,001,P004,2025_Jan_18_1354,CategoryLocalizer,2021.2.3,59.92477044239689,
68.0,68.8,4,0.75,Stimuli\ImageFiles-Set1\Scenes\Scenes_017.png,0,0,0,113,113,113,,,,,,,,,,,,,68.00935449999815,0.009354499998153187,None,,108.01809130000038,108.01809130000038,108.01809130000038,108.01809130000038,108.01809130000038,108.01809130000038,108.01809130000038,108.01809130000038,001,P004,2025_Jan_18_1354,CategoryLocalizer,2021.2.3,59.92477044239689,
68.8,69.0,5,0.0,Stimuli\Blank.png,0,0,0,114,114,114,,,,,,,,,,,,,68.82598309999958,0.025983099999578485,None,,108.81878510000024,108.81878510000024,108.81878510000024,108.81878510000024,108.81878510000024,108.81878510000024,108.81878510000024,108.81878510000024,001,P004,2025_Jan_18_1354,CategoryLocalizer,2021.2.3,59.92477044239689,
69.0,69.8,4,0.75,Stimuli\ImageFiles-Set1\Scenes\Scenes_007.png,1,1,0,115,115,115,,,,,,,,,,,,,69.00996909999958,0.009969099999580067,None,,109.01895370000057,109.01895370000057,109.01895370000057,109.01895370000057,109.01895370000057,109.01895370000057,109.01895370000057,109.01895370000057,001,P004,2025_Jan_18_1354,CategoryLocalizer,2021.2.3,59.92477044239689,
69.8,70.0,5,0.0,Stimuli\Blank.png,0,0,0,116,116,116,,,,,,,,,,,,,69.82932459999938,0.029324599999384304,5,0.13564669999686885,109.83636020000267,109.83636020000267,109.83636020000267,109.83636020000267,109.83636020000267,109.83636020000267,109.83636020000267,109.83636020000267,001,P004,2025_Jan_18_1354,CategoryLocalizer,2021.2.3,59.92477044239689,
70.0,70.8,4,0.75,Stimuli\ImageFiles-Set1\Scenes\Scenes_002.png,0,0,0,117,117,117,,,,,,,,,,,,,70.02707689999806,0.02707689999806462,None,,110.01983960000143,110.01983960000143,110.01983960000143,110.01983960000143,110.01983960000143,110.01983960000143,110.01983960000143,110.01983960000143,001,P004,2025_Jan_18_1354,CategoryLocalizer,2021.2.3,59.92477044239689,
70.8,71.0,5,0.0,Stimuli\Blank.png,0,0,0,118,118,118,,,,,,,,,,,,,70.81191190000027,0.011911900000271203,None,,110.80385930000193,110.80385930000193,110.80385930000193,110.80385930000193,110.80385930000193,110.80385930000193,110.80385930000193,110.80385930000193,001,P004,2025_Jan_18_1354,CategoryLocalizer,2021.2.3,59.92477044239689,
71.0,71.8,4,0.75,Stimuli\ImageFiles-Set1\Scenes\Scenes_002.png,0,0,0,119,119,119,,,,,,,,,,,,,71.01199149999957,0.011991499999567168,4,0.6294584999996005,111.02071400000204,111.02071400000204,111.02071400000204,111.02071400000204,111.02071400000204,111.02071400000204,111.02071400000204,111.02071400000204,001,P004,2025_Jan_18_1354,CategoryLocalizer,2021.2.3,59.92477044239689,
71.8,72.0,5,0.0,Stimuli\Blank.png,0,0,0,120,120,120,,,,,,,,,,,,,71.82972099999824,0.029720999998247066,5,0.1505018999996537,111.82142830000157,111.82142830000157,111.82142830000157,111.82142830000157,111.82142830000157,111.82142830000157,111.82142830000157,111.82142830000157,001,P004,2025_Jan_18_1354,CategoryLocalizer,2021.2.3,59.92477044239689,
72.0,72.8,4,0.75,Stimuli\ImageFiles-Set1\Scenes\Scenes_060.png,0,0,0,121,121,121,,,,,,,,,,,,,72.01220459999968,0.012204599999677157,None,,112.00491890000194,112.00491890000194,112.00491890000194,112.00491890000194,112.00491890000194,112.00491890000194,112.00491890000194,112.00491890000194,001,P004,2025_Jan_18_1354,CategoryLocalizer,2021.2.3,59.92477044239689,
72.8,73.0,5,0.0,Stimuli\Blank.png,0,0,0,122,122,122,,,,,,,,,,,,,72.81404810000095,0.014048100000948693,None,,112.80563280000206,112.80563280000206,112.80563280000206,112.80563280000206,112.80563280000206,112.80563280000206,112.80563280000206,112.80563280000206,001,P004,2025_Jan_18_1354,CategoryLocalizer,2021.2.3,59.92477044239689,
73.0,73.8,4,0.75,Stimuli\ImageFiles-Set1\Scenes\Scenes_037.png,0,0,0,123,123,123,,,,,,,,,,,,,73.01452939999945,0.014529399999446468,None,,113.02252690000023,113.02252690000023,113.02252690000023,113.02252690000023,113.02252690000023,113.02252690000023,113.02252690000023,113.02252690000023,001,P004,2025_Jan_18_1354,CategoryLocalizer,2021.2.3,59.92477044239689,
73.8,74.0,5,0.0,Stimuli\Blank.png,0,0,0,124,124,124,,,,,,,,,,,,,73.83113659999799,0.031136599997992676,5,0.14887810000072932,113.82319389999975,113.82319389999975,113.82319389999975,113.82319389999975,113.82319389999975,113.82319389999975,113.82319389999975,113.82319389999975,001,P004,2025_Jan_18_1354,CategoryLocalizer,2021.2.3,59.92477044239689,
74.0,74.8,4,0.75,Stimuli\ImageFiles-Set1\Scenes\Scenes_012.png,0,0,0,125,125,125,,,,,,,,,,,,,74.01508059999833,0.01508059999832767,None,,114.02335680000033,114.02335680000033,114.02335680000033,114.02335680000033,114.02335680000033,114.02335680000033,114.02335680000033,114.02335680000033,001,P004,2025_Jan_18_1354,CategoryLocalizer,2021.2.3,59.92477044239689,
74.8,75.0,5,0.0,Stimuli\Blank.png,0,0,0,126,126,126,,,,,,,,,,,,,74.81508240000039,0.015082400000395069,None,,114.80739150000227,114.80739150000227,114.80739150000227,114.80739150000227,114.80739150000227,114.80739150000227,114.80739150000227,114.80739150000227,001,P004,2025_Jan_18_1354,CategoryLocalizer,2021.2.3,59.92477044239689,
75.0,75.8,4,0.75,Stimuli\ImageFiles-Set1\Scenes\Scenes_022.png,0,0,0,127,127,127,,,,,,,,,,,,,75.01511879999816,0.015118799998163013,None,,115.0076024000009,115.0076024000009,115.0076024000009,115.0076024000009,115.0076024000009,115.0076024000009,115.0076024000009,115.0076024000009,001,P004,2025_Jan_18_1354,CategoryLocalizer,2021.2.3,59.92477044239689,
75.8,76.0,5,0.0,Stimuli\Blank.png,0,0,0,128,128,128,,,,,,,,,,,,,75.80003500000021,3.5000000210061444e-05,None,,115.79159419999996,115.79159419999996,115.79159419999996,115.79159419999996,115.79159419999996,115.79159419999996,115.79159419999996,115.79159419999996,001,P004,2025_Jan_18_1354,CategoryLocalizer,2021.2.3,59.92477044239689,
76.0,88.0,0,0.0,Stimuli\Blank.png,0,0,0,129,129,129,,,,,,,,,,,,,75.99954499999876,-0.000455000001238659,5,9.98014129999865,115.99176600000283,115.99176600000283,115.99176600000283,115.99176600000283,115.99176600000283,115.99176600000283,115.99176600000283,115.99176600000283,001,P004,2025_Jan_18_1354,CategoryLocalizer,2021.2.3,59.92477044239689,
88.0,88.8,3,0.75,Stimuli\ImageFiles-Set1\Faces\Face_00031.png,0,0,0,130,130,130,,,,,,,,,,,,,88.01001299999916,0.010012999999162275,None,,128.019021600001,128.019021600001,128.019021600001,128.019021600001,128.019021600001,128.019021600001,128.019021600001,128.019021600001,001,P004,2025_Jan_18_1354,CategoryLocalizer,2021.2.3,59.92477044239689,
88.8,89.0,5,0.0,Stimuli\Blank.png,0,0,0,131,131,131,,,,,,,,,,,,,88.82689109999774,0.026891099997740753,None,,128.8197179000017,128.8197179000017,128.8197179000017,128.8197179000017,128.8197179000017,128.8197179000017,128.8197179000017,128.8197179000017,001,P004,2025_Jan_18_1354,CategoryLocalizer,2021.2.3,59.92477044239689,
89.0,89.8,3,0.75,Stimuli\ImageFiles-Set1\Faces\Face_00007.png,0,0,0,132,132,132,,,,,,,,,,,,,89.01048249999803,0.010482499998033745,None,,129.01989930000127,129.01989930000127,129.01989930000127,129.01989930000127,129.01989930000127,129.01989930000127,129.01989930000127,129.01989930000127,001,P004,2025_Jan_18_1354,CategoryLocalizer,2021.2.3,59.92477044239689,
89.8,90.0,5,0.0,Stimuli\Blank.png,0,0,0,133,133,133,,,,,,,,,,,,,89.82879049999974,0.0287904999997437,5,0.15133820000119158,129.82059970000046,129.82059970000046,129.82059970000046,129.82059970000046,129.82059970000046,129.82059970000046,129.82059970000046,129.82059970000046,001,P004,2025_Jan_18_1354,CategoryLocalizer,2021.2.3,59.92477044239689,
90.0,90.8,3,0.75,Stimuli\ImageFiles-Set1\Faces\Face_00075.png,0,0,0,134,134,134,,,,,,,,,,,,,90.01176660000056,0.011766600000555627,None,,130.0040869000004,130.0040869000004,130.0040869000004,130.0040869000004,130.0040869000004,130.0040869000004,130.0040869000004,130.0040869000004,001,P004,2025_Jan_18_1354,CategoryLocalizer,2021.2.3,59.92477044239689,
90.8,91.0,5,0.0,Stimuli\Blank.png,0,0,0,135,135,135,,,,,,,,,,,,,90.81427650000114,0.01427650000114511,None,,130.82148009999946,130.82148009999946,130.82148009999946,130.82148009999946,130.82148009999946,130.82148009999946,130.82148009999946,130.82148009999946,001,P004,2025_Jan_18_1354,CategoryLocalizer,2021.2.3,59.92477044239689,
91.0,91.8,3,0.75,Stimuli\ImageFiles-Set1\Faces\Face_00075.png,1,1,0,136,136,136,,,,,,,,,,,,,91.02971869999965,0.02971869999964838,4,0.5706816999991133,131.03833490000034,131.03833490000034,131.03833490000034,131.03833490000034,131.03833490000034,131.03833490000034,131.03833490000034,131.03833490000034,001,P004,2025_Jan_18_1354,CategoryLocalizer,2021.2.3,59.92477044239689,
91.8,92.0,5,0.0,Stimuli\Blank.png,0,0,0,137,137,137,,,,,,,,,,,,,91.82986859999801,0.029868599998010836,5,0.14964789999794448,131.8223620000026,131.8223620000026,131.8223620000026,131.8223620000026,131.8223620000026,131.8223620000026,131.8223620000026,131.8223620000026,001,P004,2025_Jan_18_1354,CategoryLocalizer,2021.2.3,59.92477044239689,
92.0,92.8,3,0.75,Stimuli\ImageFiles-Set1\Faces\Face_00083.png,0,0,0,138,138,138,,,,,,,,,,,,,92.0132726999982,0.013272699998196913,None,,132.00584940000044,132.00584940000044,132.00584940000044,132.00584940000044,132.00584940000044,132.00584940000044,132.00584940000044,132.00584940000044,001,P004,2025_Jan_18_1354,CategoryLocalizer,2021.2.3,59.92477044239689,
92.8,93.0,5,0.0,Stimuli\Blank.png,0,0,0,139,139,139,,,,,,,,,,,,,92.81469369999832,0.014693699998318266,None,,132.8065686000009,132.8065686000009,132.8065686000009,132.8065686000009,132.8065686000009,132.8065686000009,132.8065686000009,132.8065686000009,001,P004,2025_Jan_18_1354,CategoryLocalizer,2021.2.3,59.92477044239689,
93.0,93.8,3,0.75,Stimuli\ImageFiles-Set1\Faces\Face_00029.png,0,0,0,140,140,140,,,,,,,,,,,,,93.01465389999794,0.014653899997938424,None,,133.0234115000021,133.0234115000021,133.0234115000021,133.0234115000021,133.0234115000021,133.0234115000021,133.0234115000021,133.0234115000021,001,P004,2025_Jan_18_1354,CategoryLocalizer,2021.2.3,59.92477044239689,
93.8,94.0,5,0.0,Stimuli\Blank.png,0,0,0,141,141,141,,,,,,,,,,,,,93.83380720000059,0.03380720000059512,5,0.13104729999759002,133.84082050000143,133.84082050000143,133.84082050000143,133.84082050000143,133.84082050000143,133.84082050000143,133.84082050000143,133.84082050000143,001,P004,2025_Jan_18_1354,CategoryLocalizer,2021.2.3,59.92477044239689,
94.0,94.8,3,0.75,Stimuli\ImageFiles-Set1\Faces\Face_00020.png,0,0,0,142,142,142,,,,,,,,,,,,,94.01566829999865,0.01566829999865149,None,,134.00762400000167,134.00762400000167,134.00762400000167,134.00762400000167,134.00762400000167,134.00762400000167,134.00762400000167,134.00762400000167,001,P004,2025_Jan_18_1354,CategoryLocalizer,2021.2.3,59.92477044239689,
94.8,95.0,5,0.0,Stimuli\Blank.png,0,0,0,143,143,143,,,,,,,,,,,,,94.79994639999859,-5.360000140797183e-05,None,,134.79165550000107,134.79165550000107,134.79165550000107,134.79165550000107,134.79165550000107,134.79165550000107,134.79165550000107,134.79165550000107,001,P004,2025_Jan_18_1354,CategoryLocalizer,2021.2.3,59.92477044239689,
95.0,95.8,3,0.75,Stimuli\ImageFiles-Set1\Faces\Face_00033.png,0,0,0,144,144,144,,,,,,,,,,,,,95.00002659999882,2.6599998818710446e-05,None,,134.99181280000266,134.99181280000266,134.99181280000266,134.99181280000266,134.99181280000266,134.99181280000266,134.99181280000266,134.99181280000266,001,P004,2025_Jan_18_1354,CategoryLocalizer,2021.2.3,59.92477044239689,
95.8,96.0,5,0.0,Stimuli\Blank.png,0,0,0,145,145,145,,,,,,,,,,,,,95.7997566999984,-0.00024330000159977772,None,,135.7925267999999,135.7925267999999,135.7925267999999,135.7925267999999,135.7925267999999,135.7925267999999,135.7925267999999,135.7925267999999,001,P004,2025_Jan_18_1354,CategoryLocalizer,2021.2.3,59.92477044239689,
96.0,96.8,3,0.75,Stimuli\ImageFiles-Set1\Faces\Face_00005.png,0,0,0,146,146,146,,,,,,,,,,,,,96.00039319999996,0.00039319999996223487,None,,135.9926970000015,135.9926970000015,135.9926970000015,135.9926970000015,135.9926970000015,135.9926970000015,135.9926970000015,135.9926970000015,001,P004,2025_Jan_18_1354,CategoryLocalizer,2021.2.3,59.92477044239689,
96.8,97.0,5,0.0,Stimuli\Blank.png,0,0,0,147,147,147,,,,,,,,,,,,,96.80121299999882,0.001212999998827513,None,,136.7934137000011,136.7934137000011,136.7934137000011,136.7934137000011,136.7934137000011,136.7934137000011,136.7934137000011,136.7934137000011,001,P004,2025_Jan_18_1354,CategoryLocalizer,2021.2.3,59.92477044239689,
97.0,97.8,3,0.75,Stimuli\ImageFiles-Set1\Faces\Face_00081.png,0,0,0,148,148,148,,,,,,,,,,,,,97.00076949999857,0.00076949999856879,None,,136.99357180000152,136.99357180000152,136.99357180000152,136.99357180000152,136.99357180000152,136.99357180000152,136.99357180000152,136.99357180000152,001,P004,2025_Jan_18_1354,CategoryLocalizer,2021.2.3,59.92477044239689,
97.8,98.0,5,0.0,Stimuli\Blank.png,0,0,0,149,149,149,,,,,,,,,,,,,97.80181019999873,0.0018101999987294448,None,,137.79425430000265,137.79425430000265,137.79425430000265,137.79425430000265,137.79425430000265,137.79425430000265,137.79425430000265,137.79425430000265,001,P004,2025_Jan_18_1354,CategoryLocalizer,2021.2.3,59.92477044239689,
98.0,98.8,3,0.75,Stimuli\ImageFiles-Set1\Faces\Face_00099.png,0,0,0,150,150,150,,,,,,,,,,,,,98.00401109999802,0.004011099998024292,None,,138.01113670000268,138.01113670000268,138.01113670000268,138.01113670000268,138.01113670000268,138.01113670000268,138.01113670000268,138.01113670000268,001,P004,2025_Jan_18_1354,CategoryLocalizer,2021.2.3,59.92477044239689,
98.8,99.0,5,0.0,Stimuli\Blank.png,0,0,0,151,151,151,,,,,,,,,,,,,98.81988659999843,0.019886599998429233,None,,138.8118467000022,138.8118467000022,138.8118467000022,138.8118467000022,138.8118467000022,138.8118467000022,138.8118467000022,138.8118467000022,001,P004,2025_Jan_18_1354,CategoryLocalizer,2021.2.3,59.92477044239689,
99.0,99.8,3,0.75,Stimuli\ImageFiles-Set1\Faces\Face_00109.png,0,0,0,152,152,152,,,,,,,,,,,,,99.00509859999875,0.005098599998746067,None,,139.01202130000092,139.01202130000092,139.01202130000092,139.01202130000092,139.01202130000092,139.01202130000092,139.01202130000092,139.01202130000092,001,P004,2025_Jan_18_1354,CategoryLocalizer,2021.2.3,59.92477044239689,
99.8,100.0,5,0.0,Stimuli\Blank.png,0,0,0,153,153,153,,,,,,,,,,,,,99.82031329999882,0.02031329999881848,None,,139.81271890000062,139.81271890000062,139.81271890000062,139.81271890000062,139.81271890000062,139.81271890000062,139.81271890000062,139.81271890000062,001,P004,2025_Jan_18_1354,CategoryLocalizer,2021.2.3,59.92477044239689,
100.0,100.8,3,0.75,Stimuli\ImageFiles-Set1\Faces\Face_00039.png,0,0,0,154,154,154,,,,,,,,,,,,,100.00375150000036,0.0037515000003622845,None,,139.996218100001,139.996218100001,139.996218100001,139.996218100001,139.996218100001,139.996218100001,139.996218100001,139.996218100001,001,P004,2025_Jan_18_1354,CategoryLocalizer,2021.2.3,59.92477044239689,
100.8,101.0,5,0.0,Stimuli\Blank.png,0,0,0,155,155,155,,,,,,,,,,,,,100.80496270000003,0.004962700000035625,None,,140.7969250999995,140.7969250999995,140.7969250999995,140.7969250999995,140.7969250999995,140.7969250999995,140.7969250999995,140.7969250999995,001,P004,2025_Jan_18_1354,CategoryLocalizer,2021.2.3,59.92477044239689,
101.0,101.8,3,0.75,Stimuli\ImageFiles-Set1\Faces\Face_00091.png,0,0,0,156,156,156,,,,,,,,,,,,,101.00542679999853,0.005426799998531351,None,,141.01377350000257,141.01377350000257,141.01377350000257,141.01377350000257,141.01377350000257,141.01377350000257,141.01377350000257,141.01377350000257,001,P004,2025_Jan_18_1354,CategoryLocalizer,2021.2.3,59.92477044239689,
101.8,102.0,5,0.0,Stimuli\Blank.png,0,0,0,157,157,157,,,,,,,,,,,,,101.8217681999995,0.021768199999499416,None,,141.8144797999994,141.8144797999994,141.8144797999994,141.8144797999994,141.8144797999994,141.8144797999994,141.8144797999994,141.8144797999994,001,P004,2025_Jan_18_1354,CategoryLocalizer,2021.2.3,59.92477044239689,
102.0,102.8,3,0.75,Stimuli\ImageFiles-Set1\Faces\Face_00009.png,0,0,0,158,158,158,,,,,,,,,,,,,102.00539769999887,0.005397699998866301,None,,142.01465870000175,142.01465870000175,142.01465870000175,142.01465870000175,142.01465870000175,142.01465870000175,142.01465870000175,142.01465870000175,001,P004,2025_Jan_18_1354,CategoryLocalizer,2021.2.3,59.92477044239689,
102.8,103.0,5,0.0,Stimuli\Blank.png,0,0,0,159,159,159,,,,,,,,,,,,,102.824807099998,0.024807099998000126,None,,142.83207930000208,142.83207930000208,142.83207930000208,142.83207930000208,142.83207930000208,142.83207930000208,142.83207930000208,142.83207930000208,001,P004,2025_Jan_18_1354,CategoryLocalizer,2021.2.3,59.92477044239689,
103.0,103.8,3,0.75,Stimuli\ImageFiles-Set1\Faces\Face_00047.png,0,0,0,160,160,160,,,,,,,,,,,,,103.02524629999971,0.025246299999707844,None,,143.0322408000029,143.0322408000029,143.0322408000029,143.0322408000029,143.0322408000029,143.0322408000029,143.0322408000029,143.0322408000029,001,P004,2025_Jan_18_1354,CategoryLocalizer,2021.2.3,59.92477044239689,
103.8,104.0,5,0.0,Stimuli\Blank.png,0,0,0,161,161,161,,,,,,,,,,,,,103.8239754999995,0.023975499999508543,None,,143.81625089999943,143.81625089999943,143.81625089999943,143.81625089999943,143.81625089999943,143.81625089999943,143.81625089999943,143.81625089999943,001,P004,2025_Jan_18_1354,CategoryLocalizer,2021.2.3,59.92477044239689,
104.0,104.8,1,0.75,Stimuli\ImageFiles-Set1\Objects\Object_ShoppingCart_00001.png,0,0,0,162,162,162,,,,,,,,,,,,,104.00742650000029,0.007426500000292435,None,,143.999743700002,143.999743700002,143.999743700002,143.999743700002,143.999743700002,143.999743700002,143.999743700002,143.999743700002,001,P004,2025_Jan_18_1354,CategoryLocalizer,2021.2.3,59.92477044239689,
104.8,105.0,5,0.0,Stimuli\Blank.png,0,0,0,163,163,163,,,,,,,,,,,,,104.81008569999904,0.010085699999038411,None,,144.8171387000002,144.8171387000002,144.8171387000002,144.8171387000002,144.8171387000002,144.8171387000002,144.8171387000002,144.8171387000002,001,P004,2025_Jan_18_1354,CategoryLocalizer,2021.2.3,59.92477044239689,
105.0,105.8,1,0.75,Stimuli\ImageFiles-Set1\Objects\Object_ComputerMouse_00001.png,0,0,0,164,164,164,,,,,,,,,,,,,105.02477159999762,0.024771599997620797,None,,145.01729980000164,145.01729980000164,145.01729980000164,145.01729980000164,145.01729980000164,145.01729980000164,145.01729980000164,145.01729980000164,001,P004,2025_Jan_18_1354,CategoryLocalizer,2021.2.3,59.92477044239689,
105.8,106.0,5,0.0,Stimuli\Blank.png,0,0,0,165,165,165,,,,,,,,,,,,,105.80936440000005,0.009364400000052342,None,,145.80130370000188,145.80130370000188,145.80130370000188,145.80130370000188,145.80130370000188,145.80130370000188,145.80130370000188,145.80130370000188,001,P004,2025_Jan_18_1354,CategoryLocalizer,2021.2.3,59.92477044239689,
106.0,106.8,1,0.75,Stimuli\ImageFiles-Set1\Objects\Object_Bench_00001.png,0,0,0,166,166,166,,,,,,,,,,,,,106.00932309999916,0.009323099999164697,None,,146.00147950000246,146.00147950000246,146.00147950000246,146.00147950000246,146.00147950000246,146.00147950000246,146.00147950000246,146.00147950000246,001,P004,2025_Jan_18_1354,CategoryLocalizer,2021.2.3,59.92477044239689,
106.8,107.0,5,0.0,Stimuli\Blank.png,0,0,0,167,167,167,,,,,,,,,,,,,106.81033689999822,0.010336899998222293,None,,146.80220490000283,146.80220490000283,146.80220490000283,146.80220490000283,146.80220490000283,146.80220490000283,146.80220490000283,146.80220490000283,001,P004,2025_Jan_18_1354,CategoryLocalizer,2021.2.3,59.92477044239689,
107.0,107.8,1,0.75,Stimuli\ImageFiles-Set1\Objects\Object_Highchair_00001.png,0,0,0,168,168,168,,,,,,,,,,,,,107.0097128999987,0.009712899998703506,None,,147.00238620000164,147.00238620000164,147.00238620000164,147.00238620000164,147.00238620000164,147.00238620000164,147.00238620000164,147.00238620000164,001,P004,2025_Jan_18_1354,CategoryLocalizer,2021.2.3,59.92477044239689,
107.8,108.0,5,0.0,Stimuli\Blank.png,0,0,0,169,169,169,,,,,,,,,,,,,107.81066060000012,0.010660600000122145,None,,147.80308590000277,147.80308590000277,147.80308590000277,147.80308590000277,147.80308590000277,147.80308590000277,147.80308590000277,147.80308590000277,001,P004,2025_Jan_18_1354,CategoryLocalizer,2021.2.3,59.92477044239689,
108.0,108.8,1,0.75,Stimuli\ImageFiles-Set1\Objects\Object_Highchair_00001.png,1,1,0,170,170,170,,,,,,,,,,,,,108.01096609999877,0.010966099998768186,4,0.40283780000027036,148.00326620000124,148.00326620000124,148.00326620000124,148.00326620000124,148.00326620000124,148.00326620000124,148.00326620000124,148.00326620000124,001,P004,2025_Jan_18_1354,CategoryLocalizer,2021.2.3,59.92477044239689,
108.8,109.0,5,0.0,Stimuli\Blank.png,0,0,0,171,171,171,,,,,,,,,,,,,108.81161919999795,0.011619199997952023,None,,148.8039675,148.8039675,148.8039675,148.8039675,148.8039675,148.8039675,148.8039675,148.8039675,001,P004,2025_Jan_18_1354,CategoryLocalizer,2021.2.3,59.92477044239689,
109.0,109.8,1,0.75,Stimuli\ImageFiles-Set1\Objects\Object_Lamp_00001.png,0,0,0,172,172,172,,,,,,,,,,,,,109.01401719999922,0.014017199999216245,None,,149.02080600000045,149.02080600000045,149.02080600000045,149.02080600000045,149.02080600000045,149.02080600000045,149.02080600000045,149.02080600000045,001,P004,2025_Jan_18_1354,CategoryLocalizer,2021.2.3,59.92477044239689,
109.8,110.0,5,0.0,Stimuli\Blank.png,0,0,0,173,173,173,,,,,,,,,,,,,109.8292302000009,0.029230200000895934,5,0.1506846999982372,149.82153260000268,149.82153260000268,149.82153260000268,149.82153260000268,149.82153260000268,149.82153260000268,149.82153260000268,149.82153260000268,001,P004,2025_Jan_18_1354,CategoryLocalizer,2021.2.3,59.92477044239689,
110.0,110.8,1,0.75,Stimuli\ImageFiles-Set1\Objects\Object_PepperShaker_00001.png,0,0,0,174,174,174,,,,,,,,,,,,,110.01312759999928,0.013127599999279482,None,,150.00502849999975,150.00502849999975,150.00502849999975,150.00502849999975,150.00502849999975,150.00502849999975,150.00502849999975,150.00502849999975,001,P004,2025_Jan_18_1354,CategoryLocalizer,2021.2.3,59.92477044239689,
110.8,111.0,5,0.0,Stimuli\Blank.png,0,0,0,175,175,175,,,,,,,,,,,,,110.81443229999786,0.014432299997864106,None,,150.80574080000224,150.80574080000224,150.80574080000224,150.80574080000224,150.80574080000224,150.80574080000224,150.80574080000224,150.80574080000224,001,P004,2025_Jan_18_1354,CategoryLocalizer,2021.2.3,59.92477044239689,
111.0,111.8,1,0.75,Stimuli\ImageFiles-Set1\Objects\Object_Baseball_00001.png,0,0,0,176,176,176,,,,,,,,,,,,,111.01367499999833,0.01367499999832944,None,,151.00590659999943,151.00590659999943,151.00590659999943,151.00590659999943,151.00590659999943,151.00590659999943,151.00590659999943,151.00590659999943,001,P004,2025_Jan_18_1354,CategoryLocalizer,2021.2.3,59.92477044239689,
111.8,112.0,5,0.0,Stimuli\Blank.png,0,0,0,177,177,177,,,,,,,,,,,,,111.8146130999994,0.014613099999408519,5,0.16533560000243597,151.80660980000175,151.80660980000175,151.80660980000175,151.80660980000175,151.80660980000175,151.80660980000175,151.80660980000175,151.80660980000175,001,P004,2025_Jan_18_1354,CategoryLocalizer,2021.2.3,59.92477044239689,
112.0,112.8,1,0.75,Stimuli\ImageFiles-Set1\Objects\Object_Chest_00001.png,0,0,0,178,178,178,,,,,,,,,,,,,112.01407570000083,0.014075700000830693,None,,152.00678759999937,152.00678759999937,152.00678759999937,152.00678759999937,152.00678759999937,152.00678759999937,152.00678759999937,152.00678759999937,001,P004,2025_Jan_18_1354,CategoryLocalizer,2021.2.3,59.92477044239689,
112.8,113.0,5,0.0,Stimuli\Blank.png,0,0,0,179,179,179,,,,,,,,,,,,,112.81503309999971,0.015033099999712363,None,,152.8075028000021,152.8075028000021,152.8075028000021,152.8075028000021,152.8075028000021,152.8075028000021,152.8075028000021,152.8075028000021,001,P004,2025_Jan_18_1354,CategoryLocalizer,2021.2.3,59.92477044239689,
113.0,113.8,1,0.75,Stimuli\ImageFiles-Set1\Objects\Object_Boat_00001.png,0,0,0,180,180,180,,,,,,,,,,,,,113.0157736000001,0.015773600000102306,None,,153.00766980000117,153.00766980000117,153.00766980000117,153.00766980000117,153.00766980000117,153.00766980000117,153.00766980000117,153.00766980000117,001,P004,2025_Jan_18_1354,CategoryLocalizer,2021.2.3,59.92477044239689,
113.8,114.0,5,0.0,Stimuli\Blank.png,0,0,0,181,181,181,,,,,,,,,,,,,113.79958749999787,-0.0004125000021275582,None,,153.79169680000268,153.79169680000268,153.79169680000268,153.79169680000268,153.79169680000268,153.79169680000268,153.79169680000268,153.79169680000268,001,P004,2025_Jan_18_1354,CategoryLocalizer,2021.2.3,59.92477044239689,
114.0,114.8,1,0.75,Stimuli\ImageFiles-Set1\Objects\Object_Box_00001.png,0,0,0,182,182,182,,,,,,,,,,,,,113.99959909999961,-0.0004009000003861729,None,,153.99188929999946,153.99188929999946,153.99188929999946,153.99188929999946,153.99188929999946,153.99188929999946,153.99188929999946,153.99188929999946,001,P004,2025_Jan_18_1354,CategoryLocalizer,2021.2.3,59.92477044239689,
114.8,115.0,5,0.0,Stimuli\Blank.png,0,0,0,183,183,183,,,,,,,,,,,,,114.80041749999873,0.000417499998732751,None,,154.79257150000194,154.79257150000194,154.79257150000194,154.79257150000194,154.79257150000194,154.79257150000194,154.79257150000194,154.79257150000194,001,P004,2025_Jan_18_1354,CategoryLocalizer,2021.2.3,59.92477044239689,
115.0,115.8,1,0.75,Stimuli\ImageFiles-Set1\Objects\Object_Oven_00001.png,0,0,0,184,184,184,,,,,,,,,,,,,114.99997979999898,-2.0200001017656177e-05,None,,154.99275340000167,154.99275340000167,154.99275340000167,154.99275340000167,154.99275340000167,154.99275340000167,154.99275340000167,154.99275340000167,001,P004,2025_Jan_18_1354,CategoryLocalizer,2021.2.3,59.92477044239689,
115.8,116.0,5,0.0,Stimuli\Blank.png,0,0,0,185,185,185,,,,,,,,,,,,,115.8007233999997,0.0007233999996998364,None,,155.79347300000154,155.79347300000154,155.79347300000154,155.79347300000154,155.79347300000154,155.79347300000154,155.79347300000154,155.79347300000154,001,P004,2025_Jan_18_1354,CategoryLocalizer,2021.2.3,59.92477044239689,
116.0,116.8,1,0.75,Stimuli\ImageFiles-Set1\Objects\Object_Sock_00001.png,0,0,0,186,186,186,,,,,,,,,,,,,116.00161559999833,0.001615599998331163,None,,155.99364269999933,155.99364269999933,155.99364269999933,155.99364269999933,155.99364269999933,155.99364269999933,155.99364269999933,155.99364269999933,001,P004,2025_Jan_18_1354,CategoryLocalizer,2021.2.3,59.92477044239689,
116.8,117.0,5,0.0,Stimuli\Blank.png,0,0,0,187,187,187,,,,,,,,,,,,,116.80392700000084,0.003927000000842895,None,,156.81109769999966,156.81109769999966,156.81109769999966,156.81109769999966,156.81109769999966,156.81109769999966,156.81109769999966,156.81109769999966,001,P004,2025_Jan_18_1354,CategoryLocalizer,2021.2.3,59.92477044239689,
117.0,117.8,1,0.75,Stimuli\ImageFiles-Set1\Objects\Object_Glasses_00001.png,0,0,0,188,188,188,,,,,,,,,,,,,117.01851929999975,0.018519299999752548,None,,157.01118640000277,157.01118640000277,157.01118640000277,157.01118640000277,157.01118640000277,157.01118640000277,157.01118640000277,157.01118640000277,001,P004,2025_Jan_18_1354,CategoryLocalizer,2021.2.3,59.92477044239689,
117.8,118.0,5,0.0,Stimuli\Blank.png,0,0,0,189,189,189,,,,,,,,,,,,,117.80480270000044,0.004802700000439586,5,0.15989009999975679,157.8119196000007,157.8119196000007,157.8119196000007,157.8119196000007,157.8119196000007,157.8119196000007,157.8119196000007,157.8119196000007,001,P004,2025_Jan_18_1354,CategoryLocalizer,2021.2.3,59.92477044239689,
118.0,118.8,1,0.75,Stimuli\ImageFiles-Set1\Objects\Object_Stool_00001.png,0,0,0,190,190,190,,,,,,,,,,,,,118.02004039999883,0.02004039999883389,None,,158.01207740000245,158.01207740000245,158.01207740000245,158.01207740000245,158.01207740000245,158.01207740000245,158.01207740000245,158.01207740000245,001,P004,2025_Jan_18_1354,CategoryLocalizer,2021.2.3,59.92477044239689,
118.8,119.0,5,0.0,Stimuli\Blank.png,0,0,0,191,191,191,,,,,,,,,,,,,118.80387719999999,0.0038771999999909212,None,,158.7960991,158.7960991,158.7960991,158.7960991,158.7960991,158.7960991,158.7960991,158.7960991,001,P004,2025_Jan_18_1354,CategoryLocalizer,2021.2.3,59.92477044239689,
119.0,119.8,1,0.75,Stimuli\ImageFiles-Set1\Objects\Object_Stroller_00001.png,0,0,0,192,192,192,,,,,,,,,,,,,119.0039551000009,0.003955100000894163,None,,158.9962680000026,158.9962680000026,158.9962680000026,158.9962680000026,158.9962680000026,158.9962680000026,158.9962680000026,158.9962680000026,001,P004,2025_Jan_18_1354,CategoryLocalizer,2021.2.3,59.92477044239689,
119.8,120.0,5,0.0,Stimuli\Blank.png,0,0,0,193,193,193,,,,,,,,,,,,,119.8047047,0.004704700000004891,None,,159.79700690000027,159.79700690000027,159.79700690000027,159.79700690000027,159.79700690000027,159.79700690000027,159.79700690000027,159.79700690000027,001,P004,2025_Jan_18_1354,CategoryLocalizer,2021.2.3,59.92477044239689,
120.0,120.8,4,0.75,Stimuli\ImageFiles-Set1\Scenes\Scenes_042.png,0,0,0,194,194,194,,,,,,,,,,,,,120.00501480000094,0.005014800000935793,None,,160.01383690000148,160.01383690000148,160.01383690000148,160.01383690000148,160.01383690000148,160.01383690000148,160.01383690000148,160.01383690000148,001,P004,2025_Jan_18_1354,CategoryLocalizer,2021.2.3,59.92477044239689,
120.8,121.0,5,0.0,Stimuli\Blank.png,0,0,0,195,195,195,,,,,,,,,,,,,120.82170720000067,0.021707200000676607,None,,160.81453800000236,160.81453800000236,160.81453800000236,160.81453800000236,160.81453800000236,160.81453800000236,160.81453800000236,160.81453800000236,001,P004,2025_Jan_18_1354,CategoryLocalizer,2021.2.3,59.92477044239689,
121.0,121.8,4,0.75,Stimuli\ImageFiles-Set1\Scenes\Scenes_042.png,1,1,0,196,196,196,,,,,,,,,,,,,121.00530969999818,0.005309699998178985,None,,160.9980381000023,160.9980381000023,160.9980381000023,160.9980381000023,160.9980381000023,160.9980381000023,160.9980381000023,160.9980381000023,001,P004,2025_Jan_18_1354,CategoryLocalizer,2021.2.3,59.92477044239689,
121.8,122.0,5,0.0,Stimuli\Blank.png,0,0,0,197,197,197,,,,,,,,,,,,,121.80598559999999,0.005985599999988267,None,,161.7987393000003,161.7987393000003,161.7987393000003,161.7987393000003,161.7987393000003,161.7987393000003,161.7987393000003,161.7987393000003,001,P004,2025_Jan_18_1354,CategoryLocalizer,2021.2.3,59.92477044239689,
122.0,122.8,4,0.75,Stimuli\ImageFiles-Set1\Scenes\Scenes_006.png,0,0,0,198,198,198,,,,,,,,,,,,,122.00661609999952,0.006616099999519065,None,,161.99888230000215,161.99888230000215,161.99888230000215,161.99888230000215,161.99888230000215,161.99888230000215,161.99888230000215,161.99888230000215,001,P004,2025_Jan_18_1354,CategoryLocalizer,2021.2.3,59.92477044239689,
122.8,123.0,5,0.0,Stimuli\Blank.png,0,0,0,199,199,199,,,,,,,,,,,,,122.80873950000023,0.008739500000231715,None,,162.8163267000018,162.8163267000018,162.8163267000018,162.8163267000018,162.8163267000018,162.8163267000018,162.8163267000018,162.8163267000018,001,P004,2025_Jan_18_1354,CategoryLocalizer,2021.2.3,59.92477044239689,
123.0,123.8,4,0.75,Stimuli\ImageFiles-Set1\Scenes\Scenes_048.png,0,0,0,200,200,200,,,,,,,,,,,,,123.02492399999755,0.024923999997554347,None,,163.03322939999998,163.03322939999998,163.03322939999998,163.03322939999998,163.03322939999998,163.03322939999998,163.03322939999998,163.03322939999998,001,P004,2025_Jan_18_1354,CategoryLocalizer,2021.2.3,59.92477044239689,
123.8,124.0,5,0.0,Stimuli\Blank.png,0,0,0,201,201,201,,,,,,,,,,,,,123.82518049999999,0.025180499999990502,None,,163.81719599999997,163.81719599999997,163.81719599999997,163.81719599999997,163.81719599999997,163.81719599999997,163.81719599999997,163.81719599999997,001,P004,2025_Jan_18_1354,CategoryLocalizer,2021.2.3,59.92477044239689,
124.0,124.8,4,0.75,Stimuli\ImageFiles-Set1\Scenes\Scenes_041.png,0,0,0,202,202,202,,,,,,,,,,,,,124.00863219999883,0.008632199998828582,None,,164.00067400000262,164.00067400000262,164.00067400000262,164.00067400000262,164.00067400000262,164.00067400000262,164.00067400000262,164.00067400000262,001,P004,2025_Jan_18_1354,CategoryLocalizer,2021.2.3,59.92477044239689,
124.8,125.0,5,0.0,Stimuli\Blank.png,0,0,0,203,203,203,,,,,,,,,,,,,124.80971829999908,0.00971829999907925,None,,164.80139240000062,164.80139240000062,164.80139240000062,164.80139240000062,164.80139240000062,164.80139240000062,164.80139240000062,164.80139240000062,001,P004,2025_Jan_18_1354,CategoryLocalizer,2021.2.3,59.92477044239689,
125.0,125.8,4,0.75,Stimuli\ImageFiles-Set1\Scenes\Scenes_003.png,0,0,0,204,204,204,,,,,,,,,,,,,125.00869769999917,0.008697699999174802,None,,165.00155480000103,165.00155480000103,165.00155480000103,165.00155480000103,165.00155480000103,165.00155480000103,165.00155480000103,165.00155480000103,001,P004,2025_Jan_18_1354,CategoryLocalizer,2021.2.3,59.92477044239689,
125.8,126.0,5,0.0,Stimuli\Blank.png,0,0,0,205,205,205,,,,,,,,,,,,,125.80945190000057,0.00945190000057039,None,,165.80226419999963,165.80226419999963,165.80226419999963,165.80226419999963,165.80226419999963,165.80226419999963,165.80226419999963,165.80226419999963,001,P004,2025_Jan_18_1354,CategoryLocalizer,2021.2.3,59.92477044239689,
126.0,126.8,4,0.75,Stimuli\ImageFiles-Set1\Scenes\Scenes_028.png,0,0,0,206,206,206,,,,,,,,,,,,,126.00977860000057,0.009778600000572624,None,,166.00243690000207,166.00243690000207,166.00243690000207,166.00243690000207,166.00243690000207,166.00243690000207,166.00243690000207,166.00243690000207,001,P004,2025_Jan_18_1354,CategoryLocalizer,2021.2.3,59.92477044239689,
126.8,127.0,5,0.0,Stimuli\Blank.png,0,0,0,207,207,207,,,,,,,,,,,,,126.81073990000004,0.010739900000046987,None,,166.80314100000032,166.80314100000032,166.80314100000032,166.80314100000032,166.80314100000032,166.80314100000032,166.80314100000032,166.80314100000032,001,P004,2025_Jan_18_1354,CategoryLocalizer,2021.2.3,59.92477044239689,
127.0,127.8,4,0.75,Stimuli\ImageFiles-Set1\Scenes\Scenes_024.png,0,0,0,208,208,208,,,,,,,,,,,,,127.01130469999771,0.011304699997708667,None,,167.02000170000247,167.02000170000247,167.02000170000247,167.02000170000247,167.02000170000247,167.02000170000247,167.02000170000247,167.02000170000247,001,P004,2025_Jan_18_1354,CategoryLocalizer,2021.2.3,59.92477044239689,
127.8,128.0,5,0.0,Stimuli\Blank.png,0,0,0,209,209,209,,,,,,,,,,,,,127.82892509999874,0.028925099998744486,5,0.1510956999991322,167.82071089999954,167.82071089999954,167.82071089999954,167.82071089999954,167.82071089999954,167.82071089999954,167.82071089999954,167.82071089999954,001,P004,2025_Jan_18_1354,CategoryLocalizer,2021.2.3,59.92477044239689,
128.0,128.8,4,0.75,Stimuli\ImageFiles-Set1\Scenes\Scenes_031.png,1,1,0,210,210,210,,,,,,,,,,,,,128.01126690000092,0.011266900000919122,None,,168.00419890000194,168.00419890000194,168.00419890000194,168.00419890000194,168.00419890000194,168.00419890000194,168.00419890000194,168.00419890000194,001,P004,2025_Jan_18_1354,CategoryLocalizer,2021.2.3,59.92477044239689,
128.8,129.0,5,0.0,Stimuli\Blank.png,0,0,0,211,211,211,,,,,,,,,,,,,128.81410609999875,0.014106099998741684,None,,168.82165090000126,168.82165090000126,168.82165090000126,168.82165090000126,168.82165090000126,168.82165090000126,168.82165090000126,168.82165090000126,001,P004,2025_Jan_18_1354,CategoryLocalizer,2021.2.3,59.92477044239689,
129.0,129.8,4,0.75,Stimuli\ImageFiles-Set1\Scenes\Scenes_058.png,0,0,0,212,212,212,,,,,,,,,,,,,129.02991180000026,0.02991180000026361,None,,169.03844300000128,169.03844300000128,169.03844300000128,169.03844300000128,169.03844300000128,169.03844300000128,169.03844300000128,169.03844300000128,001,P004,2025_Jan_18_1354,CategoryLocalizer,2021.2.3,59.92477044239689,
129.8,130.0,5,0.0,Stimuli\Blank.png,0,0,0,213,213,213,,,,,,,,,,,,,129.82968759999858,0.029687599998567293,5,0.14941239999825484,169.82247070000085,169.82247070000085,169.82247070000085,169.82247070000085,169.82247070000085,169.82247070000085,169.82247070000085,169.82247070000085,001,P004,2025_Jan_18_1354,CategoryLocalizer,2021.2.3,59.92477044239689,
130.0,130.8,4,0.75,Stimuli\ImageFiles-Set1\Scenes\Scenes_058.png,0,0,0,214,214,214,,,,,,,,,,,,,130.01318700000047,0.013187000000471016,4,0.4938214000030712,170.0059626000002,170.0059626000002,170.0059626000002,170.0059626000002,170.0059626000002,170.0059626000002,170.0059626000002,170.0059626000002,001,P004,2025_Jan_18_1354,CategoryLocalizer,2021.2.3,59.92477044239689,
130.8,131.0,5,0.0,Stimuli\Blank.png,0,0,0,215,215,215,,,,,,,,,,,,,130.81463009999788,0.014630099997873458,None,,170.80667540000286,170.80667540000286,170.80667540000286,170.80667540000286,170.80667540000286,170.80667540000286,170.80667540000286,170.80667540000286,001,P004,2025_Jan_18_1354,CategoryLocalizer,2021.2.3,59.92477044239689,
131.0,131.8,4,0.75,Stimuli\ImageFiles-Set1\Scenes\Scenes_019.png,0,0,0,216,216,216,,,,,,,,,,,,,131.01471129999845,0.014711299998452887,None,,171.0235243999996,171.0235243999996,171.0235243999996,171.0235243999996,171.0235243999996,171.0235243999996,171.0235243999996,171.0235243999996,001,P004,2025_Jan_18_1354,CategoryLocalizer,2021.2.3,59.92477044239689,
131.8,132.0,5,0.0,Stimuli\Blank.png,0,0,0,217,217,217,,,,,,,,,,,,,131.83414379999886,0.034143799998844315,5,0.13089229999968666,171.84093420000136,171.84093420000136,171.84093420000136,171.84093420000136,171.84093420000136,171.84093420000136,171.84093420000136,171.84093420000136,001,P004,2025_Jan_18_1354,CategoryLocalizer,2021.2.3,59.92477044239689,
132.0,132.8,4,0.75,Stimuli\ImageFiles-Set1\Scenes\Scenes_054.png,0,0,0,218,218,218,,,,,,,,,,,,,132.015056799999,0.015056799999001669,None,,172.00772680000227,172.00772680000227,172.00772680000227,172.00772680000227,172.00772680000227,172.00772680000227,172.00772680000227,172.00772680000227,001,P004,2025_Jan_18_1354,CategoryLocalizer,2021.2.3,59.92477044239689,
132.8,133.0,5,0.0,Stimuli\Blank.png,0,0,0,219,219,219,,,,,,,,,,,,,132.79969999999958,-0.0003000000004362846,None,,172.79174740000235,172.79174740000235,172.79174740000235,172.79174740000235,172.79174740000235,172.79174740000235,172.79174740000235,172.79174740000235,001,P004,2025_Jan_18_1354,CategoryLocalizer,2021.2.3,59.92477044239689,
133.0,133.8,4,0.75,Stimuli\ImageFiles-Set1\Scenes\Scenes_023.png,0,0,0,220,220,220,,,,,,,,,,,,,133.00055319999956,0.0005531999995582737,None,,173.0086098000029,173.0086098000029,173.0086098000029,173.0086098000029,173.0086098000029,173.0086098000029,173.0086098000029,173.0086098000029,001,P004,2025_Jan_18_1354,CategoryLocalizer,2021.2.3,59.92477044239689,
133.8,134.0,5,0.0,Stimuli\Blank.png,0,0,0,221,221,221,,,,,,,,,,,,,133.81685039999866,0.01685039999864557,None,,173.80931730000157,173.80931730000157,173.80931730000157,173.80931730000157,173.80931730000157,173.80931730000157,173.80931730000157,173.80931730000157,001,P004,2025_Jan_18_1354,CategoryLocalizer,2021.2.3,59.92477044239689,
134.0,134.8,4,0.75,Stimuli\ImageFiles-Set1\Scenes\Scenes_043.png,0,0,0,222,222,222,,,,,,,,,,,,,134.0004317999992,0.0004317999992053956,None,,173.99278600000252,173.99278600000252,173.99278600000252,173.99278600000252,173.99278600000252,173.99278600000252,173.99278600000252,173.99278600000252,001,P004,2025_Jan_18_1354,CategoryLocalizer,2021.2.3,59.92477044239689,
134.8,135.0,5,0.0,Stimuli\Blank.png,0,0,0,223,223,223,,,,,,,,,,,,,134.80388440000024,0.0038844000002313805,None,,174.81030420000025,174.81030420000025,174.81030420000025,174.81030420000025,174.81030420000025,174.81030420000025,174.81030420000025,174.81030420000025,001,P004,2025_Jan_18_1354,CategoryLocalizer,2021.2.3,59.92477044239689,
135.0,135.8,4,0.75,Stimuli\ImageFiles-Set1\Scenes\Scenes_059.png,0,0,0,224,224,224,,,,,,,,,,,,,135.01933250000002,0.019332500000018626,None,,175.02705630000128,175.02705630000128,175.02705630000128,175.02705630000128,175.02705630000128,175.02705630000128,175.02705630000128,175.02705630000128,001,P004,2025_Jan_18_1354,CategoryLocalizer,2021.2.3,59.92477044239689,
135.8,136.0,5,0.0,Stimuli\Blank.png,0,0,0,225,225,225,,,,,,,,,,,,,135.81979760000104,0.01979760000102715,5,0.1439511999997194,175.82779120000123,175.82779120000123,175.82779120000123,175.82779120000123,175.82779120000123,175.82779120000123,175.82779120000123,175.82779120000123,001,P004,2025_Jan_18_1354,CategoryLocalizer,2021.2.3,59.92477044239689,
136.0,136.8,2,0.75,Stimuli\ImageFiles-Set1\Bodies\Bodies_SittingChair_00005.png,0,0,0,226,226,226,,,,,,,,,,,,,136.01863220000087,0.01863220000086585,None,,176.0112418000026,176.0112418000026,176.0112418000026,176.0112418000026,176.0112418000026,176.0112418000026,176.0112418000026,176.0112418000026,001,P004,2025_Jan_18_1354,CategoryLocalizer,2021.2.3,59.92477044239689,
136.8,137.0,5,0.0,Stimuli\Blank.png,0,0,0,227,227,227,,,,,,,,,,,,,136.80512689999887,0.005126899998856516,None,,176.8119562000029,176.8119562000029,176.8119562000029,176.8119562000029,176.8119562000029,176.8119562000029,176.8119562000029,176.8119562000029,001,P004,2025_Jan_18_1354,CategoryLocalizer,2021.2.3,59.92477044239689,
137.0,137.8,2,0.75,Stimuli\ImageFiles-Set1\Bodies\Bodies_SittingChair_00005.png,1,1,0,228,228,228,,,,,,,,,,,,,137.01995859999806,0.01995859999806271,None,,177.01213190000271,177.01213190000271,177.01213190000271,177.01213190000271,177.01213190000271,177.01213190000271,177.01213190000271,177.01213190000271,001,P004,2025_Jan_18_1354,CategoryLocalizer,2021.2.3,59.92477044239689,
137.8,138.0,5,0.0,Stimuli\Blank.png,0,0,0,229,229,229,,,,,,,,,,,,,137.80376669999896,0.0037666999989482974,4,0.04858389999935753,177.7961518000011,177.7961518000011,177.7961518000011,177.7961518000011,177.7961518000011,177.7961518000011,177.7961518000011,177.7961518000011,001,P004,2025_Jan_18_1354,CategoryLocalizer,2021.2.3,59.92477044239689,
138.0,138.8,2,0.75,Stimuli\ImageFiles-Set1\Bodies\Bodies_Falling_00006.png,0,0,0,230,230,230,,,,,,,,,,,,,138.00481109999964,0.004811099999642465,None,,177.9963416999999,177.9963416999999,177.9963416999999,177.9963416999999,177.9963416999999,177.9963416999999,177.9963416999999,177.9963416999999,001,P004,2025_Jan_18_1354,CategoryLocalizer,2021.2.3,59.92477044239689,
138.8,139.0,5,0.0,Stimuli\Blank.png,0,0,0,231,231,231,,,,,,,,,,,,,138.80544879999798,0.0054487999979642154,None,,178.79704400000264,178.79704400000264,178.79704400000264,178.79704400000264,178.79704400000264,178.79704400000264,178.79704400000264,178.79704400000264,001,P004,2025_Jan_18_1354,CategoryLocalizer,2021.2.3,59.92477044239689,
139.0,139.8,2,0.75,Stimuli\ImageFiles-Set1\Bodies\Bodies_Kneeling_00003.png,0,0,0,232,232,232,,,,,,,,,,,,,139.0054139999993,0.0054139999992912635,None,,178.99721200000204,178.99721200000204,178.99721200000204,178.99721200000204,178.99721200000204,178.99721200000204,178.99721200000204,178.99721200000204,001,P004,2025_Jan_18_1354,CategoryLocalizer,2021.2.3,59.92477044239689,
139.8,140.0,5,0.0,Stimuli\Blank.png,0,0,0,233,233,233,,,,,,,,,,,,,139.8052475000004,0.005247500000393757,None,,179.7979180000002,179.7979180000002,179.7979180000002,179.7979180000002,179.7979180000002,179.7979180000002,179.7979180000002,179.7979180000002,001,P004,2025_Jan_18_1354,CategoryLocalizer,2021.2.3,59.92477044239689,
140.0,140.8,2,0.75,Stimuli\ImageFiles-Set1\Bodies\Bodies_DownwardDog_00003.png,0,0,0,234,234,234,,,,,,,,,,,,,140.00564640000084,0.0056464000008418225,None,,179.99809620000087,179.99809620000087,179.99809620000087,179.99809620000087,179.99809620000087,179.99809620000087,179.99809620000087,179.99809620000087,001,P004,2025_Jan_18_1354,CategoryLocalizer,2021.2.3,59.92477044239689,
140.8,141.0,5,0.0,Stimuli\Blank.png,0,0,0,235,235,235,,,,,,,,,,,,,140.80653689999963,0.006536899999616708,None,,180.79880030000277,180.79880030000277,180.79880030000277,180.79880030000277,180.79880030000277,180.79880030000277,180.79880030000277,180.79880030000277,001,P004,2025_Jan_18_1354,CategoryLocalizer,2021.2.3,59.92477044239689,
141.0,141.8,2,0.75,Stimuli\ImageFiles-Set1\Bodies\Bodies_Kneeling_00007.png,0,0,0,236,236,236,,,,,,,,,,,,,141.00869479999892,0.008694799998920644,None,,181.01568419999967,181.01568419999967,181.01568419999967,181.01568419999967,181.01568419999967,181.01568419999967,181.01568419999967,181.01568419999967,001,P004,2025_Jan_18_1354,CategoryLocalizer,2021.2.3,59.92477044239689,
141.8,142.0,5,0.0,Stimuli\Blank.png,0,0,0,237,237,237,,,,,,,,,,,,,141.82439299999896,0.024392999998951836,None,,181.81636480000088,181.81636480000088,181.81636480000088,181.81636480000088,181.81636480000088,181.81636480000088,181.81636480000088,181.81636480000088,001,P004,2025_Jan_18_1354,CategoryLocalizer,2021.2.3,59.92477044239689,
142.0,142.8,2,0.75,Stimuli\ImageFiles-Set1\Bodies\Bodies_Punching_00001.png,0,0,0,238,238,238,,,,,,,,,,,,,142.007738100001,0.007738100001006387,None,,181.99985500000184,181.99985500000184,181.99985500000184,181.99985500000184,181.99985500000184,181.99985500000184,181.99985500000184,181.99985500000184,001,P004,2025_Jan_18_1354,CategoryLocalizer,2021.2.3,59.92477044239689,
142.8,143.0,5,0.0,Stimuli\Blank.png,0,0,0,239,239,239,,,,,,,,,,,,,142.80768089999765,0.00768089999763788,None,,182.80060629999934,182.80060629999934,182.80060629999934,182.80060629999934,182.80060629999934,182.80060629999934,182.80060629999934,182.80060629999934,001,P004,2025_Jan_18_1354,CategoryLocalizer,2021.2.3,59.92477044239689,
143.0,143.8,2,0.75,Stimuli\ImageFiles-Set1\Bodies\Bodies_Pushing_00001.png,0,0,0,240,240,240,,,,,,,,,,,,,143.00932929999908,0.009329299999080831,None,,183.00073840000186,183.00073840000186,183.00073840000186,183.00073840000186,183.00073840000186,183.00073840000186,183.00073840000186,183.00073840000186,001,P004,2025_Jan_18_1354,CategoryLocalizer,2021.2.3,59.92477044239689,
143.8,144.0,5,0.0,Stimuli\Blank.png,0,0,0,241,241,241,,,,,,,,,,,,,143.8096884000006,0.009688400000584352,None,,183.80144719999953,183.80144719999953,183.80144719999953,183.80144719999953,183.80144719999953,183.80144719999953,183.80144719999953,183.80144719999953,001,P004,2025_Jan_18_1354,CategoryLocalizer,2021.2.3,59.92477044239689,
144.0,144.8,2,0.75,Stimuli\ImageFiles-Set1\Bodies\Bodies_Crawling_00006.png,1,1,0,242,242,242,,,,,,,,,,,,,144.0096642999997,0.009664299999712966,None,,184.0016187000001,184.0016187000001,184.0016187000001,184.0016187000001,184.0016187000001,184.0016187000001,184.0016187000001,184.0016187000001,001,P004,2025_Jan_18_1354,CategoryLocalizer,2021.2.3,59.92477044239689,
144.8,145.0,5,0.0,Stimuli\Blank.png,0,0,0,243,243,243,,,,,,,,,,,,,144.80952329999855,0.009523299998534185,None,,184.80233690000023,184.80233690000023,184.80233690000023,184.80233690000023,184.80233690000023,184.80233690000023,184.80233690000023,184.80233690000023,001,P004,2025_Jan_18_1354,CategoryLocalizer,2021.2.3,59.92477044239689,
145.0,145.8,2,0.75,Stimuli\ImageFiles-Set1\Bodies\Bodies_QuadStretch_00001.png,0,0,0,244,244,244,,,,,,,,,,,,,145.01009939999858,0.010099399998580338,None,,185.01920020000034,185.01920020000034,185.01920020000034,185.01920020000034,185.01920020000034,185.01920020000034,185.01920020000034,185.01920020000034,001,P004,2025_Jan_18_1354,CategoryLocalizer,2021.2.3,59.92477044239689,
145.8,146.0,5,0.0,Stimuli\Blank.png,0,0,0,245,245,245,,,,,,,,,,,,,145.82829189999757,0.028291899997554992,5,0.151896499999566,185.8198966000018,185.8198966000018,185.8198966000018,185.8198966000018,185.8198966000018,185.8198966000018,185.8198966000018,185.8198966000018,001,P004,2025_Jan_18_1354,CategoryLocalizer,2021.2.3,59.92477044239689,
146.0,146.8,2,0.75,Stimuli\ImageFiles-Set1\Bodies\Bodies_QuadStretch_00001.png,0,0,0,246,246,246,,,,,,,,,,,,,146.01076249999824,0.010762499998236308,4,0.5703998999997566,186.00335149999955,186.00335149999955,186.00335149999955,186.00335149999955,186.00335149999955,186.00335149999955,186.00335149999955,186.00335149999955,001,P004,2025_Jan_18_1354,CategoryLocalizer,2021.2.3,59.92477044239689,
146.8,147.0,5,0.0,Stimuli\Blank.png,0,0,0,247,247,247,,,,,,,,,,,,,146.81161190000057,0.011611900000559672,None,,186.80408630000238,186.80408630000238,186.80408630000238,186.80408630000238,186.80408630000238,186.80408630000238,186.80408630000238,186.80408630000238,001,P004,2025_Jan_18_1354,CategoryLocalizer,2021.2.3,59.92477044239689,
147.0,147.8,2,0.75,Stimuli\ImageFiles-Set1\Bodies\Bodies_QuadStretch_00003.png,0,0,0,248,248,248,,,,,,,,,,,,,147.01373070000045,0.01373070000045118,None,,187.02094230000148,187.02094230000148,187.02094230000148,187.02094230000148,187.02094230000148,187.02094230000148,187.02094230000148,187.02094230000148,001,P004,2025_Jan_18_1354,CategoryLocalizer,2021.2.3,59.92477044239689,
147.8,148.0,5,0.0,Stimuli\Blank.png,0,0,0,249,249,249,,,,,,,,,,,,,147.828975299999,0.028975299998990067,5,0.1501456000005419,187.82164449999982,187.82164449999982,187.82164449999982,187.82164449999982,187.82164449999982,187.82164449999982,187.82164449999982,187.82164449999982,001,P004,2025_Jan_18_1354,CategoryLocalizer,2021.2.3,59.92477044239689,
148.0,148.8,2,0.75,Stimuli\ImageFiles-Set1\Bodies\Bodies_SittingChair_00007.png,0,0,0,250,250,250,,,,,,,,,,,,,148.0143442999979,0.014344299997901544,None,,188.02182470000116,188.02182470000116,188.02182470000116,188.02182470000116,188.02182470000116,188.02182470000116,188.02182470000116,188.02182470000116,001,P004,2025_Jan_18_1354,CategoryLocalizer,2021.2.3,59.92477044239689,
148.8,149.0,5,0.0,Stimuli\Blank.png,0,0,0,251,251,251,,,,,,,,,,,,,148.82998120000047,0.02998120000046356,None,,188.82252670000162,188.82252670000162,188.82252670000162,188.82252670000162,188.82252670000162,188.82252670000162,188.82252670000162,188.82252670000162,001,P004,2025_Jan_18_1354,CategoryLocalizer,2021.2.3,59.92477044239689,
149.0,149.8,2,0.75,Stimuli\ImageFiles-Set1\Bodies\Bodies_Crawling_00001.png,0,0,0,252,252,252,,,,,,,,,,,,,149.01394770000115,0.013947700001153862,None,,189.00602100000106,189.00602100000106,189.00602100000106,189.00602100000106,189.00602100000106,189.00602100000106,189.00602100000106,189.00602100000106,001,P004,2025_Jan_18_1354,CategoryLocalizer,2021.2.3,59.92477044239689,
149.8,150.0,5,0.0,Stimuli\Blank.png,0,0,0,253,253,253,,,,,,,,,,,,,149.81463839999924,0.014638399999228113,5,0.1649431999976514,189.80673640000168,189.80673640000168,189.80673640000168,189.80673640000168,189.80673640000168,189.80673640000168,189.80673640000168,189.80673640000168,001,P004,2025_Jan_18_1354,CategoryLocalizer,2021.2.3,59.92477044239689,
150.0,150.8,2,0.75,Stimuli\ImageFiles-Set1\Bodies\Bodies_Kneeling_00005.png,0,0,0,254,254,254,,,,,,,,,,,,,150.01568229999975,0.015682299999753013,None,,190.02358740000273,190.02358740000273,190.02358740000273,190.02358740000273,190.02358740000273,190.02358740000273,190.02358740000273,190.02358740000273,001,P004,2025_Jan_18_1354,CategoryLocalizer,2021.2.3,59.92477044239689,
150.8,151.0,5,0.0,Stimuli\Blank.png,0,0,0,255,255,255,,,,,,,,,,,,,150.81548969999858,0.015489699998568085,None,,190.80761640000128,190.80761640000128,190.80761640000128,190.80761640000128,190.80761640000128,190.80761640000128,190.80761640000128,190.80761640000128,001,P004,2025_Jan_18_1354,CategoryLocalizer,2021.2.3,59.92477044239689,
151.0,151.8,2,0.75,Stimuli\ImageFiles-Set1\Bodies\Bodies_QuadStretch_00005.png,0,0,0,256,256,256,,,,,,,,,,,,,150.9994676999995,-0.0005323000004864298,None,,191.00779160000093,191.00779160000093,191.00779160000093,191.00779160000093,191.00779160000093,191.00779160000093,191.00779160000093,191.00779160000093,001,P004,2025_Jan_18_1354,CategoryLocalizer,2021.2.3,59.92477044239689,
151.8,152.0,5,0.0,Stimuli\Blank.png,0,0,0,257,257,257,,,,,,,,,,,,,151.8164074999986,0.01640749999859281,None,,191.80849220000164,191.80849220000164,191.80849220000164,191.80849220000164,191.80849220000164,191.80849220000164,191.80849220000164,191.80849220000164,001,P004,2025_Jan_18_1354,CategoryLocalizer,2021.2.3,59.92477044239689,
152.0,164.0,0,0.0,Stimuli\Blank.png,0,0,0,258,258,258,,,,,,,,,,,,,151.99967979999929,-0.00032020000071497634,5,9.979621999998926,191.9920278999998,191.9920278999998,191.9920278999998,191.9920278999998,191.9920278999998,191.9920278999998,191.9920278999998,191.9920278999998,001,P004,2025_Jan_18_1354,CategoryLocalizer,2021.2.3,59.92477044239689,
164.0,164.8,4,0.75,Stimuli\ImageFiles-Set1\Scenes\Scenes_044.png,0,0,0,259,259,259,,,,,,,,,,,,,164.00978039999973,0.009780399999726797,None,,204.00254850000056,204.00254850000056,204.00254850000056,204.00254850000056,204.00254850000056,204.00254850000056,204.00254850000056,204.00254850000056,001,P004,2025_Jan_18_1354,CategoryLocalizer,2021.2.3,59.92477044239689,
164.8,165.0,5,0.0,Stimuli\Blank.png,0,0,0,260,260,260,,,,,,,,,,,,,164.81057929999952,0.01057929999950602,None,,204.8032572000011,204.8032572000011,204.8032572000011,204.8032572000011,204.8032572000011,204.8032572000011,204.8032572000011,204.8032572000011,001,P004,2025_Jan_18_1354,CategoryLocalizer,2021.2.3,59.92477044239689,
165.0,165.8,4,0.75,Stimuli\ImageFiles-Set1\Scenes\Scenes_056.png,0,0,0,261,261,261,,,,,,,,,,,,,165.01161689999935,0.011616899999353336,None,,205.02011069999935,205.02011069999935,205.02011069999935,205.02011069999935,205.02011069999935,205.02011069999935,205.02011069999935,205.02011069999935,001,P004,2025_Jan_18_1354,CategoryLocalizer,2021.2.3,59.92477044239689,
165.8,166.0,5,0.0,Stimuli\Blank.png,0,0,0,262,262,262,,,,,,,,,,,,,165.82852600000115,0.028526000001136254,5,0.15076310000222293,205.82079990000057,205.82079990000057,205.82079990000057,205.82079990000057,205.82079990000057,205.82079990000057,205.82079990000057,205.82079990000057,001,P004,2025_Jan_18_1354,CategoryLocalizer,2021.2.3,59.92477044239689,
166.0,166.8,4,0.75,Stimuli\ImageFiles-Set1\Scenes\Scenes_018.png,0,0,0,263,263,263,,,,,,,,,,,,,166.01436769999782,0.014367699997819727,None,,206.02100190000056,206.02100190000056,206.02100190000056,206.02100190000056,206.02100190000056,206.02100190000056,206.02100190000056,206.02100190000056,001,P004,2025_Jan_18_1354,CategoryLocalizer,2021.2.3,59.92477044239689,
166.8,167.0,5,0.0,Stimuli\Blank.png,0,0,0,264,264,264,,,,,,,,,,,,,166.8295235000005,0.02952350000049364,None,,206.82170220000262,206.82170220000262,206.82170220000262,206.82170220000262,206.82170220000262,206.82170220000262,206.82170220000262,206.82170220000262,001,P004,2025_Jan_18_1354,CategoryLocalizer,2021.2.3,59.92477044239689,
167.0,167.8,4,0.75,Stimuli\ImageFiles-Set1\Scenes\Scenes_005.png,0,0,0,265,265,265,,,,,,,,,,,,,167.0147567999993,0.014756799999304349,None,,207.02188380000007,207.02188380000007,207.02188380000007,207.02188380000007,207.02188380000007,207.02188380000007,207.02188380000007,207.02188380000007,001,P004,2025_Jan_18_1354,CategoryLocalizer,2021.2.3,59.92477044239689,
167.8,168.0,5,0.0,Stimuli\Blank.png,0,0,0,266,266,266,,,,,,,,,,,,,167.83002119999946,0.030021199999453074,5,0.14908319999813102,207.82254850000027,207.82254850000027,207.82254850000027,207.82254850000027,207.82254850000027,207.82254850000027,207.82254850000027,207.82254850000027,001,P004,2025_Jan_18_1354,CategoryLocalizer,2021.2.3,59.92477044239689,
168.0,168.8,4,0.75,Stimuli\ImageFiles-Set1\Scenes\Scenes_051.png,0,0,0,267,267,267,,,,,,,,,,,,,168.0134794000005,0.013479400000505848,None,,208.00608320000174,208.00608320000174,208.00608320000174,208.00608320000174,208.00608320000174,208.00608320000174,208.00608320000174,208.00608320000174,001,P004,2025_Jan_18_1354,CategoryLocalizer,2021.2.3,59.92477044239689,
168.8,169.0,5,0.0,Stimuli\Blank.png,0,0,0,268,268,268,,,,,,,,,,,,,168.8147398000001,0.014739800000086234,None,,208.80678679999983,208.80678679999983,208.80678679999983,208.80678679999983,208.80678679999983,208.80678679999983,208.80678679999983,208.80678679999983,001,P004,2025_Jan_18_1354,CategoryLocalizer,2021.2.3,59.92477044239689,
169.0,169.8,4,0.75,Stimuli\ImageFiles-Set1\Scenes\Scenes_013.png,0,0,0,269,269,269,,,,,,,,,,,,,169.01438359999884,0.014383599998836871,None,,209.02364210000087,209.02364210000087,209.02364210000087,209.02364210000087,209.02364210000087,209.02364210000087,209.02364210000087,209.02364210000087,001,P004,2025_Jan_18_1354,CategoryLocalizer,2021.2.3,59.92477044239689,
169.8,170.0,5,0.0,Stimuli\Blank.png,0,0,0,270,270,270,,,,,,,,,,,,,169.83402769999884,0.034027699998830485,5,0.13051590000031865,209.84104320000188,209.84104320000188,209.84104320000188,209.84104320000188,209.84104320000188,209.84104320000188,209.84104320000188,209.84104320000188,001,P004,2025_Jan_18_1354,CategoryLocalizer,2021.2.3,59.92477044239689,
170.0,170.8,4,0.75,Stimuli\ImageFiles-Set1\Scenes\Scenes_014.png,0,0,0,271,271,271,,,,,,,,,,,,,170.01590919999944,0.015909199999441626,None,,210.00783950000186,210.00783950000186,210.00783950000186,210.00783950000186,210.00783950000186,210.00783950000186,210.00783950000186,210.00783950000186,001,P004,2025_Jan_18_1354,CategoryLocalizer,2021.2.3,59.92477044239689,
170.8,171.0,5,0.0,Stimuli\Blank.png,0,0,0,272,272,272,,,,,,,,,,,,,170.79954369999905,-0.00045630000096252843,None,,210.7918666000005,210.7918666000005,210.7918666000005,210.7918666000005,210.7918666000005,210.7918666000005,210.7918666000005,210.7918666000005,001,P004,2025_Jan_18_1354,CategoryLocalizer,2021.2.3,59.92477044239689,
171.0,171.8,4,0.75,Stimuli\ImageFiles-Set1\Scenes\Scenes_011.png,0,0,0,273,273,273,,,,,,,,,,,,,171.00011059999815,0.00011059999815188348,None,,210.99259800000073,210.99259800000073,210.99259800000073,210.99259800000073,210.99259800000073,210.99259800000073,210.99259800000073,210.99259800000073,001,P004,2025_Jan_18_1354,CategoryLocalizer,2021.2.3,59.92477044239689,
171.8,172.0,5,0.0,Stimuli\Blank.png,0,0,0,274,274,274,,,,,,,,,,,,,171.80097999999998,0.0009799999999700049,None,,211.7927434000012,211.7927434000012,211.7927434000012,211.7927434000012,211.7927434000012,211.7927434000012,211.7927434000012,211.7927434000012,001,P004,2025_Jan_18_1354,CategoryLocalizer,2021.2.3,59.92477044239689,
172.0,172.8,4,0.75,Stimuli\ImageFiles-Set1\Scenes\Scenes_036.png,0,0,0,275,275,275,,,,,,,,,,,,,172.00037560000055,0.0003756000005523674,None,,211.99291319999975,211.99291319999975,211.99291319999975,211.99291319999975,211.99291319999975,211.99291319999975,211.99291319999975,211.99291319999975,001,P004,2025_Jan_18_1354,CategoryLocalizer,2021.2.3,59.92477044239689,
172.8,173.0,5,0.0,Stimuli\Blank.png,0,0,0,276,276,276,,,,,,,,,,,,,172.8012615000007,0.0012615000006803712,None,,212.79363320000266,212.79363320000266,212.79363320000266,212.79363320000266,212.79363320000266,212.79363320000266,212.79363320000266,212.79363320000266,001,P004,2025_Jan_18_1354,CategoryLocalizer,2021.2.3,59.92477044239689,
173.0,173.8,4,0.75,Stimuli\ImageFiles-Set1\Scenes\Scenes_008.png,0,0,0,277,277,277,,,,,,,,,,,,,173.00364439999976,0.0036443999997572973,None,,213.01051039999948,213.01051039999948,213.01051039999948,213.01051039999948,213.01051039999948,213.01051039999948,213.01051039999948,213.01051039999948,001,P004,2025_Jan_18_1354,CategoryLocalizer,2021.2.3,59.92477044239689,
173.8,174.0,5,0.0,Stimuli\Blank.png,0,0,0,278,278,278,,,,,,,,,,,,,173.81858869999996,0.018588699999952496,None,,213.8111929000006,213.8111929000006,213.8111929000006,213.8111929000006,213.8111929000006,213.8111929000006,213.8111929000006,213.8111929000006,001,P004,2025_Jan_18_1354,CategoryLocalizer,2021.2.3,59.92477044239689,
174.0,174.8,4,0.75,Stimuli\ImageFiles-Set1\Scenes\Scenes_049.png,0,0,0,279,279,279,,,,,,,,,,,,,174.00379379999868,0.00379379999867524,None,,214.01137089999975,214.01137089999975,214.01137089999975,214.01137089999975,214.01137089999975,214.01137089999975,214.01137089999975,214.01137089999975,001,P004,2025_Jan_18_1354,CategoryLocalizer,2021.2.3,59.92477044239689,
174.8,175.0,5,0.0,Stimuli\Blank.png,0,0,0,280,280,280,,,,,,,,,,,,,174.81998250000106,0.019982500001049175,None,,214.81205700000282,214.81205700000282,214.81205700000282,214.81205700000282,214.81205700000282,214.81205700000282,214.81205700000282,214.81205700000282,001,P004,2025_Jan_18_1354,CategoryLocalizer,2021.2.3,59.92477044239689,
175.0,175.8,4,0.75,Stimuli\ImageFiles-Set1\Scenes\Scenes_027.png,0,0,0,281,281,281,,,,,,,,,,,,,175.00334569999904,0.003345699999044882,None,,214.9955633000027,214.9955633000027,214.9955633000027,214.9955633000027,214.9955633000027,214.9955633000027,214.9955633000027,214.9955633000027,001,P004,2025_Jan_18_1354,CategoryLocalizer,2021.2.3,59.92477044239689,
175.8,176.0,5,0.0,Stimuli\Blank.png,0,0,0,282,282,282,,,,,,,,,,,,,175.80472879999797,0.004728799997963051,None,,215.79626930000086,215.79626930000086,215.79626930000086,215.79626930000086,215.79626930000086,215.79626930000086,215.79626930000086,215.79626930000086,001,P004,2025_Jan_18_1354,CategoryLocalizer,2021.2.3,59.92477044239689,
176.0,176.8,4,0.75,Stimuli\ImageFiles-Set1\Scenes\Scenes_055.png,0,0,0,283,283,283,,,,,,,,,,,,,176.0043638999996,0.004363899999589194,None,,216.01312859999962,216.01312859999962,216.01312859999962,216.01312859999962,216.01312859999962,216.01312859999962,216.01312859999962,216.01312859999962,001,P004,2025_Jan_18_1354,CategoryLocalizer,2021.2.3,59.92477044239689,
