eventStartTime,eventEndTime,eventCond,imSize,imFile,repeatedImage,responseEvent,Events.thisRepN,Events.thisTrialN,Events.thisN,Events.thisIndex,Instructions.started,Instructions.stopped,participantReadyResponse.keys,participantReadyResponse.rt,participantReadyResponse.started,participantReadyResponse.stopped,startWaitforTrigger,triggerResponse.keys,triggerResponse.rt,triggerResponse.started,triggerResponse.stopped,globalTimer,actualStartTime,startTimingDiff,participantResponse.keys,participantResponse.rt,participantResponse.started,participantResponse.stopped,image.started,image.stopped,fixationOutside.started,fixationOutside.stopped,fixationInside.started,fixationInside.stopped,session,participant,date,expName,psychopyVersion,frameRate,
,,,,,,,,,,,11.88923480000085,None,4,24.066314600000624,11.88923480000085,None,,,,,,,,,,,,,,,,,,,002,P004,2025_Jan_18_1423,CategoryLocalizer,2021.2.3,59.92441134661594,
,,,,,,,,,,,,,,,,,35.97178740000163,5,16.573462799999106,35.98491990000184,None,,,,,,,,,,,,,,002,P004,2025_Jan_18_1423,CategoryLocalizer,2021.2.3,59.92441134661594,
0.0,12.0,0,0.0,Stimuli\Blank.png,0,0,0,0,0,0,,,,,,,,,,,,52.56977100000222,0.040994599999976344,0.040994599999976344,5,11.92553179999959,52.632893500001956,None,52.632893500001956,None,52.632893500001956,None,52.632893500001956,None,002,P004,2025_Jan_18_1423,CategoryLocalizer,2021.2.3,59.92441134661594,
12.0,12.8,1,0.75,Stimuli\ImageFiles-Set2\Objects\Object_Razor_00001.png,0,0,0,1,1,1,,,,,,,,,,,,,12.010473399997863,0.010473399997863453,None,,64.59342180000021,64.59342180000021,64.59342180000021,64.59342180000021,64.59342180000021,64.59342180000021,64.59342180000021,64.59342180000021,002,P004,2025_Jan_18_1423,CategoryLocalizer,2021.2.3,59.92441134661594,
12.8,13.0,5,0.0,Stimuli\Blank.png,0,0,0,2,2,2,,,,,,,,,,,,,12.81203209999876,0.012032099998759094,None,,65.41082680000181,65.41082680000181,65.41082680000181,65.41082680000181,65.41082680000181,65.41082680000181,65.41082680000181,65.41082680000181,002,P004,2025_Jan_18_1423,CategoryLocalizer,2021.2.3,59.92441134661594,
13.0,13.8,1,0.75,Stimuli\ImageFiles-Set2\Objects\Object_Plate_00001.png,0,0,0,3,3,3,,,,,,,,,,,,,13.026778499999637,0.02677849999963655,None,,65.61098450000281,65.61098450000281,65.61098450000281,65.61098450000281,65.61098450000281,65.61098450000281,65.61098450000281,65.61098450000281,002,P004,2025_Jan_18_1423,CategoryLocalizer,2021.2.3,59.92441134661594,
13.8,14.0,5,0.0,Stimuli\Blank.png,0,0,0,4,4,4,,,,,,,,,,,,,13.811211399999593,0.011211399999591976,5,0.1632908999999927,66.39502290000019,66.39502290000019,66.39502290000019,66.39502290000019,66.39502290000019,66.39502290000019,66.39502290000019,66.39502290000019,002,P004,2025_Jan_18_1423,CategoryLocalizer,2021.2.3,59.92441134661594,
14.0,14.8,1,0.75,Stimuli\ImageFiles-Set2\Objects\Object_Plate_00001.png,1,1,0,5,5,5,,,,,,,,,,,,,14.011167599997862,0.011167599997861544,None,,66.59518240000034,66.59518240000034,66.59518240000034,66.59518240000034,66.59518240000034,66.59518240000034,66.59518240000034,66.59518240000034,002,P004,2025_Jan_18_1423,CategoryLocalizer,2021.2.3,59.92441134661594,
14.8,15.0,5,0.0,Stimuli\Blank.png,0,0,0,6,6,6,,,,,,,,,,,,,14.812515199999325,0.012515199999324267,4,0.14044959999955609,67.39590020000105,67.39590020000105,67.39590020000105,67.39590020000105,67.39590020000105,67.39590020000105,67.39590020000105,67.39590020000105,002,P004,2025_Jan_18_1423,CategoryLocalizer,2021.2.3,59.92441134661594,
15.0,15.8,1,0.75,Stimuli\ImageFiles-Set2\Objects\Object_Shelves_00001.png,0,0,0,7,7,7,,,,,,,,,,,,,15.011783699999796,0.011783699999796227,None,,67.59602950000044,67.59602950000044,67.59602950000044,67.59602950000044,67.59602950000044,67.59602950000044,67.59602950000044,67.59602950000044,002,P004,2025_Jan_18_1423,CategoryLocalizer,2021.2.3,59.92441134661594,
15.8,16.0,5,0.0,Stimuli\Blank.png,0,0,0,8,8,8,,,,,,,,,,,,,15.81286159999945,0.012861599999450135,5,0.16171480000048177,68.39676690000124,68.39676690000124,68.39676690000124,68.39676690000124,68.39676690000124,68.39676690000124,68.39676690000124,68.39676690000124,002,P004,2025_Jan_18_1423,CategoryLocalizer,2021.2.3,59.92441134661594,
16.0,16.8,1,0.75,Stimuli\ImageFiles-Set2\Objects\Object_Pepper_00001.png,0,0,0,9,9,9,,,,,,,,,,,,,16.01333099999829,0.013330999998288462,None,,68.6136230000011,68.6136230000011,68.6136230000011,68.6136230000011,68.6136230000011,68.6136230000011,68.6136230000011,68.6136230000011,002,P004,2025_Jan_18_1423,CategoryLocalizer,2021.2.3,59.92441134661594,
16.8,17.0,5,0.0,Stimuli\Blank.png,0,0,0,10,10,10,,,,,,,,,,,,,16.831917899999098,0.03191789999909744,None,,69.43104890000177,69.43104890000177,69.43104890000177,69.43104890000177,69.43104890000177,69.43104890000177,69.43104890000177,69.43104890000177,002,P004,2025_Jan_18_1423,CategoryLocalizer,2021.2.3,59.92441134661594,
17.0,17.8,1,0.75,Stimuli\ImageFiles-Set2\Objects\Object_Coffee_00001.png,0,0,0,11,11,11,,,,,,,,,,,,,17.030604599996877,0.03060459999687737,None,,69.61448640000162,69.61448640000162,69.61448640000162,69.61448640000162,69.61448640000162,69.61448640000162,69.61448640000162,69.61448640000162,002,P004,2025_Jan_18_1423,CategoryLocalizer,2021.2.3,59.92441134661594,
17.8,18.0,5,0.0,Stimuli\Blank.png,0,0,0,12,12,12,,,,,,,,,,,,,17.814495899998292,0.01449589999829115,5,0.15972320000219042,70.39859870000146,70.39859870000146,70.39859870000146,70.39859870000146,70.39859870000146,70.39859870000146,70.39859870000146,70.39859870000146,002,P004,2025_Jan_18_1423,CategoryLocalizer,2021.2.3,59.92441134661594,
18.0,18.8,1,0.75,Stimuli\ImageFiles-Set2\Objects\Object_Champagne_00001.png,0,0,0,13,13,13,,,,,,,,,,,,,18.015671699999075,0.015671699999074917,None,,70.59872700000051,70.59872700000051,70.59872700000051,70.59872700000051,70.59872700000051,70.59872700000051,70.59872700000051,70.59872700000051,002,P004,2025_Jan_18_1423,CategoryLocalizer,2021.2.3,59.92441134661594,
18.8,19.0,5,0.0,Stimuli\Blank.png,0,0,0,14,14,14,,,,,,,,,,,,,18.79897599999822,-0.0010240000017809336,None,,71.38273499999923,71.38273499999923,71.38273499999923,71.38273499999923,71.38273499999923,71.38273499999923,71.38273499999923,71.38273499999923,002,P004,2025_Jan_18_1423,CategoryLocalizer,2021.2.3,59.92441134661594,
19.0,19.8,1,0.75,Stimuli\ImageFiles-Set2\Objects\Object_Toast_00001.png,0,0,0,15,15,15,,,,,,,,,,,,,18.99845110000024,-0.0015488999997614883,None,,71.582900100002,71.582900100002,71.582900100002,71.582900100002,71.582900100002,71.582900100002,71.582900100002,71.582900100002,002,P004,2025_Jan_18_1423,CategoryLocalizer,2021.2.3,59.92441134661594,
19.8,20.0,5,0.0,Stimuli\Blank.png,0,0,0,16,16,16,,,,,,,,,,,,,19.799591999999393,-0.00040800000060770003,None,,72.3836149000017,72.3836149000017,72.3836149000017,72.3836149000017,72.3836149000017,72.3836149000017,72.3836149000017,72.3836149000017,002,P004,2025_Jan_18_1423,CategoryLocalizer,2021.2.3,59.92441134661594,
20.0,20.8,1,0.75,Stimuli\ImageFiles-Set2\Objects\Object_Tomato_00001.png,0,0,0,17,17,17,,,,,,,,,,,,,20.00003619999916,3.619999915827066e-05,None,,72.60046900000088,72.60046900000088,72.60046900000088,72.60046900000088,72.60046900000088,72.60046900000088,72.60046900000088,72.60046900000088,002,P004,2025_Jan_18_1423,CategoryLocalizer,2021.2.3,59.92441134661594,
20.8,21.0,5,0.0,Stimuli\Blank.png,0,0,0,18,18,18,,,,,,,,,,,,,20.817308399997273,0.017308399997272517,None,,73.40118580000126,73.40118580000126,73.40118580000126,73.40118580000126,73.40118580000126,73.40118580000126,73.40118580000126,73.40118580000126,002,P004,2025_Jan_18_1423,CategoryLocalizer,2021.2.3,59.92441134661594,
21.0,21.8,1,0.75,Stimuli\ImageFiles-Set2\Objects\Object_Boot_00001.png,0,0,0,19,19,19,,,,,,,,,,,,,21.000557699997444,0.0005576999974437058,None,,73.58466590000171,73.58466590000171,73.58466590000171,73.58466590000171,73.58466590000171,73.58466590000171,73.58466590000171,73.58466590000171,002,P004,2025_Jan_18_1423,CategoryLocalizer,2021.2.3,59.92441134661594,
21.8,22.0,5,0.0,Stimuli\Blank.png,0,0,0,20,20,20,,,,,,,,,,,,,21.801423999997496,0.0014239999974954287,None,,74.3853749000009,74.3853749000009,74.3853749000009,74.3853749000009,74.3853749000009,74.3853749000009,74.3853749000009,74.3853749000009,002,P004,2025_Jan_18_1423,CategoryLocalizer,2021.2.3,59.92441134661594,
22.0,22.8,1,0.75,Stimuli\ImageFiles-Set2\Objects\Object_Couch_00001.png,0,0,0,21,21,21,,,,,,,,,,,,,22.001806399999623,0.001806399999622954,None,,74.58554840000215,74.58554840000215,74.58554840000215,74.58554840000215,74.58554840000215,74.58554840000215,74.58554840000215,74.58554840000215,002,P004,2025_Jan_18_1423,CategoryLocalizer,2021.2.3,59.92441134661594,
22.8,23.0,5,0.0,Stimuli\Blank.png,0,0,0,22,22,22,,,,,,,,,,,,,22.803247799998644,0.0032477999986433304,None,,75.38626400000066,75.38626400000066,75.38626400000066,75.38626400000066,75.38626400000066,75.38626400000066,75.38626400000066,75.38626400000066,002,P004,2025_Jan_18_1423,CategoryLocalizer,2021.2.3,59.92441134661594,
23.0,23.8,1,0.75,Stimuli\ImageFiles-Set2\Objects\Object_Fork_00001.png,0,0,0,23,23,23,,,,,,,,,,,,,23.00264099999913,0.0026409999991301447,None,,75.58641740000166,75.58641740000166,75.58641740000166,75.58641740000166,75.58641740000166,75.58641740000166,75.58641740000166,75.58641740000166,002,P004,2025_Jan_18_1423,CategoryLocalizer,2021.2.3,59.92441134661594,
23.8,24.0,5,0.0,Stimuli\Blank.png,0,0,0,24,24,24,,,,,,,,,,,,,23.803167199999734,0.003167199999733583,None,,76.38713840000128,76.38713840000128,76.38713840000128,76.38713840000128,76.38713840000128,76.38713840000128,76.38713840000128,76.38713840000128,002,P004,2025_Jan_18_1423,CategoryLocalizer,2021.2.3,59.92441134661594,
24.0,24.8,1,0.75,Stimuli\ImageFiles-Set2\Objects\Object_WashingMachine_00001.png,0,0,0,25,25,25,,,,,,,,,,,,,24.00357079999958,0.0035707999995793216,None,,76.60402670000258,76.60402670000258,76.60402670000258,76.60402670000258,76.60402670000258,76.60402670000258,76.60402670000258,76.60402670000258,002,P004,2025_Jan_18_1423,CategoryLocalizer,2021.2.3,59.92441134661594,
24.8,25.0,5,0.0,Stimuli\Blank.png,0,0,0,26,26,26,,,,,,,,,,,,,24.822102899997844,0.02210289999784365,None,,77.42138230000273,77.42138230000273,77.42138230000273,77.42138230000273,77.42138230000273,77.42138230000273,77.42138230000273,77.42138230000273,002,P004,2025_Jan_18_1423,CategoryLocalizer,2021.2.3,59.92441134661594,
25.0,25.8,1,0.75,Stimuli\ImageFiles-Set2\Objects\Object_Strawberry_00001.png,0,0,0,27,27,27,,,,,,,,,,,,,25.022519699999975,0.022519699999975273,None,,77.62163890000011,77.62163890000011,77.62163890000011,77.62163890000011,77.62163890000011,77.62163890000011,77.62163890000011,77.62163890000011,002,P004,2025_Jan_18_1423,CategoryLocalizer,2021.2.3,59.92441134661594,
25.8,26.0,5,0.0,Stimuli\Blank.png,0,0,0,28,28,28,,,,,,,,,,,,,25.82154559999981,0.021545599999807763,None,,78.4055780000017,78.4055780000017,78.4055780000017,78.4055780000017,78.4055780000017,78.4055780000017,78.4055780000017,78.4055780000017,002,P004,2025_Jan_18_1423,CategoryLocalizer,2021.2.3,59.92441134661594,
26.0,26.8,1,0.75,Stimuli\ImageFiles-Set2\Objects\Object_Flashlight_00001.png,0,0,0,29,29,29,,,,,,,,,,,,,26.00674209999852,0.006742099998518825,None,,78.60576199999923,78.60576199999923,78.60576199999923,78.60576199999923,78.60576199999923,78.60576199999923,78.60576199999923,78.60576199999923,002,P004,2025_Jan_18_1423,CategoryLocalizer,2021.2.3,59.92441134661594,
26.8,27.0,5,0.0,Stimuli\Blank.png,0,0,0,30,30,30,,,,,,,,,,,,,26.822826699997677,0.02282669999767606,None,,79.40646070000003,79.40646070000003,79.40646070000003,79.40646070000003,79.40646070000003,79.40646070000003,79.40646070000003,79.40646070000003,002,P004,2025_Jan_18_1423,CategoryLocalizer,2021.2.3,59.92441134661594,
27.0,27.8,1,0.75,Stimuli\ImageFiles-Set2\Objects\Object_Barrel_00001.png,0,0,0,31,31,31,,,,,,,,,,,,,27.008050399999775,0.008050399999774527,None,,79.60664490000272,79.60664490000272,79.60664490000272,79.60664490000272,79.60664490000272,79.60664490000272,79.60664490000272,79.60664490000272,002,P004,2025_Jan_18_1423,CategoryLocalizer,2021.2.3,59.92441134661594,
27.8,28.0,5,0.0,Stimuli\Blank.png,0,0,0,32,32,32,,,,,,,,,,,,,27.823246399999334,0.023246399999333534,5,0.1510006999997131,80.40734180000072,80.40734180000072,80.40734180000072,80.40734180000072,80.40734180000072,80.40734180000072,80.40734180000072,80.40734180000072,002,P004,2025_Jan_18_1423,CategoryLocalizer,2021.2.3,59.92441134661594,
28.0,28.8,2,0.75,Stimuli\ImageFiles-Set2\Bodies\Bodies_Kneeling_00004.png,0,0,0,33,33,33,,,,,,,,,,,,,28.006598899999517,0.006598899999517016,None,,80.59083989999999,80.59083989999999,80.59083989999999,80.59083989999999,80.59083989999999,80.59083989999999,80.59083989999999,80.59083989999999,002,P004,2025_Jan_18_1423,CategoryLocalizer,2021.2.3,59.92441134661594,
28.8,29.0,5,0.0,Stimuli\Blank.png,0,0,0,34,34,34,,,,,,,,,,,,,28.807520399997884,0.0075203999978832314,None,,81.39153850000002,81.39153850000002,81.39153850000002,81.39153850000002,81.39153850000002,81.39153850000002,81.39153850000002,81.39153850000002,002,P004,2025_Jan_18_1423,CategoryLocalizer,2021.2.3,59.92441134661594,
29.0,29.8,2,0.75,Stimuli\ImageFiles-Set2\Bodies\Bodies_Running_00001.png,0,0,0,35,35,35,,,,,,,,,,,,,29.00808369999868,0.00808369999867864,None,,81.60841000000073,81.60841000000073,81.60841000000073,81.60841000000073,81.60841000000073,81.60841000000073,81.60841000000073,81.60841000000073,002,P004,2025_Jan_18_1423,CategoryLocalizer,2021.2.3,59.92441134661594,
29.8,30.0,5,0.0,Stimuli\Blank.png,0,0,0,36,36,36,,,,,,,,,,,,,29.826524199997948,0.026524199997947306,5,0.1325513999981922,82.42580129999988,82.42580129999988,82.42580129999988,82.42580129999988,82.42580129999988,82.42580129999988,82.42580129999988,82.42580129999988,002,P004,2025_Jan_18_1423,CategoryLocalizer,2021.2.3,59.92441134661594,
30.0,30.8,2,0.75,Stimuli\ImageFiles-Set2\Bodies\Bodies_Standing_00002.png,0,0,0,37,37,37,,,,,,,,,,,,,30.027856599997904,0.027856599997903686,None,,82.62600600000223,82.62600600000223,82.62600600000223,82.62600600000223,82.62600600000223,82.62600600000223,82.62600600000223,82.62600600000223,002,P004,2025_Jan_18_1423,CategoryLocalizer,2021.2.3,59.92441134661594,
30.8,31.0,5,0.0,Stimuli\Blank.png,0,0,0,38,38,38,,,,,,,,,,,,,30.82667229999788,0.026672299997880344,None,,83.40999920000104,83.40999920000104,83.40999920000104,83.40999920000104,83.40999920000104,83.40999920000104,83.40999920000104,83.40999920000104,002,P004,2025_Jan_18_1423,CategoryLocalizer,2021.2.3,59.92441134661594,
31.0,31.8,2,0.75,Stimuli\ImageFiles-Set2\Bodies\Bodies_Standing_00002.png,1,1,0,39,39,39,,,,,,,,,,,,,31.010183700000198,0.01018370000019786,4,0.6447713999987172,83.593493700002,83.593493700002,83.593493700002,83.593493700002,83.593493700002,83.593493700002,83.593493700002,83.593493700002,002,P004,2025_Jan_18_1423,CategoryLocalizer,2021.2.3,59.92441134661594,
31.8,32.0,5,0.0,Stimuli\Blank.png,0,0,0,40,40,40,,,,,,,,,,,,,31.81258319999688,0.012583199996878847,5,0.1473342000026605,84.41088980000131,84.41088980000131,84.41088980000131,84.41088980000131,84.41088980000131,84.41088980000131,84.41088980000131,84.41088980000131,002,P004,2025_Jan_18_1423,CategoryLocalizer,2021.2.3,59.92441134661594,
32.0,32.8,2,0.75,Stimuli\ImageFiles-Set2\Bodies\Bodies_SittingFloor_00006.png,0,0,0,41,41,41,,,,,,,,,,,,,32.02710200000001,0.027102000000013504,None,,84.627749700001,84.627749700001,84.627749700001,84.627749700001,84.627749700001,84.627749700001,84.627749700001,84.627749700001,002,P004,2025_Jan_18_1423,CategoryLocalizer,2021.2.3,59.92441134661594,
32.8,33.0,5,0.0,Stimuli\Blank.png,0,0,0,42,42,42,,,,,,,,,,,,,32.827891799999634,0.027891799999636646,None,,85.41174500000125,85.41174500000125,85.41174500000125,85.41174500000125,85.41174500000125,85.41174500000125,85.41174500000125,85.41174500000125,002,P004,2025_Jan_18_1423,CategoryLocalizer,2021.2.3,59.92441134661594,
33.0,33.8,2,0.75,Stimuli\ImageFiles-Set2\Bodies\Bodies_SittingFloor_00001.png,0,0,0,43,43,43,,,,,,,,,,,,,33.011301899998216,0.011301899998215958,None,,85.59523919999992,85.59523919999992,85.59523919999992,85.59523919999992,85.59523919999992,85.59523919999992,85.59523919999992,85.59523919999992,002,P004,2025_Jan_18_1423,CategoryLocalizer,2021.2.3,59.92441134661594,
33.8,34.0,5,0.0,Stimuli\Blank.png,0,0,0,44,44,44,,,,,,,,,,,,,33.81265100000019,0.012651000000190038,5,0.16245569999955478,86.39595480000207,86.39595480000207,86.39595480000207,86.39595480000207,86.39595480000207,86.39595480000207,86.39595480000207,86.39595480000207,002,P004,2025_Jan_18_1423,CategoryLocalizer,2021.2.3,59.92441134661594,
34.0,34.8,2,0.75,Stimuli\ImageFiles-Set2\Bodies\Bodies_Crawling_00007.png,0,0,0,45,45,45,,,,,,,,,,,,,34.01156289999926,0.0115628999992623,None,,86.59612330000164,86.59612330000164,86.59612330000164,86.59612330000164,86.59612330000164,86.59612330000164,86.59612330000164,86.59612330000164,002,P004,2025_Jan_18_1423,CategoryLocalizer,2021.2.3,59.92441134661594,
34.8,35.0,5,0.0,Stimuli\Blank.png,0,0,0,46,46,46,,,,,,,,,,,,,34.81320979999873,0.013209799998733729,None,,87.39681930000006,87.39681930000006,87.39681930000006,87.39681930000006,87.39681930000006,87.39681930000006,87.39681930000006,87.39681930000006,002,P004,2025_Jan_18_1423,CategoryLocalizer,2021.2.3,59.92441134661594,
35.0,35.8,2,0.75,Stimuli\ImageFiles-Set2\Bodies\Bodies_Running_00003.png,0,0,0,47,47,47,,,,,,,,,,,,,35.01277689999915,0.012776899999153102,None,,87.59699150000233,87.59699150000233,87.59699150000233,87.59699150000233,87.59699150000233,87.59699150000233,87.59699150000233,87.59699150000233,002,P004,2025_Jan_18_1423,CategoryLocalizer,2021.2.3,59.92441134661594,
35.8,36.0,5,0.0,Stimuli\Blank.png,0,0,0,48,48,48,,,,,,,,,,,,,35.81350069999826,0.013500699998260757,5,0.16067159999875003,88.39770670000144,88.39770670000144,88.39770670000144,88.39770670000144,88.39770670000144,88.39770670000144,88.39770670000144,88.39770670000144,002,P004,2025_Jan_18_1423,CategoryLocalizer,2021.2.3,59.92441134661594,
36.0,36.8,2,0.75,Stimuli\ImageFiles-Set2\Bodies\Bodies_SittingStretch_00003.png,0,0,0,49,49,49,,,,,,,,,,,,,36.01424749999933,0.014247499999328284,None,,88.6145843000013,88.6145843000013,88.6145843000013,88.6145843000013,88.6145843000013,88.6145843000013,88.6145843000013,88.6145843000013,002,P004,2025_Jan_18_1423,CategoryLocalizer,2021.2.3,59.92441134661594,
36.8,37.0,5,0.0,Stimuli\Blank.png,0,0,0,50,50,50,,,,,,,,,,,,,36.83149049999702,0.03149049999701958,None,,89.41529380000065,89.41529380000065,89.41529380000065,89.41529380000065,89.41529380000065,89.41529380000065,89.41529380000065,89.41529380000065,002,P004,2025_Jan_18_1423,CategoryLocalizer,2021.2.3,59.92441134661594,
37.0,37.8,2,0.75,Stimuli\ImageFiles-Set2\Bodies\Bodies_Jumping_00007.png,0,0,0,51,51,51,,,,,,,,,,,,,37.01448719999826,0.014487199998256983,None,,89.59876219999933,89.59876219999933,89.59876219999933,89.59876219999933,89.59876219999933,89.59876219999933,89.59876219999933,89.59876219999933,002,P004,2025_Jan_18_1423,CategoryLocalizer,2021.2.3,59.92441134661594,
37.8,38.0,5,0.0,Stimuli\Blank.png,0,0,0,52,52,52,,,,,,,,,,,,,37.81701939999766,0.017019399997664664,5,0.14209109999865177,90.4161735000016,90.4161735000016,90.4161735000016,90.4161735000016,90.4161735000016,90.4161735000016,90.4161735000016,90.4161735000016,002,P004,2025_Jan_18_1423,CategoryLocalizer,2021.2.3,59.92441134661594,
38.0,38.8,2,0.75,Stimuli\ImageFiles-Set2\Bodies\Bodies_Crawling_00004.png,0,0,0,53,53,53,,,,,,,,,,,,,38.01572899999883,0.01572899999882793,None,,90.59964350000155,90.59964350000155,90.59964350000155,90.59964350000155,90.59964350000155,90.59964350000155,90.59964350000155,90.59964350000155,002,P004,2025_Jan_18_1423,CategoryLocalizer,2021.2.3,59.92441134661594,
38.8,39.0,5,0.0,Stimuli\Blank.png,0,0,0,54,54,54,,,,,,,,,,,,,38.800151799998275,0.00015179999827807933,None,,91.38368080000146,91.38368080000146,91.38368080000146,91.38368080000146,91.38368080000146,91.38368080000146,91.38368080000146,91.38368080000146,002,P004,2025_Jan_18_1423,CategoryLocalizer,2021.2.3,59.92441134661594,
39.0,39.8,2,0.75,Stimuli\ImageFiles-Set2\Bodies\Bodies_Kicking_00001.png,0,0,0,55,55,55,,,,,,,,,,,,,39.00183569999717,0.0018356999971729238,None,,91.60052500000165,91.60052500000165,91.60052500000165,91.60052500000165,91.60052500000165,91.60052500000165,91.60052500000165,91.60052500000165,002,P004,2025_Jan_18_1423,CategoryLocalizer,2021.2.3,59.92441134661594,
39.8,40.0,5,0.0,Stimuli\Blank.png,0,0,0,56,56,56,,,,,,,,,,,,,39.81740609999906,0.017406099999064395,None,,92.40124400000059,92.40124400000059,92.40124400000059,92.40124400000059,92.40124400000059,92.40124400000059,92.40124400000059,92.40124400000059,002,P004,2025_Jan_18_1423,CategoryLocalizer,2021.2.3,59.92441134661594,
40.0,40.8,2,0.75,Stimuli\ImageFiles-Set2\Bodies\Bodies_Standing_00006.png,0,0,0,57,57,57,,,,,,,,,,,,,40.00047899999845,0.00047899999844958074,None,,92.58472930000062,92.58472930000062,92.58472930000062,92.58472930000062,92.58472930000062,92.58472930000062,92.58472930000062,92.58472930000062,002,P004,2025_Jan_18_1423,CategoryLocalizer,2021.2.3,59.92441134661594,
40.8,41.0,5,0.0,Stimuli\Blank.png,0,0,0,58,58,58,,,,,,,,,,,,,40.802111099998,0.0021110999980038514,None,,93.3854339999998,93.3854339999998,93.3854339999998,93.3854339999998,93.3854339999998,93.3854339999998,93.3854339999998,93.3854339999998,002,P004,2025_Jan_18_1423,CategoryLocalizer,2021.2.3,59.92441134661594,
41.0,41.8,2,0.75,Stimuli\ImageFiles-Set2\Bodies\Bodies_Running_00002.png,1,1,0,59,59,59,,,,,,,,,,,,,41.001386699997965,0.0013866999979654793,4,0.3116035999992164,93.58560330000182,93.58560330000182,93.58560330000182,93.58560330000182,93.58560330000182,93.58560330000182,93.58560330000182,93.58560330000182,002,P004,2025_Jan_18_1423,CategoryLocalizer,2021.2.3,59.92441134661594,
41.8,42.0,5,0.0,Stimuli\Blank.png,0,0,0,60,60,60,,,,,,,,,,,,,41.80278139999791,0.002781399997914491,None,,94.38631870000245,94.38631870000245,94.38631870000245,94.38631870000245,94.38631870000245,94.38631870000245,94.38631870000245,94.38631870000245,002,P004,2025_Jan_18_1423,CategoryLocalizer,2021.2.3,59.92441134661594,
42.0,42.8,2,0.75,Stimuli\ImageFiles-Set2\Bodies\Bodies_Kneeling_00002.png,0,0,0,61,61,61,,,,,,,,,,,,,42.00263629999972,0.002636299999721814,None,,94.5864610000026,94.5864610000026,94.5864610000026,94.5864610000026,94.5864610000026,94.5864610000026,94.5864610000026,94.5864610000026,002,P004,2025_Jan_18_1423,CategoryLocalizer,2021.2.3,59.92441134661594,
42.8,43.0,5,0.0,Stimuli\Blank.png,0,0,0,62,62,62,,,,,,,,,,,,,42.80364869999903,0.003648699999033056,None,,95.3871962000012,95.3871962000012,95.3871962000012,95.3871962000012,95.3871962000012,95.3871962000012,95.3871962000012,95.3871962000012,002,P004,2025_Jan_18_1423,CategoryLocalizer,2021.2.3,59.92441134661594,
43.0,43.8,2,0.75,Stimuli\ImageFiles-Set2\Bodies\Bodies_Kneeling_00002.png,0,0,0,63,63,63,,,,,,,,,,,,,43.00338319999719,0.0033831999971880578,4,0.44523539999863715,95.60407459999988,95.60407459999988,95.60407459999988,95.60407459999988,95.60407459999988,95.60407459999988,95.60407459999988,95.60407459999988,002,P004,2025_Jan_18_1423,CategoryLocalizer,2021.2.3,59.92441134661594,
43.8,44.0,5,0.0,Stimuli\Blank.png,0,0,0,64,64,64,,,,,,,,,,,,,43.82216899999912,0.02216899999912414,5,0.13674100000207545,96.42145170000003,96.42145170000003,96.42145170000003,96.42145170000003,96.42145170000003,96.42145170000003,96.42145170000003,96.42145170000003,002,P004,2025_Jan_18_1423,CategoryLocalizer,2021.2.3,59.92441134661594,
44.0,44.8,3,0.75,Stimuli\ImageFiles-Set2\Faces\Face_00074.png,0,0,0,65,65,65,,,,,,,,,,,,,44.02357779999875,0.02357779999874765,None,,96.63829540000006,96.63829540000006,96.63829540000006,96.63829540000006,96.63829540000006,96.63829540000006,96.63829540000006,96.63829540000006,002,P004,2025_Jan_18_1423,CategoryLocalizer,2021.2.3,59.92441134661594,
44.8,45.0,5,0.0,Stimuli\Blank.png,0,0,0,66,66,66,,,,,,,,,,,,,44.837992299999314,0.03799229999931697,None,,97.42231850000098,97.42231850000098,97.42231850000098,97.42231850000098,97.42231850000098,97.42231850000098,97.42231850000098,97.42231850000098,002,P004,2025_Jan_18_1423,CategoryLocalizer,2021.2.3,59.92441134661594,
45.0,45.8,3,0.75,Stimuli\ImageFiles-Set2\Faces\Face_00040.png,0,0,0,67,67,67,,,,,,,,,,,,,45.00653869999951,0.006538699999509845,None,,97.60583939999924,97.60583939999924,97.60583939999924,97.60583939999924,97.60583939999924,97.60583939999924,97.60583939999924,97.60583939999924,002,P004,2025_Jan_18_1423,CategoryLocalizer,2021.2.3,59.92441134661594,
45.8,46.0,5,0.0,Stimuli\Blank.png,0,0,0,68,68,68,,,,,,,,,,,,,45.82310030000008,0.02310030000008112,None,,98.40652240000054,98.40652240000054,98.40652240000054,98.40652240000054,98.40652240000054,98.40652240000054,98.40652240000054,98.40652240000054,002,P004,2025_Jan_18_1423,CategoryLocalizer,2021.2.3,59.92441134661594,
46.0,46.8,3,0.75,Stimuli\ImageFiles-Set2\Faces\Face_00046.png,0,0,0,69,69,69,,,,,,,,,,,,,46.00652169999739,0.006521699997392716,None,,98.60669190000044,98.60669190000044,98.60669190000044,98.60669190000044,98.60669190000044,98.60669190000044,98.60669190000044,98.60669190000044,002,P004,2025_Jan_18_1423,CategoryLocalizer,2021.2.3,59.92441134661594,
46.8,47.0,5,0.0,Stimuli\Blank.png,0,0,0,70,70,70,,,,,,,,,,,,,46.82350769999903,0.023507699999029796,None,,99.40740240000014,99.40740240000014,99.40740240000014,99.40740240000014,99.40740240000014,99.40740240000014,99.40740240000014,99.40740240000014,002,P004,2025_Jan_18_1423,CategoryLocalizer,2021.2.3,59.92441134661594,
47.0,47.8,3,0.75,Stimuli\ImageFiles-Set2\Faces\Face_00048.png,0,0,0,71,71,71,,,,,,,,,,,,,47.007631099997525,0.0076310999975248706,None,,99.60757759999979,99.60757759999979,99.60757759999979,99.60757759999979,99.60757759999979,99.60757759999979,99.60757759999979,99.60757759999979,002,P004,2025_Jan_18_1423,CategoryLocalizer,2021.2.3,59.92441134661594,
47.8,48.0,5,0.0,Stimuli\Blank.png,0,0,0,72,72,72,,,,,,,,,,,,,47.82536450000043,0.02536450000043544,5,0.149883599999157,100.40830140000253,100.40830140000253,100.40830140000253,100.40830140000253,100.40830140000253,100.40830140000253,100.40830140000253,100.40830140000253,002,P004,2025_Jan_18_1423,CategoryLocalizer,2021.2.3,59.92441134661594,
48.0,48.8,3,0.75,Stimuli\ImageFiles-Set2\Faces\Face_00100.png,0,0,0,73,73,73,,,,,,,,,,,,,48.0082567999998,0.008256799999799114,None,,100.60848769999939,100.60848769999939,100.60848769999939,100.60848769999939,100.60848769999939,100.60848769999939,100.60848769999939,100.60848769999939,002,P004,2025_Jan_18_1423,CategoryLocalizer,2021.2.3,59.92441134661594,
48.8,49.0,5,0.0,Stimuli\Blank.png,0,0,0,74,74,74,,,,,,,,,,,,,48.82666789999712,0.026667899997121935,None,,101.42585429999963,101.42585429999963,101.42585429999963,101.42585429999963,101.42585429999963,101.42585429999963,101.42585429999963,101.42585429999963,002,P004,2025_Jan_18_1423,CategoryLocalizer,2021.2.3,59.92441134661594,
49.0,49.8,3,0.75,Stimuli\ImageFiles-Set2\Faces\Face_00076.png,0,0,0,75,75,75,,,,,,,,,,,,,49.0254230999999,0.025423099999898113,None,,101.60932999999932,101.60932999999932,101.60932999999932,101.60932999999932,101.60932999999932,101.60932999999932,101.60932999999932,101.60932999999932,002,P004,2025_Jan_18_1423,CategoryLocalizer,2021.2.3,59.92441134661594,
49.8,50.0,5,0.0,Stimuli\Blank.png,0,0,0,76,76,76,,,,,,,,,,,,,49.80933939999886,0.009339399998864906,5,0.16483460000017658,102.39336729999923,102.39336729999923,102.39336729999923,102.39336729999923,102.39336729999923,102.39336729999923,102.39336729999923,102.39336729999923,002,P004,2025_Jan_18_1423,CategoryLocalizer,2021.2.3,59.92441134661594,
50.0,50.8,3,0.75,Stimuli\ImageFiles-Set2\Faces\Face_00038.png,0,0,0,77,77,77,,,,,,,,,,,,,50.009773899997526,0.009773899997526314,None,,102.59353280000141,102.59353280000141,102.59353280000141,102.59353280000141,102.59353280000141,102.59353280000141,102.59353280000141,102.59353280000141,002,P004,2025_Jan_18_1423,CategoryLocalizer,2021.2.3,59.92441134661594,
50.8,51.0,5,0.0,Stimuli\Blank.png,0,0,0,78,78,78,,,,,,,,,,,,,50.811147399999754,0.011147399999757113,None,,103.39423840000018,103.39423840000018,103.39423840000018,103.39423840000018,103.39423840000018,103.39423840000018,103.39423840000018,103.39423840000018,002,P004,2025_Jan_18_1423,CategoryLocalizer,2021.2.3,59.92441134661594,
51.0,51.8,3,0.75,Stimuli\ImageFiles-Set2\Faces\Face_00104.png,0,0,0,79,79,79,,,,,,,,,,,,,51.012324299998,0.012324299997999333,None,,103.61109910000232,103.61109910000232,103.61109910000232,103.61109910000232,103.61109910000232,103.61109910000232,103.61109910000232,103.61109910000232,002,P004,2025_Jan_18_1423,CategoryLocalizer,2021.2.3,59.92441134661594,
51.8,52.0,5,0.0,Stimuli\Blank.png,0,0,0,80,80,80,,,,,,,,,,,,,51.82826269999714,0.028262699997142704,5,0.14654410000002827,104.41179650000049,104.41179650000049,104.41179650000049,104.41179650000049,104.41179650000049,104.41179650000049,104.41179650000049,104.41179650000049,002,P004,2025_Jan_18_1423,CategoryLocalizer,2021.2.3,59.92441134661594,
52.0,52.8,3,0.75,Stimuli\ImageFiles-Set2\Faces\Face_00086.png,0,0,0,81,81,81,,,,,,,,,,,,,52.01097479999953,0.01097479999953066,None,,104.59530939999968,104.59530939999968,104.59530939999968,104.59530939999968,104.59530939999968,104.59530939999968,104.59530939999968,104.59530939999968,002,P004,2025_Jan_18_1423,CategoryLocalizer,2021.2.3,59.92441134661594,
52.8,53.0,5,0.0,Stimuli\Blank.png,0,0,0,82,82,82,,,,,,,,,,,,,52.8125,0.012500000000002842,None,,105.39601880000191,105.39601880000191,105.39601880000191,105.39601880000191,105.39601880000191,105.39601880000191,105.39601880000191,105.39601880000191,002,P004,2025_Jan_18_1423,CategoryLocalizer,2021.2.3,59.92441134661594,
53.0,53.8,3,0.75,Stimuli\ImageFiles-Set2\Faces\Face_00112.png,0,0,0,83,83,83,,,,,,,,,,,,,53.01244260000021,0.012442600000213133,None,,105.6128776000005,105.6128776000005,105.6128776000005,105.6128776000005,105.6128776000005,105.6128776000005,105.6128776000005,105.6128776000005,002,P004,2025_Jan_18_1423,CategoryLocalizer,2021.2.3,59.92441134661594,
53.8,54.0,5,0.0,Stimuli\Blank.png,0,0,0,84,84,84,,,,,,,,,,,,,53.82948380000016,0.029483800000164706,5,0.14476859999922453,106.41356280000036,106.41356280000036,106.41356280000036,106.41356280000036,106.41356280000036,106.41356280000036,106.41356280000036,106.41356280000036,002,P004,2025_Jan_18_1423,CategoryLocalizer,2021.2.3,59.92441134661594,
54.0,54.8,3,0.75,Stimuli\ImageFiles-Set2\Faces\Face_00015.png,0,0,0,85,85,85,,,,,,,,,,,,,54.01294219999909,0.012942199999088189,None,,106.61376200000086,106.61376200000086,106.61376200000086,106.61376200000086,106.61376200000086,106.61376200000086,106.61376200000086,106.61376200000086,002,P004,2025_Jan_18_1423,CategoryLocalizer,2021.2.3,59.92441134661594,
54.8,55.0,5,0.0,Stimuli\Blank.png,0,0,0,86,86,86,,,,,,,,,,,,,54.83251349999773,0.032513499997733675,None,,107.43115530000068,107.43115530000068,107.43115530000068,107.43115530000068,107.43115530000068,107.43115530000068,107.43115530000068,107.43115530000068,002,P004,2025_Jan_18_1423,CategoryLocalizer,2021.2.3,59.92441134661594,
55.0,55.8,3,0.75,Stimuli\ImageFiles-Set2\Faces\Face_00015.png,1,1,0,87,87,87,,,,,,,,,,,,,55.01430409999739,0.01430409999738913,4,0.5264715000012075,107.59793960000025,107.59793960000025,107.59793960000025,107.59793960000025,107.59793960000025,107.59793960000025,107.59793960000025,107.59793960000025,002,P004,2025_Jan_18_1423,CategoryLocalizer,2021.2.3,59.92441134661594,
55.8,56.0,5,0.0,Stimuli\Blank.png,0,0,0,88,88,88,,,,,,,,,,,,,55.81416109999918,0.014161099999185467,5,0.15955620000022464,108.39864410000155,108.39864410000155,108.39864410000155,108.39864410000155,108.39864410000155,108.39864410000155,108.39864410000155,108.39864410000155,002,P004,2025_Jan_18_1423,CategoryLocalizer,2021.2.3,59.92441134661594,
56.0,56.8,3,0.75,Stimuli\ImageFiles-Set2\Faces\Face_00026.png,0,0,0,89,89,89,,,,,,,,,,,,,56.01458389999971,0.014583899999706773,None,,108.59881990000213,108.59881990000213,108.59881990000213,108.59881990000213,108.59881990000213,108.59881990000213,108.59881990000213,108.59881990000213,002,P004,2025_Jan_18_1423,CategoryLocalizer,2021.2.3,59.92441134661594,
56.8,57.0,5,0.0,Stimuli\Blank.png,0,0,0,90,90,90,,,,,,,,,,,,,56.815381999997044,0.015381999997046591,None,,109.39952230000199,109.39952230000199,109.39952230000199,109.39952230000199,109.39952230000199,109.39952230000199,109.39952230000199,109.39952230000199,002,P004,2025_Jan_18_1423,CategoryLocalizer,2021.2.3,59.92441134661594,
57.0,57.8,3,0.75,Stimuli\ImageFiles-Set2\Faces\Face_00064.png,0,0,0,91,91,91,,,,,,,,,,,,,57.017553800000314,0.017553800000314368,None,,109.61638479999965,109.61638479999965,109.61638479999965,109.61638479999965,109.61638479999965,109.61638479999965,109.61638479999965,109.61638479999965,002,P004,2025_Jan_18_1423,CategoryLocalizer,2021.2.3,59.92441134661594,
57.8,58.0,5,0.0,Stimuli\Blank.png,0,0,0,92,92,92,,,,,,,,,,,,,57.817135399996914,0.017135399996917045,None,,110.40042589999939,110.40042589999939,110.40042589999939,110.40042589999939,110.40042589999939,110.40042589999939,110.40042589999939,110.40042589999939,002,P004,2025_Jan_18_1423,CategoryLocalizer,2021.2.3,59.92441134661594,
58.0,58.8,3,0.75,Stimuli\ImageFiles-Set2\Faces\Face_00092.png,0,0,0,93,93,93,,,,,,,,,,,,,58.00077549999696,0.0007754999969620258,None,,110.60057779999988,110.60057779999988,110.60057779999988,110.60057779999988,110.60057779999988,110.60057779999988,110.60057779999988,110.60057779999988,002,P004,2025_Jan_18_1423,CategoryLocalizer,2021.2.3,59.92441134661594,
58.8,59.0,5,0.0,Stimuli\Blank.png,0,0,0,94,94,94,,,,,,,,,,,,,58.81749529999797,0.017495299997975167,None,,111.4013057000011,111.4013057000011,111.4013057000011,111.4013057000011,111.4013057000011,111.4013057000011,111.4013057000011,111.4013057000011,002,P004,2025_Jan_18_1423,CategoryLocalizer,2021.2.3,59.92441134661594,
59.0,59.8,3,0.75,Stimuli\ImageFiles-Set2\Faces\Face_00054.png,0,0,0,95,95,95,,,,,,,,,,,,,59.00110709999717,0.0011070999971707352,None,,111.60145740000007,111.60145740000007,111.60145740000007,111.60145740000007,111.60145740000007,111.60145740000007,111.60145740000007,111.60145740000007,002,P004,2025_Jan_18_1423,CategoryLocalizer,2021.2.3,59.92441134661594,
59.8,60.0,5,0.0,Stimuli\Blank.png,0,0,0,96,96,96,,,,,,,,,,,,,59.81847849999758,0.018478499997584663,None,,112.40216900000087,112.40216900000087,112.40216900000087,112.40216900000087,112.40216900000087,112.40216900000087,112.40216900000087,112.40216900000087,002,P004,2025_Jan_18_1423,CategoryLocalizer,2021.2.3,59.92441134661594,
60.0,60.8,4,0.75,Stimuli\ImageFiles-Set2\Scenes\Scenes_082.png,0,0,0,97,97,97,,,,,,,,,,,,,60.00189870000031,0.0018987000003107823,None,,112.5856633000003,112.5856633000003,112.5856633000003,112.5856633000003,112.5856633000003,112.5856633000003,112.5856633000003,112.5856633000003,002,P004,2025_Jan_18_1423,CategoryLocalizer,2021.2.3,59.92441134661594,
60.8,61.0,5,0.0,Stimuli\Blank.png,0,0,0,98,98,98,,,,,,,,,,,,,60.80260559999806,0.0026055999980627575,None,,113.3863745000017,113.3863745000017,113.3863745000017,113.3863745000017,113.3863745000017,113.3863745000017,113.3863745000017,113.3863745000017,002,P004,2025_Jan_18_1423,CategoryLocalizer,2021.2.3,59.92441134661594,
61.0,61.8,4,0.75,Stimuli\ImageFiles-Set2\Scenes\Scenes_094.png,0,0,0,99,99,99,,,,,,,,,,,,,61.00266379999812,0.002663799998117611,None,,113.60324179999952,113.60324179999952,113.60324179999952,113.60324179999952,113.60324179999952,113.60324179999952,113.60324179999952,113.60324179999952,002,P004,2025_Jan_18_1423,CategoryLocalizer,2021.2.3,59.92441134661594,
61.8,62.0,5,0.0,Stimuli\Blank.png,0,0,0,100,100,100,,,,,,,,,,,,,61.821885499997734,0.0218854999977367,5,0.13757279999845196,114.42063240000061,114.42063240000061,114.42063240000061,114.42063240000061,114.42063240000061,114.42063240000061,114.42063240000061,114.42063240000061,002,P004,2025_Jan_18_1423,CategoryLocalizer,2021.2.3,59.92441134661594,
62.0,62.8,4,0.75,Stimuli\ImageFiles-Set2\Scenes\Scenes_086.png,0,0,0,101,101,101,,,,,,,,,,,,,62.022560800000065,0.022560800000064773,None,,114.62080710000009,114.62080710000009,114.62080710000009,114.62080710000009,114.62080710000009,114.62080710000009,114.62080710000009,114.62080710000009,002,P004,2025_Jan_18_1423,CategoryLocalizer,2021.2.3,59.92441134661594,
62.8,63.0,5,0.0,Stimuli\Blank.png,0,0,0,102,102,102,,,,,,,,,,,,,62.82048919999943,0.020489199999431662,None,,115.40481200000067,115.40481200000067,115.40481200000067,115.40481200000067,115.40481200000067,115.40481200000067,115.40481200000067,115.40481200000067,002,P004,2025_Jan_18_1423,CategoryLocalizer,2021.2.3,59.92441134661594,
63.0,63.8,4,0.75,Stimuli\ImageFiles-Set2\Scenes\Scenes_115.png,0,0,0,103,103,103,,,,,,,,,,,,,63.004021299999295,0.00402129999929457,None,,115.58827640000163,115.58827640000163,115.58827640000163,115.58827640000163,115.58827640000163,115.58827640000163,115.58827640000163,115.58827640000163,002,P004,2025_Jan_18_1423,CategoryLocalizer,2021.2.3,59.92441134661594,
63.8,64.0,5,0.0,Stimuli\Blank.png,0,0,0,104,104,104,,,,,,,,,,,,,63.80656479999743,0.006564799997434534,5,0.15245750000030966,116.40571400000044,116.40571400000044,116.40571400000044,116.40571400000044,116.40571400000044,116.40571400000044,116.40571400000044,116.40571400000044,002,P004,2025_Jan_18_1423,CategoryLocalizer,2021.2.3,59.92441134661594,
64.0,64.8,4,0.75,Stimuli\ImageFiles-Set2\Scenes\Scenes_109.png,0,0,0,105,105,105,,,,,,,,,,,,,64.02233949999936,0.02233949999936158,None,,116.62259890000132,116.62259890000132,116.62259890000132,116.62259890000132,116.62259890000132,116.62259890000132,116.62259890000132,116.62259890000132,002,P004,2025_Jan_18_1423,CategoryLocalizer,2021.2.3,59.92441134661594,
64.8,65.0,5,0.0,Stimuli\Blank.png,0,0,0,106,106,106,,,,,,,,,,,,,64.82212879999861,0.022128799998611726,None,,117.40656909999961,117.40656909999961,117.40656909999961,117.40656909999961,117.40656909999961,117.40656909999961,117.40656909999961,117.40656909999961,002,P004,2025_Jan_18_1423,CategoryLocalizer,2021.2.3,59.92441134661594,
65.0,65.8,4,0.75,Stimuli\ImageFiles-Set2\Scenes\Scenes_109.png,1,1,0,107,107,107,,,,,,,,,,,,,65.00614109999879,0.0061410999987856485,4,0.4463428999988537,117.60677800000121,117.60677800000121,117.60677800000121,117.60677800000121,117.60677800000121,117.60677800000121,117.60677800000121,117.60677800000121,002,P004,2025_Jan_18_1423,CategoryLocalizer,2021.2.3,59.92441134661594,
65.8,66.0,5,0.0,Stimuli\Blank.png,0,0,0,108,108,108,,,,,,,,,,,,,65.82335649999732,0.023356499997319702,5,0.15075589999833028,118.40745320000133,118.40745320000133,118.40745320000133,118.40745320000133,118.40745320000133,118.40745320000133,118.40745320000133,118.40745320000133,002,P004,2025_Jan_18_1423,CategoryLocalizer,2021.2.3,59.92441134661594,
66.0,66.8,4,0.75,Stimuli\ImageFiles-Set2\Scenes\Scenes_097.png,0,0,0,109,109,109,,,,,,,,,,,,,66.00676249999742,0.006762499997421401,None,,118.59094570000161,118.59094570000161,118.59094570000161,118.59094570000161,118.59094570000161,118.59094570000161,118.59094570000161,118.59094570000161,002,P004,2025_Jan_18_1423,CategoryLocalizer,2021.2.3,59.92441134661594,
66.8,67.0,5,0.0,Stimuli\Blank.png,0,0,0,110,110,110,,,,,,,,,,,,,66.8076923999979,0.007692399997907273,None,,119.39166169999953,119.39166169999953,119.39166169999953,119.39166169999953,119.39166169999953,119.39166169999953,119.39166169999953,119.39166169999953,002,P004,2025_Jan_18_1423,CategoryLocalizer,2021.2.3,59.92441134661594,
67.0,67.8,4,0.75,Stimuli\ImageFiles-Set2\Scenes\Scenes_104.png,0,0,0,111,111,111,,,,,,,,,,,,,67.00818459999937,0.008184599999367492,None,,119.59182630000214,119.59182630000214,119.59182630000214,119.59182630000214,119.59182630000214,119.59182630000214,119.59182630000214,119.59182630000214,002,P004,2025_Jan_18_1423,CategoryLocalizer,2021.2.3,59.92441134661594,
67.8,68.0,5,0.0,Stimuli\Blank.png,0,0,0,112,112,112,,,,,,,,,,,,,67.80903219999891,0.009032199998912915,5,0.165601600001537,120.39253570000074,120.39253570000074,120.39253570000074,120.39253570000074,120.39253570000074,120.39253570000074,120.39253570000074,120.39253570000074,002,P004,2025_Jan_18_1423,CategoryLocalizer,2021.2.3,59.92441134661594,
68.0,68.8,4,0.75,Stimuli\ImageFiles-Set2\Scenes\Scenes_102.png,0,0,0,113,113,113,,,,,,,,,,,,,68.0084915999978,0.008491599997796584,None,,120.59270830000241,120.59270830000241,120.59270830000241,120.59270830000241,120.59270830000241,120.59270830000241,120.59270830000241,120.59270830000241,002,P004,2025_Jan_18_1423,CategoryLocalizer,2021.2.3,59.92441134661594,
68.8,69.0,5,0.0,Stimuli\Blank.png,0,0,0,114,114,114,,,,,,,,,,,,,68.81162499999846,0.01162499999846034,None,,121.41012030000275,121.41012030000275,121.41012030000275,121.41012030000275,121.41012030000275,121.41012030000275,121.41012030000275,121.41012030000275,002,P004,2025_Jan_18_1423,CategoryLocalizer,2021.2.3,59.92441134661594,
69.0,69.8,4,0.75,Stimuli\ImageFiles-Set2\Scenes\Scenes_098.png,0,0,0,115,115,115,,,,,,,,,,,,,69.02632489999814,0.026324899998144247,None,,121.61027250000188,121.61027250000188,121.61027250000188,121.61027250000188,121.61027250000188,121.61027250000188,121.61027250000188,121.61027250000188,002,P004,2025_Jan_18_1423,CategoryLocalizer,2021.2.3,59.92441134661594,
69.8,70.0,5,0.0,Stimuli\Blank.png,0,0,0,116,116,116,,,,,,,,,,,,,69.81195569999909,0.011955699999091962,5,0.147133099999337,122.4109774000026,122.4109774000026,122.4109774000026,122.4109774000026,122.4109774000026,122.4109774000026,122.4109774000026,122.4109774000026,002,P004,2025_Jan_18_1423,CategoryLocalizer,2021.2.3,59.92441134661594,
70.0,70.8,4,0.75,Stimuli\ImageFiles-Set2\Scenes\Scenes_081.png,0,0,0,117,117,117,,,,,,,,,,,,,70.02694839999822,0.02694839999821852,None,,122.62783599999966,122.62783599999966,122.62783599999966,122.62783599999966,122.62783599999966,122.62783599999966,122.62783599999966,122.62783599999966,002,P004,2025_Jan_18_1423,CategoryLocalizer,2021.2.3,59.92441134661594,
70.8,71.0,5,0.0,Stimuli\Blank.png,0,0,0,118,118,118,,,,,,,,,,,,,70.82788029999938,0.027880299999381464,None,,123.41185620000033,123.41185620000033,123.41185620000033,123.41185620000033,123.41185620000033,123.41185620000033,123.41185620000033,123.41185620000033,002,P004,2025_Jan_18_1423,CategoryLocalizer,2021.2.3,59.92441134661594,
71.0,71.8,4,0.75,Stimuli\ImageFiles-Set2\Scenes\Scenes_114.png,1,1,0,119,119,119,,,,,,,,,,,,,71.01156799999808,0.011567999998078449,None,,123.61204080000243,123.61204080000243,123.61204080000243,123.61204080000243,123.61204080000243,123.61204080000243,123.61204080000243,123.61204080000243,002,P004,2025_Jan_18_1423,CategoryLocalizer,2021.2.3,59.92441134661594,
71.8,72.0,5,0.0,Stimuli\Blank.png,0,0,0,120,120,120,,,,,,,,,,,,,71.82910479999919,0.029104799999188913,5,0.14553759999762406,124.41273759999967,124.41273759999967,124.41273759999967,124.41273759999967,124.41273759999967,124.41273759999967,124.41273759999967,124.41273759999967,002,P004,2025_Jan_18_1423,CategoryLocalizer,2021.2.3,59.92441134661594,
72.0,72.8,4,0.75,Stimuli\ImageFiles-Set2\Scenes\Scenes_064.png,0,0,0,121,121,121,,,,,,,,,,,,,72.0124739999992,0.012473999999201624,None,,124.59624840000106,124.59624840000106,124.59624840000106,124.59624840000106,124.59624840000106,124.59624840000106,124.59624840000106,124.59624840000106,002,P004,2025_Jan_18_1423,CategoryLocalizer,2021.2.3,59.92441134661594,
72.8,73.0,5,0.0,Stimuli\Blank.png,0,0,0,122,122,122,,,,,,,,,,,,,72.81241199999931,0.012411999999315526,None,,125.39694389999931,125.39694389999931,125.39694389999931,125.39694389999931,125.39694389999931,125.39694389999931,125.39694389999931,125.39694389999931,002,P004,2025_Jan_18_1423,CategoryLocalizer,2021.2.3,59.92441134661594,
73.0,73.8,4,0.75,Stimuli\ImageFiles-Set2\Scenes\Scenes_064.png,0,0,0,123,123,123,,,,,,,,,,,,,73.01289929999984,0.012899299999844516,4,0.5262944999994943,125.61380230000213,125.61380230000213,125.61380230000213,125.61380230000213,125.61380230000213,125.61380230000213,125.61380230000213,125.61380230000213,002,P004,2025_Jan_18_1423,CategoryLocalizer,2021.2.3,59.92441134661594,
73.8,74.0,5,0.0,Stimuli\Blank.png,0,0,0,124,124,124,,,,,,,,,,,,,73.8325463000001,0.0325463000001065,5,0.1270528999993985,126.4312056000017,126.4312056000017,126.4312056000017,126.4312056000017,126.4312056000017,126.4312056000017,126.4312056000017,126.4312056000017,002,P004,2025_Jan_18_1423,CategoryLocalizer,2021.2.3,59.92441134661594,
74.0,74.8,4,0.75,Stimuli\ImageFiles-Set2\Scenes\Scenes_095.png,0,0,0,125,125,125,,,,,,,,,,,,,74.01379420000012,0.013794200000120327,None,,126.59801130000051,126.59801130000051,126.59801130000051,126.59801130000051,126.59801130000051,126.59801130000051,126.59801130000051,126.59801130000051,002,P004,2025_Jan_18_1423,CategoryLocalizer,2021.2.3,59.92441134661594,
74.8,75.0,5,0.0,Stimuli\Blank.png,0,0,0,126,126,126,,,,,,,,,,,,,74.81691599999976,0.01691599999976745,None,,127.41539380000177,127.41539380000177,127.41539380000177,127.41539380000177,127.41539380000177,127.41539380000177,127.41539380000177,127.41539380000177,002,P004,2025_Jan_18_1423,CategoryLocalizer,2021.2.3,59.92441134661594,
75.0,75.8,4,0.75,Stimuli\ImageFiles-Set2\Scenes\Scenes_063.png,0,0,0,127,127,127,,,,,,,,,,,,,75.0143379000001,0.01433790000010049,None,,127.59887350000281,127.59887350000281,127.59887350000281,127.59887350000281,127.59887350000281,127.59887350000281,127.59887350000281,127.59887350000281,002,P004,2025_Jan_18_1423,CategoryLocalizer,2021.2.3,59.92441134661594,
75.8,76.0,5,0.0,Stimuli\Blank.png,0,0,0,128,128,128,,,,,,,,,,,,,75.81762289999824,0.01762289999824418,5,0.14203970000016852,128.4162901000018,128.4162901000018,128.4162901000018,128.4162901000018,128.4162901000018,128.4162901000018,128.4162901000018,128.4162901000018,002,P004,2025_Jan_18_1423,CategoryLocalizer,2021.2.3,59.92441134661594,
76.0,88.0,0,0.0,Stimuli\Blank.png,0,0,0,129,129,129,,,,,,,,,,,,,76.01760459999787,0.0176045999978669,5,11.941622999998799,128.61644760000127,128.61644760000127,128.61644760000127,128.61644760000127,128.61644760000127,128.61644760000127,128.61644760000127,128.61644760000127,002,P004,2025_Jan_18_1423,CategoryLocalizer,2021.2.3,59.92441134661594,
88.0,88.8,3,0.75,Stimuli\ImageFiles-Set2\Faces\Face_00042.png,0,0,0,130,130,130,,,,,,,,,,,,,88.02635819999705,0.02635819999704836,None,,140.61034900000232,140.61034900000232,140.61034900000232,140.61034900000232,140.61034900000232,140.61034900000232,140.61034900000232,140.61034900000232,002,P004,2025_Jan_18_1423,CategoryLocalizer,2021.2.3,59.92441134661594,
88.8,89.0,5,0.0,Stimuli\Blank.png,0,0,0,131,131,131,,,,,,,,,,,,,88.8122798000004,0.012279800000399632,None,,141.41105249999964,141.41105249999964,141.41105249999964,141.41105249999964,141.41105249999964,141.41105249999964,141.41105249999964,141.41105249999964,002,P004,2025_Jan_18_1423,CategoryLocalizer,2021.2.3,59.92441134661594,
89.0,89.8,3,0.75,Stimuli\ImageFiles-Set2\Faces\Face_00102.png,0,0,0,132,132,132,,,,,,,,,,,,,89.02743969999938,0.0274396999993769,None,,141.6278878000012,141.6278878000012,141.6278878000012,141.6278878000012,141.6278878000012,141.6278878000012,141.6278878000012,141.6278878000012,002,P004,2025_Jan_18_1423,CategoryLocalizer,2021.2.3,59.92441134661594,
89.8,90.0,5,0.0,Stimuli\Blank.png,0,0,0,133,133,133,,,,,,,,,,,,,89.82782589999988,0.02782589999988261,5,0.14616789999854518,142.41191339999932,142.41191339999932,142.41191339999932,142.41191339999932,142.41191339999932,142.41191339999932,142.41191339999932,142.41191339999932,002,P004,2025_Jan_18_1423,CategoryLocalizer,2021.2.3,59.92441134661594,
90.0,90.8,3,0.75,Stimuli\ImageFiles-Set2\Faces\Face_00088.png,0,0,0,134,134,134,,,,,,,,,,,,,90.01138309999806,0.011383099998056423,None,,142.59541119999994,142.59541119999994,142.59541119999994,142.59541119999994,142.59541119999994,142.59541119999994,142.59541119999994,142.59541119999994,002,P004,2025_Jan_18_1423,CategoryLocalizer,2021.2.3,59.92441134661594,
90.8,91.0,5,0.0,Stimuli\Blank.png,0,0,0,135,135,135,,,,,,,,,,,,,90.81247099999746,0.012470999997461263,None,,143.39611910000167,143.39611910000167,143.39611910000167,143.39611910000167,143.39611910000167,143.39611910000167,143.39611910000167,143.39611910000167,002,P004,2025_Jan_18_1423,CategoryLocalizer,2021.2.3,59.92441134661594,
91.0,91.8,3,0.75,Stimuli\ImageFiles-Set2\Faces\Face_00058.png,0,0,0,136,136,136,,,,,,,,,,,,,91.01242479999928,0.012424799999280367,None,,143.61296869999933,143.61296869999933,143.61296869999933,143.61296869999933,143.61296869999933,143.61296869999933,143.61296869999933,143.61296869999933,002,P004,2025_Jan_18_1423,CategoryLocalizer,2021.2.3,59.92441134661594,
91.8,92.0,5,0.0,Stimuli\Blank.png,0,0,0,137,137,137,,,,,,,,,,,,,91.83144729999913,0.03144729999912954,5,0.1276508000009926,144.4303843000016,144.4303843000016,144.4303843000016,144.4303843000016,144.4303843000016,144.4303843000016,144.4303843000016,144.4303843000016,002,P004,2025_Jan_18_1423,CategoryLocalizer,2021.2.3,59.92441134661594,
92.0,92.8,3,0.75,Stimuli\ImageFiles-Set2\Faces\Face_00072.png,0,0,0,138,138,138,,,,,,,,,,,,,92.03024259999802,0.030242599998018704,None,,144.6138628000008,144.6138628000008,144.6138628000008,144.6138628000008,144.6138628000008,144.6138628000008,144.6138628000008,144.6138628000008,002,P004,2025_Jan_18_1423,CategoryLocalizer,2021.2.3,59.92441134661594,
92.8,93.0,5,0.0,Stimuli\Blank.png,0,0,0,139,139,139,,,,,,,,,,,,,92.81417629999851,0.014176299998510444,None,,145.39787649999926,145.39787649999926,145.39787649999926,145.39787649999926,145.39787649999926,145.39787649999926,145.39787649999926,145.39787649999926,002,P004,2025_Jan_18_1423,CategoryLocalizer,2021.2.3,59.92441134661594,
93.0,93.8,3,0.75,Stimuli\ImageFiles-Set2\Faces\Face_00044.png,0,0,0,140,140,140,,,,,,,,,,,,,93.0162765999994,0.016276599999400787,None,,145.61473409999962,145.61473409999962,145.61473409999962,145.61473409999962,145.61473409999962,145.61473409999962,145.61473409999962,145.61473409999962,002,P004,2025_Jan_18_1423,CategoryLocalizer,2021.2.3,59.92441134661594,
93.8,94.0,5,0.0,Stimuli\Blank.png,0,0,0,141,141,141,,,,,,,,,,,,,93.81674219999695,0.01674219999695481,5,0.14264140000159387,146.4154665999995,146.4154665999995,146.4154665999995,146.4154665999995,146.4154665999995,146.4154665999995,146.4154665999995,146.4154665999995,002,P004,2025_Jan_18_1423,CategoryLocalizer,2021.2.3,59.92441134661594,
94.0,94.8,3,0.75,Stimuli\ImageFiles-Set2\Faces\Face_00044.png,1,1,0,142,142,142,,,,,,,,,,,,,94.01451989999987,0.014519899999868358,4,0.6210537000006298,146.59893600000214,146.59893600000214,146.59893600000214,146.59893600000214,146.59893600000214,146.59893600000214,146.59893600000214,146.59893600000214,002,P004,2025_Jan_18_1423,CategoryLocalizer,2021.2.3,59.92441134661594,
94.8,95.0,5,0.0,Stimuli\Blank.png,0,0,0,143,143,143,,,,,,,,,,,,,94.81538389999696,0.015383899996962214,None,,147.39964150000014,147.39964150000014,147.39964150000014,147.39964150000014,147.39964150000014,147.39964150000014,147.39964150000014,147.39964150000014,002,P004,2025_Jan_18_1423,CategoryLocalizer,2021.2.3,59.92441134661594,
95.0,95.8,3,0.75,Stimuli\ImageFiles-Set2\Faces\Face_00120.png,0,0,0,144,144,144,,,,,,,,,,,,,95.01603869999963,0.01603869999962626,None,,147.59981210000115,147.59981210000115,147.59981210000115,147.59981210000115,147.59981210000115,147.59981210000115,147.59981210000115,147.59981210000115,002,P004,2025_Jan_18_1423,CategoryLocalizer,2021.2.3,59.92441134661594,
95.8,96.0,5,0.0,Stimuli\Blank.png,0,0,0,145,145,145,,,,,,,,,,,,,95.8002381999977,0.00023819999769614242,None,,148.38383840000097,148.38383840000097,148.38383840000097,148.38383840000097,148.38383840000097,148.38383840000097,148.38383840000097,148.38383840000097,002,P004,2025_Jan_18_1423,CategoryLocalizer,2021.2.3,59.92441134661594,
96.0,96.8,3,0.75,Stimuli\ImageFiles-Set2\Faces\Face_00019.png,0,0,0,146,146,146,,,,,,,,,,,,,96.00103749999835,0.0010374999983469024,None,,148.60069189999922,148.60069189999922,148.60069189999922,148.60069189999922,148.60069189999922,148.60069189999922,148.60069189999922,148.60069189999922,002,P004,2025_Jan_18_1423,CategoryLocalizer,2021.2.3,59.92441134661594,
96.8,97.0,5,0.0,Stimuli\Blank.png,0,0,0,147,147,147,,,,,,,,,,,,,96.81768929999816,0.017689299998167485,None,,149.40140489999976,149.40140489999976,149.40140489999976,149.40140489999976,149.40140489999976,149.40140489999976,149.40140489999976,149.40140489999976,002,P004,2025_Jan_18_1423,CategoryLocalizer,2021.2.3,59.92441134661594,
97.0,97.8,3,0.75,Stimuli\ImageFiles-Set2\Faces\Face_00050.png,0,0,0,148,148,148,,,,,,,,,,,,,97.0009919999975,0.0009919999974954408,None,,149.5848960000003,149.5848960000003,149.5848960000003,149.5848960000003,149.5848960000003,149.5848960000003,149.5848960000003,149.5848960000003,002,P004,2025_Jan_18_1423,CategoryLocalizer,2021.2.3,59.92441134661594,
97.8,98.0,5,0.0,Stimuli\Blank.png,0,0,0,149,149,149,,,,,,,,,,,,,97.80132899999808,0.0013289999980798939,None,,150.38563090000025,150.38563090000025,150.38563090000025,150.38563090000025,150.38563090000025,150.38563090000025,150.38563090000025,150.38563090000025,002,P004,2025_Jan_18_1423,CategoryLocalizer,2021.2.3,59.92441134661594,
98.0,98.8,3,0.75,Stimuli\ImageFiles-Set2\Faces\Face_00118.png,0,0,0,150,150,150,,,,,,,,,,,,,98.00199069999871,0.0019906999987142626,None,,150.60246310000002,150.60246310000002,150.60246310000002,150.60246310000002,150.60246310000002,150.60246310000002,150.60246310000002,150.60246310000002,002,P004,2025_Jan_18_1423,CategoryLocalizer,2021.2.3,59.92441134661594,
98.8,99.0,5,0.0,Stimuli\Blank.png,0,0,0,151,151,151,,,,,,,,,,,,,98.81870949999939,0.018709499999388868,None,,151.4031627000004,151.4031627000004,151.4031627000004,151.4031627000004,151.4031627000004,151.4031627000004,151.4031627000004,151.4031627000004,002,P004,2025_Jan_18_1423,CategoryLocalizer,2021.2.3,59.92441134661594,
99.0,99.8,3,0.75,Stimuli\ImageFiles-Set2\Faces\Face_00032.png,1,1,0,152,152,152,,,,,,,,,,,,,99.00224249999883,0.002242499998828862,None,,151.60336430000098,151.60336430000098,151.60336430000098,151.60336430000098,151.60336430000098,151.60336430000098,151.60336430000098,151.60336430000098,002,P004,2025_Jan_18_1423,CategoryLocalizer,2021.2.3,59.92441134661594,
99.8,100.0,5,0.0,Stimuli\Blank.png,0,0,0,153,153,153,,,,,,,,,,,,,99.82148049999887,0.021480499998872915,5,0.13725479999993695,152.42075110000224,152.42075110000224,152.42075110000224,152.42075110000224,152.42075110000224,152.42075110000224,152.42075110000224,152.42075110000224,002,P004,2025_Jan_18_1423,CategoryLocalizer,2021.2.3,59.92441134661594,
100.0,100.8,3,0.75,Stimuli\ImageFiles-Set2\Faces\Face_00082.png,0,0,0,154,154,154,,,,,,,,,,,,,100.02189779999753,0.021897799997532275,None,,152.62090309999985,152.62090309999985,152.62090309999985,152.62090309999985,152.62090309999985,152.62090309999985,152.62090309999985,152.62090309999985,002,P004,2025_Jan_18_1423,CategoryLocalizer,2021.2.3,59.92441134661594,
100.8,101.0,5,0.0,Stimuli\Blank.png,0,0,0,155,155,155,,,,,,,,,,,,,100.8212747999969,0.021274799996902516,None,,153.4049347,153.4049347,153.4049347,153.4049347,153.4049347,153.4049347,153.4049347,153.4049347,002,P004,2025_Jan_18_1423,CategoryLocalizer,2021.2.3,59.92441134661594,
101.0,101.8,3,0.75,Stimuli\ImageFiles-Set2\Faces\Face_00082.png,0,0,0,156,156,156,,,,,,,,,,,,,101.00429389999772,0.0042938999977195635,None,,153.5884174999992,153.5884174999992,153.5884174999992,153.5884174999992,153.5884174999992,153.5884174999992,153.5884174999992,153.5884174999992,002,P004,2025_Jan_18_1423,CategoryLocalizer,2021.2.3,59.92441134661594,
101.8,102.0,5,0.0,Stimuli\Blank.png,0,0,0,157,157,157,,,,,,,,,,,,,101.80512459999954,0.005124599999547286,4,0.03512160000173026,154.3891291,154.3891291,154.3891291,154.3891291,154.3891291,154.3891291,154.3891291,154.3891291,002,P004,2025_Jan_18_1423,CategoryLocalizer,2021.2.3,59.92441134661594,
102.0,102.8,3,0.75,Stimuli\ImageFiles-Set2\Faces\Face_00006.png,0,0,0,158,158,158,,,,,,,,,,,,,102.00614599999972,0.006145999999716878,None,,154.60597730000154,154.60597730000154,154.60597730000154,154.60597730000154,154.60597730000154,154.60597730000154,154.60597730000154,154.60597730000154,002,P004,2025_Jan_18_1423,CategoryLocalizer,2021.2.3,59.92441134661594,
102.8,103.0,5,0.0,Stimuli\Blank.png,0,0,0,159,159,159,,,,,,,,,,,,,102.8226861999974,0.022686199997409062,None,,155.4067376999992,155.4067376999992,155.4067376999992,155.4067376999992,155.4067376999992,155.4067376999992,155.4067376999992,155.4067376999992,002,P004,2025_Jan_18_1423,CategoryLocalizer,2021.2.3,59.92441134661594,
103.0,103.8,3,0.75,Stimuli\ImageFiles-Set2\Faces\Face_00090.png,0,0,0,160,160,160,,,,,,,,,,,,,103.00638169999729,0.0063816999972914346,None,,155.6068579999992,155.6068579999992,155.6068579999992,155.6068579999992,155.6068579999992,155.6068579999992,155.6068579999992,155.6068579999992,002,P004,2025_Jan_18_1423,CategoryLocalizer,2021.2.3,59.92441134661594,
103.8,104.0,5,0.0,Stimuli\Blank.png,0,0,0,161,161,161,,,,,,,,,,,,,103.82351209999979,0.023512099999791758,5,0.1504227000004903,156.40757040000244,156.40757040000244,156.40757040000244,156.40757040000244,156.40757040000244,156.40757040000244,156.40757040000244,156.40757040000244,002,P004,2025_Jan_18_1423,CategoryLocalizer,2021.2.3,59.92441134661594,
104.0,104.8,1,0.75,Stimuli\ImageFiles-Set2\Objects\Object_WaterCooler_00001.png,0,0,0,162,162,162,,,,,,,,,,,,,104.0069180999999,0.006918099999893457,None,,156.59106729999985,156.59106729999985,156.59106729999985,156.59106729999985,156.59106729999985,156.59106729999985,156.59106729999985,156.59106729999985,002,P004,2025_Jan_18_1423,CategoryLocalizer,2021.2.3,59.92441134661594,
104.8,105.0,5,0.0,Stimuli\Blank.png,0,0,0,163,163,163,,,,,,,,,,,,,104.80802719999701,0.00802719999701651,None,,157.39176560000124,157.39176560000124,157.39176560000124,157.39176560000124,157.39176560000124,157.39176560000124,157.39176560000124,157.39176560000124,002,P004,2025_Jan_18_1423,CategoryLocalizer,2021.2.3,59.92441134661594,
105.0,105.8,1,0.75,Stimuli\ImageFiles-Set2\Objects\Object_Walker_00001.png,0,0,0,164,164,164,,,,,,,,,,,,,105.00748399999793,0.007483999997930368,None,,157.59194109999953,157.59194109999953,157.59194109999953,157.59194109999953,157.59194109999953,157.59194109999953,157.59194109999953,157.59194109999953,002,P004,2025_Jan_18_1423,CategoryLocalizer,2021.2.3,59.92441134661594,
105.8,106.0,5,0.0,Stimuli\Blank.png,0,0,0,165,165,165,,,,,,,,,,,,,105.80823869999949,0.008238699999495225,5,0.16545830000177375,158.39264860000185,158.39264860000185,158.39264860000185,158.39264860000185,158.39264860000185,158.39264860000185,158.39264860000185,158.39264860000185,002,P004,2025_Jan_18_1423,CategoryLocalizer,2021.2.3,59.92441134661594,
106.0,106.8,1,0.75,Stimuli\ImageFiles-Set2\Objects\Object_Perfume_00001.png,0,0,0,166,166,166,,,,,,,,,,,,,106.00880630000029,0.008806300000287592,None,,158.60951059999934,158.60951059999934,158.60951059999934,158.60951059999934,158.60951059999934,158.60951059999934,158.60951059999934,158.60951059999934,002,P004,2025_Jan_18_1423,CategoryLocalizer,2021.2.3,59.92441134661594,
106.8,107.0,5,0.0,Stimuli\Blank.png,0,0,0,167,167,167,,,,,,,,,,,,,106.82698949999758,0.026989499997583266,None,,159.41021280000132,159.41021280000132,159.41021280000132,159.41021280000132,159.41021280000132,159.41021280000132,159.41021280000132,159.41021280000132,002,P004,2025_Jan_18_1423,CategoryLocalizer,2021.2.3,59.92441134661594,
107.0,107.8,1,0.75,Stimuli\ImageFiles-Set2\Objects\Object_Sponge_00001.png,0,0,0,168,168,168,,,,,,,,,,,,,107.0117610999987,0.01176109999869368,None,,159.6103886000019,159.6103886000019,159.6103886000019,159.6103886000019,159.6103886000019,159.6103886000019,159.6103886000019,159.6103886000019,002,P004,2025_Jan_18_1423,CategoryLocalizer,2021.2.3,59.92441134661594,
107.8,108.0,5,0.0,Stimuli\Blank.png,0,0,0,169,169,169,,,,,,,,,,,,,107.82733039999948,0.027330399999485167,5,0.14688290000049165,160.41110670000126,160.41110670000126,160.41110670000126,160.41110670000126,160.41110670000126,160.41110670000126,160.41110670000126,160.41110670000126,002,P004,2025_Jan_18_1423,CategoryLocalizer,2021.2.3,59.92441134661594,
108.0,108.8,1,0.75,Stimuli\ImageFiles-Set2\Objects\Object_Dumpster_00001.png,0,0,0,170,170,170,,,,,,,,,,,,,108.01042079999752,0.01042079999751877,None,,160.59458400000221,160.59458400000221,160.59458400000221,160.59458400000221,160.59458400000221,160.59458400000221,160.59458400000221,160.59458400000221,002,P004,2025_Jan_18_1423,CategoryLocalizer,2021.2.3,59.92441134661594,
108.8,109.0,5,0.0,Stimuli\Blank.png,0,0,0,171,171,171,,,,,,,,,,,,,108.81128749999698,0.011287499996981865,None,,161.39527120000275,161.39527120000275,161.39527120000275,161.39527120000275,161.39527120000275,161.39527120000275,161.39527120000275,161.39527120000275,002,P004,2025_Jan_18_1423,CategoryLocalizer,2021.2.3,59.92441134661594,
109.0,109.8,1,0.75,Stimuli\ImageFiles-Set2\Objects\Object_Paper_00001.png,0,0,0,172,172,172,,,,,,,,,,,,,109.01208199999746,0.012081999997462844,None,,161.61214549999931,161.61214549999931,161.61214549999931,161.61214549999931,161.61214549999931,161.61214549999931,161.61214549999931,161.61214549999931,002,P004,2025_Jan_18_1423,CategoryLocalizer,2021.2.3,59.92441134661594,
109.8,110.0,5,0.0,Stimuli\Blank.png,0,0,0,173,173,173,,,,,,,,,,,,,109.8290636999991,0.029063699999099413,5,0.14524729999902775,162.41289170000164,162.41289170000164,162.41289170000164,162.41289170000164,162.41289170000164,162.41289170000164,162.41289170000164,162.41289170000164,002,P004,2025_Jan_18_1423,CategoryLocalizer,2021.2.3,59.92441134661594,
110.0,110.8,1,0.75,Stimuli\ImageFiles-Set2\Objects\Object_Car_00001.png,0,0,0,174,174,174,,,,,,,,,,,,,110.01190249999854,0.011902499998541316,None,,162.596349200001,162.596349200001,162.596349200001,162.596349200001,162.596349200001,162.596349200001,162.596349200001,162.596349200001,002,P004,2025_Jan_18_1423,CategoryLocalizer,2021.2.3,59.92441134661594,
110.8,111.0,5,0.0,Stimuli\Blank.png,0,0,0,175,175,175,,,,,,,,,,,,,110.81304219999947,0.013042199999475201,None,,163.39705220000178,163.39705220000178,163.39705220000178,163.39705220000178,163.39705220000178,163.39705220000178,163.39705220000178,163.39705220000178,002,P004,2025_Jan_18_1423,CategoryLocalizer,2021.2.3,59.92441134661594,
111.0,111.8,1,0.75,Stimuli\ImageFiles-Set2\Objects\Object_Mug_00001.png,0,0,0,176,176,176,,,,,,,,,,,,,111.01348609999695,0.013486099996953271,None,,163.61392139999953,163.61392139999953,163.61392139999953,163.61392139999953,163.61392139999953,163.61392139999953,163.61392139999953,163.61392139999953,002,P004,2025_Jan_18_1423,CategoryLocalizer,2021.2.3,59.92441134661594,
111.8,112.0,5,0.0,Stimuli\Blank.png,0,0,0,177,177,177,,,,,,,,,,,,,111.83024179999848,0.030241799998478314,5,0.14339519999703043,164.41462550000142,164.41462550000142,164.41462550000142,164.41462550000142,164.41462550000142,164.41462550000142,164.41462550000142,164.41462550000142,002,P004,2025_Jan_18_1423,CategoryLocalizer,2021.2.3,59.92441134661594,
112.0,112.8,1,0.75,Stimuli\ImageFiles-Set2\Objects\Object_Dresser_00001.png,0,0,0,178,178,178,,,,,,,,,,,,,112.01367279999977,0.013672799999767449,None,,164.5981090000023,164.5981090000023,164.5981090000023,164.5981090000023,164.5981090000023,164.5981090000023,164.5981090000023,164.5981090000023,002,P004,2025_Jan_18_1423,CategoryLocalizer,2021.2.3,59.92441134661594,
112.8,113.0,5,0.0,Stimuli\Blank.png,0,0,0,179,179,179,,,,,,,,,,,,,112.81623519999994,0.016235199999940164,None,,165.41551470000195,165.41551470000195,165.41551470000195,165.41551470000195,165.41551470000195,165.41551470000195,165.41551470000195,165.41551470000195,002,P004,2025_Jan_18_1423,CategoryLocalizer,2021.2.3,59.92441134661594,
113.0,113.8,1,0.75,Stimuli\ImageFiles-Set2\Objects\Object_Glass_00001.png,0,0,0,180,180,180,,,,,,,,,,,,,113.0167036999992,0.016703699999197852,None,,165.61569470000177,165.61569470000177,165.61569470000177,165.61569470000177,165.61569470000177,165.61569470000177,165.61569470000177,165.61569470000177,002,P004,2025_Jan_18_1423,CategoryLocalizer,2021.2.3,59.92441134661594,
113.8,114.0,5,0.0,Stimuli\Blank.png,0,0,0,181,181,181,,,,,,,,,,,,,113.81630569999834,0.016305699998341083,None,,166.39970280000125,166.39970280000125,166.39970280000125,166.39970280000125,166.39970280000125,166.39970280000125,166.39970280000125,166.39970280000125,002,P004,2025_Jan_18_1423,CategoryLocalizer,2021.2.3,59.92441134661594,
114.0,114.8,1,0.75,Stimuli\ImageFiles-Set2\Objects\Object_Belt_00001.png,0,0,0,182,182,182,,,,,,,,,,,,,113.99972390000039,-0.000276099999609869,None,,166.59986570000183,166.59986570000183,166.59986570000183,166.59986570000183,166.59986570000183,166.59986570000183,166.59986570000183,166.59986570000183,002,P004,2025_Jan_18_1423,CategoryLocalizer,2021.2.3,59.92441134661594,
114.8,115.0,5,0.0,Stimuli\Blank.png,0,0,0,183,183,183,,,,,,,,,,,,,114.81691789999968,0.016917899999683073,None,,167.40058000000136,167.40058000000136,167.40058000000136,167.40058000000136,167.40058000000136,167.40058000000136,167.40058000000136,167.40058000000136,002,P004,2025_Jan_18_1423,CategoryLocalizer,2021.2.3,59.92441134661594,
115.0,115.8,1,0.75,Stimuli\ImageFiles-Set2\Objects\Object_Battery_00001.png,0,0,0,184,184,184,,,,,,,,,,,,,115.00293479999891,0.0029347999989113305,None,,167.60075700000016,167.60075700000016,167.60075700000016,167.60075700000016,167.60075700000016,167.60075700000016,167.60075700000016,167.60075700000016,002,P004,2025_Jan_18_1423,CategoryLocalizer,2021.2.3,59.92441134661594,
115.8,116.0,5,0.0,Stimuli\Blank.png,0,0,0,185,185,185,,,,,,,,,,,,,115.81756529999984,0.017565299999844797,None,,168.4015345000007,168.4015345000007,168.4015345000007,168.4015345000007,168.4015345000007,168.4015345000007,168.4015345000007,168.4015345000007,002,P004,2025_Jan_18_1423,CategoryLocalizer,2021.2.3,59.92441134661594,
116.0,116.8,1,0.75,Stimuli\ImageFiles-Set2\Objects\Object_Hamburger_00001.png,0,0,0,186,186,186,,,,,,,,,,,,,116.00128069999846,0.0012806999984604772,None,,168.58495930000208,168.58495930000208,168.58495930000208,168.58495930000208,168.58495930000208,168.58495930000208,168.58495930000208,168.58495930000208,002,P004,2025_Jan_18_1423,CategoryLocalizer,2021.2.3,59.92441134661594,
116.8,117.0,5,0.0,Stimuli\Blank.png,0,0,0,187,187,187,,,,,,,,,,,,,116.80188400000043,0.0018840000004303192,None,,169.38565790000212,169.38565790000212,169.38565790000212,169.38565790000212,169.38565790000212,169.38565790000212,169.38565790000212,169.38565790000212,002,P004,2025_Jan_18_1423,CategoryLocalizer,2021.2.3,59.92441134661594,
117.0,117.8,1,0.75,Stimuli\ImageFiles-Set2\Objects\Object_Hamburger_00001.png,1,1,0,188,188,188,,,,,,,,,,,,,117.00230559999909,0.002305599999090191,4,0.5974099999984901,169.60251570000037,169.60251570000037,169.60251570000037,169.60251570000037,169.60251570000037,169.60251570000037,169.60251570000037,169.60251570000037,002,P004,2025_Jan_18_1423,CategoryLocalizer,2021.2.3,59.92441134661594,
117.8,118.0,5,0.0,Stimuli\Blank.png,0,0,0,189,189,189,,,,,,,,,,,,,117.82151039999735,0.021510399997353602,5,0.13799339999968652,170.4199262000002,170.4199262000002,170.4199262000002,170.4199262000002,170.4199262000002,170.4199262000002,170.4199262000002,170.4199262000002,002,P004,2025_Jan_18_1423,CategoryLocalizer,2021.2.3,59.92441134661594,
118.0,118.8,1,0.75,Stimuli\ImageFiles-Set2\Objects\Object_Scissors_00001.png,0,0,0,190,190,190,,,,,,,,,,,,,118.01916999999958,0.019169999999576248,None,,170.60339569999996,170.60339569999996,170.60339569999996,170.60339569999996,170.60339569999996,170.60339569999996,170.60339569999996,170.60339569999996,002,P004,2025_Jan_18_1423,CategoryLocalizer,2021.2.3,59.92441134661594,
118.8,119.0,5,0.0,Stimuli\Blank.png,0,0,0,191,191,191,,,,,,,,,,,,,118.80409789999976,0.004097899999763399,None,,171.38741070000106,171.38741070000106,171.38741070000106,171.38741070000106,171.38741070000106,171.38741070000106,171.38741070000106,171.38741070000106,002,P004,2025_Jan_18_1423,CategoryLocalizer,2021.2.3,59.92441134661594,
119.0,119.8,1,0.75,Stimuli\ImageFiles-Set2\Objects\Object_Hat_00001.png,0,0,0,192,192,192,,,,,,,,,,,,,119.00337519999812,0.0033751999981177505,None,,171.5875941000013,171.5875941000013,171.5875941000013,171.5875941000013,171.5875941000013,171.5875941000013,171.5875941000013,171.5875941000013,002,P004,2025_Jan_18_1423,CategoryLocalizer,2021.2.3,59.92441134661594,
119.8,120.0,5,0.0,Stimuli\Blank.png,0,0,0,193,193,193,,,,,,,,,,,,,119.80413049999697,0.004130499996975345,None,,172.3883018000015,172.3883018000015,172.3883018000015,172.3883018000015,172.3883018000015,172.3883018000015,172.3883018000015,172.3883018000015,002,P004,2025_Jan_18_1423,CategoryLocalizer,2021.2.3,59.92441134661594,
120.0,120.8,4,0.75,Stimuli\ImageFiles-Set2\Scenes\Scenes_073.png,0,0,0,194,194,194,,,,,,,,,,,,,120.00514059999841,0.005140599998412654,None,,172.6051604000022,172.6051604000022,172.6051604000022,172.6051604000022,172.6051604000022,172.6051604000022,172.6051604000022,172.6051604000022,002,P004,2025_Jan_18_1423,CategoryLocalizer,2021.2.3,59.92441134661594,
120.8,121.0,5,0.0,Stimuli\Blank.png,0,0,0,195,195,195,,,,,,,,,,,,,120.82189229999858,0.021892299998583553,None,,173.4058623000019,173.4058623000019,173.4058623000019,173.4058623000019,173.4058623000019,173.4058623000019,173.4058623000019,173.4058623000019,002,P004,2025_Jan_18_1423,CategoryLocalizer,2021.2.3,59.92441134661594,
121.0,121.8,4,0.75,Stimuli\ImageFiles-Set2\Scenes\Scenes_089.png,0,0,0,196,196,196,,,,,,,,,,,,,121.00620659999913,0.006206599999131868,None,,173.60606420000113,173.60606420000113,173.60606420000113,173.60606420000113,173.60606420000113,173.60606420000113,173.60606420000113,173.60606420000113,002,P004,2025_Jan_18_1423,CategoryLocalizer,2021.2.3,59.92441134661594,
121.8,122.0,5,0.0,Stimuli\Blank.png,0,0,0,197,197,197,,,,,,,,,,,,,121.82219279999845,0.02219279999845014,5,0.15130710000084946,174.4067482999999,174.4067482999999,174.4067482999999,174.4067482999999,174.4067482999999,174.4067482999999,174.4067482999999,174.4067482999999,002,P004,2025_Jan_18_1423,CategoryLocalizer,2021.2.3,59.92441134661594,
122.0,122.8,4,0.75,Stimuli\ImageFiles-Set2\Scenes\Scenes_106.png,0,0,0,198,198,198,,,,,,,,,,,,,122.00593529999969,0.005935299999691779,None,,174.6069475000004,174.6069475000004,174.6069475000004,174.6069475000004,174.6069475000004,174.6069475000004,174.6069475000004,174.6069475000004,002,P004,2025_Jan_18_1423,CategoryLocalizer,2021.2.3,59.92441134661594,
122.8,123.0,5,0.0,Stimuli\Blank.png,0,0,0,199,199,199,,,,,,,,,,,,,122.82380619999822,0.023806199998219313,None,,175.40762790000008,175.40762790000008,175.40762790000008,175.40762790000008,175.40762790000008,175.40762790000008,175.40762790000008,175.40762790000008,002,P004,2025_Jan_18_1423,CategoryLocalizer,2021.2.3,59.92441134661594,
123.0,123.8,4,0.75,Stimuli\ImageFiles-Set2\Scenes\Scenes_062.png,0,0,0,200,200,200,,,,,,,,,,,,,123.00724099999934,0.007240999999339692,None,,175.5911124000013,175.5911124000013,175.5911124000013,175.5911124000013,175.5911124000013,175.5911124000013,175.5911124000013,175.5911124000013,002,P004,2025_Jan_18_1423,CategoryLocalizer,2021.2.3,59.92441134661594,
123.8,124.0,5,0.0,Stimuli\Blank.png,0,0,0,201,201,201,,,,,,,,,,,,,123.80798849999701,0.0079884999970119,5,0.16620880000118632,176.391831500001,176.391831500001,176.391831500001,176.391831500001,176.391831500001,176.391831500001,176.391831500001,176.391831500001,002,P004,2025_Jan_18_1423,CategoryLocalizer,2021.2.3,59.92441134661594,
124.0,124.8,4,0.75,Stimuli\ImageFiles-Set2\Scenes\Scenes_074.png,0,0,0,202,202,202,,,,,,,,,,,,,124.00736870000037,0.007368700000370154,None,,176.60869300000195,176.60869300000195,176.60869300000195,176.60869300000195,176.60869300000195,176.60869300000195,176.60869300000195,176.60869300000195,002,P004,2025_Jan_18_1423,CategoryLocalizer,2021.2.3,59.92441134661594,
124.8,125.0,5,0.0,Stimuli\Blank.png,0,0,0,203,203,203,,,,,,,,,,,,,124.82573179999963,0.025731799999633154,None,,177.4093857000007,177.4093857000007,177.4093857000007,177.4093857000007,177.4093857000007,177.4093857000007,177.4093857000007,177.4093857000007,002,P004,2025_Jan_18_1423,CategoryLocalizer,2021.2.3,59.92441134661594,
125.0,125.8,4,0.75,Stimuli\ImageFiles-Set2\Scenes\Scenes_075.png,0,0,0,204,204,204,,,,,,,,,,,,,125.00874809999732,0.008748099997319514,None,,177.59287770000083,177.59287770000083,177.59287770000083,177.59287770000083,177.59287770000083,177.59287770000083,177.59287770000083,177.59287770000083,002,P004,2025_Jan_18_1423,CategoryLocalizer,2021.2.3,59.92441134661594,
125.8,126.0,5,0.0,Stimuli\Blank.png,0,0,0,205,205,205,,,,,,,,,,,,,125.81120899999951,0.011208999999510638,5,0.14762879999761935,178.41028110000116,178.41028110000116,178.41028110000116,178.41028110000116,178.41028110000116,178.41028110000116,178.41028110000116,178.41028110000116,002,P004,2025_Jan_18_1423,CategoryLocalizer,2021.2.3,59.92441134661594,
126.0,126.8,4,0.75,Stimuli\ImageFiles-Set2\Scenes\Scenes_068.png,0,0,0,206,206,206,,,,,,,,,,,,,126.0274795999976,0.027479599997604964,None,,178.62711910000144,178.62711910000144,178.62711910000144,178.62711910000144,178.62711910000144,178.62711910000144,178.62711910000144,178.62711910000144,002,P004,2025_Jan_18_1423,CategoryLocalizer,2021.2.3,59.92441134661594,
126.8,127.0,5,0.0,Stimuli\Blank.png,0,0,0,207,207,207,,,,,,,,,,,,,126.82739379999839,0.027393799998392865,None,,179.4111546000022,179.4111546000022,179.4111546000022,179.4111546000022,179.4111546000022,179.4111546000022,179.4111546000022,179.4111546000022,002,P004,2025_Jan_18_1423,CategoryLocalizer,2021.2.3,59.92441134661594,
127.0,127.8,4,0.75,Stimuli\ImageFiles-Set2\Scenes\Scenes_105.png,0,0,0,208,208,208,,,,,,,,,,,,,127.01038539999718,0.010385399997176137,None,,179.5946466000023,179.5946466000023,179.5946466000023,179.5946466000023,179.5946466000023,179.5946466000023,179.5946466000023,179.5946466000023,002,P004,2025_Jan_18_1423,CategoryLocalizer,2021.2.3,59.92441134661594,
127.8,128.0,5,0.0,Stimuli\Blank.png,0,0,0,209,209,209,,,,,,,,,,,,,127.81114139999772,0.011141399997725898,5,0.1627595999998448,180.39534819999972,180.39534819999972,180.39534819999972,180.39534819999972,180.39534819999972,180.39534819999972,180.39534819999972,180.39534819999972,002,P004,2025_Jan_18_1423,CategoryLocalizer,2021.2.3,59.92441134661594,
128.0,128.8,4,0.75,Stimuli\ImageFiles-Set2\Scenes\Scenes_090.png,0,0,0,210,210,210,,,,,,,,,,,,,128.01156830000036,0.011568300000362797,None,,180.6122276999995,180.6122276999995,180.6122276999995,180.6122276999995,180.6122276999995,180.6122276999995,180.6122276999995,180.6122276999995,002,P004,2025_Jan_18_1423,CategoryLocalizer,2021.2.3,59.92441134661594,
128.8,129.0,5,0.0,Stimuli\Blank.png,0,0,0,211,211,211,,,,,,,,,,,,,128.82836829999724,0.028368299997225677,None,,181.41290800000206,181.41290800000206,181.41290800000206,181.41290800000206,181.41290800000206,181.41290800000206,181.41290800000206,181.41290800000206,002,P004,2025_Jan_18_1423,CategoryLocalizer,2021.2.3,59.92441134661594,
129.0,129.8,4,0.75,Stimuli\ImageFiles-Set2\Scenes\Scenes_100.png,0,0,0,212,212,212,,,,,,,,,,,,,129.01314529999945,0.013145299999450799,4,0.6968562000001839,181.61308909999934,181.61308909999934,181.61308909999934,181.61308909999934,181.61308909999934,181.61308909999934,181.61308909999934,181.61308909999934,002,P004,2025_Jan_18_1423,CategoryLocalizer,2021.2.3,59.92441134661594,
129.8,130.0,5,0.0,Stimuli\Blank.png,0,0,0,213,213,213,,,,,,,,,,,,,129.83176199999798,0.03176199999796836,5,0.12747590000071796,182.43047930000102,182.43047930000102,182.43047930000102,182.43047930000102,182.43047930000102,182.43047930000102,182.43047930000102,182.43047930000102,002,P004,2025_Jan_18_1423,CategoryLocalizer,2021.2.3,59.92441134661594,
130.0,130.8,4,0.75,Stimuli\ImageFiles-Set2\Scenes\Scenes_099.png,0,0,0,214,214,214,,,,,,,,,,,,,130.0302376999971,0.030237699997087475,None,,182.61396539999987,182.61396539999987,182.61396539999987,182.61396539999987,182.61396539999987,182.61396539999987,182.61396539999987,182.61396539999987,002,P004,2025_Jan_18_1423,CategoryLocalizer,2021.2.3,59.92441134661594,
130.8,131.0,5,0.0,Stimuli\Blank.png,0,0,0,215,215,215,,,,,,,,,,,,,130.814058699998,0.0140586999979746,None,,183.39799649999986,183.39799649999986,183.39799649999986,183.39799649999986,183.39799649999986,183.39799649999986,183.39799649999986,183.39799649999986,002,P004,2025_Jan_18_1423,CategoryLocalizer,2021.2.3,59.92441134661594,
131.0,131.8,4,0.75,Stimuli\ImageFiles-Set2\Scenes\Scenes_099.png,1,1,0,216,216,216,,,,,,,,,,,,,131.0162453999983,0.016245399998297216,4,0.5960460999995121,183.6148730999994,183.6148730999994,183.6148730999994,183.6148730999994,183.6148730999994,183.6148730999994,183.6148730999994,183.6148730999994,002,P004,2025_Jan_18_1423,CategoryLocalizer,2021.2.3,59.92441134661594,
131.8,132.0,5,0.0,Stimuli\Blank.png,0,0,0,217,217,217,,,,,,,,,,,,,131.8164923000004,0.0164923000003796,5,0.14232090000223252,184.41557450000255,184.41557450000255,184.41557450000255,184.41557450000255,184.41557450000255,184.41557450000255,184.41557450000255,184.41557450000255,002,P004,2025_Jan_18_1423,CategoryLocalizer,2021.2.3,59.92441134661594,
132.0,132.8,4,0.75,Stimuli\ImageFiles-Set2\Scenes\Scenes_093.png,0,0,0,218,218,218,,,,,,,,,,,,,132.01697429999695,0.016974299996945774,None,,184.61573409999983,184.61573409999983,184.61573409999983,184.61573409999983,184.61573409999983,184.61573409999983,184.61573409999983,184.61573409999983,002,P004,2025_Jan_18_1423,CategoryLocalizer,2021.2.3,59.92441134661594,
132.8,133.0,5,0.0,Stimuli\Blank.png,0,0,0,219,219,219,,,,,,,,,,,,,132.81581860000006,0.015818600000045535,None,,185.399760100001,185.399760100001,185.399760100001,185.399760100001,185.399760100001,185.399760100001,185.399760100001,185.399760100001,002,P004,2025_Jan_18_1423,CategoryLocalizer,2021.2.3,59.92441134661594,
133.0,133.8,4,0.75,Stimuli\ImageFiles-Set2\Scenes\Scenes_119.png,0,0,0,220,220,220,,,,,,,,,,,,,132.9994205999974,-0.0005794000026071444,None,,185.59992950000014,185.59992950000014,185.59992950000014,185.59992950000014,185.59992950000014,185.59992950000014,185.59992950000014,185.59992950000014,002,P004,2025_Jan_18_1423,CategoryLocalizer,2021.2.3,59.92441134661594,
133.8,134.0,5,0.0,Stimuli\Blank.png,0,0,0,221,221,221,,,,,,,,,,,,,133.81784929999776,0.017849299997749313,None,,186.40069980000044,186.40069980000044,186.40069980000044,186.40069980000044,186.40069980000044,186.40069980000044,186.40069980000044,186.40069980000044,002,P004,2025_Jan_18_1423,CategoryLocalizer,2021.2.3,59.92441134661594,
134.0,134.8,4,0.75,Stimuli\ImageFiles-Set2\Scenes\Scenes_065.png,0,0,0,222,222,222,,,,,,,,,,,,,134.0003500999992,0.00035009999919566326,None,,186.58422820000123,186.58422820000123,186.58422820000123,186.58422820000123,186.58422820000123,186.58422820000123,186.58422820000123,186.58422820000123,002,P004,2025_Jan_18_1423,CategoryLocalizer,2021.2.3,59.92441134661594,
134.8,135.0,5,0.0,Stimuli\Blank.png,0,0,0,223,223,223,,,,,,,,,,,,,134.80138389999775,0.0013838999977338062,None,,187.38483610000185,187.38483610000185,187.38483610000185,187.38483610000185,187.38483610000185,187.38483610000185,187.38483610000185,187.38483610000185,002,P004,2025_Jan_18_1423,CategoryLocalizer,2021.2.3,59.92441134661594,
135.0,135.8,4,0.75,Stimuli\ImageFiles-Set2\Scenes\Scenes_120.png,0,0,0,224,224,224,,,,,,,,,,,,,135.0018504999971,0.0018504999970900826,None,,187.60168110000086,187.60168110000086,187.60168110000086,187.60168110000086,187.60168110000086,187.60168110000086,187.60168110000086,187.60168110000086,002,P004,2025_Jan_18_1423,CategoryLocalizer,2021.2.3,59.92441134661594,
135.8,136.0,5,0.0,Stimuli\Blank.png,0,0,0,225,225,225,,,,,,,,,,,,,135.81816609999805,0.018166099998040863,None,,188.40239400000064,188.40239400000064,188.40239400000064,188.40239400000064,188.40239400000064,188.40239400000064,188.40239400000064,188.40239400000064,002,P004,2025_Jan_18_1423,CategoryLocalizer,2021.2.3,59.92441134661594,
136.0,136.8,2,0.75,Stimuli\ImageFiles-Set2\Bodies\Bodies_Punching_00005.png,0,0,0,226,226,226,,,,,,,,,,,,,136.0016214999996,0.0016214999996009283,None,,188.5858885000016,188.5858885000016,188.5858885000016,188.5858885000016,188.5858885000016,188.5858885000016,188.5858885000016,188.5858885000016,002,P004,2025_Jan_18_1423,CategoryLocalizer,2021.2.3,59.92441134661594,
136.8,137.0,5,0.0,Stimuli\Blank.png,0,0,0,227,227,227,,,,,,,,,,,,,136.8026409999984,0.0026409999983911803,None,,189.3865934000023,189.3865934000023,189.3865934000023,189.3865934000023,189.3865934000023,189.3865934000023,189.3865934000023,189.3865934000023,002,P004,2025_Jan_18_1423,CategoryLocalizer,2021.2.3,59.92441134661594,
137.0,137.8,2,0.75,Stimuli\ImageFiles-Set2\Bodies\Bodies_Punching_00002.png,0,0,0,228,228,228,,,,,,,,,,,,,137.00299989999985,0.002999899999849731,None,,189.5867685000012,189.5867685000012,189.5867685000012,189.5867685000012,189.5867685000012,189.5867685000012,189.5867685000012,189.5867685000012,002,P004,2025_Jan_18_1423,CategoryLocalizer,2021.2.3,59.92441134661594,
137.8,138.0,5,0.0,Stimuli\Blank.png,0,0,0,229,229,229,,,,,,,,,,,,,137.8038591000004,0.003859100000397575,None,,190.38745460000064,190.38745460000064,190.38745460000064,190.38745460000064,190.38745460000064,190.38745460000064,190.38745460000064,190.38745460000064,002,P004,2025_Jan_18_1423,CategoryLocalizer,2021.2.3,59.92441134661594,
138.0,138.8,2,0.75,Stimuli\ImageFiles-Set2\Bodies\Bodies_Hanging_00001.png,0,0,0,230,230,230,,,,,,,,,,,,,138.00322640000013,0.003226400000130525,None,,190.60433919999923,190.60433919999923,190.60433919999923,190.60433919999923,190.60433919999923,190.60433919999923,190.60433919999923,190.60433919999923,002,P004,2025_Jan_18_1423,CategoryLocalizer,2021.2.3,59.92441134661594,
138.8,139.0,5,0.0,Stimuli\Blank.png,0,0,0,231,231,231,,,,,,,,,,,,,138.8211315999979,0.021131599997886497,None,,191.40503660000104,191.40503660000104,191.40503660000104,191.40503660000104,191.40503660000104,191.40503660000104,191.40503660000104,191.40503660000104,002,P004,2025_Jan_18_1423,CategoryLocalizer,2021.2.3,59.92441134661594,
139.0,139.8,2,0.75,Stimuli\ImageFiles-Set2\Bodies\Bodies_Pushing_00004.png,0,0,0,232,232,232,,,,,,,,,,,,,139.0063620999972,0.006362099997204496,None,,191.6052245000028,191.6052245000028,191.6052245000028,191.6052245000028,191.6052245000028,191.6052245000028,191.6052245000028,191.6052245000028,002,P004,2025_Jan_18_1423,CategoryLocalizer,2021.2.3,59.92441134661594,
139.8,140.0,5,0.0,Stimuli\Blank.png,0,0,0,233,233,233,,,,,,,,,,,,,139.82233780000024,0.02233780000022989,None,,192.4059167000014,192.4059167000014,192.4059167000014,192.4059167000014,192.4059167000014,192.4059167000014,192.4059167000014,192.4059167000014,002,P004,2025_Jan_18_1423,CategoryLocalizer,2021.2.3,59.92441134661594,
140.0,140.8,2,0.75,Stimuli\ImageFiles-Set2\Bodies\Bodies_Walking_00001.png,0,0,0,234,234,234,,,,,,,,,,,,,140.0056560999983,0.005656099998304853,None,,192.589411500001,192.589411500001,192.589411500001,192.589411500001,192.589411500001,192.589411500001,192.589411500001,192.589411500001,002,P004,2025_Jan_18_1423,CategoryLocalizer,2021.2.3,59.92441134661594,
140.8,141.0,5,0.0,Stimuli\Blank.png,0,0,0,235,235,235,,,,,,,,,,,,,140.8071005999991,0.007100599999091628,None,,193.39012110000112,193.39012110000112,193.39012110000112,193.39012110000112,193.39012110000112,193.39012110000112,193.39012110000112,193.39012110000112,002,P004,2025_Jan_18_1423,CategoryLocalizer,2021.2.3,59.92441134661594,
141.0,141.8,2,0.75,Stimuli\ImageFiles-Set2\Bodies\Bodies_Walking_00001.png,1,1,0,236,236,236,,,,,,,,,,,,,141.0060623999998,0.0060623999997915234,4,0.5966074999996636,193.59030460000213,193.59030460000213,193.59030460000213,193.59030460000213,193.59030460000213,193.59030460000213,193.59030460000213,193.59030460000213,002,P004,2025_Jan_18_1423,CategoryLocalizer,2021.2.3,59.92441134661594,
141.8,142.0,5,0.0,Stimuli\Blank.png,0,0,0,237,237,237,,,,,,,,,,,,,141.80785489999835,0.00785489999833544,5,0.16695880000042962,194.39100470000267,194.39100470000267,194.39100470000267,194.39100470000267,194.39100470000267,194.39100470000267,194.39100470000267,194.39100470000267,002,P004,2025_Jan_18_1423,CategoryLocalizer,2021.2.3,59.92441134661594,
142.0,142.8,2,0.75,Stimuli\ImageFiles-Set2\Bodies\Bodies_QuadStretch_00006.png,0,0,0,238,238,238,,,,,,,,,,,,,142.00743320000038,0.007433200000377838,None,,194.59115450000172,194.59115450000172,194.59115450000172,194.59115450000172,194.59115450000172,194.59115450000172,194.59115450000172,194.59115450000172,002,P004,2025_Jan_18_1423,CategoryLocalizer,2021.2.3,59.92441134661594,
142.8,143.0,5,0.0,Stimuli\Blank.png,0,0,0,239,239,239,,,,,,,,,,,,,142.80830259999857,0.00830259999855798,None,,195.39188220000142,195.39188220000142,195.39188220000142,195.39188220000142,195.39188220000142,195.39188220000142,195.39188220000142,195.39188220000142,002,P004,2025_Jan_18_1423,CategoryLocalizer,2021.2.3,59.92441134661594,
143.0,143.8,2,0.75,Stimuli\ImageFiles-Set2\Bodies\Bodies_Pushing_00006.png,0,0,0,240,240,240,,,,,,,,,,,,,143.00786069999958,0.007860699999582721,None,,195.59206099999938,195.59206099999938,195.59206099999938,195.59206099999938,195.59206099999938,195.59206099999938,195.59206099999938,195.59206099999938,002,P004,2025_Jan_18_1423,CategoryLocalizer,2021.2.3,59.92441134661594,
143.8,144.0,5,0.0,Stimuli\Blank.png,0,0,0,241,241,241,,,,,,,,,,,,,143.80961059999754,0.009610599997529334,5,0.16502870000113035,196.39279220000026,196.39279220000026,196.39279220000026,196.39279220000026,196.39279220000026,196.39279220000026,196.39279220000026,196.39279220000026,002,P004,2025_Jan_18_1423,CategoryLocalizer,2021.2.3,59.92441134661594,
144.0,144.8,2,0.75,Stimuli\ImageFiles-Set2\Bodies\Bodies_Jumping_00005.png,0,0,0,242,242,242,,,,,,,,,,,,,144.00904099999752,0.009040999997523613,None,,196.5929356000015,196.5929356000015,196.5929356000015,196.5929356000015,196.5929356000015,196.5929356000015,196.5929356000015,196.5929356000015,002,P004,2025_Jan_18_1423,CategoryLocalizer,2021.2.3,59.92441134661594,
144.8,145.0,5,0.0,Stimuli\Blank.png,0,0,0,243,243,243,,,,,,,,,,,,,144.81170219999694,0.01170219999693245,None,,197.41033310000057,197.41033310000057,197.41033310000057,197.41033310000057,197.41033310000057,197.41033310000057,197.41033310000057,197.41033310000057,002,P004,2025_Jan_18_1423,CategoryLocalizer,2021.2.3,59.92441134661594,
145.0,145.8,2,0.75,Stimuli\ImageFiles-Set2\Bodies\Bodies_Punching_00007.png,0,0,0,244,244,244,,,,,,,,,,,,,145.02605089999997,0.0260508999999729,None,,197.61049520000233,197.61049520000233,197.61049520000233,197.61049520000233,197.61049520000233,197.61049520000233,197.61049520000233,197.61049520000233,002,P004,2025_Jan_18_1423,CategoryLocalizer,2021.2.3,59.92441134661594,
145.8,146.0,5,0.0,Stimuli\Blank.png,0,0,0,245,245,245,,,,,,,,,,,,,145.8100377999981,0.010037799998087849,5,0.1634368999984872,198.39458300000115,198.39458300000115,198.39458300000115,198.39458300000115,198.39458300000115,198.39458300000115,198.39458300000115,198.39458300000115,002,P004,2025_Jan_18_1423,CategoryLocalizer,2021.2.3,59.92441134661594,
146.0,146.8,2,0.75,Stimuli\ImageFiles-Set2\Bodies\Bodies_Falling_00005.png,0,0,0,246,246,246,,,,,,,,,,,,,146.01046419999693,0.010464199996931711,None,,198.5946984000002,198.5946984000002,198.5946984000002,198.5946984000002,198.5946984000002,198.5946984000002,198.5946984000002,198.5946984000002,002,P004,2025_Jan_18_1423,CategoryLocalizer,2021.2.3,59.92441134661594,
146.8,147.0,5,0.0,Stimuli\Blank.png,0,0,0,247,247,247,,,,,,,,,,,,,146.81182269999772,0.011822699997708241,None,,199.3954006999993,199.3954006999993,199.3954006999993,199.3954006999993,199.3954006999993,199.3954006999993,199.3954006999993,199.3954006999993,002,P004,2025_Jan_18_1423,CategoryLocalizer,2021.2.3,59.92441134661594,
147.0,147.8,2,0.75,Stimuli\ImageFiles-Set2\Bodies\Bodies_PushUp_00003.png,0,0,0,248,248,248,,,,,,,,,,,,,147.0123121999968,0.012312199996813433,None,,199.61227810000128,199.61227810000128,199.61227810000128,199.61227810000128,199.61227810000128,199.61227810000128,199.61227810000128,199.61227810000128,002,P004,2025_Jan_18_1423,CategoryLocalizer,2021.2.3,59.92441134661594,
147.8,148.0,5,0.0,Stimuli\Blank.png,0,0,0,249,249,249,,,,,,,,,,,,,147.82983929999682,0.029839299996808677,5,0.1449276999992435,200.41294059999927,200.41294059999927,200.41294059999927,200.41294059999927,200.41294059999927,200.41294059999927,200.41294059999927,200.41294059999927,002,P004,2025_Jan_18_1423,CategoryLocalizer,2021.2.3,59.92441134661594,
148.0,148.8,2,0.75,Stimuli\ImageFiles-Set2\Bodies\Bodies_Kicking_00004.png,0,0,0,250,250,250,,,,,,,,,,,,,148.0129485999969,0.012948599996889243,None,,200.59648390000075,200.59648390000075,200.59648390000075,200.59648390000075,200.59648390000075,200.59648390000075,200.59648390000075,200.59648390000075,002,P004,2025_Jan_18_1423,CategoryLocalizer,2021.2.3,59.92441134661594,
148.8,149.0,5,0.0,Stimuli\Blank.png,0,0,0,251,251,251,,,,,,,,,,,,,148.81329069999992,0.013290699999913613,None,,201.3971657000002,201.3971657000002,201.3971657000002,201.3971657000002,201.3971657000002,201.3971657000002,201.3971657000002,201.3971657000002,002,P004,2025_Jan_18_1423,CategoryLocalizer,2021.2.3,59.92441134661594,
149.0,149.8,2,0.75,Stimuli\ImageFiles-Set2\Bodies\Bodies_SittingChair_00004.png,0,0,0,252,252,252,,,,,,,,,,,,,149.01293950000036,0.01293950000035693,None,,201.5973354000016,201.5973354000016,201.5973354000016,201.5973354000016,201.5973354000016,201.5973354000016,201.5973354000016,201.5973354000016,002,P004,2025_Jan_18_1423,CategoryLocalizer,2021.2.3,59.92441134661594,
149.8,150.0,5,0.0,Stimuli\Blank.png,0,0,0,253,253,253,,,,,,,,,,,,,149.81614439999976,0.01614439999974593,5,0.14305339999918942,202.41474550000203,202.41474550000203,202.41474550000203,202.41474550000203,202.41474550000203,202.41474550000203,202.41474550000203,202.41474550000203,002,P004,2025_Jan_18_1423,CategoryLocalizer,2021.2.3,59.92441134661594,
150.0,150.8,2,0.75,Stimuli\ImageFiles-Set2\Bodies\Bodies_Waving_00006.png,0,0,0,254,254,254,,,,,,,,,,,,,150.0140262999994,0.014026299999386538,None,,202.5982335000008,202.5982335000008,202.5982335000008,202.5982335000008,202.5982335000008,202.5982335000008,202.5982335000008,202.5982335000008,002,P004,2025_Jan_18_1423,CategoryLocalizer,2021.2.3,59.92441134661594,
150.8,151.0,5,0.0,Stimuli\Blank.png,0,0,0,255,255,255,,,,,,,,,,,,,150.8164932999971,0.016493299997080157,None,,203.41562780000095,203.41562780000095,203.41562780000095,203.41562780000095,203.41562780000095,203.41562780000095,203.41562780000095,203.41562780000095,002,P004,2025_Jan_18_1423,CategoryLocalizer,2021.2.3,59.92441134661594,
151.0,151.8,2,0.75,Stimuli\ImageFiles-Set2\Bodies\Bodies_DownwardDog_00004.png,0,0,0,256,256,256,,,,,,,,,,,,,151.0157419999996,0.015741999999590917,None,,203.59910920000038,203.59910920000038,203.59910920000038,203.59910920000038,203.59910920000038,203.59910920000038,203.59910920000038,203.59910920000038,002,P004,2025_Jan_18_1423,CategoryLocalizer,2021.2.3,59.92441134661594,
151.8,152.0,5,0.0,Stimuli\Blank.png,0,0,0,257,257,257,,,,,,,,,,,,,151.799109399999,-0.0008906000010142634,None,,204.38312340000266,204.38312340000266,204.38312340000266,204.38312340000266,204.38312340000266,204.38312340000266,204.38312340000266,204.38312340000266,002,P004,2025_Jan_18_1423,CategoryLocalizer,2021.2.3,59.92441134661594,
152.0,164.0,0,0.0,Stimuli\Blank.png,0,0,0,258,258,258,,,,,,,,,,,,,152.00006859999849,6.859999848529696e-05,5,11.97441550000076,204.58337350000147,204.58337350000147,204.58337350000147,204.58337350000147,204.58337350000147,204.58337350000147,204.58337350000147,204.58337350000147,002,P004,2025_Jan_18_1423,CategoryLocalizer,2021.2.3,59.92441134661594,
164.0,164.8,4,0.75,Stimuli\ImageFiles-Set2\Scenes\Scenes_117.png,0,0,0,259,259,259,,,,,,,,,,,,,164.01042629999938,0.010426299999380717,None,,216.6105247000014,216.6105247000014,216.6105247000014,216.6105247000014,216.6105247000014,216.6105247000014,216.6105247000014,216.6105247000014,002,P004,2025_Jan_18_1423,CategoryLocalizer,2021.2.3,59.92441134661594,
164.8,165.0,5,0.0,Stimuli\Blank.png,0,0,0,260,260,260,,,,,,,,,,,,,164.8276072999979,0.02760729999789646,None,,217.41125620000093,217.41125620000093,217.41125620000093,217.41125620000093,217.41125620000093,217.41125620000093,217.41125620000093,217.41125620000093,002,P004,2025_Jan_18_1423,CategoryLocalizer,2021.2.3,59.92441134661594,
165.0,165.8,4,0.75,Stimuli\ImageFiles-Set2\Scenes\Scenes_111.png,0,0,0,261,261,261,,,,,,,,,,,,,165.0108709999986,0.01087099999858765,None,,217.61142570000084,217.61142570000084,217.61142570000084,217.61142570000084,217.61142570000084,217.61142570000084,217.61142570000084,217.61142570000084,002,P004,2025_Jan_18_1423,CategoryLocalizer,2021.2.3,59.92441134661594,
165.8,166.0,5,0.0,Stimuli\Blank.png,0,0,0,262,262,262,,,,,,,,,,,,,165.82805789999838,0.02805789999837316,5,0.1458091999993485,218.41213790000256,218.41213790000256,218.41213790000256,218.41213790000256,218.41213790000256,218.41213790000256,218.41213790000256,218.41213790000256,002,P004,2025_Jan_18_1423,CategoryLocalizer,2021.2.3,59.92441134661594,
166.0,166.8,4,0.75,Stimuli\ImageFiles-Set2\Scenes\Scenes_092.png,0,0,0,263,263,263,,,,,,,,,,,,,166.01169359999767,0.01169359999767039,None,,218.61231469999984,218.61231469999984,218.61231469999984,218.61231469999984,218.61231469999984,218.61231469999984,218.61231469999984,218.61231469999984,002,P004,2025_Jan_18_1423,CategoryLocalizer,2021.2.3,59.92441134661594,
166.8,167.0,5,0.0,Stimuli\Blank.png,0,0,0,264,264,264,,,,,,,,,,,,,166.8310810999974,0.031081099997379624,None,,219.4297222000023,219.4297222000023,219.4297222000023,219.4297222000023,219.4297222000023,219.4297222000023,219.4297222000023,219.4297222000023,002,P004,2025_Jan_18_1423,CategoryLocalizer,2021.2.3,59.92441134661594,
167.0,167.8,4,0.75,Stimuli\ImageFiles-Set2\Scenes\Scenes_092.png,1,1,0,265,265,265,,,,,,,,,,,,,167.02883999999904,0.02883999999903608,4,0.5837054000003263,219.6131955000019,219.6131955000019,219.6131955000019,219.6131955000019,219.6131955000019,219.6131955000019,219.6131955000019,219.6131955000019,002,P004,2025_Jan_18_1423,CategoryLocalizer,2021.2.3,59.92441134661594,
167.8,168.0,5,0.0,Stimuli\Blank.png,0,0,0,266,266,266,,,,,,,,,,,,,167.81279019999783,0.012790199997823493,5,0.16071050000027753,220.3972195000024,220.3972195000024,220.3972195000024,220.3972195000024,220.3972195000024,220.3972195000024,220.3972195000024,220.3972195000024,002,P004,2025_Jan_18_1423,CategoryLocalizer,2021.2.3,59.92441134661594,
168.0,168.8,4,0.75,Stimuli\ImageFiles-Set2\Scenes\Scenes_072.png,0,0,0,267,267,267,,,,,,,,,,,,,168.01338889999897,0.013388899998972192,None,,220.59739600000103,220.59739600000103,220.59739600000103,220.59739600000103,220.59739600000103,220.59739600000103,220.59739600000103,220.59739600000103,002,P004,2025_Jan_18_1423,CategoryLocalizer,2021.2.3,59.92441134661594,
168.8,169.0,5,0.0,Stimuli\Blank.png,0,0,0,268,268,268,,,,,,,,,,,,,168.81469619999916,0.014696199999150394,None,,221.398116700002,221.398116700002,221.398116700002,221.398116700002,221.398116700002,221.398116700002,221.398116700002,221.398116700002,002,P004,2025_Jan_18_1423,CategoryLocalizer,2021.2.3,59.92441134661594,
169.0,169.8,4,0.75,Stimuli\ImageFiles-Set2\Scenes\Scenes_110.png,0,0,0,269,269,269,,,,,,,,,,,,,169.01629519999915,0.01629519999914919,None,,221.6149566999993,221.6149566999993,221.6149566999993,221.6149566999993,221.6149566999993,221.6149566999993,221.6149566999993,221.6149566999993,002,P004,2025_Jan_18_1423,CategoryLocalizer,2021.2.3,59.92441134661594,
169.8,170.0,5,0.0,Stimuli\Blank.png,0,0,0,270,270,270,,,,,,,,,,,,,169.81642159999683,0.016421599996817804,5,0.14237109999885433,222.41568000000188,222.41568000000188,222.41568000000188,222.41568000000188,222.41568000000188,222.41568000000188,222.41568000000188,222.41568000000188,002,P004,2025_Jan_18_1423,CategoryLocalizer,2021.2.3,59.92441134661594,
170.0,170.8,4,0.75,Stimuli\ImageFiles-Set2\Scenes\Scenes_108.png,0,0,0,271,271,271,,,,,,,,,,,,,170.0171315999978,0.017131599997810554,None,,222.61609460000182,222.61609460000182,222.61609460000182,222.61609460000182,222.61609460000182,222.61609460000182,222.61609460000182,222.61609460000182,002,P004,2025_Jan_18_1423,CategoryLocalizer,2021.2.3,59.92441134661594,
170.8,171.0,5,0.0,Stimuli\Blank.png,0,0,0,272,272,272,,,,,,,,,,,,,170.81603929999983,0.016039299999818013,None,,223.3998571000011,223.3998571000011,223.3998571000011,223.3998571000011,223.3998571000011,223.3998571000011,223.3998571000011,223.3998571000011,002,P004,2025_Jan_18_1423,CategoryLocalizer,2021.2.3,59.92441134661594,
171.0,171.8,4,0.75,Stimuli\ImageFiles-Set2\Scenes\Scenes_076.png,0,0,0,273,273,273,,,,,,,,,,,,,171.00138869999864,0.0013886999986425508,None,,223.6000344000022,223.6000344000022,223.6000344000022,223.6000344000022,223.6000344000022,223.6000344000022,223.6000344000022,223.6000344000022,002,P004,2025_Jan_18_1423,CategoryLocalizer,2021.2.3,59.92441134661594,
171.8,172.0,5,0.0,Stimuli\Blank.png,0,0,0,274,274,274,,,,,,,,,,,,,171.8169643000001,0.01696430000009741,None,,224.40074590000222,224.40074590000222,224.40074590000222,224.40074590000222,224.40074590000222,224.40074590000222,224.40074590000222,224.40074590000222,002,P004,2025_Jan_18_1423,CategoryLocalizer,2021.2.3,59.92441134661594,
172.0,172.8,4,0.75,Stimuli\ImageFiles-Set2\Scenes\Scenes_113.png,0,0,0,275,275,275,,,,,,,,,,,,,172.00243209999826,0.0024320999982592184,None,,224.60094630000094,224.60094630000094,224.60094630000094,224.60094630000094,224.60094630000094,224.60094630000094,224.60094630000094,224.60094630000094,002,P004,2025_Jan_18_1423,CategoryLocalizer,2021.2.3,59.92441134661594,
172.8,173.0,5,0.0,Stimuli\Blank.png,0,0,0,276,276,276,,,,,,,,,,,,,172.81757730000027,0.017577300000255036,None,,225.4015997000024,225.4015997000024,225.4015997000024,225.4015997000024,225.4015997000024,225.4015997000024,225.4015997000024,225.4015997000024,002,P004,2025_Jan_18_1423,CategoryLocalizer,2021.2.3,59.92441134661594,
173.0,173.8,4,0.75,Stimuli\ImageFiles-Set2\Scenes\Scenes_091.png,0,0,0,277,277,277,,,,,,,,,,,,,173.00095080000028,0.0009508000002824701,None,,225.58511670000007,225.58511670000007,225.58511670000007,225.58511670000007,225.58511670000007,225.58511670000007,225.58511670000007,225.58511670000007,002,P004,2025_Jan_18_1423,CategoryLocalizer,2021.2.3,59.92441134661594,
173.8,174.0,5,0.0,Stimuli\Blank.png,0,0,0,278,278,278,,,,,,,,,,,,,173.80229589999726,0.002295899997250217,None,,226.38583760000256,226.38583760000256,226.38583760000256,226.38583760000256,226.38583760000256,226.38583760000256,226.38583760000256,226.38583760000256,002,P004,2025_Jan_18_1423,CategoryLocalizer,2021.2.3,59.92441134661594,
174.0,174.8,4,0.75,Stimuli\ImageFiles-Set2\Scenes\Scenes_083.png,0,0,0,279,279,279,,,,,,,,,,,,,174.00279199999932,0.0027919999993173406,None,,226.60267620000013,226.60267620000013,226.60267620000013,226.60267620000013,226.60267620000013,226.60267620000013,226.60267620000013,226.60267620000013,002,P004,2025_Jan_18_1423,CategoryLocalizer,2021.2.3,59.92441134661594,
174.8,175.0,5,0.0,Stimuli\Blank.png,0,0,0,280,280,280,,,,,,,,,,,,,174.82036169999992,0.020361699999909888,None,,227.4034016000005,227.4034016000005,227.4034016000005,227.4034016000005,227.4034016000005,227.4034016000005,227.4034016000005,227.4034016000005,002,P004,2025_Jan_18_1423,CategoryLocalizer,2021.2.3,59.92441134661594,
175.0,175.8,4,0.75,Stimuli\ImageFiles-Set2\Scenes\Scenes_069.png,0,0,0,281,281,281,,,,,,,,,,,,,175.0023661999985,0.0023661999985051807,None,,227.5868752000024,227.5868752000024,227.5868752000024,227.5868752000024,227.5868752000024,227.5868752000024,227.5868752000024,227.5868752000024,002,P004,2025_Jan_18_1423,CategoryLocalizer,2021.2.3,59.92441134661594,
175.8,176.0,5,0.0,Stimuli\Blank.png,0,0,0,282,282,282,,,,,,,,,,,,,175.80394799999704,0.003947999997023999,None,,228.38758980000057,228.38758980000057,228.38758980000057,228.38758980000057,228.38758980000057,228.38758980000057,228.38758980000057,228.38758980000057,002,P004,2025_Jan_18_1423,CategoryLocalizer,2021.2.3,59.92441134661594,
