eventStartTime,eventEndTime,eventCond,imSize,imFile,repeatedImage,responseEvent,Events.thisRepN,Events.thisTrialN,Events.thisN,Events.thisIndex,Instructions.started,Instructions.stopped,participantReadyResponse.keys,participantReadyResponse.rt,participantReadyResponse.started,participantReadyResponse.stopped,startWaitforTrigger,triggerResponse.keys,triggerResponse.rt,triggerResponse.started,triggerResponse.stopped,globalTimer,actualStartTime,startTimingDiff,participantResponse.keys,participantResponse.rt,participantResponse.started,participantResponse.stopped,image.started,image.stopped,fixationOutside.started,fixationOutside.stopped,fixationInside.started,fixationInside.stopped,session,participant,date,expName,psychopyVersion,frameRate,
,,,,,,,,,,,12.571269899999606,None,4,15.651681500003178,12.571269899999606,None,,,,,,,,,,,,,,,,,,,003,P004,2025_Jan_18_1452,CategoryLocalizer,2021.2.3,59.927176494365,
,,,,,,,,,,,,,,,,,28.23390080000172,5,14.664571600002091,28.247233900001447,None,,,,,,,,,,,,,,003,P004,2025_Jan_18_1452,CategoryLocalizer,2021.2.3,59.927176494365,
0.0,12.0,0,0.0,Stimuli\Blank.png,0,0,0,0,0,0,,,,,,,,,,,,42.930331899999146,0.04432950000045821,0.04432950000045821,5,11.918439599998237,42.99350630000117,None,42.99350630000117,None,42.99350630000117,None,42.99350630000117,None,003,P004,2025_Jan_18_1452,CategoryLocalizer,2021.2.3,59.927176494365,
12.0,12.8,1,0.75,Stimuli\ImageFiles-Set1\Objects\Object_Key_00001.png,0,0,0,1,1,1,,,,,,,,,,,,,12.010121000002982,0.010121000002982328,None,,54.95404150000104,54.95404150000104,54.95404150000104,54.95404150000104,54.95404150000104,54.95404150000104,54.95404150000104,54.95404150000104,003,P004,2025_Jan_18_1452,CategoryLocalizer,2021.2.3,59.927176494365,
12.8,13.0,5,0.0,Stimuli\Blank.png,0,0,0,2,2,2,,,,,,,,,,,,,12.810359800001606,0.010359800001605635,None,,55.75477039999896,55.75477039999896,55.75477039999896,55.75477039999896,55.75477039999896,55.75477039999896,55.75477039999896,55.75477039999896,003,P004,2025_Jan_18_1452,CategoryLocalizer,2021.2.3,59.927176494365,
13.0,13.8,1,0.75,Stimuli\ImageFiles-Set1\Objects\Object_Lamp_00001.png,0,0,0,3,3,3,,,,,,,,,,,,,13.010535100002016,0.010535100002016407,None,,55.95491640000182,55.95491640000182,55.95491640000182,55.95491640000182,55.95491640000182,55.95491640000182,55.95491640000182,55.95491640000182,003,P004,2025_Jan_18_1452,CategoryLocalizer,2021.2.3,59.927176494365,
13.8,14.0,5,0.0,Stimuli\Blank.png,0,0,0,4,4,4,,,,,,,,,,,,,13.811266800003068,0.011266800003067345,5,0.15612099999998463,56.755617099999654,56.755617099999654,56.755617099999654,56.755617099999654,56.755617099999654,56.755617099999654,56.755617099999654,56.755617099999654,003,P004,2025_Jan_18_1452,CategoryLocalizer,2021.2.3,59.927176494365,
14.0,14.8,1,0.75,Stimuli\ImageFiles-Set1\Objects\Object_Watch_00001.png,0,0,0,5,5,5,,,,,,,,,,,,,14.011078300001827,0.011078300001827301,None,,56.972520899998926,56.972520899998926,56.972520899998926,56.972520899998926,56.972520899998926,56.972520899998926,56.972520899998926,56.972520899998926,003,P004,2025_Jan_18_1452,CategoryLocalizer,2021.2.3,59.927176494365,
14.8,15.0,5,0.0,Stimuli\Blank.png,0,0,0,6,6,6,,,,,,,,,,,,,14.830544500000542,0.03054450000054132,None,,57.789877800001705,57.789877800001705,57.789877800001705,57.789877800001705,57.789877800001705,57.789877800001705,57.789877800001705,57.789877800001705,003,P004,2025_Jan_18_1452,CategoryLocalizer,2021.2.3,59.927176494365,
15.0,15.8,1,0.75,Stimuli\ImageFiles-Set1\Objects\Object_Matches_00001.png,0,0,0,7,7,7,,,,,,,,,,,,,15.030010900001798,0.03001090000179829,None,,57.99004799999966,57.99004799999966,57.99004799999966,57.99004799999966,57.99004799999966,57.99004799999966,57.99004799999966,57.99004799999966,003,P004,2025_Jan_18_1452,CategoryLocalizer,2021.2.3,59.927176494365,
15.8,16.0,5,0.0,Stimuli\Blank.png,0,0,0,8,8,8,,,,,,,,,,,,,15.829577900000004,0.029577900000003154,5,0.1376139999993029,58.77407400000084,58.77407400000084,58.77407400000084,58.77407400000084,58.77407400000084,58.77407400000084,58.77407400000084,58.77407400000084,003,P004,2025_Jan_18_1452,CategoryLocalizer,2021.2.3,59.927176494365,
16.0,16.8,1,0.75,Stimuli\ImageFiles-Set1\Objects\Object_Motorcycle_00001.png,0,0,0,9,9,9,,,,,,,,,,,,,16.014522000001307,0.014522000001306878,None,,58.97425300000032,58.97425300000032,58.97425300000032,58.97425300000032,58.97425300000032,58.97425300000032,58.97425300000032,58.97425300000032,003,P004,2025_Jan_18_1452,CategoryLocalizer,2021.2.3,59.927176494365,
16.8,17.0,5,0.0,Stimuli\Blank.png,0,0,0,10,10,10,,,,,,,,,,,,,16.83040670000264,0.030406700002640008,None,,59.77495280000221,59.77495280000221,59.77495280000221,59.77495280000221,59.77495280000221,59.77495280000221,59.77495280000221,59.77495280000221,003,P004,2025_Jan_18_1452,CategoryLocalizer,2021.2.3,59.927176494365,
17.0,17.8,1,0.75,Stimuli\ImageFiles-Set1\Objects\Object_Sock_00001.png,0,0,0,11,11,11,,,,,,,,,,,,,17.014385200000106,0.014385200000106124,None,,59.97514919999958,59.97514919999958,59.97514919999958,59.97514919999958,59.97514919999958,59.97514919999958,59.97514919999958,59.97514919999958,003,P004,2025_Jan_18_1452,CategoryLocalizer,2021.2.3,59.927176494365,
17.8,18.0,5,0.0,Stimuli\Blank.png,0,0,0,12,12,12,,,,,,,,,,,,,17.83082750000176,0.03082750000175949,5,0.13581880000128876,60.77583009999944,60.77583009999944,60.77583009999944,60.77583009999944,60.77583009999944,60.77583009999944,60.77583009999944,60.77583009999944,003,P004,2025_Jan_18_1452,CategoryLocalizer,2021.2.3,59.927176494365,
18.0,18.8,1,0.75,Stimuli\ImageFiles-Set1\Objects\Object_Pencil_00001.png,0,0,0,13,13,13,,,,,,,,,,,,,18.01523630000156,0.015236300001561176,None,,60.95933100000184,60.95933100000184,60.95933100000184,60.95933100000184,60.95933100000184,60.95933100000184,60.95933100000184,60.95933100000184,003,P004,2025_Jan_18_1452,CategoryLocalizer,2021.2.3,59.927176494365,
18.8,19.0,5,0.0,Stimuli\Blank.png,0,0,0,14,14,14,,,,,,,,,,,,,18.80083320000267,0.0008332000026705089,None,,61.7600448000012,61.7600448000012,61.7600448000012,61.7600448000012,61.7600448000012,61.7600448000012,61.7600448000012,61.7600448000012,003,P004,2025_Jan_18_1452,CategoryLocalizer,2021.2.3,59.927176494365,
19.0,19.8,1,0.75,Stimuli\ImageFiles-Set1\Objects\Object_Pencil_00001.png,1,1,0,15,15,15,,,,,,,,,,,,,19.015652500002034,0.015652500002033776,4,0.4574326999972982,61.960209900000336,61.960209900000336,61.960209900000336,61.960209900000336,61.960209900000336,61.960209900000336,61.960209900000336,61.960209900000336,003,P004,2025_Jan_18_1452,CategoryLocalizer,2021.2.3,59.927176494365,
19.8,20.0,5,0.0,Stimuli\Blank.png,0,0,0,16,16,16,,,,,,,,,,,,,19.799608600002102,-0.00039139999789838953,5,0.16749440000057803,62.7442403999994,62.7442403999994,62.7442403999994,62.7442403999994,62.7442403999994,62.7442403999994,62.7442403999994,62.7442403999994,003,P004,2025_Jan_18_1452,CategoryLocalizer,2021.2.3,59.927176494365,
20.0,20.8,1,0.75,Stimuli\ImageFiles-Set1\Objects\Object_Whistle_00001.png,0,0,0,17,17,17,,,,,,,,,,,,,19.999968300002365,-3.1699997634859756e-05,None,,62.9444141999993,62.9444141999993,62.9444141999993,62.9444141999993,62.9444141999993,62.9444141999993,62.9444141999993,62.9444141999993,003,P004,2025_Jan_18_1452,CategoryLocalizer,2021.2.3,59.927176494365,
20.8,21.0,5,0.0,Stimuli\Blank.png,0,0,0,18,18,18,,,,,,,,,,,,,20.800869700000476,0.0008697000004751487,None,,63.74517660000129,63.74517660000129,63.74517660000129,63.74517660000129,63.74517660000129,63.74517660000129,63.74517660000129,63.74517660000129,003,P004,2025_Jan_18_1452,CategoryLocalizer,2021.2.3,59.927176494365,
21.0,21.8,1,0.75,Stimuli\ImageFiles-Set1\Objects\Object_Gun_00001.png,0,0,0,19,19,19,,,,,,,,,,,,,21.00023599999986,0.00023599999985890463,None,,63.94535900000119,63.94535900000119,63.94535900000119,63.94535900000119,63.94535900000119,63.94535900000119,63.94535900000119,63.94535900000119,003,P004,2025_Jan_18_1452,CategoryLocalizer,2021.2.3,59.927176494365,
21.8,22.0,5,0.0,Stimuli\Blank.png,0,0,0,20,20,20,,,,,,,,,,,,,21.80180790000304,0.0018079000030404302,5,0.1656476999996812,64.74599990000206,64.74599990000206,64.74599990000206,64.74599990000206,64.74599990000206,64.74599990000206,64.74599990000206,64.74599990000206,003,P004,2025_Jan_18_1452,CategoryLocalizer,2021.2.3,59.927176494365,
22.0,22.8,1,0.75,Stimuli\ImageFiles-Set1\Objects\Object_Shirt_00001.png,0,0,0,21,21,21,,,,,,,,,,,,,22.001317500002187,0.001317500002187444,None,,64.96286630000031,64.96286630000031,64.96286630000031,64.96286630000031,64.96286630000031,64.96286630000031,64.96286630000031,64.96286630000031,003,P004,2025_Jan_18_1452,CategoryLocalizer,2021.2.3,59.927176494365,
22.8,23.0,5,0.0,Stimuli\Blank.png,0,0,0,22,22,22,,,,,,,,,,,,,22.819536599999992,0.019536599999991466,None,,65.7635678000006,65.7635678000006,65.7635678000006,65.7635678000006,65.7635678000006,65.7635678000006,65.7635678000006,65.7635678000006,003,P004,2025_Jan_18_1452,CategoryLocalizer,2021.2.3,59.927176494365,
23.0,23.8,1,0.75,Stimuli\ImageFiles-Set1\Objects\Object_Scale_00001.png,0,0,0,23,23,23,,,,,,,,,,,,,23.004285900002287,0.004285900002287235,None,,65.96377349999966,65.96377349999966,65.96377349999966,65.96377349999966,65.96377349999966,65.96377349999966,65.96377349999966,65.96377349999966,003,P004,2025_Jan_18_1452,CategoryLocalizer,2021.2.3,59.927176494365,
23.8,24.0,5,0.0,Stimuli\Blank.png,0,0,0,24,24,24,,,,,,,,,,,,,23.819511600002443,0.01951160000244201,5,0.14721179999833112,66.76444940000147,66.76444940000147,66.76444940000147,66.76444940000147,66.76444940000147,66.76444940000147,66.76444940000147,66.76444940000147,003,P004,2025_Jan_18_1452,CategoryLocalizer,2021.2.3,59.927176494365,
24.0,24.8,1,0.75,Stimuli\ImageFiles-Set1\Objects\Object_Card_00001.png,0,0,0,25,25,25,,,,,,,,,,,,,24.00287550000212,0.0028755000021192245,None,,66.94793299999947,66.94793299999947,66.94793299999947,66.94793299999947,66.94793299999947,66.94793299999947,66.94793299999947,66.94793299999947,003,P004,2025_Jan_18_1452,CategoryLocalizer,2021.2.3,59.927176494365,
24.8,25.0,5,0.0,Stimuli\Blank.png,0,0,0,26,26,26,,,,,,,,,,,,,24.80407650000052,0.004076500000518735,None,,67.74864359999992,67.74864359999992,67.74864359999992,67.74864359999992,67.74864359999992,67.74864359999992,67.74864359999992,67.74864359999992,003,P004,2025_Jan_18_1452,CategoryLocalizer,2021.2.3,59.927176494365,
25.0,25.8,1,0.75,Stimuli\ImageFiles-Set1\Objects\Object_TeaBag_00001.png,0,0,0,27,27,27,,,,,,,,,,,,,25.00524420000147,0.005244200001470745,None,,67.96551140000156,67.96551140000156,67.96551140000156,67.96551140000156,67.96551140000156,67.96551140000156,67.96551140000156,67.96551140000156,003,P004,2025_Jan_18_1452,CategoryLocalizer,2021.2.3,59.927176494365,
25.8,26.0,5,0.0,Stimuli\Blank.png,0,0,0,28,28,28,,,,,,,,,,,,,25.821293400000286,0.021293400000285345,5,0.14558870000109891,68.76620700000058,68.76620700000058,68.76620700000058,68.76620700000058,68.76620700000058,68.76620700000058,68.76620700000058,68.76620700000058,003,P004,2025_Jan_18_1452,CategoryLocalizer,2021.2.3,59.927176494365,
26.0,26.8,1,0.75,Stimuli\ImageFiles-Set1\Objects\Object_Airplane_00001.png,0,0,0,29,29,29,,,,,,,,,,,,,26.00474110000141,0.004741100001410814,None,,68.9496994000001,68.9496994000001,68.9496994000001,68.9496994000001,68.9496994000001,68.9496994000001,68.9496994000001,68.9496994000001,003,P004,2025_Jan_18_1452,CategoryLocalizer,2021.2.3,59.927176494365,
26.8,27.0,5,0.0,Stimuli\Blank.png,0,0,0,30,30,30,,,,,,,,,,,,,26.80559859999994,0.005598599999938614,None,,69.75042459999895,69.75042459999895,69.75042459999895,69.75042459999895,69.75042459999895,69.75042459999895,69.75042459999895,69.75042459999895,003,P004,2025_Jan_18_1452,CategoryLocalizer,2021.2.3,59.927176494365,
27.0,27.8,1,0.75,Stimuli\ImageFiles-Set1\Objects\Object_Stool_00001.png,0,0,0,31,31,31,,,,,,,,,,,,,27.00605910000013,0.006059100000129547,None,,69.9505797999991,69.9505797999991,69.9505797999991,69.9505797999991,69.9505797999991,69.9505797999991,69.9505797999991,69.9505797999991,003,P004,2025_Jan_18_1452,CategoryLocalizer,2021.2.3,59.927176494365,
27.8,28.0,5,0.0,Stimuli\Blank.png,0,0,0,32,32,32,,,,,,,,,,,,,27.806530400001066,0.006530400001064862,5,0.16026330000022426,70.75134489999982,70.75134489999982,70.75134489999982,70.75134489999982,70.75134489999982,70.75134489999982,70.75134489999982,70.75134489999982,003,P004,2025_Jan_18_1452,CategoryLocalizer,2021.2.3,59.927176494365,
28.0,28.8,2,0.75,Stimuli\ImageFiles-Set1\Bodies\Bodies_PushUp_00004.png,0,0,0,33,33,33,,,,,,,,,,,,,28.007373899999948,0.007373899999947753,None,,70.96816640000179,70.96816640000179,70.96816640000179,70.96816640000179,70.96816640000179,70.96816640000179,70.96816640000179,70.96816640000179,003,P004,2025_Jan_18_1452,CategoryLocalizer,2021.2.3,59.927176494365,
28.8,29.0,5,0.0,Stimuli\Blank.png,0,0,0,34,34,34,,,,,,,,,,,,,28.82459260000178,0.02459260000177821,None,,71.76885430000038,71.76885430000038,71.76885430000038,71.76885430000038,71.76885430000038,71.76885430000038,71.76885430000038,71.76885430000038,003,P004,2025_Jan_18_1452,CategoryLocalizer,2021.2.3,59.927176494365,
29.0,29.8,2,0.75,Stimuli\ImageFiles-Set1\Bodies\Bodies_Lunging_00004.png,0,0,0,35,35,35,,,,,,,,,,,,,29.00964810000005,0.009648100000049453,None,,71.96902950000003,71.96902950000003,71.96902950000003,71.96902950000003,71.96902950000003,71.96902950000003,71.96902950000003,71.96902950000003,003,P004,2025_Jan_18_1452,CategoryLocalizer,2021.2.3,59.927176494365,
29.8,30.0,5,0.0,Stimuli\Blank.png,0,0,0,36,36,36,,,,,,,,,,,,,29.826112900002045,0.026112900002043915,5,0.1418950000006589,72.76973980000184,72.76973980000184,72.76973980000184,72.76973980000184,72.76973980000184,72.76973980000184,72.76973980000184,72.76973980000184,003,P004,2025_Jan_18_1452,CategoryLocalizer,2021.2.3,59.927176494365,
30.0,30.8,2,0.75,Stimuli\ImageFiles-Set1\Bodies\Bodies_DownwardDog_00003.png,0,0,0,37,37,37,,,,,,,,,,,,,30.008186600000045,0.008186600000044564,None,,72.95325620000222,72.95325620000222,72.95325620000222,72.95325620000222,72.95325620000222,72.95325620000222,72.95325620000222,72.95325620000222,003,P004,2025_Jan_18_1452,CategoryLocalizer,2021.2.3,59.927176494365,
30.8,31.0,5,0.0,Stimuli\Blank.png,0,0,0,38,38,38,,,,,,,,,,,,,30.8094087999998,0.009408799999800266,None,,73.75393360000089,73.75393360000089,73.75393360000089,73.75393360000089,73.75393360000089,73.75393360000089,73.75393360000089,73.75393360000089,003,P004,2025_Jan_18_1452,CategoryLocalizer,2021.2.3,59.927176494365,
31.0,31.8,2,0.75,Stimuli\ImageFiles-Set1\Bodies\Bodies_Standing_00001.png,0,0,0,39,39,39,,,,,,,,,,,,,31.01037340000039,0.010373400000389665,None,,73.9708126000005,73.9708126000005,73.9708126000005,73.9708126000005,73.9708126000005,73.9708126000005,73.9708126000005,73.9708126000005,003,P004,2025_Jan_18_1452,CategoryLocalizer,2021.2.3,59.927176494365,
31.8,32.0,5,0.0,Stimuli\Blank.png,0,0,0,40,40,40,,,,,,,,,,,,,31.82732120000219,0.02732120000218785,5,0.14036610000039218,74.7715070000013,74.7715070000013,74.7715070000013,74.7715070000013,74.7715070000013,74.7715070000013,74.7715070000013,74.7715070000013,003,P004,2025_Jan_18_1452,CategoryLocalizer,2021.2.3,59.927176494365,
32.0,32.8,2,0.75,Stimuli\ImageFiles-Set1\Bodies\Bodies_Pushing_00003.png,0,0,0,41,41,41,,,,,,,,,,,,,32.01091670000096,0.01091670000096201,None,,74.95499199999904,74.95499199999904,74.95499199999904,74.95499199999904,74.95499199999904,74.95499199999904,74.95499199999904,74.95499199999904,003,P004,2025_Jan_18_1452,CategoryLocalizer,2021.2.3,59.927176494365,
32.8,33.0,5,0.0,Stimuli\Blank.png,0,0,0,42,42,42,,,,,,,,,,,,,32.810922700002266,0.01092270000226847,None,,75.75570100000186,75.75570100000186,75.75570100000186,75.75570100000186,75.75570100000186,75.75570100000186,75.75570100000186,75.75570100000186,003,P004,2025_Jan_18_1452,CategoryLocalizer,2021.2.3,59.927176494365,
33.0,33.8,2,0.75,Stimuli\ImageFiles-Set1\Bodies\Bodies_Jumping_00006.png,0,0,0,43,43,43,,,,,,,,,,,,,33.01128510000126,0.011285100001259707,None,,75.97256449999986,75.97256449999986,75.97256449999986,75.97256449999986,75.97256449999986,75.97256449999986,75.97256449999986,75.97256449999986,003,P004,2025_Jan_18_1452,CategoryLocalizer,2021.2.3,59.927176494365,
33.8,34.0,5,0.0,Stimuli\Blank.png,0,0,0,44,44,44,,,,,,,,,,,,,33.82895700000154,0.028957000001540223,5,0.13839500000176486,76.77327480000167,76.77327480000167,76.77327480000167,76.77327480000167,76.77327480000167,76.77327480000167,76.77327480000167,76.77327480000167,003,P004,2025_Jan_18_1452,CategoryLocalizer,2021.2.3,59.927176494365,
34.0,34.8,2,0.75,Stimuli\ImageFiles-Set1\Bodies\Bodies_Jumping_00006.png,1,1,0,45,45,45,,,,,,,,,,,,,34.012018700002955,0.012018700002954574,4,0.47289249999812455,76.9567547000006,76.9567547000006,76.9567547000006,76.9567547000006,76.9567547000006,76.9567547000006,76.9567547000006,76.9567547000006,003,P004,2025_Jan_18_1452,CategoryLocalizer,2021.2.3,59.927176494365,
34.8,35.0,5,0.0,Stimuli\Blank.png,0,0,0,46,46,46,,,,,,,,,,,,,34.81345910000164,0.013459100001639968,None,,77.75751659999878,77.75751659999878,77.75751659999878,77.75751659999878,77.75751659999878,77.75751659999878,77.75751659999878,77.75751659999878,003,P004,2025_Jan_18_1452,CategoryLocalizer,2021.2.3,59.927176494365,
35.0,35.8,2,0.75,Stimuli\ImageFiles-Set1\Bodies\Bodies_Waving_00005.png,0,0,0,47,47,47,,,,,,,,,,,,,35.0144031000018,0.01440310000180034,None,,77.9743254999994,77.9743254999994,77.9743254999994,77.9743254999994,77.9743254999994,77.9743254999994,77.9743254999994,77.9743254999994,003,P004,2025_Jan_18_1452,CategoryLocalizer,2021.2.3,59.927176494365,
35.8,36.0,5,0.0,Stimuli\Blank.png,0,0,0,48,48,48,,,,,,,,,,,,,35.83022930000152,0.030229300001522574,5,0.13659950000146637,78.77501889999985,78.77501889999985,78.77501889999985,78.77501889999985,78.77501889999985,78.77501889999985,78.77501889999985,78.77501889999985,003,P004,2025_Jan_18_1452,CategoryLocalizer,2021.2.3,59.927176494365,
36.0,36.8,2,0.75,Stimuli\ImageFiles-Set1\Bodies\Bodies_Standing_00003.png,0,0,0,49,49,49,,,,,,,,,,,,,36.01393690000259,0.013936900002590846,None,,78.95852179999929,78.95852179999929,78.95852179999929,78.95852179999929,78.95852179999929,78.95852179999929,78.95852179999929,78.95852179999929,003,P004,2025_Jan_18_1452,CategoryLocalizer,2021.2.3,59.927176494365,
36.8,37.0,5,0.0,Stimuli\Blank.png,0,0,0,50,50,50,,,,,,,,,,,,,36.81449799999973,0.014497999999733224,None,,79.75922229999924,79.75922229999924,79.75922229999924,79.75922229999924,79.75922229999924,79.75922229999924,79.75922229999924,79.75922229999924,003,P004,2025_Jan_18_1452,CategoryLocalizer,2021.2.3,59.927176494365,
37.0,37.8,2,0.75,Stimuli\ImageFiles-Set1\Bodies\Bodies_Punching_00006.png,0,0,0,51,51,51,,,,,,,,,,,,,37.01530560000174,0.01530560000173864,None,,79.97611550000147,79.97611550000147,79.97611550000147,79.97611550000147,79.97611550000147,79.97611550000147,79.97611550000147,79.97611550000147,003,P004,2025_Jan_18_1452,CategoryLocalizer,2021.2.3,59.927176494365,
37.8,38.0,5,0.0,Stimuli\Blank.png,0,0,0,52,52,52,,,,,,,,,,,,,37.81599710000228,0.015997100002280717,5,0.1515149000006204,80.76011030000154,80.76011030000154,80.76011030000154,80.76011030000154,80.76011030000154,80.76011030000154,80.76011030000154,80.76011030000154,003,P004,2025_Jan_18_1452,CategoryLocalizer,2021.2.3,59.927176494365,
38.0,38.8,2,0.75,Stimuli\ImageFiles-Set1\Bodies\Bodies_DownwardDog_00005.png,0,0,0,53,53,53,,,,,,,,,,,,,37.99923900000067,-0.0007609999993292149,None,,80.94360700000107,80.94360700000107,80.94360700000107,80.94360700000107,80.94360700000107,80.94360700000107,80.94360700000107,80.94360700000107,003,P004,2025_Jan_18_1452,CategoryLocalizer,2021.2.3,59.927176494365,
38.8,39.0,5,0.0,Stimuli\Blank.png,0,0,0,54,54,54,,,,,,,,,,,,,38.80004090000148,4.090000147982664e-05,None,,81.74430470000152,81.74430470000152,81.74430470000152,81.74430470000152,81.74430470000152,81.74430470000152,81.74430470000152,81.74430470000152,003,P004,2025_Jan_18_1452,CategoryLocalizer,2021.2.3,59.927176494365,
39.0,39.8,2,0.75,Stimuli\ImageFiles-Set1\Bodies\Bodies_SittingChair_00007.png,0,0,0,55,55,55,,,,,,,,,,,,,39.00199369999973,0.00199369999972987,None,,81.96134109999912,81.96134109999912,81.96134109999912,81.96134109999912,81.96134109999912,81.96134109999912,81.96134109999912,81.96134109999912,003,P004,2025_Jan_18_1452,CategoryLocalizer,2021.2.3,59.927176494365,
39.8,40.0,5,0.0,Stimuli\Blank.png,0,0,0,56,56,56,,,,,,,,,,,,,39.81731000000218,0.0173100000021833,5,0.14966389999972307,82.7618708000009,82.7618708000009,82.7618708000009,82.7618708000009,82.7618708000009,82.7618708000009,82.7618708000009,82.7618708000009,003,P004,2025_Jan_18_1452,CategoryLocalizer,2021.2.3,59.927176494365,
40.0,40.8,2,0.75,Stimuli\ImageFiles-Set1\Bodies\Bodies_CobraPose_00003.png,0,0,0,57,57,57,,,,,,,,,,,,,40.00086460000239,0.0008646000023873057,None,,82.96208330000081,82.96208330000081,82.96208330000081,82.96208330000081,82.96208330000081,82.96208330000081,82.96208330000081,82.96208330000081,003,P004,2025_Jan_18_1452,CategoryLocalizer,2021.2.3,59.927176494365,
40.8,41.0,5,0.0,Stimuli\Blank.png,0,0,0,58,58,58,,,,,,,,,,,,,40.82037599999967,0.02037599999967199,None,,83.77945059999911,83.77945059999911,83.77945059999911,83.77945059999911,83.77945059999911,83.77945059999911,83.77945059999911,83.77945059999911,003,P004,2025_Jan_18_1452,CategoryLocalizer,2021.2.3,59.927176494365,
41.0,41.8,2,0.75,Stimuli\ImageFiles-Set1\Bodies\Bodies_Waving_00001.png,0,0,0,59,59,59,,,,,,,,,,,,,41.01983910000126,0.019839100001263432,None,,83.97961339999893,83.97961339999893,83.97961339999893,83.97961339999893,83.97961339999893,83.97961339999893,83.97961339999893,83.97961339999893,003,P004,2025_Jan_18_1452,CategoryLocalizer,2021.2.3,59.927176494365,
41.8,42.0,5,0.0,Stimuli\Blank.png,0,0,0,60,60,60,,,,,,,,,,,,,41.819473700001254,0.01947370000125659,5,0.14791970000078436,84.76364190000095,84.76364190000095,84.76364190000095,84.76364190000095,84.76364190000095,84.76364190000095,84.76364190000095,84.76364190000095,003,P004,2025_Jan_18_1452,CategoryLocalizer,2021.2.3,59.927176494365,
42.0,42.8,2,0.75,Stimuli\ImageFiles-Set1\Bodies\Bodies_Punching_00003.png,0,0,0,61,61,61,,,,,,,,,,,,,42.00305450000087,0.003054500000871485,None,,84.94714020000174,84.94714020000174,84.94714020000174,84.94714020000174,84.94714020000174,84.94714020000174,84.94714020000174,84.94714020000174,003,P004,2025_Jan_18_1452,CategoryLocalizer,2021.2.3,59.927176494365,
42.8,43.0,5,0.0,Stimuli\Blank.png,0,0,0,62,62,62,,,,,,,,,,,,,42.80334969999967,0.0033496999996742716,None,,85.74784,85.74784,85.74784,85.74784,85.74784,85.74784,85.74784,85.74784,003,P004,2025_Jan_18_1452,CategoryLocalizer,2021.2.3,59.927176494365,
43.0,43.8,2,0.75,Stimuli\ImageFiles-Set1\Bodies\Bodies_Kneeling_00003.png,0,0,0,63,63,63,,,,,,,,,,,,,43.0055769999999,0.00557699999990291,None,,85.96469499999876,85.96469499999876,85.96469499999876,85.96469499999876,85.96469499999876,85.96469499999876,85.96469499999876,85.96469499999876,003,P004,2025_Jan_18_1452,CategoryLocalizer,2021.2.3,59.927176494365,
43.8,44.0,5,0.0,Stimuli\Blank.png,0,0,0,64,64,64,,,,,,,,,,,,,43.82073600000149,0.02073600000149156,5,0.1461663000009139,86.76540269999896,86.76540269999896,86.76540269999896,86.76540269999896,86.76540269999896,86.76540269999896,86.76540269999896,86.76540269999896,003,P004,2025_Jan_18_1452,CategoryLocalizer,2021.2.3,59.927176494365,
44.0,44.8,3,0.75,Stimuli\ImageFiles-Set1\Faces\Face_00087.png,0,0,0,65,65,65,,,,,,,,,,,,,44.00421330000245,0.004213300002447795,None,,86.94888920000085,86.94888920000085,86.94888920000085,86.94888920000085,86.94888920000085,86.94888920000085,86.94888920000085,86.94888920000085,003,P004,2025_Jan_18_1452,CategoryLocalizer,2021.2.3,59.927176494365,
44.8,45.0,5,0.0,Stimuli\Blank.png,0,0,0,66,66,66,,,,,,,,,,,,,44.80564480000248,0.005644800002485795,None,,87.7496073000002,87.7496073000002,87.7496073000002,87.7496073000002,87.7496073000002,87.7496073000002,87.7496073000002,87.7496073000002,003,P004,2025_Jan_18_1452,CategoryLocalizer,2021.2.3,59.927176494365,
45.0,45.8,3,0.75,Stimuli\ImageFiles-Set1\Faces\Face_00067.png,0,0,0,67,67,67,,,,,,,,,,,,,45.006166800001665,0.006166800001665251,None,,87.96645419999913,87.96645419999913,87.96645419999913,87.96645419999913,87.96645419999913,87.96645419999913,87.96645419999913,87.96645419999913,003,P004,2025_Jan_18_1452,CategoryLocalizer,2021.2.3,59.927176494365,
45.8,46.0,5,0.0,Stimuli\Blank.png,0,0,0,68,68,68,,,,,,,,,,,,,45.822232900001836,0.022232900001839084,5,0.14447370000198134,88.76716619999934,88.76716619999934,88.76716619999934,88.76716619999934,88.76716619999934,88.76716619999934,88.76716619999934,88.76716619999934,003,P004,2025_Jan_18_1452,CategoryLocalizer,2021.2.3,59.927176494365,
46.0,46.8,3,0.75,Stimuli\ImageFiles-Set1\Faces\Face_00051.png,0,0,0,69,69,69,,,,,,,,,,,,,46.00580510000145,0.005805100001452956,None,,88.96736489999967,88.96736489999967,88.96736489999967,88.96736489999967,88.96736489999967,88.96736489999967,88.96736489999967,88.96736489999967,003,P004,2025_Jan_18_1452,CategoryLocalizer,2021.2.3,59.927176494365,
46.8,47.0,5,0.0,Stimuli\Blank.png,0,0,0,70,70,70,,,,,,,,,,,,,46.82534390000001,0.025343900000009967,None,,89.78475890000118,89.78475890000118,89.78475890000118,89.78475890000118,89.78475890000118,89.78475890000118,89.78475890000118,89.78475890000118,003,P004,2025_Jan_18_1452,CategoryLocalizer,2021.2.3,59.927176494365,
47.0,47.8,3,0.75,Stimuli\ImageFiles-Set1\Faces\Face_00077.png,0,0,0,71,71,71,,,,,,,,,,,,,47.0248818,0.02488180000000284,None,,89.98490719999972,89.98490719999972,89.98490719999972,89.98490719999972,89.98490719999972,89.98490719999972,89.98490719999972,89.98490719999972,003,P004,2025_Jan_18_1452,CategoryLocalizer,2021.2.3,59.927176494365,
47.8,48.0,5,0.0,Stimuli\Blank.png,0,0,0,72,72,72,,,,,,,,,,,,,47.82475940000222,0.024759400002224652,5,0.14263819999905536,90.76892399999997,90.76892399999997,90.76892399999997,90.76892399999997,90.76892399999997,90.76892399999997,90.76892399999997,90.76892399999997,003,P004,2025_Jan_18_1452,CategoryLocalizer,2021.2.3,59.927176494365,
48.0,48.8,3,0.75,Stimuli\ImageFiles-Set1\Faces\Face_00097.png,0,0,0,73,73,73,,,,,,,,,,,,,48.00830280000082,0.008302800000819843,None,,90.95242080000025,90.95242080000025,90.95242080000025,90.95242080000025,90.95242080000025,90.95242080000025,90.95242080000025,90.95242080000025,003,P004,2025_Jan_18_1452,CategoryLocalizer,2021.2.3,59.927176494365,
48.8,49.0,5,0.0,Stimuli\Blank.png,0,0,0,74,74,74,,,,,,,,,,,,,48.81064420000257,0.010644200002573712,None,,91.76981499999965,91.76981499999965,91.76981499999965,91.76981499999965,91.76981499999965,91.76981499999965,91.76981499999965,91.76981499999965,003,P004,2025_Jan_18_1452,CategoryLocalizer,2021.2.3,59.927176494365,
49.0,49.8,3,0.75,Stimuli\ImageFiles-Set1\Faces\Face_00014.png,0,0,0,75,75,75,,,,,,,,,,,,,49.02532730000166,0.02532730000166339,None,,91.96997610000108,91.96997610000108,91.96997610000108,91.96997610000108,91.96997610000108,91.96997610000108,91.96997610000108,91.96997610000108,003,P004,2025_Jan_18_1452,CategoryLocalizer,2021.2.3,59.927176494365,
49.8,50.0,5,0.0,Stimuli\Blank.png,0,0,0,76,76,76,,,,,,,,,,,,,49.8098659999996,0.009865999999604469,5,0.15782380000018748,92.75401899999997,92.75401899999997,92.75401899999997,92.75401899999997,92.75401899999997,92.75401899999997,92.75401899999997,92.75401899999997,003,P004,2025_Jan_18_1452,CategoryLocalizer,2021.2.3,59.927176494365,
50.0,50.8,3,0.75,Stimuli\ImageFiles-Set1\Faces\Face_00014.png,1,1,0,77,77,77,,,,,,,,,,,,,50.01002430000153,0.010024300001532538,4,0.49774210000032326,92.97088620000068,92.97088620000068,92.97088620000068,92.97088620000068,92.97088620000068,92.97088620000068,92.97088620000068,92.97088620000068,003,P004,2025_Jan_18_1452,CategoryLocalizer,2021.2.3,59.927176494365,
50.8,51.0,5,0.0,Stimuli\Blank.png,0,0,0,78,78,78,,,,,,,,,,,,,50.827346100002615,0.02734610000261739,None,,93.77164090000224,93.77164090000224,93.77164090000224,93.77164090000224,93.77164090000224,93.77164090000224,93.77164090000224,93.77164090000224,003,P004,2025_Jan_18_1452,CategoryLocalizer,2021.2.3,59.927176494365,
51.0,51.8,3,0.75,Stimuli\ImageFiles-Set1\Faces\Face_00043.png,0,0,0,79,79,79,,,,,,,,,,,,,51.01027030000114,0.010270300001138821,None,,93.95506190000015,93.95506190000015,93.95506190000015,93.95506190000015,93.95506190000015,93.95506190000015,93.95506190000015,93.95506190000015,003,P004,2025_Jan_18_1452,CategoryLocalizer,2021.2.3,59.927176494365,
51.8,52.0,5,0.0,Stimuli\Blank.png,0,0,0,80,80,80,,,,,,,,,,,,,51.81121619999976,0.011216199999765308,5,0.15578650000315974,94.75577940000221,94.75577940000221,94.75577940000221,94.75577940000221,94.75577940000221,94.75577940000221,94.75577940000221,94.75577940000221,003,P004,2025_Jan_18_1452,CategoryLocalizer,2021.2.3,59.927176494365,
52.0,52.8,3,0.75,Stimuli\ImageFiles-Set1\Faces\Face_00025.png,0,0,0,81,81,81,,,,,,,,,,,,,52.01095429999987,0.010954299999866635,None,,94.97263799999928,94.97263799999928,94.97263799999928,94.97263799999928,94.97263799999928,94.97263799999928,94.97263799999928,94.97263799999928,003,P004,2025_Jan_18_1452,CategoryLocalizer,2021.2.3,59.927176494365,
52.8,53.0,5,0.0,Stimuli\Blank.png,0,0,0,82,82,82,,,,,,,,,,,,,52.82918940000309,0.029189400003090782,None,,95.7733427000021,95.7733427000021,95.7733427000021,95.7733427000021,95.7733427000021,95.7733427000021,95.7733427000021,95.7733427000021,003,P004,2025_Jan_18_1452,CategoryLocalizer,2021.2.3,59.927176494365,
53.0,53.8,3,0.75,Stimuli\ImageFiles-Set1\Faces\Face_00024.png,1,1,0,83,83,83,,,,,,,,,,,,,53.01221390000137,0.012213900001370348,None,,95.95682300000044,95.95682300000044,95.95682300000044,95.95682300000044,95.95682300000044,95.95682300000044,95.95682300000044,95.95682300000044,003,P004,2025_Jan_18_1452,CategoryLocalizer,2021.2.3,59.927176494365,
53.8,54.0,5,0.0,Stimuli\Blank.png,0,0,0,84,84,84,,,,,,,,,,,,,53.81387510000059,0.013875100000589669,5,0.15408639999805018,96.75754610000149,96.75754610000149,96.75754610000149,96.75754610000149,96.75754610000149,96.75754610000149,96.75754610000149,96.75754610000149,003,P004,2025_Jan_18_1452,CategoryLocalizer,2021.2.3,59.927176494365,
54.0,54.8,3,0.75,Stimuli\ImageFiles-Set1\Faces\Face_00037.png,0,0,0,85,85,85,,,,,,,,,,,,,54.01553430000058,0.015534300000581425,None,,96.97440170000118,96.97440170000118,96.97440170000118,96.97440170000118,96.97440170000118,96.97440170000118,96.97440170000118,96.97440170000118,003,P004,2025_Jan_18_1452,CategoryLocalizer,2021.2.3,59.927176494365,
54.8,55.0,5,0.0,Stimuli\Blank.png,0,0,0,86,86,86,,,,,,,,,,,,,54.81504920000225,0.015049200002252405,None,,97.75843019999957,97.75843019999957,97.75843019999957,97.75843019999957,97.75843019999957,97.75843019999957,97.75843019999957,97.75843019999957,003,P004,2025_Jan_18_1452,CategoryLocalizer,2021.2.3,59.927176494365,
55.0,55.8,3,0.75,Stimuli\ImageFiles-Set1\Faces\Face_00037.png,0,0,0,87,87,87,,,,,,,,,,,,,55.013982899999974,0.013982899999973597,4,0.47902280000198516,97.95861499999955,97.95861499999955,97.95861499999955,97.95861499999955,97.95861499999955,97.95861499999955,97.95861499999955,97.95861499999955,003,P004,2025_Jan_18_1452,CategoryLocalizer,2021.2.3,59.927176494365,
55.8,56.0,5,0.0,Stimuli\Blank.png,0,0,0,88,88,88,,,,,,,,,,,,,55.81528109999999,0.015281099999995718,5,0.15218389999790816,98.75930030000018,98.75930030000018,98.75930030000018,98.75930030000018,98.75930030000018,98.75930030000018,98.75930030000018,98.75930030000018,003,P004,2025_Jan_18_1452,CategoryLocalizer,2021.2.3,59.927176494365,
56.0,56.8,3,0.75,Stimuli\ImageFiles-Set1\Faces\Face_00075.png,0,0,0,89,89,89,,,,,,,,,,,,,56.01524200000131,0.015242000001308043,None,,98.95947449999949,98.95947449999949,98.95947449999949,98.95947449999949,98.95947449999949,98.95947449999949,98.95947449999949,98.95947449999949,003,P004,2025_Jan_18_1452,CategoryLocalizer,2021.2.3,59.927176494365,
56.8,57.0,5,0.0,Stimuli\Blank.png,0,0,0,90,90,90,,,,,,,,,,,,,56.79920540000239,-0.0007945999976044504,None,,99.74350400000185,99.74350400000185,99.74350400000185,99.74350400000185,99.74350400000185,99.74350400000185,99.74350400000185,99.74350400000185,003,P004,2025_Jan_18_1452,CategoryLocalizer,2021.2.3,59.927176494365,
57.0,57.8,3,0.75,Stimuli\ImageFiles-Set1\Faces\Face_00053.png,0,0,0,91,91,91,,,,,,,,,,,,,56.999876300000324,-0.00012369999967631884,None,,99.943750800001,99.943750800001,99.943750800001,99.943750800001,99.943750800001,99.943750800001,99.943750800001,99.943750800001,003,P004,2025_Jan_18_1452,CategoryLocalizer,2021.2.3,59.927176494365,
57.8,58.0,5,0.0,Stimuli\Blank.png,0,0,0,92,92,92,,,,,,,,,,,,,57.799520000000484,-0.0004799999995128701,5,0.16707540000061272,100.74435520000043,100.74435520000043,100.74435520000043,100.74435520000043,100.74435520000043,100.74435520000043,100.74435520000043,100.74435520000043,003,P004,2025_Jan_18_1452,CategoryLocalizer,2021.2.3,59.927176494365,
58.0,58.8,3,0.75,Stimuli\ImageFiles-Set1\Faces\Face_00073.png,0,0,0,93,93,93,,,,,,,,,,,,,58.000351800001226,0.00035180000122636557,None,,100.9445538,100.9445538,100.9445538,100.9445538,100.9445538,100.9445538,100.9445538,100.9445538,003,P004,2025_Jan_18_1452,CategoryLocalizer,2021.2.3,59.927176494365,
58.8,59.0,5,0.0,Stimuli\Blank.png,0,0,0,94,94,94,,,,,,,,,,,,,58.800205900002766,0.00020590000276854425,None,,101.74526239999977,101.74526239999977,101.74526239999977,101.74526239999977,101.74526239999977,101.74526239999977,101.74526239999977,101.74526239999977,003,P004,2025_Jan_18_1452,CategoryLocalizer,2021.2.3,59.927176494365,
59.0,59.8,3,0.75,Stimuli\ImageFiles-Set1\Faces\Face_00016.png,0,0,0,95,95,95,,,,,,,,,,,,,59.00077940000119,0.0007794000011926983,None,,101.94543619999968,101.94543619999968,101.94543619999968,101.94543619999968,101.94543619999968,101.94543619999968,101.94543619999968,101.94543619999968,003,P004,2025_Jan_18_1452,CategoryLocalizer,2021.2.3,59.927176494365,
59.8,60.0,5,0.0,Stimuli\Blank.png,0,0,0,96,96,96,,,,,,,,,,,,,59.80154279999988,0.0015427999998820496,5,0.16548410000177682,102.74614099999962,102.74614099999962,102.74614099999962,102.74614099999962,102.74614099999962,102.74614099999962,102.74614099999962,102.74614099999962,003,P004,2025_Jan_18_1452,CategoryLocalizer,2021.2.3,59.927176494365,
60.0,60.8,4,0.75,Stimuli\ImageFiles-Set1\Scenes\Scenes_033.png,0,0,0,97,97,97,,,,,,,,,,,,,60.00189970000065,0.001899700000649318,None,,102.94629129999885,102.94629129999885,102.94629129999885,102.94629129999885,102.94629129999885,102.94629129999885,102.94629129999885,102.94629129999885,003,P004,2025_Jan_18_1452,CategoryLocalizer,2021.2.3,59.927176494365,
60.8,61.0,5,0.0,Stimuli\Blank.png,0,0,0,98,98,98,,,,,,,,,,,,,60.80281790000299,0.0028179000029950885,None,,103.7470233999993,103.7470233999993,103.7470233999993,103.7470233999993,103.7470233999993,103.7470233999993,103.7470233999993,103.7470233999993,003,P004,2025_Jan_18_1452,CategoryLocalizer,2021.2.3,59.927176494365,
61.0,61.8,4,0.75,Stimuli\ImageFiles-Set1\Scenes\Scenes_045.png,0,0,0,99,99,99,,,,,,,,,,,,,61.00474170000234,0.004741700002341531,None,,103.96389429999908,103.96389429999908,103.96389429999908,103.96389429999908,103.96389429999908,103.96389429999908,103.96389429999908,103.96389429999908,003,P004,2025_Jan_18_1452,CategoryLocalizer,2021.2.3,59.927176494365,
61.8,62.0,5,0.0,Stimuli\Blank.png,0,0,0,100,100,100,,,,,,,,,,,,,61.820026600002166,0.020026600002168493,5,0.14690599999812548,104.76459719999912,104.76459719999912,104.76459719999912,104.76459719999912,104.76459719999912,104.76459719999912,104.76459719999912,104.76459719999912,003,P004,2025_Jan_18_1452,CategoryLocalizer,2021.2.3,59.927176494365,
62.0,62.8,4,0.75,Stimuli\ImageFiles-Set1\Scenes\Scenes_001.png,0,0,0,101,101,101,,,,,,,,,,,,,62.00311050000164,0.0031105000016395934,None,,104.9480767999994,104.9480767999994,104.9480767999994,104.9480767999994,104.9480767999994,104.9480767999994,104.9480767999994,104.9480767999994,003,P004,2025_Jan_18_1452,CategoryLocalizer,2021.2.3,59.927176494365,
62.8,63.0,5,0.0,Stimuli\Blank.png,0,0,0,102,102,102,,,,,,,,,,,,,62.80443080000259,0.004430800002594992,None,,105.74876030000087,105.74876030000087,105.74876030000087,105.74876030000087,105.74876030000087,105.74876030000087,105.74876030000087,105.74876030000087,003,P004,2025_Jan_18_1452,CategoryLocalizer,2021.2.3,59.927176494365,
63.0,63.8,4,0.75,Stimuli\ImageFiles-Set1\Scenes\Scenes_001.png,1,1,0,103,103,103,,,,,,,,,,,,,63.004839600002015,0.004839600002014777,4,0.43684489999941434,105.96564149999904,105.96564149999904,105.96564149999904,105.96564149999904,105.96564149999904,105.96564149999904,105.96564149999904,105.96564149999904,003,P004,2025_Jan_18_1452,CategoryLocalizer,2021.2.3,59.927176494365,
63.8,64.0,5,0.0,Stimuli\Blank.png,0,0,0,104,104,104,,,,,,,,,,,,,63.82220230000166,0.02220230000166623,5,0.1453133000031812,106.76634980000017,106.76634980000017,106.76634980000017,106.76634980000017,106.76634980000017,106.76634980000017,106.76634980000017,106.76634980000017,003,P004,2025_Jan_18_1452,CategoryLocalizer,2021.2.3,59.927176494365,
64.0,64.8,4,0.75,Stimuli\ImageFiles-Set1\Scenes\Scenes_032.png,0,0,0,105,105,105,,,,,,,,,,,,,64.0056164000016,0.005616400001599686,None,,106.96649489999982,106.96649489999982,106.96649489999982,106.96649489999982,106.96649489999982,106.96649489999982,106.96649489999982,106.96649489999982,003,P004,2025_Jan_18_1452,CategoryLocalizer,2021.2.3,59.927176494365,
64.8,65.0,5,0.0,Stimuli\Blank.png,0,0,0,106,106,106,,,,,,,,,,,,,64.82222530000217,0.022225300002176596,None,,107.76725599999918,107.76725599999918,107.76725599999918,107.76725599999918,107.76725599999918,107.76725599999918,107.76725599999918,107.76725599999918,003,P004,2025_Jan_18_1452,CategoryLocalizer,2021.2.3,59.927176494365,
65.0,65.8,4,0.75,Stimuli\ImageFiles-Set1\Scenes\Scenes_041.png,0,0,0,107,107,107,,,,,,,,,,,,,65.0059039000007,0.005903900000703288,None,,107.95072530000107,107.95072530000107,107.95072530000107,107.95072530000107,107.95072530000107,107.95072530000107,107.95072530000107,107.95072530000107,003,P004,2025_Jan_18_1452,CategoryLocalizer,2021.2.3,59.927176494365,
65.8,66.0,5,0.0,Stimuli\Blank.png,0,0,0,108,108,108,,,,,,,,,,,,,65.8069273000001,0.006927300000100445,5,0.160028099999181,108.7514568000006,108.7514568000006,108.7514568000006,108.7514568000006,108.7514568000006,108.7514568000006,108.7514568000006,108.7514568000006,003,P004,2025_Jan_18_1452,CategoryLocalizer,2021.2.3,59.927176494365,
66.0,66.8,4,0.75,Stimuli\ImageFiles-Set1\Scenes\Scenes_013.png,0,0,0,109,109,109,,,,,,,,,,,,,66.00719550000213,0.0071955000021262094,None,,108.95160490000126,108.95160490000126,108.95160490000126,108.95160490000126,108.95160490000126,108.95160490000126,108.95160490000126,108.95160490000126,003,P004,2025_Jan_18_1452,CategoryLocalizer,2021.2.3,59.927176494365,
66.8,67.0,5,0.0,Stimuli\Blank.png,0,0,0,110,110,110,,,,,,,,,,,,,66.80981410000095,0.009814100000951953,None,,109.76899989999947,109.76899989999947,109.76899989999947,109.76899989999947,109.76899989999947,109.76899989999947,109.76899989999947,109.76899989999947,003,P004,2025_Jan_18_1452,CategoryLocalizer,2021.2.3,59.927176494365,
67.0,67.8,4,0.75,Stimuli\ImageFiles-Set1\Scenes\Scenes_059.png,0,0,0,111,111,111,,,,,,,,,,,,,67.02508710000257,0.02508710000256542,None,,109.98582720000195,109.98582720000195,109.98582720000195,109.98582720000195,109.98582720000195,109.98582720000195,109.98582720000195,109.98582720000195,003,P004,2025_Jan_18_1452,CategoryLocalizer,2021.2.3,59.927176494365,
67.8,68.0,5,0.0,Stimuli\Blank.png,0,0,0,112,112,112,,,,,,,,,,,,,67.82558550000249,0.025585500002492267,5,0.14160869999977876,110.76987430000008,110.76987430000008,110.76987430000008,110.76987430000008,110.76987430000008,110.76987430000008,110.76987430000008,110.76987430000008,003,P004,2025_Jan_18_1452,CategoryLocalizer,2021.2.3,59.927176494365,
68.0,68.8,4,0.75,Stimuli\ImageFiles-Set1\Scenes\Scenes_024.png,0,0,0,113,113,113,,,,,,,,,,,,,68.009026300002,0.009026300002005883,None,,110.95337139999901,110.95337139999901,110.95337139999901,110.95337139999901,110.95337139999901,110.95337139999901,110.95337139999901,110.95337139999901,003,P004,2025_Jan_18_1452,CategoryLocalizer,2021.2.3,59.927176494365,
68.8,69.0,5,0.0,Stimuli\Blank.png,0,0,0,114,114,114,,,,,,,,,,,,,68.81029980000312,0.010299800003124915,None,,111.75409040000159,111.75409040000159,111.75409040000159,111.75409040000159,111.75409040000159,111.75409040000159,111.75409040000159,111.75409040000159,003,P004,2025_Jan_18_1452,CategoryLocalizer,2021.2.3,59.927176494365,
69.0,69.8,4,0.75,Stimuli\ImageFiles-Set1\Scenes\Scenes_056.png,0,0,0,115,115,115,,,,,,,,,,,,,69.00939660000222,0.009396600002219202,None,,111.95422890000191,111.95422890000191,111.95422890000191,111.95422890000191,111.95422890000191,111.95422890000191,111.95422890000191,111.95422890000191,003,P004,2025_Jan_18_1452,CategoryLocalizer,2021.2.3,59.927176494365,
69.8,70.0,5,0.0,Stimuli\Blank.png,0,0,0,116,116,116,,,,,,,,,,,,,69.80997670000215,0.00997670000215578,5,0.156731300001411,112.75498639999932,112.75498639999932,112.75498639999932,112.75498639999932,112.75498639999932,112.75498639999932,112.75498639999932,112.75498639999932,003,P004,2025_Jan_18_1452,CategoryLocalizer,2021.2.3,59.927176494365,
70.0,70.8,4,0.75,Stimuli\ImageFiles-Set1\Scenes\Scenes_049.png,0,0,0,117,117,117,,,,,,,,,,,,,70.01060680000228,0.01060680000227876,None,,112.95513550000032,112.95513550000032,112.95513550000032,112.95513550000032,112.95513550000032,112.95513550000032,112.95513550000032,112.95513550000032,003,P004,2025_Jan_18_1452,CategoryLocalizer,2021.2.3,59.927176494365,
70.8,71.0,5,0.0,Stimuli\Blank.png,0,0,0,118,118,118,,,,,,,,,,,,,70.81141360000038,0.011413600000381052,None,,113.75586710000061,113.75586710000061,113.75586710000061,113.75586710000061,113.75586710000061,113.75586710000061,113.75586710000061,113.75586710000061,003,P004,2025_Jan_18_1452,CategoryLocalizer,2021.2.3,59.927176494365,
71.0,71.8,4,0.75,Stimuli\ImageFiles-Set1\Scenes\Scenes_047.png,0,0,0,119,119,119,,,,,,,,,,,,,71.01185270000133,0.011852700001327321,None,,113.95601539999916,113.95601539999916,113.95601539999916,113.95601539999916,113.95601539999916,113.95601539999916,113.95601539999916,113.95601539999916,003,P004,2025_Jan_18_1452,CategoryLocalizer,2021.2.3,59.927176494365,
71.8,72.0,5,0.0,Stimuli\Blank.png,0,0,0,120,120,120,,,,,,,,,,,,,71.81430860000182,0.014308600001825766,5,0.13799110000036308,114.77343050000127,114.77343050000127,114.77343050000127,114.77343050000127,114.77343050000127,114.77343050000127,114.77343050000127,114.77343050000127,003,P004,2025_Jan_18_1452,CategoryLocalizer,2021.2.3,59.927176494365,
72.0,72.8,4,0.75,Stimuli\ImageFiles-Set1\Scenes\Scenes_042.png,1,1,0,121,121,121,,,,,,,,,,,,,72.02912250000008,0.029122500000084983,None,,114.99034559999927,114.99034559999927,114.99034559999927,114.99034559999927,114.99034559999927,114.99034559999927,114.99034559999927,114.99034559999927,003,P004,2025_Jan_18_1452,CategoryLocalizer,2021.2.3,59.927176494365,
72.8,73.0,5,0.0,Stimuli\Blank.png,0,0,0,122,122,122,,,,,,,,,,,,,72.83033760000035,0.030337600000351017,None,,115.77430240000103,115.77430240000103,115.77430240000103,115.77430240000103,115.77430240000103,115.77430240000103,115.77430240000103,115.77430240000103,003,P004,2025_Jan_18_1452,CategoryLocalizer,2021.2.3,59.927176494365,
73.0,73.8,4,0.75,Stimuli\ImageFiles-Set1\Scenes\Scenes_021.png,0,0,0,123,123,123,,,,,,,,,,,,,73.01505660000112,0.015056600001116749,None,,115.97446110000237,115.97446110000237,115.97446110000237,115.97446110000237,115.97446110000237,115.97446110000237,115.97446110000237,115.97446110000237,003,P004,2025_Jan_18_1452,CategoryLocalizer,2021.2.3,59.927176494365,
73.8,74.0,5,0.0,Stimuli\Blank.png,0,0,0,124,124,124,,,,,,,,,,,,,73.81404450000264,0.014044500002640348,5,0.15289300000222283,116.75851690000127,116.75851690000127,116.75851690000127,116.75851690000127,116.75851690000127,116.75851690000127,116.75851690000127,116.75851690000127,003,P004,2025_Jan_18_1452,CategoryLocalizer,2021.2.3,59.927176494365,
74.0,74.8,4,0.75,Stimuli\ImageFiles-Set1\Scenes\Scenes_021.png,0,0,0,125,125,125,,,,,,,,,,,,,74.01429830000052,0.014298300000518793,4,0.3358518000022741,116.95865799999956,116.95865799999956,116.95865799999956,116.95865799999956,116.95865799999956,116.95865799999956,116.95865799999956,116.95865799999956,003,P004,2025_Jan_18_1452,CategoryLocalizer,2021.2.3,59.927176494365,
74.8,75.0,5,0.0,Stimuli\Blank.png,0,0,0,126,126,126,,,,,,,,,,,,,74.81604890000017,0.016048900000171784,None,,117.77606920000107,117.77606920000107,117.77606920000107,117.77606920000107,117.77606920000107,117.77606920000107,117.77606920000107,117.77606920000107,003,P004,2025_Jan_18_1452,CategoryLocalizer,2021.2.3,59.927176494365,
75.0,75.8,4,0.75,Stimuli\ImageFiles-Set1\Scenes\Scenes_019.png,0,0,0,127,127,127,,,,,,,,,,,,,75.01444510000147,0.014445100001466926,None,,117.9762496000003,117.9762496000003,117.9762496000003,117.9762496000003,117.9762496000003,117.9762496000003,117.9762496000003,117.9762496000003,003,P004,2025_Jan_18_1452,CategoryLocalizer,2021.2.3,59.927176494365,
75.8,76.0,5,0.0,Stimuli\Blank.png,0,0,0,128,128,128,,,,,,,,,,,,,75.83362599999964,0.033625999999642886,5,0.1346291999980167,118.77690780000194,118.77690780000194,118.77690780000194,118.77690780000194,118.77690780000194,118.77690780000194,118.77690780000194,118.77690780000194,003,P004,2025_Jan_18_1452,CategoryLocalizer,2021.2.3,59.927176494365,
76.0,88.0,0,0.0,Stimuli\Blank.png,0,0,0,129,129,129,,,,,,,,,,,,,75.9995239000018,-0.0004760999981954228,5,11.967943300001934,118.94374030000108,118.94374030000108,118.94374030000108,118.94374030000108,118.94374030000108,118.94374030000108,118.94374030000108,118.94374030000108,003,P004,2025_Jan_18_1452,CategoryLocalizer,2021.2.3,59.927176494365,
88.0,88.8,3,0.75,Stimuli\ImageFiles-Set1\Faces\Face_00065.png,0,0,0,130,130,130,,,,,,,,,,,,,88.00966189999963,0.009661899999628076,None,,130.95432300000175,130.95432300000175,130.95432300000175,130.95432300000175,130.95432300000175,130.95432300000175,130.95432300000175,130.95432300000175,003,P004,2025_Jan_18_1452,CategoryLocalizer,2021.2.3,59.927176494365,
88.8,89.0,5,0.0,Stimuli\Blank.png,0,0,0,131,131,131,,,,,,,,,,,,,88.8108495000015,0.010849500001498313,None,,131.75502469999992,131.75502469999992,131.75502469999992,131.75502469999992,131.75502469999992,131.75502469999992,131.75502469999992,131.75502469999992,003,P004,2025_Jan_18_1452,CategoryLocalizer,2021.2.3,59.927176494365,
89.0,89.8,3,0.75,Stimuli\ImageFiles-Set1\Faces\Face_00107.png,0,0,0,132,132,132,,,,,,,,,,,,,89.01017720000164,0.010177200001635356,None,,131.9552016000016,131.9552016000016,131.9552016000016,131.9552016000016,131.9552016000016,131.9552016000016,131.9552016000016,131.9552016000016,003,P004,2025_Jan_18_1452,CategoryLocalizer,2021.2.3,59.927176494365,
89.8,90.0,5,0.0,Stimuli\Blank.png,0,0,0,133,133,133,,,,,,,,,,,,,89.81102570000076,0.011025700000757865,5,0.1557476999987557,132.75592419999884,132.75592419999884,132.75592419999884,132.75592419999884,132.75592419999884,132.75592419999884,132.75592419999884,132.75592419999884,003,P004,2025_Jan_18_1452,CategoryLocalizer,2021.2.3,59.927176494365,
90.0,90.8,3,0.75,Stimuli\ImageFiles-Set1\Faces\Face_00101.png,0,0,0,134,134,134,,,,,,,,,,,,,90.01143050000246,0.011430500002461486,None,,132.95608360000188,132.95608360000188,132.95608360000188,132.95608360000188,132.95608360000188,132.95608360000188,132.95608360000188,132.95608360000188,003,P004,2025_Jan_18_1452,CategoryLocalizer,2021.2.3,59.927176494365,
90.8,91.0,5,0.0,Stimuli\Blank.png,0,0,0,135,135,135,,,,,,,,,,,,,90.81260410000323,0.0126041000032302,None,,133.7568754999993,133.7568754999993,133.7568754999993,133.7568754999993,133.7568754999993,133.7568754999993,133.7568754999993,133.7568754999993,003,P004,2025_Jan_18_1452,CategoryLocalizer,2021.2.3,59.927176494365,
91.0,91.8,3,0.75,Stimuli\ImageFiles-Set1\Faces\Face_00027.png,0,0,0,136,136,136,,,,,,,,,,,,,91.01209690000178,0.012096900001779431,None,,133.95697070000097,133.95697070000097,133.95697070000097,133.95697070000097,133.95697070000097,133.95697070000097,133.95697070000097,133.95697070000097,003,P004,2025_Jan_18_1452,CategoryLocalizer,2021.2.3,59.927176494365,
91.8,92.0,5,0.0,Stimuli\Blank.png,0,0,0,137,137,137,,,,,,,,,,,,,91.81305830000201,0.013058300002015244,5,0.1536761999996088,134.7577491000011,134.7577491000011,134.7577491000011,134.7577491000011,134.7577491000011,134.7577491000011,134.7577491000011,134.7577491000011,003,P004,2025_Jan_18_1452,CategoryLocalizer,2021.2.3,59.927176494365,
92.0,92.8,3,0.75,Stimuli\ImageFiles-Set1\Faces\Face_00049.png,0,0,0,138,138,138,,,,,,,,,,,,,92.01566970000204,0.015669700002035825,None,,134.9745350000012,134.9745350000012,134.9745350000012,134.9745350000012,134.9745350000012,134.9745350000012,134.9745350000012,134.9745350000012,003,P004,2025_Jan_18_1452,CategoryLocalizer,2021.2.3,59.927176494365,
92.8,93.0,5,0.0,Stimuli\Blank.png,0,0,0,139,139,139,,,,,,,,,,,,,92.81367310000132,0.013673100001327043,None,,135.75855339999907,135.75855339999907,135.75855339999907,135.75855339999907,135.75855339999907,135.75855339999907,135.75855339999907,135.75855339999907,003,P004,2025_Jan_18_1452,CategoryLocalizer,2021.2.3,59.927176494365,
93.0,93.8,3,0.75,Stimuli\ImageFiles-Set1\Faces\Face_00029.png,0,0,0,140,140,140,,,,,,,,,,,,,93.01409700000295,0.014097000002948334,None,,135.95872830000008,135.95872830000008,135.95872830000008,135.95872830000008,135.95872830000008,135.95872830000008,135.95872830000008,135.95872830000008,003,P004,2025_Jan_18_1452,CategoryLocalizer,2021.2.3,59.927176494365,
93.8,94.0,5,0.0,Stimuli\Blank.png,0,0,0,141,141,141,,,,,,,,,,,,,93.81512160000057,0.015121600000568947,5,0.15191979999872274,136.75945000000138,136.75945000000138,136.75945000000138,136.75945000000138,136.75945000000138,136.75945000000138,136.75945000000138,136.75945000000138,003,P004,2025_Jan_18_1452,CategoryLocalizer,2021.2.3,59.927176494365,
94.0,94.8,3,0.75,Stimuli\ImageFiles-Set1\Faces\Face_00029.png,1,1,0,142,142,142,,,,,,,,,,,,,94.01515560000189,0.01515560000188998,4,0.533824199999799,136.95960790000026,136.95960790000026,136.95960790000026,136.95960790000026,136.95960790000026,136.95960790000026,136.95960790000026,136.95960790000026,003,P004,2025_Jan_18_1452,CategoryLocalizer,2021.2.3,59.927176494365,
94.8,95.0,5,0.0,Stimuli\Blank.png,0,0,0,143,143,143,,,,,,,,,,,,,94.79925410000214,-0.0007458999978524616,None,,137.74364369999967,137.74364369999967,137.74364369999967,137.74364369999967,137.74364369999967,137.74364369999967,137.74364369999967,137.74364369999967,003,P004,2025_Jan_18_1452,CategoryLocalizer,2021.2.3,59.927176494365,
95.0,95.8,3,0.75,Stimuli\ImageFiles-Set1\Faces\Face_00095.png,0,0,0,144,144,144,,,,,,,,,,,,,94.99925660000008,-0.0007433999999193475,None,,137.94378320000033,137.94378320000033,137.94378320000033,137.94378320000033,137.94378320000033,137.94378320000033,137.94378320000033,137.94378320000033,003,P004,2025_Jan_18_1452,CategoryLocalizer,2021.2.3,59.927176494365,
95.8,96.0,5,0.0,Stimuli\Blank.png,0,0,0,145,145,145,,,,,,,,,,,,,95.80004370000097,4.3700000972535236e-05,5,0.16707899999892106,138.74451419999968,138.74451419999968,138.74451419999968,138.74451419999968,138.74451419999968,138.74451419999968,138.74451419999968,138.74451419999968,003,P004,2025_Jan_18_1452,CategoryLocalizer,2021.2.3,59.927176494365,
96.0,96.8,3,0.75,Stimuli\ImageFiles-Set1\Faces\Face_00061.png,0,0,0,146,146,146,,,,,,,,,,,,,96.00060769999982,0.0006076999998185784,None,,138.96140110000124,138.96140110000124,138.96140110000124,138.96140110000124,138.96140110000124,138.96140110000124,138.96140110000124,138.96140110000124,003,P004,2025_Jan_18_1452,CategoryLocalizer,2021.2.3,59.927176494365,
96.8,97.0,5,0.0,Stimuli\Blank.png,0,0,0,147,147,147,,,,,,,,,,,,,96.81904639999993,0.019046399999936625,None,,139.7787817999997,139.7787817999997,139.7787817999997,139.7787817999997,139.7787817999997,139.7787817999997,139.7787817999997,139.7787817999997,003,P004,2025_Jan_18_1452,CategoryLocalizer,2021.2.3,59.927176494365,
97.0,97.8,3,0.75,Stimuli\ImageFiles-Set1\Faces\Face_00105.png,0,0,0,148,148,148,,,,,,,,,,,,,97.01953960000174,0.01953960000173538,None,,139.97896970000147,139.97896970000147,139.97896970000147,139.97896970000147,139.97896970000147,139.97896970000147,139.97896970000147,139.97896970000147,003,P004,2025_Jan_18_1452,CategoryLocalizer,2021.2.3,59.927176494365,
97.8,98.0,5,0.0,Stimuli\Blank.png,0,0,0,149,149,149,,,,,,,,,,,,,97.81912949999969,0.019129499999692712,5,0.1484030999999959,140.76297220000197,140.76297220000197,140.76297220000197,140.76297220000197,140.76297220000197,140.76297220000197,140.76297220000197,140.76297220000197,003,P004,2025_Jan_18_1452,CategoryLocalizer,2021.2.3,59.927176494365,
98.0,98.8,3,0.75,Stimuli\ImageFiles-Set1\Faces\Face_00103.png,0,0,0,150,150,150,,,,,,,,,,,,,98.00189880000107,0.0018988000010722317,None,,140.94645420000234,140.94645420000234,140.94645420000234,140.94645420000234,140.94645420000234,140.94645420000234,140.94645420000234,140.94645420000234,003,P004,2025_Jan_18_1452,CategoryLocalizer,2021.2.3,59.927176494365,
98.8,99.0,5,0.0,Stimuli\Blank.png,0,0,0,151,151,151,,,,,,,,,,,,,98.80455090000032,0.004550900000324987,None,,141.7638689000014,141.7638689000014,141.7638689000014,141.7638689000014,141.7638689000014,141.7638689000014,141.7638689000014,141.7638689000014,003,P004,2025_Jan_18_1452,CategoryLocalizer,2021.2.3,59.927176494365,
99.0,99.8,3,0.75,Stimuli\ImageFiles-Set1\Faces\Face_00111.png,0,0,0,152,152,152,,,,,,,,,,,,,99.01933250000002,0.019332500000018626,None,,141.96401740000147,141.96401740000147,141.96401740000147,141.96401740000147,141.96401740000147,141.96401740000147,141.96401740000147,141.96401740000147,003,P004,2025_Jan_18_1452,CategoryLocalizer,2021.2.3,59.927176494365,
99.8,100.0,5,0.0,Stimuli\Blank.png,0,0,0,153,153,153,,,,,,,,,,,,,99.80306670000209,0.0030667000020940804,5,0.16428739999901154,142.74809079999977,142.74809079999977,142.74809079999977,142.74809079999977,142.74809079999977,142.74809079999977,142.74809079999977,142.74809079999977,003,P004,2025_Jan_18_1452,CategoryLocalizer,2021.2.3,59.927176494365,
100.0,100.8,3,0.75,Stimuli\ImageFiles-Set1\Faces\Face_00020.png,0,0,0,154,154,154,,,,,,,,,,,,,100.00368030000027,0.003680300000269199,None,,142.9482269,142.9482269,142.9482269,142.9482269,142.9482269,142.9482269,142.9482269,142.9482269,003,P004,2025_Jan_18_1452,CategoryLocalizer,2021.2.3,59.927176494365,
100.8,101.0,5,0.0,Stimuli\Blank.png,0,0,0,155,155,155,,,,,,,,,,,,,100.80505059999996,0.0050505999999614914,None,,143.74893019999945,143.74893019999945,143.74893019999945,143.74893019999945,143.74893019999945,143.74893019999945,143.74893019999945,143.74893019999945,003,P004,2025_Jan_18_1452,CategoryLocalizer,2021.2.3,59.927176494365,
101.0,101.8,3,0.75,Stimuli\ImageFiles-Set1\Faces\Face_00018.png,0,0,0,156,156,156,,,,,,,,,,,,,101.00401710000006,0.004017100000055507,None,,143.94910119999986,143.94910119999986,143.94910119999986,143.94910119999986,143.94910119999986,143.94910119999986,143.94910119999986,143.94910119999986,003,P004,2025_Jan_18_1452,CategoryLocalizer,2021.2.3,59.927176494365,
101.8,102.0,5,0.0,Stimuli\Blank.png,0,0,0,157,157,157,,,,,,,,,,,,,101.80571659999987,0.005716599999871619,5,0.16152800000054413,144.74980440000218,144.74980440000218,144.74980440000218,144.74980440000218,144.74980440000218,144.74980440000218,144.74980440000218,144.74980440000218,003,P004,2025_Jan_18_1452,CategoryLocalizer,2021.2.3,59.927176494365,
102.0,102.8,3,0.75,Stimuli\ImageFiles-Set1\Faces\Face_00089.png,0,0,0,158,158,158,,,,,,,,,,,,,102.00507650000145,0.005076500001450768,None,,144.94998300000225,144.94998300000225,144.94998300000225,144.94998300000225,144.94998300000225,144.94998300000225,144.94998300000225,144.94998300000225,003,P004,2025_Jan_18_1452,CategoryLocalizer,2021.2.3,59.927176494365,
102.8,103.0,5,0.0,Stimuli\Blank.png,0,0,0,159,159,159,,,,,,,,,,,,,102.80605180000202,0.006051800002026653,None,,145.75068929999907,145.75068929999907,145.75068929999907,145.75068929999907,145.75068929999907,145.75068929999907,145.75068929999907,145.75068929999907,003,P004,2025_Jan_18_1452,CategoryLocalizer,2021.2.3,59.927176494365,
103.0,103.8,3,0.75,Stimuli\ImageFiles-Set1\Faces\Face_00119.png,0,0,0,160,160,160,,,,,,,,,,,,,103.00662590000138,0.006625900001381524,None,,145.95083689999956,145.95083689999956,145.95083689999956,145.95083689999956,145.95083689999956,145.95083689999956,145.95083689999956,145.95083689999956,003,P004,2025_Jan_18_1452,CategoryLocalizer,2021.2.3,59.927176494365,
103.8,104.0,5,0.0,Stimuli\Blank.png,0,0,0,161,161,161,,,,,,,,,,,,,103.8091009000018,0.00910090000179764,5,0.14311330000055023,146.76829500000167,146.76829500000167,146.76829500000167,146.76829500000167,146.76829500000167,146.76829500000167,146.76829500000167,146.76829500000167,003,P004,2025_Jan_18_1452,CategoryLocalizer,2021.2.3,59.927176494365,
104.0,104.8,1,0.75,Stimuli\ImageFiles-Set1\Objects\Object_Book_00001.png,0,0,0,162,162,162,,,,,,,,,,,,,104.02450750000207,0.024507500002073357,None,,146.98513470000034,146.98513470000034,146.98513470000034,146.98513470000034,146.98513470000034,146.98513470000034,146.98513470000034,146.98513470000034,003,P004,2025_Jan_18_1452,CategoryLocalizer,2021.2.3,59.927176494365,
104.8,105.0,5,0.0,Stimuli\Blank.png,0,0,0,163,163,163,,,,,,,,,,,,,104.82513910000125,0.025139100001254633,None,,147.7691354999988,147.7691354999988,147.7691354999988,147.7691354999988,147.7691354999988,147.7691354999988,147.7691354999988,147.7691354999988,003,P004,2025_Jan_18_1452,CategoryLocalizer,2021.2.3,59.927176494365,
105.0,105.8,1,0.75,Stimuli\ImageFiles-Set1\Objects\Object_Pizza_00001.png,0,0,0,164,164,164,,,,,,,,,,,,,105.01003750000018,0.010037500000180444,None,,147.96931609999956,147.96931609999956,147.96931609999956,147.96931609999956,147.96931609999956,147.96931609999956,147.96931609999956,147.96931609999956,003,P004,2025_Jan_18_1452,CategoryLocalizer,2021.2.3,59.927176494365,
105.8,106.0,5,0.0,Stimuli\Blank.png,0,0,0,165,165,165,,,,,,,,,,,,,105.8249547000014,0.024954700001401875,5,0.1422783999987587,148.77001179999934,148.77001179999934,148.77001179999934,148.77001179999934,148.77001179999934,148.77001179999934,148.77001179999934,148.77001179999934,003,P004,2025_Jan_18_1452,CategoryLocalizer,2021.2.3,59.927176494365,
106.0,106.8,1,0.75,Stimuli\ImageFiles-Set1\Objects\Object_Knife_00001.png,0,0,0,166,166,166,,,,,,,,,,,,,106.00894360000166,0.008943600001657614,None,,148.95351139999912,148.95351139999912,148.95351139999912,148.95351139999912,148.95351139999912,148.95351139999912,148.95351139999912,148.95351139999912,003,P004,2025_Jan_18_1452,CategoryLocalizer,2021.2.3,59.927176494365,
106.8,107.0,5,0.0,Stimuli\Blank.png,0,0,0,167,167,167,,,,,,,,,,,,,106.80978830000095,0.00978830000094888,None,,149.75424389999898,149.75424389999898,149.75424389999898,149.75424389999898,149.75424389999898,149.75424389999898,149.75424389999898,149.75424389999898,003,P004,2025_Jan_18_1452,CategoryLocalizer,2021.2.3,59.927176494365,
107.0,107.8,1,0.75,Stimuli\ImageFiles-Set1\Objects\Object_Hammer_00001.png,0,0,0,168,168,168,,,,,,,,,,,,,107.0102478000008,0.010247800000797724,None,,149.95439260000057,149.95439260000057,149.95439260000057,149.95439260000057,149.95439260000057,149.95439260000057,149.95439260000057,149.95439260000057,003,P004,2025_Jan_18_1452,CategoryLocalizer,2021.2.3,59.927176494365,
107.8,108.0,5,0.0,Stimuli\Blank.png,0,0,0,169,169,169,,,,,,,,,,,,,107.81062270000257,0.01062270000257115,5,0.15729389999978594,150.75509760000205,150.75509760000205,150.75509760000205,150.75509760000205,150.75509760000205,150.75509760000205,150.75509760000205,150.75509760000205,003,P004,2025_Jan_18_1452,CategoryLocalizer,2021.2.3,59.927176494365,
108.0,108.8,1,0.75,Stimuli\ImageFiles-Set1\Objects\Object_Crib_00001.png,0,0,0,170,170,170,,,,,,,,,,,,,108.01116300000285,0.011163000002852641,None,,150.95527310000034,150.95527310000034,150.95527310000034,150.95527310000034,150.95527310000034,150.95527310000034,150.95527310000034,150.95527310000034,003,P004,2025_Jan_18_1452,CategoryLocalizer,2021.2.3,59.927176494365,
108.8,109.0,5,0.0,Stimuli\Blank.png,0,0,0,171,171,171,,,,,,,,,,,,,108.81104910000067,0.011049100000676049,None,,151.75598009999885,151.75598009999885,151.75598009999885,151.75598009999885,151.75598009999885,151.75598009999885,151.75598009999885,151.75598009999885,003,P004,2025_Jan_18_1452,CategoryLocalizer,2021.2.3,59.927176494365,
109.0,109.8,1,0.75,Stimuli\ImageFiles-Set1\Objects\Object_Pipe_00001.png,0,0,0,172,172,172,,,,,,,,,,,,,109.01189180000074,0.01189180000073975,None,,151.9561687000023,151.9561687000023,151.9561687000023,151.9561687000023,151.9561687000023,151.9561687000023,151.9561687000023,151.9561687000023,003,P004,2025_Jan_18_1452,CategoryLocalizer,2021.2.3,59.927176494365,
109.8,110.0,5,0.0,Stimuli\Blank.png,0,0,0,173,173,173,,,,,,,,,,,,,109.81204490000164,0.012044900001640713,5,0.1555192999985593,152.75685950000116,152.75685950000116,152.75685950000116,152.75685950000116,152.75685950000116,152.75685950000116,152.75685950000116,152.75685950000116,003,P004,2025_Jan_18_1452,CategoryLocalizer,2021.2.3,59.927176494365,
110.0,110.8,1,0.75,Stimuli\ImageFiles-Set1\Objects\Object_Baseball_00001.png,0,0,0,174,174,174,,,,,,,,,,,,,110.0141403000016,0.014140300001599826,None,,152.97372019999966,152.97372019999966,152.97372019999966,152.97372019999966,152.97372019999966,152.97372019999966,152.97372019999966,152.97372019999966,003,P004,2025_Jan_18_1452,CategoryLocalizer,2021.2.3,59.927176494365,
110.8,111.0,5,0.0,Stimuli\Blank.png,0,0,0,175,175,175,,,,,,,,,,,,,110.83022640000127,0.030226400001268416,None,,153.77443889999995,153.77443889999995,153.77443889999995,153.77443889999995,153.77443889999995,153.77443889999995,153.77443889999995,153.77443889999995,003,P004,2025_Jan_18_1452,CategoryLocalizer,2021.2.3,59.927176494365,
111.0,111.8,1,0.75,Stimuli\ImageFiles-Set1\Objects\Object_Bench_00001.png,0,0,0,176,176,176,,,,,,,,,,,,,111.01368800000273,0.013688000002730405,None,,153.9579236999998,153.9579236999998,153.9579236999998,153.9579236999998,153.9579236999998,153.9579236999998,153.9579236999998,153.9579236999998,003,P004,2025_Jan_18_1452,CategoryLocalizer,2021.2.3,59.927176494365,
111.8,112.0,5,0.0,Stimuli\Blank.png,0,0,0,177,177,177,,,,,,,,,,,,,111.81439110000065,0.014391100000651136,5,0.15400600000066333,154.75861789999908,154.75861789999908,154.75861789999908,154.75861789999908,154.75861789999908,154.75861789999908,154.75861789999908,154.75861789999908,003,P004,2025_Jan_18_1452,CategoryLocalizer,2021.2.3,59.927176494365,
112.0,112.8,1,0.75,Stimuli\ImageFiles-Set1\Objects\Object_FileFolder_00001.png,0,0,0,178,178,178,,,,,,,,,,,,,112.01474280000184,0.014742800001840806,None,,154.97549880000224,154.97549880000224,154.97549880000224,154.97549880000224,154.97549880000224,154.97549880000224,154.97549880000224,154.97549880000224,003,P004,2025_Jan_18_1452,CategoryLocalizer,2021.2.3,59.927176494365,
112.8,113.0,5,0.0,Stimuli\Blank.png,0,0,0,179,179,179,,,,,,,,,,,,,112.8317730000017,0.031773000001706464,None,,155.77618090000033,155.77618090000033,155.77618090000033,155.77618090000033,155.77618090000033,155.77618090000033,155.77618090000033,155.77618090000033,003,P004,2025_Jan_18_1452,CategoryLocalizer,2021.2.3,59.927176494365,
113.0,113.8,1,0.75,Stimuli\ImageFiles-Set1\Objects\Object_Wagon_00001.png,0,0,0,180,180,180,,,,,,,,,,,,,113.0150085000023,0.015008500002295477,None,,155.9596827000023,155.9596827000023,155.9596827000023,155.9596827000023,155.9596827000023,155.9596827000023,155.9596827000023,155.9596827000023,003,P004,2025_Jan_18_1452,CategoryLocalizer,2021.2.3,59.927176494365,
113.8,114.0,5,0.0,Stimuli\Blank.png,0,0,0,181,181,181,,,,,,,,,,,,,113.79890700000033,-0.0010929999996704964,None,,156.7437112000007,156.7437112000007,156.7437112000007,156.7437112000007,156.7437112000007,156.7437112000007,156.7437112000007,156.7437112000007,003,P004,2025_Jan_18_1452,CategoryLocalizer,2021.2.3,59.927176494365,
114.0,114.8,1,0.75,Stimuli\ImageFiles-Set1\Objects\Object_Ring_00001.png,0,0,0,182,182,182,,,,,,,,,,,,,113.99928160000127,-0.0007183999987319112,None,,156.94389389999924,156.94389389999924,156.94389389999924,156.94389389999924,156.94389389999924,156.94389389999924,156.94389389999924,156.94389389999924,003,P004,2025_Jan_18_1452,CategoryLocalizer,2021.2.3,59.927176494365,
114.8,115.0,5,0.0,Stimuli\Blank.png,0,0,0,183,183,183,,,,,,,,,,,,,114.80071980000139,0.0007198000013914907,None,,157.74459959999876,157.74459959999876,157.74459959999876,157.74459959999876,157.74459959999876,157.74459959999876,157.74459959999876,157.74459959999876,003,P004,2025_Jan_18_1452,CategoryLocalizer,2021.2.3,59.927176494365,
115.0,115.8,1,0.75,Stimuli\ImageFiles-Set1\Objects\Object_Ring_00001.png,1,1,0,184,184,184,,,,,,,,,,,,,114.99970840000242,-0.0002915999975812156,4,0.5365407999997842,157.94476249999934,157.94476249999934,157.94476249999934,157.94476249999934,157.94476249999934,157.94476249999934,157.94476249999934,157.94476249999934,003,P004,2025_Jan_18_1452,CategoryLocalizer,2021.2.3,59.927176494365,
115.8,116.0,5,0.0,Stimuli\Blank.png,0,0,0,185,185,185,,,,,,,,,,,,,115.80071260000113,0.0007126000011368205,5,0.16676530000040657,158.74546940000073,158.74546940000073,158.74546940000073,158.74546940000073,158.74546940000073,158.74546940000073,158.74546940000073,158.74546940000073,003,P004,2025_Jan_18_1452,CategoryLocalizer,2021.2.3,59.927176494365,
116.0,116.8,1,0.75,Stimuli\ImageFiles-Set1\Objects\Object_PepperShaker_00001.png,0,0,0,186,186,186,,,,,,,,,,,,,116.00106570000207,0.0010657000020728447,None,,158.94564489999902,158.94564489999902,158.94564489999902,158.94564489999902,158.94564489999902,158.94564489999902,158.94564489999902,158.94564489999902,003,P004,2025_Jan_18_1452,CategoryLocalizer,2021.2.3,59.927176494365,
116.8,117.0,5,0.0,Stimuli\Blank.png,0,0,0,187,187,187,,,,,,,,,,,,,116.8019905000001,0.001990500000104589,None,,159.7464402000005,159.7464402000005,159.7464402000005,159.7464402000005,159.7464402000005,159.7464402000005,159.7464402000005,159.7464402000005,003,P004,2025_Jan_18_1452,CategoryLocalizer,2021.2.3,59.927176494365,
117.0,117.8,1,0.75,Stimuli\ImageFiles-Set1\Objects\Object_Tool_00001.png,0,0,0,188,188,188,,,,,,,,,,,,,117.00167870000223,0.001678700002230471,None,,159.9465932000021,159.9465932000021,159.9465932000021,159.9465932000021,159.9465932000021,159.9465932000021,159.9465932000021,159.9465932000021,003,P004,2025_Jan_18_1452,CategoryLocalizer,2021.2.3,59.927176494365,
117.8,118.0,5,0.0,Stimuli\Blank.png,0,0,0,189,189,189,,,,,,,,,,,,,117.80422490000274,0.004224900002739673,5,0.1483751999985543,160.76391140000123,160.76391140000123,160.76391140000123,160.76391140000123,160.76391140000123,160.76391140000123,160.76391140000123,160.76391140000123,003,P004,2025_Jan_18_1452,CategoryLocalizer,2021.2.3,59.927176494365,
118.0,118.8,1,0.75,Stimuli\ImageFiles-Set1\Objects\Object_Walnut_00001.png,0,0,0,190,190,190,,,,,,,,,,,,,118.01918460000161,0.019184600001608487,None,,160.9640896000019,160.9640896000019,160.9640896000019,160.9640896000019,160.9640896000019,160.9640896000019,160.9640896000019,160.9640896000019,003,P004,2025_Jan_18_1452,CategoryLocalizer,2021.2.3,59.927176494365,
118.8,119.0,5,0.0,Stimuli\Blank.png,0,0,0,191,191,191,,,,,,,,,,,,,118.80384740000227,0.0038474000022716837,None,,161.7481211000013,161.7481211000013,161.7481211000013,161.7481211000013,161.7481211000013,161.7481211000013,161.7481211000013,161.7481211000013,003,P004,2025_Jan_18_1452,CategoryLocalizer,2021.2.3,59.927176494365,
119.0,119.8,1,0.75,Stimuli\ImageFiles-Set1\Objects\Object_Toilet_00001.png,0,0,0,192,192,192,,,,,,,,,,,,,119.00381570000172,0.0038157000017235987,None,,161.94828820000112,161.94828820000112,161.94828820000112,161.94828820000112,161.94828820000112,161.94828820000112,161.94828820000112,161.94828820000112,003,P004,2025_Jan_18_1452,CategoryLocalizer,2021.2.3,59.927176494365,
119.8,120.0,5,0.0,Stimuli\Blank.png,0,0,0,193,193,193,,,,,,,,,,,,,119.8046897000022,0.004689700002202812,5,0.1634217000028002,162.74899590000132,162.74899590000132,162.74899590000132,162.74899590000132,162.74899590000132,162.74899590000132,162.74899590000132,162.74899590000132,003,P004,2025_Jan_18_1452,CategoryLocalizer,2021.2.3,59.927176494365,
120.0,120.8,4,0.75,Stimuli\ImageFiles-Set1\Scenes\Scenes_040.png,0,0,0,194,194,194,,,,,,,,,,,,,120.00566430000254,0.005664300002536038,None,,162.96585179999965,162.96585179999965,162.96585179999965,162.96585179999965,162.96585179999965,162.96585179999965,162.96585179999965,162.96585179999965,003,P004,2025_Jan_18_1452,CategoryLocalizer,2021.2.3,59.927176494365,
120.8,121.0,5,0.0,Stimuli\Blank.png,0,0,0,195,195,195,,,,,,,,,,,,,120.82195800000045,0.02195800000045267,None,,163.7665558000008,163.7665558000008,163.7665558000008,163.7665558000008,163.7665558000008,163.7665558000008,163.7665558000008,163.7665558000008,003,P004,2025_Jan_18_1452,CategoryLocalizer,2021.2.3,59.927176494365,
121.0,121.8,4,0.75,Stimuli\ImageFiles-Set1\Scenes\Scenes_028.png,0,0,0,196,196,196,,,,,,,,,,,,,121.00555890000032,0.005558900000323774,None,,163.95005840000158,163.95005840000158,163.95005840000158,163.95005840000158,163.95005840000158,163.95005840000158,163.95005840000158,163.95005840000158,003,P004,2025_Jan_18_1452,CategoryLocalizer,2021.2.3,59.927176494365,
121.8,122.0,5,0.0,Stimuli\Blank.png,0,0,0,197,197,197,,,,,,,,,,,,,121.80641780000224,0.00641780000223946,5,0.1615388999998686,164.7507547999994,164.7507547999994,164.7507547999994,164.7507547999994,164.7507547999994,164.7507547999994,164.7507547999994,164.7507547999994,003,P004,2025_Jan_18_1452,CategoryLocalizer,2021.2.3,59.927176494365,
122.0,122.8,4,0.75,Stimuli\ImageFiles-Set1\Scenes\Scenes_006.png,0,0,0,198,198,198,,,,,,,,,,,,,122.0068437000009,0.006843700000899844,None,,164.95093560000169,164.95093560000169,164.95093560000169,164.95093560000169,164.95093560000169,164.95093560000169,164.95093560000169,164.95093560000169,003,P004,2025_Jan_18_1452,CategoryLocalizer,2021.2.3,59.927176494365,
122.8,123.0,5,0.0,Stimuli\Blank.png,0,0,0,199,199,199,,,,,,,,,,,,,122.80722660000174,0.007226600001743577,None,,165.75165370000104,165.75165370000104,165.75165370000104,165.75165370000104,165.75165370000104,165.75165370000104,165.75165370000104,165.75165370000104,003,P004,2025_Jan_18_1452,CategoryLocalizer,2021.2.3,59.927176494365,
123.0,123.8,4,0.75,Stimuli\ImageFiles-Set1\Scenes\Scenes_009.png,0,0,0,200,200,200,,,,,,,,,,,,,123.00710070000059,0.007100700000592042,None,,165.95181520000187,165.95181520000187,165.95181520000187,165.95181520000187,165.95181520000187,165.95181520000187,165.95181520000187,165.95181520000187,003,P004,2025_Jan_18_1452,CategoryLocalizer,2021.2.3,59.927176494365,
123.8,124.0,5,0.0,Stimuli\Blank.png,0,0,0,201,201,201,,,,,,,,,,,,,123.8093254000014,0.009325400001401363,5,0.14309660000071744,166.76922080000077,166.76922080000077,166.76922080000077,166.76922080000077,166.76922080000077,166.76922080000077,166.76922080000077,166.76922080000077,003,P004,2025_Jan_18_1452,CategoryLocalizer,2021.2.3,59.927176494365,
124.0,124.8,4,0.75,Stimuli\ImageFiles-Set1\Scenes\Scenes_017.png,0,0,0,202,202,202,,,,,,,,,,,,,124.02505270000256,0.025052700002561323,None,,166.98605859999952,166.98605859999952,166.98605859999952,166.98605859999952,166.98605859999952,166.98605859999952,166.98605859999952,166.98605859999952,003,P004,2025_Jan_18_1452,CategoryLocalizer,2021.2.3,59.927176494365,
124.8,125.0,5,0.0,Stimuli\Blank.png,0,0,0,203,203,203,,,,,,,,,,,,,124.82582040000125,0.025820400001251187,None,,167.77009629999884,167.77009629999884,167.77009629999884,167.77009629999884,167.77009629999884,167.77009629999884,167.77009629999884,167.77009629999884,003,P004,2025_Jan_18_1452,CategoryLocalizer,2021.2.3,59.927176494365,
125.0,125.8,4,0.75,Stimuli\ImageFiles-Set1\Scenes\Scenes_016.png,0,0,0,204,204,204,,,,,,,,,,,,,125.00986720000219,0.009867200002190657,None,,167.970268699999,167.970268699999,167.970268699999,167.970268699999,167.970268699999,167.970268699999,167.970268699999,167.970268699999,003,P004,2025_Jan_18_1452,CategoryLocalizer,2021.2.3,59.927176494365,
125.8,126.0,5,0.0,Stimuli\Blank.png,0,0,0,205,205,205,,,,,,,,,,,,,125.8260678000006,0.026067800000603825,5,0.1414998000000196,168.7709661000008,168.7709661000008,168.7709661000008,168.7709661000008,168.7709661000008,168.7709661000008,168.7709661000008,168.7709661000008,003,P004,2025_Jan_18_1452,CategoryLocalizer,2021.2.3,59.927176494365,
126.0,126.8,4,0.75,Stimuli\ImageFiles-Set1\Scenes\Scenes_038.png,0,0,0,206,206,206,,,,,,,,,,,,,126.00963240000056,0.009632400000555208,None,,168.97116200000164,168.97116200000164,168.97116200000164,168.97116200000164,168.97116200000164,168.97116200000164,168.97116200000164,168.97116200000164,003,P004,2025_Jan_18_1452,CategoryLocalizer,2021.2.3,59.927176494365,
126.8,127.0,5,0.0,Stimuli\Blank.png,0,0,0,207,207,207,,,,,,,,,,,,,126.82698770000206,0.026987700002067072,None,,169.77184920000218,169.77184920000218,169.77184920000218,169.77184920000218,169.77184920000218,169.77184920000218,169.77184920000218,169.77184920000218,003,P004,2025_Jan_18_1452,CategoryLocalizer,2021.2.3,59.927176494365,
127.0,127.8,4,0.75,Stimuli\ImageFiles-Set1\Scenes\Scenes_026.png,0,0,0,208,208,208,,,,,,,,,,,,,127.0106091000016,0.0106091000016022,None,,169.95536110000103,169.95536110000103,169.95536110000103,169.95536110000103,169.95536110000103,169.95536110000103,169.95536110000103,169.95536110000103,003,P004,2025_Jan_18_1452,CategoryLocalizer,2021.2.3,59.927176494365,
127.8,128.0,5,0.0,Stimuli\Blank.png,0,0,0,209,209,209,,,,,,,,,,,,,127.81168150000303,0.011681500003035694,5,0.1560892999987118,170.7561706000015,170.7561706000015,170.7561706000015,170.7561706000015,170.7561706000015,170.7561706000015,170.7561706000015,170.7561706000015,003,P004,2025_Jan_18_1452,CategoryLocalizer,2021.2.3,59.927176494365,
128.0,128.8,4,0.75,Stimuli\ImageFiles-Set1\Scenes\Scenes_022.png,0,0,0,210,210,210,,,,,,,,,,,,,128.01200919999974,0.012009199999738485,None,,170.95622860000003,170.95622860000003,170.95622860000003,170.95622860000003,170.95622860000003,170.95622860000003,170.95622860000003,170.95622860000003,003,P004,2025_Jan_18_1452,CategoryLocalizer,2021.2.3,59.927176494365,
128.8,129.0,5,0.0,Stimuli\Blank.png,0,0,0,211,211,211,,,,,,,,,,,,,128.81444660000125,0.014446600001235765,None,,171.77363239999977,171.77363239999977,171.77363239999977,171.77363239999977,171.77363239999977,171.77363239999977,171.77363239999977,171.77363239999977,003,P004,2025_Jan_18_1452,CategoryLocalizer,2021.2.3,59.927176494365,
129.0,129.8,4,0.75,Stimuli\ImageFiles-Set1\Scenes\Scenes_029.png,0,0,0,212,212,212,,,,,,,,,,,,,129.02950130000318,0.029501300003175857,None,,171.97382429999925,171.97382429999925,171.97382429999925,171.97382429999925,171.97382429999925,171.97382429999925,171.97382429999925,171.97382429999925,003,P004,2025_Jan_18_1452,CategoryLocalizer,2021.2.3,59.927176494365,
129.8,130.0,5,0.0,Stimuli\Blank.png,0,0,0,213,213,213,,,,,,,,,,,,,129.81496130000232,0.014961300002312328,5,0.13789120000001276,172.77460340000107,172.77460340000107,172.77460340000107,172.77460340000107,172.77460340000107,172.77460340000107,172.77460340000107,172.77460340000107,003,P004,2025_Jan_18_1452,CategoryLocalizer,2021.2.3,59.927176494365,
130.0,130.8,4,0.75,Stimuli\ImageFiles-Set1\Scenes\Scenes_014.png,0,0,0,214,214,214,,,,,,,,,,,,,130.030786000003,0.030786000002990477,None,,172.99134459999914,172.99134459999914,172.99134459999914,172.99134459999914,172.99134459999914,172.99134459999914,172.99134459999914,172.99134459999914,003,P004,2025_Jan_18_1452,CategoryLocalizer,2021.2.3,59.927176494365,
130.8,131.0,5,0.0,Stimuli\Blank.png,0,0,0,215,215,215,,,,,,,,,,,,,130.83119010000155,0.031190100001538212,None,,173.77537519999896,173.77537519999896,173.77537519999896,173.77537519999896,173.77537519999896,173.77537519999896,173.77537519999896,173.77537519999896,003,P004,2025_Jan_18_1452,CategoryLocalizer,2021.2.3,59.927176494365,
131.0,131.8,4,0.75,Stimuli\ImageFiles-Set1\Scenes\Scenes_004.png,0,0,0,216,216,216,,,,,,,,,,,,,131.01508140000078,0.015081400000781287,None,,173.97554089999903,173.97554089999903,173.97554089999903,173.97554089999903,173.97554089999903,173.97554089999903,173.97554089999903,173.97554089999903,003,P004,2025_Jan_18_1452,CategoryLocalizer,2021.2.3,59.927176494365,
131.8,132.0,5,0.0,Stimuli\Blank.png,0,0,0,217,217,217,,,,,,,,,,,,,131.81578190000073,0.015781900000717997,None,,174.75958349999928,174.75958349999928,174.75958349999928,174.75958349999928,174.75958349999928,174.75958349999928,174.75958349999928,174.75958349999928,003,P004,2025_Jan_18_1452,CategoryLocalizer,2021.2.3,59.927176494365,
132.0,132.8,4,0.75,Stimuli\ImageFiles-Set1\Scenes\Scenes_055.png,0,0,0,218,218,218,,,,,,,,,,,,,131.99883600000248,-0.0011639999975159299,None,,174.9430629999988,174.9430629999988,174.9430629999988,174.9430629999988,174.9430629999988,174.9430629999988,174.9430629999988,174.9430629999988,003,P004,2025_Jan_18_1452,CategoryLocalizer,2021.2.3,59.927176494365,
132.8,133.0,5,0.0,Stimuli\Blank.png,0,0,0,219,219,219,,,,,,,,,,,,,132.79858720000266,-0.0014127999973538863,None,,175.74376940000002,175.74376940000002,175.74376940000002,175.74376940000002,175.74376940000002,175.74376940000002,175.74376940000002,175.74376940000002,003,P004,2025_Jan_18_1452,CategoryLocalizer,2021.2.3,59.927176494365,
133.0,133.8,4,0.75,Stimuli\ImageFiles-Set1\Scenes\Scenes_055.png,1,1,0,220,220,220,,,,,,,,,,,,,133.01618270000108,0.016182700001081685,4,0.5378914000029908,175.96063100000174,175.96063100000174,175.96063100000174,175.96063100000174,175.96063100000174,175.96063100000174,175.96063100000174,175.96063100000174,003,P004,2025_Jan_18_1452,CategoryLocalizer,2021.2.3,59.927176494365,
133.8,134.0,5,0.0,Stimuli\Blank.png,0,0,0,221,221,221,,,,,,,,,,,,,133.7999641000024,-3.589999761288709e-05,5,0.1675881000010122,176.74465190000046,176.74465190000046,176.74465190000046,176.74465190000046,176.74465190000046,176.74465190000046,176.74465190000046,176.74465190000046,003,P004,2025_Jan_18_1452,CategoryLocalizer,2021.2.3,59.927176494365,
134.0,134.8,4,0.75,Stimuli\ImageFiles-Set1\Scenes\Scenes_046.png,0,0,0,222,222,222,,,,,,,,,,,,,134.00035290000233,0.00035290000232635066,None,,176.96155790000194,176.96155790000194,176.96155790000194,176.96155790000194,176.96155790000194,176.96155790000194,176.96155790000194,176.96155790000194,003,P004,2025_Jan_18_1452,CategoryLocalizer,2021.2.3,59.927176494365,
134.8,135.0,5,0.0,Stimuli\Blank.png,0,0,0,223,223,223,,,,,,,,,,,,,134.8199648000009,0.019964800000877858,None,,177.77891140000065,177.77891140000065,177.77891140000065,177.77891140000065,177.77891140000065,177.77891140000065,177.77891140000065,177.77891140000065,003,P004,2025_Jan_18_1452,CategoryLocalizer,2021.2.3,59.927176494365,
135.0,135.8,4,0.75,Stimuli\ImageFiles-Set1\Scenes\Scenes_005.png,0,0,0,224,224,224,,,,,,,,,,,,,135.01769530000092,0.017695300000923453,None,,177.9624014000001,177.9624014000001,177.9624014000001,177.9624014000001,177.9624014000001,177.9624014000001,177.9624014000001,177.9624014000001,003,P004,2025_Jan_18_1452,CategoryLocalizer,2021.2.3,59.927176494365,
135.8,136.0,5,0.0,Stimuli\Blank.png,0,0,0,225,225,225,,,,,,,,,,,,,135.803940400001,0.003940400000999489,5,0.14912570000160486,178.7631110000002,178.7631110000002,178.7631110000002,178.7631110000002,178.7631110000002,178.7631110000002,178.7631110000002,178.7631110000002,003,P004,2025_Jan_18_1452,CategoryLocalizer,2021.2.3,59.927176494365,
136.0,136.8,2,0.75,Stimuli\ImageFiles-Set1\Bodies\Bodies_QuadStretch_00003.png,0,0,0,226,226,226,,,,,,,,,,,,,136.01872670000012,0.01872670000011567,None,,178.963270799999,178.963270799999,178.963270799999,178.963270799999,178.963270799999,178.963270799999,178.963270799999,178.963270799999,003,P004,2025_Jan_18_1452,CategoryLocalizer,2021.2.3,59.927176494365,
136.8,137.0,5,0.0,Stimuli\Blank.png,0,0,0,227,227,227,,,,,,,,,,,,,136.8042845000018,0.004284500001801916,None,,179.76400170000124,179.76400170000124,179.76400170000124,179.76400170000124,179.76400170000124,179.76400170000124,179.76400170000124,179.76400170000124,003,P004,2025_Jan_18_1452,CategoryLocalizer,2021.2.3,59.927176494365,
137.0,137.8,2,0.75,Stimuli\ImageFiles-Set1\Bodies\Bodies_QuadStretch_00001.png,0,0,0,228,228,228,,,,,,,,,,,,,137.01999280000018,0.019992800000181887,None,,179.9641612000014,179.9641612000014,179.9641612000014,179.9641612000014,179.9641612000014,179.9641612000014,179.9641612000014,179.9641612000014,003,P004,2025_Jan_18_1452,CategoryLocalizer,2021.2.3,59.927176494365,
137.8,138.0,5,0.0,Stimuli\Blank.png,0,0,0,229,229,229,,,,,,,,,,,,,137.8041286000007,0.004128600000683491,5,0.1640542999994068,180.74817900000198,180.74817900000198,180.74817900000198,180.74817900000198,180.74817900000198,180.74817900000198,180.74817900000198,180.74817900000198,003,P004,2025_Jan_18_1452,CategoryLocalizer,2021.2.3,59.927176494365,
138.0,138.8,2,0.75,Stimuli\ImageFiles-Set1\Bodies\Bodies_QuadStretch_00001.png,1,1,0,230,230,230,,,,,,,,,,,,,138.00391670000317,0.003916700003173901,4,0.4848885999999766,180.94835769999918,180.94835769999918,180.94835769999918,180.94835769999918,180.94835769999918,180.94835769999918,180.94835769999918,180.94835769999918,003,P004,2025_Jan_18_1452,CategoryLocalizer,2021.2.3,59.927176494365,
138.8,139.0,5,0.0,Stimuli\Blank.png,0,0,0,231,231,231,,,,,,,,,,,,,138.8050402000008,0.005040200000792083,None,,181.7490641000004,181.7490641000004,181.7490641000004,181.7490641000004,181.7490641000004,181.7490641000004,181.7490641000004,181.7490641000004,003,P004,2025_Jan_18_1452,CategoryLocalizer,2021.2.3,59.927176494365,
139.0,139.8,2,0.75,Stimuli\ImageFiles-Set1\Bodies\Bodies_Kneeling_00005.png,0,0,0,232,232,232,,,,,,,,,,,,,139.0042678000027,0.0042678000027081,None,,181.9659427000006,181.9659427000006,181.9659427000006,181.9659427000006,181.9659427000006,181.9659427000006,181.9659427000006,181.9659427000006,003,P004,2025_Jan_18_1452,CategoryLocalizer,2021.2.3,59.927176494365,
139.8,140.0,5,0.0,Stimuli\Blank.png,0,0,0,233,233,233,,,,,,,,,,,,,139.82202020000113,0.022020200001122703,5,0.14563829999679,182.76664009999877,182.76664009999877,182.76664009999877,182.76664009999877,182.76664009999877,182.76664009999877,182.76664009999877,182.76664009999877,003,P004,2025_Jan_18_1452,CategoryLocalizer,2021.2.3,59.927176494365,
140.0,140.8,2,0.75,Stimuli\ImageFiles-Set1\Bodies\Bodies_Walking_00004.png,0,0,0,234,234,234,,,,,,,,,,,,,140.00553370000125,0.005533700001251418,None,,182.95014599999922,182.95014599999922,182.95014599999922,182.95014599999922,182.95014599999922,182.95014599999922,182.95014599999922,182.95014599999922,003,P004,2025_Jan_18_1452,CategoryLocalizer,2021.2.3,59.927176494365,
140.8,141.0,5,0.0,Stimuli\Blank.png,0,0,0,235,235,235,,,,,,,,,,,,,140.8061673000011,0.006167300001095555,None,,183.7508295000007,183.7508295000007,183.7508295000007,183.7508295000007,183.7508295000007,183.7508295000007,183.7508295000007,183.7508295000007,003,P004,2025_Jan_18_1452,CategoryLocalizer,2021.2.3,59.927176494365,
141.0,141.8,2,0.75,Stimuli\ImageFiles-Set1\Bodies\Bodies_SittingChair_00005.png,0,0,0,236,236,236,,,,,,,,,,,,,141.00654000000213,0.006540000002132729,None,,183.9510173000017,183.9510173000017,183.9510173000017,183.9510173000017,183.9510173000017,183.9510173000017,183.9510173000017,183.9510173000017,003,P004,2025_Jan_18_1452,CategoryLocalizer,2021.2.3,59.927176494365,
141.8,142.0,5,0.0,Stimuli\Blank.png,0,0,0,237,237,237,,,,,,,,,,,,,141.80693950000204,0.006939500002033583,5,0.1605277999988175,184.75171010000122,184.75171010000122,184.75171010000122,184.75171010000122,184.75171010000122,184.75171010000122,184.75171010000122,184.75171010000122,003,P004,2025_Jan_18_1452,CategoryLocalizer,2021.2.3,59.927176494365,
142.0,142.8,2,0.75,Stimuli\ImageFiles-Set1\Bodies\Bodies_Kneeling_00007.png,0,0,0,238,238,238,,,,,,,,,,,,,142.00741710000148,0.007417100001475774,None,,184.9518801000013,184.9518801000013,184.9518801000013,184.9518801000013,184.9518801000013,184.9518801000013,184.9518801000013,184.9518801000013,003,P004,2025_Jan_18_1452,CategoryLocalizer,2021.2.3,59.927176494365,
142.8,143.0,5,0.0,Stimuli\Blank.png,0,0,0,239,239,239,,,,,,,,,,,,,142.80986889999986,0.009868899999844416,None,,185.76927219999925,185.76927219999925,185.76927219999925,185.76927219999925,185.76927219999925,185.76927219999925,185.76927219999925,185.76927219999925,003,P004,2025_Jan_18_1452,CategoryLocalizer,2021.2.3,59.927176494365,
143.0,143.8,2,0.75,Stimuli\ImageFiles-Set1\Bodies\Bodies_SittingFloor_00003.png,0,0,0,240,240,240,,,,,,,,,,,,,143.02506280000307,0.02506280000307015,None,,185.9861435999992,185.9861435999992,185.9861435999992,185.9861435999992,185.9861435999992,185.9861435999992,185.9861435999992,185.9861435999992,003,P004,2025_Jan_18_1452,CategoryLocalizer,2021.2.3,59.927176494365,
143.8,144.0,5,0.0,Stimuli\Blank.png,0,0,0,241,241,241,,,,,,,,,,,,,143.82550950000223,0.02550950000221519,5,0.14202110000042012,186.7701503999997,186.7701503999997,186.7701503999997,186.7701503999997,186.7701503999997,186.7701503999997,186.7701503999997,186.7701503999997,003,P004,2025_Jan_18_1452,CategoryLocalizer,2021.2.3,59.927176494365,
144.0,144.8,2,0.75,Stimuli\ImageFiles-Set1\Bodies\Bodies_Walking_00002.png,0,0,0,242,242,242,,,,,,,,,,,,,144.0089807000004,0.008980700000392972,None,,186.95364279999922,186.95364279999922,186.95364279999922,186.95364279999922,186.95364279999922,186.95364279999922,186.95364279999922,186.95364279999922,003,P004,2025_Jan_18_1452,CategoryLocalizer,2021.2.3,59.927176494365,
144.8,145.0,5,0.0,Stimuli\Blank.png,0,0,0,243,243,243,,,,,,,,,,,,,144.80976960000044,0.009769600000424816,None,,187.75435270000162,187.75435270000162,187.75435270000162,187.75435270000162,187.75435270000162,187.75435270000162,187.75435270000162,187.75435270000162,003,P004,2025_Jan_18_1452,CategoryLocalizer,2021.2.3,59.927176494365,
145.0,145.8,2,0.75,Stimuli\ImageFiles-Set1\Bodies\Bodies_Hanging_00002.png,0,0,0,244,244,244,,,,,,,,,,,,,145.01070200000322,0.010702000003220746,None,,187.95453579999958,187.95453579999958,187.95453579999958,187.95453579999958,187.95453579999958,187.95453579999958,187.95453579999958,187.95453579999958,003,P004,2025_Jan_18_1452,CategoryLocalizer,2021.2.3,59.927176494365,
145.8,146.0,5,0.0,Stimuli\Blank.png,0,0,0,245,245,245,,,,,,,,,,,,,145.81025640000007,0.010256400000059784,5,0.1571447000023909,188.75523479999902,188.75523479999902,188.75523479999902,188.75523479999902,188.75523479999902,188.75523479999902,188.75523479999902,188.75523479999902,003,P004,2025_Jan_18_1452,CategoryLocalizer,2021.2.3,59.927176494365,
146.0,146.8,2,0.75,Stimuli\ImageFiles-Set1\Bodies\Bodies_Lunging_00003.png,0,0,0,246,246,246,,,,,,,,,,,,,146.01067520000288,0.010675200002879137,None,,188.95541230000163,188.95541230000163,188.95541230000163,188.95541230000163,188.95541230000163,188.95541230000163,188.95541230000163,188.95541230000163,003,P004,2025_Jan_18_1452,CategoryLocalizer,2021.2.3,59.927176494365,
146.8,147.0,5,0.0,Stimuli\Blank.png,0,0,0,247,247,247,,,,,,,,,,,,,146.8119480000023,0.011948000002291792,None,,189.7561151000009,189.7561151000009,189.7561151000009,189.7561151000009,189.7561151000009,189.7561151000009,189.7561151000009,189.7561151000009,003,P004,2025_Jan_18_1452,CategoryLocalizer,2021.2.3,59.927176494365,
147.0,147.8,2,0.75,Stimuli\ImageFiles-Set1\Bodies\Bodies_DownwardDog_00007.png,0,0,0,248,248,248,,,,,,,,,,,,,147.01196120000168,0.011961200001678662,None,,189.95630710000114,189.95630710000114,189.95630710000114,189.95630710000114,189.95630710000114,189.95630710000114,189.95630710000114,189.95630710000114,003,P004,2025_Jan_18_1452,CategoryLocalizer,2021.2.3,59.927176494365,
147.8,148.0,5,0.0,Stimuli\Blank.png,0,0,0,249,249,249,,,,,,,,,,,,,147.81400159999976,0.014001599999744485,5,0.13836360000277637,190.77382919999945,190.77382919999945,190.77382919999945,190.77382919999945,190.77382919999945,190.77382919999945,190.77382919999945,190.77382919999945,003,P004,2025_Jan_18_1452,CategoryLocalizer,2021.2.3,59.927176494365,
148.0,148.8,2,0.75,Stimuli\ImageFiles-Set1\Bodies\Bodies_Kicking_00003.png,0,0,0,250,250,250,,,,,,,,,,,,,148.02973209999982,0.029732099999819184,None,,190.97387430000163,190.97387430000163,190.97387430000163,190.97387430000163,190.97387430000163,190.97387430000163,190.97387430000163,190.97387430000163,003,P004,2025_Jan_18_1452,CategoryLocalizer,2021.2.3,59.927176494365,
148.8,149.0,5,0.0,Stimuli\Blank.png,0,0,0,251,251,251,,,,,,,,,,,,,148.81352530000004,0.013525300000026164,None,,191.75788400000238,191.75788400000238,191.75788400000238,191.75788400000238,191.75788400000238,191.75788400000238,191.75788400000238,191.75788400000238,003,P004,2025_Jan_18_1452,CategoryLocalizer,2021.2.3,59.927176494365,
149.0,149.8,2,0.75,Stimuli\ImageFiles-Set1\Bodies\Bodies_Punching_00001.png,0,0,0,252,252,252,,,,,,,,,,,,,149.01396070000192,0.013960700001916848,None,,191.97479380000004,191.97479380000004,191.97479380000004,191.97479380000004,191.97479380000004,191.97479380000004,191.97479380000004,191.97479380000004,003,P004,2025_Jan_18_1452,CategoryLocalizer,2021.2.3,59.927176494365,
149.8,150.0,5,0.0,Stimuli\Blank.png,0,0,0,253,253,253,,,,,,,,,,,,,149.83128790000046,0.03128790000045001,5,0.136825300000055,192.7754382000021,192.7754382000021,192.7754382000021,192.7754382000021,192.7754382000021,192.7754382000021,192.7754382000021,192.7754382000021,003,P004,2025_Jan_18_1452,CategoryLocalizer,2021.2.3,59.927176494365,
150.0,150.8,2,0.75,Stimuli\ImageFiles-Set1\Bodies\Bodies_Pushing_00005.png,0,0,0,254,254,254,,,,,,,,,,,,,150.01388090000182,0.013880900001822738,None,,192.95893240000078,192.95893240000078,192.95893240000078,192.95893240000078,192.95893240000078,192.95893240000078,192.95893240000078,192.95893240000078,003,P004,2025_Jan_18_1452,CategoryLocalizer,2021.2.3,59.927176494365,
150.8,151.0,5,0.0,Stimuli\Blank.png,0,0,0,255,255,255,,,,,,,,,,,,,150.81467300000077,0.01467300000075511,None,,193.75964319999912,193.75964319999912,193.75964319999912,193.75964319999912,193.75964319999912,193.75964319999912,193.75964319999912,193.75964319999912,003,P004,2025_Jan_18_1452,CategoryLocalizer,2021.2.3,59.927176494365,
151.0,151.8,2,0.75,Stimuli\ImageFiles-Set1\Bodies\Bodies_Running_00006.png,0,0,0,256,256,256,,,,,,,,,,,,,151.01522660000046,0.015226600000460166,None,,193.95981250000114,193.95981250000114,193.95981250000114,193.95981250000114,193.95981250000114,193.95981250000114,193.95981250000114,193.95981250000114,003,P004,2025_Jan_18_1452,CategoryLocalizer,2021.2.3,59.927176494365,
151.8,152.0,5,0.0,Stimuli\Blank.png,0,0,0,257,257,257,,,,,,,,,,,,,151.7991381000029,-0.0008618999971190533,None,,194.74384230000214,194.74384230000214,194.74384230000214,194.74384230000214,194.74384230000214,194.74384230000214,194.74384230000214,194.74384230000214,003,P004,2025_Jan_18_1452,CategoryLocalizer,2021.2.3,59.927176494365,
152.0,164.0,0,0.0,Stimuli\Blank.png,0,0,0,258,258,258,,,,,,,,,,,,,151.99939450000238,-0.0006054999976186082,5,11.968127700001787,194.94401660000221,194.94401660000221,194.94401660000221,194.94401660000221,194.94401660000221,194.94401660000221,194.94401660000221,194.94401660000221,003,P004,2025_Jan_18_1452,CategoryLocalizer,2021.2.3,59.927176494365,
164.0,164.8,4,0.75,Stimuli\ImageFiles-Set1\Scenes\Scenes_030.png,0,0,0,259,259,259,,,,,,,,,,,,,164.00992849999966,0.009928499999659834,None,,206.95460029999958,206.95460029999958,206.95460029999958,206.95460029999958,206.95460029999958,206.95460029999958,206.95460029999958,206.95460029999958,003,P004,2025_Jan_18_1452,CategoryLocalizer,2021.2.3,59.927176494365,
164.8,165.0,5,0.0,Stimuli\Blank.png,0,0,0,260,260,260,,,,,,,,,,,,,164.81070420000106,0.010704200001043773,None,,207.75529639999877,207.75529639999877,207.75529639999877,207.75529639999877,207.75529639999877,207.75529639999877,207.75529639999877,207.75529639999877,003,P004,2025_Jan_18_1452,CategoryLocalizer,2021.2.3,59.927176494365,
165.0,165.8,4,0.75,Stimuli\ImageFiles-Set1\Scenes\Scenes_020.png,0,0,0,261,261,261,,,,,,,,,,,,,165.01133950000076,0.011339500000758562,None,,207.97216130000015,207.97216130000015,207.97216130000015,207.97216130000015,207.97216130000015,207.97216130000015,207.97216130000015,207.97216130000015,003,P004,2025_Jan_18_1452,CategoryLocalizer,2021.2.3,59.927176494365,
165.8,166.0,5,0.0,Stimuli\Blank.png,0,0,0,262,262,262,,,,,,,,,,,,,165.82882400000017,0.028824000000156502,5,0.13846829999965848,208.77370710000105,208.77370710000105,208.77370710000105,208.77370710000105,208.77370710000105,208.77370710000105,208.77370710000105,208.77370710000105,003,P004,2025_Jan_18_1452,CategoryLocalizer,2021.2.3,59.927176494365,
166.0,166.8,4,0.75,Stimuli\ImageFiles-Set1\Scenes\Scenes_054.png,0,0,0,263,263,263,,,,,,,,,,,,,166.01192650000303,0.011926500003028195,None,,208.95647879999888,208.95647879999888,208.95647879999888,208.95647879999888,208.95647879999888,208.95647879999888,208.95647879999888,208.95647879999888,003,P004,2025_Jan_18_1452,CategoryLocalizer,2021.2.3,59.927176494365,
166.8,167.0,5,0.0,Stimuli\Blank.png,0,0,0,264,264,264,,,,,,,,,,,,,166.81281780000063,0.012817800000618718,None,,209.75710769999932,209.75710769999932,209.75710769999932,209.75710769999932,209.75710769999932,209.75710769999932,209.75710769999932,209.75710769999932,003,P004,2025_Jan_18_1452,CategoryLocalizer,2021.2.3,59.927176494365,
167.0,167.8,4,0.75,Stimuli\ImageFiles-Set1\Scenes\Scenes_053.png,0,0,0,265,265,265,,,,,,,,,,,,,167.0140793999999,0.014079399999900488,None,,209.97392430000036,209.97392430000036,209.97392430000036,209.97392430000036,209.97392430000036,209.97392430000036,209.97392430000036,209.97392430000036,003,P004,2025_Jan_18_1452,CategoryLocalizer,2021.2.3,59.927176494365,
167.8,168.0,5,0.0,Stimuli\Blank.png,0,0,0,266,266,266,,,,,,,,,,,,,167.83028390000254,0.030283900002530117,5,0.13751200000115205,210.77462509999896,210.77462509999896,210.77462509999896,210.77462509999896,210.77462509999896,210.77462509999896,210.77462509999896,210.77462509999896,003,P004,2025_Jan_18_1452,CategoryLocalizer,2021.2.3,59.927176494365,
168.0,168.8,4,0.75,Stimuli\ImageFiles-Set1\Scenes\Scenes_044.png,0,0,0,267,267,267,,,,,,,,,,,,,168.01376250000249,0.013762500002485467,None,,210.9581184000017,210.9581184000017,210.9581184000017,210.9581184000017,210.9581184000017,210.9581184000017,210.9581184000017,210.9581184000017,003,P004,2025_Jan_18_1452,CategoryLocalizer,2021.2.3,59.927176494365,
168.8,169.0,5,0.0,Stimuli\Blank.png,0,0,0,268,268,268,,,,,,,,,,,,,168.81454630000007,0.014546300000063184,None,,211.7588364000003,211.7588364000003,211.7588364000003,211.7588364000003,211.7588364000003,211.7588364000003,211.7588364000003,211.7588364000003,003,P004,2025_Jan_18_1452,CategoryLocalizer,2021.2.3,59.927176494365,
169.0,169.8,4,0.75,Stimuli\ImageFiles-Set1\Scenes\Scenes_039.png,0,0,0,269,269,269,,,,,,,,,,,,,169.01500040000246,0.01500040000246372,None,,211.97567550000167,211.97567550000167,211.97567550000167,211.97567550000167,211.97567550000167,211.97567550000167,211.97567550000167,211.97567550000167,003,P004,2025_Jan_18_1452,CategoryLocalizer,2021.2.3,59.927176494365,
169.8,170.0,5,0.0,Stimuli\Blank.png,0,0,0,270,270,270,,,,,,,,,,,,,169.81547830000272,0.01547830000271233,5,0.15238759999920148,212.75970420000158,212.75970420000158,212.75970420000158,212.75970420000158,212.75970420000158,212.75970420000158,212.75970420000158,212.75970420000158,003,P004,2025_Jan_18_1452,CategoryLocalizer,2021.2.3,59.927176494365,
170.0,170.8,4,0.75,Stimuli\ImageFiles-Set1\Scenes\Scenes_011.png,0,0,0,271,271,271,,,,,,,,,,,,,170.01490980000017,0.014909800000168616,None,,212.95988370000123,212.95988370000123,212.95988370000123,212.95988370000123,212.95988370000123,212.95988370000123,212.95988370000123,212.95988370000123,003,P004,2025_Jan_18_1452,CategoryLocalizer,2021.2.3,59.927176494365,
170.8,171.0,5,0.0,Stimuli\Blank.png,0,0,0,272,272,272,,,,,,,,,,,,,170.81565950000004,0.015659500000026583,None,,213.7605943999988,213.7605943999988,213.7605943999988,213.7605943999988,213.7605943999988,213.7605943999988,213.7605943999988,213.7605943999988,003,P004,2025_Jan_18_1452,CategoryLocalizer,2021.2.3,59.927176494365,
171.0,171.8,4,0.75,Stimuli\ImageFiles-Set1\Scenes\Scenes_060.png,0,0,0,273,273,273,,,,,,,,,,,,,170.99986960000024,-0.00013039999976172112,None,,213.96076620000167,213.96076620000167,213.96076620000167,213.96076620000167,213.96076620000167,213.96076620000167,213.96076620000167,213.96076620000167,003,P004,2025_Jan_18_1452,CategoryLocalizer,2021.2.3,59.927176494365,
171.8,172.0,5,0.0,Stimuli\Blank.png,0,0,0,274,274,274,,,,,,,,,,,,,171.81887910000296,0.018879100002948235,5,0.13395440000022063,214.77816879999955,214.77816879999955,214.77816879999955,214.77816879999955,214.77816879999955,214.77816879999955,214.77816879999955,214.77816879999955,003,P004,2025_Jan_18_1452,CategoryLocalizer,2021.2.3,59.927176494365,
172.0,172.8,4,0.75,Stimuli\ImageFiles-Set1\Scenes\Scenes_060.png,1,1,0,275,275,275,,,,,,,,,,,,,172.0166895000002,0.01668950000021141,4,0.5414023000012094,214.9616429000016,214.9616429000016,214.9616429000016,214.9616429000016,214.9616429000016,214.9616429000016,214.9616429000016,214.9616429000016,003,P004,2025_Jan_18_1452,CategoryLocalizer,2021.2.3,59.927176494365,
172.8,173.0,5,0.0,Stimuli\Blank.png,0,0,0,276,276,276,,,,,,,,,,,,,172.8013288000002,0.0013288000001807632,None,,215.74566810000033,215.74566810000033,215.74566810000033,215.74566810000033,215.74566810000033,215.74566810000033,215.74566810000033,215.74566810000033,003,P004,2025_Jan_18_1452,CategoryLocalizer,2021.2.3,59.927176494365,
173.0,173.8,4,0.75,Stimuli\ImageFiles-Set1\Scenes\Scenes_002.png,0,0,0,277,277,277,,,,,,,,,,,,,173.00111740000284,0.0011174000028404407,None,,215.94584029999896,215.94584029999896,215.94584029999896,215.94584029999896,215.94584029999896,215.94584029999896,215.94584029999896,215.94584029999896,003,P004,2025_Jan_18_1452,CategoryLocalizer,2021.2.3,59.927176494365,
173.8,174.0,5,0.0,Stimuli\Blank.png,0,0,0,278,278,278,,,,,,,,,,,,,173.80187529999967,0.0018752999996536346,5,0.1655285000015283,216.7465622999989,216.7465622999989,216.7465622999989,216.7465622999989,216.7465622999989,216.7465622999989,216.7465622999989,216.7465622999989,003,P004,2025_Jan_18_1452,CategoryLocalizer,2021.2.3,59.927176494365,
174.0,174.8,4,0.75,Stimuli\ImageFiles-Set1\Scenes\Scenes_050.png,0,0,0,279,279,279,,,,,,,,,,,,,174.00498820000212,0.0049882000021170825,None,,216.9634131999992,216.9634131999992,216.9634131999992,216.9634131999992,216.9634131999992,216.9634131999992,216.9634131999992,216.9634131999992,003,P004,2025_Jan_18_1452,CategoryLocalizer,2021.2.3,59.927176494365,
174.8,175.0,5,0.0,Stimuli\Blank.png,0,0,0,280,280,280,,,,,,,,,,,,,174.8196409000011,0.019640900001093087,None,,217.76412139999957,217.76412139999957,217.76412139999957,217.76412139999957,217.76412139999957,217.76412139999957,217.76412139999957,217.76412139999957,003,P004,2025_Jan_18_1452,CategoryLocalizer,2021.2.3,59.927176494365,
175.0,175.8,4,0.75,Stimuli\ImageFiles-Set1\Scenes\Scenes_052.png,0,0,0,281,281,281,,,,,,,,,,,,,175.00444980000248,0.004449800002475968,None,,217.96431959999973,217.96431959999973,217.96431959999973,217.96431959999973,217.96431959999973,217.96431959999973,217.96431959999973,217.96431959999973,003,P004,2025_Jan_18_1452,CategoryLocalizer,2021.2.3,59.927176494365,
175.8,176.0,5,0.0,Stimuli\Blank.png,0,0,0,282,282,282,,,,,,,,,,,,,175.82002270000157,0.02002270000156159,5,0.14723679999951855,218.7649964000011,218.7649964000011,218.7649964000011,218.7649964000011,218.7649964000011,218.7649964000011,218.7649964000011,218.7649964000011,003,P004,2025_Jan_18_1452,CategoryLocalizer,2021.2.3,59.927176494365,
176.0,176.8,4,0.75,Stimuli\ImageFiles-Set1\Scenes\Scenes_003.png,0,0,0,283,283,283,,,,,,,,,,,,,176.00503350000145,0.0050335000014456455,None,,218.96516780000093,218.96516780000093,218.96516780000093,218.96516780000093,218.96516780000093,218.96516780000093,218.96516780000093,218.96516780000093,003,P004,2025_Jan_18_1452,CategoryLocalizer,2021.2.3,59.927176494365,
