eventStartTime,eventEndTime,eventCond,imSize,imFile,repeatedImage,responseEvent,Events.thisRepN,Events.thisTrialN,Events.thisN,Events.thisIndex,Instructions.started,Instructions.stopped,participantReadyResponse.keys,participantReadyResponse.rt,participantReadyResponse.started,participantReadyResponse.stopped,startWaitforTrigger,triggerResponse.keys,triggerResponse.rt,triggerResponse.started,triggerResponse.stopped,globalTimer,actualStartTime,startTimingDiff,participantResponse.keys,participantResponse.rt,participantResponse.started,participantResponse.stopped,image.started,image.stopped,fixationOutside.started,fixationOutside.stopped,fixationInside.started,fixationInside.stopped,session,participant,date,expName,psychopyVersion,frameRate,
,,,,,,,,,,,9.870380500000465,None,4,16.212469600002805,9.870380500000465,None,,,,,,,,,,,,,,,,,,,001,P005,2025_Jan_18_1548,CategoryLocalizer,2021.2.3,59.94876778333029,
,,,,,,,,,,,,,,,,,26.089183000000048,5,13.95043380000061,26.101875100001052,None,,,,,,,,,,,,,,001,P005,2025_Jan_18_1548,CategoryLocalizer,2021.2.3,59.94876778333029,
0.0,12.0,0,0.0,Stimuli\Blank.png,0,0,0,0,0,0,,,,,,,,,,,,40.06830600000103,0.06719830000292859,0.06719830000292859,5,11.904172999998991,40.14756750000015,None,40.14756750000015,None,40.14756750000015,None,40.14756750000015,None,001,P005,2025_Jan_18_1548,CategoryLocalizer,2021.2.3,59.94876778333029,
12.0,12.8,1,0.75,Stimuli\ImageFiles-Set1\Objects\Object_Stool_00001.png,0,0,0,1,1,1,,,,,,,,,,,,,12.010419300000649,0.010419300000648946,None,,52.091410000000906,52.091410000000906,52.091410000000906,52.091410000000906,52.091410000000906,52.091410000000906,52.091410000000906,52.091410000000906,001,P005,2025_Jan_18_1548,CategoryLocalizer,2021.2.3,59.94876778333029,
12.8,13.0,5,0.0,Stimuli\Blank.png,0,0,0,2,2,2,,,,,,,,,,,,,12.809204299999692,0.009204299999691301,None,,52.892118499999924,52.892118499999924,52.892118499999924,52.892118499999924,52.892118499999924,52.892118499999924,52.892118499999924,52.892118499999924,001,P005,2025_Jan_18_1548,CategoryLocalizer,2021.2.3,59.94876778333029,
13.0,13.8,1,0.75,Stimuli\ImageFiles-Set1\Objects\Object_Locker_00001.png,0,0,0,3,3,3,,,,,,,,,,,,,13.009543100000883,0.009543100000882987,None,,53.0922888999994,53.0922888999994,53.0922888999994,53.0922888999994,53.0922888999994,53.0922888999994,53.0922888999994,53.0922888999994,001,P005,2025_Jan_18_1548,CategoryLocalizer,2021.2.3,59.94876778333029,
13.8,14.0,5,0.0,Stimuli\Blank.png,0,0,0,4,4,4,,,,,,,,,,,,,13.810247000001254,0.010247000001253781,5,0.15886529999988852,53.89299799999935,53.89299799999935,53.89299799999935,53.89299799999935,53.89299799999935,53.89299799999935,53.89299799999935,53.89299799999935,001,P005,2025_Jan_18_1548,CategoryLocalizer,2021.2.3,59.94876778333029,
14.0,14.8,1,0.75,Stimuli\ImageFiles-Set1\Objects\Object_Brush_00001.png,0,0,0,5,5,5,,,,,,,,,,,,,14.010756700001366,0.01075670000136597,None,,54.10986799999955,54.10986799999955,54.10986799999955,54.10986799999955,54.10986799999955,54.10986799999955,54.10986799999955,54.10986799999955,001,P005,2025_Jan_18_1548,CategoryLocalizer,2021.2.3,59.94876778333029,
14.8,15.0,5,0.0,Stimuli\Blank.png,0,0,0,6,6,6,,,,,,,,,,,,,14.827724300001137,0.027724300001136015,None,,54.91060749999815,54.91060749999815,54.91060749999815,54.91060749999815,54.91060749999815,54.91060749999815,54.91060749999815,54.91060749999815,001,P005,2025_Jan_18_1548,CategoryLocalizer,2021.2.3,59.94876778333029,
15.0,15.8,1,0.75,Stimuli\ImageFiles-Set1\Objects\Object_Boat_00001.png,0,0,0,7,7,7,,,,,,,,,,,,,15.011721200000466,0.011721200000465615,None,,55.094070200000715,55.094070200000715,55.094070200000715,55.094070200000715,55.094070200000715,55.094070200000715,55.094070200000715,55.094070200000715,001,P005,2025_Jan_18_1548,CategoryLocalizer,2021.2.3,59.94876778333029,
15.8,16.0,5,0.0,Stimuli\Blank.png,0,0,0,8,8,8,,,,,,,,,,,,,15.812981600000057,0.012981600000056659,5,0.15696270000262302,55.894773399999394,55.894773399999394,55.894773399999394,55.894773399999394,55.894773399999394,55.894773399999394,55.894773399999394,55.894773399999394,001,P005,2025_Jan_18_1548,CategoryLocalizer,2021.2.3,59.94876778333029,
16.0,16.8,1,0.75,Stimuli\ImageFiles-Set1\Objects\Object_Boat_00001.png,1,1,0,9,9,9,,,,,,,,,,,,,16.012538200000563,0.012538200000562938,4,0.4947878999992099,56.094942299998365,56.094942299998365,56.094942299998365,56.094942299998365,56.094942299998365,56.094942299998365,56.094942299998365,56.094942299998365,001,P005,2025_Jan_18_1548,CategoryLocalizer,2021.2.3,59.94876778333029,
16.8,17.0,5,0.0,Stimuli\Blank.png,0,0,0,10,10,10,,,,,,,,,,,,,16.813644699999713,0.013644699999712628,None,,56.89564479999899,56.89564479999899,56.89564479999899,56.89564479999899,56.89564479999899,56.89564479999899,56.89564479999899,56.89564479999899,001,P005,2025_Jan_18_1548,CategoryLocalizer,2021.2.3,59.94876778333029,
17.0,17.8,1,0.75,Stimuli\ImageFiles-Set1\Objects\Object_Chest_00001.png,0,0,0,11,11,11,,,,,,,,,,,,,17.014110100000835,0.014110100000834791,None,,57.112500100000034,57.112500100000034,57.112500100000034,57.112500100000034,57.112500100000034,57.112500100000034,57.112500100000034,57.112500100000034,001,P005,2025_Jan_18_1548,CategoryLocalizer,2021.2.3,59.94876778333029,
17.8,18.0,5,0.0,Stimuli\Blank.png,0,0,0,12,12,12,,,,,,,,,,,,,17.830243500000506,0.030243500000505463,5,0.1387665999973251,57.91321279999829,57.91321279999829,57.91321279999829,57.91321279999829,57.91321279999829,57.91321279999829,57.91321279999829,57.91321279999829,001,P005,2025_Jan_18_1548,CategoryLocalizer,2021.2.3,59.94876778333029,
18.0,18.8,1,0.75,Stimuli\ImageFiles-Set1\Objects\Object_Door_00001.png,0,0,0,13,13,13,,,,,,,,,,,,,18.013810000000376,0.013810000000376021,None,,58.09669769999891,58.09669769999891,58.09669769999891,58.09669769999891,58.09669769999891,58.09669769999891,58.09669769999891,58.09669769999891,001,P005,2025_Jan_18_1548,CategoryLocalizer,2021.2.3,59.94876778333029,
18.8,19.0,5,0.0,Stimuli\Blank.png,0,0,0,14,14,14,,,,,,,,,,,,,18.814711900002294,0.014711900002293277,None,,58.8974132000003,58.8974132000003,58.8974132000003,58.8974132000003,58.8974132000003,58.8974132000003,58.8974132000003,58.8974132000003,001,P005,2025_Jan_18_1548,CategoryLocalizer,2021.2.3,59.94876778333029,
19.0,19.8,1,0.75,Stimuli\ImageFiles-Set1\Objects\Object_Bottle_00001.png,0,0,0,15,15,15,,,,,,,,,,,,,19.01505879999968,0.01505879999967874,None,,59.097576899999694,59.097576899999694,59.097576899999694,59.097576899999694,59.097576899999694,59.097576899999694,59.097576899999694,59.097576899999694,001,P005,2025_Jan_18_1548,CategoryLocalizer,2021.2.3,59.94876778333029,
19.8,20.0,5,0.0,Stimuli\Blank.png,0,0,0,16,16,16,,,,,,,,,,,,,19.799289400001726,-0.0007105999982748301,None,,59.88162079999893,59.88162079999893,59.88162079999893,59.88162079999893,59.88162079999893,59.88162079999893,59.88162079999893,59.88162079999893,001,P005,2025_Jan_18_1548,CategoryLocalizer,2021.2.3,59.94876778333029,
20.0,20.8,1,0.75,Stimuli\ImageFiles-Set1\Objects\Object_Book_00001.png,0,0,0,17,17,17,,,,,,,,,,,,,19.99985100000049,-0.00014899999951012433,None,,60.098463499998616,60.098463499998616,60.098463499998616,60.098463499998616,60.098463499998616,60.098463499998616,60.098463499998616,60.098463499998616,001,P005,2025_Jan_18_1548,CategoryLocalizer,2021.2.3,59.94876778333029,
20.8,21.0,5,0.0,Stimuli\Blank.png,0,0,0,18,18,18,,,,,,,,,,,,,20.818790799999988,0.01879079999998723,None,,60.915863700000045,60.915863700000045,60.915863700000045,60.915863700000045,60.915863700000045,60.915863700000045,60.915863700000045,60.915863700000045,001,P005,2025_Jan_18_1548,CategoryLocalizer,2021.2.3,59.94876778333029,
21.0,21.8,1,0.75,Stimuli\ImageFiles-Set1\Objects\Object_Key_00001.png,0,0,0,19,19,19,,,,,,,,,,,,,21.017216300002474,0.017216300002473872,None,,61.116021900001215,61.116021900001215,61.116021900001215,61.116021900001215,61.116021900001215,61.116021900001215,61.116021900001215,61.116021900001215,001,P005,2025_Jan_18_1548,CategoryLocalizer,2021.2.3,59.94876778333029,
21.8,22.0,5,0.0,Stimuli\Blank.png,0,0,0,20,20,20,,,,,,,,,,,,,21.817561300002126,0.01756130000212508,5,0.15159150000181398,61.90012999999817,61.90012999999817,61.90012999999817,61.90012999999817,61.90012999999817,61.90012999999817,61.90012999999817,61.90012999999817,001,P005,2025_Jan_18_1548,CategoryLocalizer,2021.2.3,59.94876778333029,
22.0,22.8,1,0.75,Stimuli\ImageFiles-Set1\Objects\Object_Pencil_00001.png,0,0,0,21,21,21,,,,,,,,,,,,,22.001332800002274,0.0013328000022738706,None,,62.08353960000022,62.08353960000022,62.08353960000022,62.08353960000022,62.08353960000022,62.08353960000022,62.08353960000022,62.08353960000022,001,P005,2025_Jan_18_1548,CategoryLocalizer,2021.2.3,59.94876778333029,
22.8,23.0,5,0.0,Stimuli\Blank.png,0,0,0,22,22,22,,,,,,,,,,,,,22.803870600000664,0.0038706000006634156,None,,62.90094609999869,62.90094609999869,62.90094609999869,62.90094609999869,62.90094609999869,62.90094609999869,62.90094609999869,62.90094609999869,001,P005,2025_Jan_18_1548,CategoryLocalizer,2021.2.3,59.94876778333029,
23.0,23.8,1,0.75,Stimuli\ImageFiles-Set1\Objects\Object_Nightstand_00001.png,0,0,0,23,23,23,,,,,,,,,,,,,23.019093099999736,0.019093099999736296,None,,63.11778509999931,63.11778509999931,63.11778509999931,63.11778509999931,63.11778509999931,63.11778509999931,63.11778509999931,63.11778509999931,001,P005,2025_Jan_18_1548,CategoryLocalizer,2021.2.3,59.94876778333029,
23.8,24.0,5,0.0,Stimuli\Blank.png,0,0,0,24,24,24,,,,,,,,,,,,,23.819709200000943,0.019709200000942673,5,0.14984060000278987,63.90181609999854,63.90181609999854,63.90181609999854,63.90181609999854,63.90181609999854,63.90181609999854,63.90181609999854,63.90181609999854,001,P005,2025_Jan_18_1548,CategoryLocalizer,2021.2.3,59.94876778333029,
24.0,24.8,1,0.75,Stimuli\ImageFiles-Set1\Objects\Object_Screw_00001.png,0,0,0,25,25,25,,,,,,,,,,,,,24.00281080000059,0.0028108000005886424,None,,64.08531039999798,64.08531039999798,64.08531039999798,64.08531039999798,64.08531039999798,64.08531039999798,64.08531039999798,64.08531039999798,001,P005,2025_Jan_18_1548,CategoryLocalizer,2021.2.3,59.94876778333029,
24.8,25.0,5,0.0,Stimuli\Blank.png,0,0,0,26,26,26,,,,,,,,,,,,,24.80420840000079,0.004208400000788259,None,,64.88602009999886,64.88602009999886,64.88602009999886,64.88602009999886,64.88602009999886,64.88602009999886,64.88602009999886,64.88602009999886,001,P005,2025_Jan_18_1548,CategoryLocalizer,2021.2.3,59.94876778333029,
25.0,25.8,1,0.75,Stimuli\ImageFiles-Set1\Objects\Object_Watch_00001.png,0,0,0,27,27,27,,,,,,,,,,,,,25.00329950000014,0.0032995000001392327,None,,65.08618659999775,65.08618659999775,65.08618659999775,65.08618659999775,65.08618659999775,65.08618659999775,65.08618659999775,65.08618659999775,001,P005,2025_Jan_18_1548,CategoryLocalizer,2021.2.3,59.94876778333029,
25.8,26.0,5,0.0,Stimuli\Blank.png,0,0,0,28,28,28,,,,,,,,,,,,,25.8061200000011,0.006120000001100578,5,0.16472110000177054,65.8870571999978,65.8870571999978,65.8870571999978,65.8870571999978,65.8870571999978,65.8870571999978,65.8870571999978,65.8870571999978,001,P005,2025_Jan_18_1548,CategoryLocalizer,2021.2.3,59.94876778333029,
26.0,26.8,1,0.75,Stimuli\ImageFiles-Set1\Objects\Object_Whistle_00001.png,0,0,0,29,29,29,,,,,,,,,,,,,26.00487250000151,0.004872500001511071,None,,66.08706800000073,66.08706800000073,66.08706800000073,66.08706800000073,66.08706800000073,66.08706800000073,66.08706800000073,66.08706800000073,001,P005,2025_Jan_18_1548,CategoryLocalizer,2021.2.3,59.94876778333029,
26.8,27.0,5,0.0,Stimuli\Blank.png,0,0,0,30,30,30,,,,,,,,,,,,,26.806447700000717,0.006447700000716594,None,,66.88777109999864,66.88777109999864,66.88777109999864,66.88777109999864,66.88777109999864,66.88777109999864,66.88777109999864,66.88777109999864,001,P005,2025_Jan_18_1548,CategoryLocalizer,2021.2.3,59.94876778333029,
27.0,27.8,1,0.75,Stimuli\ImageFiles-Set1\Objects\Object_Banana_00001.png,0,0,0,31,31,31,,,,,,,,,,,,,27.00571940000009,0.005719400000089081,None,,67.10464859999774,67.10464859999774,67.10464859999774,67.10464859999774,67.10464859999774,67.10464859999774,67.10464859999774,67.10464859999774,001,P005,2025_Jan_18_1548,CategoryLocalizer,2021.2.3,59.94876778333029,
27.8,28.0,5,0.0,Stimuli\Blank.png,0,0,0,32,32,32,,,,,,,,,,,,,27.82398810000086,0.023988100000860157,5,0.12958699999944656,67.92208889999893,67.92208889999893,67.92208889999893,67.92208889999893,67.92208889999893,67.92208889999893,67.92208889999893,67.92208889999893,001,P005,2025_Jan_18_1548,CategoryLocalizer,2021.2.3,59.94876778333029,
28.0,28.8,2,0.75,Stimuli\ImageFiles-Set1\Bodies\Bodies_Jumping_00004.png,0,0,0,33,33,33,,,,,,,,,,,,,28.025896700000885,0.025896700000885176,None,,68.12220909999814,68.12220909999814,68.12220909999814,68.12220909999814,68.12220909999814,68.12220909999814,68.12220909999814,68.12220909999814,001,P005,2025_Jan_18_1548,CategoryLocalizer,2021.2.3,59.94876778333029,
28.8,29.0,5,0.0,Stimuli\Blank.png,0,0,0,34,34,34,,,,,,,,,,,,,28.82454090000101,0.024540900001010613,None,,68.90622240000084,68.90622240000084,68.90622240000084,68.90622240000084,68.90622240000084,68.90622240000084,68.90622240000084,68.90622240000084,001,P005,2025_Jan_18_1548,CategoryLocalizer,2021.2.3,59.94876778333029,
29.0,29.8,2,0.75,Stimuli\ImageFiles-Set1\Bodies\Bodies_Crawling_00006.png,0,0,0,35,35,35,,,,,,,,,,,,,29.00906279999981,0.009062799999810522,None,,69.10638459999973,69.10638459999973,69.10638459999973,69.10638459999973,69.10638459999973,69.10638459999973,69.10638459999973,69.10638459999973,001,P005,2025_Jan_18_1548,CategoryLocalizer,2021.2.3,59.94876778333029,
29.8,30.0,5,0.0,Stimuli\Blank.png,0,0,0,36,36,36,,,,,,,,,,,,,29.824630800001614,0.02463080000161355,5,0.1446068999975978,69.90710159999799,69.90710159999799,69.90710159999799,69.90710159999799,69.90710159999799,69.90710159999799,69.90710159999799,69.90710159999799,001,P005,2025_Jan_18_1548,CategoryLocalizer,2021.2.3,59.94876778333029,
30.0,30.8,2,0.75,Stimuli\ImageFiles-Set1\Bodies\Bodies_Lunging_00003.png,0,0,0,37,37,37,,,,,,,,,,,,,30.0085966000006,0.008596600000601029,None,,70.09060039999895,70.09060039999895,70.09060039999895,70.09060039999895,70.09060039999895,70.09060039999895,70.09060039999895,70.09060039999895,001,P005,2025_Jan_18_1548,CategoryLocalizer,2021.2.3,59.94876778333029,
30.8,31.0,5,0.0,Stimuli\Blank.png,0,0,0,38,38,38,,,,,,,,,,,,,30.80940400000327,0.009404000003268465,None,,70.89129970000067,70.89129970000067,70.89129970000067,70.89129970000067,70.89129970000067,70.89129970000067,70.89129970000067,70.89129970000067,001,P005,2025_Jan_18_1548,CategoryLocalizer,2021.2.3,59.94876778333029,
31.0,31.8,2,0.75,Stimuli\ImageFiles-Set1\Bodies\Bodies_Lunging_00003.png,1,1,0,39,39,39,,,,,,,,,,,,,31.00939230000222,0.00939230000221869,4,0.37420149999888963,71.09147479999956,71.09147479999956,71.09147479999956,71.09147479999956,71.09147479999956,71.09147479999956,71.09147479999956,71.09147479999956,001,P005,2025_Jan_18_1548,CategoryLocalizer,2021.2.3,59.94876778333029,
31.8,32.0,5,0.0,Stimuli\Blank.png,0,0,0,40,40,40,,,,,,,,,,,,,31.809932899999694,0.00993289999969349,5,0.15952690000267467,71.89216500000111,71.89216500000111,71.89216500000111,71.89216500000111,71.89216500000111,71.89216500000111,71.89216500000111,71.89216500000111,001,P005,2025_Jan_18_1548,CategoryLocalizer,2021.2.3,59.94876778333029,
32.0,32.8,2,0.75,Stimuli\ImageFiles-Set1\Bodies\Bodies_Running_00006.png,0,0,0,41,41,41,,,,,,,,,,,,,32.01027030000114,0.010270300001138821,None,,72.10903309999776,72.10903309999776,72.10903309999776,72.10903309999776,72.10903309999776,72.10903309999776,72.10903309999776,72.10903309999776,001,P005,2025_Jan_18_1548,CategoryLocalizer,2021.2.3,59.94876778333029,
32.8,33.0,5,0.0,Stimuli\Blank.png,0,0,0,42,42,42,,,,,,,,,,,,,32.8286834999999,0.028683499999900164,None,,72.92649549999987,72.92649549999987,72.92649549999987,72.92649549999987,72.92649549999987,72.92649549999987,72.92649549999987,72.92649549999987,001,P005,2025_Jan_18_1548,CategoryLocalizer,2021.2.3,59.94876778333029,
33.0,33.8,2,0.75,Stimuli\ImageFiles-Set1\Bodies\Bodies_Waving_00003.png,0,0,0,43,43,43,,,,,,,,,,,,,33.02739990000191,0.027399900001910282,None,,73.10991450000074,73.10991450000074,73.10991450000074,73.10991450000074,73.10991450000074,73.10991450000074,73.10991450000074,73.10991450000074,001,P005,2025_Jan_18_1548,CategoryLocalizer,2021.2.3,59.94876778333029,
33.8,34.0,5,0.0,Stimuli\Blank.png,0,0,0,44,44,44,,,,,,,,,,,,,33.81119110000145,0.011191100001454402,5,0.1577313999987382,73.89394159999938,73.89394159999938,73.89394159999938,73.89394159999938,73.89394159999938,73.89394159999938,73.89394159999938,73.89394159999938,001,P005,2025_Jan_18_1548,CategoryLocalizer,2021.2.3,59.94876778333029,
34.0,34.8,2,0.75,Stimuli\ImageFiles-Set1\Bodies\Bodies_PushUp_00002.png,0,0,0,45,45,45,,,,,,,,,,,,,34.011720100003004,0.011720100003003608,None,,74.09410629999911,74.09410629999911,74.09410629999911,74.09410629999911,74.09410629999911,74.09410629999911,74.09410629999911,74.09410629999911,001,P005,2025_Jan_18_1548,CategoryLocalizer,2021.2.3,59.94876778333029,
34.8,35.0,5,0.0,Stimuli\Blank.png,0,0,0,46,46,46,,,,,,,,,,,,,34.813028500000655,0.013028500000658028,None,,74.89482639999915,74.89482639999915,74.89482639999915,74.89482639999915,74.89482639999915,74.89482639999915,74.89482639999915,74.89482639999915,001,P005,2025_Jan_18_1548,CategoryLocalizer,2021.2.3,59.94876778333029,
35.0,35.8,2,0.75,Stimuli\ImageFiles-Set1\Bodies\Bodies_DownwardDog_00006.png,0,0,0,47,47,47,,,,,,,,,,,,,35.013748000001215,0.013748000001214677,None,,75.11168579999867,75.11168579999867,75.11168579999867,75.11168579999867,75.11168579999867,75.11168579999867,75.11168579999867,75.11168579999867,001,P005,2025_Jan_18_1548,CategoryLocalizer,2021.2.3,59.94876778333029,
35.8,36.0,5,0.0,Stimuli\Blank.png,0,0,0,48,48,48,,,,,,,,,,,,,35.82933490000141,0.02933490000141603,5,0.13953550000223913,75.91238629999862,75.91238629999862,75.91238629999862,75.91238629999862,75.91238629999862,75.91238629999862,75.91238629999862,75.91238629999862,001,P005,2025_Jan_18_1548,CategoryLocalizer,2021.2.3,59.94876778333029,
36.0,36.8,2,0.75,Stimuli\ImageFiles-Set1\Bodies\Bodies_Waving_00005.png,0,0,0,49,49,49,,,,,,,,,,,,,36.013150900002074,0.013150900002074195,None,,76.0958896000011,76.0958896000011,76.0958896000011,76.0958896000011,76.0958896000011,76.0958896000011,76.0958896000011,76.0958896000011,001,P005,2025_Jan_18_1548,CategoryLocalizer,2021.2.3,59.94876778333029,
36.8,37.0,5,0.0,Stimuli\Blank.png,0,0,0,50,50,50,,,,,,,,,,,,,36.81479330000002,0.014793300000022214,None,,76.89660000000003,76.89660000000003,76.89660000000003,76.89660000000003,76.89660000000003,76.89660000000003,76.89660000000003,76.89660000000003,001,P005,2025_Jan_18_1548,CategoryLocalizer,2021.2.3,59.94876778333029,
37.0,37.8,2,0.75,Stimuli\ImageFiles-Set1\Bodies\Bodies_DownwardDog_00001.png,0,0,0,51,51,51,,,,,,,,,,,,,37.014391100001376,0.01439110000137589,None,,77.09675290000087,77.09675290000087,77.09675290000087,77.09675290000087,77.09675290000087,77.09675290000087,77.09675290000087,77.09675290000087,001,P005,2025_Jan_18_1548,CategoryLocalizer,2021.2.3,59.94876778333029,
37.8,38.0,5,0.0,Stimuli\Blank.png,0,0,0,52,52,52,,,,,,,,,,,,,37.815157799999724,0.015157799999727217,5,0.15445330000147806,77.89746589999777,77.89746589999777,77.89746589999777,77.89746589999777,77.89746589999777,77.89746589999777,77.89746589999777,77.89746589999777,001,P005,2025_Jan_18_1548,CategoryLocalizer,2021.2.3,59.94876778333029,
38.0,38.8,2,0.75,Stimuli\ImageFiles-Set1\Bodies\Bodies_Crawling_00001.png,0,0,0,53,53,53,,,,,,,,,,,,,38.01556770000025,0.015567700000246987,None,,78.11433620000025,78.11433620000025,78.11433620000025,78.11433620000025,78.11433620000025,78.11433620000025,78.11433620000025,78.11433620000025,001,P005,2025_Jan_18_1548,CategoryLocalizer,2021.2.3,59.94876778333029,
38.8,39.0,5,0.0,Stimuli\Blank.png,0,0,0,54,54,54,,,,,,,,,,,,,38.816014500000165,0.016014500000167686,None,,78.89833799999906,78.89833799999906,78.89833799999906,78.89833799999906,78.89833799999906,78.89833799999906,78.89833799999906,78.89833799999906,001,P005,2025_Jan_18_1548,CategoryLocalizer,2021.2.3,59.94876778333029,
39.0,39.8,2,0.75,Stimuli\ImageFiles-Set1\Bodies\Bodies_Crawling_00003.png,0,0,0,55,55,55,,,,,,,,,,,,,38.99989290000303,-0.00010709999696700834,None,,79.09853179999845,79.09853179999845,79.09853179999845,79.09853179999845,79.09853179999845,79.09853179999845,79.09853179999845,79.09853179999845,001,P005,2025_Jan_18_1548,CategoryLocalizer,2021.2.3,59.94876778333029,
39.8,40.0,5,0.0,Stimuli\Blank.png,0,0,0,56,56,56,,,,,,,,,,,,,39.818452100000286,0.01845210000028885,5,0.13577020000229822,79.91592659999878,79.91592659999878,79.91592659999878,79.91592659999878,79.91592659999878,79.91592659999878,79.91592659999878,79.91592659999878,001,P005,2025_Jan_18_1548,CategoryLocalizer,2021.2.3,59.94876778333029,
40.0,40.8,2,0.75,Stimuli\ImageFiles-Set1\Bodies\Bodies_SittingFloor_00003.png,0,0,0,57,57,57,,,,,,,,,,,,,40.01916490000076,0.0191649000007601,None,,80.1161050999981,80.1161050999981,80.1161050999981,80.1161050999981,80.1161050999981,80.1161050999981,80.1161050999981,80.1161050999981,001,P005,2025_Jan_18_1548,CategoryLocalizer,2021.2.3,59.94876778333029,
40.8,41.0,5,0.0,Stimuli\Blank.png,0,0,0,58,58,58,,,,,,,,,,,,,40.81929410000157,0.01929410000157361,None,,80.91680730000007,80.91680730000007,80.91680730000007,80.91680730000007,80.91680730000007,80.91680730000007,80.91680730000007,80.91680730000007,001,P005,2025_Jan_18_1548,CategoryLocalizer,2021.2.3,59.94876778333029,
41.0,41.8,2,0.75,Stimuli\ImageFiles-Set1\Bodies\Bodies_Jumping_00006.png,0,0,0,59,59,59,,,,,,,,,,,,,41.01978070000041,0.019780700000410434,None,,81.11696889999803,81.11696889999803,81.11696889999803,81.11696889999803,81.11696889999803,81.11696889999803,81.11696889999803,81.11696889999803,001,P005,2025_Jan_18_1548,CategoryLocalizer,2021.2.3,59.94876778333029,
41.8,42.0,5,0.0,Stimuli\Blank.png,0,0,0,60,60,60,,,,,,,,,,,,,41.818652400001156,0.018652400001158753,5,0.15058820000194828,81.90099550000014,81.90099550000014,81.90099550000014,81.90099550000014,81.90099550000014,81.90099550000014,81.90099550000014,81.90099550000014,001,P005,2025_Jan_18_1548,CategoryLocalizer,2021.2.3,59.94876778333029,
42.0,42.8,2,0.75,Stimuli\ImageFiles-Set1\Bodies\Bodies_PushUp_00004.png,0,0,0,61,61,61,,,,,,,,,,,,,42.00220140000238,0.0022014000023773406,None,,82.08447679999881,82.08447679999881,82.08447679999881,82.08447679999881,82.08447679999881,82.08447679999881,82.08447679999881,82.08447679999881,001,P005,2025_Jan_18_1548,CategoryLocalizer,2021.2.3,59.94876778333029,
42.8,43.0,5,0.0,Stimuli\Blank.png,0,0,0,62,62,62,,,,,,,,,,,,,42.80347520000214,0.003475200002142742,None,,82.8852009000002,82.8852009000002,82.8852009000002,82.8852009000002,82.8852009000002,82.8852009000002,82.8852009000002,82.8852009000002,001,P005,2025_Jan_18_1548,CategoryLocalizer,2021.2.3,59.94876778333029,
43.0,43.8,2,0.75,Stimuli\ImageFiles-Set1\Bodies\Bodies_QuadStretch_00005.png,0,0,0,63,63,63,,,,,,,,,,,,,43.00254649999988,0.002546499999880325,None,,83.08537459999934,83.08537459999934,83.08537459999934,83.08537459999934,83.08537459999934,83.08537459999934,83.08537459999934,83.08537459999934,001,P005,2025_Jan_18_1548,CategoryLocalizer,2021.2.3,59.94876778333029,
43.8,44.0,5,0.0,Stimuli\Blank.png,0,0,0,64,64,64,,,,,,,,,,,,,43.803209000001516,0.0032090000015188025,5,0.16560220000246773,83.88611479999963,83.88611479999963,83.88611479999963,83.88611479999963,83.88611479999963,83.88611479999963,83.88611479999963,83.88611479999963,001,P005,2025_Jan_18_1548,CategoryLocalizer,2021.2.3,59.94876778333029,
44.0,44.8,3,0.75,Stimuli\ImageFiles-Set1\Faces\Face_00016.png,0,0,0,65,65,65,,,,,,,,,,,,,44.00420010000016,0.00420010000016191,None,,84.10301529999924,84.10301529999924,84.10301529999924,84.10301529999924,84.10301529999924,84.10301529999924,84.10301529999924,84.10301529999924,001,P005,2025_Jan_18_1548,CategoryLocalizer,2021.2.3,59.94876778333029,
44.8,45.0,5,0.0,Stimuli\Blank.png,0,0,0,66,66,66,,,,,,,,,,,,,44.823320200001035,0.02332020000103796,None,,84.92031309999948,84.92031309999948,84.92031309999948,84.92031309999948,84.92031309999948,84.92031309999948,84.92031309999948,84.92031309999948,001,P005,2025_Jan_18_1548,CategoryLocalizer,2021.2.3,59.94876778333029,
45.0,45.8,3,0.75,Stimuli\ImageFiles-Set1\Faces\Face_00003.png,0,0,0,67,67,67,,,,,,,,,,,,,45.02150940000138,0.0215094000013778,None,,85.12051209999845,85.12051209999845,85.12051209999845,85.12051209999845,85.12051209999845,85.12051209999845,85.12051209999845,85.12051209999845,001,P005,2025_Jan_18_1548,CategoryLocalizer,2021.2.3,59.94876778333029,
45.8,46.0,5,0.0,Stimuli\Blank.png,0,0,0,68,68,68,,,,,,,,,,,,,45.82351760000165,0.023517600001653705,5,0.13036509999801638,85.92122530000051,85.92122530000051,85.92122530000051,85.92122530000051,85.92122530000051,85.92122530000051,85.92122530000051,85.92122530000051,001,P005,2025_Jan_18_1548,CategoryLocalizer,2021.2.3,59.94876778333029,
46.0,46.8,3,0.75,Stimuli\ImageFiles-Set1\Faces\Face_00119.png,0,0,0,69,69,69,,,,,,,,,,,,,46.022322600001644,0.022322600001643877,None,,86.10467649999919,86.10467649999919,86.10467649999919,86.10467649999919,86.10467649999919,86.10467649999919,86.10467649999919,86.10467649999919,001,P005,2025_Jan_18_1548,CategoryLocalizer,2021.2.3,59.94876778333029,
46.8,47.0,5,0.0,Stimuli\Blank.png,0,0,0,70,70,70,,,,,,,,,,,,,46.80620360000103,0.006203600001029486,None,,86.88871360000121,86.88871360000121,86.88871360000121,86.88871360000121,86.88871360000121,86.88871360000121,86.88871360000121,86.88871360000121,001,P005,2025_Jan_18_1548,CategoryLocalizer,2021.2.3,59.94876778333029,
47.0,47.8,3,0.75,Stimuli\ImageFiles-Set1\Faces\Face_00007.png,0,0,0,71,71,71,,,,,,,,,,,,,47.00819050000064,0.008190500000637257,None,,87.10556229999929,87.10556229999929,87.10556229999929,87.10556229999929,87.10556229999929,87.10556229999929,87.10556229999929,87.10556229999929,001,P005,2025_Jan_18_1548,CategoryLocalizer,2021.2.3,59.94876778333029,
47.8,48.0,5,0.0,Stimuli\Blank.png,0,0,0,72,72,72,,,,,,,,,,,,,47.823927400000684,0.02392740000068727,5,0.14530979999835836,87.90627479999966,87.90627479999966,87.90627479999966,87.90627479999966,87.90627479999966,87.90627479999966,87.90627479999966,87.90627479999966,001,P005,2025_Jan_18_1548,CategoryLocalizer,2021.2.3,59.94876778333029,
48.0,48.8,3,0.75,Stimuli\ImageFiles-Set1\Faces\Face_00115.png,0,0,0,73,73,73,,,,,,,,,,,,,48.00706440000067,0.007064400000672322,None,,88.08977569999843,88.08977569999843,88.08977569999843,88.08977569999843,88.08977569999843,88.08977569999843,88.08977569999843,88.08977569999843,001,P005,2025_Jan_18_1548,CategoryLocalizer,2021.2.3,59.94876778333029,
48.8,49.0,5,0.0,Stimuli\Blank.png,0,0,0,74,74,74,,,,,,,,,,,,,48.80946370000311,0.00946370000310992,None,,88.89048089999778,88.89048089999778,88.89048089999778,88.89048089999778,88.89048089999778,88.89048089999778,88.89048089999778,88.89048089999778,001,P005,2025_Jan_18_1548,CategoryLocalizer,2021.2.3,59.94876778333029,
49.0,49.8,3,0.75,Stimuli\ImageFiles-Set1\Faces\Face_00049.png,0,0,0,75,75,75,,,,,,,,,,,,,49.00849410000228,0.008494100002280902,None,,89.09064080000098,89.09064080000098,89.09064080000098,89.09064080000098,89.09064080000098,89.09064080000098,89.09064080000098,89.09064080000098,001,P005,2025_Jan_18_1548,CategoryLocalizer,2021.2.3,59.94876778333029,
49.8,50.0,5,0.0,Stimuli\Blank.png,0,0,0,76,76,76,,,,,,,,,,,,,49.80844950000028,0.008449500000281773,5,0.16049329999805195,89.89135069999975,89.89135069999975,89.89135069999975,89.89135069999975,89.89135069999975,89.89135069999975,89.89135069999975,89.89135069999975,001,P005,2025_Jan_18_1548,CategoryLocalizer,2021.2.3,59.94876778333029,
50.0,50.8,3,0.75,Stimuli\ImageFiles-Set1\Faces\Face_00075.png,0,0,0,77,77,77,,,,,,,,,,,,,50.00921910000034,0.009219100000336766,None,,90.10820059999969,90.10820059999969,90.10820059999969,90.10820059999969,90.10820059999969,90.10820059999969,90.10820059999969,90.10820059999969,001,P005,2025_Jan_18_1548,CategoryLocalizer,2021.2.3,59.94876778333029,
50.8,51.0,5,0.0,Stimuli\Blank.png,0,0,0,78,78,78,,,,,,,,,,,,,50.828305900002306,0.028305900002308704,None,,90.92561130000104,90.92561130000104,90.92561130000104,90.92561130000104,90.92561130000104,90.92561130000104,90.92561130000104,90.92561130000104,001,P005,2025_Jan_18_1548,CategoryLocalizer,2021.2.3,59.94876778333029,
51.0,51.8,3,0.75,Stimuli\ImageFiles-Set1\Faces\Face_00053.png,0,0,0,79,79,79,,,,,,,,,,,,,51.02893420000328,0.02893420000327751,None,,91.12578419999772,91.12578419999772,91.12578419999772,91.12578419999772,91.12578419999772,91.12578419999772,91.12578419999772,91.12578419999772,001,P005,2025_Jan_18_1548,CategoryLocalizer,2021.2.3,59.94876778333029,
51.8,52.0,5,0.0,Stimuli\Blank.png,0,0,0,80,80,80,,,,,,,,,,,,,51.82845340000131,0.028453400001311024,5,0.12507340000229306,91.9264923999981,91.9264923999981,91.9264923999981,91.9264923999981,91.9264923999981,91.9264923999981,91.9264923999981,91.9264923999981,001,P005,2025_Jan_18_1548,CategoryLocalizer,2021.2.3,59.94876778333029,
52.0,52.8,3,0.75,Stimuli\ImageFiles-Set1\Faces\Face_00018.png,0,0,0,81,81,81,,,,,,,,,,,,,52.027240500003245,0.02724050000324496,None,,92.10996940000041,92.10996940000041,92.10996940000041,92.10996940000041,92.10996940000041,92.10996940000041,92.10996940000041,92.10996940000041,001,P005,2025_Jan_18_1548,CategoryLocalizer,2021.2.3,59.94876778333029,
52.8,53.0,5,0.0,Stimuli\Blank.png,0,0,0,82,82,82,,,,,,,,,,,,,52.811012400001346,0.01101240000134851,None,,92.89399889999913,92.89399889999913,92.89399889999913,92.89399889999913,92.89399889999913,92.89399889999913,92.89399889999913,92.89399889999913,001,P005,2025_Jan_18_1548,CategoryLocalizer,2021.2.3,59.94876778333029,
53.0,53.8,3,0.75,Stimuli\ImageFiles-Set1\Faces\Face_00018.png,1,1,0,83,83,83,,,,,,,,,,,,,53.01324750000276,0.013247500002762536,4,0.5230095000006258,93.11085570000068,93.11085570000068,93.11085570000068,93.11085570000068,93.11085570000068,93.11085570000068,93.11085570000068,93.11085570000068,001,P005,2025_Jan_18_1548,CategoryLocalizer,2021.2.3,59.94876778333029,
53.8,54.0,5,0.0,Stimuli\Blank.png,0,0,0,84,84,84,,,,,,,,,,,,,53.829511200001434,0.029511200001437032,5,0.14002420000178972,93.9115572999981,93.9115572999981,93.9115572999981,93.9115572999981,93.9115572999981,93.9115572999981,93.9115572999981,93.9115572999981,001,P005,2025_Jan_18_1548,CategoryLocalizer,2021.2.3,59.94876778333029,
54.0,54.8,3,0.75,Stimuli\ImageFiles-Set1\Faces\Face_00031.png,0,0,0,85,85,85,,,,,,,,,,,,,54.012346100000286,0.012346100000286242,None,,94.09505449999779,94.09505449999779,94.09505449999779,94.09505449999779,94.09505449999779,94.09505449999779,94.09505449999779,94.09505449999779,001,P005,2025_Jan_18_1548,CategoryLocalizer,2021.2.3,59.94876778333029,
54.8,55.0,5,0.0,Stimuli\Blank.png,0,0,0,86,86,86,,,,,,,,,,,,,54.81322070000169,0.013220700001696173,None,,94.89575060000061,94.89575060000061,94.89575060000061,94.89575060000061,94.89575060000061,94.89575060000061,94.89575060000061,94.89575060000061,001,P005,2025_Jan_18_1548,CategoryLocalizer,2021.2.3,59.94876778333029,
55.0,55.8,3,0.75,Stimuli\ImageFiles-Set1\Faces\Face_00039.png,0,0,0,87,87,87,,,,,,,,,,,,,55.0140535999999,0.014053599999897415,None,,95.11260480000055,95.11260480000055,95.11260480000055,95.11260480000055,95.11260480000055,95.11260480000055,95.11260480000055,95.11260480000055,001,P005,2025_Jan_18_1548,CategoryLocalizer,2021.2.3,59.94876778333029,
55.8,56.0,5,0.0,Stimuli\Blank.png,0,0,0,88,88,88,,,,,,,,,,,,,55.83049010000104,0.030490100001046017,5,0.13870650000171736,95.91331409999839,95.91331409999839,95.91331409999839,95.91331409999839,95.91331409999839,95.91331409999839,95.91331409999839,95.91331409999839,001,P005,2025_Jan_18_1548,CategoryLocalizer,2021.2.3,59.94876778333029,
56.0,56.8,3,0.75,Stimuli\ImageFiles-Set1\Faces\Face_00063.png,0,0,0,89,89,89,,,,,,,,,,,,,56.014316300002974,0.014316300002974458,None,,96.09681379999893,96.09681379999893,96.09681379999893,96.09681379999893,96.09681379999893,96.09681379999893,96.09681379999893,96.09681379999893,001,P005,2025_Jan_18_1548,CategoryLocalizer,2021.2.3,59.94876778333029,
56.8,57.0,5,0.0,Stimuli\Blank.png,0,0,0,90,90,90,,,,,,,,,,,,,56.81505310000284,0.015053100002845099,None,,96.89751279999837,96.89751279999837,96.89751279999837,96.89751279999837,96.89751279999837,96.89751279999837,96.89751279999837,96.89751279999837,001,P005,2025_Jan_18_1548,CategoryLocalizer,2021.2.3,59.94876778333029,
57.0,57.8,3,0.75,Stimuli\ImageFiles-Set1\Faces\Face_00025.png,0,0,0,91,91,91,,,,,,,,,,,,,57.015507800002524,0.015507800002524164,None,,97.0976871999992,97.0976871999992,97.0976871999992,97.0976871999992,97.0976871999992,97.0976871999992,97.0976871999992,97.0976871999992,001,P005,2025_Jan_18_1548,CategoryLocalizer,2021.2.3,59.94876778333029,
57.8,58.0,5,0.0,Stimuli\Blank.png,0,0,0,92,92,92,,,,,,,,,,,,,57.7996490000005,-0.00035099999949750327,None,,97.88172539999869,97.88172539999869,97.88172539999869,97.88172539999869,97.88172539999869,97.88172539999869,97.88172539999869,97.88172539999869,001,P005,2025_Jan_18_1548,CategoryLocalizer,2021.2.3,59.94876778333029,
58.0,58.8,3,0.75,Stimuli\ImageFiles-Set1\Faces\Face_00012.png,0,0,0,93,93,93,,,,,,,,,,,,,57.99950800000079,-0.0004919999992125668,None,,98.09858370000075,98.09858370000075,98.09858370000075,98.09858370000075,98.09858370000075,98.09858370000075,98.09858370000075,98.09858370000075,001,P005,2025_Jan_18_1548,CategoryLocalizer,2021.2.3,59.94876778333029,
58.8,59.0,5,0.0,Stimuli\Blank.png,0,0,0,94,94,94,,,,,,,,,,,,,58.81830810000247,0.018308100002471406,None,,98.91596329999811,98.91596329999811,98.91596329999811,98.91596329999811,98.91596329999811,98.91596329999811,98.91596329999811,98.91596329999811,001,P005,2025_Jan_18_1548,CategoryLocalizer,2021.2.3,59.94876778333029,
59.0,59.8,3,0.75,Stimuli\ImageFiles-Set1\Faces\Face_00099.png,0,0,0,95,95,95,,,,,,,,,,,,,59.01844020000135,0.018440200001350604,None,,99.11616080000022,99.11616080000022,99.11616080000022,99.11616080000022,99.11616080000022,99.11616080000022,99.11616080000022,99.11616080000022,001,P005,2025_Jan_18_1548,CategoryLocalizer,2021.2.3,59.94876778333029,
59.8,60.0,5,0.0,Stimuli\Blank.png,0,0,0,96,96,96,,,,,,,,,,,,,59.81921440000224,0.01921440000224095,5,0.13369990000137477,99.91795690000072,99.91795690000072,99.91795690000072,99.91795690000072,99.91795690000072,99.91795690000072,99.91795690000072,99.91795690000072,001,P005,2025_Jan_18_1548,CategoryLocalizer,2021.2.3,59.94876778333029,
60.0,60.8,4,0.75,Stimuli\ImageFiles-Set1\Scenes\Scenes_038.png,0,0,0,97,97,97,,,,,,,,,,,,,60.018076800002746,0.018076800002745586,None,,100.10033739999926,100.10033739999926,100.10033739999926,100.10033739999926,100.10033739999926,100.10033739999926,100.10033739999926,100.10033739999926,001,P005,2025_Jan_18_1548,CategoryLocalizer,2021.2.3,59.94876778333029,
60.8,61.0,5,0.0,Stimuli\Blank.png,0,0,0,98,98,98,,,,,,,,,,,,,60.80360980000114,0.003609800001143526,None,,100.90104749999955,100.90104749999955,100.90104749999955,100.90104749999955,100.90104749999955,100.90104749999955,100.90104749999955,100.90104749999955,001,P005,2025_Jan_18_1548,CategoryLocalizer,2021.2.3,59.94876778333029,
61.0,61.8,4,0.75,Stimuli\ImageFiles-Set1\Scenes\Scenes_054.png,0,0,0,99,99,99,,,,,,,,,,,,,61.01842720000059,0.018427200000587618,None,,101.1012258999981,101.1012258999981,101.1012258999981,101.1012258999981,101.1012258999981,101.1012258999981,101.1012258999981,101.1012258999981,001,P005,2025_Jan_18_1548,CategoryLocalizer,2021.2.3,59.94876778333029,
61.8,62.0,5,0.0,Stimuli\Blank.png,0,0,0,100,100,100,,,,,,,,,,,,,61.80221950000123,0.0022195000012317223,5,0.16642499999943539,101.88530499999979,101.88530499999979,101.88530499999979,101.88530499999979,101.88530499999979,101.88530499999979,101.88530499999979,101.88530499999979,001,P005,2025_Jan_18_1548,CategoryLocalizer,2021.2.3,59.94876778333029,
62.0,62.8,4,0.75,Stimuli\ImageFiles-Set1\Scenes\Scenes_027.png,0,0,0,101,101,101,,,,,,,,,,,,,62.00282260000313,0.002822600003128173,None,,102.08580340000117,102.08580340000117,102.08580340000117,102.08580340000117,102.08580340000117,102.08580340000117,102.08580340000117,102.08580340000117,001,P005,2025_Jan_18_1548,CategoryLocalizer,2021.2.3,59.94876778333029,
62.8,63.0,5,0.0,Stimuli\Blank.png,0,0,0,102,102,102,,,,,,,,,,,,,62.80423940000037,0.004239400000372484,None,,102.8861293000009,102.8861293000009,102.8861293000009,102.8861293000009,102.8861293000009,102.8861293000009,102.8861293000009,102.8861293000009,001,P005,2025_Jan_18_1548,CategoryLocalizer,2021.2.3,59.94876778333029,
63.0,63.8,4,0.75,Stimuli\ImageFiles-Set1\Scenes\Scenes_052.png,0,0,0,103,103,103,,,,,,,,,,,,,63.003212800002075,0.0032128000020748004,None,,103.08629699999801,103.08629699999801,103.08629699999801,103.08629699999801,103.08629699999801,103.08629699999801,103.08629699999801,103.08629699999801,001,P005,2025_Jan_18_1548,CategoryLocalizer,2021.2.3,59.94876778333029,
63.8,64.0,5,0.0,Stimuli\Blank.png,0,0,0,104,104,104,,,,,,,,,,,,,63.80406790000052,0.004067900000521263,5,0.1646480999988853,103.88700319999771,103.88700319999771,103.88700319999771,103.88700319999771,103.88700319999771,103.88700319999771,103.88700319999771,103.88700319999771,001,P005,2025_Jan_18_1548,CategoryLocalizer,2021.2.3,59.94876778333029,
64.0,64.8,4,0.75,Stimuli\ImageFiles-Set1\Scenes\Scenes_058.png,0,0,0,105,105,105,,,,,,,,,,,,,64.00455470000088,0.004554700000880985,None,,104.08717519999846,104.08717519999846,104.08717519999846,104.08717519999846,104.08717519999846,104.08717519999846,104.08717519999846,104.08717519999846,001,P005,2025_Jan_18_1548,CategoryLocalizer,2021.2.3,59.94876778333029,
64.8,65.0,5,0.0,Stimuli\Blank.png,0,0,0,106,106,106,,,,,,,,,,,,,64.80539540000245,0.0053954000024560855,None,,104.8878810999995,104.8878810999995,104.8878810999995,104.8878810999995,104.8878810999995,104.8878810999995,104.8878810999995,104.8878810999995,001,P005,2025_Jan_18_1548,CategoryLocalizer,2021.2.3,59.94876778333029,
65.0,65.8,4,0.75,Stimuli\ImageFiles-Set1\Scenes\Scenes_058.png,1,1,0,107,107,107,,,,,,,,,,,,,65.00600230000055,0.006002300000545802,4,0.5655437000023085,105.08805719999873,105.08805719999873,105.08805719999873,105.08805719999873,105.08805719999873,105.08805719999873,105.08805719999873,105.08805719999873,001,P005,2025_Jan_18_1548,CategoryLocalizer,2021.2.3,59.94876778333029,
65.8,66.0,5,0.0,Stimuli\Blank.png,0,0,0,108,108,108,,,,,,,,,,,,,65.80617590000111,0.00617590000111079,5,0.1627875000012864,105.8887704000008,105.8887704000008,105.8887704000008,105.8887704000008,105.8887704000008,105.8887704000008,105.8887704000008,105.8887704000008,001,P005,2025_Jan_18_1548,CategoryLocalizer,2021.2.3,59.94876778333029,
66.0,66.8,4,0.75,Stimuli\ImageFiles-Set1\Scenes\Scenes_044.png,0,0,0,109,109,109,,,,,,,,,,,,,66.00651860000289,0.006518600002891617,None,,106.08893329999773,106.08893329999773,106.08893329999773,106.08893329999773,106.08893329999773,106.08893329999773,106.08893329999773,106.08893329999773,001,P005,2025_Jan_18_1548,CategoryLocalizer,2021.2.3,59.94876778333029,
66.8,67.0,5,0.0,Stimuli\Blank.png,0,0,0,110,110,110,,,,,,,,,,,,,66.80745480000041,0.0074548000004170945,None,,106.88965349999853,106.88965349999853,106.88965349999853,106.88965349999853,106.88965349999853,106.88965349999853,106.88965349999853,106.88965349999853,001,P005,2025_Jan_18_1548,CategoryLocalizer,2021.2.3,59.94876778333029,
67.0,67.8,4,0.75,Stimuli\ImageFiles-Set1\Scenes\Scenes_041.png,0,0,0,111,111,111,,,,,,,,,,,,,67.00948770000105,0.009487700001045596,None,,107.10652760000085,107.10652760000085,107.10652760000085,107.10652760000085,107.10652760000085,107.10652760000085,107.10652760000085,107.10652760000085,001,P005,2025_Jan_18_1548,CategoryLocalizer,2021.2.3,59.94876778333029,
67.8,68.0,5,0.0,Stimuli\Blank.png,0,0,0,112,112,112,,,,,,,,,,,,,67.82457480000085,0.024574800000848995,5,0.14435190000222065,107.90721069999927,107.90721069999927,107.90721069999927,107.90721069999927,107.90721069999927,107.90721069999927,107.90721069999927,107.90721069999927,001,P005,2025_Jan_18_1548,CategoryLocalizer,2021.2.3,59.94876778333029,
68.0,68.8,4,0.75,Stimuli\ImageFiles-Set1\Scenes\Scenes_001.png,0,0,0,113,113,113,,,,,,,,,,,,,68.00812810000207,0.008128100002068095,None,,108.09069570000065,108.09069570000065,108.09069570000065,108.09069570000065,108.09069570000065,108.09069570000065,108.09069570000065,108.09069570000065,001,P005,2025_Jan_18_1548,CategoryLocalizer,2021.2.3,59.94876778333029,
68.8,69.0,5,0.0,Stimuli\Blank.png,0,0,0,114,114,114,,,,,,,,,,,,,68.80914320000011,0.009143200000110596,None,,108.89141139999992,108.89141139999992,108.89141139999992,108.89141139999992,108.89141139999992,108.89141139999992,108.89141139999992,108.89141139999992,001,P005,2025_Jan_18_1548,CategoryLocalizer,2021.2.3,59.94876778333029,
69.0,69.8,4,0.75,Stimuli\ImageFiles-Set1\Scenes\Scenes_042.png,0,0,0,115,115,115,,,,,,,,,,,,,69.00913130000117,0.009131300001172349,None,,109.10825950000071,109.10825950000071,109.10825950000071,109.10825950000071,109.10825950000071,109.10825950000071,109.10825950000071,109.10825950000071,001,P005,2025_Jan_18_1548,CategoryLocalizer,2021.2.3,59.94876778333029,
69.8,70.0,5,0.0,Stimuli\Blank.png,0,0,0,116,116,116,,,,,,,,,,,,,69.82811779999975,0.028117799999748172,5,0.12600830000155838,109.92565140000079,109.92565140000079,109.92565140000079,109.92565140000079,109.92565140000079,109.92565140000079,109.92565140000079,109.92565140000079,001,P005,2025_Jan_18_1548,CategoryLocalizer,2021.2.3,59.94876778333029,
70.0,70.8,4,0.75,Stimuli\ImageFiles-Set1\Scenes\Scenes_015.png,0,0,0,117,117,117,,,,,,,,,,,,,70.02838669999983,0.028386699999828124,None,,110.12583280000035,110.12583280000035,110.12583280000035,110.12583280000035,110.12583280000035,110.12583280000035,110.12583280000035,110.12583280000035,001,P005,2025_Jan_18_1548,CategoryLocalizer,2021.2.3,59.94876778333029,
70.8,71.0,5,0.0,Stimuli\Blank.png,0,0,0,118,118,118,,,,,,,,,,,,,70.82741499999975,0.027414999999749057,None,,110.90987029999815,110.90987029999815,110.90987029999815,110.90987029999815,110.90987029999815,110.90987029999815,110.90987029999815,110.90987029999815,001,P005,2025_Jan_18_1548,CategoryLocalizer,2021.2.3,59.94876778333029,
71.0,71.8,4,0.75,Stimuli\ImageFiles-Set1\Scenes\Scenes_049.png,0,0,0,119,119,119,,,,,,,,,,,,,71.01094370000283,0.010943700002826517,None,,111.09334260000105,111.09334260000105,111.09334260000105,111.09334260000105,111.09334260000105,111.09334260000105,111.09334260000105,111.09334260000105,001,P005,2025_Jan_18_1548,CategoryLocalizer,2021.2.3,59.94876778333029,
71.8,72.0,5,0.0,Stimuli\Blank.png,0,0,0,120,120,120,,,,,,,,,,,,,71.81197910000265,0.011979100002648124,5,0.15745629999946686,111.89405840000109,111.89405840000109,111.89405840000109,111.89405840000109,111.89405840000109,111.89405840000109,111.89405840000109,111.89405840000109,001,P005,2025_Jan_18_1548,CategoryLocalizer,2021.2.3,59.94876778333029,
72.0,72.8,4,0.75,Stimuli\ImageFiles-Set1\Scenes\Scenes_014.png,0,0,0,121,121,121,,,,,,,,,,,,,72.01392880000276,0.01392880000275909,None,,112.11090949999925,112.11090949999925,112.11090949999925,112.11090949999925,112.11090949999925,112.11090949999925,112.11090949999925,112.11090949999925,001,P005,2025_Jan_18_1548,CategoryLocalizer,2021.2.3,59.94876778333029,
72.8,73.0,5,0.0,Stimuli\Blank.png,0,0,0,122,122,122,,,,,,,,,,,,,72.82891759999984,0.028917599999843446,None,,112.91161379999903,112.91161379999903,112.91161379999903,112.91161379999903,112.91161379999903,112.91161379999903,112.91161379999903,112.91161379999903,001,P005,2025_Jan_18_1548,CategoryLocalizer,2021.2.3,59.94876778333029,
73.0,73.8,4,0.75,Stimuli\ImageFiles-Set1\Scenes\Scenes_018.png,0,0,0,123,123,123,,,,,,,,,,,,,73.01242330000241,0.012423300002410542,None,,113.11266179999802,113.11266179999802,113.11266179999802,113.11266179999802,113.11266179999802,113.11266179999802,113.11266179999802,113.11266179999802,001,P005,2025_Jan_18_1548,CategoryLocalizer,2021.2.3,59.94876778333029,
73.8,74.0,5,0.0,Stimuli\Blank.png,0,0,0,124,124,124,,,,,,,,,,,,,73.8301403000005,0.030140300000496723,5,0.13937770000120508,113.91250479999871,113.91250479999871,113.91250479999871,113.91250479999871,113.91250479999871,113.91250479999871,113.91250479999871,113.91250479999871,001,P005,2025_Jan_18_1548,CategoryLocalizer,2021.2.3,59.94876778333029,
74.0,74.8,4,0.75,Stimuli\ImageFiles-Set1\Scenes\Scenes_017.png,0,0,0,125,125,125,,,,,,,,,,,,,74.01389090000157,0.013890900001570117,None,,114.11265880000064,114.11265880000064,114.11265880000064,114.11265880000064,114.11265880000064,114.11265880000064,114.11265880000064,114.11265880000064,001,P005,2025_Jan_18_1548,CategoryLocalizer,2021.2.3,59.94876778333029,
74.8,75.0,5,0.0,Stimuli\Blank.png,0,0,0,126,126,126,,,,,,,,,,,,,74.83110289999968,0.031102899999680744,None,,114.91343489999781,114.91343489999781,114.91343489999781,114.91343489999781,114.91343489999781,114.91343489999781,114.91343489999781,114.91343489999781,001,P005,2025_Jan_18_1548,CategoryLocalizer,2021.2.3,59.94876778333029,
75.0,75.8,4,0.75,Stimuli\ImageFiles-Set1\Scenes\Scenes_019.png,0,0,0,127,127,127,,,,,,,,,,,,,75.01422150000144,0.01422150000144029,None,,115.09686769999826,115.09686769999826,115.09686769999826,115.09686769999826,115.09686769999826,115.09686769999826,115.09686769999826,115.09686769999826,001,P005,2025_Jan_18_1548,CategoryLocalizer,2021.2.3,59.94876778333029,
75.8,76.0,5,0.0,Stimuli\Blank.png,0,0,0,128,128,128,,,,,,,,,,,,,75.81495100000029,0.014951000000294812,5,0.15398880000066129,115.89757689999897,115.89757689999897,115.89757689999897,115.89757689999897,115.89757689999897,115.89757689999897,115.89757689999897,115.89757689999897,001,P005,2025_Jan_18_1548,CategoryLocalizer,2021.2.3,59.94876778333029,
76.0,88.0,0,0.0,Stimuli\Blank.png,0,0,0,129,129,129,,,,,,,,,,,,,76.01535500000318,0.015355000003182795,5,11.953704300001846,116.09774610000022,116.09774610000022,116.09774610000022,116.09774610000022,116.09774610000022,116.09774610000022,116.09774610000022,116.09774610000022,001,P005,2025_Jan_18_1548,CategoryLocalizer,2021.2.3,59.94876778333029,
88.0,88.8,3,0.75,Stimuli\ImageFiles-Set1\Faces\Face_00117.png,0,0,0,130,130,130,,,,,,,,,,,,,88.01000990000102,0.010009900001023198,None,,128.10831830000097,128.10831830000097,128.10831830000097,128.10831830000097,128.10831830000097,128.10831830000097,128.10831830000097,128.10831830000097,001,P005,2025_Jan_18_1548,CategoryLocalizer,2021.2.3,59.94876778333029,
88.8,89.0,5,0.0,Stimuli\Blank.png,0,0,0,131,131,131,,,,,,,,,,,,,88.8272644000026,0.02726440000260766,None,,128.90904650000084,128.90904650000084,128.90904650000084,128.90904650000084,128.90904650000084,128.90904650000084,128.90904650000084,128.90904650000084,001,P005,2025_Jan_18_1548,CategoryLocalizer,2021.2.3,59.94876778333029,
89.0,89.8,3,0.75,Stimuli\ImageFiles-Set1\Faces\Face_00022.png,0,0,0,132,132,132,,,,,,,,,,,,,89.0102177000008,0.010217700000794139,None,,129.092517699999,129.092517699999,129.092517699999,129.092517699999,129.092517699999,129.092517699999,129.092517699999,129.092517699999,001,P005,2025_Jan_18_1548,CategoryLocalizer,2021.2.3,59.94876778333029,
89.8,90.0,5,0.0,Stimuli\Blank.png,0,0,0,133,133,133,,,,,,,,,,,,,89.81108640000093,0.011086400000934304,5,0.15839559999949415,129.8932034999998,129.8932034999998,129.8932034999998,129.8932034999998,129.8932034999998,129.8932034999998,129.8932034999998,129.8932034999998,001,P005,2025_Jan_18_1548,CategoryLocalizer,2021.2.3,59.94876778333029,
90.0,90.8,3,0.75,Stimuli\ImageFiles-Set1\Faces\Face_00022.png,1,1,0,134,134,134,,,,,,,,,,,,,90.01124610000261,0.011246100002608728,4,0.38352649999796995,130.1100864,130.1100864,130.1100864,130.1100864,130.1100864,130.1100864,130.1100864,130.1100864,001,P005,2025_Jan_18_1548,CategoryLocalizer,2021.2.3,59.94876778333029,
90.8,91.0,5,0.0,Stimuli\Blank.png,0,0,0,135,135,135,,,,,,,,,,,,,90.82900680000239,0.029006800002392197,None,,130.91080330000113,130.91080330000113,130.91080330000113,130.91080330000113,130.91080330000113,130.91080330000113,130.91080330000113,130.91080330000113,001,P005,2025_Jan_18_1548,CategoryLocalizer,2021.2.3,59.94876778333029,
91.0,91.8,3,0.75,Stimuli\ImageFiles-Set1\Faces\Face_00111.png,0,0,0,136,136,136,,,,,,,,,,,,,91.0136265000001,0.01362650000010035,None,,131.11096729999917,131.11096729999917,131.11096729999917,131.11096729999917,131.11096729999917,131.11096729999917,131.11096729999917,131.11096729999917,001,P005,2025_Jan_18_1548,CategoryLocalizer,2021.2.3,59.94876778333029,
91.8,92.0,5,0.0,Stimuli\Blank.png,0,0,0,137,137,137,,,,,,,,,,,,,91.82908820000011,0.02908820000011758,5,0.13973860000260174,131.91168370000014,131.91168370000014,131.91168370000014,131.91168370000014,131.91168370000014,131.91168370000014,131.91168370000014,131.91168370000014,001,P005,2025_Jan_18_1548,CategoryLocalizer,2021.2.3,59.94876778333029,
92.0,92.8,3,0.75,Stimuli\ImageFiles-Set1\Faces\Face_00020.png,0,0,0,138,138,138,,,,,,,,,,,,,92.01226450000104,0.012264500001037959,None,,132.09516249999797,132.09516249999797,132.09516249999797,132.09516249999797,132.09516249999797,132.09516249999797,132.09516249999797,132.09516249999797,001,P005,2025_Jan_18_1548,CategoryLocalizer,2021.2.3,59.94876778333029,
92.8,93.0,5,0.0,Stimuli\Blank.png,0,0,0,139,139,139,,,,,,,,,,,,,92.81305700000303,0.013057000003030339,None,,132.89588309999817,132.89588309999817,132.89588309999817,132.89588309999817,132.89588309999817,132.89588309999817,132.89588309999817,132.89588309999817,001,P005,2025_Jan_18_1548,CategoryLocalizer,2021.2.3,59.94876778333029,
93.0,93.8,3,0.75,Stimuli\ImageFiles-Set1\Faces\Face_00014.png,0,0,0,140,140,140,,,,,,,,,,,,,93.01400110000031,0.014001100000314182,None,,133.11271979999947,133.11271979999947,133.11271979999947,133.11271979999947,133.11271979999947,133.11271979999947,133.11271979999947,133.11271979999947,001,P005,2025_Jan_18_1548,CategoryLocalizer,2021.2.3,59.94876778333029,
93.8,94.0,5,0.0,Stimuli\Blank.png,0,0,0,141,141,141,,,,,,,,,,,,,93.83305370000016,0.03305370000016694,5,0.12157950000255369,133.93013710000014,133.93013710000014,133.93013710000014,133.93013710000014,133.93013710000014,133.93013710000014,133.93013710000014,133.93013710000014,001,P005,2025_Jan_18_1548,CategoryLocalizer,2021.2.3,59.94876778333029,
94.0,94.8,3,0.75,Stimuli\ImageFiles-Set1\Faces\Face_00057.png,0,0,0,142,142,142,,,,,,,,,,,,,94.01391660000081,0.01391660000081174,None,,134.09692119999818,134.09692119999818,134.09692119999818,134.09692119999818,134.09692119999818,134.09692119999818,134.09692119999818,134.09692119999818,001,P005,2025_Jan_18_1548,CategoryLocalizer,2021.2.3,59.94876778333029,
94.8,95.0,5,0.0,Stimuli\Blank.png,0,0,0,143,143,143,,,,,,,,,,,,,94.81500779999988,0.015007799999878557,None,,134.8976412999982,134.8976412999982,134.8976412999982,134.8976412999982,134.8976412999982,134.8976412999982,134.8976412999982,134.8976412999982,001,P005,2025_Jan_18_1548,CategoryLocalizer,2021.2.3,59.94876778333029,
95.0,95.8,3,0.75,Stimuli\ImageFiles-Set1\Faces\Face_00035.png,0,0,0,144,144,144,,,,,,,,,,,,,95.01547630000277,0.015476300002774224,None,,135.09780619999947,135.09780619999947,135.09780619999947,135.09780619999947,135.09780619999947,135.09780619999947,135.09780619999947,135.09780619999947,001,P005,2025_Jan_18_1548,CategoryLocalizer,2021.2.3,59.94876778333029,
95.8,96.0,5,0.0,Stimuli\Blank.png,0,0,0,145,145,145,,,,,,,,,,,,,95.7993607999997,-0.0006392000002932718,None,,135.88183479999861,135.88183479999861,135.88183479999861,135.88183479999861,135.88183479999861,135.88183479999861,135.88183479999861,135.88183479999861,001,P005,2025_Jan_18_1548,CategoryLocalizer,2021.2.3,59.94876778333029,
96.0,96.8,3,0.75,Stimuli\ImageFiles-Set1\Faces\Face_00024.png,1,1,0,146,146,146,,,,,,,,,,,,,95.99958100000003,-0.00041899999996530823,None,,136.0987157999989,136.0987157999989,136.0987157999989,136.0987157999989,136.0987157999989,136.0987157999989,136.0987157999989,136.0987157999989,001,P005,2025_Jan_18_1548,CategoryLocalizer,2021.2.3,59.94876778333029,
96.8,97.0,5,0.0,Stimuli\Blank.png,0,0,0,147,147,147,,,,,,,,,,,,,96.81910810000045,0.0191081000004516,None,,136.91607799999838,136.91607799999838,136.91607799999838,136.91607799999838,136.91607799999838,136.91607799999838,136.91607799999838,136.91607799999838,001,P005,2025_Jan_18_1548,CategoryLocalizer,2021.2.3,59.94876778333029,
97.0,97.8,3,0.75,Stimuli\ImageFiles-Set1\Faces\Face_00001.png,0,0,0,148,148,148,,,,,,,,,,,,,97.01851370000077,0.01851370000076713,None,,137.11627279999811,137.11627279999811,137.11627279999811,137.11627279999811,137.11627279999811,137.11627279999811,137.11627279999811,137.11627279999811,001,P005,2025_Jan_18_1548,CategoryLocalizer,2021.2.3,59.94876778333029,
97.8,98.0,5,0.0,Stimuli\Blank.png,0,0,0,149,149,149,,,,,,,,,,,,,97.81815130000177,0.018151300001775894,5,0.15125030000126571,137.90021390000038,137.90021390000038,137.90021390000038,137.90021390000038,137.90021390000038,137.90021390000038,137.90021390000038,137.90021390000038,001,P005,2025_Jan_18_1548,CategoryLocalizer,2021.2.3,59.94876778333029,
98.0,98.8,3,0.75,Stimuli\ImageFiles-Set1\Faces\Face_00001.png,0,0,0,150,150,150,,,,,,,,,,,,,98.00217350000094,0.0021735000009357464,None,,138.100443299998,138.100443299998,138.100443299998,138.100443299998,138.100443299998,138.100443299998,138.100443299998,138.100443299998,001,P005,2025_Jan_18_1548,CategoryLocalizer,2021.2.3,59.94876778333029,
98.8,99.0,5,0.0,Stimuli\Blank.png,0,0,0,151,151,151,,,,,,,,,,,,,98.82042650000221,0.02042650000221613,None,,138.9011838999977,138.9011838999977,138.9011838999977,138.9011838999977,138.9011838999977,138.9011838999977,138.9011838999977,138.9011838999977,001,P005,2025_Jan_18_1548,CategoryLocalizer,2021.2.3,59.94876778333029,
99.0,99.8,3,0.75,Stimuli\ImageFiles-Set1\Faces\Face_00079.png,0,0,0,152,152,152,,,,,,,,,,,,,99.00413219999973,0.004132199999730801,4,0.3861088999983622,139.10133510000014,139.10133510000014,139.10133510000014,139.10133510000014,139.10133510000014,139.10133510000014,139.10133510000014,139.10133510000014,001,P005,2025_Jan_18_1548,CategoryLocalizer,2021.2.3,59.94876778333029,
99.8,100.0,5,0.0,Stimuli\Blank.png,0,0,0,153,153,153,,,,,,,,,,,,,99.81929230000242,0.019292300002419438,5,0.14947749999919324,139.90203829999882,139.90203829999882,139.90203829999882,139.90203829999882,139.90203829999882,139.90203829999882,139.90203829999882,139.90203829999882,001,P005,2025_Jan_18_1548,CategoryLocalizer,2021.2.3,59.94876778333029,
100.0,100.8,3,0.75,Stimuli\ImageFiles-Set1\Faces\Face_00103.png,0,0,0,154,154,154,,,,,,,,,,,,,100.00269570000091,0.002695700000913348,None,,140.0855386000003,140.0855386000003,140.0855386000003,140.0855386000003,140.0855386000003,140.0855386000003,140.0855386000003,140.0855386000003,001,P005,2025_Jan_18_1548,CategoryLocalizer,2021.2.3,59.94876778333029,
100.8,101.0,5,0.0,Stimuli\Blank.png,0,0,0,155,155,155,,,,,,,,,,,,,100.80379979999998,0.003799799999981701,None,,140.88624580000032,140.88624580000032,140.88624580000032,140.88624580000032,140.88624580000032,140.88624580000032,140.88624580000032,140.88624580000032,001,P005,2025_Jan_18_1548,CategoryLocalizer,2021.2.3,59.94876778333029,
101.0,101.8,3,0.75,Stimuli\ImageFiles-Set1\Faces\Face_00033.png,0,0,0,156,156,156,,,,,,,,,,,,,101.0042366000016,0.004236600001604529,None,,141.10309399999824,141.10309399999824,141.10309399999824,141.10309399999824,141.10309399999824,141.10309399999824,141.10309399999824,141.10309399999824,001,P005,2025_Jan_18_1548,CategoryLocalizer,2021.2.3,59.94876778333029,
101.8,102.0,5,0.0,Stimuli\Blank.png,0,0,0,157,157,157,,,,,,,,,,,,,101.82325010000204,0.02325010000204486,5,0.1309179000018048,141.92048919999797,141.92048919999797,141.92048919999797,141.92048919999797,141.92048919999797,141.92048919999797,141.92048919999797,141.92048919999797,001,P005,2025_Jan_18_1548,CategoryLocalizer,2021.2.3,59.94876778333029,
102.0,102.8,3,0.75,Stimuli\ImageFiles-Set1\Faces\Face_00105.png,0,0,0,158,158,158,,,,,,,,,,,,,102.02101659999971,0.021016599999711616,None,,142.10397540000122,142.10397540000122,142.10397540000122,142.10397540000122,142.10397540000122,142.10397540000122,142.10397540000122,142.10397540000122,001,P005,2025_Jan_18_1548,CategoryLocalizer,2021.2.3,59.94876778333029,
102.8,103.0,5,0.0,Stimuli\Blank.png,0,0,0,159,159,159,,,,,,,,,,,,,102.80581700000039,0.005817000000391204,None,,142.8879922999986,142.8879922999986,142.8879922999986,142.8879922999986,142.8879922999986,142.8879922999986,142.8879922999986,142.8879922999986,001,P005,2025_Jan_18_1548,CategoryLocalizer,2021.2.3,59.94876778333029,
103.0,103.8,3,0.75,Stimuli\ImageFiles-Set1\Faces\Face_00037.png,0,0,0,160,160,160,,,,,,,,,,,,,103.00595390000308,0.005953900003078161,None,,143.10485799999879,143.10485799999879,143.10485799999879,143.10485799999879,143.10485799999879,143.10485799999879,143.10485799999879,143.10485799999879,001,P005,2025_Jan_18_1548,CategoryLocalizer,2021.2.3,59.94876778333029,
103.8,104.0,5,0.0,Stimuli\Blank.png,0,0,0,161,161,161,,,,,,,,,,,,,103.82308470000135,0.023084700001348324,5,0.14583539999875939,143.90555450000102,143.90555450000102,143.90555450000102,143.90555450000102,143.90555450000102,143.90555450000102,143.90555450000102,143.90555450000102,001,P005,2025_Jan_18_1548,CategoryLocalizer,2021.2.3,59.94876778333029,
104.0,104.8,1,0.75,Stimuli\ImageFiles-Set1\Objects\Object_Highchair_00001.png,0,0,0,162,162,162,,,,,,,,,,,,,104.00656770000205,0.006567700002051424,None,,144.0890494999985,144.0890494999985,144.0890494999985,144.0890494999985,144.0890494999985,144.0890494999985,144.0890494999985,144.0890494999985,001,P005,2025_Jan_18_1548,CategoryLocalizer,2021.2.3,59.94876778333029,
104.8,105.0,5,0.0,Stimuli\Blank.png,0,0,0,163,163,163,,,,,,,,,,,,,104.80916760000036,0.009167600000367315,None,,144.9064502000001,144.9064502000001,144.9064502000001,144.9064502000001,144.9064502000001,144.9064502000001,144.9064502000001,144.9064502000001,001,P005,2025_Jan_18_1548,CategoryLocalizer,2021.2.3,59.94876778333029,
105.0,105.8,1,0.75,Stimuli\ImageFiles-Set1\Objects\Object_Scale_00001.png,0,0,0,164,164,164,,,,,,,,,,,,,105.02435750000222,0.024357500002224697,None,,145.1232932999992,145.1232932999992,145.1232932999992,145.1232932999992,145.1232932999992,145.1232932999992,145.1232932999992,145.1232932999992,001,P005,2025_Jan_18_1548,CategoryLocalizer,2021.2.3,59.94876778333029,
105.8,106.0,5,0.0,Stimuli\Blank.png,0,0,0,165,165,165,,,,,,,,,,,,,105.82483540000248,0.024835400002487518,5,0.14423870000246097,145.90731400000004,145.90731400000004,145.90731400000004,145.90731400000004,145.90731400000004,145.90731400000004,145.90731400000004,145.90731400000004,001,P005,2025_Jan_18_1548,CategoryLocalizer,2021.2.3,59.94876778333029,
106.0,106.8,1,0.75,Stimuli\ImageFiles-Set1\Objects\Object_Table_00001.png,0,0,0,166,166,166,,,,,,,,,,,,,106.00818419999996,0.008184199999959674,None,,146.09078999999838,146.09078999999838,146.09078999999838,146.09078999999838,146.09078999999838,146.09078999999838,146.09078999999838,146.09078999999838,001,P005,2025_Jan_18_1548,CategoryLocalizer,2021.2.3,59.94876778333029,
106.8,107.0,5,0.0,Stimuli\Blank.png,0,0,0,167,167,167,,,,,,,,,,,,,106.80915559999994,0.009155599999942865,None,,146.8915132000002,146.8915132000002,146.8915132000002,146.8915132000002,146.8915132000002,146.8915132000002,146.8915132000002,146.8915132000002,001,P005,2025_Jan_18_1548,CategoryLocalizer,2021.2.3,59.94876778333029,
107.0,107.8,1,0.75,Stimuli\ImageFiles-Set1\Objects\Object_Recliner_00001.png,0,0,0,168,168,168,,,,,,,,,,,,,107.00958970000283,0.009589700002834434,None,,147.10840910000115,147.10840910000115,147.10840910000115,147.10840910000115,147.10840910000115,147.10840910000115,147.10840910000115,147.10840910000115,001,P005,2025_Jan_18_1548,CategoryLocalizer,2021.2.3,59.94876778333029,
107.8,108.0,5,0.0,Stimuli\Blank.png,0,0,0,169,169,169,,,,,,,,,,,,,107.82673820000127,0.026738200001275914,5,0.14245210000080988,147.9090933999978,147.9090933999978,147.9090933999978,147.9090933999978,147.9090933999978,147.9090933999978,147.9090933999978,147.9090933999978,001,P005,2025_Jan_18_1548,CategoryLocalizer,2021.2.3,59.94876778333029,
108.0,108.8,1,0.75,Stimuli\ImageFiles-Set1\Objects\Object_Recliner_00001.png,1,1,0,170,170,170,,,,,,,,,,,,,108.00987990000067,0.009879900000669295,4,0.4531600000009348,148.10926769999787,148.10926769999787,148.10926769999787,148.10926769999787,148.10926769999787,148.10926769999787,148.10926769999787,148.10926769999787,001,P005,2025_Jan_18_1548,CategoryLocalizer,2021.2.3,59.94876778333029,
108.8,109.0,5,0.0,Stimuli\Blank.png,0,0,0,171,171,171,,,,,,,,,,,,,108.82769310000003,0.027693100000035997,None,,148.90995819999807,148.90995819999807,148.90995819999807,148.90995819999807,148.90995819999807,148.90995819999807,148.90995819999807,148.90995819999807,001,P005,2025_Jan_18_1548,CategoryLocalizer,2021.2.3,59.94876778333029,
109.0,109.8,1,0.75,Stimuli\ImageFiles-Set1\Objects\Object_Pizza_00001.png,0,0,0,172,172,172,,,,,,,,,,,,,109.0117707999998,0.01177079999979469,None,,149.11016440000094,149.11016440000094,149.11016440000094,149.11016440000094,149.11016440000094,149.11016440000094,149.11016440000094,149.11016440000094,001,P005,2025_Jan_18_1548,CategoryLocalizer,2021.2.3,59.94876778333029,
109.8,110.0,5,0.0,Stimuli\Blank.png,0,0,0,173,173,173,,,,,,,,,,,,,109.82821440000043,0.028214400000436513,5,0.14058199999999488,149.91084059999775,149.91084059999775,149.91084059999775,149.91084059999775,149.91084059999775,149.91084059999775,149.91084059999775,149.91084059999775,001,P005,2025_Jan_18_1548,CategoryLocalizer,2021.2.3,59.94876778333029,
110.0,110.8,1,0.75,Stimuli\ImageFiles-Set1\Objects\Object_ComputerMouse_00001.png,0,0,0,174,174,174,,,,,,,,,,,,,110.01169090000258,0.01169090000257711,None,,150.09434039999906,150.09434039999906,150.09434039999906,150.09434039999906,150.09434039999906,150.09434039999906,150.09434039999906,150.09434039999906,001,P005,2025_Jan_18_1548,CategoryLocalizer,2021.2.3,59.94876778333029,
110.8,111.0,5,0.0,Stimuli\Blank.png,0,0,0,175,175,175,,,,,,,,,,,,,110.8130532000032,0.013053200003199095,None,,150.89505350000036,150.89505350000036,150.89505350000036,150.89505350000036,150.89505350000036,150.89505350000036,150.89505350000036,150.89505350000036,001,P005,2025_Jan_18_1548,CategoryLocalizer,2021.2.3,59.94876778333029,
111.0,111.8,1,0.75,Stimuli\ImageFiles-Set1\Objects\Object_Glasses_00001.png,0,0,0,176,176,176,,,,,,,,,,,,,111.0130315000024,0.013031500002398388,None,,151.0952173000005,151.0952173000005,151.0952173000005,151.0952173000005,151.0952173000005,151.0952173000005,151.0952173000005,151.0952173000005,001,P005,2025_Jan_18_1548,CategoryLocalizer,2021.2.3,59.94876778333029,
111.8,112.0,5,0.0,Stimuli\Blank.png,0,0,0,177,177,177,,,,,,,,,,,,,111.81399729999976,0.013997299999758184,5,0.15571839999756776,151.8959333999992,151.8959333999992,151.8959333999992,151.8959333999992,151.8959333999992,151.8959333999992,151.8959333999992,151.8959333999992,001,P005,2025_Jan_18_1548,CategoryLocalizer,2021.2.3,59.94876778333029,
112.0,112.8,1,0.75,Stimuli\ImageFiles-Set1\Objects\Object_Ring_00001.png,0,0,0,178,178,178,,,,,,,,,,,,,112.01335680000193,0.013356800001929514,None,,152.09609959999943,152.09609959999943,152.09609959999943,152.09609959999943,152.09609959999943,152.09609959999943,152.09609959999943,152.09609959999943,001,P005,2025_Jan_18_1548,CategoryLocalizer,2021.2.3,59.94876778333029,
112.8,113.0,5,0.0,Stimuli\Blank.png,0,0,0,179,179,179,,,,,,,,,,,,,112.81427700000131,0.014277000001314377,None,,152.89681159999964,152.89681159999964,152.89681159999964,152.89681159999964,152.89681159999964,152.89681159999964,152.89681159999964,152.89681159999964,001,P005,2025_Jan_18_1548,CategoryLocalizer,2021.2.3,59.94876778333029,
113.0,113.8,1,0.75,Stimuli\ImageFiles-Set1\Objects\Object_Dryer_00001.png,0,0,0,180,180,180,,,,,,,,,,,,,113.01474220000091,0.014742200000910088,None,,153.09699120000005,153.09699120000005,153.09699120000005,153.09699120000005,153.09699120000005,153.09699120000005,153.09699120000005,153.09699120000005,001,P005,2025_Jan_18_1548,CategoryLocalizer,2021.2.3,59.94876778333029,
113.8,114.0,5,0.0,Stimuli\Blank.png,0,0,0,181,181,181,,,,,,,,,,,,,113.81513140000243,0.015131400002431405,5,0.15396179999879678,153.8976909999983,153.8976909999983,153.8976909999983,153.8976909999983,153.8976909999983,153.8976909999983,153.8976909999983,153.8976909999983,001,P005,2025_Jan_18_1548,CategoryLocalizer,2021.2.3,59.94876778333029,
114.0,114.8,1,0.75,Stimuli\ImageFiles-Set1\Objects\Object_Bench_00001.png,0,0,0,182,182,182,,,,,,,,,,,,,114.0156573000022,0.015657300002203556,None,,154.11457769999834,154.11457769999834,154.11457769999834,154.11457769999834,154.11457769999834,154.11457769999834,154.11457769999834,154.11457769999834,001,P005,2025_Jan_18_1548,CategoryLocalizer,2021.2.3,59.94876778333029,
114.8,115.0,5,0.0,Stimuli\Blank.png,0,0,0,183,183,183,,,,,,,,,,,,,114.81622630000129,0.01622630000129277,None,,154.89858789999926,154.89858789999926,154.89858789999926,154.89858789999926,154.89858789999926,154.89858789999926,154.89858789999926,154.89858789999926,001,P005,2025_Jan_18_1548,CategoryLocalizer,2021.2.3,59.94876778333029,
115.0,115.8,1,0.75,Stimuli\ImageFiles-Set1\Objects\Object_PepperShaker_00001.png,0,0,0,184,184,184,,,,,,,,,,,,,114.9996237000014,-0.00037629999860655516,None,,155.09875789999933,155.09875789999933,155.09875789999933,155.09875789999933,155.09875789999933,155.09875789999933,155.09875789999933,155.09875789999933,001,P005,2025_Jan_18_1548,CategoryLocalizer,2021.2.3,59.94876778333029,
115.8,116.0,5,0.0,Stimuli\Blank.png,0,0,0,185,185,185,,,,,,,,,,,,,115.81771560000197,0.017715600001977805,5,0.15193809999982477,155.8994582999985,155.8994582999985,155.8994582999985,155.8994582999985,155.8994582999985,155.8994582999985,155.8994582999985,155.8994582999985,001,P005,2025_Jan_18_1548,CategoryLocalizer,2021.2.3,59.94876778333029,
116.0,116.8,1,0.75,Stimuli\ImageFiles-Set1\Objects\Object_Card_00001.png,0,0,0,186,186,186,,,,,,,,,,,,,116.00073049999992,0.0007304999999178108,None,,156.08295100000032,156.08295100000032,156.08295100000032,156.08295100000032,156.08295100000032,156.08295100000032,156.08295100000032,156.08295100000032,001,P005,2025_Jan_18_1548,CategoryLocalizer,2021.2.3,59.94876778333029,
116.8,117.0,5,0.0,Stimuli\Blank.png,0,0,0,187,187,187,,,,,,,,,,,,,116.80134270000053,0.0013427000005350465,None,,156.88367550000112,156.88367550000112,156.88367550000112,156.88367550000112,156.88367550000112,156.88367550000112,156.88367550000112,156.88367550000112,001,P005,2025_Jan_18_1548,CategoryLocalizer,2021.2.3,59.94876778333029,
117.0,117.8,1,0.75,Stimuli\ImageFiles-Set1\Objects\Object_Matches_00001.png,0,0,0,188,188,188,,,,,,,,,,,,,117.00114690000191,0.001146900001913309,None,,157.08381910000026,157.08381910000026,157.08381910000026,157.08381910000026,157.08381910000026,157.08381910000026,157.08381910000026,157.08381910000026,001,P005,2025_Jan_18_1548,CategoryLocalizer,2021.2.3,59.94876778333029,
117.8,118.0,5,0.0,Stimuli\Blank.png,0,0,0,189,189,189,,,,,,,,,,,,,117.80370270000276,0.0037027000027620716,5,0.15010119999715243,157.9012354000006,157.9012354000006,157.9012354000006,157.9012354000006,157.9012354000006,157.9012354000006,157.9012354000006,157.9012354000006,001,P005,2025_Jan_18_1548,CategoryLocalizer,2021.2.3,59.94876778333029,
118.0,118.8,1,0.75,Stimuli\ImageFiles-Set1\Objects\Object_Knife_00001.png,0,0,0,190,190,190,,,,,,,,,,,,,118.01851680000254,0.018516800002544187,None,,158.10138219999862,158.10138219999862,158.10138219999862,158.10138219999862,158.10138219999862,158.10138219999862,158.10138219999862,158.10138219999862,001,P005,2025_Jan_18_1548,CategoryLocalizer,2021.2.3,59.94876778333029,
118.8,119.0,5,0.0,Stimuli\Blank.png,0,0,0,191,191,191,,,,,,,,,,,,,118.80379800000082,0.0037980000008275283,None,,158.8854289999981,158.8854289999981,158.8854289999981,158.8854289999981,158.8854289999981,158.8854289999981,158.8854289999981,158.8854289999981,001,P005,2025_Jan_18_1548,CategoryLocalizer,2021.2.3,59.94876778333029,
119.0,119.8,1,0.75,Stimuli\ImageFiles-Set1\Objects\Object_Crib_00001.png,0,0,0,192,192,192,,,,,,,,,,,,,119.00282710000101,0.002827100001013605,None,,159.0855789999987,159.0855789999987,159.0855789999987,159.0855789999987,159.0855789999987,159.0855789999987,159.0855789999987,159.0855789999987,001,P005,2025_Jan_18_1548,CategoryLocalizer,2021.2.3,59.94876778333029,
119.8,120.0,5,0.0,Stimuli\Blank.png,0,0,0,193,193,193,,,,,,,,,,,,,119.80411800000002,0.004118000000019606,5,0.16505509999842616,159.88630569999805,159.88630569999805,159.88630569999805,159.88630569999805,159.88630569999805,159.88630569999805,159.88630569999805,159.88630569999805,001,P005,2025_Jan_18_1548,CategoryLocalizer,2021.2.3,59.94876778333029,
120.0,120.8,4,0.75,Stimuli\ImageFiles-Set1\Scenes\Scenes_025.png,0,0,0,194,194,194,,,,,,,,,,,,,120.00407090000226,0.004070900002261624,None,,160.08646249999947,160.08646249999947,160.08646249999947,160.08646249999947,160.08646249999947,160.08646249999947,160.08646249999947,160.08646249999947,001,P005,2025_Jan_18_1548,CategoryLocalizer,2021.2.3,59.94876778333029,
120.8,121.0,5,0.0,Stimuli\Blank.png,0,0,0,195,195,195,,,,,,,,,,,,,120.80495930000325,0.004959300003250178,None,,160.88716850000128,160.88716850000128,160.88716850000128,160.88716850000128,160.88716850000128,160.88716850000128,160.88716850000128,160.88716850000128,001,P005,2025_Jan_18_1548,CategoryLocalizer,2021.2.3,59.94876778333029,
121.0,121.8,4,0.75,Stimuli\ImageFiles-Set1\Scenes\Scenes_022.png,0,0,0,196,196,196,,,,,,,,,,,,,121.0045491000019,0.004549100001895567,None,,161.0873576999984,161.0873576999984,161.0873576999984,161.0873576999984,161.0873576999984,161.0873576999984,161.0873576999984,161.0873576999984,001,P005,2025_Jan_18_1548,CategoryLocalizer,2021.2.3,59.94876778333029,
121.8,122.0,5,0.0,Stimuli\Blank.png,0,0,0,197,197,197,,,,,,,,,,,,,121.80527849999999,0.0052784999999886395,5,0.16339789999983623,161.88805130000037,161.88805130000037,161.88805130000037,161.88805130000037,161.88805130000037,161.88805130000037,161.88805130000037,161.88805130000037,001,P005,2025_Jan_18_1548,CategoryLocalizer,2021.2.3,59.94876778333029,
122.0,122.8,4,0.75,Stimuli\ImageFiles-Set1\Scenes\Scenes_022.png,1,1,0,198,198,198,,,,,,,,,,,,,122.00565930000084,0.005659300000843359,4,0.3839369000015722,162.10544300000038,162.10544300000038,162.10544300000038,162.10544300000038,162.10544300000038,162.10544300000038,162.10544300000038,162.10544300000038,001,P005,2025_Jan_18_1548,CategoryLocalizer,2021.2.3,59.94876778333029,
122.8,123.0,5,0.0,Stimuli\Blank.png,0,0,0,199,199,199,,,,,,,,,,,,,122.82392340000297,0.023923400002971107,None,,162.9056254999996,162.9056254999996,162.9056254999996,162.9056254999996,162.9056254999996,162.9056254999996,162.9056254999996,162.9056254999996,001,P005,2025_Jan_18_1548,CategoryLocalizer,2021.2.3,59.94876778333029,
123.0,123.8,4,0.75,Stimuli\ImageFiles-Set1\Scenes\Scenes_009.png,0,0,0,200,200,200,,,,,,,,,,,,,123.00737830000071,0.007378300000709714,None,,163.10581230000025,163.10581230000025,163.10581230000025,163.10581230000025,163.10581230000025,163.10581230000025,163.10581230000025,163.10581230000025,001,P005,2025_Jan_18_1548,CategoryLocalizer,2021.2.3,59.94876778333029,
123.8,124.0,5,0.0,Stimuli\Blank.png,0,0,0,201,201,201,,,,,,,,,,,,,123.82417560000249,0.024175600002493525,5,0.14499590000195894,163.9065026999997,163.9065026999997,163.9065026999997,163.9065026999997,163.9065026999997,163.9065026999997,163.9065026999997,163.9065026999997,001,P005,2025_Jan_18_1548,CategoryLocalizer,2021.2.3,59.94876778333029,
124.0,124.8,4,0.75,Stimuli\ImageFiles-Set1\Scenes\Scenes_059.png,0,0,0,202,202,202,,,,,,,,,,,,,124.00759910000124,0.007599100001243642,None,,164.0899830999988,164.0899830999988,164.0899830999988,164.0899830999988,164.0899830999988,164.0899830999988,164.0899830999988,164.0899830999988,001,P005,2025_Jan_18_1548,CategoryLocalizer,2021.2.3,59.94876778333029,
124.8,125.0,5,0.0,Stimuli\Blank.png,0,0,0,203,203,203,,,,,,,,,,,,,124.80908340000315,0.009083400003149222,None,,164.89069609999933,164.89069609999933,164.89069609999933,164.89069609999933,164.89069609999933,164.89069609999933,164.89069609999933,164.89069609999933,001,P005,2025_Jan_18_1548,CategoryLocalizer,2021.2.3,59.94876778333029,
125.0,125.8,4,0.75,Stimuli\ImageFiles-Set1\Scenes\Scenes_023.png,0,0,0,204,204,204,,,,,,,,,,,,,125.00913159999982,0.009131599999818718,None,,165.10755679999784,165.10755679999784,165.10755679999784,165.10755679999784,165.10755679999784,165.10755679999784,165.10755679999784,165.10755679999784,001,P005,2025_Jan_18_1548,CategoryLocalizer,2021.2.3,59.94876778333029,
125.8,126.0,5,0.0,Stimuli\Blank.png,0,0,0,205,205,205,,,,,,,,,,,,,125.825764600002,0.025764600002005977,5,0.14323870000225725,165.90825459999905,165.90825459999905,165.90825459999905,165.90825459999905,165.90825459999905,165.90825459999905,165.90825459999905,165.90825459999905,001,P005,2025_Jan_18_1548,CategoryLocalizer,2021.2.3,59.94876778333029,
126.0,126.8,4,0.75,Stimuli\ImageFiles-Set1\Scenes\Scenes_040.png,0,0,0,206,206,206,,,,,,,,,,,,,126.00911660000202,0.00911660000201664,None,,166.09175849999883,166.09175849999883,166.09175849999883,166.09175849999883,166.09175849999883,166.09175849999883,166.09175849999883,166.09175849999883,001,P005,2025_Jan_18_1548,CategoryLocalizer,2021.2.3,59.94876778333029,
126.8,127.0,5,0.0,Stimuli\Blank.png,0,0,0,207,207,207,,,,,,,,,,,,,126.81005070000174,0.010050700001741575,None,,166.8924533999998,166.8924533999998,166.8924533999998,166.8924533999998,166.8924533999998,166.8924533999998,166.8924533999998,166.8924533999998,001,P005,2025_Jan_18_1548,CategoryLocalizer,2021.2.3,59.94876778333029,
127.0,127.8,4,0.75,Stimuli\ImageFiles-Set1\Scenes\Scenes_030.png,0,0,0,208,208,208,,,,,,,,,,,,,127.0130476000013,0.013047600001300452,None,,167.1093445999977,167.1093445999977,167.1093445999977,167.1093445999977,167.1093445999977,167.1093445999977,167.1093445999977,167.1093445999977,001,P005,2025_Jan_18_1548,CategoryLocalizer,2021.2.3,59.94876778333029,
127.8,128.0,5,0.0,Stimuli\Blank.png,0,0,0,209,209,209,,,,,,,,,,,,,127.82757590000256,0.02757590000256016,5,0.1413365000007616,167.91003170000113,167.91003170000113,167.91003170000113,167.91003170000113,167.91003170000113,167.91003170000113,167.91003170000113,167.91003170000113,001,P005,2025_Jan_18_1548,CategoryLocalizer,2021.2.3,59.94876778333029,
128.0,128.8,4,0.75,Stimuli\ImageFiles-Set1\Scenes\Scenes_053.png,0,0,0,210,210,210,,,,,,,,,,,,,128.01071230000161,0.010712300001614494,None,,168.11029319999943,168.11029319999943,168.11029319999943,168.11029319999943,168.11029319999943,168.11029319999943,168.11029319999943,168.11029319999943,001,P005,2025_Jan_18_1548,CategoryLocalizer,2021.2.3,59.94876778333029,
128.8,129.0,5,0.0,Stimuli\Blank.png,0,0,0,211,211,211,,,,,,,,,,,,,128.82887240000127,0.028872400001262122,None,,168.91090699999768,168.91090699999768,168.91090699999768,168.91090699999768,168.91090699999768,168.91090699999768,168.91090699999768,168.91090699999768,001,P005,2025_Jan_18_1548,CategoryLocalizer,2021.2.3,59.94876778333029,
129.0,129.8,4,0.75,Stimuli\ImageFiles-Set1\Scenes\Scenes_032.png,0,0,0,212,212,212,,,,,,,,,,,,,129.01176260000284,0.011762600002839463,None,,169.11112560000038,169.11112560000038,169.11112560000038,169.11112560000038,169.11112560000038,169.11112560000038,169.11112560000038,169.11112560000038,001,P005,2025_Jan_18_1548,CategoryLocalizer,2021.2.3,59.94876778333029,
129.8,130.0,5,0.0,Stimuli\Blank.png,0,0,0,213,213,213,,,,,,,,,,,,,129.8289169000018,0.028916900001775048,5,0.13981849999981932,169.91178099999888,169.91178099999888,169.91178099999888,169.91178099999888,169.91178099999888,169.91178099999888,169.91178099999888,169.91178099999888,001,P005,2025_Jan_18_1548,CategoryLocalizer,2021.2.3,59.94876778333029,
130.0,130.8,4,0.75,Stimuli\ImageFiles-Set1\Scenes\Scenes_036.png,0,0,0,214,214,214,,,,,,,,,,,,,130.01269479999974,0.012694799999735551,None,,170.09528069999942,170.09528069999942,170.09528069999942,170.09528069999942,170.09528069999942,170.09528069999942,170.09528069999942,170.09528069999942,001,P005,2025_Jan_18_1548,CategoryLocalizer,2021.2.3,59.94876778333029,
130.8,131.0,5,0.0,Stimuli\Blank.png,0,0,0,215,215,215,,,,,,,,,,,,,130.81439580000006,0.014395800000045256,None,,170.8959924999981,170.8959924999981,170.8959924999981,170.8959924999981,170.8959924999981,170.8959924999981,170.8959924999981,170.8959924999981,001,P005,2025_Jan_18_1548,CategoryLocalizer,2021.2.3,59.94876778333029,
131.0,131.8,4,0.75,Stimuli\ImageFiles-Set1\Scenes\Scenes_055.png,0,0,0,216,216,216,,,,,,,,,,,,,131.01386590000038,0.01386590000038268,None,,171.1128604000005,171.1128604000005,171.1128604000005,171.1128604000005,171.1128604000005,171.1128604000005,171.1128604000005,171.1128604000005,001,P005,2025_Jan_18_1548,CategoryLocalizer,2021.2.3,59.94876778333029,
131.8,132.0,5,0.0,Stimuli\Blank.png,0,0,0,217,217,217,,,,,,,,,,,,,131.8306924000026,0.03069240000257878,5,0.13779150000118534,171.91354359999968,171.91354359999968,171.91354359999968,171.91354359999968,171.91354359999968,171.91354359999968,171.91354359999968,171.91354359999968,001,P005,2025_Jan_18_1548,CategoryLocalizer,2021.2.3,59.94876778333029,
132.0,132.8,4,0.75,Stimuli\ImageFiles-Set1\Scenes\Scenes_057.png,0,0,0,218,218,218,,,,,,,,,,,,,132.01493490000212,0.014934900002117502,None,,172.09704000000056,172.09704000000056,172.09704000000056,172.09704000000056,172.09704000000056,172.09704000000056,172.09704000000056,172.09704000000056,001,P005,2025_Jan_18_1548,CategoryLocalizer,2021.2.3,59.94876778333029,
132.8,133.0,5,0.0,Stimuli\Blank.png,0,0,0,219,219,219,,,,,,,,,,,,,132.79918140000154,-0.0008185999984675618,None,,172.8810573999981,172.8810573999981,172.8810573999981,172.8810573999981,172.8810573999981,172.8810573999981,172.8810573999981,172.8810573999981,001,P005,2025_Jan_18_1548,CategoryLocalizer,2021.2.3,59.94876778333029,
133.0,133.8,4,0.75,Stimuli\ImageFiles-Set1\Scenes\Scenes_013.png,0,0,0,220,220,220,,,,,,,,,,,,,132.99823120000292,-0.0017687999970803503,None,,173.08125479999944,173.08125479999944,173.08125479999944,173.08125479999944,173.08125479999944,173.08125479999944,173.08125479999944,173.08125479999944,001,P005,2025_Jan_18_1548,CategoryLocalizer,2021.2.3,59.94876778333029,
133.8,134.0,5,0.0,Stimuli\Blank.png,0,0,0,221,221,221,,,,,,,,,,,,,133.81664140000066,0.016641400000651174,None,,173.89864119999766,173.89864119999766,173.89864119999766,173.89864119999766,173.89864119999766,173.89864119999766,173.89864119999766,173.89864119999766,001,P005,2025_Jan_18_1548,CategoryLocalizer,2021.2.3,59.94876778333029,
134.0,134.8,4,0.75,Stimuli\ImageFiles-Set1\Scenes\Scenes_029.png,0,0,0,222,222,222,,,,,,,,,,,,,133.9995465000029,-0.0004534999970928766,None,,174.09881509999832,174.09881509999832,174.09881509999832,174.09881509999832,174.09881509999832,174.09881509999832,174.09881509999832,174.09881509999832,001,P005,2025_Jan_18_1548,CategoryLocalizer,2021.2.3,59.94876778333029,
134.8,135.0,5,0.0,Stimuli\Blank.png,0,0,0,223,223,223,,,,,,,,,,,,,134.81915339999978,0.019153399999765952,None,,174.91619100000025,174.91619100000025,174.91619100000025,174.91619100000025,174.91619100000025,174.91619100000025,174.91619100000025,174.91619100000025,001,P005,2025_Jan_18_1548,CategoryLocalizer,2021.2.3,59.94876778333029,
135.0,135.8,4,0.75,Stimuli\ImageFiles-Set1\Scenes\Scenes_010.png,0,0,0,224,224,224,,,,,,,,,,,,,135.01688940000167,0.016889400001673494,None,,175.09968369999842,175.09968369999842,175.09968369999842,175.09968369999842,175.09968369999842,175.09968369999842,175.09968369999842,175.09968369999842,001,P005,2025_Jan_18_1548,CategoryLocalizer,2021.2.3,59.94876778333029,
135.8,136.0,5,0.0,Stimuli\Blank.png,0,0,0,225,225,225,,,,,,,,,,,,,135.80079960000148,0.00079960000147139,5,0.1675351000012597,175.88370729999951,175.88370729999951,175.88370729999951,175.88370729999951,175.88370729999951,175.88370729999951,175.88370729999951,175.88370729999951,001,P005,2025_Jan_18_1548,CategoryLocalizer,2021.2.3,59.94876778333029,
136.0,136.8,2,0.75,Stimuli\ImageFiles-Set1\Bodies\Bodies_SittingFloor_00007.png,0,0,0,226,226,226,,,,,,,,,,,,,136.00119000000268,0.0011900000026798807,None,,176.08388899999773,176.08388899999773,176.08388899999773,176.08388899999773,176.08388899999773,176.08388899999773,176.08388899999773,176.08388899999773,001,P005,2025_Jan_18_1548,CategoryLocalizer,2021.2.3,59.94876778333029,
136.8,137.0,5,0.0,Stimuli\Blank.png,0,0,0,227,227,227,,,,,,,,,,,,,136.8025901000001,0.0025901000000772,None,,176.884590499998,176.884590499998,176.884590499998,176.884590499998,176.884590499998,176.884590499998,176.884590499998,176.884590499998,001,P005,2025_Jan_18_1548,CategoryLocalizer,2021.2.3,59.94876778333029,
137.0,137.8,2,0.75,Stimuli\ImageFiles-Set1\Bodies\Bodies_SittingFloor_00005.png,0,0,0,228,228,228,,,,,,,,,,,,,137.00417880000168,0.004178800001682248,None,,177.10144740000032,177.10144740000032,177.10144740000032,177.10144740000032,177.10144740000032,177.10144740000032,177.10144740000032,177.10144740000032,001,P005,2025_Jan_18_1548,CategoryLocalizer,2021.2.3,59.94876778333029,
137.8,138.0,5,0.0,Stimuli\Blank.png,0,0,0,229,229,229,,,,,,,,,,,,,137.81950970000253,0.01950970000251573,5,0.1492002999984834,177.90217359999951,177.90217359999951,177.90217359999951,177.90217359999951,177.90217359999951,177.90217359999951,177.90217359999951,177.90217359999951,001,P005,2025_Jan_18_1548,CategoryLocalizer,2021.2.3,59.94876778333029,
138.0,138.8,2,0.75,Stimuli\ImageFiles-Set1\Bodies\Bodies_SittingFloor_00005.png,1,1,0,230,230,230,,,,,,,,,,,,,138.00326980000318,0.0032698000031814445,4,0.6228918000015256,178.10234430000128,178.10234430000128,178.10234430000128,178.10234430000128,178.10234430000128,178.10234430000128,178.10234430000128,178.10234430000128,001,P005,2025_Jan_18_1548,CategoryLocalizer,2021.2.3,59.94876778333029,
138.8,139.0,5,0.0,Stimuli\Blank.png,0,0,0,231,231,231,,,,,,,,,,,,,138.8207063000009,0.020706300000881583,None,,178.903030999998,178.903030999998,178.903030999998,178.903030999998,178.903030999998,178.903030999998,178.903030999998,178.903030999998,001,P005,2025_Jan_18_1548,CategoryLocalizer,2021.2.3,59.94876778333029,
139.0,139.8,2,0.75,Stimuli\ImageFiles-Set1\Bodies\Bodies_Falling_00006.png,0,0,0,232,232,232,,,,,,,,,,,,,139.00416899999982,0.004168999999819789,None,,179.08652050000092,179.08652050000092,179.08652050000092,179.08652050000092,179.08652050000092,179.08652050000092,179.08652050000092,179.08652050000092,001,P005,2025_Jan_18_1548,CategoryLocalizer,2021.2.3,59.94876778333029,
139.8,140.0,5,0.0,Stimuli\Blank.png,0,0,0,233,233,233,,,,,,,,,,,,,139.804939200003,0.00493920000297976,5,0.164145799997641,179.8872334000007,179.8872334000007,179.8872334000007,179.8872334000007,179.8872334000007,179.8872334000007,179.8872334000007,179.8872334000007,001,P005,2025_Jan_18_1548,CategoryLocalizer,2021.2.3,59.94876778333029,
140.0,140.8,2,0.75,Stimuli\ImageFiles-Set1\Bodies\Bodies_Pushing_00005.png,0,0,0,234,234,234,,,,,,,,,,,,,140.00436120000086,0.004361200000857934,None,,180.08740229999967,180.08740229999967,180.08740229999967,180.08740229999967,180.08740229999967,180.08740229999967,180.08740229999967,180.08740229999967,001,P005,2025_Jan_18_1548,CategoryLocalizer,2021.2.3,59.94876778333029,
140.8,141.0,5,0.0,Stimuli\Blank.png,0,0,0,235,235,235,,,,,,,,,,,,,140.80589110000074,0.0058911000007242365,None,,180.8881866999982,180.8881866999982,180.8881866999982,180.8881866999982,180.8881866999982,180.8881866999982,180.8881866999982,180.8881866999982,001,P005,2025_Jan_18_1548,CategoryLocalizer,2021.2.3,59.94876778333029,
141.0,141.8,2,0.75,Stimuli\ImageFiles-Set1\Bodies\Bodies_DownwardDog_00005.png,0,0,0,236,236,236,,,,,,,,,,,,,141.00583480000205,0.005834800002048723,None,,181.1049736999994,181.1049736999994,181.1049736999994,181.1049736999994,181.1049736999994,181.1049736999994,181.1049736999994,181.1049736999994,001,P005,2025_Jan_18_1548,CategoryLocalizer,2021.2.3,59.94876778333029,
141.8,142.0,5,0.0,Stimuli\Blank.png,0,0,0,237,237,237,,,,,,,,,,,,,141.82404590000078,0.02404590000077178,5,0.14558430000033695,181.90568340000027,181.90568340000027,181.90568340000027,181.90568340000027,181.90568340000027,181.90568340000027,181.90568340000027,181.90568340000027,001,P005,2025_Jan_18_1548,CategoryLocalizer,2021.2.3,59.94876778333029,
142.0,142.8,2,0.75,Stimuli\ImageFiles-Set1\Bodies\Bodies_Kicking_00005.png,0,0,0,238,238,238,,,,,,,,,,,,,142.00628040000083,0.006280400000832742,None,,182.0891702000008,182.0891702000008,182.0891702000008,182.0891702000008,182.0891702000008,182.0891702000008,182.0891702000008,182.0891702000008,001,P005,2025_Jan_18_1548,CategoryLocalizer,2021.2.3,59.94876778333029,
142.8,143.0,5,0.0,Stimuli\Blank.png,0,0,0,239,239,239,,,,,,,,,,,,,142.80764869999985,0.007648699999833752,None,,182.88987220000126,182.88987220000126,182.88987220000126,182.88987220000126,182.88987220000126,182.88987220000126,182.88987220000126,182.88987220000126,001,P005,2025_Jan_18_1548,CategoryLocalizer,2021.2.3,59.94876778333029,
143.0,143.8,2,0.75,Stimuli\ImageFiles-Set1\Bodies\Bodies_Punching_00006.png,0,0,0,240,240,240,,,,,,,,,,,,,143.0081280000013,0.008128000001306646,None,,183.0900494999987,183.0900494999987,183.0900494999987,183.0900494999987,183.0900494999987,183.0900494999987,183.0900494999987,183.0900494999987,001,P005,2025_Jan_18_1548,CategoryLocalizer,2021.2.3,59.94876778333029,
143.8,144.0,5,0.0,Stimuli\Blank.png,0,0,0,241,241,241,,,,,,,,,,,,,143.80897190000178,0.008971900001768063,5,0.16049149999889778,183.8907575000012,183.8907575000012,183.8907575000012,183.8907575000012,183.8907575000012,183.8907575000012,183.8907575000012,183.8907575000012,001,P005,2025_Jan_18_1548,CategoryLocalizer,2021.2.3,59.94876778333029,
144.0,144.8,2,0.75,Stimuli\ImageFiles-Set1\Bodies\Bodies_QuadStretch_00001.png,0,0,0,242,242,242,,,,,,,,,,,,,144.00781650000135,0.007816500001354143,None,,184.09093239999856,184.09093239999856,184.09093239999856,184.09093239999856,184.09093239999856,184.09093239999856,184.09093239999856,184.09093239999856,001,P005,2025_Jan_18_1548,CategoryLocalizer,2021.2.3,59.94876778333029,
144.8,145.0,5,0.0,Stimuli\Blank.png,0,0,0,243,243,243,,,,,,,,,,,,,144.80918470000324,0.009184700003231683,None,,184.89165610000055,184.89165610000055,184.89165610000055,184.89165610000055,184.89165610000055,184.89165610000055,184.89165610000055,184.89165610000055,001,P005,2025_Jan_18_1548,CategoryLocalizer,2021.2.3,59.94876778333029,
145.0,145.8,2,0.75,Stimuli\ImageFiles-Set1\Bodies\Bodies_Lunging_00004.png,0,0,0,244,244,244,,,,,,,,,,,,,145.00926770000297,0.009267700002965285,None,,185.1085103000005,185.1085103000005,185.1085103000005,185.1085103000005,185.1085103000005,185.1085103000005,185.1085103000005,185.1085103000005,001,P005,2025_Jan_18_1548,CategoryLocalizer,2021.2.3,59.94876778333029,
145.8,146.0,5,0.0,Stimuli\Blank.png,0,0,0,245,245,245,,,,,,,,,,,,,145.82687360000273,0.026873600002716103,5,0.14216020000094431,185.90919170000052,185.90919170000052,185.90919170000052,185.90919170000052,185.90919170000052,185.90919170000052,185.90919170000052,185.90919170000052,001,P005,2025_Jan_18_1548,CategoryLocalizer,2021.2.3,59.94876778333029,
146.0,146.8,2,0.75,Stimuli\ImageFiles-Set1\Bodies\Bodies_CobraPose_00005.png,1,1,0,246,246,246,,,,,,,,,,,,,146.01027160000012,0.010271600000123726,None,,186.09269049999784,186.09269049999784,186.09269049999784,186.09269049999784,186.09269049999784,186.09269049999784,186.09269049999784,186.09269049999784,001,P005,2025_Jan_18_1548,CategoryLocalizer,2021.2.3,59.94876778333029,
146.8,147.0,5,0.0,Stimuli\Blank.png,0,0,0,247,247,247,,,,,,,,,,,,,146.81166230000235,0.011662300002342363,None,,186.8933857000011,186.8933857000011,186.8933857000011,186.8933857000011,186.8933857000011,186.8933857000011,186.8933857000011,186.8933857000011,001,P005,2025_Jan_18_1548,CategoryLocalizer,2021.2.3,59.94876778333029,
147.0,147.8,2,0.75,Stimuli\ImageFiles-Set1\Bodies\Bodies_Standing_00005.png,0,0,0,248,248,248,,,,,,,,,,,,,147.01316190000216,0.01316190000216011,None,,187.11026309999943,187.11026309999943,187.11026309999943,187.11026309999943,187.11026309999943,187.11026309999943,187.11026309999943,187.11026309999943,001,P005,2025_Jan_18_1548,CategoryLocalizer,2021.2.3,59.94876778333029,
147.8,148.0,5,0.0,Stimuli\Blank.png,0,0,0,249,249,249,,,,,,,,,,,,,147.8287354000022,0.028735400002176448,5,0.14031319999776315,187.9109673999992,187.9109673999992,187.9109673999992,187.9109673999992,187.9109673999992,187.9109673999992,187.9109673999992,187.9109673999992,001,P005,2025_Jan_18_1548,CategoryLocalizer,2021.2.3,59.94876778333029,
148.0,148.8,2,0.75,Stimuli\ImageFiles-Set1\Bodies\Bodies_Standing_00005.png,0,0,0,250,250,250,,,,,,,,,,,,,148.0126588000021,0.012658800002100179,None,,188.09445259999848,188.09445259999848,188.09445259999848,188.09445259999848,188.09445259999848,188.09445259999848,188.09445259999848,188.09445259999848,001,P005,2025_Jan_18_1548,CategoryLocalizer,2021.2.3,59.94876778333029,
148.8,149.0,5,0.0,Stimuli\Blank.png,0,0,0,251,251,251,,,,,,,,,,,,,148.8128788000031,0.012878800003079505,None,,188.89517409999826,188.89517409999826,188.89517409999826,188.89517409999826,188.89517409999826,188.89517409999826,188.89517409999826,188.89517409999826,001,P005,2025_Jan_18_1548,CategoryLocalizer,2021.2.3,59.94876778333029,
149.0,149.8,2,0.75,Stimuli\ImageFiles-Set1\Bodies\Bodies_Walking_00002.png,0,0,0,252,252,252,,,,,,,,,,,,,149.01285950000238,0.0128595000023779,4,0.07320399999662186,189.0953324000002,189.0953324000002,189.0953324000002,189.0953324000002,189.0953324000002,189.0953324000002,189.0953324000002,189.0953324000002,001,P005,2025_Jan_18_1548,CategoryLocalizer,2021.2.3,59.94876778333029,
149.8,150.0,5,0.0,Stimuli\Blank.png,0,0,0,253,253,253,,,,,,,,,,,,,149.81391720000101,0.013917200001003494,5,0.1551958999989438,189.89604979999785,189.89604979999785,189.89604979999785,189.89604979999785,189.89604979999785,189.89604979999785,189.89604979999785,189.89604979999785,001,P005,2025_Jan_18_1548,CategoryLocalizer,2021.2.3,59.94876778333029,
150.0,150.8,2,0.75,Stimuli\ImageFiles-Set1\Bodies\Bodies_Kneeling_00003.png,0,0,0,254,254,254,,,,,,,,,,,,,150.013872800002,0.013872800001990981,None,,190.09622149999996,190.09622149999996,190.09622149999996,190.09622149999996,190.09622149999996,190.09622149999996,190.09622149999996,190.09622149999996,001,P005,2025_Jan_18_1548,CategoryLocalizer,2021.2.3,59.94876778333029,
150.8,151.0,5,0.0,Stimuli\Blank.png,0,0,0,255,255,255,,,,,,,,,,,,,150.81468700000187,0.014687000001856632,None,,190.896923100001,190.896923100001,190.896923100001,190.896923100001,190.896923100001,190.896923100001,190.896923100001,190.896923100001,001,P005,2025_Jan_18_1548,CategoryLocalizer,2021.2.3,59.94876778333029,
151.0,151.8,2,0.75,Stimuli\ImageFiles-Set1\Bodies\Bodies_Kicking_00003.png,0,0,0,256,256,256,,,,,,,,,,,,,151.0142295000005,0.014229500000510598,None,,191.09710160000031,191.09710160000031,191.09710160000031,191.09710160000031,191.09710160000031,191.09710160000031,191.09710160000031,191.09710160000031,001,P005,2025_Jan_18_1548,CategoryLocalizer,2021.2.3,59.94876778333029,
151.8,152.0,5,0.0,Stimuli\Blank.png,0,0,0,257,257,257,,,,,,,,,,,,,151.81585720000294,0.015857200002926675,None,,191.89780489999976,191.89780489999976,191.89780489999976,191.89780489999976,191.89780489999976,191.89780489999976,191.89780489999976,191.89780489999976,001,P005,2025_Jan_18_1548,CategoryLocalizer,2021.2.3,59.94876778333029,
152.0,164.0,0,0.0,Stimuli\Blank.png,0,0,0,258,258,258,,,,,,,,,,,,,151.99821220000013,-0.0017877999998745508,5,11.971121200000198,192.08130529999835,192.08130529999835,192.08130529999835,192.08130529999835,192.08130529999835,192.08130529999835,192.08130529999835,192.08130529999835,001,P005,2025_Jan_18_1548,CategoryLocalizer,2021.2.3,59.94876778333029,
164.0,164.8,4,0.75,Stimuli\ImageFiles-Set1\Scenes\Scenes_043.png,0,0,0,259,259,259,,,,,,,,,,,,,164.00920690000203,0.009206900002027396,None,,204.10855860000083,204.10855860000083,204.10855860000083,204.10855860000083,204.10855860000083,204.10855860000083,204.10855860000083,204.10855860000083,001,P005,2025_Jan_18_1548,CategoryLocalizer,2021.2.3,59.94876778333029,
164.8,165.0,5,0.0,Stimuli\Blank.png,0,0,0,260,260,260,,,,,,,,,,,,,164.82697380000172,0.02697380000171279,None,,204.90925539999807,204.90925539999807,204.90925539999807,204.90925539999807,204.90925539999807,204.90925539999807,204.90925539999807,204.90925539999807,001,P005,2025_Jan_18_1548,CategoryLocalizer,2021.2.3,59.94876778333029,
165.0,165.8,4,0.75,Stimuli\ImageFiles-Set1\Scenes\Scenes_043.png,1,1,0,261,261,261,,,,,,,,,,,,,165.0105506,0.010550599999987753,4,0.5491750000001048,205.11000630000126,205.11000630000126,205.11000630000126,205.11000630000126,205.11000630000126,205.11000630000126,205.11000630000126,205.11000630000126,001,P005,2025_Jan_18_1548,CategoryLocalizer,2021.2.3,59.94876778333029,
165.8,166.0,5,0.0,Stimuli\Blank.png,0,0,0,262,262,262,,,,,,,,,,,,,165.8278981000003,0.02789810000030002,5,0.14101680000021588,205.91015179999886,205.91015179999886,205.91015179999886,205.91015179999886,205.91015179999886,205.91015179999886,205.91015179999886,205.91015179999886,001,P005,2025_Jan_18_1548,CategoryLocalizer,2021.2.3,59.94876778333029,
166.0,166.8,4,0.75,Stimuli\ImageFiles-Set1\Scenes\Scenes_035.png,0,0,0,263,263,263,,,,,,,,,,,,,166.01143850000153,0.011438500001531793,None,,206.11029430000053,206.11029430000053,206.11029430000053,206.11029430000053,206.11029430000053,206.11029430000053,206.11029430000053,206.11029430000053,001,P005,2025_Jan_18_1548,CategoryLocalizer,2021.2.3,59.94876778333029,
166.8,167.0,5,0.0,Stimuli\Blank.png,0,0,0,264,264,264,,,,,,,,,,,,,166.828817900001,0.028817900001001817,None,,206.91101979999803,206.91101979999803,206.91101979999803,206.91101979999803,206.91101979999803,206.91101979999803,206.91101979999803,206.91101979999803,001,P005,2025_Jan_18_1548,CategoryLocalizer,2021.2.3,59.94876778333029,
167.0,167.8,4,0.75,Stimuli\ImageFiles-Set1\Scenes\Scenes_039.png,0,0,0,265,265,265,,,,,,,,,,,,,167.01344370000152,0.013443700001516845,None,,207.11120239999946,207.11120239999946,207.11120239999946,207.11120239999946,207.11120239999946,207.11120239999946,207.11120239999946,207.11120239999946,001,P005,2025_Jan_18_1548,CategoryLocalizer,2021.2.3,59.94876778333029,
167.8,168.0,5,0.0,Stimuli\Blank.png,0,0,0,266,266,266,,,,,,,,,,,,,167.82947240000067,0.029472400000656762,5,0.14024950000020908,207.9119021000006,207.9119021000006,207.9119021000006,207.9119021000006,207.9119021000006,207.9119021000006,207.9119021000006,207.9119021000006,001,P005,2025_Jan_18_1548,CategoryLocalizer,2021.2.3,59.94876778333029,
168.0,168.8,4,0.75,Stimuli\ImageFiles-Set1\Scenes\Scenes_006.png,0,0,0,267,267,267,,,,,,,,,,,,,168.0129384000029,0.012938400002894923,None,,208.09539089999816,208.09539089999816,208.09539089999816,208.09539089999816,208.09539089999816,208.09539089999816,208.09539089999816,208.09539089999816,001,P005,2025_Jan_18_1548,CategoryLocalizer,2021.2.3,59.94876778333029,
168.8,169.0,5,0.0,Stimuli\Blank.png,0,0,0,268,268,268,,,,,,,,,,,,,168.81388380000135,0.013883800001337931,None,,208.8961003000004,208.8961003000004,208.8961003000004,208.8961003000004,208.8961003000004,208.8961003000004,208.8961003000004,208.8961003000004,001,P005,2025_Jan_18_1548,CategoryLocalizer,2021.2.3,59.94876778333029,
169.0,169.8,4,0.75,Stimuli\ImageFiles-Set1\Scenes\Scenes_034.png,0,0,0,269,269,269,,,,,,,,,,,,,169.01466510000319,0.014665100003185216,None,,209.11295840000093,209.11295840000093,209.11295840000093,209.11295840000093,209.11295840000093,209.11295840000093,209.11295840000093,209.11295840000093,001,P005,2025_Jan_18_1548,CategoryLocalizer,2021.2.3,59.94876778333029,
169.8,170.0,5,0.0,Stimuli\Blank.png,0,0,0,270,270,270,,,,,,,,,,,,,169.83106800000314,0.031068000003131147,5,0.13849169999957667,209.9136584000007,209.9136584000007,209.9136584000007,209.9136584000007,209.9136584000007,209.9136584000007,209.9136584000007,209.9136584000007,001,P005,2025_Jan_18_1548,CategoryLocalizer,2021.2.3,59.94876778333029,
170.0,170.8,4,0.75,Stimuli\ImageFiles-Set1\Scenes\Scenes_033.png,0,0,0,271,271,271,,,,,,,,,,,,,170.0145814000025,0.014581400002498413,None,,210.09716689999914,210.09716689999914,210.09716689999914,210.09716689999914,210.09716689999914,210.09716689999914,210.09716689999914,210.09716689999914,001,P005,2025_Jan_18_1548,CategoryLocalizer,2021.2.3,59.94876778333029,
170.8,171.0,5,0.0,Stimuli\Blank.png,0,0,0,272,272,272,,,,,,,,,,,,,170.7995105000009,-0.0004894999991051918,None,,210.88157959999808,210.88157959999808,210.88157959999808,210.88157959999808,210.88157959999808,210.88157959999808,210.88157959999808,210.88157959999808,001,P005,2025_Jan_18_1548,CategoryLocalizer,2021.2.3,59.94876778333029,
171.0,171.8,4,0.75,Stimuli\ImageFiles-Set1\Scenes\Scenes_056.png,0,0,0,273,273,273,,,,,,,,,,,,,170.99888470000224,-0.001115299997763941,None,,211.08141260000048,211.08141260000048,211.08141260000048,211.08141260000048,211.08141260000048,211.08141260000048,211.08141260000048,211.08141260000048,001,P005,2025_Jan_18_1548,CategoryLocalizer,2021.2.3,59.94876778333029,
171.8,172.0,5,0.0,Stimuli\Blank.png,0,0,0,274,274,274,,,,,,,,,,,,,171.79973900000186,-0.00026099999814732655,None,,211.8820511999984,211.8820511999984,211.8820511999984,211.8820511999984,211.8820511999984,211.8820511999984,211.8820511999984,211.8820511999984,001,P005,2025_Jan_18_1548,CategoryLocalizer,2021.2.3,59.94876778333029,
172.0,172.8,4,0.75,Stimuli\ImageFiles-Set1\Scenes\Scenes_016.png,0,0,0,275,275,275,,,,,,,,,,,,,171.9993125000001,-0.0006874999999126885,None,,212.09895010000037,212.09895010000037,212.09895010000037,212.09895010000037,212.09895010000037,212.09895010000037,212.09895010000037,212.09895010000037,001,P005,2025_Jan_18_1548,CategoryLocalizer,2021.2.3,59.94876778333029,
172.8,173.0,5,0.0,Stimuli\Blank.png,0,0,0,276,276,276,,,,,,,,,,,,,172.81697370000256,0.01697370000255205,None,,212.8996159999988,212.8996159999988,212.8996159999988,212.8996159999988,212.8996159999988,212.8996159999988,212.8996159999988,212.8996159999988,001,P005,2025_Jan_18_1548,CategoryLocalizer,2021.2.3,59.94876778333029,
173.0,173.8,4,0.75,Stimuli\ImageFiles-Set1\Scenes\Scenes_012.png,0,0,0,277,277,277,,,,,,,,,,,,,173.0005729000004,0.000572900000406662,None,,213.08310920000076,213.08310920000076,213.08310920000076,213.08310920000076,213.08310920000076,213.08310920000076,213.08310920000076,213.08310920000076,001,P005,2025_Jan_18_1548,CategoryLocalizer,2021.2.3,59.94876778333029,
173.8,174.0,5,0.0,Stimuli\Blank.png,0,0,0,278,278,278,,,,,,,,,,,,,173.8030420000032,0.0030420000031767813,5,0.15168089999860968,213.90050809999957,213.90050809999957,213.90050809999957,213.90050809999957,213.90050809999957,213.90050809999957,213.90050809999957,213.90050809999957,001,P005,2025_Jan_18_1548,CategoryLocalizer,2021.2.3,59.94876778333029,
174.0,174.8,4,0.75,Stimuli\ImageFiles-Set1\Scenes\Scenes_007.png,0,0,0,279,279,279,,,,,,,,,,,,,174.01782430000094,0.01782430000093882,None,,214.1006744999977,214.1006744999977,214.1006744999977,214.1006744999977,214.1006744999977,214.1006744999977,214.1006744999977,214.1006744999977,001,P005,2025_Jan_18_1548,CategoryLocalizer,2021.2.3,59.94876778333029,
174.8,175.0,5,0.0,Stimuli\Blank.png,0,0,0,280,280,280,,,,,,,,,,,,,174.804193400003,0.0041934000029755225,None,,214.9013917000011,214.9013917000011,214.9013917000011,214.9013917000011,214.9013917000011,214.9013917000011,214.9013917000011,214.9013917000011,001,P005,2025_Jan_18_1548,CategoryLocalizer,2021.2.3,59.94876778333029,
175.0,175.8,4,0.75,Stimuli\ImageFiles-Set1\Scenes\Scenes_060.png,1,1,0,281,281,281,,,,,,,,,,,,,175.0188737000026,0.018873700002586702,None,,215.1182516000008,215.1182516000008,215.1182516000008,215.1182516000008,215.1182516000008,215.1182516000008,215.1182516000008,215.1182516000008,001,P005,2025_Jan_18_1548,CategoryLocalizer,2021.2.3,59.94876778333029,
175.8,176.0,5,0.0,Stimuli\Blank.png,0,0,0,282,282,282,,,,,,,,,,,,,175.81995740000275,0.019957400002738268,5,0.14999109999916982,215.90226220000113,215.90226220000113,215.90226220000113,215.90226220000113,215.90226220000113,215.90226220000113,215.90226220000113,215.90226220000113,001,P005,2025_Jan_18_1548,CategoryLocalizer,2021.2.3,59.94876778333029,
