eventStartTime,eventEndTime,eventCond,imSize,imFile,repeatedImage,responseEvent,Events.thisRepN,Events.thisTrialN,Events.thisN,Events.thisIndex,Instructions.started,Instructions.stopped,participantReadyResponse.keys,participantReadyResponse.rt,participantReadyResponse.started,participantReadyResponse.stopped,startWaitforTrigger,triggerResponse.keys,triggerResponse.rt,triggerResponse.started,triggerResponse.stopped,globalTimer,actualStartTime,startTimingDiff,participantResponse.keys,participantResponse.rt,participantResponse.started,participantResponse.stopped,image.started,image.stopped,fixationOutside.started,fixationOutside.stopped,fixationInside.started,fixationInside.stopped,session,participant,date,expName,psychopyVersion,frameRate,
,,,,,,,,,,,11.856319700000313,None,4,13.881797000001825,11.856319700000313,None,,,,,,,,,,,,,,,,,,,002,P005,2025_Jan_18_1616,CategoryLocalizer,2021.2.3,59.96041413462419,
,,,,,,,,,,,,,,,,,25.754309600000852,5,13.910675099999935,25.7671010999984,None,,,,,,,,,,,,,,002,P005,2025_Jan_18_1616,CategoryLocalizer,2021.2.3,59.96041413462419,
0.0,12.0,0,0.0,Stimuli\Blank.png,0,0,0,0,0,0,,,,,,,,,,,,39.68303949999972,0.05819350000092527,0.05819350000092527,5,9.91500349999842,39.76277560000017,None,39.76277560000017,None,39.76277560000017,None,39.76277560000017,None,002,P005,2025_Jan_18_1616,CategoryLocalizer,2021.2.3,59.96041413462419,
12.0,12.8,1,0.75,Stimuli\ImageFiles-Set2\Objects\Object_Dresser_00001.png,0,0,0,1,1,1,,,,,,,,,,,,,12.010031400001026,0.010031400001025759,None,,51.70660009999847,51.70660009999847,51.70660009999847,51.70660009999847,51.70660009999847,51.70660009999847,51.70660009999847,51.70660009999847,002,P005,2025_Jan_18_1616,CategoryLocalizer,2021.2.3,59.96041413462419,
12.8,13.0,5,0.0,Stimuli\Blank.png,0,0,0,2,2,2,,,,,,,,,,,,,12.812239800001407,0.012239800001406564,None,,52.52399789999981,52.52399789999981,52.52399789999981,52.52399789999981,52.52399789999981,52.52399789999981,52.52399789999981,52.52399789999981,002,P005,2025_Jan_18_1616,CategoryLocalizer,2021.2.3,59.96041413462419,
13.0,13.8,1,0.75,Stimuli\ImageFiles-Set2\Objects\Object_Pen_00001.png,0,0,0,3,3,3,,,,,,,,,,,,,13.027024800001527,0.027024800001527183,None,,52.72415929999988,52.72415929999988,52.72415929999988,52.72415929999988,52.72415929999988,52.72415929999988,52.72415929999988,52.72415929999988,002,P005,2025_Jan_18_1616,CategoryLocalizer,2021.2.3,59.96041413462419,
13.8,14.0,5,0.0,Stimuli\Blank.png,0,0,0,4,4,4,,,,,,,,,,,,,13.811808600003133,0.011808600003131886,None,,53.508189699998184,53.508189699998184,53.508189699998184,53.508189699998184,53.508189699998184,53.508189699998184,53.508189699998184,53.508189699998184,002,P005,2025_Jan_18_1616,CategoryLocalizer,2021.2.3,59.96041413462419,
14.0,14.8,1,0.75,Stimuli\ImageFiles-Set2\Objects\Object_Button1_00001.png,0,0,0,5,5,5,,,,,,,,,,,,,14.010695000000851,0.010695000000850996,None,,53.70836209999834,53.70836209999834,53.70836209999834,53.70836209999834,53.70836209999834,53.70836209999834,53.70836209999834,53.70836209999834,002,P005,2025_Jan_18_1616,CategoryLocalizer,2021.2.3,59.96041413462419,
14.8,15.0,5,0.0,Stimuli\Blank.png,0,0,0,6,6,6,,,,,,,,,,,,,14.811617600000318,0.011617600000317196,None,,54.50908609999897,54.50908609999897,54.50908609999897,54.50908609999897,54.50908609999897,54.50908609999897,54.50908609999897,54.50908609999897,002,P005,2025_Jan_18_1616,CategoryLocalizer,2021.2.3,59.96041413462419,
15.0,15.8,1,0.75,Stimuli\ImageFiles-Set2\Objects\Object_Ladder_00001.png,0,0,0,7,7,7,,,,,,,,,,,,,15.012994400000025,0.012994400000025053,None,,54.709251100000984,54.709251100000984,54.709251100000984,54.709251100000984,54.709251100000984,54.709251100000984,54.709251100000984,54.709251100000984,002,P005,2025_Jan_18_1616,CategoryLocalizer,2021.2.3,59.96041413462419,
15.8,16.0,5,0.0,Stimuli\Blank.png,0,0,0,8,8,8,,,,,,,,,,,,,15.81323600000178,0.013236000001779047,5,0.16781089999858523,55.509963600001356,55.509963600001356,55.509963600001356,55.509963600001356,55.509963600001356,55.509963600001356,55.509963600001356,55.509963600001356,002,P005,2025_Jan_18_1616,CategoryLocalizer,2021.2.3,59.96041413462419,
16.0,16.8,1,0.75,Stimuli\ImageFiles-Set2\Objects\Object_Bowl_00001.png,0,0,0,9,9,9,,,,,,,,,,,,,16.01284730000043,0.01284730000043055,None,,55.72675940000045,55.72675940000045,55.72675940000045,55.72675940000045,55.72675940000045,55.72675940000045,55.72675940000045,55.72675940000045,002,P005,2025_Jan_18_1616,CategoryLocalizer,2021.2.3,59.96041413462419,
16.8,17.0,5,0.0,Stimuli\Blank.png,0,0,0,10,10,10,,,,,,,,,,,,,16.82976039999994,0.02976039999994029,None,,56.52750709999964,56.52750709999964,56.52750709999964,56.52750709999964,56.52750709999964,56.52750709999964,56.52750709999964,56.52750709999964,002,P005,2025_Jan_18_1616,CategoryLocalizer,2021.2.3,59.96041413462419,
17.0,17.8,1,0.75,Stimuli\ImageFiles-Set2\Objects\Object_Belt_00001.png,0,0,0,11,11,11,,,,,,,,,,,,,17.015973200002918,0.01597320000291802,None,,56.7276966999998,56.7276966999998,56.7276966999998,56.7276966999998,56.7276966999998,56.7276966999998,56.7276966999998,56.7276966999998,002,P005,2025_Jan_18_1616,CategoryLocalizer,2021.2.3,59.96041413462419,
17.8,18.0,5,0.0,Stimuli\Blank.png,0,0,0,12,12,12,,,,,,,,,,,,,17.816081400000257,0.016081400000256707,5,0.14930390000154148,57.52840650000144,57.52840650000144,57.52840650000144,57.52840650000144,57.52840650000144,57.52840650000144,57.52840650000144,57.52840650000144,002,P005,2025_Jan_18_1616,CategoryLocalizer,2021.2.3,59.96041413462419,
18.0,18.8,1,0.75,Stimuli\ImageFiles-Set2\Objects\Object_Coffee_00001.png,0,0,0,13,13,13,,,,,,,,,,,,,18.014843300003122,0.01484330000312184,None,,57.71187759999884,57.71187759999884,57.71187759999884,57.71187759999884,57.71187759999884,57.71187759999884,57.71187759999884,57.71187759999884,002,P005,2025_Jan_18_1616,CategoryLocalizer,2021.2.3,59.96041413462419,
18.8,19.0,5,0.0,Stimuli\Blank.png,0,0,0,14,14,14,,,,,,,,,,,,,18.815651300003083,0.015651300003082014,None,,58.51258969999981,58.51258969999981,58.51258969999981,58.51258969999981,58.51258969999981,58.51258969999981,58.51258969999981,58.51258969999981,002,P005,2025_Jan_18_1616,CategoryLocalizer,2021.2.3,59.96041413462419,
19.0,19.8,1,0.75,Stimuli\ImageFiles-Set2\Objects\Object_Coffee_00001.png,1,1,0,15,15,15,,,,,,,,,,,,,18.99900090000301,-0.0009990999969886616,4,0.4042207000020426,58.71276370000123,58.71276370000123,58.71276370000123,58.71276370000123,58.71276370000123,58.71276370000123,58.71276370000123,58.71276370000123,002,P005,2025_Jan_18_1616,CategoryLocalizer,2021.2.3,59.96041413462419,
19.8,20.0,5,0.0,Stimuli\Blank.png,0,0,0,16,16,16,,,,,,,,,,,,,19.81687950000196,0.016879500001959258,None,,59.513474499999575,59.513474499999575,59.513474499999575,59.513474499999575,59.513474499999575,59.513474499999575,59.513474499999575,59.513474499999575,002,P005,2025_Jan_18_1616,CategoryLocalizer,2021.2.3,59.96041413462419,
20.0,20.8,1,0.75,Stimuli\ImageFiles-Set2\Objects\Object_Barrel_00001.png,0,0,0,17,17,17,,,,,,,,,,,,,20.001636200002395,0.0016362000023946166,None,,59.713643999999476,59.713643999999476,59.713643999999476,59.713643999999476,59.713643999999476,59.713643999999476,59.713643999999476,59.713643999999476,002,P005,2025_Jan_18_1616,CategoryLocalizer,2021.2.3,59.96041413462419,
20.8,21.0,5,0.0,Stimuli\Blank.png,0,0,0,18,18,18,,,,,,,,,,,,,20.816615300002013,0.01661530000201239,None,,60.514348799999425,60.514348799999425,60.514348799999425,60.514348799999425,60.514348799999425,60.514348799999425,60.514348799999425,60.514348799999425,002,P005,2025_Jan_18_1616,CategoryLocalizer,2021.2.3,59.96041413462419,
21.0,21.8,1,0.75,Stimuli\ImageFiles-Set2\Objects\Object_Jar_00001.png,0,0,0,19,19,19,,,,,,,,,,,,,21.000649100002192,0.0006491000021924265,None,,60.71452800000043,60.71452800000043,60.71452800000043,60.71452800000043,60.71452800000043,60.71452800000043,60.71452800000043,60.71452800000043,002,P005,2025_Jan_18_1616,CategoryLocalizer,2021.2.3,59.96041413462419,
21.8,22.0,5,0.0,Stimuli\Blank.png,0,0,0,20,20,20,,,,,,,,,,,,,21.818005500001163,0.018005500001162744,None,,61.5152296999986,61.5152296999986,61.5152296999986,61.5152296999986,61.5152296999986,61.5152296999986,61.5152296999986,61.5152296999986,002,P005,2025_Jan_18_1616,CategoryLocalizer,2021.2.3,59.96041413462419,
22.0,22.8,1,0.75,Stimuli\ImageFiles-Set2\Objects\Object_Mailbox_00001.png,0,0,0,21,21,21,,,,,,,,,,,,,22.00247010000021,0.0024701000002096407,None,,61.715403099999094,61.715403099999094,61.715403099999094,61.715403099999094,61.715403099999094,61.715403099999094,61.715403099999094,61.715403099999094,002,P005,2025_Jan_18_1616,CategoryLocalizer,2021.2.3,59.96041413462419,
22.8,23.0,5,0.0,Stimuli\Blank.png,0,0,0,22,22,22,,,,,,,,,,,,,22.820707599999878,0.020707599999877147,None,,62.53281380000044,62.53281380000044,62.53281380000044,62.53281380000044,62.53281380000044,62.53281380000044,62.53281380000044,62.53281380000044,002,P005,2025_Jan_18_1616,CategoryLocalizer,2021.2.3,59.96041413462419,
23.0,23.8,1,0.75,Stimuli\ImageFiles-Set2\Objects\Object_Shovel_00001.png,0,0,0,23,23,23,,,,,,,,,,,,,23.019849899999826,0.019849899999826448,None,,62.716287700000976,62.716287700000976,62.716287700000976,62.716287700000976,62.716287700000976,62.716287700000976,62.716287700000976,62.716287700000976,002,P005,2025_Jan_18_1616,CategoryLocalizer,2021.2.3,59.96041413462419,
23.8,24.0,5,0.0,Stimuli\Blank.png,0,0,0,24,24,24,,,,,,,,,,,,,23.803499300000112,0.0034993000001115604,None,,63.50034170000072,63.50034170000072,63.50034170000072,63.50034170000072,63.50034170000072,63.50034170000072,63.50034170000072,63.50034170000072,002,P005,2025_Jan_18_1616,CategoryLocalizer,2021.2.3,59.96041413462419,
24.0,24.8,1,0.75,Stimuli\ImageFiles-Set2\Objects\Object_Keyboard_00001.png,0,0,0,25,25,25,,,,,,,,,,,,,24.003305700000055,0.003305700000055367,None,,63.71717720000015,63.71717720000015,63.71717720000015,63.71717720000015,63.71717720000015,63.71717720000015,63.71717720000015,63.71717720000015,002,P005,2025_Jan_18_1616,CategoryLocalizer,2021.2.3,59.96041413462419,
24.8,25.0,5,0.0,Stimuli\Blank.png,0,0,0,26,26,26,,,,,,,,,,,,,24.82062450000012,0.02062450000012106,None,,64.5178831000012,64.5178831000012,64.5178831000012,64.5178831000012,64.5178831000012,64.5178831000012,64.5178831000012,64.5178831000012,002,P005,2025_Jan_18_1616,CategoryLocalizer,2021.2.3,59.96041413462419,
25.0,25.8,1,0.75,Stimuli\ImageFiles-Set2\Objects\Object_Flashlight_00001.png,0,0,0,27,27,27,,,,,,,,,,,,,25.00357630000144,0.0035763000014412683,None,,64.70136790000106,64.70136790000106,64.70136790000106,64.70136790000106,64.70136790000106,64.70136790000106,64.70136790000106,64.70136790000106,002,P005,2025_Jan_18_1616,CategoryLocalizer,2021.2.3,59.96041413462419,
25.8,26.0,5,0.0,Stimuli\Blank.png,0,0,0,28,28,28,,,,,,,,,,,,,25.806145700000343,0.006145700000342202,5,0.1578034000012849,65.52004070000112,65.52004070000112,65.52004070000112,65.52004070000112,65.52004070000112,65.52004070000112,65.52004070000112,65.52004070000112,002,P005,2025_Jan_18_1616,CategoryLocalizer,2021.2.3,59.96041413462419,
26.0,26.8,1,0.75,Stimuli\ImageFiles-Set2\Objects\Object_Ambulance_00001.png,0,0,0,29,29,29,,,,,,,,,,,,,26.021761900003185,0.021761900003184564,None,,65.71893139999884,65.71893139999884,65.71893139999884,65.71893139999884,65.71893139999884,65.71893139999884,65.71893139999884,65.71893139999884,002,P005,2025_Jan_18_1616,CategoryLocalizer,2021.2.3,59.96041413462419,
26.8,27.0,5,0.0,Stimuli\Blank.png,0,0,0,30,30,30,,,,,,,,,,,,,26.80570400000215,0.0057040000021508774,None,,66.5029609000012,66.5029609000012,66.5029609000012,66.5029609000012,66.5029609000012,66.5029609000012,66.5029609000012,66.5029609000012,002,P005,2025_Jan_18_1616,CategoryLocalizer,2021.2.3,59.96041413462419,
27.0,27.8,1,0.75,Stimuli\ImageFiles-Set2\Objects\Object_WashingMachine_00001.png,0,0,0,31,31,31,,,,,,,,,,,,,27.0066590000024,0.006659000002400717,None,,66.71983040000123,66.71983040000123,66.71983040000123,66.71983040000123,66.71983040000123,66.71983040000123,66.71983040000123,66.71983040000123,002,P005,2025_Jan_18_1616,CategoryLocalizer,2021.2.3,59.96041413462419,
27.8,28.0,5,0.0,Stimuli\Blank.png,0,0,0,32,32,32,,,,,,,,,,,,,27.8235330000025,0.023533000002498028,None,,67.52060519999941,67.52060519999941,67.52060519999941,67.52060519999941,67.52060519999941,67.52060519999941,67.52060519999941,67.52060519999941,002,P005,2025_Jan_18_1616,CategoryLocalizer,2021.2.3,59.96041413462419,
28.0,28.8,2,0.75,Stimuli\ImageFiles-Set2\Bodies\Bodies_SittingStretch_00001.png,0,0,0,33,33,33,,,,,,,,,,,,,28.00687850000031,0.00687850000031176,None,,67.7040147000007,67.7040147000007,67.7040147000007,67.7040147000007,67.7040147000007,67.7040147000007,67.7040147000007,67.7040147000007,002,P005,2025_Jan_18_1616,CategoryLocalizer,2021.2.3,59.96041413462419,
28.8,29.0,5,0.0,Stimuli\Blank.png,0,0,0,34,34,34,,,,,,,,,,,,,28.807528000001184,0.007528000001183699,None,,68.50471599999946,68.50471599999946,68.50471599999946,68.50471599999946,68.50471599999946,68.50471599999946,68.50471599999946,68.50471599999946,002,P005,2025_Jan_18_1616,CategoryLocalizer,2021.2.3,59.96041413462419,
29.0,29.8,2,0.75,Stimuli\ImageFiles-Set2\Bodies\Bodies_Kneeling_00001.png,0,0,0,35,35,35,,,,,,,,,,,,,29.007308000000194,0.007308000000193715,None,,68.72158389999822,68.72158389999822,68.72158389999822,68.72158389999822,68.72158389999822,68.72158389999822,68.72158389999822,68.72158389999822,002,P005,2025_Jan_18_1616,CategoryLocalizer,2021.2.3,59.96041413462419,
29.8,30.0,5,0.0,Stimuli\Blank.png,0,0,0,36,36,36,,,,,,,,,,,,,29.826002800000424,0.02600280000042332,None,,69.5223001000013,69.5223001000013,69.5223001000013,69.5223001000013,69.5223001000013,69.5223001000013,69.5223001000013,69.5223001000013,002,P005,2025_Jan_18_1616,CategoryLocalizer,2021.2.3,59.96041413462419,
30.0,30.8,2,0.75,Stimuli\ImageFiles-Set2\Bodies\Bodies_PushUp_00006.png,0,0,0,37,37,37,,,,,,,,,,,,,30.008571900001698,0.00857190000169794,None,,69.72245580000163,69.72245580000163,69.72245580000163,69.72245580000163,69.72245580000163,69.72245580000163,69.72245580000163,69.72245580000163,002,P005,2025_Jan_18_1616,CategoryLocalizer,2021.2.3,59.96041413462419,
30.8,31.0,5,0.0,Stimuli\Blank.png,0,0,0,38,38,38,,,,,,,,,,,,,30.826714900002116,0.026714900002115627,None,,70.52316939999946,70.52316939999946,70.52316939999946,70.52316939999946,70.52316939999946,70.52316939999946,70.52316939999946,70.52316939999946,002,P005,2025_Jan_18_1616,CategoryLocalizer,2021.2.3,59.96041413462419,
31.0,31.8,2,0.75,Stimuli\ImageFiles-Set2\Bodies\Bodies_DownwardDog_00004.png,0,0,0,39,39,39,,,,,,,,,,,,,31.01022170000215,0.010221700002148282,None,,70.70668840000144,70.70668840000144,70.70668840000144,70.70668840000144,70.70668840000144,70.70668840000144,70.70668840000144,70.70668840000144,002,P005,2025_Jan_18_1616,CategoryLocalizer,2021.2.3,59.96041413462419,
31.8,32.0,5,0.0,Stimuli\Blank.png,0,0,0,40,40,40,,,,,,,,,,,,,31.810728200001904,0.010728200001903332,None,,71.50734400000147,71.50734400000147,71.50734400000147,71.50734400000147,71.50734400000147,71.50734400000147,71.50734400000147,71.50734400000147,002,P005,2025_Jan_18_1616,CategoryLocalizer,2021.2.3,59.96041413462419,
32.0,32.8,2,0.75,Stimuli\ImageFiles-Set2\Bodies\Bodies_Falling_00001.png,0,0,0,41,41,41,,,,,,,,,,,,,32.00999520000187,0.009995200001867488,None,,71.70753129999866,71.70753129999866,71.70753129999866,71.70753129999866,71.70753129999866,71.70753129999866,71.70753129999866,71.70753129999866,002,P005,2025_Jan_18_1616,CategoryLocalizer,2021.2.3,59.96041413462419,
32.8,33.0,5,0.0,Stimuli\Blank.png,0,0,0,42,42,42,,,,,,,,,,,,,32.81157280000116,0.011572800001161454,None,,72.50824199999988,72.50824199999988,72.50824199999988,72.50824199999988,72.50824199999988,72.50824199999988,72.50824199999988,72.50824199999988,002,P005,2025_Jan_18_1616,CategoryLocalizer,2021.2.3,59.96041413462419,
33.0,33.8,2,0.75,Stimuli\ImageFiles-Set2\Bodies\Bodies_Kicking_00001.png,0,0,0,43,43,43,,,,,,,,,,,,,33.01105370000005,0.011053700000047684,None,,72.70841780000046,72.70841780000046,72.70841780000046,72.70841780000046,72.70841780000046,72.70841780000046,72.70841780000046,72.70841780000046,002,P005,2025_Jan_18_1616,CategoryLocalizer,2021.2.3,59.96041413462419,
33.8,34.0,5,0.0,Stimuli\Blank.png,0,0,0,44,44,44,,,,,,,,,,,,,33.81189830000221,0.011898300002215478,None,,73.50913629999923,73.50913629999923,73.50913629999923,73.50913629999923,73.50913629999923,73.50913629999923,73.50913629999923,73.50913629999923,002,P005,2025_Jan_18_1616,CategoryLocalizer,2021.2.3,59.96041413462419,
34.0,34.8,2,0.75,Stimuli\ImageFiles-Set2\Bodies\Bodies_Walking_00001.png,0,0,0,45,45,45,,,,,,,,,,,,,34.01217270000052,0.012172700000519399,None,,73.70929790000082,73.70929790000082,73.70929790000082,73.70929790000082,73.70929790000082,73.70929790000082,73.70929790000082,73.70929790000082,002,P005,2025_Jan_18_1616,CategoryLocalizer,2021.2.3,59.96041413462419,
34.8,35.0,5,0.0,Stimuli\Blank.png,0,0,0,46,46,46,,,,,,,,,,,,,34.81235690000176,0.012356900001762483,None,,74.51001879999967,74.51001879999967,74.51001879999967,74.51001879999967,74.51001879999967,74.51001879999967,74.51001879999967,74.51001879999967,002,P005,2025_Jan_18_1616,CategoryLocalizer,2021.2.3,59.96041413462419,
35.0,35.8,2,0.75,Stimuli\ImageFiles-Set2\Bodies\Bodies_SittingFloor_00001.png,0,0,0,47,47,47,,,,,,,,,,,,,35.01282610000271,0.012826100002712337,None,,74.71017619999839,74.71017619999839,74.71017619999839,74.71017619999839,74.71017619999839,74.71017619999839,74.71017619999839,74.71017619999839,002,P005,2025_Jan_18_1616,CategoryLocalizer,2021.2.3,59.96041413462419,
35.8,36.0,5,0.0,Stimuli\Blank.png,0,0,0,48,48,48,,,,,,,,,,,,,35.81386000000202,0.01386000000202614,5,0.1677267999984906,75.51094939999894,75.51094939999894,75.51094939999894,75.51094939999894,75.51094939999894,75.51094939999894,75.51094939999894,75.51094939999894,002,P005,2025_Jan_18_1616,CategoryLocalizer,2021.2.3,59.96041413462419,
36.0,36.8,2,0.75,Stimuli\ImageFiles-Set2\Bodies\Bodies_SittingFloor_00001.png,1,1,0,49,49,49,,,,,,,,,,,,,36.01374790000045,0.013747900000453228,4,0.33785440000065137,75.71105180000086,75.71105180000086,75.71105180000086,75.71105180000086,75.71105180000086,75.71105180000086,75.71105180000086,75.71105180000086,002,P005,2025_Jan_18_1616,CategoryLocalizer,2021.2.3,59.96041413462419,
36.8,37.0,5,0.0,Stimuli\Blank.png,0,0,0,50,50,50,,,,,,,,,,,,,36.816101100001106,0.016101100001108648,None,,76.52956640000048,76.52956640000048,76.52956640000048,76.52956640000048,76.52956640000048,76.52956640000048,76.52956640000048,76.52956640000048,002,P005,2025_Jan_18_1616,CategoryLocalizer,2021.2.3,59.96041413462419,
37.0,37.8,2,0.75,Stimuli\ImageFiles-Set2\Bodies\Bodies_Jumping_00001.png,0,0,0,51,51,51,,,,,,,,,,,,,37.0313610000012,0.03136100000119768,None,,76.74530719999893,76.74530719999893,76.74530719999893,76.74530719999893,76.74530719999893,76.74530719999893,76.74530719999893,76.74530719999893,002,P005,2025_Jan_18_1616,CategoryLocalizer,2021.2.3,59.96041413462419,
37.8,38.0,5,0.0,Stimuli\Blank.png,0,0,0,52,52,52,,,,,,,,,,,,,37.83153390000007,0.0315339000000705,5,0.14842449999923701,77.52933109999867,77.52933109999867,77.52933109999867,77.52933109999867,77.52933109999867,77.52933109999867,77.52933109999867,77.52933109999867,002,P005,2025_Jan_18_1616,CategoryLocalizer,2021.2.3,59.96041413462419,
38.0,38.8,2,0.75,Stimuli\ImageFiles-Set2\Bodies\Bodies_Kicking_00006.png,0,0,0,53,53,53,,,,,,,,,,,,,38.015049100002216,0.01504910000221571,None,,77.71281829999862,77.71281829999862,77.71281829999862,77.71281829999862,77.71281829999862,77.71281829999862,77.71281829999862,77.71281829999862,002,P005,2025_Jan_18_1616,CategoryLocalizer,2021.2.3,59.96041413462419,
38.8,39.0,5,0.0,Stimuli\Blank.png,0,0,0,54,54,54,,,,,,,,,,,,,38.801639799999975,0.0016397999999782087,None,,78.51355770000009,78.51355770000009,78.51355770000009,78.51355770000009,78.51355770000009,78.51355770000009,78.51355770000009,78.51355770000009,002,P005,2025_Jan_18_1616,CategoryLocalizer,2021.2.3,59.96041413462419,
39.0,39.8,2,0.75,Stimuli\ImageFiles-Set2\Bodies\Bodies_Waving_00006.png,0,0,0,55,55,55,,,,,,,,,,,,,39.01685230000294,0.016852300002938136,None,,78.73039250000147,78.73039250000147,78.73039250000147,78.73039250000147,78.73039250000147,78.73039250000147,78.73039250000147,78.73039250000147,002,P005,2025_Jan_18_1616,CategoryLocalizer,2021.2.3,59.96041413462419,
39.8,40.0,5,0.0,Stimuli\Blank.png,0,0,0,56,56,56,,,,,,,,,,,,,39.81732019999981,0.0173201999998156,None,,79.51440690000163,79.51440690000163,79.51440690000163,79.51440690000163,79.51440690000163,79.51440690000163,79.51440690000163,79.51440690000163,002,P005,2025_Jan_18_1616,CategoryLocalizer,2021.2.3,59.96041413462419,
40.0,40.8,2,0.75,Stimuli\ImageFiles-Set2\Bodies\Bodies_Falling_00005.png,0,0,0,57,57,57,,,,,,,,,,,,,40.0008654000012,0.0008654000012029428,None,,79.6979562000015,79.6979562000015,79.6979562000015,79.6979562000015,79.6979562000015,79.6979562000015,79.6979562000015,79.6979562000015,002,P005,2025_Jan_18_1616,CategoryLocalizer,2021.2.3,59.96041413462419,
40.8,41.0,5,0.0,Stimuli\Blank.png,0,0,0,58,58,58,,,,,,,,,,,,,40.80166460000328,0.001664600003280725,None,,80.49860389999958,80.49860389999958,80.49860389999958,80.49860389999958,80.49860389999958,80.49860389999958,80.49860389999958,80.49860389999958,002,P005,2025_Jan_18_1616,CategoryLocalizer,2021.2.3,59.96041413462419,
41.0,41.8,2,0.75,Stimuli\ImageFiles-Set2\Bodies\Bodies_SittingChair_00002.png,0,0,0,59,59,59,,,,,,,,,,,,,41.00163160000011,0.0016316000001097564,None,,80.71549249999953,80.71549249999953,80.71549249999953,80.71549249999953,80.71549249999953,80.71549249999953,80.71549249999953,80.71549249999953,002,P005,2025_Jan_18_1616,CategoryLocalizer,2021.2.3,59.96041413462419,
41.8,42.0,5,0.0,Stimuli\Blank.png,0,0,0,60,60,60,,,,,,,,,,,,,41.82067370000004,0.02067370000004587,5,0.14476460000150837,81.53287410000121,81.53287410000121,81.53287410000121,81.53287410000121,81.53287410000121,81.53287410000121,81.53287410000121,81.53287410000121,002,P005,2025_Jan_18_1616,CategoryLocalizer,2021.2.3,59.96041413462419,
42.0,42.8,2,0.75,Stimuli\ImageFiles-Set2\Bodies\Bodies_Lunging_00006.png,0,0,0,61,61,61,,,,,,,,,,,,,42.01991199999975,0.01991199999974924,None,,81.7330292000006,81.7330292000006,81.7330292000006,81.7330292000006,81.7330292000006,81.7330292000006,81.7330292000006,81.7330292000006,002,P005,2025_Jan_18_1616,CategoryLocalizer,2021.2.3,59.96041413462419,
42.8,43.0,5,0.0,Stimuli\Blank.png,0,0,0,62,62,62,,,,,,,,,,,,,42.82152490000226,0.02152490000226237,None,,82.53376470000148,82.53376470000148,82.53376470000148,82.53376470000148,82.53376470000148,82.53376470000148,82.53376470000148,82.53376470000148,002,P005,2025_Jan_18_1616,CategoryLocalizer,2021.2.3,59.96041413462419,
43.0,43.8,2,0.75,Stimuli\ImageFiles-Set2\Bodies\Bodies_SittingFloor_00006.png,0,0,0,63,63,63,,,,,,,,,,,,,43.02077439999994,0.020774399999936577,None,,82.73391310000079,82.73391310000079,82.73391310000079,82.73391310000079,82.73391310000079,82.73391310000079,82.73391310000079,82.73391310000079,002,P005,2025_Jan_18_1616,CategoryLocalizer,2021.2.3,59.96041413462419,
43.8,44.0,5,0.0,Stimuli\Blank.png,0,0,0,64,64,64,,,,,,,,,,,,,43.82158510000227,0.02158510000226954,None,,83.5179320999996,83.5179320999996,83.5179320999996,83.5179320999996,83.5179320999996,83.5179320999996,83.5179320999996,83.5179320999996,002,P005,2025_Jan_18_1616,CategoryLocalizer,2021.2.3,59.96041413462419,
44.0,44.8,3,0.75,Stimuli\ImageFiles-Set2\Faces\Face_00074.png,0,0,0,65,65,65,,,,,,,,,,,,,44.00630690000253,0.006306900002527982,None,,83.71810199999891,83.71810199999891,83.71810199999891,83.71810199999891,83.71810199999891,83.71810199999891,83.71810199999891,83.71810199999891,002,P005,2025_Jan_18_1616,CategoryLocalizer,2021.2.3,59.96041413462419,
44.8,45.0,5,0.0,Stimuli\Blank.png,0,0,0,66,66,66,,,,,,,,,,,,,44.82181270000001,0.02181270000001234,None,,84.51882910000131,84.51882910000131,84.51882910000131,84.51882910000131,84.51882910000131,84.51882910000131,84.51882910000131,84.51882910000131,002,P005,2025_Jan_18_1616,CategoryLocalizer,2021.2.3,59.96041413462419,
45.0,45.8,3,0.75,Stimuli\ImageFiles-Set2\Faces\Face_00046.png,0,0,0,67,67,67,,,,,,,,,,,,,45.006584400001884,0.006584400001884205,None,,84.71899150000172,84.71899150000172,84.71899150000172,84.71899150000172,84.71899150000172,84.71899150000172,84.71899150000172,84.71899150000172,002,P005,2025_Jan_18_1616,CategoryLocalizer,2021.2.3,59.96041413462419,
45.8,46.0,5,0.0,Stimuli\Blank.png,0,0,0,68,68,68,,,,,,,,,,,,,45.82264240000222,0.02264240000222628,None,,85.51969340000142,85.51969340000142,85.51969340000142,85.51969340000142,85.51969340000142,85.51969340000142,85.51969340000142,85.51969340000142,002,P005,2025_Jan_18_1616,CategoryLocalizer,2021.2.3,59.96041413462419,
46.0,46.8,3,0.75,Stimuli\ImageFiles-Set2\Faces\Face_00013.png,0,0,0,69,69,69,,,,,,,,,,,,,46.006680100002995,0.006680100002995459,None,,85.7198681000009,85.7198681000009,85.7198681000009,85.7198681000009,85.7198681000009,85.7198681000009,85.7198681000009,85.7198681000009,002,P005,2025_Jan_18_1616,CategoryLocalizer,2021.2.3,59.96041413462419,
46.8,47.0,5,0.0,Stimuli\Blank.png,0,0,0,70,70,70,,,,,,,,,,,,,46.82445160000134,0.024451600001341944,None,,86.5205876,86.5205876,86.5205876,86.5205876,86.5205876,86.5205876,86.5205876,86.5205876,002,P005,2025_Jan_18_1616,CategoryLocalizer,2021.2.3,59.96041413462419,
47.0,47.8,3,0.75,Stimuli\ImageFiles-Set2\Faces\Face_00040.png,0,0,0,71,71,71,,,,,,,,,,,,,47.00735070000155,0.007350700001552468,None,,86.72072029999981,86.72072029999981,86.72072029999981,86.72072029999981,86.72072029999981,86.72072029999981,86.72072029999981,86.72072029999981,002,P005,2025_Jan_18_1616,CategoryLocalizer,2021.2.3,59.96041413462419,
47.8,48.0,5,0.0,Stimuli\Blank.png,0,0,0,72,72,72,,,,,,,,,,,,,47.82446920000075,0.024469200000751812,None,,87.52147409999816,87.52147409999816,87.52147409999816,87.52147409999816,87.52147409999816,87.52147409999816,87.52147409999816,87.52147409999816,002,P005,2025_Jan_18_1616,CategoryLocalizer,2021.2.3,59.96041413462419,
48.0,48.8,3,0.75,Stimuli\ImageFiles-Set2\Faces\Face_00106.png,0,0,0,73,73,73,,,,,,,,,,,,,48.00757220000014,0.007572200000140583,None,,87.70495899999878,87.70495899999878,87.70495899999878,87.70495899999878,87.70495899999878,87.70495899999878,87.70495899999878,87.70495899999878,002,P005,2025_Jan_18_1616,CategoryLocalizer,2021.2.3,59.96041413462419,
48.8,49.0,5,0.0,Stimuli\Blank.png,0,0,0,74,74,74,,,,,,,,,,,,,48.8084325000018,0.008432500001802623,None,,88.50564870000017,88.50564870000017,88.50564870000017,88.50564870000017,88.50564870000017,88.50564870000017,88.50564870000017,88.50564870000017,002,P005,2025_Jan_18_1616,CategoryLocalizer,2021.2.3,59.96041413462419,
49.0,49.8,3,0.75,Stimuli\ImageFiles-Set2\Faces\Face_00106.png,1,1,0,75,75,75,,,,,,,,,,,,,49.010853400002816,0.01085340000281576,4,0.6291717999993125,88.72254039999825,88.72254039999825,88.72254039999825,88.72254039999825,88.72254039999825,88.72254039999825,88.72254039999825,88.72254039999825,002,P005,2025_Jan_18_1616,CategoryLocalizer,2021.2.3,59.96041413462419,
49.8,50.0,5,0.0,Stimuli\Blank.png,0,0,0,76,76,76,,,,,,,,,,,,,49.826531600003364,0.026531600003366407,None,,89.52322500000082,89.52322500000082,89.52322500000082,89.52322500000082,89.52322500000082,89.52322500000082,89.52322500000082,89.52322500000082,002,P005,2025_Jan_18_1616,CategoryLocalizer,2021.2.3,59.96041413462419,
50.0,50.8,3,0.75,Stimuli\ImageFiles-Set2\Faces\Face_00112.png,0,0,0,77,77,77,,,,,,,,,,,,,50.01228590000028,0.01228590000027907,None,,89.72339250000005,89.72339250000005,89.72339250000005,89.72339250000005,89.72339250000005,89.72339250000005,89.72339250000005,89.72339250000005,002,P005,2025_Jan_18_1616,CategoryLocalizer,2021.2.3,59.96041413462419,
50.8,51.0,5,0.0,Stimuli\Blank.png,0,0,0,78,78,78,,,,,,,,,,,,,50.82640000000174,0.02640000000174325,None,,90.52409899999839,90.52409899999839,90.52409899999839,90.52409899999839,90.52409899999839,90.52409899999839,90.52409899999839,90.52409899999839,002,P005,2025_Jan_18_1616,CategoryLocalizer,2021.2.3,59.96041413462419,
51.0,51.8,3,0.75,Stimuli\ImageFiles-Set2\Faces\Face_00028.png,0,0,0,79,79,79,,,,,,,,,,,,,51.01047780000226,0.010477800002263393,None,,90.72427289999905,90.72427289999905,90.72427289999905,90.72427289999905,90.72427289999905,90.72427289999905,90.72427289999905,90.72427289999905,002,P005,2025_Jan_18_1616,CategoryLocalizer,2021.2.3,59.96041413462419,
51.8,52.0,5,0.0,Stimuli\Blank.png,0,0,0,80,80,80,,,,,,,,,,,,,51.82800480000151,0.0280048000015114,None,,91.52500819999841,91.52500819999841,91.52500819999841,91.52500819999841,91.52500819999841,91.52500819999841,91.52500819999841,91.52500819999841,002,P005,2025_Jan_18_1616,CategoryLocalizer,2021.2.3,59.96041413462419,
52.0,52.8,3,0.75,Stimuli\ImageFiles-Set2\Faces\Face_00038.png,0,0,0,81,81,81,,,,,,,,,,,,,52.011532700002135,0.011532700002135243,None,,91.72515040000144,91.72515040000144,91.72515040000144,91.72515040000144,91.72515040000144,91.72515040000144,91.72515040000144,91.72515040000144,002,P005,2025_Jan_18_1616,CategoryLocalizer,2021.2.3,59.96041413462419,
52.8,53.0,5,0.0,Stimuli\Blank.png,0,0,0,82,82,82,,,,,,,,,,,,,52.829015100000106,0.029015100000108873,None,,92.52587510000012,92.52587510000012,92.52587510000012,92.52587510000012,92.52587510000012,92.52587510000012,92.52587510000012,92.52587510000012,002,P005,2025_Jan_18_1616,CategoryLocalizer,2021.2.3,59.96041413462419,
53.0,53.8,3,0.75,Stimuli\ImageFiles-Set2\Faces\Face_00072.png,0,0,0,83,83,83,,,,,,,,,,,,,53.0124816000025,0.012481600002502091,None,,92.70935230000032,92.70935230000032,92.70935230000032,92.70935230000032,92.70935230000032,92.70935230000032,92.70935230000032,92.70935230000032,002,P005,2025_Jan_18_1616,CategoryLocalizer,2021.2.3,59.96041413462419,
53.8,54.0,5,0.0,Stimuli\Blank.png,0,0,0,84,84,84,,,,,,,,,,,,,53.81295950000276,0.012959500002764912,None,,93.51005420000001,93.51005420000001,93.51005420000001,93.51005420000001,93.51005420000001,93.51005420000001,93.51005420000001,93.51005420000001,002,P005,2025_Jan_18_1616,CategoryLocalizer,2021.2.3,59.96041413462419,
54.0,54.8,3,0.75,Stimuli\ImageFiles-Set2\Faces\Face_00042.png,0,0,0,85,85,85,,,,,,,,,,,,,54.013221900000644,0.013221900000644382,None,,93.71023169999899,93.71023169999899,93.71023169999899,93.71023169999899,93.71023169999899,93.71023169999899,93.71023169999899,93.71023169999899,002,P005,2025_Jan_18_1616,CategoryLocalizer,2021.2.3,59.96041413462419,
54.8,55.0,5,0.0,Stimuli\Blank.png,0,0,0,86,86,86,,,,,,,,,,,,,54.813329800002975,0.013329800002978232,None,,94.51093250000122,94.51093250000122,94.51093250000122,94.51093250000122,94.51093250000122,94.51093250000122,94.51093250000122,94.51093250000122,002,P005,2025_Jan_18_1616,CategoryLocalizer,2021.2.3,59.96041413462419,
55.0,55.8,3,0.75,Stimuli\ImageFiles-Set2\Faces\Face_00076.png,1,1,0,87,87,87,,,,,,,,,,,,,55.01553960000092,0.015539600000920473,None,,94.72779710000032,94.72779710000032,94.72779710000032,94.72779710000032,94.72779710000032,94.72779710000032,94.72779710000032,94.72779710000032,002,P005,2025_Jan_18_1616,CategoryLocalizer,2021.2.3,59.96041413462419,
55.8,56.0,5,0.0,Stimuli\Blank.png,0,0,0,88,88,88,,,,,,,,,,,,,55.814659600000596,0.014659600000598516,5,0.16681660000176635,95.51181889999862,95.51181889999862,95.51181889999862,95.51181889999862,95.51181889999862,95.51181889999862,95.51181889999862,95.51181889999862,002,P005,2025_Jan_18_1616,CategoryLocalizer,2021.2.3,59.96041413462419,
56.0,56.8,3,0.75,Stimuli\ImageFiles-Set2\Faces\Face_00032.png,0,0,0,89,89,89,,,,,,,,,,,,,56.01502299999993,0.015022999999928288,None,,95.71199809999962,95.71199809999962,95.71199809999962,95.71199809999962,95.71199809999962,95.71199809999962,95.71199809999962,95.71199809999962,002,P005,2025_Jan_18_1616,CategoryLocalizer,2021.2.3,59.96041413462419,
56.8,57.0,5,0.0,Stimuli\Blank.png,0,0,0,90,90,90,,,,,,,,,,,,,56.800718500002404,0.0007185000024065857,None,,96.51272329999847,96.51272329999847,96.51272329999847,96.51272329999847,96.51272329999847,96.51272329999847,96.51272329999847,96.51272329999847,002,P005,2025_Jan_18_1616,CategoryLocalizer,2021.2.3,59.96041413462419,
57.0,57.8,3,0.75,Stimuli\ImageFiles-Set2\Faces\Face_00032.png,0,0,0,91,91,91,,,,,,,,,,,,,57.01545240000269,0.015452400002686772,4,0.7307154000009177,96.71287609999854,96.71287609999854,96.71287609999854,96.71287609999854,96.71287609999854,96.71287609999854,96.71287609999854,96.71287609999854,002,P005,2025_Jan_18_1616,CategoryLocalizer,2021.2.3,59.96041413462419,
57.8,58.0,5,0.0,Stimuli\Blank.png,0,0,0,92,92,92,,,,,,,,,,,,,57.80119800000102,0.0011980000010254344,5,0.1649522000006982,97.513603899999,97.513603899999,97.513603899999,97.513603899999,97.513603899999,97.513603899999,97.513603899999,97.513603899999,002,P005,2025_Jan_18_1616,CategoryLocalizer,2021.2.3,59.96041413462419,
58.0,58.8,3,0.75,Stimuli\ImageFiles-Set2\Faces\Face_00082.png,0,0,0,93,93,93,,,,,,,,,,,,,58.01632400000017,0.01632400000016787,None,,97.71375629999966,97.71375629999966,97.71375629999966,97.71375629999966,97.71375629999966,97.71375629999966,97.71375629999966,97.71375629999966,002,P005,2025_Jan_18_1616,CategoryLocalizer,2021.2.3,59.96041413462419,
58.8,59.0,5,0.0,Stimuli\Blank.png,0,0,0,94,94,94,,,,,,,,,,,,,58.800714800003334,0.0007148000033367907,None,,98.49779480000143,98.49779480000143,98.49779480000143,98.49779480000143,98.49779480000143,98.49779480000143,98.49779480000143,98.49779480000143,002,P005,2025_Jan_18_1616,CategoryLocalizer,2021.2.3,59.96041413462419,
59.0,59.8,3,0.75,Stimuli\ImageFiles-Set2\Faces\Face_00104.png,0,0,0,95,95,95,,,,,,,,,,,,,59.000679600001604,0.0006796000016038306,None,,98.6979614999982,98.6979614999982,98.6979614999982,98.6979614999982,98.6979614999982,98.6979614999982,98.6979614999982,98.6979614999982,002,P005,2025_Jan_18_1616,CategoryLocalizer,2021.2.3,59.96041413462419,
59.8,60.0,5,0.0,Stimuli\Blank.png,0,0,0,96,96,96,,,,,,,,,,,,,59.801543700003094,0.0015437000030971149,None,,99.49866720000136,99.49866720000136,99.49866720000136,99.49866720000136,99.49866720000136,99.49866720000136,99.49866720000136,99.49866720000136,002,P005,2025_Jan_18_1616,CategoryLocalizer,2021.2.3,59.96041413462419,
60.0,60.8,4,0.75,Stimuli\ImageFiles-Set2\Scenes\Scenes_117.png,0,0,0,97,97,97,,,,,,,,,,,,,60.00194470000133,0.0019447000013315119,None,,99.69890769999984,99.69890769999984,99.69890769999984,99.69890769999984,99.69890769999984,99.69890769999984,99.69890769999984,99.69890769999984,002,P005,2025_Jan_18_1616,CategoryLocalizer,2021.2.3,59.96041413462419,
60.8,61.0,5,0.0,Stimuli\Blank.png,0,0,0,98,98,98,,,,,,,,,,,,,60.80196970000179,0.0019697000017941946,None,,100.49954369999978,100.49954369999978,100.49954369999978,100.49954369999978,100.49954369999978,100.49954369999978,100.49954369999978,100.49954369999978,002,P005,2025_Jan_18_1616,CategoryLocalizer,2021.2.3,59.96041413462419,
61.0,61.8,4,0.75,Stimuli\ImageFiles-Set2\Scenes\Scenes_120.png,0,0,0,99,99,99,,,,,,,,,,,,,61.00261110000065,0.002611100000649458,None,,100.69972330000019,100.69972330000019,100.69972330000019,100.69972330000019,100.69972330000019,100.69972330000019,100.69972330000019,100.69972330000019,002,P005,2025_Jan_18_1616,CategoryLocalizer,2021.2.3,59.96041413462419,
61.8,62.0,5,0.0,Stimuli\Blank.png,0,0,0,100,100,100,,,,,,,,,,,,,61.803405500002555,0.00340550000255746,None,,101.50043340000047,101.50043340000047,101.50043340000047,101.50043340000047,101.50043340000047,101.50043340000047,101.50043340000047,101.50043340000047,002,P005,2025_Jan_18_1616,CategoryLocalizer,2021.2.3,59.96041413462419,
62.0,62.8,4,0.75,Stimuli\ImageFiles-Set2\Scenes\Scenes_078.png,0,0,0,101,101,101,,,,,,,,,,,,,62.00570250000237,0.00570250000237138,None,,101.71728649999932,101.71728649999932,101.71728649999932,101.71728649999932,101.71728649999932,101.71728649999932,101.71728649999932,101.71728649999932,002,P005,2025_Jan_18_1616,CategoryLocalizer,2021.2.3,59.96041413462419,
62.8,63.0,5,0.0,Stimuli\Blank.png,0,0,0,102,102,102,,,,,,,,,,,,,62.82168690000253,0.02168690000253548,None,,102.5180016000013,102.5180016000013,102.5180016000013,102.5180016000013,102.5180016000013,102.5180016000013,102.5180016000013,102.5180016000013,002,P005,2025_Jan_18_1616,CategoryLocalizer,2021.2.3,59.96041413462419,
63.0,63.8,4,0.75,Stimuli\ImageFiles-Set2\Scenes\Scenes_088.png,0,0,0,103,103,103,,,,,,,,,,,,,63.00520090000282,0.005200900002819253,None,,102.7181813999996,102.7181813999996,102.7181813999996,102.7181813999996,102.7181813999996,102.7181813999996,102.7181813999996,102.7181813999996,002,P005,2025_Jan_18_1616,CategoryLocalizer,2021.2.3,59.96041413462419,
63.8,64.0,5,0.0,Stimuli\Blank.png,0,0,0,104,104,104,,,,,,,,,,,,,63.82179000000178,0.021790000001786325,None,,103.51886400000149,103.51886400000149,103.51886400000149,103.51886400000149,103.51886400000149,103.51886400000149,103.51886400000149,103.51886400000149,002,P005,2025_Jan_18_1616,CategoryLocalizer,2021.2.3,59.96041413462419,
64.0,64.8,4,0.75,Stimuli\ImageFiles-Set2\Scenes\Scenes_114.png,0,0,0,105,105,105,,,,,,,,,,,,,64.00624550000066,0.006245500000659376,None,,103.71907179999835,103.71907179999835,103.71907179999835,103.71907179999835,103.71907179999835,103.71907179999835,103.71907179999835,103.71907179999835,002,P005,2025_Jan_18_1616,CategoryLocalizer,2021.2.3,59.96041413462419,
64.8,65.0,5,0.0,Stimuli\Blank.png,0,0,0,106,106,106,,,,,,,,,,,,,64.82211220000318,0.022112200003178373,None,,104.51974830000108,104.51974830000108,104.51974830000108,104.51974830000108,104.51974830000108,104.51974830000108,104.51974830000108,104.51974830000108,002,P005,2025_Jan_18_1616,CategoryLocalizer,2021.2.3,59.96041413462419,
65.0,65.8,4,0.75,Stimuli\ImageFiles-Set2\Scenes\Scenes_111.png,0,0,0,107,107,107,,,,,,,,,,,,,65.00552489999973,0.005524899999727495,None,,104.70324339999934,104.70324339999934,104.70324339999934,104.70324339999934,104.70324339999934,104.70324339999934,104.70324339999934,104.70324339999934,002,P005,2025_Jan_18_1616,CategoryLocalizer,2021.2.3,59.96041413462419,
65.8,66.0,5,0.0,Stimuli\Blank.png,0,0,0,108,108,108,,,,,,,,,,,,,65.80638340000223,0.006383400002235362,None,,105.50394909999886,105.50394909999886,105.50394909999886,105.50394909999886,105.50394909999886,105.50394909999886,105.50394909999886,105.50394909999886,002,P005,2025_Jan_18_1616,CategoryLocalizer,2021.2.3,59.96041413462419,
66.0,66.8,4,0.75,Stimuli\ImageFiles-Set2\Scenes\Scenes_111.png,1,1,0,109,109,109,,,,,,,,,,,,,66.00698019999982,0.00698019999981625,4,0.3557770999977947,105.72080819999974,105.72080819999974,105.72080819999974,105.72080819999974,105.72080819999974,105.72080819999974,105.72080819999974,105.72080819999974,002,P005,2025_Jan_18_1616,CategoryLocalizer,2021.2.3,59.96041413462419,
66.8,67.0,5,0.0,Stimuli\Blank.png,0,0,0,110,110,110,,,,,,,,,,,,,66.82658730000185,0.026587300001850167,None,,106.53821940000125,106.53821940000125,106.53821940000125,106.53821940000125,106.53821940000125,106.53821940000125,106.53821940000125,106.53821940000125,002,P005,2025_Jan_18_1616,CategoryLocalizer,2021.2.3,59.96041413462419,
67.0,67.8,4,0.75,Stimuli\ImageFiles-Set2\Scenes\Scenes_081.png,0,0,0,111,111,111,,,,,,,,,,,,,67.02609380000285,0.02609380000285455,None,,106.73837730000014,106.73837730000014,106.73837730000014,106.73837730000014,106.73837730000014,106.73837730000014,106.73837730000014,106.73837730000014,002,P005,2025_Jan_18_1616,CategoryLocalizer,2021.2.3,59.96041413462419,
67.8,68.0,5,0.0,Stimuli\Blank.png,0,0,0,112,112,112,,,,,,,,,,,,,67.82523300000321,0.025233000003211714,None,,107.5224601000009,107.5224601000009,107.5224601000009,107.5224601000009,107.5224601000009,107.5224601000009,107.5224601000009,107.5224601000009,002,P005,2025_Jan_18_1616,CategoryLocalizer,2021.2.3,59.96041413462419,
68.0,68.8,4,0.75,Stimuli\ImageFiles-Set2\Scenes\Scenes_107.png,0,0,0,113,113,113,,,,,,,,,,,,,68.00858020000305,0.008580200003052596,None,,107.70589059999838,107.70589059999838,107.70589059999838,107.70589059999838,107.70589059999838,107.70589059999838,107.70589059999838,107.70589059999838,002,P005,2025_Jan_18_1616,CategoryLocalizer,2021.2.3,59.96041413462419,
68.8,69.0,5,0.0,Stimuli\Blank.png,0,0,0,114,114,114,,,,,,,,,,,,,68.80949710000277,0.009497100002775483,None,,108.50664160000088,108.50664160000088,108.50664160000088,108.50664160000088,108.50664160000088,108.50664160000088,108.50664160000088,108.50664160000088,002,P005,2025_Jan_18_1616,CategoryLocalizer,2021.2.3,59.96041413462419,
69.0,69.8,4,0.75,Stimuli\ImageFiles-Set2\Scenes\Scenes_079.png,0,0,0,115,115,115,,,,,,,,,,,,,69.01100580000275,0.01100580000274931,None,,108.72345530000166,108.72345530000166,108.72345530000166,108.72345530000166,108.72345530000166,108.72345530000166,108.72345530000166,108.72345530000166,002,P005,2025_Jan_18_1616,CategoryLocalizer,2021.2.3,59.96041413462419,
69.8,70.0,5,0.0,Stimuli\Blank.png,0,0,0,116,116,116,,,,,,,,,,,,,69.82645790000242,0.02645790000242698,None,,109.52415019999899,109.52415019999899,109.52415019999899,109.52415019999899,109.52415019999899,109.52415019999899,109.52415019999899,109.52415019999899,002,P005,2025_Jan_18_1616,CategoryLocalizer,2021.2.3,59.96041413462419,
70.0,70.8,4,0.75,Stimuli\ImageFiles-Set2\Scenes\Scenes_106.png,0,0,0,117,117,117,,,,,,,,,,,,,70.01008490000095,0.010084900000947528,None,,109.70770189999894,109.70770189999894,109.70770189999894,109.70770189999894,109.70770189999894,109.70770189999894,109.70770189999894,109.70770189999894,002,P005,2025_Jan_18_1616,CategoryLocalizer,2021.2.3,59.96041413462419,
70.8,71.0,5,0.0,Stimuli\Blank.png,0,0,0,118,118,118,,,,,,,,,,,,,70.81145870000182,0.011458700001824695,None,,110.50917169999957,110.50917169999957,110.50917169999957,110.50917169999957,110.50917169999957,110.50917169999957,110.50917169999957,110.50917169999957,002,P005,2025_Jan_18_1616,CategoryLocalizer,2021.2.3,59.96041413462419,
71.0,71.8,4,0.75,Stimuli\ImageFiles-Set2\Scenes\Scenes_087.png,0,0,0,119,119,119,,,,,,,,,,,,,71.01180160000149,0.011801600001490442,None,,110.72528220000095,110.72528220000095,110.72528220000095,110.72528220000095,110.72528220000095,110.72528220000095,110.72528220000095,110.72528220000095,002,P005,2025_Jan_18_1616,CategoryLocalizer,2021.2.3,59.96041413462419,
71.8,72.0,5,0.0,Stimuli\Blank.png,0,0,0,120,120,120,,,,,,,,,,,,,71.83085240000219,0.03085240000218903,5,0.13594690000172704,111.54262319999907,111.54262319999907,111.54262319999907,111.54262319999907,111.54262319999907,111.54262319999907,111.54262319999907,111.54262319999907,002,P005,2025_Jan_18_1616,CategoryLocalizer,2021.2.3,59.96041413462419,
72.0,72.8,4,0.75,Stimuli\ImageFiles-Set2\Scenes\Scenes_101.png,0,0,0,121,121,121,,,,,,,,,,,,,72.02875000000131,0.028750000001309672,None,,111.74328809999861,111.74328809999861,111.74328809999861,111.74328809999861,111.74328809999861,111.74328809999861,111.74328809999861,111.74328809999861,002,P005,2025_Jan_18_1616,CategoryLocalizer,2021.2.3,59.96041413462419,
72.8,73.0,5,0.0,Stimuli\Blank.png,0,0,0,122,122,122,,,,,,,,,,,,,72.82960100000128,0.02960100000127852,None,,112.52679319999879,112.52679319999879,112.52679319999879,112.52679319999879,112.52679319999879,112.52679319999879,112.52679319999879,112.52679319999879,002,P005,2025_Jan_18_1616,CategoryLocalizer,2021.2.3,59.96041413462419,
73.0,73.8,4,0.75,Stimuli\ImageFiles-Set2\Scenes\Scenes_105.png,0,0,0,123,123,123,,,,,,,,,,,,,73.01273589999983,0.012735899999825051,None,,112.71029550000094,112.71029550000094,112.71029550000094,112.71029550000094,112.71029550000094,112.71029550000094,112.71029550000094,112.71029550000094,002,P005,2025_Jan_18_1616,CategoryLocalizer,2021.2.3,59.96041413462419,
73.8,74.0,5,0.0,Stimuli\Blank.png,0,0,0,124,124,124,,,,,,,,,,,,,73.81545259999984,0.015452599999846939,5,0.1509347000028356,113.52768559999822,113.52768559999822,113.52768559999822,113.52768559999822,113.52768559999822,113.52768559999822,113.52768559999822,113.52768559999822,002,P005,2025_Jan_18_1616,CategoryLocalizer,2021.2.3,59.96041413462419,
74.0,74.8,4,0.75,Stimuli\ImageFiles-Set2\Scenes\Scenes_070.png,0,0,0,125,125,125,,,,,,,,,,,,,74.0301913000003,0.030191300000296906,None,,113.72785749999821,113.72785749999821,113.72785749999821,113.72785749999821,113.72785749999821,113.72785749999821,113.72785749999821,113.72785749999821,002,P005,2025_Jan_18_1616,CategoryLocalizer,2021.2.3,59.96041413462419,
74.8,75.0,5,0.0,Stimuli\Blank.png,0,0,0,126,126,126,,,,,,,,,,,,,74.81675580000228,0.01675580000228649,None,,114.5285600999996,114.5285600999996,114.5285600999996,114.5285600999996,114.5285600999996,114.5285600999996,114.5285600999996,114.5285600999996,002,P005,2025_Jan_18_1616,CategoryLocalizer,2021.2.3,59.96041413462419,
75.0,75.8,4,0.75,Stimuli\ImageFiles-Set2\Scenes\Scenes_102.png,0,0,0,127,127,127,,,,,,,,,,,,,75.01664770000207,0.016647700002067722,None,,114.72873890000119,114.72873890000119,114.72873890000119,114.72873890000119,114.72873890000119,114.72873890000119,114.72873890000119,114.72873890000119,002,P005,2025_Jan_18_1616,CategoryLocalizer,2021.2.3,59.96041413462419,
75.8,76.0,5,0.0,Stimuli\Blank.png,0,0,0,128,128,128,,,,,,,,,,,,,75.81536640000195,0.015366400001951774,5,0.16586789999928442,115.5127590000011,115.5127590000011,115.5127590000011,115.5127590000011,115.5127590000011,115.5127590000011,115.5127590000011,115.5127590000011,002,P005,2025_Jan_18_1616,CategoryLocalizer,2021.2.3,59.96041413462419,
76.0,88.0,0,0.0,Stimuli\Blank.png,0,0,0,129,129,129,,,,,,,,,,,,,76.01589830000012,0.01589830000011716,5,9.965555399998266,115.71291740000015,115.71291740000015,115.71291740000015,115.71291740000015,115.71291740000015,115.71291740000015,115.71291740000015,115.71291740000015,002,P005,2025_Jan_18_1616,CategoryLocalizer,2021.2.3,59.96041413462419,
88.0,88.8,3,0.75,Stimuli\ImageFiles-Set2\Faces\Face_00100.png,0,0,0,130,130,130,,,,,,,,,,,,,88.00924440000017,0.009244400000170572,None,,127.70744090000153,127.70744090000153,127.70744090000153,127.70744090000153,127.70744090000153,127.70744090000153,127.70744090000153,127.70744090000153,002,P005,2025_Jan_18_1616,CategoryLocalizer,2021.2.3,59.96041413462419,
88.8,89.0,5,0.0,Stimuli\Blank.png,0,0,0,131,131,131,,,,,,,,,,,,,88.81009330000234,0.010093300002338879,None,,128.50754589999997,128.50754589999997,128.50754589999997,128.50754589999997,128.50754589999997,128.50754589999997,128.50754589999997,128.50754589999997,002,P005,2025_Jan_18_1616,CategoryLocalizer,2021.2.3,59.96041413462419,
89.0,89.8,3,0.75,Stimuli\ImageFiles-Set2\Faces\Face_00060.png,0,0,0,132,132,132,,,,,,,,,,,,,89.01125230000252,0.011252300002524862,None,,128.72457360000044,128.72457360000044,128.72457360000044,128.72457360000044,128.72457360000044,128.72457360000044,128.72457360000044,128.72457360000044,002,P005,2025_Jan_18_1616,CategoryLocalizer,2021.2.3,59.96041413462419,
89.8,90.0,5,0.0,Stimuli\Blank.png,0,0,0,133,133,133,,,,,,,,,,,,,89.82767180000155,0.027671800001556335,None,,129.52509669999927,129.52509669999927,129.52509669999927,129.52509669999927,129.52509669999927,129.52509669999927,129.52509669999927,129.52509669999927,002,P005,2025_Jan_18_1616,CategoryLocalizer,2021.2.3,59.96041413462419,
90.0,90.8,3,0.75,Stimuli\ImageFiles-Set2\Faces\Face_00094.png,0,0,0,134,134,134,,,,,,,,,,,,,90.01103030000013,0.0110303000001295,None,,129.70857199999955,129.70857199999955,129.70857199999955,129.70857199999955,129.70857199999955,129.70857199999955,129.70857199999955,129.70857199999955,002,P005,2025_Jan_18_1616,CategoryLocalizer,2021.2.3,59.96041413462419,
90.8,91.0,5,0.0,Stimuli\Blank.png,0,0,0,135,135,135,,,,,,,,,,,,,90.81190419999984,0.011904199999847265,None,,130.50935509999908,130.50935509999908,130.50935509999908,130.50935509999908,130.50935509999908,130.50935509999908,130.50935509999908,130.50935509999908,002,P005,2025_Jan_18_1616,CategoryLocalizer,2021.2.3,59.96041413462419,
91.0,91.8,3,0.75,Stimuli\ImageFiles-Set2\Faces\Face_00068.png,0,0,0,136,136,136,,,,,,,,,,,,,91.01268040000286,0.01268040000286419,None,,130.70947330000126,130.70947330000126,130.70947330000126,130.70947330000126,130.70947330000126,130.70947330000126,130.70947330000126,130.70947330000126,002,P005,2025_Jan_18_1616,CategoryLocalizer,2021.2.3,59.96041413462419,
91.8,92.0,5,0.0,Stimuli\Blank.png,0,0,0,137,137,137,,,,,,,,,,,,,91.81244070000321,0.012440700003210736,None,,131.51015410000036,131.51015410000036,131.51015410000036,131.51015410000036,131.51015410000036,131.51015410000036,131.51015410000036,131.51015410000036,002,P005,2025_Jan_18_1616,CategoryLocalizer,2021.2.3,59.96041413462419,
92.0,92.8,3,0.75,Stimuli\ImageFiles-Set2\Faces\Face_00054.png,0,0,0,138,138,138,,,,,,,,,,,,,92.01300200000333,0.01300200000332552,None,,131.7103476000011,131.7103476000011,131.7103476000011,131.7103476000011,131.7103476000011,131.7103476000011,131.7103476000011,131.7103476000011,002,P005,2025_Jan_18_1616,CategoryLocalizer,2021.2.3,59.96041413462419,
92.8,93.0,5,0.0,Stimuli\Blank.png,0,0,0,139,139,139,,,,,,,,,,,,,92.81339180000214,0.013391800002139576,None,,132.51105530000132,132.51105530000132,132.51105530000132,132.51105530000132,132.51105530000132,132.51105530000132,132.51105530000132,132.51105530000132,002,P005,2025_Jan_18_1616,CategoryLocalizer,2021.2.3,59.96041413462419,
93.0,93.8,3,0.75,Stimuli\ImageFiles-Set2\Faces\Face_00098.png,0,0,0,140,140,140,,,,,,,,,,,,,93.01554990000295,0.0155499000029522,None,,132.7279383999994,132.7279383999994,132.7279383999994,132.7279383999994,132.7279383999994,132.7279383999994,132.7279383999994,132.7279383999994,002,P005,2025_Jan_18_1616,CategoryLocalizer,2021.2.3,59.96041413462419,
93.8,94.0,5,0.0,Stimuli\Blank.png,0,0,0,141,141,141,,,,,,,,,,,,,93.81530270000076,0.015302700000759728,5,0.1664584999998624,133.51194499999838,133.51194499999838,133.51194499999838,133.51194499999838,133.51194499999838,133.51194499999838,133.51194499999838,133.51194499999838,002,P005,2025_Jan_18_1616,CategoryLocalizer,2021.2.3,59.96041413462419,
94.0,94.8,3,0.75,Stimuli\ImageFiles-Set2\Faces\Face_00052.png,0,0,0,142,142,142,,,,,,,,,,,,,94.01619810000193,0.01619810000192956,None,,133.72881060000145,133.72881060000145,133.72881060000145,133.72881060000145,133.72881060000145,133.72881060000145,133.72881060000145,133.72881060000145,002,P005,2025_Jan_18_1616,CategoryLocalizer,2021.2.3,59.96041413462419,
94.8,95.0,5,0.0,Stimuli\Blank.png,0,0,0,143,143,143,,,,,,,,,,,,,94.81547790000332,0.015477900003318723,None,,134.51282300000094,134.51282300000094,134.51282300000094,134.51282300000094,134.51282300000094,134.51282300000094,134.51282300000094,134.51282300000094,002,P005,2025_Jan_18_1616,CategoryLocalizer,2021.2.3,59.96041413462419,
95.0,95.8,3,0.75,Stimuli\ImageFiles-Set2\Faces\Face_00011.png,0,0,0,144,144,144,,,,,,,,,,,,,95.00059060000058,0.0005906000005779788,None,,134.71301400000084,134.71301400000084,134.71301400000084,134.71301400000084,134.71301400000084,134.71301400000084,134.71301400000084,134.71301400000084,002,P005,2025_Jan_18_1616,CategoryLocalizer,2021.2.3,59.96041413462419,
95.8,96.0,5,0.0,Stimuli\Blank.png,0,0,0,145,145,145,,,,,,,,,,,,,95.81716060000326,0.01716060000326536,None,,135.51370260000112,135.51370260000112,135.51370260000112,135.51370260000112,135.51370260000112,135.51370260000112,135.51370260000112,135.51370260000112,002,P005,2025_Jan_18_1616,CategoryLocalizer,2021.2.3,59.96041413462419,
96.0,96.8,3,0.75,Stimuli\ImageFiles-Set2\Faces\Face_00011.png,1,1,0,146,146,146,,,,,,,,,,,,,96.00064970000312,0.0006497000031231437,4,0.47059530000115046,135.71385609999925,135.71385609999925,135.71385609999925,135.71385609999925,135.71385609999925,135.71385609999925,135.71385609999925,135.71385609999925,002,P005,2025_Jan_18_1616,CategoryLocalizer,2021.2.3,59.96041413462419,
96.8,97.0,5,0.0,Stimuli\Blank.png,0,0,0,147,147,147,,,,,,,,,,,,,96.81708250000156,0.01708250000156397,None,,136.51458400000047,136.51458400000047,136.51458400000047,136.51458400000047,136.51458400000047,136.51458400000047,136.51458400000047,136.51458400000047,002,P005,2025_Jan_18_1616,CategoryLocalizer,2021.2.3,59.96041413462419,
97.0,97.8,3,0.75,Stimuli\ImageFiles-Set2\Faces\Face_00086.png,0,0,0,148,148,148,,,,,,,,,,,,,97.00044100000014,0.00044100000013713725,None,,136.69805049999923,136.69805049999923,136.69805049999923,136.69805049999923,136.69805049999923,136.69805049999923,136.69805049999923,136.69805049999923,002,P005,2025_Jan_18_1616,CategoryLocalizer,2021.2.3,59.96041413462419,
97.8,98.0,5,0.0,Stimuli\Blank.png,0,0,0,149,149,149,,,,,,,,,,,,,97.80177510000067,0.0017751000006711593,None,,137.49878220000028,137.49878220000028,137.49878220000028,137.49878220000028,137.49878220000028,137.49878220000028,137.49878220000028,137.49878220000028,002,P005,2025_Jan_18_1616,CategoryLocalizer,2021.2.3,59.96041413462419,
98.0,98.8,3,0.75,Stimuli\ImageFiles-Set2\Faces\Face_00092.png,0,0,0,150,150,150,,,,,,,,,,,,,98.00209040000118,0.0020904000011796597,None,,137.69895090000136,137.69895090000136,137.69895090000136,137.69895090000136,137.69895090000136,137.69895090000136,137.69895090000136,137.69895090000136,002,P005,2025_Jan_18_1616,CategoryLocalizer,2021.2.3,59.96041413462419,
98.8,99.0,5,0.0,Stimuli\Blank.png,0,0,0,151,151,151,,,,,,,,,,,,,98.80291950000174,0.002919500001738129,None,,138.49965750000047,138.49965750000047,138.49965750000047,138.49965750000047,138.49965750000047,138.49965750000047,138.49965750000047,138.49965750000047,002,P005,2025_Jan_18_1616,CategoryLocalizer,2021.2.3,59.96041413462419,
99.0,99.8,3,0.75,Stimuli\ImageFiles-Set2\Faces\Face_00010.png,0,0,0,152,152,152,,,,,,,,,,,,,99.00226509999993,0.002265099999931408,None,,138.69983739999952,138.69983739999952,138.69983739999952,138.69983739999952,138.69983739999952,138.69983739999952,138.69983739999952,138.69983739999952,002,P005,2025_Jan_18_1616,CategoryLocalizer,2021.2.3,59.96041413462419,
99.8,100.0,5,0.0,Stimuli\Blank.png,0,0,0,153,153,153,,,,,,,,,,,,,99.80312400000184,0.0031240000018470937,None,,139.50053760000083,139.50053760000083,139.50053760000083,139.50053760000083,139.50053760000083,139.50053760000083,139.50053760000083,139.50053760000083,002,P005,2025_Jan_18_1616,CategoryLocalizer,2021.2.3,59.96041413462419,
100.0,100.8,3,0.75,Stimuli\ImageFiles-Set2\Faces\Face_00004.png,0,0,0,154,154,154,,,,,,,,,,,,,100.00543760000073,0.0054376000007323455,None,,139.7174043999985,139.7174043999985,139.7174043999985,139.7174043999985,139.7174043999985,139.7174043999985,139.7174043999985,139.7174043999985,002,P005,2025_Jan_18_1616,CategoryLocalizer,2021.2.3,59.96041413462419,
100.8,101.0,5,0.0,Stimuli\Blank.png,0,0,0,155,155,155,,,,,,,,,,,,,100.82040469999993,0.02040469999992922,None,,140.51810869999827,140.51810869999827,140.51810869999827,140.51810869999827,140.51810869999827,140.51810869999827,140.51810869999827,140.51810869999827,002,P005,2025_Jan_18_1616,CategoryLocalizer,2021.2.3,59.96041413462419,
101.0,101.8,3,0.75,Stimuli\ImageFiles-Set2\Faces\Face_00108.png,0,0,0,156,156,156,,,,,,,,,,,,,101.00564339999983,0.005643399999826215,None,,140.71825750000062,140.71825750000062,140.71825750000062,140.71825750000062,140.71825750000062,140.71825750000062,140.71825750000062,140.71825750000062,002,P005,2025_Jan_18_1616,CategoryLocalizer,2021.2.3,59.96041413462419,
101.8,102.0,5,0.0,Stimuli\Blank.png,0,0,0,157,157,157,,,,,,,,,,,,,101.82182330000069,0.021823300000690438,None,,141.51896520000082,141.51896520000082,141.51896520000082,141.51896520000082,141.51896520000082,141.51896520000082,141.51896520000082,141.51896520000082,002,P005,2025_Jan_18_1616,CategoryLocalizer,2021.2.3,59.96041413462419,
102.0,102.8,3,0.75,Stimuli\ImageFiles-Set2\Faces\Face_00066.png,0,0,0,158,158,158,,,,,,,,,,,,,102.00560949999999,0.005609499999991385,None,,141.7191614000003,141.7191614000003,141.7191614000003,141.7191614000003,141.7191614000003,141.7191614000003,141.7191614000003,141.7191614000003,002,P005,2025_Jan_18_1616,CategoryLocalizer,2021.2.3,59.96041413462419,
102.8,103.0,5,0.0,Stimuli\Blank.png,0,0,0,159,159,159,,,,,,,,,,,,,102.82298360000277,0.02298360000277455,None,,142.51987029999873,142.51987029999873,142.51987029999873,142.51987029999873,142.51987029999873,142.51987029999873,142.51987029999873,142.51987029999873,002,P005,2025_Jan_18_1616,CategoryLocalizer,2021.2.3,59.96041413462419,
103.0,103.8,3,0.75,Stimuli\ImageFiles-Set2\Faces\Face_00015.png,0,0,0,160,160,160,,,,,,,,,,,,,103.00641100000212,0.006411000002117362,None,,142.72004010000092,142.72004010000092,142.72004010000092,142.72004010000092,142.72004010000092,142.72004010000092,142.72004010000092,142.72004010000092,002,P005,2025_Jan_18_1616,CategoryLocalizer,2021.2.3,59.96041413462419,
103.8,104.0,5,0.0,Stimuli\Blank.png,0,0,0,161,161,161,,,,,,,,,,,,,103.82549780000045,0.02549780000045132,5,0.14098530000046594,143.53743050000048,143.53743050000048,143.53743050000048,143.53743050000048,143.53743050000048,143.53743050000048,143.53743050000048,143.53743050000048,002,P005,2025_Jan_18_1616,CategoryLocalizer,2021.2.3,59.96041413462419,
104.0,104.8,1,0.75,Stimuli\ImageFiles-Set2\Objects\Object_Refrigerator_00001.png,0,0,0,162,162,162,,,,,,,,,,,,,104.02426400000331,0.024264000003313413,None,,143.72092319999865,143.72092319999865,143.72092319999865,143.72092319999865,143.72092319999865,143.72092319999865,143.72092319999865,143.72092319999865,002,P005,2025_Jan_18_1616,CategoryLocalizer,2021.2.3,59.96041413462419,
104.8,105.0,5,0.0,Stimuli\Blank.png,0,0,0,163,163,163,,,,,,,,,,,,,104.80745590000151,0.0074559000015170795,None,,144.504939800001,144.504939800001,144.504939800001,144.504939800001,144.504939800001,144.504939800001,144.504939800001,144.504939800001,002,P005,2025_Jan_18_1616,CategoryLocalizer,2021.2.3,59.96041413462419,
105.0,105.8,1,0.75,Stimuli\ImageFiles-Set2\Objects\Object_Truck_00001.png,0,0,0,164,164,164,,,,,,,,,,,,,105.00848570000016,0.008485700000164798,None,,144.70513109999956,144.70513109999956,144.70513109999956,144.70513109999956,144.70513109999956,144.70513109999956,144.70513109999956,144.70513109999956,002,P005,2025_Jan_18_1616,CategoryLocalizer,2021.2.3,59.96041413462419,
105.8,106.0,5,0.0,Stimuli\Blank.png,0,0,0,165,165,165,,,,,,,,,,,,,105.8107682000009,0.0107682000008964,5,0.15584300000045914,145.52250679999997,145.52250679999997,145.52250679999997,145.52250679999997,145.52250679999997,145.52250679999997,145.52250679999997,145.52250679999997,002,P005,2025_Jan_18_1616,CategoryLocalizer,2021.2.3,59.96041413462419,
106.0,106.8,1,0.75,Stimuli\ImageFiles-Set2\Objects\Object_Shoe_00001.png,0,0,0,166,166,166,,,,,,,,,,,,,106.02552780000042,0.02552780000041821,None,,145.72268339999937,145.72268339999937,145.72268339999937,145.72268339999937,145.72268339999937,145.72268339999937,145.72268339999937,145.72268339999937,002,P005,2025_Jan_18_1616,CategoryLocalizer,2021.2.3,59.96041413462419,
106.8,107.0,5,0.0,Stimuli\Blank.png,0,0,0,167,167,167,,,,,,,,,,,,,106.80931260000216,0.009312600002161275,None,,146.50676039999962,146.50676039999962,146.50676039999962,146.50676039999962,146.50676039999962,146.50676039999962,146.50676039999962,146.50676039999962,002,P005,2025_Jan_18_1616,CategoryLocalizer,2021.2.3,59.96041413462419,
107.0,107.8,1,0.75,Stimuli\ImageFiles-Set2\Objects\Object_Bolt_00001.png,0,0,0,168,168,168,,,,,,,,,,,,,107.01154550000138,0.01154550000137533,None,,146.72356560000117,146.72356560000117,146.72356560000117,146.72356560000117,146.72356560000117,146.72356560000117,146.72356560000117,146.72356560000117,002,P005,2025_Jan_18_1616,CategoryLocalizer,2021.2.3,59.96041413462419,
107.8,108.0,5,0.0,Stimuli\Blank.png,0,0,0,169,169,169,,,,,,,,,,,,,107.82669060000262,0.02669060000262391,None,,147.52427299999908,147.52427299999908,147.52427299999908,147.52427299999908,147.52427299999908,147.52427299999908,147.52427299999908,147.52427299999908,002,P005,2025_Jan_18_1616,CategoryLocalizer,2021.2.3,59.96041413462419,
108.0,108.8,1,0.75,Stimuli\ImageFiles-Set2\Objects\Object_Toast_00001.png,0,0,0,170,170,170,,,,,,,,,,,,,108.01077460000306,0.010774600003060186,None,,147.72446069999933,147.72446069999933,147.72446069999933,147.72446069999933,147.72446069999933,147.72446069999933,147.72446069999933,147.72446069999933,002,P005,2025_Jan_18_1616,CategoryLocalizer,2021.2.3,59.96041413462419,
108.8,109.0,5,0.0,Stimuli\Blank.png,0,0,0,171,171,171,,,,,,,,,,,,,108.82766690000062,0.027666900000625105,None,,148.5251516999997,148.5251516999997,148.5251516999997,148.5251516999997,148.5251516999997,148.5251516999997,148.5251516999997,148.5251516999997,002,P005,2025_Jan_18_1616,CategoryLocalizer,2021.2.3,59.96041413462419,
109.0,109.8,1,0.75,Stimuli\ImageFiles-Set2\Objects\Object_Toast_00001.png,1,1,0,172,172,172,,,,,,,,,,,,,109.01166290000037,0.011662900000374066,4,0.35809879999942495,148.72532910000155,148.72532910000155,148.72532910000155,148.72532910000155,148.72532910000155,148.72532910000155,148.72532910000155,148.72532910000155,002,P005,2025_Jan_18_1616,CategoryLocalizer,2021.2.3,59.96041413462419,
109.8,110.0,5,0.0,Stimuli\Blank.png,0,0,0,173,173,173,,,,,,,,,,,,,109.83090240000092,0.030902400000925923,5,0.13571860000229208,149.54272029999993,149.54272029999993,149.54272029999993,149.54272029999993,149.54272029999993,149.54272029999993,149.54272029999993,149.54272029999993,002,P005,2025_Jan_18_1616,CategoryLocalizer,2021.2.3,59.96041413462419,
110.0,110.8,1,0.75,Stimuli\ImageFiles-Set2\Objects\Object_Couch_00001.png,0,0,0,174,174,174,,,,,,,,,,,,,110.02850620000027,0.02850620000026538,None,,149.72620200000165,149.72620200000165,149.72620200000165,149.72620200000165,149.72620200000165,149.72620200000165,149.72620200000165,149.72620200000165,002,P005,2025_Jan_18_1616,CategoryLocalizer,2021.2.3,59.96041413462419,
110.8,111.0,5,0.0,Stimuli\Blank.png,0,0,0,175,175,175,,,,,,,,,,,,,110.81339000000298,0.013390000002985403,None,,150.51023089999944,150.51023089999944,150.51023089999944,150.51023089999944,150.51023089999944,150.51023089999944,150.51023089999944,150.51023089999944,002,P005,2025_Jan_18_1616,CategoryLocalizer,2021.2.3,59.96041413462419,
111.0,111.8,1,0.75,Stimuli\ImageFiles-Set2\Objects\Object_Lock_00001.png,0,0,0,176,176,176,,,,,,,,,,,,,111.01345770000262,0.013457700002618367,None,,150.7270815999982,150.7270815999982,150.7270815999982,150.7270815999982,150.7270815999982,150.7270815999982,150.7270815999982,150.7270815999982,002,P005,2025_Jan_18_1616,CategoryLocalizer,2021.2.3,59.96041413462419,
111.8,112.0,5,0.0,Stimuli\Blank.png,0,0,0,177,177,177,,,,,,,,,,,,,111.83111690000078,0.031116900000782266,5,0.15055349999965983,151.5277954000012,151.5277954000012,151.5277954000012,151.5277954000012,151.5277954000012,151.5277954000012,151.5277954000012,151.5277954000012,002,P005,2025_Jan_18_1616,CategoryLocalizer,2021.2.3,59.96041413462419,
112.0,112.8,1,0.75,Stimuli\ImageFiles-Set2\Objects\Object_WaterCooler_00001.png,0,0,0,178,178,178,,,,,,,,,,,,,112.01406700000007,0.01406700000006822,None,,151.71128690000114,151.71128690000114,151.71128690000114,151.71128690000114,151.71128690000114,151.71128690000114,151.71128690000114,151.71128690000114,002,P005,2025_Jan_18_1616,CategoryLocalizer,2021.2.3,59.96041413462419,
112.8,113.0,5,0.0,Stimuli\Blank.png,0,0,0,179,179,179,,,,,,,,,,,,,112.81603940000059,0.016039400000593673,None,,152.51200310000058,152.51200310000058,152.51200310000058,152.51200310000058,152.51200310000058,152.51200310000058,152.51200310000058,152.51200310000058,002,P005,2025_Jan_18_1616,CategoryLocalizer,2021.2.3,59.96041413462419,
113.0,113.8,1,0.75,Stimuli\ImageFiles-Set2\Objects\Object_Strawberry_00001.png,0,0,0,180,180,180,,,,,,,,,,,,,113.00032680000004,0.0003268000000389293,None,,152.71216989999812,152.71216989999812,152.71216989999812,152.71216989999812,152.71216989999812,152.71216989999812,152.71216989999812,152.71216989999812,002,P005,2025_Jan_18_1616,CategoryLocalizer,2021.2.3,59.96041413462419,
113.8,114.0,5,0.0,Stimuli\Blank.png,0,0,0,181,181,181,,,,,,,,,,,,,113.81616240000221,0.016162400002215804,None,,153.51288159999967,153.51288159999967,153.51288159999967,153.51288159999967,153.51288159999967,153.51288159999967,153.51288159999967,153.51288159999967,002,P005,2025_Jan_18_1616,CategoryLocalizer,2021.2.3,59.96041413462419,
114.0,114.8,1,0.75,Stimuli\ImageFiles-Set2\Objects\Object_Perfume_00001.png,0,0,0,182,182,182,,,,,,,,,,,,,114.00103900000249,0.0010390000024926849,None,,153.71302379999906,153.71302379999906,153.71302379999906,153.71302379999906,153.71302379999906,153.71302379999906,153.71302379999906,153.71302379999906,002,P005,2025_Jan_18_1616,CategoryLocalizer,2021.2.3,59.96041413462419,
114.8,115.0,5,0.0,Stimuli\Blank.png,0,0,0,183,183,183,,,,,,,,,,,,,114.81610350000119,0.016103500001193538,None,,154.51375760000155,154.51375760000155,154.51375760000155,154.51375760000155,154.51375760000155,154.51375760000155,154.51375760000155,154.51375760000155,002,P005,2025_Jan_18_1616,CategoryLocalizer,2021.2.3,59.96041413462419,
115.0,115.8,1,0.75,Stimuli\ImageFiles-Set2\Objects\Object_Fork_00001.png,1,1,0,184,184,184,,,,,,,,,,,,,115.0009835000019,0.0009835000018938445,None,,154.69725249999829,154.69725249999829,154.69725249999829,154.69725249999829,154.69725249999829,154.69725249999829,154.69725249999829,154.69725249999829,002,P005,2025_Jan_18_1616,CategoryLocalizer,2021.2.3,59.96041413462419,
115.8,116.0,5,0.0,Stimuli\Blank.png,0,0,0,185,185,185,,,,,,,,,,,,,115.80037540000194,0.00037540000194269396,None,,155.49794960000145,155.49794960000145,155.49794960000145,155.49794960000145,155.49794960000145,155.49794960000145,155.49794960000145,155.49794960000145,002,P005,2025_Jan_18_1616,CategoryLocalizer,2021.2.3,59.96041413462419,
116.0,116.8,1,0.75,Stimuli\ImageFiles-Set2\Objects\Object_Tape_00001.png,0,0,0,186,186,186,,,,,,,,,,,,,116.00188560000242,0.0018856000024243258,None,,155.71481359999962,155.71481359999962,155.71481359999962,155.71481359999962,155.71481359999962,155.71481359999962,155.71481359999962,155.71481359999962,002,P005,2025_Jan_18_1616,CategoryLocalizer,2021.2.3,59.96041413462419,
116.8,117.0,5,0.0,Stimuli\Blank.png,0,0,0,187,187,187,,,,,,,,,,,,,116.820663100003,0.020663100003005752,None,,156.53220560000045,156.53220560000045,156.53220560000045,156.53220560000045,156.53220560000045,156.53220560000045,156.53220560000045,156.53220560000045,002,P005,2025_Jan_18_1616,CategoryLocalizer,2021.2.3,59.96041413462419,
117.0,117.8,1,0.75,Stimuli\ImageFiles-Set2\Objects\Object_Tape_00001.png,0,0,0,188,188,188,,,,,,,,,,,,,117.01810970000224,0.01810970000224188,4,0.43477640000128304,156.71570050000082,156.71570050000082,156.71570050000082,156.71570050000082,156.71570050000082,156.71570050000082,156.71570050000082,156.71570050000082,002,P005,2025_Jan_18_1616,CategoryLocalizer,2021.2.3,59.96041413462419,
117.8,118.0,5,0.0,Stimuli\Blank.png,0,0,0,189,189,189,,,,,,,,,,,,,117.8021499000024,0.0021499000024078896,None,,157.49969630000123,157.49969630000123,157.49969630000123,157.49969630000123,157.49969630000123,157.49969630000123,157.49969630000123,157.49969630000123,002,P005,2025_Jan_18_1616,CategoryLocalizer,2021.2.3,59.96041413462419,
118.0,118.8,1,0.75,Stimuli\ImageFiles-Set2\Objects\Object_Battery_00001.png,0,0,0,190,190,190,,,,,,,,,,,,,118.00260600000183,0.0026060000018333085,None,,157.69988899999953,157.69988899999953,157.69988899999953,157.69988899999953,157.69988899999953,157.69988899999953,157.69988899999953,157.69988899999953,002,P005,2025_Jan_18_1616,CategoryLocalizer,2021.2.3,59.96041413462419,
118.8,119.0,5,0.0,Stimuli\Blank.png,0,0,0,191,191,191,,,,,,,,,,,,,118.80549500000052,0.0054950000005220545,None,,158.51727889999893,158.51727889999893,158.51727889999893,158.51727889999893,158.51727889999893,158.51727889999893,158.51727889999893,158.51727889999893,002,P005,2025_Jan_18_1616,CategoryLocalizer,2021.2.3,59.96041413462419,
119.0,119.8,1,0.75,Stimuli\ImageFiles-Set2\Objects\Object_Dumpster_00001.png,0,0,0,192,192,192,,,,,,,,,,,,,119.02014350000172,0.020143500001722714,None,,158.7174527999996,158.7174527999996,158.7174527999996,158.7174527999996,158.7174527999996,158.7174527999996,158.7174527999996,158.7174527999996,002,P005,2025_Jan_18_1616,CategoryLocalizer,2021.2.3,59.96041413462419,
119.8,120.0,5,0.0,Stimuli\Blank.png,0,0,0,193,193,193,,,,,,,,,,,,,119.8044219000003,0.00442190000030962,None,,159.50147659999857,159.50147659999857,159.50147659999857,159.50147659999857,159.50147659999857,159.50147659999857,159.50147659999857,159.50147659999857,002,P005,2025_Jan_18_1616,CategoryLocalizer,2021.2.3,59.96041413462419,
120.0,120.8,4,0.75,Stimuli\ImageFiles-Set2\Scenes\Scenes_064.png,0,0,0,194,194,194,,,,,,,,,,,,,120.0067048000019,0.006704800001898548,None,,159.7183373000007,159.7183373000007,159.7183373000007,159.7183373000007,159.7183373000007,159.7183373000007,159.7183373000007,159.7183373000007,002,P005,2025_Jan_18_1616,CategoryLocalizer,2021.2.3,59.96041413462419,
120.8,121.0,5,0.0,Stimuli\Blank.png,0,0,0,195,195,195,,,,,,,,,,,,,120.82191850000163,0.021918500001632424,None,,160.5190380999993,160.5190380999993,160.5190380999993,160.5190380999993,160.5190380999993,160.5190380999993,160.5190380999993,160.5190380999993,002,P005,2025_Jan_18_1616,CategoryLocalizer,2021.2.3,59.96041413462419,
121.0,121.8,4,0.75,Stimuli\ImageFiles-Set2\Scenes\Scenes_108.png,0,0,0,196,196,196,,,,,,,,,,,,,121.00532980000207,0.005329800002073171,None,,160.70254439999917,160.70254439999917,160.70254439999917,160.70254439999917,160.70254439999917,160.70254439999917,160.70254439999917,160.70254439999917,002,P005,2025_Jan_18_1616,CategoryLocalizer,2021.2.3,59.96041413462419,
121.8,122.0,5,0.0,Stimuli\Blank.png,0,0,0,197,197,197,,,,,,,,,,,,,121.80618990000221,0.006189900002212312,None,,161.50323500000013,161.50323500000013,161.50323500000013,161.50323500000013,161.50323500000013,161.50323500000013,161.50323500000013,161.50323500000013,002,P005,2025_Jan_18_1616,CategoryLocalizer,2021.2.3,59.96041413462419,
122.0,122.8,4,0.75,Stimuli\ImageFiles-Set2\Scenes\Scenes_094.png,0,0,0,198,198,198,,,,,,,,,,,,,122.00717050000094,0.007170500000938773,None,,161.72009080000134,161.72009080000134,161.72009080000134,161.72009080000134,161.72009080000134,161.72009080000134,161.72009080000134,161.72009080000134,002,P005,2025_Jan_18_1616,CategoryLocalizer,2021.2.3,59.96041413462419,
122.8,123.0,5,0.0,Stimuli\Blank.png,0,0,0,199,199,199,,,,,,,,,,,,,122.8240951000007,0.024095100000707248,None,,162.52082520000113,162.52082520000113,162.52082520000113,162.52082520000113,162.52082520000113,162.52082520000113,162.52082520000113,162.52082520000113,002,P005,2025_Jan_18_1616,CategoryLocalizer,2021.2.3,59.96041413462419,
123.0,123.8,4,0.75,Stimuli\ImageFiles-Set2\Scenes\Scenes_094.png,1,1,0,200,200,200,,,,,,,,,,,,,123.00709640000059,0.0070964000005915295,4,0.5683181999993394,162.72099810000145,162.72099810000145,162.72099810000145,162.72099810000145,162.72099810000145,162.72099810000145,162.72099810000145,162.72099810000145,002,P005,2025_Jan_18_1616,CategoryLocalizer,2021.2.3,59.96041413462419,
123.8,124.0,5,0.0,Stimuli\Blank.png,0,0,0,201,201,201,,,,,,,,,,,,,123.82526470000084,0.025264700000846574,None,,163.52169380000123,163.52169380000123,163.52169380000123,163.52169380000123,163.52169380000123,163.52169380000123,163.52169380000123,163.52169380000123,002,P005,2025_Jan_18_1616,CategoryLocalizer,2021.2.3,59.96041413462419,
124.0,124.8,4,0.75,Stimuli\ImageFiles-Set2\Scenes\Scenes_077.png,0,0,0,202,202,202,,,,,,,,,,,,,124.00818430000072,0.008184300000721123,None,,163.70518119999906,163.70518119999906,163.70518119999906,163.70518119999906,163.70518119999906,163.70518119999906,163.70518119999906,163.70518119999906,002,P005,2025_Jan_18_1616,CategoryLocalizer,2021.2.3,59.96041413462419,
124.8,125.0,5,0.0,Stimuli\Blank.png,0,0,0,203,203,203,,,,,,,,,,,,,124.80827510000017,0.008275100000176394,None,,164.50588490000155,164.50588490000155,164.50588490000155,164.50588490000155,164.50588490000155,164.50588490000155,164.50588490000155,164.50588490000155,002,P005,2025_Jan_18_1616,CategoryLocalizer,2021.2.3,59.96041413462419,
125.0,125.8,4,0.75,Stimuli\ImageFiles-Set2\Scenes\Scenes_112.png,0,0,0,204,204,204,,,,,,,,,,,,,125.01052830000117,0.010528300001169555,None,,164.72275100000115,164.72275100000115,164.72275100000115,164.72275100000115,164.72275100000115,164.72275100000115,164.72275100000115,164.72275100000115,002,P005,2025_Jan_18_1616,CategoryLocalizer,2021.2.3,59.96041413462419,
125.8,126.0,5,0.0,Stimuli\Blank.png,0,0,0,205,205,205,,,,,,,,,,,,,125.82703530000072,0.027035300000719076,5,0.13815330000215909,165.54014390000157,165.54014390000157,165.54014390000157,165.54014390000157,165.54014390000157,165.54014390000157,165.54014390000157,165.54014390000157,002,P005,2025_Jan_18_1616,CategoryLocalizer,2021.2.3,59.96041413462419,
126.0,126.8,4,0.75,Stimuli\ImageFiles-Set2\Scenes\Scenes_099.png,0,0,0,206,206,206,,,,,,,,,,,,,126.02608140000302,0.02608140000302228,None,,165.74031829999876,165.74031829999876,165.74031829999876,165.74031829999876,165.74031829999876,165.74031829999876,165.74031829999876,165.74031829999876,002,P005,2025_Jan_18_1616,CategoryLocalizer,2021.2.3,59.96041413462419,
126.8,127.0,5,0.0,Stimuli\Blank.png,0,0,0,207,207,207,,,,,,,,,,,,,126.82674500000212,0.026745000002122765,None,,166.5243174999996,166.5243174999996,166.5243174999996,166.5243174999996,166.5243174999996,166.5243174999996,166.5243174999996,166.5243174999996,002,P005,2025_Jan_18_1616,CategoryLocalizer,2021.2.3,59.96041413462419,
127.0,127.8,4,0.75,Stimuli\ImageFiles-Set2\Scenes\Scenes_100.png,0,0,0,208,208,208,,,,,,,,,,,,,127.0106166000005,0.01061660000050324,None,,166.72449440000128,166.72449440000128,166.72449440000128,166.72449440000128,166.72449440000128,166.72449440000128,166.72449440000128,166.72449440000128,002,P005,2025_Jan_18_1616,CategoryLocalizer,2021.2.3,59.96041413462419,
127.8,128.0,5,0.0,Stimuli\Blank.png,0,0,0,209,209,209,,,,,,,,,,,,,127.82811920000313,0.028119200003132505,None,,167.52520469999945,167.52520469999945,167.52520469999945,167.52520469999945,167.52520469999945,167.52520469999945,167.52520469999945,167.52520469999945,002,P005,2025_Jan_18_1616,CategoryLocalizer,2021.2.3,59.96041413462419,
128.0,128.8,4,0.75,Stimuli\ImageFiles-Set2\Scenes\Scenes_119.png,0,0,0,210,210,210,,,,,,,,,,,,,128.0114618000007,0.011461800000688527,None,,167.72538369999893,167.72538369999893,167.72538369999893,167.72538369999893,167.72538369999893,167.72538369999893,167.72538369999893,167.72538369999893,002,P005,2025_Jan_18_1616,CategoryLocalizer,2021.2.3,59.96041413462419,
128.8,129.0,5,0.0,Stimuli\Blank.png,0,0,0,211,211,211,,,,,,,,,,,,,128.83076460000302,0.0307646000030104,None,,168.5427759000013,168.5427759000013,168.5427759000013,168.5427759000013,168.5427759000013,168.5427759000013,168.5427759000013,168.5427759000013,002,P005,2025_Jan_18_1616,CategoryLocalizer,2021.2.3,59.96041413462419,
129.0,129.8,4,0.75,Stimuli\ImageFiles-Set2\Scenes\Scenes_084.png,0,0,0,212,212,212,,,,,,,,,,,,,129.0312945000005,0.031294500000512926,None,,168.74295340000026,168.74295340000026,168.74295340000026,168.74295340000026,168.74295340000026,168.74295340000026,168.74295340000026,168.74295340000026,002,P005,2025_Jan_18_1616,CategoryLocalizer,2021.2.3,59.96041413462419,
129.8,130.0,5,0.0,Stimuli\Blank.png,0,0,0,213,213,213,,,,,,,,,,,,,129.83021660000304,0.030216600003029725,5,0.1513823000022967,169.52697759999865,169.52697759999865,169.52697759999865,169.52697759999865,169.52697759999865,169.52697759999865,169.52697759999865,169.52697759999865,002,P005,2025_Jan_18_1616,CategoryLocalizer,2021.2.3,59.96041413462419,
130.0,130.8,4,0.75,Stimuli\ImageFiles-Set2\Scenes\Scenes_090.png,0,0,0,214,214,214,,,,,,,,,,,,,130.01318620000166,0.01318620000165538,None,,169.72716890000083,169.72716890000083,169.72716890000083,169.72716890000083,169.72716890000083,169.72716890000083,169.72716890000083,169.72716890000083,002,P005,2025_Jan_18_1616,CategoryLocalizer,2021.2.3,59.96041413462419,
130.8,131.0,5,0.0,Stimuli\Blank.png,0,0,0,215,215,215,,,,,,,,,,,,,130.8314453000021,0.03144530000207624,None,,170.5278537999984,170.5278537999984,170.5278537999984,170.5278537999984,170.5278537999984,170.5278537999984,170.5278537999984,170.5278537999984,002,P005,2025_Jan_18_1616,CategoryLocalizer,2021.2.3,59.96041413462419,
131.0,131.8,4,0.75,Stimuli\ImageFiles-Set2\Scenes\Scenes_110.png,0,0,0,216,216,216,,,,,,,,,,,,,131.01433180000095,0.014331800000945805,None,,170.7279931999983,170.7279931999983,170.7279931999983,170.7279931999983,170.7279931999983,170.7279931999983,170.7279931999983,170.7279931999983,002,P005,2025_Jan_18_1616,CategoryLocalizer,2021.2.3,59.96041413462419,
131.8,132.0,5,0.0,Stimuli\Blank.png,0,0,0,217,217,217,,,,,,,,,,,,,131.83110020000095,0.031100200000935274,5,0.1496802999972715,171.52873399999953,171.52873399999953,171.52873399999953,171.52873399999953,171.52873399999953,171.52873399999953,171.52873399999953,171.52873399999953,002,P005,2025_Jan_18_1616,CategoryLocalizer,2021.2.3,59.96041413462419,
132.0,132.8,4,0.75,Stimuli\ImageFiles-Set2\Scenes\Scenes_074.png,0,0,0,218,218,218,,,,,,,,,,,,,132.0144156000024,0.014415600002394058,None,,171.71221940000032,171.71221940000032,171.71221940000032,171.71221940000032,171.71221940000032,171.71221940000032,171.71221940000032,171.71221940000032,002,P005,2025_Jan_18_1616,CategoryLocalizer,2021.2.3,59.96041413462419,
132.8,133.0,5,0.0,Stimuli\Blank.png,0,0,0,219,219,219,,,,,,,,,,,,,132.8156239000018,0.01562390000179903,None,,172.51293349999833,172.51293349999833,172.51293349999833,172.51293349999833,172.51293349999833,172.51293349999833,172.51293349999833,172.51293349999833,002,P005,2025_Jan_18_1616,CategoryLocalizer,2021.2.3,59.96041413462419,
133.0,133.8,4,0.75,Stimuli\ImageFiles-Set2\Scenes\Scenes_118.png,0,0,0,220,220,220,,,,,,,,,,,,,132.9993785000006,-0.0006214999993972015,None,,172.69642029999886,172.69642029999886,172.69642029999886,172.69642029999886,172.69642029999886,172.69642029999886,172.69642029999886,172.69642029999886,002,P005,2025_Jan_18_1616,CategoryLocalizer,2021.2.3,59.96041413462419,
133.8,134.0,5,0.0,Stimuli\Blank.png,0,0,0,221,221,221,,,,,,,,,,,,,133.79947490000268,-0.0005250999973327453,None,,173.49714239999957,173.49714239999957,173.49714239999957,173.49714239999957,173.49714239999957,173.49714239999957,173.49714239999957,173.49714239999957,002,P005,2025_Jan_18_1616,CategoryLocalizer,2021.2.3,59.96041413462419,
134.0,134.8,4,0.75,Stimuli\ImageFiles-Set2\Scenes\Scenes_093.png,0,0,0,222,222,222,,,,,,,,,,,,,134.00021030000062,0.0002103000006172806,None,,173.697264800001,173.697264800001,173.697264800001,173.697264800001,173.697264800001,173.697264800001,173.697264800001,173.697264800001,002,P005,2025_Jan_18_1616,CategoryLocalizer,2021.2.3,59.96041413462419,
134.8,135.0,5,0.0,Stimuli\Blank.png,0,0,0,223,223,223,,,,,,,,,,,,,134.80100910000328,0.0010091000032730335,None,,174.49799580000035,174.49799580000035,174.49799580000035,174.49799580000035,174.49799580000035,174.49799580000035,174.49799580000035,174.49799580000035,002,P005,2025_Jan_18_1616,CategoryLocalizer,2021.2.3,59.96041413462419,
135.0,135.8,4,0.75,Stimuli\ImageFiles-Set2\Scenes\Scenes_089.png,0,0,0,224,224,224,,,,,,,,,,,,,135.0020951000006,0.0020951000005879905,None,,174.71486379999988,174.71486379999988,174.71486379999988,174.71486379999988,174.71486379999988,174.71486379999988,174.71486379999988,174.71486379999988,002,P005,2025_Jan_18_1616,CategoryLocalizer,2021.2.3,59.96041413462419,
135.8,136.0,5,0.0,Stimuli\Blank.png,0,0,0,225,225,225,,,,,,,,,,,,,135.82046600000103,0.020466000001022167,5,0.1460036000025866,175.5322832999991,175.5322832999991,175.5322832999991,175.5322832999991,175.5322832999991,175.5322832999991,175.5322832999991,175.5322832999991,002,P005,2025_Jan_18_1616,CategoryLocalizer,2021.2.3,59.96041413462419,
136.0,136.8,2,0.75,Stimuli\ImageFiles-Set2\Bodies\Bodies_Walking_00007.png,0,0,0,226,226,226,,,,,,,,,,,,,136.01940420000028,0.01940420000028098,None,,175.73240499999883,175.73240499999883,175.73240499999883,175.73240499999883,175.73240499999883,175.73240499999883,175.73240499999883,175.73240499999883,002,P005,2025_Jan_18_1616,CategoryLocalizer,2021.2.3,59.96041413462419,
136.8,137.0,5,0.0,Stimuli\Blank.png,0,0,0,227,227,227,,,,,,,,,,,,,136.82155070000226,0.021550700002251233,None,,176.53314769999997,176.53314769999997,176.53314769999997,176.53314769999997,176.53314769999997,176.53314769999997,176.53314769999997,176.53314769999997,002,P005,2025_Jan_18_1616,CategoryLocalizer,2021.2.3,59.96041413462419,
137.0,137.8,2,0.75,Stimuli\ImageFiles-Set2\Bodies\Bodies_Walking_00007.png,1,1,0,228,228,228,,,,,,,,,,,,,137.01944490000096,0.01944490000096266,4,0.3838847999977588,176.7166341000011,176.7166341000011,176.7166341000011,176.7166341000011,176.7166341000011,176.7166341000011,176.7166341000011,176.7166341000011,002,P005,2025_Jan_18_1616,CategoryLocalizer,2021.2.3,59.96041413462419,
137.8,138.0,5,0.0,Stimuli\Blank.png,0,0,0,229,229,229,,,,,,,,,,,,,137.80326760000025,0.00326760000024251,None,,177.50073319999865,177.50073319999865,177.50073319999865,177.50073319999865,177.50073319999865,177.50073319999865,177.50073319999865,177.50073319999865,002,P005,2025_Jan_18_1616,CategoryLocalizer,2021.2.3,59.96041413462419,
138.0,138.8,2,0.75,Stimuli\ImageFiles-Set2\Bodies\Bodies_Running_00001.png,0,0,0,230,230,230,,,,,,,,,,,,,138.00652100000298,0.006521000002976507,None,,177.717526299999,177.717526299999,177.717526299999,177.717526299999,177.717526299999,177.717526299999,177.717526299999,177.717526299999,002,P005,2025_Jan_18_1616,CategoryLocalizer,2021.2.3,59.96041413462419,
138.8,139.0,5,0.0,Stimuli\Blank.png,0,0,0,231,231,231,,,,,,,,,,,,,138.82103869999992,0.02103869999990593,None,,178.51822769999853,178.51822769999853,178.51822769999853,178.51822769999853,178.51822769999853,178.51822769999853,178.51822769999853,178.51822769999853,002,P005,2025_Jan_18_1616,CategoryLocalizer,2021.2.3,59.96041413462419,
139.0,139.8,2,0.75,Stimuli\ImageFiles-Set2\Bodies\Bodies_Pushing_00004.png,0,0,0,232,232,232,,,,,,,,,,,,,139.0058373000029,0.005837300002895063,None,,178.71838959999877,178.71838959999877,178.71838959999877,178.71838959999877,178.71838959999877,178.71838959999877,178.71838959999877,178.71838959999877,002,P005,2025_Jan_18_1616,CategoryLocalizer,2021.2.3,59.96041413462419,
139.8,140.0,5,0.0,Stimuli\Blank.png,0,0,0,233,233,233,,,,,,,,,,,,,139.82212020000225,0.02212020000223447,None,,179.51909650000016,179.51909650000016,179.51909650000016,179.51909650000016,179.51909650000016,179.51909650000016,179.51909650000016,179.51909650000016,002,P005,2025_Jan_18_1616,CategoryLocalizer,2021.2.3,59.96041413462419,
140.0,140.8,2,0.75,Stimuli\ImageFiles-Set2\Bodies\Bodies_Jumping_00003.png,0,0,0,234,234,234,,,,,,,,,,,,,140.006169100001,0.006169100000988692,None,,179.71931519999998,179.71931519999998,179.71931519999998,179.71931519999998,179.71931519999998,179.71931519999998,179.71931519999998,179.71931519999998,002,P005,2025_Jan_18_1616,CategoryLocalizer,2021.2.3,59.96041413462419,
140.8,141.0,5,0.0,Stimuli\Blank.png,0,0,0,235,235,235,,,,,,,,,,,,,140.82253459999993,0.022534599999914917,None,,180.51997739999933,180.51997739999933,180.51997739999933,180.51997739999933,180.51997739999933,180.51997739999933,180.51997739999933,180.51997739999933,002,P005,2025_Jan_18_1616,CategoryLocalizer,2021.2.3,59.96041413462419,
141.0,141.8,2,0.75,Stimuli\ImageFiles-Set2\Bodies\Bodies_SittingFloor_00002.png,0,0,0,236,236,236,,,,,,,,,,,,,141.00647160000153,0.006471600001532352,None,,180.72014819999822,180.72014819999822,180.72014819999822,180.72014819999822,180.72014819999822,180.72014819999822,180.72014819999822,180.72014819999822,002,P005,2025_Jan_18_1616,CategoryLocalizer,2021.2.3,59.96041413462419,
141.8,142.0,5,0.0,Stimuli\Blank.png,0,0,0,237,237,237,,,,,,,,,,,,,141.8254928000024,0.02549280000238241,5,0.1408341999995173,181.53754670000126,181.53754670000126,181.53754670000126,181.53754670000126,181.53754670000126,181.53754670000126,181.53754670000126,181.53754670000126,002,P005,2025_Jan_18_1616,CategoryLocalizer,2021.2.3,59.96041413462419,
142.0,142.8,2,0.75,Stimuli\ImageFiles-Set2\Bodies\Bodies_Standing_00002.png,0,0,0,238,238,238,,,,,,,,,,,,,142.02329480000117,0.02329480000116746,None,,181.72101159999875,181.72101159999875,181.72101159999875,181.72101159999875,181.72101159999875,181.72101159999875,181.72101159999875,181.72101159999875,002,P005,2025_Jan_18_1616,CategoryLocalizer,2021.2.3,59.96041413462419,
142.8,143.0,5,0.0,Stimuli\Blank.png,0,0,0,239,239,239,,,,,,,,,,,,,142.80811370000083,0.00811370000081979,None,,182.50506160000077,182.50506160000077,182.50506160000077,182.50506160000077,182.50506160000077,182.50506160000077,182.50506160000077,182.50506160000077,002,P005,2025_Jan_18_1616,CategoryLocalizer,2021.2.3,59.96041413462419,
143.0,143.8,2,0.75,Stimuli\ImageFiles-Set2\Bodies\Bodies_Jumping_00005.png,0,0,0,240,240,240,,,,,,,,,,,,,143.00839800000176,0.00839800000176183,None,,182.7219554000003,182.7219554000003,182.7219554000003,182.7219554000003,182.7219554000003,182.7219554000003,182.7219554000003,182.7219554000003,002,P005,2025_Jan_18_1616,CategoryLocalizer,2021.2.3,59.96041413462419,
143.8,144.0,5,0.0,Stimuli\Blank.png,0,0,0,241,241,241,,,,,,,,,,,,,143.82517270000244,0.025172700002428883,None,,183.52261599999838,183.52261599999838,183.52261599999838,183.52261599999838,183.52261599999838,183.52261599999838,183.52261599999838,183.52261599999838,002,P005,2025_Jan_18_1616,CategoryLocalizer,2021.2.3,59.96041413462419,
144.0,144.8,2,0.75,Stimuli\ImageFiles-Set2\Bodies\Bodies_Pushing_00002.png,0,0,0,242,242,242,,,,,,,,,,,,,144.00860770000145,0.008607700001448393,None,,183.70611179999833,183.70611179999833,183.70611179999833,183.70611179999833,183.70611179999833,183.70611179999833,183.70611179999833,183.70611179999833,002,P005,2025_Jan_18_1616,CategoryLocalizer,2021.2.3,59.96041413462419,
144.8,145.0,5,0.0,Stimuli\Blank.png,0,0,0,243,243,243,,,,,,,,,,,,,144.81145200000174,0.011452000001725082,None,,184.5235047999995,184.5235047999995,184.5235047999995,184.5235047999995,184.5235047999995,184.5235047999995,184.5235047999995,184.5235047999995,002,P005,2025_Jan_18_1616,CategoryLocalizer,2021.2.3,59.96041413462419,
145.0,145.8,2,0.75,Stimuli\ImageFiles-Set2\Bodies\Bodies_Running_00003.png,1,1,0,244,244,244,,,,,,,,,,,,,145.0261864000022,0.026186400002188748,None,,184.72365150000041,184.72365150000041,184.72365150000041,184.72365150000041,184.72365150000041,184.72365150000041,184.72365150000041,184.72365150000041,002,P005,2025_Jan_18_1616,CategoryLocalizer,2021.2.3,59.96041413462419,
145.8,146.0,5,0.0,Stimuli\Blank.png,0,0,0,245,245,245,,,,,,,,,,,,,145.8113540000013,0.011354000001290387,None,,185.50770900000134,185.50770900000134,185.50770900000134,185.50770900000134,185.50770900000134,185.50770900000134,185.50770900000134,185.50770900000134,002,P005,2025_Jan_18_1616,CategoryLocalizer,2021.2.3,59.96041413462419,
146.0,146.8,2,0.75,Stimuli\ImageFiles-Set2\Bodies\Bodies_Falling_00003.png,0,0,0,246,246,246,,,,,,,,,,,,,146.01086110000324,0.010861100003239699,None,,185.70787410000048,185.70787410000048,185.70787410000048,185.70787410000048,185.70787410000048,185.70787410000048,185.70787410000048,185.70787410000048,002,P005,2025_Jan_18_1616,CategoryLocalizer,2021.2.3,59.96041413462419,
146.8,147.0,5,0.0,Stimuli\Blank.png,0,0,0,247,247,247,,,,,,,,,,,,,146.81226250000327,0.012262500003259902,None,,186.52529520000098,186.52529520000098,186.52529520000098,186.52529520000098,186.52529520000098,186.52529520000098,186.52529520000098,186.52529520000098,002,P005,2025_Jan_18_1616,CategoryLocalizer,2021.2.3,59.96041413462419,
147.0,147.8,2,0.75,Stimuli\ImageFiles-Set2\Bodies\Bodies_Falling_00003.png,0,0,0,248,248,248,,,,,,,,,,,,,147.02822480000032,0.028224800000316463,None,,186.7255026999992,186.7255026999992,186.7255026999992,186.7255026999992,186.7255026999992,186.7255026999992,186.7255026999992,186.7255026999992,002,P005,2025_Jan_18_1616,CategoryLocalizer,2021.2.3,59.96041413462419,
147.8,148.0,5,0.0,Stimuli\Blank.png,0,0,0,249,249,249,,,,,,,,,,,,,147.81202370000028,0.01202370000027031,None,,187.50955489999978,187.50955489999978,187.50955489999978,187.50955489999978,187.50955489999978,187.50955489999978,187.50955489999978,187.50955489999978,002,P005,2025_Jan_18_1616,CategoryLocalizer,2021.2.3,59.96041413462419,
148.0,148.8,2,0.75,Stimuli\ImageFiles-Set2\Bodies\Bodies_SittingStretch_00006.png,0,0,0,250,250,250,,,,,,,,,,,,,148.01272950000202,0.012729500002023997,4,0.1121032999981253,187.7271408000015,187.7271408000015,187.7271408000015,187.7271408000015,187.7271408000015,187.7271408000015,187.7271408000015,187.7271408000015,002,P005,2025_Jan_18_1616,CategoryLocalizer,2021.2.3,59.96041413462419,
148.8,149.0,5,0.0,Stimuli\Blank.png,0,0,0,251,251,251,,,,,,,,,,,,,148.83011620000252,0.03011620000251014,None,,188.52704209999865,188.52704209999865,188.52704209999865,188.52704209999865,188.52704209999865,188.52704209999865,188.52704209999865,188.52704209999865,002,P005,2025_Jan_18_1616,CategoryLocalizer,2021.2.3,59.96041413462419,
149.0,149.8,2,0.75,Stimuli\ImageFiles-Set2\Bodies\Bodies_Waving_00002.png,0,0,0,252,252,252,,,,,,,,,,,,,149.01304730000265,0.013047300002654083,None,,188.71060990000115,188.71060990000115,188.71060990000115,188.71060990000115,188.71060990000115,188.71060990000115,188.71060990000115,188.71060990000115,002,P005,2025_Jan_18_1616,CategoryLocalizer,2021.2.3,59.96041413462419,
149.8,150.0,5,0.0,Stimuli\Blank.png,0,0,0,253,253,253,,,,,,,,,,,,,149.81558620000214,0.015586200002132955,5,0.150423300001421,189.52791440000146,189.52791440000146,189.52791440000146,189.52791440000146,189.52791440000146,189.52791440000146,189.52791440000146,189.52791440000146,002,P005,2025_Jan_18_1616,CategoryLocalizer,2021.2.3,59.96041413462419,
150.0,150.8,2,0.75,Stimuli\ImageFiles-Set2\Bodies\Bodies_SittingStretch_00003.png,0,0,0,254,254,254,,,,,,,,,,,,,150.01451980000274,0.014519800002744887,None,,189.71141310000166,189.71141310000166,189.71141310000166,189.71141310000166,189.71141310000166,189.71141310000166,189.71141310000166,189.71141310000166,002,P005,2025_Jan_18_1616,CategoryLocalizer,2021.2.3,59.96041413462419,
150.8,151.0,5,0.0,Stimuli\Blank.png,0,0,0,255,255,255,,,,,,,,,,,,,150.7992387000013,-0.0007612999987145486,None,,190.4954663999997,190.4954663999997,190.4954663999997,190.4954663999997,190.4954663999997,190.4954663999997,190.4954663999997,190.4954663999997,002,P005,2025_Jan_18_1616,CategoryLocalizer,2021.2.3,59.96041413462419,
151.0,151.8,2,0.75,Stimuli\ImageFiles-Set2\Bodies\Bodies_Standing_00006.png,0,0,0,256,256,256,,,,,,,,,,,,,150.99821260000317,-0.0017873999968287535,None,,190.7122933999999,190.7122933999999,190.7122933999999,190.7122933999999,190.7122933999999,190.7122933999999,190.7122933999999,190.7122933999999,002,P005,2025_Jan_18_1616,CategoryLocalizer,2021.2.3,59.96041413462419,
151.8,152.0,5,0.0,Stimuli\Blank.png,0,0,0,257,257,257,,,,,,,,,,,,,151.831981000003,0.03198100000298609,5,0.14880679999987478,191.529666800001,191.529666800001,191.529666800001,191.529666800001,191.529666800001,191.529666800001,191.529666800001,191.529666800001,002,P005,2025_Jan_18_1616,CategoryLocalizer,2021.2.3,59.96041413462419,
152.0,164.0,0,0.0,Stimuli\Blank.png,0,0,0,258,258,258,,,,,,,,,,,,,152.01599550000174,0.015995500001736218,5,9.965025700003025,191.7131674000011,191.7131674000011,191.7131674000011,191.7131674000011,191.7131674000011,191.7131674000011,191.7131674000011,191.7131674000011,002,P005,2025_Jan_18_1616,CategoryLocalizer,2021.2.3,59.96041413462419,
164.0,164.8,4,0.75,Stimuli\ImageFiles-Set2\Scenes\Scenes_067.png,0,0,0,259,259,259,,,,,,,,,,,,,164.0098794000005,0.009879400000500027,None,,203.70704950000072,203.70704950000072,203.70704950000072,203.70704950000072,203.70704950000072,203.70704950000072,203.70704950000072,203.70704950000072,002,P005,2025_Jan_18_1616,CategoryLocalizer,2021.2.3,59.96041413462419,
164.8,165.0,5,0.0,Stimuli\Blank.png,0,0,0,260,260,260,,,,,,,,,,,,,164.8112467000028,0.01124670000280048,None,,204.50776110000152,204.50776110000152,204.50776110000152,204.50776110000152,204.50776110000152,204.50776110000152,204.50776110000152,204.50776110000152,002,P005,2025_Jan_18_1616,CategoryLocalizer,2021.2.3,59.96041413462419,
165.0,165.8,4,0.75,Stimuli\ImageFiles-Set2\Scenes\Scenes_072.png,0,0,0,261,261,261,,,,,,,,,,,,,165.01008970000112,0.010089700001117308,None,,204.70793240000057,204.70793240000057,204.70793240000057,204.70793240000057,204.70793240000057,204.70793240000057,204.70793240000057,204.70793240000057,002,P005,2025_Jan_18_1616,CategoryLocalizer,2021.2.3,59.96041413462419,
165.8,166.0,5,0.0,Stimuli\Blank.png,0,0,0,262,262,262,,,,,,,,,,,,,165.81094870000015,0.010948700000142253,None,,205.50860660000035,205.50860660000035,205.50860660000035,205.50860660000035,205.50860660000035,205.50860660000035,205.50860660000035,205.50860660000035,002,P005,2025_Jan_18_1616,CategoryLocalizer,2021.2.3,59.96041413462419,
166.0,166.8,4,0.75,Stimuli\ImageFiles-Set2\Scenes\Scenes_091.png,0,0,0,263,263,263,,,,,,,,,,,,,166.01113050000276,0.011130500002764165,None,,205.70881129999907,205.70881129999907,205.70881129999907,205.70881129999907,205.70881129999907,205.70881129999907,205.70881129999907,205.70881129999907,002,P005,2025_Jan_18_1616,CategoryLocalizer,2021.2.3,59.96041413462419,
166.8,167.0,5,0.0,Stimuli\Blank.png,0,0,0,264,264,264,,,,,,,,,,,,,166.81213390000266,0.012133900002652354,None,,206.50951619999978,206.50951619999978,206.50951619999978,206.50951619999978,206.50951619999978,206.50951619999978,206.50951619999978,206.50951619999978,002,P005,2025_Jan_18_1616,CategoryLocalizer,2021.2.3,59.96041413462419,
167.0,167.8,4,0.75,Stimuli\ImageFiles-Set2\Scenes\Scenes_116.png,0,0,0,265,265,265,,,,,,,,,,,,,167.01257990000158,0.012579900001583155,None,,206.70969459999833,206.70969459999833,206.70969459999833,206.70969459999833,206.70969459999833,206.70969459999833,206.70969459999833,206.70969459999833,002,P005,2025_Jan_18_1616,CategoryLocalizer,2021.2.3,59.96041413462419,
167.8,168.0,5,0.0,Stimuli\Blank.png,0,0,0,266,266,266,,,,,,,,,,,,,167.8128921000025,0.01289210000248886,5,0.16775119999874732,207.51040210000065,207.51040210000065,207.51040210000065,207.51040210000065,207.51040210000065,207.51040210000065,207.51040210000065,207.51040210000065,002,P005,2025_Jan_18_1616,CategoryLocalizer,2021.2.3,59.96041413462419,
168.0,168.8,4,0.75,Stimuli\ImageFiles-Set2\Scenes\Scenes_097.png,0,0,0,267,267,267,,,,,,,,,,,,,168.01529220000157,0.015292200001567835,None,,207.72726740000144,207.72726740000144,207.72726740000144,207.72726740000144,207.72726740000144,207.72726740000144,207.72726740000144,207.72726740000144,002,P005,2025_Jan_18_1616,CategoryLocalizer,2021.2.3,59.96041413462419,
168.8,169.0,5,0.0,Stimuli\Blank.png,0,0,0,268,268,268,,,,,,,,,,,,,168.8141383000002,0.01413830000018379,None,,208.5112717000011,208.5112717000011,208.5112717000011,208.5112717000011,208.5112717000011,208.5112717000011,208.5112717000011,208.5112717000011,002,P005,2025_Jan_18_1616,CategoryLocalizer,2021.2.3,59.96041413462419,
169.0,169.8,4,0.75,Stimuli\ImageFiles-Set2\Scenes\Scenes_097.png,1,1,0,269,269,269,,,,,,,,,,,,,169.01609700000336,0.016097000003355788,4,0.4660940000030678,208.7281339000001,208.7281339000001,208.7281339000001,208.7281339000001,208.7281339000001,208.7281339000001,208.7281339000001,208.7281339000001,002,P005,2025_Jan_18_1616,CategoryLocalizer,2021.2.3,59.96041413462419,
169.8,170.0,5,0.0,Stimuli\Blank.png,0,0,0,270,270,270,,,,,,,,,,,,,169.81501760000174,0.015017600001726805,5,0.16611230000125943,209.51216230000136,209.51216230000136,209.51216230000136,209.51216230000136,209.51216230000136,209.51216230000136,209.51216230000136,209.51216230000136,002,P005,2025_Jan_18_1616,CategoryLocalizer,2021.2.3,59.96041413462419,
170.0,170.8,4,0.75,Stimuli\ImageFiles-Set2\Scenes\Scenes_096.png,0,0,0,271,271,271,,,,,,,,,,,,,170.01504019999993,0.015040199999930337,None,,209.71234330000152,209.71234330000152,209.71234330000152,209.71234330000152,209.71234330000152,209.71234330000152,209.71234330000152,209.71234330000152,002,P005,2025_Jan_18_1616,CategoryLocalizer,2021.2.3,59.96041413462419,
170.8,171.0,5,0.0,Stimuli\Blank.png,0,0,0,272,272,272,,,,,,,,,,,,,170.80051630000162,0.0005163000016068509,None,,210.51304810000147,210.51304810000147,210.51304810000147,210.51304810000147,210.51304810000147,210.51304810000147,210.51304810000147,210.51304810000147,002,P005,2025_Jan_18_1616,CategoryLocalizer,2021.2.3,59.96041413462419,
171.0,171.8,4,0.75,Stimuli\ImageFiles-Set2\Scenes\Scenes_115.png,0,0,0,273,273,273,,,,,,,,,,,,,171.0163414000017,0.01634140000169282,None,,210.7299032999981,210.7299032999981,210.7299032999981,210.7299032999981,210.7299032999981,210.7299032999981,210.7299032999981,210.7299032999981,002,P005,2025_Jan_18_1616,CategoryLocalizer,2021.2.3,59.96041413462419,
171.8,172.0,5,0.0,Stimuli\Blank.png,0,0,0,274,274,274,,,,,,,,,,,,,171.81620509999993,0.016205099999922368,None,,211.51393100000132,211.51393100000132,211.51393100000132,211.51393100000132,211.51393100000132,211.51393100000132,211.51393100000132,211.51393100000132,002,P005,2025_Jan_18_1616,CategoryLocalizer,2021.2.3,59.96041413462419,
172.0,172.8,4,0.75,Stimuli\ImageFiles-Set2\Scenes\Scenes_085.png,1,1,0,275,275,275,,,,,,,,,,,,,172.00026450000223,0.00026450000223121606,None,,211.7140963999991,211.7140963999991,211.7140963999991,211.7140963999991,211.7140963999991,211.7140963999991,211.7140963999991,211.7140963999991,002,P005,2025_Jan_18_1616,CategoryLocalizer,2021.2.3,59.96041413462419,
172.8,173.0,5,0.0,Stimuli\Blank.png,0,0,0,276,276,276,,,,,,,,,,,,,172.8178809000019,0.01788090000189868,None,,212.51480129999982,212.51480129999982,212.51480129999982,212.51480129999982,212.51480129999982,212.51480129999982,212.51480129999982,212.51480129999982,002,P005,2025_Jan_18_1616,CategoryLocalizer,2021.2.3,59.96041413462419,
173.0,173.8,4,0.75,Stimuli\ImageFiles-Set2\Scenes\Scenes_065.png,0,0,0,277,277,277,,,,,,,,,,,,,173.00121430000218,0.0012143000021751504,None,,212.71497799999997,212.71497799999997,212.71497799999997,212.71497799999997,212.71497799999997,212.71497799999997,212.71497799999997,212.71497799999997,002,P005,2025_Jan_18_1616,CategoryLocalizer,2021.2.3,59.96041413462419,
173.8,174.0,5,0.0,Stimuli\Blank.png,0,0,0,278,278,278,,,,,,,,,,,,,173.8205439000012,0.020543900001200655,5,0.14577860000281362,213.53237219999937,213.53237219999937,213.53237219999937,213.53237219999937,213.53237219999937,213.53237219999937,213.53237219999937,213.53237219999937,002,P005,2025_Jan_18_1616,CategoryLocalizer,2021.2.3,59.96041413462419,
174.0,174.8,4,0.75,Stimuli\ImageFiles-Set2\Scenes\Scenes_065.png,0,0,0,279,279,279,,,,,,,,,,,,,174.021542100003,0.021542100002989173,4,0.3876858000003267,213.7325834000003,213.7325834000003,213.7325834000003,213.7325834000003,213.7325834000003,213.7325834000003,213.7325834000003,213.7325834000003,002,P005,2025_Jan_18_1616,CategoryLocalizer,2021.2.3,59.96041413462419,
174.8,175.0,5,0.0,Stimuli\Blank.png,0,0,0,280,280,280,,,,,,,,,,,,,174.8214149000014,0.021414900001389015,None,,214.5332544999983,214.5332544999983,214.5332544999983,214.5332544999983,214.5332544999983,214.5332544999983,214.5332544999983,214.5332544999983,002,P005,2025_Jan_18_1616,CategoryLocalizer,2021.2.3,59.96041413462419,
175.0,175.8,4,0.75,Stimuli\ImageFiles-Set2\Scenes\Scenes_109.png,0,0,0,281,281,281,,,,,,,,,,,,,175.020822100003,0.02082210000298801,None,,214.7334305000004,214.7334305000004,214.7334305000004,214.7334305000004,214.7334305000004,214.7334305000004,214.7334305000004,214.7334305000004,002,P005,2025_Jan_18_1616,CategoryLocalizer,2021.2.3,59.96041413462419,
175.8,176.0,5,0.0,Stimuli\Blank.png,0,0,0,282,282,282,,,,,,,,,,,,,175.82033450000017,0.02033450000016046,None,,215.5174709999992,215.5174709999992,215.5174709999992,215.5174709999992,215.5174709999992,215.5174709999992,215.5174709999992,215.5174709999992,002,P005,2025_Jan_18_1616,CategoryLocalizer,2021.2.3,59.96041413462419,
176.0,176.8,4,0.75,Stimuli\ImageFiles-Set2\Scenes\Scenes_061.png,0,0,0,283,283,283,,,,,,,,,,,,,176.0051764000018,0.005176400001801085,None,,215.71762319999834,215.71762319999834,215.71762319999834,215.71762319999834,215.71762319999834,215.71762319999834,215.71762319999834,215.71762319999834,002,P005,2025_Jan_18_1616,CategoryLocalizer,2021.2.3,59.96041413462419,
