eventStartTime,eventEndTime,eventCond,imSize,imFile,repeatedImage,responseEvent,Events.thisRepN,Events.thisTrialN,Events.thisN,Events.thisIndex,Instructions.started,Instructions.stopped,participantReadyResponse.keys,participantReadyResponse.rt,participantReadyResponse.started,participantReadyResponse.stopped,startWaitforTrigger,triggerResponse.keys,triggerResponse.rt,triggerResponse.started,triggerResponse.stopped,globalTimer,actualStartTime,startTimingDiff,participantResponse.keys,participantResponse.rt,participantResponse.started,participantResponse.stopped,image.started,image.stopped,fixationOutside.started,fixationOutside.stopped,fixationInside.started,fixationInside.stopped,session,participant,date,expName,psychopyVersion,frameRate,
,,,,,,,,,,,9.561177300000054,None,1,8.35936539999966,9.561177300000054,None,,,,,,,,,,,,,,,,,,,001,P006,2025_Jan_25_1146,CategoryLocalizer,2021.2.3,59.93317451025591,
,,,,,,,,,,,,,,,,,17.934021400000347,5,14.108802099999593,17.94667219999974,None,,,,,,,,,,,,,,001,P006,2025_Jan_25_1146,CategoryLocalizer,2021.2.3,59.93317451025591,
0.0,12.0,0,0.0,Stimuli\Blank.png,0,0,0,0,0,0,,,,,,,,,,,,32.06321839999964,0.04978760000085458,0.04978760000085458,5,9.929772799999228,32.12585409999974,None,32.12585409999974,None,32.12585409999974,None,32.12585409999974,None,001,P006,2025_Jan_25_1146,CategoryLocalizer,2021.2.3,59.93317451025591,
12.0,12.8,1,0.75,Stimuli\ImageFiles-Set1\Objects\Object_Knife_00001.png,0,0,0,1,1,1,,,,,,,,,,,,,12.009800500000892,0.009800500000892498,None,,44.10310759999993,44.10310759999993,44.10310759999993,44.10310759999993,44.10310759999993,44.10310759999993,44.10310759999993,44.10310759999993,001,P006,2025_Jan_25_1146,CategoryLocalizer,2021.2.3,59.93317451025591,
12.8,13.0,5,0.0,Stimuli\Blank.png,0,0,0,2,2,2,,,,,,,,,,,,,12.82675080000081,0.02675080000080854,None,,44.90380749999986,44.90380749999986,44.90380749999986,44.90380749999986,44.90380749999986,44.90380749999986,44.90380749999986,44.90380749999986,001,P006,2025_Jan_25_1146,CategoryLocalizer,2021.2.3,59.93317451025591,
13.0,13.8,1,0.75,Stimuli\ImageFiles-Set1\Objects\Object_Boat_00001.png,0,0,0,3,3,3,,,,,,,,,,,,,13.009976800000004,0.009976800000004005,None,,45.10397339999963,45.10397339999963,45.10397339999963,45.10397339999963,45.10397339999963,45.10397339999963,45.10397339999963,45.10397339999963,001,P006,2025_Jan_25_1146,CategoryLocalizer,2021.2.3,59.93317451025591,
13.8,14.0,5,0.0,Stimuli\Blank.png,0,0,0,4,4,4,,,,,,,,,,,,,13.827094600000237,0.027094600000236113,5,0.15070310000010068,45.90468460000011,45.90468460000011,45.90468460000011,45.90468460000011,45.90468460000011,45.90468460000011,45.90468460000011,45.90468460000011,001,P006,2025_Jan_25_1146,CategoryLocalizer,2021.2.3,59.93317451025591,
14.0,14.8,1,0.75,Stimuli\ImageFiles-Set1\Objects\Object_Boat_00001.png,1,1,0,5,5,5,,,,,,,,,,,,,14.010534400000324,0.01053440000032424,1,0.42719429999942804,46.088179299999865,46.088179299999865,46.088179299999865,46.088179299999865,46.088179299999865,46.088179299999865,46.088179299999865,46.088179299999865,001,P006,2025_Jan_25_1146,CategoryLocalizer,2021.2.3,59.93317451025591,
14.8,15.0,5,0.0,Stimuli\Blank.png,0,0,0,6,6,6,,,,,,,,,,,,,14.81160650000038,0.011606500000379327,None,,46.88888560000032,46.88888560000032,46.88888560000032,46.88888560000032,46.88888560000032,46.88888560000032,46.88888560000032,46.88888560000032,001,P006,2025_Jan_25_1146,CategoryLocalizer,2021.2.3,59.93317451025591,
15.0,15.8,1,0.75,Stimuli\ImageFiles-Set1\Objects\Object_Wagon_00001.png,0,0,0,7,7,7,,,,,,,,,,,,,15.011901300000318,0.01190130000031786,None,,47.105776600000354,47.105776600000354,47.105776600000354,47.105776600000354,47.105776600000354,47.105776600000354,47.105776600000354,47.105776600000354,001,P006,2025_Jan_25_1146,CategoryLocalizer,2021.2.3,59.93317451025591,
15.8,16.0,5,0.0,Stimuli\Blank.png,0,0,0,8,8,8,,,,,,,,,,,,,15.829372800000783,0.029372800000782462,5,0.14886959999967075,47.90644749999956,47.90644749999956,47.90644749999956,47.90644749999956,47.90644749999956,47.90644749999956,47.90644749999956,47.90644749999956,001,P006,2025_Jan_25_1146,CategoryLocalizer,2021.2.3,59.93317451025591,
16.0,16.8,1,0.75,Stimuli\ImageFiles-Set1\Objects\Object_Scale_00001.png,0,0,0,9,9,9,,,,,,,,,,,,,16.0128579000002,0.012857900000199152,None,,48.10662380000031,48.10662380000031,48.10662380000031,48.10662380000031,48.10662380000031,48.10662380000031,48.10662380000031,48.10662380000031,001,P006,2025_Jan_25_1146,CategoryLocalizer,2021.2.3,59.93317451025591,
16.8,17.0,5,0.0,Stimuli\Blank.png,0,0,0,10,10,10,,,,,,,,,,,,,16.829914400000234,0.0299144000002336,None,,48.90734160000011,48.90734160000011,48.90734160000011,48.90734160000011,48.90734160000011,48.90734160000011,48.90734160000011,48.90734160000011,001,P006,2025_Jan_25_1146,CategoryLocalizer,2021.2.3,59.93317451025591,
17.0,17.8,1,0.75,Stimuli\ImageFiles-Set1\Objects\Object_Walnut_00001.png,0,0,0,11,11,11,,,,,,,,,,,,,17.01466950000031,0.014669500000309199,None,,49.107514600000286,49.107514600000286,49.107514600000286,49.107514600000286,49.107514600000286,49.107514600000286,49.107514600000286,49.107514600000286,001,P006,2025_Jan_25_1146,CategoryLocalizer,2021.2.3,59.93317451025591,
17.8,18.0,5,0.0,Stimuli\Blank.png,0,0,0,12,12,12,,,,,,,,,,,,,17.83078000000023,0.030780000000230956,5,0.1472274000007019,49.90821870000036,49.90821870000036,49.90821870000036,49.90821870000036,49.90821870000036,49.90821870000036,49.90821870000036,49.90821870000036,001,P006,2025_Jan_25_1146,CategoryLocalizer,2021.2.3,59.93317451025591,
18.0,18.8,1,0.75,Stimuli\ImageFiles-Set1\Objects\Object_Shirt_00001.png,0,0,0,13,13,13,,,,,,,,,,,,,18.014265100000557,0.01426510000055714,None,,50.125102299999526,50.125102299999526,50.125102299999526,50.125102299999526,50.125102299999526,50.125102299999526,50.125102299999526,50.125102299999526,001,P006,2025_Jan_25_1146,CategoryLocalizer,2021.2.3,59.93317451025591,
18.8,19.0,5,0.0,Stimuli\Blank.png,0,0,0,14,14,14,,,,,,,,,,,,,18.848236900000302,0.04823690000030112,None,,50.92577739999979,50.92577739999979,50.92577739999979,50.92577739999979,50.92577739999979,50.92577739999979,50.92577739999979,50.92577739999979,001,P006,2025_Jan_25_1146,CategoryLocalizer,2021.2.3,59.93317451025591,
19.0,19.8,1,0.75,Stimuli\ImageFiles-Set1\Objects\Object_Book_00001.png,0,0,0,15,15,15,,,,,,,,,,,,,19.015278700000636,0.015278700000635581,None,,51.10928580000018,51.10928580000018,51.10928580000018,51.10928580000018,51.10928580000018,51.10928580000018,51.10928580000018,51.10928580000018,001,P006,2025_Jan_25_1146,CategoryLocalizer,2021.2.3,59.93317451025591,
19.8,20.0,5,0.0,Stimuli\Blank.png,0,0,0,16,16,16,,,,,,,,,,,,,19.816039700000147,0.016039700000145984,None,,51.89330460000019,51.89330460000019,51.89330460000019,51.89330460000019,51.89330460000019,51.89330460000019,51.89330460000019,51.89330460000019,001,P006,2025_Jan_25_1146,CategoryLocalizer,2021.2.3,59.93317451025591,
20.0,20.8,1,0.75,Stimuli\ImageFiles-Set1\Objects\Object_Peanut_00001.png,0,0,0,17,17,17,,,,,,,,,,,,,20.000098100000287,9.810000028664945e-05,None,,52.09347530000014,52.09347530000014,52.09347530000014,52.09347530000014,52.09347530000014,52.09347530000014,52.09347530000014,52.09347530000014,001,P006,2025_Jan_25_1146,CategoryLocalizer,2021.2.3,59.93317451025591,
20.8,21.0,5,0.0,Stimuli\Blank.png,0,0,0,18,18,18,,,,,,,,,,,,,20.816922599999998,0.016922599999997345,None,,52.8941834999996,52.8941834999996,52.8941834999996,52.8941834999996,52.8941834999996,52.8941834999996,52.8941834999996,52.8941834999996,001,P006,2025_Jan_25_1146,CategoryLocalizer,2021.2.3,59.93317451025591,
21.0,21.8,1,0.75,Stimuli\ImageFiles-Set1\Objects\Object_Watch_00001.png,0,0,0,19,19,19,,,,,,,,,,,,,21.000433000000157,0.0004330000001573353,None,,53.11109909999959,53.11109909999959,53.11109909999959,53.11109909999959,53.11109909999959,53.11109909999959,53.11109909999959,53.11109909999959,001,P006,2025_Jan_25_1146,CategoryLocalizer,2021.2.3,59.93317451025591,
21.8,22.0,5,0.0,Stimuli\Blank.png,0,0,0,20,20,20,,,,,,,,,,,,,21.83439610000005,0.034396100000048335,None,,53.911750199999915,53.911750199999915,53.911750199999915,53.911750199999915,53.911750199999915,53.911750199999915,53.911750199999915,53.911750199999915,001,P006,2025_Jan_25_1146,CategoryLocalizer,2021.2.3,59.93317451025591,
22.0,22.8,1,0.75,Stimuli\ImageFiles-Set1\Objects\Object_Airplane_00001.png,0,0,0,21,21,21,,,,,,,,,,,,,22.000729400000637,0.0007294000006368151,None,,54.09526310000001,54.09526310000001,54.09526310000001,54.09526310000001,54.09526310000001,54.09526310000001,54.09526310000001,54.09526310000001,001,P006,2025_Jan_25_1146,CategoryLocalizer,2021.2.3,59.93317451025591,
22.8,23.0,5,0.0,Stimuli\Blank.png,0,0,0,22,22,22,,,,,,,,,,,,,22.8189026,0.018902600000000547,None,,54.89595759999975,54.89595759999975,54.89595759999975,54.89595759999975,54.89595759999975,54.89595759999975,54.89595759999975,54.89595759999975,001,P006,2025_Jan_25_1146,CategoryLocalizer,2021.2.3,59.93317451025591,
23.0,23.8,1,0.75,Stimuli\ImageFiles-Set1\Objects\Object_TeaBag_00001.png,0,0,0,23,23,23,,,,,,,,,,,,,23.001973600000383,0.0019736000003831577,None,,55.096126899999945,55.096126899999945,55.096126899999945,55.096126899999945,55.096126899999945,55.096126899999945,55.096126899999945,55.096126899999945,001,P006,2025_Jan_25_1146,CategoryLocalizer,2021.2.3,59.93317451025591,
23.8,24.0,5,0.0,Stimuli\Blank.png,0,0,0,24,24,24,,,,,,,,,,,,,23.819057100000464,0.019057100000463123,None,,55.89681910000036,55.89681910000036,55.89681910000036,55.89681910000036,55.89681910000036,55.89681910000036,55.89681910000036,55.89681910000036,001,P006,2025_Jan_25_1146,CategoryLocalizer,2021.2.3,59.93317451025591,
24.0,24.8,1,0.75,Stimuli\ImageFiles-Set1\Objects\Object_Door_00001.png,0,0,0,25,25,25,,,,,,,,,,,,,24.00432020000062,0.004320200000620389,None,,56.11372279999978,56.11372279999978,56.11372279999978,56.11372279999978,56.11372279999978,56.11372279999978,56.11372279999978,56.11372279999978,001,P006,2025_Jan_25_1146,CategoryLocalizer,2021.2.3,59.93317451025591,
24.8,25.0,5,0.0,Stimuli\Blank.png,0,0,0,26,26,26,,,,,,,,,,,,,24.8391014000008,0.0391014000007992,None,,56.93108159999974,56.93108159999974,56.93108159999974,56.93108159999974,56.93108159999974,56.93108159999974,56.93108159999974,56.93108159999974,001,P006,2025_Jan_25_1146,CategoryLocalizer,2021.2.3,59.93317451025591,
25.0,25.8,1,0.75,Stimuli\ImageFiles-Set1\Objects\Object_Pillow_00001.png,0,0,0,27,27,27,,,,,,,,,,,,,25.02092940000057,0.02092940000056842,None,,57.131258600000365,57.131258600000365,57.131258600000365,57.131258600000365,57.131258600000365,57.131258600000365,57.131258600000365,57.131258600000365,001,P006,2025_Jan_25_1146,CategoryLocalizer,2021.2.3,59.93317451025591,
25.8,26.0,5,0.0,Stimuli\Blank.png,0,0,0,28,28,28,,,,,,,,,,,,,25.839642300000378,0.03964230000037716,5,0.12337560000014491,57.93197929999951,57.93197929999951,57.93197929999951,57.93197929999951,57.93197929999951,57.93197929999951,57.93197929999951,57.93197929999951,001,P006,2025_Jan_25_1146,CategoryLocalizer,2021.2.3,59.93317451025591,
26.0,26.8,1,0.75,Stimuli\ImageFiles-Set1\Objects\Object_Whistle_00001.png,0,0,0,29,29,29,,,,,,,,,,,,,26.02126640000006,0.02126640000005864,None,,58.11552539999957,58.11552539999957,58.11552539999957,58.11552539999957,58.11552539999957,58.11552539999957,58.11552539999957,58.11552539999957,001,P006,2025_Jan_25_1146,CategoryLocalizer,2021.2.3,59.93317451025591,
26.8,27.0,5,0.0,Stimuli\Blank.png,0,0,0,30,30,30,,,,,,,,,,,,,26.822310600000492,0.02231060000049112,None,,58.899560400000155,58.899560400000155,58.899560400000155,58.899560400000155,58.899560400000155,58.899560400000155,58.899560400000155,58.899560400000155,001,P006,2025_Jan_25_1146,CategoryLocalizer,2021.2.3,59.93317451025591,
27.0,27.8,1,0.75,Stimuli\ImageFiles-Set1\Objects\Object_Key_00001.png,0,0,0,31,31,31,,,,,,,,,,,,,27.005497000000105,0.00549700000010489,None,,59.08297800000037,59.08297800000037,59.08297800000037,59.08297800000037,59.08297800000037,59.08297800000037,59.08297800000037,59.08297800000037,001,P006,2025_Jan_25_1146,CategoryLocalizer,2021.2.3,59.93317451025591,
27.8,28.0,5,0.0,Stimuli\Blank.png,0,0,0,32,32,32,,,,,,,,,,,,,27.806185500000538,0.006185500000537303,None,,59.88368179999998,59.88368179999998,59.88368179999998,59.88368179999998,59.88368179999998,59.88368179999998,59.88368179999998,59.88368179999998,001,P006,2025_Jan_25_1146,CategoryLocalizer,2021.2.3,59.93317451025591,
28.0,28.8,2,0.75,Stimuli\ImageFiles-Set1\Bodies\Bodies_Lunging_00003.png,0,0,0,33,33,33,,,,,,,,,,,,,28.006860600000437,0.006860600000436534,None,,60.10054149999996,60.10054149999996,60.10054149999996,60.10054149999996,60.10054149999996,60.10054149999996,60.10054149999996,60.10054149999996,001,P006,2025_Jan_25_1146,CategoryLocalizer,2021.2.3,59.93317451025591,
28.8,29.0,5,0.0,Stimuli\Blank.png,0,0,0,34,34,34,,,,,,,,,,,,,28.823931700000685,0.02393170000068423,None,,60.901296099999854,60.901296099999854,60.901296099999854,60.901296099999854,60.901296099999854,60.901296099999854,60.901296099999854,60.901296099999854,001,P006,2025_Jan_25_1146,CategoryLocalizer,2021.2.3,59.93317451025591,
29.0,29.8,2,0.75,Stimuli\ImageFiles-Set1\Bodies\Bodies_QuadStretch_00003.png,0,0,0,35,35,35,,,,,,,,,,,,,29.00918510000065,0.009185100000649982,None,,61.10145000000011,61.10145000000011,61.10145000000011,61.10145000000011,61.10145000000011,61.10145000000011,61.10145000000011,61.10145000000011,001,P006,2025_Jan_25_1146,CategoryLocalizer,2021.2.3,59.93317451025591,
29.8,30.0,5,0.0,Stimuli\Blank.png,0,0,0,36,36,36,,,,,,,,,,,,,29.82450880000033,0.024508800000329956,None,,61.90213609999955,61.90213609999955,61.90213609999955,61.90213609999955,61.90213609999955,61.90213609999955,61.90213609999955,61.90213609999955,001,P006,2025_Jan_25_1146,CategoryLocalizer,2021.2.3,59.93317451025591,
30.0,30.8,2,0.75,Stimuli\ImageFiles-Set1\Bodies\Bodies_Standing_00005.png,0,0,0,37,37,37,,,,,,,,,,,,,30.00978700000087,0.009787000000869739,None,,62.1023266000002,62.1023266000002,62.1023266000002,62.1023266000002,62.1023266000002,62.1023266000002,62.1023266000002,62.1023266000002,001,P006,2025_Jan_25_1146,CategoryLocalizer,2021.2.3,59.93317451025591,
30.8,31.0,5,0.0,Stimuli\Blank.png,0,0,0,38,38,38,,,,,,,,,,,,,30.82505520000086,0.025055200000860367,None,,62.903022800000144,62.903022800000144,62.903022800000144,62.903022800000144,62.903022800000144,62.903022800000144,62.903022800000144,62.903022800000144,001,P006,2025_Jan_25_1146,CategoryLocalizer,2021.2.3,59.93317451025591,
31.0,31.8,2,0.75,Stimuli\ImageFiles-Set1\Bodies\Bodies_Punching_00006.png,0,0,0,39,39,39,,,,,,,,,,,,,31.010027200000877,0.010027200000877201,None,,63.103213100000175,63.103213100000175,63.103213100000175,63.103213100000175,63.103213100000175,63.103213100000175,63.103213100000175,63.103213100000175,001,P006,2025_Jan_25_1146,CategoryLocalizer,2021.2.3,59.93317451025591,
31.8,32.0,5,0.0,Stimuli\Blank.png,0,0,0,40,40,40,,,,,,,,,,,,,31.82683470000029,0.026834700000289757,None,,63.90390149999985,63.90390149999985,63.90390149999985,63.90390149999985,63.90390149999985,63.90390149999985,63.90390149999985,63.90390149999985,001,P006,2025_Jan_25_1146,CategoryLocalizer,2021.2.3,59.93317451025591,
32.0,32.8,2,0.75,Stimuli\ImageFiles-Set1\Bodies\Bodies_SittingFloor_00005.png,0,0,0,41,41,41,,,,,,,,,,,,,32.009865800000625,0.009865800000625313,None,,64.10407359999954,64.10407359999954,64.10407359999954,64.10407359999954,64.10407359999954,64.10407359999954,64.10407359999954,64.10407359999954,001,P006,2025_Jan_25_1146,CategoryLocalizer,2021.2.3,59.93317451025591,
32.8,33.0,5,0.0,Stimuli\Blank.png,0,0,0,42,42,42,,,,,,,,,,,,,32.82920390000072,0.029203900000723593,None,,64.92146849999972,64.92146849999972,64.92146849999972,64.92146849999972,64.92146849999972,64.92146849999972,64.92146849999972,64.92146849999972,001,P006,2025_Jan_25_1146,CategoryLocalizer,2021.2.3,59.93317451025591,
33.0,33.8,2,0.75,Stimuli\ImageFiles-Set1\Bodies\Bodies_Kneeling_00003.png,0,0,0,43,43,43,,,,,,,,,,,,,33.029648000000634,0.029648000000634056,None,,65.12166330000036,65.12166330000036,65.12166330000036,65.12166330000036,65.12166330000036,65.12166330000036,65.12166330000036,65.12166330000036,001,P006,2025_Jan_25_1146,CategoryLocalizer,2021.2.3,59.93317451025591,
33.8,34.0,5,0.0,Stimuli\Blank.png,0,0,0,44,44,44,,,,,,,,,,,,,33.83007530000032,0.03007530000031977,5,0.13292569999975967,65.92234800000006,65.92234800000006,65.92234800000006,65.92234800000006,65.92234800000006,65.92234800000006,65.92234800000006,65.92234800000006,001,P006,2025_Jan_25_1146,CategoryLocalizer,2021.2.3,59.93317451025591,
34.0,34.8,2,0.75,Stimuli\ImageFiles-Set1\Bodies\Bodies_DownwardDog_00005.png,0,0,0,45,45,45,,,,,,,,,,,,,34.029380500000116,0.029380500000115717,None,,66.12253750000036,66.12253750000036,66.12253750000036,66.12253750000036,66.12253750000036,66.12253750000036,66.12253750000036,66.12253750000036,001,P006,2025_Jan_25_1146,CategoryLocalizer,2021.2.3,59.93317451025591,
34.8,35.0,5,0.0,Stimuli\Blank.png,0,0,0,46,46,46,,,,,,,,,,,,,34.8292347000006,0.029234700000600355,None,,66.90655530000004,66.90655530000004,66.90655530000004,66.90655530000004,66.90655530000004,66.90655530000004,66.90655530000004,66.90655530000004,001,P006,2025_Jan_25_1146,CategoryLocalizer,2021.2.3,59.93317451025591,
35.0,35.8,2,0.75,Stimuli\ImageFiles-Set1\Bodies\Bodies_Jumping_00004.png,0,0,0,47,47,47,,,,,,,,,,,,,35.014543200000844,0.014543200000844081,None,,67.12344380000013,67.12344380000013,67.12344380000013,67.12344380000013,67.12344380000013,67.12344380000013,67.12344380000013,67.12344380000013,001,P006,2025_Jan_25_1146,CategoryLocalizer,2021.2.3,59.93317451025591,
35.8,36.0,5,0.0,Stimuli\Blank.png,0,0,0,48,48,48,,,,,,,,,,,,,35.8464969000006,0.046496900000605024,5,0.13119800000004034,67.92411830000037,67.92411830000037,67.92411830000037,67.92411830000037,67.92411830000037,67.92411830000037,67.92411830000037,67.92411830000037,001,P006,2025_Jan_25_1146,CategoryLocalizer,2021.2.3,59.93317451025591,
36.0,36.8,2,0.75,Stimuli\ImageFiles-Set1\Bodies\Bodies_SittingStretch_00002.png,0,0,0,49,49,49,,,,,,,,,,,,,36.01308870000048,0.013088700000480458,None,,68.10763099999986,68.10763099999986,68.10763099999986,68.10763099999986,68.10763099999986,68.10763099999986,68.10763099999986,68.10763099999986,001,P006,2025_Jan_25_1146,CategoryLocalizer,2021.2.3,59.93317451025591,
36.8,37.0,5,0.0,Stimuli\Blank.png,0,0,0,50,50,50,,,,,,,,,,,,,36.831099600000016,0.031099600000018768,None,,68.90831150000031,68.90831150000031,68.90831150000031,68.90831150000031,68.90831150000031,68.90831150000031,68.90831150000031,68.90831150000031,001,P006,2025_Jan_25_1146,CategoryLocalizer,2021.2.3,59.93317451025591,
37.0,37.8,2,0.75,Stimuli\ImageFiles-Set1\Bodies\Bodies_Waving_00005.png,0,0,0,51,51,51,,,,,,,,,,,,,37.015012700000625,0.015012700000625046,None,,69.10849619999954,69.10849619999954,69.10849619999954,69.10849619999954,69.10849619999954,69.10849619999954,69.10849619999954,69.10849619999954,001,P006,2025_Jan_25_1146,CategoryLocalizer,2021.2.3,59.93317451025591,
37.8,38.0,5,0.0,Stimuli\Blank.png,0,0,0,52,52,52,,,,,,,,,,,,,37.81517750000057,0.015177500000575606,5,0.16278999999940424,69.89252560000023,69.89252560000023,69.89252560000023,69.89252560000023,69.89252560000023,69.89252560000023,69.89252560000023,69.89252560000023,001,P006,2025_Jan_25_1146,CategoryLocalizer,2021.2.3,59.93317451025591,
38.0,38.8,2,0.75,Stimuli\ImageFiles-Set1\Bodies\Bodies_Hanging_00002.png,0,0,0,53,53,53,,,,,,,,,,,,,38.01524430000063,0.015244300000631483,None,,70.10939030000009,70.10939030000009,70.10939030000009,70.10939030000009,70.10939030000009,70.10939030000009,70.10939030000009,70.10939030000009,001,P006,2025_Jan_25_1146,CategoryLocalizer,2021.2.3,59.93317451025591,
38.8,39.0,5,0.0,Stimuli\Blank.png,0,0,0,54,54,54,,,,,,,,,,,,,38.81594570000016,0.01594570000015949,None,,70.89339759999984,70.89339759999984,70.89339759999984,70.89339759999984,70.89339759999984,70.89339759999984,70.89339759999984,70.89339759999984,001,P006,2025_Jan_25_1146,CategoryLocalizer,2021.2.3,59.93317451025591,
39.0,39.8,2,0.75,Stimuli\ImageFiles-Set1\Bodies\Bodies_Jumping_00002.png,0,0,0,55,55,55,,,,,,,,,,,,,38.99994570000035,-5.429999964690069e-05,None,,71.09361160000026,71.09361160000026,71.09361160000026,71.09361160000026,71.09361160000026,71.09361160000026,71.09361160000026,71.09361160000026,001,P006,2025_Jan_25_1146,CategoryLocalizer,2021.2.3,59.93317451025591,
39.8,40.0,5,0.0,Stimuli\Blank.png,0,0,0,56,56,56,,,,,,,,,,,,,39.81710280000061,0.017102800000614593,None,,71.89433120000012,71.89433120000012,71.89433120000012,71.89433120000012,71.89433120000012,71.89433120000012,71.89433120000012,71.89433120000012,001,P006,2025_Jan_25_1146,CategoryLocalizer,2021.2.3,59.93317451025591,
40.0,40.8,2,0.75,Stimuli\ImageFiles-Set1\Bodies\Bodies_Running_00006.png,0,0,0,57,57,57,,,,,,,,,,,,,40.00009780000073,9.780000073078554e-05,None,,72.09446479999951,72.09446479999951,72.09446479999951,72.09446479999951,72.09446479999951,72.09446479999951,72.09446479999951,72.09446479999951,001,P006,2025_Jan_25_1146,CategoryLocalizer,2021.2.3,59.93317451025591,
40.8,41.0,5,0.0,Stimuli\Blank.png,0,0,0,58,58,58,,,,,,,,,,,,,40.818104300000414,0.01810430000041663,None,,72.89522899999974,72.89522899999974,72.89522899999974,72.89522899999974,72.89522899999974,72.89522899999974,72.89522899999974,72.89522899999974,001,P006,2025_Jan_25_1146,CategoryLocalizer,2021.2.3,59.93317451025591,
41.0,41.8,2,0.75,Stimuli\ImageFiles-Set1\Bodies\Bodies_Standing_00007.png,0,0,0,59,59,59,,,,,,,,,,,,,41.00131959999999,0.001319599999987986,None,,73.09534220000023,73.09534220000023,73.09534220000023,73.09534220000023,73.09534220000023,73.09534220000023,73.09534220000023,73.09534220000023,001,P006,2025_Jan_25_1146,CategoryLocalizer,2021.2.3,59.93317451025591,
41.8,42.0,5,0.0,Stimuli\Blank.png,0,0,0,60,60,60,,,,,,,,,,,,,41.81880960000035,0.01880960000035259,None,,73.8960718999997,73.8960718999997,73.8960718999997,73.8960718999997,73.8960718999997,73.8960718999997,73.8960718999997,73.8960718999997,001,P006,2025_Jan_25_1146,CategoryLocalizer,2021.2.3,59.93317451025591,
42.0,42.8,2,0.75,Stimuli\ImageFiles-Set1\Bodies\Bodies_Standing_00007.png,1,1,0,61,61,61,,,,,,,,,,,,,42.00435910000033,0.004359100000328908,1,0.30904000000009546,74.09623269999975,74.09623269999975,74.09623269999975,74.09623269999975,74.09623269999975,74.09623269999975,74.09623269999975,74.09623269999975,001,P006,2025_Jan_25_1146,CategoryLocalizer,2021.2.3,59.93317451025591,
42.8,43.0,5,0.0,Stimuli\Blank.png,0,0,0,62,62,62,,,,,,,,,,,,,42.81992850000006,0.019928500000062854,None,,74.89694820000022,74.89694820000022,74.89694820000022,74.89694820000022,74.89694820000022,74.89694820000022,74.89694820000022,74.89694820000022,001,P006,2025_Jan_25_1146,CategoryLocalizer,2021.2.3,59.93317451025591,
43.0,43.8,2,0.75,Stimuli\ImageFiles-Set1\Bodies\Bodies_Pushing_00005.png,0,0,0,63,63,63,,,,,,,,,,,,,43.004574600000524,0.0045746000005237875,None,,75.11379510000006,75.11379510000006,75.11379510000006,75.11379510000006,75.11379510000006,75.11379510000006,75.11379510000006,75.11379510000006,001,P006,2025_Jan_25_1146,CategoryLocalizer,2021.2.3,59.93317451025591,
43.8,44.0,5,0.0,Stimuli\Blank.png,0,0,0,64,64,64,,,,,,,,,,,,,43.83673320000071,0.03673320000071101,None,,75.91449149999971,75.91449149999971,75.91449149999971,75.91449149999971,75.91449149999971,75.91449149999971,75.91449149999971,75.91449149999971,001,P006,2025_Jan_25_1146,CategoryLocalizer,2021.2.3,59.93317451025591,
44.0,44.8,3,0.75,Stimuli\ImageFiles-Set1\Faces\Face_00067.png,0,0,0,65,65,65,,,,,,,,,,,,,44.004313000000366,0.004313000000365719,None,,76.11467679999987,76.11467679999987,76.11467679999987,76.11467679999987,76.11467679999987,76.11467679999987,76.11467679999987,76.11467679999987,001,P006,2025_Jan_25_1146,CategoryLocalizer,2021.2.3,59.93317451025591,
44.8,45.0,5,0.0,Stimuli\Blank.png,0,0,0,66,66,66,,,,,,,,,,,,,44.839573700000074,0.03957370000007643,None,,76.93207989999974,76.93207989999974,76.93207989999974,76.93207989999974,76.93207989999974,76.93207989999974,76.93207989999974,76.93207989999974,001,P006,2025_Jan_25_1146,CategoryLocalizer,2021.2.3,59.93317451025591,
45.0,45.8,3,0.75,Stimuli\ImageFiles-Set1\Faces\Face_00003.png,0,0,0,67,67,67,,,,,,,,,,,,,45.021462700000484,0.021462700000483892,None,,77.11554090000027,77.11554090000027,77.11554090000027,77.11554090000027,77.11554090000027,77.11554090000027,77.11554090000027,77.11554090000027,001,P006,2025_Jan_25_1146,CategoryLocalizer,2021.2.3,59.93317451025591,
45.8,46.0,5,0.0,Stimuli\Blank.png,0,0,0,68,68,68,,,,,,,,,,,,,45.82165990000067,0.021659900000670973,None,,77.89958680000018,77.89958680000018,77.89958680000018,77.89958680000018,77.89958680000018,77.89958680000018,77.89958680000018,77.89958680000018,001,P006,2025_Jan_25_1146,CategoryLocalizer,2021.2.3,59.93317451025591,
46.0,46.8,3,0.75,Stimuli\ImageFiles-Set1\Faces\Face_00103.png,0,0,0,69,69,69,,,,,,,,,,,,,46.005201700000725,0.0052017000007253955,None,,78.09980340000038,78.09980340000038,78.09980340000038,78.09980340000038,78.09980340000038,78.09980340000038,78.09980340000038,78.09980340000038,001,P006,2025_Jan_25_1146,CategoryLocalizer,2021.2.3,59.93317451025591,
46.8,47.0,5,0.0,Stimuli\Blank.png,0,0,0,70,70,70,,,,,,,,,,,,,46.82342840000001,0.02342840000001445,None,,78.90047820000018,78.90047820000018,78.90047820000018,78.90047820000018,78.90047820000018,78.90047820000018,78.90047820000018,78.90047820000018,001,P006,2025_Jan_25_1146,CategoryLocalizer,2021.2.3,59.93317451025591,
47.0,47.8,3,0.75,Stimuli\ImageFiles-Set1\Faces\Face_00103.png,1,1,0,71,71,71,,,,,,,,,,,,,47.006578500000614,0.00657850000061444,1,0.3814744999999675,79.08395659999951,79.08395659999951,79.08395659999951,79.08395659999951,79.08395659999951,79.08395659999951,79.08395659999951,79.08395659999951,001,P006,2025_Jan_25_1146,CategoryLocalizer,2021.2.3,59.93317451025591,
47.8,48.0,5,0.0,Stimuli\Blank.png,0,0,0,72,72,72,,,,,,,,,,,,,47.80926780000027,0.009267800000273496,5,0.15396340000006603,79.90136729999995,79.90136729999995,79.90136729999995,79.90136729999995,79.90136729999995,79.90136729999995,79.90136729999995,79.90136729999995,001,P006,2025_Jan_25_1146,CategoryLocalizer,2021.2.3,59.93317451025591,
48.0,48.8,3,0.75,Stimuli\ImageFiles-Set1\Faces\Face_00115.png,0,0,0,73,73,73,,,,,,,,,,,,,48.02444270000069,0.02444270000069082,None,,80.11821989999953,80.11821989999953,80.11821989999953,80.11821989999953,80.11821989999953,80.11821989999953,80.11821989999953,80.11821989999953,001,P006,2025_Jan_25_1146,CategoryLocalizer,2021.2.3,59.93317451025591,
48.8,49.0,5,0.0,Stimuli\Blank.png,0,0,0,74,74,74,,,,,,,,,,,,,48.82539040000029,0.02539040000029047,None,,80.90223989999959,80.90223989999959,80.90223989999959,80.90223989999959,80.90223989999959,80.90223989999959,80.90223989999959,80.90223989999959,001,P006,2025_Jan_25_1146,CategoryLocalizer,2021.2.3,59.93317451025591,
49.0,49.8,3,0.75,Stimuli\ImageFiles-Set1\Faces\Face_00047.png,0,0,0,75,75,75,,,,,,,,,,,,,49.010145600000214,0.010145600000214472,None,,81.11910720000014,81.11910720000014,81.11910720000014,81.11910720000014,81.11910720000014,81.11910720000014,81.11910720000014,81.11910720000014,001,P006,2025_Jan_25_1146,CategoryLocalizer,2021.2.3,59.93317451025591,
49.8,50.0,5,0.0,Stimuli\Blank.png,0,0,0,76,76,76,,,,,,,,,,,,,49.84224860000086,0.04224860000086039,None,,81.91980059999969,81.91980059999969,81.91980059999969,81.91980059999969,81.91980059999969,81.91980059999969,81.91980059999969,81.91980059999969,001,P006,2025_Jan_25_1146,CategoryLocalizer,2021.2.3,59.93317451025591,
50.0,50.8,3,0.75,Stimuli\ImageFiles-Set1\Faces\Face_00087.png,0,0,0,77,77,77,,,,,,,,,,,,,50.010017000000516,0.010017000000516418,None,,82.10326389999955,82.10326389999955,82.10326389999955,82.10326389999955,82.10326389999955,82.10326389999955,82.10326389999955,82.10326389999955,001,P006,2025_Jan_25_1146,CategoryLocalizer,2021.2.3,59.93317451025591,
50.8,51.0,5,0.0,Stimuli\Blank.png,0,0,0,78,78,78,,,,,,,,,,,,,50.826431700000285,0.026431700000287606,None,,82.90400890000001,82.90400890000001,82.90400890000001,82.90400890000001,82.90400890000001,82.90400890000001,82.90400890000001,82.90400890000001,001,P006,2025_Jan_25_1146,CategoryLocalizer,2021.2.3,59.93317451025591,
51.0,51.8,3,0.75,Stimuli\ImageFiles-Set1\Faces\Face_00012.png,0,0,0,79,79,79,,,,,,,,,,,,,51.0103409000003,0.01034090000030119,None,,83.10417140000027,83.10417140000027,83.10417140000027,83.10417140000027,83.10417140000027,83.10417140000027,83.10417140000027,83.10417140000027,001,P006,2025_Jan_25_1146,CategoryLocalizer,2021.2.3,59.93317451025591,
51.8,52.0,5,0.0,Stimuli\Blank.png,0,0,0,80,80,80,,,,,,,,,,,,,51.82716540000001,0.02716540000001544,5,0.1505061999996542,83.90489230000003,83.90489230000003,83.90489230000003,83.90489230000003,83.90489230000003,83.90489230000003,83.90489230000003,83.90489230000003,001,P006,2025_Jan_25_1146,CategoryLocalizer,2021.2.3,59.93317451025591,
52.0,52.8,3,0.75,Stimuli\ImageFiles-Set1\Faces\Face_00005.png,0,0,0,81,81,81,,,,,,,,,,,,,52.010551000000305,0.010551000000305066,None,,84.10503299999982,84.10503299999982,84.10503299999982,84.10503299999982,84.10503299999982,84.10503299999982,84.10503299999982,84.10503299999982,001,P006,2025_Jan_25_1146,CategoryLocalizer,2021.2.3,59.93317451025591,
52.8,53.0,5,0.0,Stimuli\Blank.png,0,0,0,82,82,82,,,,,,,,,,,,,52.829700300000695,0.02970030000069812,None,,84.92246760000035,84.92246760000035,84.92246760000035,84.92246760000035,84.92246760000035,84.92246760000035,84.92246760000035,84.92246760000035,001,P006,2025_Jan_25_1146,CategoryLocalizer,2021.2.3,59.93317451025591,
53.0,53.8,3,0.75,Stimuli\ImageFiles-Set1\Faces\Face_00073.png,0,0,0,83,83,83,,,,,,,,,,,,,53.0288786000001,0.02887860000009823,None,,85.13931020000018,85.13931020000018,85.13931020000018,85.13931020000018,85.13931020000018,85.13931020000018,85.13931020000018,85.13931020000018,001,P006,2025_Jan_25_1146,CategoryLocalizer,2021.2.3,59.93317451025591,
53.8,54.0,5,0.0,Stimuli\Blank.png,0,0,0,84,84,84,,,,,,,,,,,,,53.845696000000316,0.04569600000031926,5,0.13196659999994154,85.9233347999998,85.9233347999998,85.9233347999998,85.9233347999998,85.9233347999998,85.9233347999998,85.9233347999998,85.9233347999998,001,P006,2025_Jan_25_1146,CategoryLocalizer,2021.2.3,59.93317451025591,
54.0,54.8,3,0.75,Stimuli\ImageFiles-Set1\Faces\Face_00093.png,0,0,0,85,85,85,,,,,,,,,,,,,54.01297910000085,0.01297910000084812,None,,86.10683439999957,86.10683439999957,86.10683439999957,86.10683439999957,86.10683439999957,86.10683439999957,86.10683439999957,86.10683439999957,001,P006,2025_Jan_25_1146,CategoryLocalizer,2021.2.3,59.93317451025591,
54.8,55.0,5,0.0,Stimuli\Blank.png,0,0,0,86,86,86,,,,,,,,,,,,,54.830895500000224,0.030895500000227116,None,,86.90754079999988,86.90754079999988,86.90754079999988,86.90754079999988,86.90754079999988,86.90754079999988,86.90754079999988,86.90754079999988,001,P006,2025_Jan_25_1146,CategoryLocalizer,2021.2.3,59.93317451025591,
55.0,55.8,3,0.75,Stimuli\ImageFiles-Set1\Faces\Face_00009.png,1,1,0,87,87,87,,,,,,,,,,,,,55.01393400000052,0.013934000000517699,None,,87.12440880000031,87.12440880000031,87.12440880000031,87.12440880000031,87.12440880000031,87.12440880000031,87.12440880000031,87.12440880000031,001,P006,2025_Jan_25_1146,CategoryLocalizer,2021.2.3,59.93317451025591,
55.8,56.0,5,0.0,Stimuli\Blank.png,0,0,0,88,88,88,,,,,,,,,,,,,55.84713180000017,0.04713180000017303,5,0.13031339999997726,87.92509259999952,87.92509259999952,87.92509259999952,87.92509259999952,87.92509259999952,87.92509259999952,87.92509259999952,87.92509259999952,001,P006,2025_Jan_25_1146,CategoryLocalizer,2021.2.3,59.93317451025591,
56.0,56.8,3,0.75,Stimuli\ImageFiles-Set1\Faces\Face_00057.png,0,0,0,89,89,89,,,,,,,,,,,,,56.01465690000077,0.014656900000773021,None,,88.1085923999999,88.1085923999999,88.1085923999999,88.1085923999999,88.1085923999999,88.1085923999999,88.1085923999999,88.1085923999999,001,P006,2025_Jan_25_1146,CategoryLocalizer,2021.2.3,59.93317451025591,
56.8,57.0,5,0.0,Stimuli\Blank.png,0,0,0,90,90,90,,,,,,,,,,,,,56.8341231000004,0.034123100000400086,None,,88.92599749999954,88.92599749999954,88.92599749999954,88.92599749999954,88.92599749999954,88.92599749999954,88.92599749999954,88.92599749999954,001,P006,2025_Jan_25_1146,CategoryLocalizer,2021.2.3,59.93317451025591,
57.0,57.8,3,0.75,Stimuli\ImageFiles-Set1\Faces\Face_00057.png,0,0,0,91,91,91,,,,,,,,,,,,,57.01575250000042,0.015752500000417058,1,0.31379310000011174,89.10949259999961,89.10949259999961,89.10949259999961,89.10949259999961,89.10949259999961,89.10949259999961,89.10949259999961,89.10949259999961,001,P006,2025_Jan_25_1146,CategoryLocalizer,2021.2.3,59.93317451025591,
57.8,58.0,5,0.0,Stimuli\Blank.png,0,0,0,92,92,92,,,,,,,,,,,,,57.8156568000004,0.01565680000040004,None,,89.89350230000036,89.89350230000036,89.89350230000036,89.89350230000036,89.89350230000036,89.89350230000036,89.89350230000036,89.89350230000036,001,P006,2025_Jan_25_1146,CategoryLocalizer,2021.2.3,59.93317451025591,
58.0,58.8,3,0.75,Stimuli\ImageFiles-Set1\Faces\Face_00033.png,0,0,0,93,93,93,,,,,,,,,,,,,57.99905690000014,-0.0009430999998585321,None,,90.1103592999998,90.1103592999998,90.1103592999998,90.1103592999998,90.1103592999998,90.1103592999998,90.1103592999998,90.1103592999998,001,P006,2025_Jan_25_1146,CategoryLocalizer,2021.2.3,59.93317451025591,
58.8,59.0,5,0.0,Stimuli\Blank.png,0,0,0,94,94,94,,,,,,,,,,,,,58.834365000000616,0.03436500000061926,None,,90.91107230000034,90.91107230000034,90.91107230000034,90.91107230000034,90.91107230000034,90.91107230000034,90.91107230000034,90.91107230000034,001,P006,2025_Jan_25_1146,CategoryLocalizer,2021.2.3,59.93317451025591,
59.0,59.8,3,0.75,Stimuli\ImageFiles-Set1\Faces\Face_00099.png,0,0,0,95,95,95,,,,,,,,,,,,,59.00040110000009,0.0004011000000900822,None,,91.09458259999974,91.09458259999974,91.09458259999974,91.09458259999974,91.09458259999974,91.09458259999974,91.09458259999974,91.09458259999974,001,P006,2025_Jan_25_1146,CategoryLocalizer,2021.2.3,59.93317451025591,
59.8,60.0,5,0.0,Stimuli\Blank.png,0,0,0,96,96,96,,,,,,,,,,,,,59.819400100000166,0.019400100000169118,5,0.14333059999989928,91.91196709999986,91.91196709999986,91.91196709999986,91.91196709999986,91.91196709999986,91.91196709999986,91.91196709999986,91.91196709999986,001,P006,2025_Jan_25_1146,CategoryLocalizer,2021.2.3,59.93317451025591,
60.0,60.8,4,0.75,Stimuli\ImageFiles-Set1\Scenes\Scenes_051.png,0,0,0,97,97,97,,,,,,,,,,,,,60.01840420000008,0.018404200000077253,None,,92.11212499999965,92.11212499999965,92.11212499999965,92.11212499999965,92.11212499999965,92.11212499999965,92.11212499999965,92.11212499999965,001,P006,2025_Jan_25_1146,CategoryLocalizer,2021.2.3,59.93317451025591,
60.8,61.0,5,0.0,Stimuli\Blank.png,0,0,0,98,98,98,,,,,,,,,,,,,60.81818010000006,0.01818010000006609,None,,92.89615229999981,92.89615229999981,92.89615229999981,92.89615229999981,92.89615229999981,92.89615229999981,92.89615229999981,92.89615229999981,001,P006,2025_Jan_25_1146,CategoryLocalizer,2021.2.3,59.93317451025591,
61.0,61.8,4,0.75,Stimuli\ImageFiles-Set1\Scenes\Scenes_051.png,1,1,0,99,99,99,,,,,,,,,,,,,61.00439640000059,0.004396400000587164,1,0.32223179999982676,93.09632559999955,93.09632559999955,93.09632559999955,93.09632559999955,93.09632559999955,93.09632559999955,93.09632559999955,93.09632559999955,001,P006,2025_Jan_25_1146,CategoryLocalizer,2021.2.3,59.93317451025591,
61.8,62.0,5,0.0,Stimuli\Blank.png,0,0,0,100,100,100,,,,,,,,,,,,,61.820061300000816,0.02006130000081896,None,,93.89704230000007,93.89704230000007,93.89704230000007,93.89704230000007,93.89704230000007,93.89704230000007,93.89704230000007,93.89704230000007,001,P006,2025_Jan_25_1146,CategoryLocalizer,2021.2.3,59.93317451025591,
62.0,62.8,4,0.75,Stimuli\ImageFiles-Set1\Scenes\Scenes_046.png,0,0,0,101,101,101,,,,,,,,,,,,,62.004575200000545,0.00457520000054501,None,,94.09720779999952,94.09720779999952,94.09720779999952,94.09720779999952,94.09720779999952,94.09720779999952,94.09720779999952,94.09720779999952,001,P006,2025_Jan_25_1146,CategoryLocalizer,2021.2.3,59.93317451025591,
62.8,63.0,5,0.0,Stimuli\Blank.png,0,0,0,102,102,102,,,,,,,,,,,,,62.82010740000078,0.02010740000078215,None,,94.89792529999977,94.89792529999977,94.89792529999977,94.89792529999977,94.89792529999977,94.89792529999977,94.89792529999977,94.89792529999977,001,P006,2025_Jan_25_1146,CategoryLocalizer,2021.2.3,59.93317451025591,
63.0,63.8,4,0.75,Stimuli\ImageFiles-Set1\Scenes\Scenes_058.png,0,0,0,103,103,103,,,,,,,,,,,,,63.00410280000051,0.0041028000005098875,None,,95.11477490000016,95.11477490000016,95.11477490000016,95.11477490000016,95.11477490000016,95.11477490000016,95.11477490000016,95.11477490000016,001,P006,2025_Jan_25_1146,CategoryLocalizer,2021.2.3,59.93317451025591,
63.8,64.0,5,0.0,Stimuli\Blank.png,0,0,0,104,104,104,,,,,,,,,,,,,63.83808610000051,0.0380861000005126,None,,95.91548189999958,95.91548189999958,95.91548189999958,95.91548189999958,95.91548189999958,95.91548189999958,95.91548189999958,95.91548189999958,001,P006,2025_Jan_25_1146,CategoryLocalizer,2021.2.3,59.93317451025591,
64.0,64.8,4,0.75,Stimuli\ImageFiles-Set1\Scenes\Scenes_005.png,0,0,0,105,105,105,,,,,,,,,,,,,64.00452920000043,0.004529200000433775,None,,96.1156549999996,96.1156549999996,96.1156549999996,96.1156549999996,96.1156549999996,96.1156549999996,96.1156549999996,96.1156549999996,001,P006,2025_Jan_25_1146,CategoryLocalizer,2021.2.3,59.93317451025591,
64.8,65.0,5,0.0,Stimuli\Blank.png,0,0,0,106,106,106,,,,,,,,,,,,,64.83987740000066,0.03987740000066253,None,,96.91636620000008,96.91636620000008,96.91636620000008,96.91636620000008,96.91636620000008,96.91636620000008,96.91636620000008,96.91636620000008,001,P006,2025_Jan_25_1146,CategoryLocalizer,2021.2.3,59.93317451025591,
65.0,65.8,4,0.75,Stimuli\ImageFiles-Set1\Scenes\Scenes_048.png,0,0,0,107,107,107,,,,,,,,,,,,,65.00591770000028,0.005917700000281911,None,,97.0998569000003,97.0998569000003,97.0998569000003,97.0998569000003,97.0998569000003,97.0998569000003,97.0998569000003,97.0998569000003,001,P006,2025_Jan_25_1146,CategoryLocalizer,2021.2.3,59.93317451025591,
65.8,66.0,5,0.0,Stimuli\Blank.png,0,0,0,108,108,108,,,,,,,,,,,,,65.8234921000003,0.023492100000297,None,,97.90057650000017,97.90057650000017,97.90057650000017,97.90057650000017,97.90057650000017,97.90057650000017,97.90057650000017,97.90057650000017,001,P006,2025_Jan_25_1146,CategoryLocalizer,2021.2.3,59.93317451025591,
66.0,66.8,4,0.75,Stimuli\ImageFiles-Set1\Scenes\Scenes_003.png,0,0,0,109,109,109,,,,,,,,,,,,,66.00642230000085,0.006422300000849646,None,,98.10079760000008,98.10079760000008,98.10079760000008,98.10079760000008,98.10079760000008,98.10079760000008,98.10079760000008,98.10079760000008,001,P006,2025_Jan_25_1146,CategoryLocalizer,2021.2.3,59.93317451025591,
66.8,67.0,5,0.0,Stimuli\Blank.png,0,0,0,110,110,110,,,,,,,,,,,,,66.82490490000055,0.0249049000005499,None,,98.90145990000019,98.90145990000019,98.90145990000019,98.90145990000019,98.90145990000019,98.90145990000019,98.90145990000019,98.90145990000019,001,P006,2025_Jan_25_1146,CategoryLocalizer,2021.2.3,59.93317451025591,
67.0,67.8,4,0.75,Stimuli\ImageFiles-Set1\Scenes\Scenes_033.png,0,0,0,111,111,111,,,,,,,,,,,,,67.0069495000007,0.006949500000700937,None,,99.10162029999992,99.10162029999992,99.10162029999992,99.10162029999992,99.10162029999992,99.10162029999992,99.10162029999992,99.10162029999992,001,P006,2025_Jan_25_1146,CategoryLocalizer,2021.2.3,59.93317451025591,
67.8,68.0,5,0.0,Stimuli\Blank.png,0,0,0,112,112,112,,,,,,,,,,,,,67.82495540000036,0.024955400000365557,None,,99.90234549999968,99.90234549999968,99.90234549999968,99.90234549999968,99.90234549999968,99.90234549999968,99.90234549999968,99.90234549999968,001,P006,2025_Jan_25_1146,CategoryLocalizer,2021.2.3,59.93317451025591,
68.0,68.8,4,0.75,Stimuli\ImageFiles-Set1\Scenes\Scenes_025.png,0,0,0,113,113,113,,,,,,,,,,,,,68.00976940000055,0.009769400000550377,None,,100.11919039999975,100.11919039999975,100.11919039999975,100.11919039999975,100.11919039999975,100.11919039999975,100.11919039999975,100.11919039999975,001,P006,2025_Jan_25_1146,CategoryLocalizer,2021.2.3,59.93317451025591,
68.8,69.0,5,0.0,Stimuli\Blank.png,0,0,0,114,114,114,,,,,,,,,,,,,68.84264280000025,0.04264280000025167,None,,100.9199066000001,100.9199066000001,100.9199066000001,100.9199066000001,100.9199066000001,100.9199066000001,100.9199066000001,100.9199066000001,001,P006,2025_Jan_25_1146,CategoryLocalizer,2021.2.3,59.93317451025591,
69.0,69.8,4,0.75,Stimuli\ImageFiles-Set1\Scenes\Scenes_045.png,0,0,0,115,115,115,,,,,,,,,,,,,69.00904720000017,0.009047200000168232,None,,101.1200689999996,101.1200689999996,101.1200689999996,101.1200689999996,101.1200689999996,101.1200689999996,101.1200689999996,101.1200689999996,001,P006,2025_Jan_25_1146,CategoryLocalizer,2021.2.3,59.93317451025591,
69.8,70.0,5,0.0,Stimuli\Blank.png,0,0,0,116,116,116,,,,,,,,,,,,,69.84333570000035,0.04333570000035536,5,0.1345078000003923,101.92082769999979,101.92082769999979,101.92082769999979,101.92082769999979,101.92082769999979,101.92082769999979,101.92082769999979,101.92082769999979,001,P006,2025_Jan_25_1146,CategoryLocalizer,2021.2.3,59.93317451025591,
70.0,70.8,4,0.75,Stimuli\ImageFiles-Set1\Scenes\Scenes_008.png,0,0,0,117,117,117,,,,,,,,,,,,,70.01018940000085,0.01018940000085422,None,,102.10429939999995,102.10429939999995,102.10429939999995,102.10429939999995,102.10429939999995,102.10429939999995,102.10429939999995,102.10429939999995,001,P006,2025_Jan_25_1146,CategoryLocalizer,2021.2.3,59.93317451025591,
70.8,71.0,5,0.0,Stimuli\Blank.png,0,0,0,118,118,118,,,,,,,,,,,,,70.82965950000016,0.029659500000164485,None,,102.92168570000013,102.92168570000013,102.92168570000013,102.92168570000013,102.92168570000013,102.92168570000013,102.92168570000013,102.92168570000013,001,P006,2025_Jan_25_1146,CategoryLocalizer,2021.2.3,59.93317451025591,
71.0,71.8,4,0.75,Stimuli\ImageFiles-Set1\Scenes\Scenes_047.png,0,0,0,119,119,119,,,,,,,,,,,,,71.02905040000041,0.02905040000041481,None,,103.13854100000026,103.13854100000026,103.13854100000026,103.13854100000026,103.13854100000026,103.13854100000026,103.13854100000026,103.13854100000026,001,P006,2025_Jan_25_1146,CategoryLocalizer,2021.2.3,59.93317451025591,
71.8,72.0,5,0.0,Stimuli\Blank.png,0,0,0,120,120,120,,,,,,,,,,,,,71.84532520000084,0.045325200000846166,5,0.13263850000021193,103.92263470000034,103.92263470000034,103.92263470000034,103.92263470000034,103.92263470000034,103.92263470000034,103.92263470000034,103.92263470000034,001,P006,2025_Jan_25_1146,CategoryLocalizer,2021.2.3,59.93317451025591,
72.0,72.8,4,0.75,Stimuli\ImageFiles-Set1\Scenes\Scenes_029.png,0,0,0,121,121,121,,,,,,,,,,,,,72.01226230000066,0.012262300000656978,None,,104.10604189999958,104.10604189999958,104.10604189999958,104.10604189999958,104.10604189999958,104.10604189999958,104.10604189999958,104.10604189999958,001,P006,2025_Jan_25_1146,CategoryLocalizer,2021.2.3,59.93317451025591,
72.8,73.0,5,0.0,Stimuli\Blank.png,0,0,0,122,122,122,,,,,,,,,,,,,72.8300661000003,0.030066100000297524,None,,104.9067627000004,104.9067627000004,104.9067627000004,104.9067627000004,104.9067627000004,104.9067627000004,104.9067627000004,104.9067627000004,001,P006,2025_Jan_25_1146,CategoryLocalizer,2021.2.3,59.93317451025591,
73.0,73.8,4,0.75,Stimuli\ImageFiles-Set1\Scenes\Scenes_015.png,1,1,0,123,123,123,,,,,,,,,,,,,73.01344400000016,0.013444000000163214,None,,105.12362810000013,105.12362810000013,105.12362810000013,105.12362810000013,105.12362810000013,105.12362810000013,105.12362810000013,105.12362810000013,001,P006,2025_Jan_25_1146,CategoryLocalizer,2021.2.3,59.93317451025591,
73.8,74.0,5,0.0,Stimuli\Blank.png,0,0,0,124,124,124,,,,,,,,,,,,,73.84707700000035,0.04707700000035686,5,0.13087610000002314,105.9243918000002,105.9243918000002,105.9243918000002,105.9243918000002,105.9243918000002,105.9243918000002,105.9243918000002,105.9243918000002,001,P006,2025_Jan_25_1146,CategoryLocalizer,2021.2.3,59.93317451025591,
74.0,74.8,4,0.75,Stimuli\ImageFiles-Set1\Scenes\Scenes_009.png,0,0,0,125,125,125,,,,,,,,,,,,,74.01411420000022,0.0141142000002219,None,,106.12450780000017,106.12450780000017,106.12450780000017,106.12450780000017,106.12450780000017,106.12450780000017,106.12450780000017,106.12450780000017,001,P006,2025_Jan_25_1146,CategoryLocalizer,2021.2.3,59.93317451025591,
74.8,75.0,5,0.0,Stimuli\Blank.png,0,0,0,126,126,126,,,,,,,,,,,,,74.84915910000018,0.049159100000181866,None,,106.94189219999953,106.94189219999953,106.94189219999953,106.94189219999953,106.94189219999953,106.94189219999953,106.94189219999953,106.94189219999953,001,P006,2025_Jan_25_1146,CategoryLocalizer,2021.2.3,59.93317451025591,
75.0,75.8,4,0.75,Stimuli\ImageFiles-Set1\Scenes\Scenes_009.png,0,0,0,127,127,127,,,,,,,,,,,,,75.01547930000015,0.015479300000151852,1,0.3147089000003689,107.10868969999956,107.10868969999956,107.10868969999956,107.10868969999956,107.10868969999956,107.10868969999956,107.10868969999956,107.10868969999956,001,P006,2025_Jan_25_1146,CategoryLocalizer,2021.2.3,59.93317451025591,
75.8,76.0,5,0.0,Stimuli\Blank.png,0,0,0,128,128,128,,,,,,,,,,,,,75.81501720000051,0.015017200000514208,5,0.162587199999507,107.89271720000033,107.89271720000033,107.89271720000033,107.89271720000033,107.89271720000033,107.89271720000033,107.89271720000033,107.89271720000033,001,P006,2025_Jan_25_1146,CategoryLocalizer,2021.2.3,59.93317451025591,
76.0,88.0,0,0.0,Stimuli\Blank.png,0,0,0,129,129,129,,,,,,,,,,,,,76.0152323000002,0.015232300000207033,5,11.962448500000392,108.09289809999973,108.09289809999973,108.09289809999973,108.09289809999973,108.09289809999973,108.09289809999973,108.09289809999973,108.09289809999973,001,P006,2025_Jan_25_1146,CategoryLocalizer,2021.2.3,59.93317451025591,
88.0,88.8,3,0.75,Stimuli\ImageFiles-Set1\Faces\Face_00024.png,0,0,0,130,130,130,,,,,,,,,,,,,88.00885110000036,0.008851100000356382,None,,120.10350310000013,120.10350310000013,120.10350310000013,120.10350310000013,120.10350310000013,120.10350310000013,120.10350310000013,120.10350310000013,001,P006,2025_Jan_25_1146,CategoryLocalizer,2021.2.3,59.93317451025591,
88.8,89.0,5,0.0,Stimuli\Blank.png,0,0,0,131,131,131,,,,,,,,,,,,,88.82693430000018,0.02693430000017827,None,,120.90419939999992,120.90419939999992,120.90419939999992,120.90419939999992,120.90419939999992,120.90419939999992,120.90419939999992,120.90419939999992,001,P006,2025_Jan_25_1146,CategoryLocalizer,2021.2.3,59.93317451025591,
89.0,89.8,3,0.75,Stimuli\ImageFiles-Set1\Faces\Face_00027.png,0,0,0,132,132,132,,,,,,,,,,,,,89.01055910000014,0.010559100000136823,None,,121.10447180000028,121.10447180000028,121.10447180000028,121.10447180000028,121.10447180000028,121.10447180000028,121.10447180000028,121.10447180000028,001,P006,2025_Jan_25_1146,CategoryLocalizer,2021.2.3,59.93317451025591,
89.8,90.0,5,0.0,Stimuli\Blank.png,0,0,0,133,133,133,,,,,,,,,,,,,89.82810520000021,0.028105200000211994,5,0.14967350000006263,121.90556190000007,121.90556190000007,121.90556190000007,121.90556190000007,121.90556190000007,121.90556190000007,121.90556190000007,121.90556190000007,001,P006,2025_Jan_25_1146,CategoryLocalizer,2021.2.3,59.93317451025591,
90.0,90.8,3,0.75,Stimuli\ImageFiles-Set1\Faces\Face_00061.png,0,0,0,134,134,134,,,,,,,,,,,,,90.01086770000074,0.010867700000744662,None,,122.10531040000023,122.10531040000023,122.10531040000023,122.10531040000023,122.10531040000023,122.10531040000023,122.10531040000023,122.10531040000023,001,P006,2025_Jan_25_1146,CategoryLocalizer,2021.2.3,59.93317451025591,
90.8,91.0,5,0.0,Stimuli\Blank.png,0,0,0,135,135,135,,,,,,,,,,,,,90.82884220000051,0.028842200000511298,None,,122.90597669999988,122.90597669999988,122.90597669999988,122.90597669999988,122.90597669999988,122.90597669999988,122.90597669999988,122.90597669999988,001,P006,2025_Jan_25_1146,CategoryLocalizer,2021.2.3,59.93317451025591,
91.0,91.8,3,0.75,Stimuli\ImageFiles-Set1\Faces\Face_00119.png,0,0,0,136,136,136,,,,,,,,,,,,,91.01186980000057,0.01186980000056792,None,,123.10615940000025,123.10615940000025,123.10615940000025,123.10615940000025,123.10615940000025,123.10615940000025,123.10615940000025,123.10615940000025,001,P006,2025_Jan_25_1146,CategoryLocalizer,2021.2.3,59.93317451025591,
91.8,92.0,5,0.0,Stimuli\Blank.png,0,0,0,137,137,137,,,,,,,,,,,,,91.82977740000024,0.029777400000241983,5,0.14845419999983278,123.90685839999969,123.90685839999969,123.90685839999969,123.90685839999969,123.90685839999969,123.90685839999969,123.90685839999969,123.90685839999969,001,P006,2025_Jan_25_1146,CategoryLocalizer,2021.2.3,59.93317451025591,
92.0,92.8,3,0.75,Stimuli\ImageFiles-Set1\Faces\Face_00051.png,0,0,0,138,138,138,,,,,,,,,,,,,92.01291610000044,0.012916100000438746,None,,124.1070292000004,124.1070292000004,124.1070292000004,124.1070292000004,124.1070292000004,124.1070292000004,124.1070292000004,124.1070292000004,001,P006,2025_Jan_25_1146,CategoryLocalizer,2021.2.3,59.93317451025591,
92.8,93.0,5,0.0,Stimuli\Blank.png,0,0,0,139,139,139,,,,,,,,,,,,,92.83017130000007,0.030171300000077395,None,,124.9077299999999,124.9077299999999,124.9077299999999,124.9077299999999,124.9077299999999,124.9077299999999,124.9077299999999,124.9077299999999,001,P006,2025_Jan_25_1146,CategoryLocalizer,2021.2.3,59.93317451025591,
93.0,93.8,3,0.75,Stimuli\ImageFiles-Set1\Faces\Face_00045.png,0,0,0,140,140,140,,,,,,,,,,,,,93.01416920000065,0.014169200000651472,None,,125.10793310000008,125.10793310000008,125.10793310000008,125.10793310000008,125.10793310000008,125.10793310000008,125.10793310000008,125.10793310000008,001,P006,2025_Jan_25_1146,CategoryLocalizer,2021.2.3,59.93317451025591,
93.8,94.0,5,0.0,Stimuli\Blank.png,0,0,0,141,141,141,,,,,,,,,,,,,93.8313074000007,0.031307400000699204,5,0.1467278999998598,125.9086169000002,125.9086169000002,125.9086169000002,125.9086169000002,125.9086169000002,125.9086169000002,125.9086169000002,125.9086169000002,001,P006,2025_Jan_25_1146,CategoryLocalizer,2021.2.3,59.93317451025591,
94.0,94.8,3,0.75,Stimuli\ImageFiles-Set1\Faces\Face_00097.png,0,0,0,142,142,142,,,,,,,,,,,,,94.01473850000002,0.014738500000021304,None,,126.1088178,126.1088178,126.1088178,126.1088178,126.1088178,126.1088178,126.1088178,126.1088178,001,P006,2025_Jan_25_1146,CategoryLocalizer,2021.2.3,59.93317451025591,
94.8,95.0,5,0.0,Stimuli\Blank.png,0,0,0,143,143,143,,,,,,,,,,,,,94.8319248000007,0.0319248000007093,None,,126.90950100000009,126.90950100000009,126.90950100000009,126.90950100000009,126.90950100000009,126.90950100000009,126.90950100000009,126.90950100000009,001,P006,2025_Jan_25_1146,CategoryLocalizer,2021.2.3,59.93317451025591,
95.0,95.8,3,0.75,Stimuli\ImageFiles-Set1\Faces\Face_00063.png,0,0,0,144,144,144,,,,,,,,,,,,,95.01543540000057,0.015435400000569643,None,,127.10969449999993,127.10969449999993,127.10969449999993,127.10969449999993,127.10969449999993,127.10969449999993,127.10969449999993,127.10969449999993,001,P006,2025_Jan_25_1146,CategoryLocalizer,2021.2.3,59.93317451025591,
95.8,96.0,5,0.0,Stimuli\Blank.png,0,0,0,145,145,145,,,,,,,,,,,,,95.81636510000044,0.016365100000442112,None,,127.8937036999996,127.8937036999996,127.8937036999996,127.8937036999996,127.8937036999996,127.8937036999996,127.8937036999996,127.8937036999996,001,P006,2025_Jan_25_1146,CategoryLocalizer,2021.2.3,59.93317451025591,
96.0,96.8,3,0.75,Stimuli\ImageFiles-Set1\Faces\Face_00007.png,0,0,0,146,146,146,,,,,,,,,,,,,96.00012700000025,0.00012700000024779,None,,128.09385329999986,128.09385329999986,128.09385329999986,128.09385329999986,128.09385329999986,128.09385329999986,128.09385329999986,128.09385329999986,001,P006,2025_Jan_25_1146,CategoryLocalizer,2021.2.3,59.93317451025591,
96.8,97.0,5,0.0,Stimuli\Blank.png,0,0,0,147,147,147,,,,,,,,,,,,,96.81674980000025,0.016749800000255277,None,,128.89458319999994,128.89458319999994,128.89458319999994,128.89458319999994,128.89458319999994,128.89458319999994,128.89458319999994,128.89458319999994,001,P006,2025_Jan_25_1146,CategoryLocalizer,2021.2.3,59.93317451025591,
97.0,97.8,3,0.75,Stimuli\ImageFiles-Set1\Faces\Face_00075.png,0,0,0,148,148,148,,,,,,,,,,,,,97.00033180000082,0.00033180000082211336,None,,129.09479490000012,129.09479490000012,129.09479490000012,129.09479490000012,129.09479490000012,129.09479490000012,129.09479490000012,129.09479490000012,001,P006,2025_Jan_25_1146,CategoryLocalizer,2021.2.3,59.93317451025591,
97.8,98.0,5,0.0,Stimuli\Blank.png,0,0,0,149,149,149,,,,,,,,,,,,,97.82008340000084,0.020083400000842744,5,0.14312690000042494,129.9121710999998,129.9121710999998,129.9121710999998,129.9121710999998,129.9121710999998,129.9121710999998,129.9121710999998,129.9121710999998,001,P006,2025_Jan_25_1146,CategoryLocalizer,2021.2.3,59.93317451025591,
98.0,98.8,3,0.75,Stimuli\ImageFiles-Set1\Faces\Face_00018.png,0,0,0,150,150,150,,,,,,,,,,,,,98.01873530000012,0.018735300000116695,None,,130.1290128999999,130.1290128999999,130.1290128999999,130.1290128999999,130.1290128999999,130.1290128999999,130.1290128999999,130.1290128999999,001,P006,2025_Jan_25_1146,CategoryLocalizer,2021.2.3,59.93317451025591,
98.8,99.0,5,0.0,Stimuli\Blank.png,0,0,0,151,151,151,,,,,,,,,,,,,98.8353487000004,0.035348700000398026,None,,130.91304159999981,130.91304159999981,130.91304159999981,130.91304159999981,130.91304159999981,130.91304159999981,130.91304159999981,130.91304159999981,001,P006,2025_Jan_25_1146,CategoryLocalizer,2021.2.3,59.93317451025591,
99.0,99.8,3,0.75,Stimuli\ImageFiles-Set1\Faces\Face_00018.png,1,1,0,152,152,152,,,,,,,,,,,,,99.00435920000018,0.004359200000180863,1,0.3987351000005219,131.09652749999987,131.09652749999987,131.09652749999987,131.09652749999987,131.09652749999987,131.09652749999987,131.09652749999987,131.09652749999987,001,P006,2025_Jan_25_1146,CategoryLocalizer,2021.2.3,59.93317451025591,
99.8,100.0,5,0.0,Stimuli\Blank.png,0,0,0,153,153,153,,,,,,,,,,,,,99.81999730000007,0.01999730000007105,None,,131.89724659999956,131.89724659999956,131.89724659999956,131.89724659999956,131.89724659999956,131.89724659999956,131.89724659999956,131.89724659999956,001,P006,2025_Jan_25_1146,CategoryLocalizer,2021.2.3,59.93317451025591,
100.0,100.8,3,0.75,Stimuli\ImageFiles-Set1\Faces\Face_00039.png,0,0,0,154,154,154,,,,,,,,,,,,,100.00475950000055,0.004759500000545813,None,,132.11409559999993,132.11409559999993,132.11409559999993,132.11409559999993,132.11409559999993,132.11409559999993,132.11409559999993,132.11409559999993,001,P006,2025_Jan_25_1146,CategoryLocalizer,2021.2.3,59.93317451025591,
100.8,101.0,5,0.0,Stimuli\Blank.png,0,0,0,155,155,155,,,,,,,,,,,,,100.83906550000029,0.039065500000290854,None,,132.9315004,132.9315004,132.9315004,132.9315004,132.9315004,132.9315004,132.9315004,132.9315004,001,P006,2025_Jan_25_1146,CategoryLocalizer,2021.2.3,59.93317451025591,
101.0,101.8,3,0.75,Stimuli\ImageFiles-Set1\Faces\Face_00091.png,0,0,0,156,156,156,,,,,,,,,,,,,101.02085250000073,0.02085250000072847,None,,133.11499240000012,133.11499240000012,133.11499240000012,133.11499240000012,133.11499240000012,133.11499240000012,133.11499240000012,133.11499240000012,001,P006,2025_Jan_25_1146,CategoryLocalizer,2021.2.3,59.93317451025591,
101.8,102.0,5,0.0,Stimuli\Blank.png,0,0,0,157,157,157,,,,,,,,,,,,,101.82185770000069,0.021857700000694535,None,,133.8989991999997,133.8989991999997,133.8989991999997,133.8989991999997,133.8989991999997,133.8989991999997,133.8989991999997,133.8989991999997,001,P006,2025_Jan_25_1146,CategoryLocalizer,2021.2.3,59.93317451025591,
102.0,102.8,3,0.75,Stimuli\ImageFiles-Set1\Faces\Face_00107.png,0,0,0,158,158,158,,,,,,,,,,,,,102.00521730000037,0.005217300000367686,None,,134.0991995000004,134.0991995000004,134.0991995000004,134.0991995000004,134.0991995000004,134.0991995000004,134.0991995000004,134.0991995000004,001,P006,2025_Jan_25_1146,CategoryLocalizer,2021.2.3,59.93317451025591,
102.8,103.0,5,0.0,Stimuli\Blank.png,0,0,0,159,159,159,,,,,,,,,,,,,102.82277150000027,0.022771500000274614,None,,134.89990000000034,134.89990000000034,134.89990000000034,134.89990000000034,134.89990000000034,134.89990000000034,134.89990000000034,134.89990000000034,001,P006,2025_Jan_25_1146,CategoryLocalizer,2021.2.3,59.93317451025591,
103.0,103.8,3,0.75,Stimuli\ImageFiles-Set1\Faces\Face_00065.png,0,0,0,160,160,160,,,,,,,,,,,,,103.00578400000086,0.005784000000858214,None,,135.1000871999995,135.1000871999995,135.1000871999995,135.1000871999995,135.1000871999995,135.1000871999995,135.1000871999995,135.1000871999995,001,P006,2025_Jan_25_1146,CategoryLocalizer,2021.2.3,59.93317451025591,
103.8,104.0,5,0.0,Stimuli\Blank.png,0,0,0,161,161,161,,,,,,,,,,,,,103.82529290000002,0.025292900000025043,5,0.1378819999999905,135.91745360000004,135.91745360000004,135.91745360000004,135.91745360000004,135.91745360000004,135.91745360000004,135.91745360000004,135.91745360000004,001,P006,2025_Jan_25_1146,CategoryLocalizer,2021.2.3,59.93317451025591,
104.0,104.8,1,0.75,Stimuli\ImageFiles-Set1\Objects\Object_Stool_00001.png,0,0,0,162,162,162,,,,,,,,,,,,,104.02312970000003,0.023129700000026787,None,,136.1176319999995,136.1176319999995,136.1176319999995,136.1176319999995,136.1176319999995,136.1176319999995,136.1176319999995,136.1176319999995,001,P006,2025_Jan_25_1146,CategoryLocalizer,2021.2.3,59.93317451025591,
104.8,105.0,5,0.0,Stimuli\Blank.png,0,0,0,163,163,163,,,,,,,,,,,,,104.82406190000074,0.024061900000745595,None,,136.90164840000034,136.90164840000034,136.90164840000034,136.90164840000034,136.90164840000034,136.90164840000034,136.90164840000034,136.90164840000034,001,P006,2025_Jan_25_1146,CategoryLocalizer,2021.2.3,59.93317451025591,
105.0,105.8,1,0.75,Stimuli\ImageFiles-Set1\Objects\Object_Pipe_00001.png,0,0,0,164,164,164,,,,,,,,,,,,,105.0092736000006,0.009273600000597071,None,,137.10183760000018,137.10183760000018,137.10183760000018,137.10183760000018,137.10183760000018,137.10183760000018,137.10183760000018,137.10183760000018,001,P006,2025_Jan_25_1146,CategoryLocalizer,2021.2.3,59.93317451025591,
105.8,106.0,5,0.0,Stimuli\Blank.png,0,0,0,165,165,165,,,,,,,,,,,,,105.82505000000037,0.025050000000376826,None,,137.90253289999964,137.90253289999964,137.90253289999964,137.90253289999964,137.90253289999964,137.90253289999964,137.90253289999964,137.90253289999964,001,P006,2025_Jan_25_1146,CategoryLocalizer,2021.2.3,59.93317451025591,
106.0,106.8,1,0.75,Stimuli\ImageFiles-Set1\Objects\Object_Screw_00001.png,0,0,0,166,166,166,,,,,,,,,,,,,106.00843130000067,0.008431300000665942,None,,138.10270729999957,138.10270729999957,138.10270729999957,138.10270729999957,138.10270729999957,138.10270729999957,138.10270729999957,138.10270729999957,001,P006,2025_Jan_25_1146,CategoryLocalizer,2021.2.3,59.93317451025591,
106.8,107.0,5,0.0,Stimuli\Blank.png,0,0,0,167,167,167,,,,,,,,,,,,,106.82604250000077,0.02604250000077002,None,,138.9034173,138.9034173,138.9034173,138.9034173,138.9034173,138.9034173,138.9034173,138.9034173,001,P006,2025_Jan_25_1146,CategoryLocalizer,2021.2.3,59.93317451025591,
107.0,107.8,1,0.75,Stimuli\ImageFiles-Set1\Objects\Object_Baseball_00001.png,0,0,0,168,168,168,,,,,,,,,,,,,107.00944230000005,0.009442300000046089,None,,139.10356820000015,139.10356820000015,139.10356820000015,139.10356820000015,139.10356820000015,139.10356820000015,139.10356820000015,139.10356820000015,001,P006,2025_Jan_25_1146,CategoryLocalizer,2021.2.3,59.93317451025591,
107.8,108.0,5,0.0,Stimuli\Blank.png,0,0,0,169,169,169,,,,,,,,,,,,,107.8268179000006,0.026817900000608574,5,0.1509673999998995,139.9042969000002,139.9042969000002,139.9042969000002,139.9042969000002,139.9042969000002,139.9042969000002,139.9042969000002,139.9042969000002,001,P006,2025_Jan_25_1146,CategoryLocalizer,2021.2.3,59.93317451025591,
108.0,108.8,1,0.75,Stimuli\ImageFiles-Set1\Objects\Object_Motorcycle_00001.png,0,0,0,170,170,170,,,,,,,,,,,,,108.0107209000007,0.010720900000706024,None,,140.10460129999956,140.10460129999956,140.10460129999956,140.10460129999956,140.10460129999956,140.10460129999956,140.10460129999956,140.10460129999956,001,P006,2025_Jan_25_1146,CategoryLocalizer,2021.2.3,59.93317451025591,
108.8,109.0,5,0.0,Stimuli\Blank.png,0,0,0,171,171,171,,,,,,,,,,,,,108.82960450000064,0.029604500000644407,None,,140.9218848999999,140.9218848999999,140.9218848999999,140.9218848999999,140.9218848999999,140.9218848999999,140.9218848999999,140.9218848999999,001,P006,2025_Jan_25_1146,CategoryLocalizer,2021.2.3,59.93317451025591,
109.0,109.8,1,0.75,Stimuli\ImageFiles-Set1\Objects\Object_Motorcycle_00001.png,1,1,0,172,172,172,,,,,,,,,,,,,109.02902430000086,0.029024300000855874,1,0.3469783999998981,141.1053576000004,141.1053576000004,141.1053576000004,141.1053576000004,141.1053576000004,141.1053576000004,141.1053576000004,141.1053576000004,001,P006,2025_Jan_25_1146,CategoryLocalizer,2021.2.3,59.93317451025591,
109.8,110.0,5,0.0,Stimuli\Blank.png,0,0,0,173,173,173,,,,,,,,,,,,,109.81282470000042,0.01282470000042224,5,0.165808200000356,141.88938979999966,141.88938979999966,141.88938979999966,141.88938979999966,141.88938979999966,141.88938979999966,141.88938979999966,141.88938979999966,001,P006,2025_Jan_25_1146,CategoryLocalizer,2021.2.3,59.93317451025591,
110.0,110.8,1,0.75,Stimuli\ImageFiles-Set1\Objects\Object_GarbageCan_00001.png,0,0,0,174,174,174,,,,,,,,,,,,,110.01246560000072,0.012465600000723498,None,,142.1062753999995,142.1062753999995,142.1062753999995,142.1062753999995,142.1062753999995,142.1062753999995,142.1062753999995,142.1062753999995,001,P006,2025_Jan_25_1146,CategoryLocalizer,2021.2.3,59.93317451025591,
110.8,111.0,5,0.0,Stimuli\Blank.png,0,0,0,175,175,175,,,,,,,,,,,,,110.8290407000004,0.029040700000408037,None,,142.90694799999983,142.90694799999983,142.90694799999983,142.90694799999983,142.90694799999983,142.90694799999983,142.90694799999983,142.90694799999983,001,P006,2025_Jan_25_1146,CategoryLocalizer,2021.2.3,59.93317451025591,
111.0,111.8,1,0.75,Stimuli\ImageFiles-Set1\Objects\Object_Nightstand_00001.png,0,0,0,176,176,176,,,,,,,,,,,,,111.0142863000001,0.014286300000094343,None,,143.1238169999997,143.1238169999997,143.1238169999997,143.1238169999997,143.1238169999997,143.1238169999997,143.1238169999997,143.1238169999997,001,P006,2025_Jan_25_1146,CategoryLocalizer,2021.2.3,59.93317451025591,
111.8,112.0,5,0.0,Stimuli\Blank.png,0,0,0,177,177,177,,,,,,,,,,,,,111.84900110000035,0.049001100000353404,5,0.11403319999953965,143.94120180000027,143.94120180000027,143.94120180000027,143.94120180000027,143.94120180000027,143.94120180000027,143.94120180000027,143.94120180000027,001,P006,2025_Jan_25_1146,CategoryLocalizer,2021.2.3,59.93317451025591,
112.0,112.8,1,0.75,Stimuli\ImageFiles-Set1\Objects\Object_Glasses_00001.png,0,0,0,178,178,178,,,,,,,,,,,,,112.01390600000013,0.013906000000133645,None,,144.1080291999997,144.1080291999997,144.1080291999997,144.1080291999997,144.1080291999997,144.1080291999997,144.1080291999997,144.1080291999997,001,P006,2025_Jan_25_1146,CategoryLocalizer,2021.2.3,59.93317451025591,
112.8,113.0,5,0.0,Stimuli\Blank.png,0,0,0,179,179,179,,,,,,,,,,,,,112.83083660000011,0.030836600000114345,None,,144.9087159999999,144.9087159999999,144.9087159999999,144.9087159999999,144.9087159999999,144.9087159999999,144.9087159999999,144.9087159999999,001,P006,2025_Jan_25_1146,CategoryLocalizer,2021.2.3,59.93317451025591,
113.0,113.8,1,0.75,Stimuli\ImageFiles-Set1\Objects\Object_Locker_00001.png,0,0,0,180,180,180,,,,,,,,,,,,,113.01482210000086,0.014822100000856153,None,,145.10890279999967,145.10890279999967,145.10890279999967,145.10890279999967,145.10890279999967,145.10890279999967,145.10890279999967,145.10890279999967,001,P006,2025_Jan_25_1146,CategoryLocalizer,2021.2.3,59.93317451025591,
113.8,114.0,5,0.0,Stimuli\Blank.png,0,0,0,181,181,181,,,,,,,,,,,,,113.83204280000064,0.03204280000063875,5,0.1457468999997218,145.90959949999979,145.90959949999979,145.90959949999979,145.90959949999979,145.90959949999979,145.90959949999979,145.90959949999979,145.90959949999979,001,P006,2025_Jan_25_1146,CategoryLocalizer,2021.2.3,59.93317451025591,
114.0,114.8,1,0.75,Stimuli\ImageFiles-Set1\Objects\Object_Box_00001.png,0,0,0,182,182,182,,,,,,,,,,,,,114.0155833000008,0.015583300000798772,None,,146.10979620000035,146.10979620000035,146.10979620000035,146.10979620000035,146.10979620000035,146.10979620000035,146.10979620000035,146.10979620000035,001,P006,2025_Jan_25_1146,CategoryLocalizer,2021.2.3,59.93317451025591,
114.8,115.0,5,0.0,Stimuli\Blank.png,0,0,0,183,183,183,,,,,,,,,,,,,114.81659670000045,0.01659670000044855,None,,146.89379840000038,146.89379840000038,146.89379840000038,146.89379840000038,146.89379840000038,146.89379840000038,146.89379840000038,146.89379840000038,001,P006,2025_Jan_25_1146,CategoryLocalizer,2021.2.3,59.93317451025591,
115.0,115.8,1,0.75,Stimuli\ImageFiles-Set1\Objects\Object_Dryer_00001.png,0,0,0,184,184,184,,,,,,,,,,,,,114.99995560000025,-4.439999975147657e-05,None,,147.0940069999997,147.0940069999997,147.0940069999997,147.0940069999997,147.0940069999997,147.0940069999997,147.0940069999997,147.0940069999997,001,P006,2025_Jan_25_1146,CategoryLocalizer,2021.2.3,59.93317451025591,
115.8,116.0,5,0.0,Stimuli\Blank.png,0,0,0,185,185,185,,,,,,,,,,,,,115.8170480000008,0.017048000000798424,None,,147.8946788000003,147.8946788000003,147.8946788000003,147.8946788000003,147.8946788000003,147.8946788000003,147.8946788000003,147.8946788000003,001,P006,2025_Jan_25_1146,CategoryLocalizer,2021.2.3,59.93317451025591,
116.0,116.8,1,0.75,Stimuli\ImageFiles-Set1\Objects\Object_Hammer_00001.png,0,0,0,186,186,186,,,,,,,,,,,,,116.00068450000072,0.0006845000007160706,None,,148.09486170000037,148.09486170000037,148.09486170000037,148.09486170000037,148.09486170000037,148.09486170000037,148.09486170000037,148.09486170000037,001,P006,2025_Jan_25_1146,CategoryLocalizer,2021.2.3,59.93317451025591,
116.8,117.0,5,0.0,Stimuli\Blank.png,0,0,0,187,187,187,,,,,,,,,,,,,116.81803350000064,0.018033500000640856,None,,148.8956202999998,148.8956202999998,148.8956202999998,148.8956202999998,148.8956202999998,148.8956202999998,148.8956202999998,148.8956202999998,001,P006,2025_Jan_25_1146,CategoryLocalizer,2021.2.3,59.93317451025591,
117.0,117.8,1,0.75,Stimuli\ImageFiles-Set1\Objects\Object_Crib_00001.png,1,1,0,188,188,188,,,,,,,,,,,,,117.00193430000036,0.0019343000003573252,None,,149.09575849999965,149.09575849999965,149.09575849999965,149.09575849999965,149.09575849999965,149.09575849999965,149.09575849999965,149.09575849999965,001,P006,2025_Jan_25_1146,CategoryLocalizer,2021.2.3,59.93317451025591,
117.8,118.0,5,0.0,Stimuli\Blank.png,0,0,0,189,189,189,,,,,,,,,,,,,117.81940910000048,0.019409100000487456,None,,149.89645819999987,149.89645819999987,149.89645819999987,149.89645819999987,149.89645819999987,149.89645819999987,149.89645819999987,149.89645819999987,001,P006,2025_Jan_25_1146,CategoryLocalizer,2021.2.3,59.93317451025591,
118.0,118.8,1,0.75,Stimuli\ImageFiles-Set1\Objects\Object_Bed_00001.png,0,0,0,190,190,190,,,,,,,,,,,,,118.00281320000067,0.0028132000006735325,None,,150.09667489999993,150.09667489999993,150.09667489999993,150.09667489999993,150.09667489999993,150.09667489999993,150.09667489999993,150.09667489999993,001,P006,2025_Jan_25_1146,CategoryLocalizer,2021.2.3,59.93317451025591,
118.8,119.0,5,0.0,Stimuli\Blank.png,0,0,0,191,191,191,,,,,,,,,,,,,118.8200779000008,0.020077900000799787,None,,150.8973378999999,150.8973378999999,150.8973378999999,150.8973378999999,150.8973378999999,150.8973378999999,150.8973378999999,150.8973378999999,001,P006,2025_Jan_25_1146,CategoryLocalizer,2021.2.3,59.93317451025591,
119.0,119.8,1,0.75,Stimuli\ImageFiles-Set1\Objects\Object_Bed_00001.png,0,0,0,192,192,192,,,,,,,,,,,,,119.00308480000058,0.00308480000057898,1,0.3484671999995044,151.0808380999997,151.0808380999997,151.0808380999997,151.0808380999997,151.0808380999997,151.0808380999997,151.0808380999997,151.0808380999997,001,P006,2025_Jan_25_1146,CategoryLocalizer,2021.2.3,59.93317451025591,
119.8,120.0,5,0.0,Stimuli\Blank.png,0,0,0,193,193,193,,,,,,,,,,,,,119.80401630000051,0.004016300000515116,None,,151.88153630000033,151.88153630000033,151.88153630000033,151.88153630000033,151.88153630000033,151.88153630000033,151.88153630000033,151.88153630000033,001,P006,2025_Jan_25_1146,CategoryLocalizer,2021.2.3,59.93317451025591,
120.0,120.8,4,0.75,Stimuli\ImageFiles-Set1\Scenes\Scenes_056.png,0,0,0,194,194,194,,,,,,,,,,,,,120.00434180000047,0.004341800000474905,None,,152.11509169999954,152.11509169999954,152.11509169999954,152.11509169999954,152.11509169999954,152.11509169999954,152.11509169999954,152.11509169999954,001,P006,2025_Jan_25_1146,CategoryLocalizer,2021.2.3,59.93317451025591,
120.8,121.0,5,0.0,Stimuli\Blank.png,0,0,0,195,195,195,,,,,,,,,,,,,120.8402771000001,0.040277100000096766,None,,152.93251539999983,152.93251539999983,152.93251539999983,152.93251539999983,152.93251539999983,152.93251539999983,152.93251539999983,152.93251539999983,001,P006,2025_Jan_25_1146,CategoryLocalizer,2021.2.3,59.93317451025591,
121.0,121.8,4,0.75,Stimuli\ImageFiles-Set1\Scenes\Scenes_053.png,0,0,0,196,196,196,,,,,,,,,,,,,121.02187640000011,0.021876400000110152,None,,153.13266029999977,153.13266029999977,153.13266029999977,153.13266029999977,153.13266029999977,153.13266029999977,153.13266029999977,153.13266029999977,001,P006,2025_Jan_25_1146,CategoryLocalizer,2021.2.3,59.93317451025591,
121.8,122.0,5,0.0,Stimuli\Blank.png,0,0,0,197,197,197,,,,,,,,,,,,,121.83983500000068,0.03983500000067863,None,,153.91667099999995,153.91667099999995,153.91667099999995,153.91667099999995,153.91667099999995,153.91667099999995,153.91667099999995,153.91667099999995,001,P006,2025_Jan_25_1146,CategoryLocalizer,2021.2.3,59.93317451025591,
122.0,122.8,4,0.75,Stimuli\ImageFiles-Set1\Scenes\Scenes_026.png,0,0,0,198,198,198,,,,,,,,,,,,,122.00592640000013,0.00592640000013489,None,,154.11683840000023,154.11683840000023,154.11683840000023,154.11683840000023,154.11683840000023,154.11683840000023,154.11683840000023,154.11683840000023,001,P006,2025_Jan_25_1146,CategoryLocalizer,2021.2.3,59.93317451025591,
122.8,123.0,5,0.0,Stimuli\Blank.png,0,0,0,199,199,199,,,,,,,,,,,,,122.84090900000047,0.040909000000468154,None,,154.91755439999997,154.91755439999997,154.91755439999997,154.91755439999997,154.91755439999997,154.91755439999997,154.91755439999997,154.91755439999997,001,P006,2025_Jan_25_1146,CategoryLocalizer,2021.2.3,59.93317451025591,
123.0,123.8,4,0.75,Stimuli\ImageFiles-Set1\Scenes\Scenes_026.png,1,1,0,200,200,200,,,,,,,,,,,,,123.00696890000017,0.006968900000174472,1,0.39988090000042575,155.08435949999966,155.08435949999966,155.08435949999966,155.08435949999966,155.08435949999966,155.08435949999966,155.08435949999966,155.08435949999966,001,P006,2025_Jan_25_1146,CategoryLocalizer,2021.2.3,59.93317451025591,
123.8,124.0,5,0.0,Stimuli\Blank.png,0,0,0,201,201,201,,,,,,,,,,,,,123.80786210000042,0.007862100000423311,None,,155.88505110000006,155.88505110000006,155.88505110000006,155.88505110000006,155.88505110000006,155.88505110000006,155.88505110000006,155.88505110000006,001,P006,2025_Jan_25_1146,CategoryLocalizer,2021.2.3,59.93317451025591,
124.0,124.8,4,0.75,Stimuli\ImageFiles-Set1\Scenes\Scenes_057.png,0,0,0,202,202,202,,,,,,,,,,,,,124.00724350000019,0.007243500000186032,None,,156.10192740000002,156.10192740000002,156.10192740000002,156.10192740000002,156.10192740000002,156.10192740000002,156.10192740000002,156.10192740000002,001,P006,2025_Jan_25_1146,CategoryLocalizer,2021.2.3,59.93317451025591,
124.8,125.0,5,0.0,Stimuli\Blank.png,0,0,0,203,203,203,,,,,,,,,,,,,124.82528700000057,0.025287000000574267,None,,156.9026356000004,156.9026356000004,156.9026356000004,156.9026356000004,156.9026356000004,156.9026356000004,156.9026356000004,156.9026356000004,001,P006,2025_Jan_25_1146,CategoryLocalizer,2021.2.3,59.93317451025591,
125.0,125.8,4,0.75,Stimuli\ImageFiles-Set1\Scenes\Scenes_001.png,0,0,0,204,204,204,,,,,,,,,,,,,125.00916690000031,0.009166900000309397,None,,157.1194961000001,157.1194961000001,157.1194961000001,157.1194961000001,157.1194961000001,157.1194961000001,157.1194961000001,157.1194961000001,001,P006,2025_Jan_25_1146,CategoryLocalizer,2021.2.3,59.93317451025591,
125.8,126.0,5,0.0,Stimuli\Blank.png,0,0,0,205,205,205,,,,,,,,,,,,,125.8445227000002,0.04452270000020064,5,0.11845850000008795,157.9368773999995,157.9368773999995,157.9368773999995,157.9368773999995,157.9368773999995,157.9368773999995,157.9368773999995,157.9368773999995,001,P006,2025_Jan_25_1146,CategoryLocalizer,2021.2.3,59.93317451025591,
126.0,126.8,4,0.75,Stimuli\ImageFiles-Set1\Scenes\Scenes_010.png,0,0,0,206,206,206,,,,,,,,,,,,,126.02944840000055,0.029448400000546826,None,,158.13717949999955,158.13717949999955,158.13717949999955,158.13717949999955,158.13717949999955,158.13717949999955,158.13717949999955,158.13717949999955,001,P006,2025_Jan_25_1146,CategoryLocalizer,2021.2.3,59.93317451025591,
126.8,127.0,5,0.0,Stimuli\Blank.png,0,0,0,207,207,207,,,,,,,,,,,,,126.8437715,0.0437715000000054,None,,158.92109379999965,158.92109379999965,158.92109379999965,158.92109379999965,158.92109379999965,158.92109379999965,158.92109379999965,158.92109379999965,001,P006,2025_Jan_25_1146,CategoryLocalizer,2021.2.3,59.93317451025591,
127.0,127.8,4,0.75,Stimuli\ImageFiles-Set1\Scenes\Scenes_016.png,0,0,0,208,208,208,,,,,,,,,,,,,127.01079220000065,0.010792200000651064,None,,159.12125910000032,159.12125910000032,159.12125910000032,159.12125910000032,159.12125910000032,159.12125910000032,159.12125910000032,159.12125910000032,001,P006,2025_Jan_25_1146,CategoryLocalizer,2021.2.3,59.93317451025591,
127.8,128.0,5,0.0,Stimuli\Blank.png,0,0,0,209,209,209,,,,,,,,,,,,,127.84408310000072,0.044083100000719355,5,0.13348500000029162,159.92197000000033,159.92197000000033,159.92197000000033,159.92197000000033,159.92197000000033,159.92197000000033,159.92197000000033,159.92197000000033,001,P006,2025_Jan_25_1146,CategoryLocalizer,2021.2.3,59.93317451025591,
128.0,128.8,4,0.75,Stimuli\ImageFiles-Set1\Scenes\Scenes_014.png,0,0,0,210,210,210,,,,,,,,,,,,,128.01155690000087,0.011556900000869064,None,,160.12214380000023,160.12214380000023,160.12214380000023,160.12214380000023,160.12214380000023,160.12214380000023,160.12214380000023,160.12214380000023,001,P006,2025_Jan_25_1146,CategoryLocalizer,2021.2.3,59.93317451025591,
128.8,129.0,5,0.0,Stimuli\Blank.png,0,0,0,211,211,211,,,,,,,,,,,,,128.8457481000005,0.04574810000048046,None,,160.92284680000012,160.92284680000012,160.92284680000012,160.92284680000012,160.92284680000012,160.92284680000012,160.92284680000012,160.92284680000012,001,P006,2025_Jan_25_1146,CategoryLocalizer,2021.2.3,59.93317451025591,
129.0,129.8,4,0.75,Stimuli\ImageFiles-Set1\Scenes\Scenes_049.png,0,0,0,212,212,212,,,,,,,,,,,,,129.01268450000043,0.012684500000432308,None,,161.1063554000002,161.1063554000002,161.1063554000002,161.1063554000002,161.1063554000002,161.1063554000002,161.1063554000002,161.1063554000002,001,P006,2025_Jan_25_1146,CategoryLocalizer,2021.2.3,59.93317451025591,
129.8,130.0,5,0.0,Stimuli\Blank.png,0,0,0,213,213,213,,,,,,,,,,,,,129.8301235000008,0.030123500000797776,5,0.1481514999995852,161.90708509999968,161.90708509999968,161.90708509999968,161.90708509999968,161.90708509999968,161.90708509999968,161.90708509999968,161.90708509999968,001,P006,2025_Jan_25_1146,CategoryLocalizer,2021.2.3,59.93317451025591,
130.0,130.8,4,0.75,Stimuli\ImageFiles-Set1\Scenes\Scenes_031.png,0,0,0,214,214,214,,,,,,,,,,,,,130.0131409000005,0.013140900000507827,None,,162.10723039999993,162.10723039999993,162.10723039999993,162.10723039999993,162.10723039999993,162.10723039999993,162.10723039999993,162.10723039999993,001,P006,2025_Jan_25_1146,CategoryLocalizer,2021.2.3,59.93317451025591,
130.8,131.0,5,0.0,Stimuli\Blank.png,0,0,0,215,215,215,,,,,,,,,,,,,130.82991410000068,0.029914100000667077,None,,162.90792820000024,162.90792820000024,162.90792820000024,162.90792820000024,162.90792820000024,162.90792820000024,162.90792820000024,162.90792820000024,001,P006,2025_Jan_25_1146,CategoryLocalizer,2021.2.3,59.93317451025591,
131.0,131.8,4,0.75,Stimuli\ImageFiles-Set1\Scenes\Scenes_024.png,0,0,0,216,216,216,,,,,,,,,,,,,131.01491500000066,0.01491500000065571,None,,163.1247870999996,163.1247870999996,163.1247870999996,163.1247870999996,163.1247870999996,163.1247870999996,163.1247870999996,163.1247870999996,001,P006,2025_Jan_25_1146,CategoryLocalizer,2021.2.3,59.93317451025591,
131.8,132.0,5,0.0,Stimuli\Blank.png,0,0,0,217,217,217,,,,,,,,,,,,,131.85015330000078,0.05015330000077256,5,0.11301800000001094,163.94218949999959,163.94218949999959,163.94218949999959,163.94218949999959,163.94218949999959,163.94218949999959,163.94218949999959,163.94218949999959,001,P006,2025_Jan_25_1146,CategoryLocalizer,2021.2.3,59.93317451025591,
132.0,132.8,4,0.75,Stimuli\ImageFiles-Set1\Scenes\Scenes_004.png,0,0,0,218,218,218,,,,,,,,,,,,,132.0150407000001,0.015040700000099605,None,,164.10901269999977,164.10901269999977,164.10901269999977,164.10901269999977,164.10901269999977,164.10901269999977,164.10901269999977,164.10901269999977,001,P006,2025_Jan_25_1146,CategoryLocalizer,2021.2.3,59.93317451025591,
132.8,133.0,5,0.0,Stimuli\Blank.png,0,0,0,219,219,219,,,,,,,,,,,,,132.8150927000006,0.015092700000593595,None,,164.89301960000012,164.89301960000012,164.89301960000012,164.89301960000012,164.89301960000012,164.89301960000012,164.89301960000012,164.89301960000012,001,P006,2025_Jan_25_1146,CategoryLocalizer,2021.2.3,59.93317451025591,
133.0,133.8,4,0.75,Stimuli\ImageFiles-Set1\Scenes\Scenes_032.png,0,0,0,220,220,220,,,,,,,,,,,,,133.0155532000008,0.015553200000795186,None,,165.1265424000003,165.1265424000003,165.1265424000003,165.1265424000003,165.1265424000003,165.1265424000003,165.1265424000003,165.1265424000003,001,P006,2025_Jan_25_1146,CategoryLocalizer,2021.2.3,59.93317451025591,
133.8,134.0,5,0.0,Stimuli\Blank.png,0,0,0,221,221,221,,,,,,,,,,,,,133.83289180000065,0.03289180000064107,None,,165.91058340000018,165.91058340000018,165.91058340000018,165.91058340000018,165.91058340000018,165.91058340000018,165.91058340000018,165.91058340000018,001,P006,2025_Jan_25_1146,CategoryLocalizer,2021.2.3,59.93317451025591,
134.0,134.8,4,0.75,Stimuli\ImageFiles-Set1\Scenes\Scenes_022.png,0,0,0,222,222,222,,,,,,,,,,,,,134.00014940000074,0.00014940000073693227,None,,166.11076349999985,166.11076349999985,166.11076349999985,166.11076349999985,166.11076349999985,166.11076349999985,166.11076349999985,166.11076349999985,001,P006,2025_Jan_25_1146,CategoryLocalizer,2021.2.3,59.93317451025591,
134.8,135.0,5,0.0,Stimuli\Blank.png,0,0,0,223,223,223,,,,,,,,,,,,,134.83399530000042,0.033995300000412954,None,,166.91146769999978,166.91146769999978,166.91146769999978,166.91146769999978,166.91146769999978,166.91146769999978,166.91146769999978,166.91146769999978,001,P006,2025_Jan_25_1146,CategoryLocalizer,2021.2.3,59.93317451025591,
135.0,135.8,4,0.75,Stimuli\ImageFiles-Set1\Scenes\Scenes_038.png,0,0,0,224,224,224,,,,,,,,,,,,,135.0010985000008,0.0010985000008076895,None,,167.0949940999999,167.0949940999999,167.0949940999999,167.0949940999999,167.0949940999999,167.0949940999999,167.0949940999999,167.0949940999999,001,P006,2025_Jan_25_1146,CategoryLocalizer,2021.2.3,59.93317451025591,
135.8,136.0,5,0.0,Stimuli\Blank.png,0,0,0,225,225,225,,,,,,,,,,,,,135.8197310000005,0.01973100000049044,5,0.14289629999984754,167.91232620000028,167.91232620000028,167.91232620000028,167.91232620000028,167.91232620000028,167.91232620000028,167.91232620000028,167.91232620000028,001,P006,2025_Jan_25_1146,CategoryLocalizer,2021.2.3,59.93317451025591,
136.0,136.8,2,0.75,Stimuli\ImageFiles-Set1\Bodies\Bodies_DownwardDog_00003.png,0,0,0,226,226,226,,,,,,,,,,,,,136.01841120000063,0.018411200000628014,None,,168.1125344000002,168.1125344000002,168.1125344000002,168.1125344000002,168.1125344000002,168.1125344000002,168.1125344000002,168.1125344000002,001,P006,2025_Jan_25_1146,CategoryLocalizer,2021.2.3,59.93317451025591,
136.8,137.0,5,0.0,Stimuli\Blank.png,0,0,0,227,227,227,,,,,,,,,,,,,136.81990590000078,0.019905900000765087,None,,168.89655719999973,168.89655719999973,168.89655719999973,168.89655719999973,168.89655719999973,168.89655719999973,168.89655719999973,168.89655719999973,001,P006,2025_Jan_25_1146,CategoryLocalizer,2021.2.3,59.93317451025591,
137.0,137.8,2,0.75,Stimuli\ImageFiles-Set1\Bodies\Bodies_DownwardDog_00003.png,1,1,0,228,228,228,,,,,,,,,,,,,137.00292610000088,0.002926100000877341,1,0.46019429999978456,169.08004540000002,169.08004540000002,169.08004540000002,169.08004540000002,169.08004540000002,169.08004540000002,169.08004540000002,169.08004540000002,001,P006,2025_Jan_25_1146,CategoryLocalizer,2021.2.3,59.93317451025591,
137.8,138.0,5,0.0,Stimuli\Blank.png,0,0,0,229,229,229,,,,,,,,,,,,,137.80514650000077,0.005146500000762444,5,0.15777040000011766,169.8974489000002,169.8974489000002,169.8974489000002,169.8974489000002,169.8974489000002,169.8974489000002,169.8974489000002,169.8974489000002,001,P006,2025_Jan_25_1146,CategoryLocalizer,2021.2.3,59.93317451025591,
138.0,138.8,2,0.75,Stimuli\ImageFiles-Set1\Bodies\Bodies_Kneeling_00007.png,0,0,0,230,230,230,,,,,,,,,,,,,138.01994150000064,0.0199415000006411,None,,170.11429940000016,170.11429940000016,170.11429940000016,170.11429940000016,170.11429940000016,170.11429940000016,170.11429940000016,170.11429940000016,001,P006,2025_Jan_25_1146,CategoryLocalizer,2021.2.3,59.93317451025591,
138.8,139.0,5,0.0,Stimuli\Blank.png,0,0,0,231,231,231,,,,,,,,,,,,,138.8208484000006,0.020848400000602396,None,,170.8983164000001,170.8983164000001,170.8983164000001,170.8983164000001,170.8983164000001,170.8983164000001,170.8983164000001,170.8983164000001,001,P006,2025_Jan_25_1146,CategoryLocalizer,2021.2.3,59.93317451025591,
139.0,139.8,2,0.75,Stimuli\ImageFiles-Set1\Bodies\Bodies_Crawling_00001.png,0,0,0,232,232,232,,,,,,,,,,,,,139.00506170000062,0.005061700000624114,None,,171.09849209999993,171.09849209999993,171.09849209999993,171.09849209999993,171.09849209999993,171.09849209999993,171.09849209999993,171.09849209999993,001,P006,2025_Jan_25_1146,CategoryLocalizer,2021.2.3,59.93317451025591,
139.8,140.0,5,0.0,Stimuli\Blank.png,0,0,0,233,233,233,,,,,,,,,,,,,139.8219093000007,0.02190930000068647,None,,171.89920040000015,171.89920040000015,171.89920040000015,171.89920040000015,171.89920040000015,171.89920040000015,171.89920040000015,171.89920040000015,001,P006,2025_Jan_25_1146,CategoryLocalizer,2021.2.3,59.93317451025591,
140.0,140.8,2,0.75,Stimuli\ImageFiles-Set1\Bodies\Bodies_Crawling_00006.png,0,0,0,234,234,234,,,,,,,,,,,,,140.00547630000074,0.0054763000007369556,None,,172.0993910999996,172.0993910999996,172.0993910999996,172.0993910999996,172.0993910999996,172.0993910999996,172.0993910999996,172.0993910999996,001,P006,2025_Jan_25_1146,CategoryLocalizer,2021.2.3,59.93317451025591,
140.8,141.0,5,0.0,Stimuli\Blank.png,0,0,0,235,235,235,,,,,,,,,,,,,140.82435020000048,0.024350200000469613,None,,172.91678460000003,172.91678460000003,172.91678460000003,172.91678460000003,172.91678460000003,172.91678460000003,172.91678460000003,172.91678460000003,001,P006,2025_Jan_25_1146,CategoryLocalizer,2021.2.3,59.93317451025591,
141.0,141.8,2,0.75,Stimuli\ImageFiles-Set1\Bodies\Bodies_DownwardDog_00001.png,0,0,0,236,236,236,,,,,,,,,,,,,141.02306620000036,0.02306620000035764,None,,173.1169645,173.1169645,173.1169645,173.1169645,173.1169645,173.1169645,173.1169645,173.1169645,001,P006,2025_Jan_25_1146,CategoryLocalizer,2021.2.3,59.93317451025591,
141.8,142.0,5,0.0,Stimuli\Blank.png,0,0,0,237,237,237,,,,,,,,,,,,,141.82312150000052,0.023121500000513606,None,,173.90097479999986,173.90097479999986,173.90097479999986,173.90097479999986,173.90097479999986,173.90097479999986,173.90097479999986,173.90097479999986,001,P006,2025_Jan_25_1146,CategoryLocalizer,2021.2.3,59.93317451025591,
142.0,142.8,2,0.75,Stimuli\ImageFiles-Set1\Bodies\Bodies_SittingChair_00005.png,0,0,0,238,238,238,,,,,,,,,,,,,142.00656460000027,0.006564600000274368,None,,174.10114710000016,174.10114710000016,174.10114710000016,174.10114710000016,174.10114710000016,174.10114710000016,174.10114710000016,174.10114710000016,001,P006,2025_Jan_25_1146,CategoryLocalizer,2021.2.3,59.93317451025591,
142.8,143.0,5,0.0,Stimuli\Blank.png,0,0,0,239,239,239,,,,,,,,,,,,,142.82434140000078,0.02434140000076468,None,,174.90185159999965,174.90185159999965,174.90185159999965,174.90185159999965,174.90185159999965,174.90185159999965,174.90185159999965,174.90185159999965,001,P006,2025_Jan_25_1146,CategoryLocalizer,2021.2.3,59.93317451025591,
143.0,143.8,2,0.75,Stimuli\ImageFiles-Set1\Bodies\Bodies_Waving_00001.png,0,0,0,240,240,240,,,,,,,,,,,,,143.00787010000022,0.007870100000218372,None,,175.10207609999998,175.10207609999998,175.10207609999998,175.10207609999998,175.10207609999998,175.10207609999998,175.10207609999998,175.10207609999998,001,P006,2025_Jan_25_1146,CategoryLocalizer,2021.2.3,59.93317451025591,
143.8,144.0,5,0.0,Stimuli\Blank.png,0,0,0,241,241,241,,,,,,,,,,,,,143.82576900000004,0.025769000000025244,None,,175.9027629000002,175.9027629000002,175.9027629000002,175.9027629000002,175.9027629000002,175.9027629000002,175.9027629000002,175.9027629000002,001,P006,2025_Jan_25_1146,CategoryLocalizer,2021.2.3,59.93317451025591,
144.0,144.8,2,0.75,Stimuli\ImageFiles-Set1\Bodies\Bodies_CobraPose_00005.png,0,0,0,242,242,242,,,,,,,,,,,,,144.0084813000003,0.00848130000031233,None,,176.1029085,176.1029085,176.1029085,176.1029085,176.1029085,176.1029085,176.1029085,176.1029085,001,P006,2025_Jan_25_1146,CategoryLocalizer,2021.2.3,59.93317451025591,
144.8,145.0,5,0.0,Stimuli\Blank.png,0,0,0,243,243,243,,,,,,,,,,,,,144.82637110000087,0.026371100000858405,None,,176.9036175000001,176.9036175000001,176.9036175000001,176.9036175000001,176.9036175000001,176.9036175000001,176.9036175000001,176.9036175000001,001,P006,2025_Jan_25_1146,CategoryLocalizer,2021.2.3,59.93317451025591,
145.0,145.8,2,0.75,Stimuli\ImageFiles-Set1\Bodies\Bodies_SittingFloor_00003.png,1,1,0,244,244,244,,,,,,,,,,,,,145.01011910000034,0.010119100000338221,None,,177.10376799999995,177.10376799999995,177.10376799999995,177.10376799999995,177.10376799999995,177.10376799999995,177.10376799999995,177.10376799999995,001,P006,2025_Jan_25_1146,CategoryLocalizer,2021.2.3,59.93317451025591,
145.8,146.0,5,0.0,Stimuli\Blank.png,0,0,0,245,245,245,,,,,,,,,,,,,145.82921970000007,0.029219700000055582,5,0.133961200000158,177.92120150000028,177.92120150000028,177.92120150000028,177.92120150000028,177.92120150000028,177.92120150000028,177.92120150000028,177.92120150000028,001,P006,2025_Jan_25_1146,CategoryLocalizer,2021.2.3,59.93317451025591,
146.0,146.8,2,0.75,Stimuli\ImageFiles-Set1\Bodies\Bodies_SittingChair_00007.png,0,0,0,246,246,246,,,,,,,,,,,,,146.0270425000008,0.027042500000789005,None,,178.1213742,178.1213742,178.1213742,178.1213742,178.1213742,178.1213742,178.1213742,178.1213742,001,P006,2025_Jan_25_1146,CategoryLocalizer,2021.2.3,59.93317451025591,
146.8,147.0,5,0.0,Stimuli\Blank.png,0,0,0,247,247,247,,,,,,,,,,,,,146.8295379000001,0.029537900000093487,None,,178.92207959999996,178.92207959999996,178.92207959999996,178.92207959999996,178.92207959999996,178.92207959999996,178.92207959999996,178.92207959999996,001,P006,2025_Jan_25_1146,CategoryLocalizer,2021.2.3,59.93317451025591,
147.0,147.8,2,0.75,Stimuli\ImageFiles-Set1\Bodies\Bodies_SittingChair_00007.png,0,0,0,248,248,248,,,,,,,,,,,,,147.03006620000087,0.030066200000874233,1,0.6359374000003299,179.1222472999998,179.1222472999998,179.1222472999998,179.1222472999998,179.1222472999998,179.1222472999998,179.1222472999998,179.1222472999998,001,P006,2025_Jan_25_1146,CategoryLocalizer,2021.2.3,59.93317451025591,
147.8,148.0,5,0.0,Stimuli\Blank.png,0,0,0,249,249,249,,,,,,,,,,,,,147.8290308000005,0.029030800000498402,5,0.14893370000027062,179.9062697999998,179.9062697999998,179.9062697999998,179.9062697999998,179.9062697999998,179.9062697999998,179.9062697999998,179.9062697999998,001,P006,2025_Jan_25_1146,CategoryLocalizer,2021.2.3,59.93317451025591,
148.0,148.8,2,0.75,Stimuli\ImageFiles-Set1\Bodies\Bodies_Lunging_00004.png,0,0,0,250,250,250,,,,,,,,,,,,,148.01257980000082,0.012579800000821706,None,,180.1064395000003,180.1064395000003,180.1064395000003,180.1064395000003,180.1064395000003,180.1064395000003,180.1064395000003,180.1064395000003,001,P006,2025_Jan_25_1146,CategoryLocalizer,2021.2.3,59.93317451025591,
148.8,149.0,5,0.0,Stimuli\Blank.png,0,0,0,251,251,251,,,,,,,,,,,,,148.8300465000002,0.030046500000196374,None,,180.90716069999962,180.90716069999962,180.90716069999962,180.90716069999962,180.90716069999962,180.90716069999962,180.90716069999962,180.90716069999962,001,P006,2025_Jan_25_1146,CategoryLocalizer,2021.2.3,59.93317451025591,
149.0,149.8,2,0.75,Stimuli\ImageFiles-Set1\Bodies\Bodies_Standing_00003.png,0,0,0,252,252,252,,,,,,,,,,,,,149.01306310000018,0.013063100000181294,None,,181.1073379999998,181.1073379999998,181.1073379999998,181.1073379999998,181.1073379999998,181.1073379999998,181.1073379999998,181.1073379999998,001,P006,2025_Jan_25_1146,CategoryLocalizer,2021.2.3,59.93317451025591,
149.8,150.0,5,0.0,Stimuli\Blank.png,0,0,0,253,253,253,,,,,,,,,,,,,149.8307052,0.030705199999999877,5,0.14718400000037946,181.90803440000036,181.90803440000036,181.90803440000036,181.90803440000036,181.90803440000036,181.90803440000036,181.90803440000036,181.90803440000036,001,P006,2025_Jan_25_1146,CategoryLocalizer,2021.2.3,59.93317451025591,
150.0,150.8,2,0.75,Stimuli\ImageFiles-Set1\Bodies\Bodies_DownwardDog_00006.png,0,0,0,254,254,254,,,,,,,,,,,,,150.0142267000001,0.014226700000108394,None,,182.12490590000016,182.12490590000016,182.12490590000016,182.12490590000016,182.12490590000016,182.12490590000016,182.12490590000016,182.12490590000016,001,P006,2025_Jan_25_1146,CategoryLocalizer,2021.2.3,59.93317451025591,
150.8,151.0,5,0.0,Stimuli\Blank.png,0,0,0,255,255,255,,,,,,,,,,,,,150.84880670000075,0.048806700000739056,None,,182.9256035999997,182.9256035999997,182.9256035999997,182.9256035999997,182.9256035999997,182.9256035999997,182.9256035999997,182.9256035999997,001,P006,2025_Jan_25_1146,CategoryLocalizer,2021.2.3,59.93317451025591,
151.0,151.8,2,0.75,Stimuli\ImageFiles-Set1\Bodies\Bodies_Falling_00004.png,0,0,0,256,256,256,,,,,,,,,,,,,151.01519500000086,0.015195000000858272,None,,183.10910849999982,183.10910849999982,183.10910849999982,183.10910849999982,183.10910849999982,183.10910849999982,183.10910849999982,183.10910849999982,001,P006,2025_Jan_25_1146,CategoryLocalizer,2021.2.3,59.93317451025591,
151.8,152.0,5,0.0,Stimuli\Blank.png,0,0,0,257,257,257,,,,,,,,,,,,,151.81594940000014,0.01594940000012457,None,,183.89311829999951,183.89311829999951,183.89311829999951,183.89311829999951,183.89311829999951,183.89311829999951,183.89311829999951,183.89311829999951,001,P006,2025_Jan_25_1146,CategoryLocalizer,2021.2.3,59.93317451025591,
152.0,164.0,0,0.0,Stimuli\Blank.png,0,0,0,258,258,258,,,,,,,,,,,,,151.99999710000066,-2.899999344663229e-06,5,9.979837400000179,184.07662729999993,184.07662729999993,184.07662729999993,184.07662729999993,184.07662729999993,184.07662729999993,184.07662729999993,184.07662729999993,001,P006,2025_Jan_25_1146,CategoryLocalizer,2021.2.3,59.93317451025591,
164.0,164.8,4,0.75,Stimuli\ImageFiles-Set1\Scenes\Scenes_060.png,0,0,0,259,259,259,,,,,,,,,,,,,164.01012360000004,0.010123600000042643,None,,196.1039482999995,196.1039482999995,196.1039482999995,196.1039482999995,196.1039482999995,196.1039482999995,196.1039482999995,196.1039482999995,001,P006,2025_Jan_25_1146,CategoryLocalizer,2021.2.3,59.93317451025591,
164.8,165.0,5,0.0,Stimuli\Blank.png,0,0,0,260,260,260,,,,,,,,,,,,,164.82894950000082,0.028949500000805983,None,,196.92128649999995,196.92128649999995,196.92128649999995,196.92128649999995,196.92128649999995,196.92128649999995,196.92128649999995,196.92128649999995,001,P006,2025_Jan_25_1146,CategoryLocalizer,2021.2.3,59.93317451025591,
165.0,165.8,4,0.75,Stimuli\ImageFiles-Set1\Scenes\Scenes_021.png,0,0,0,261,261,261,,,,,,,,,,,,,165.02949740000076,0.029497400000764173,None,,197.1381749000002,197.1381749000002,197.1381749000002,197.1381749000002,197.1381749000002,197.1381749000002,197.1381749000002,197.1381749000002,001,P006,2025_Jan_25_1146,CategoryLocalizer,2021.2.3,59.93317451025591,
165.8,166.0,5,0.0,Stimuli\Blank.png,0,0,0,262,262,262,,,,,,,,,,,,,165.84489440000016,0.044894400000146106,5,0.13406540000050882,197.92214260000037,197.92214260000037,197.92214260000037,197.92214260000037,197.92214260000037,197.92214260000037,197.92214260000037,197.92214260000037,001,P006,2025_Jan_25_1146,CategoryLocalizer,2021.2.3,59.93317451025591,
166.0,166.8,4,0.75,Stimuli\ImageFiles-Set1\Scenes\Scenes_052.png,0,0,0,263,263,263,,,,,,,,,,,,,166.0110123000004,0.01101230000040232,None,,198.08898359999966,198.08898359999966,198.08898359999966,198.08898359999966,198.08898359999966,198.08898359999966,198.08898359999966,198.08898359999966,001,P006,2025_Jan_25_1146,CategoryLocalizer,2021.2.3,59.93317451025591,
166.8,167.0,5,0.0,Stimuli\Blank.png,0,0,0,264,264,264,,,,,,,,,,,,,166.81181430000015,0.01181430000013961,None,,198.88968490000025,198.88968490000025,198.88968490000025,198.88968490000025,198.88968490000025,198.88968490000025,198.88968490000025,198.88968490000025,001,P006,2025_Jan_25_1146,CategoryLocalizer,2021.2.3,59.93317451025591,
167.0,167.8,4,0.75,Stimuli\ImageFiles-Set1\Scenes\Scenes_012.png,0,0,0,265,265,265,,,,,,,,,,,,,167.01399050000055,0.01399050000054558,None,,199.12323370000013,199.12323370000013,199.12323370000013,199.12323370000013,199.12323370000013,199.12323370000013,199.12323370000013,199.12323370000013,001,P006,2025_Jan_25_1146,CategoryLocalizer,2021.2.3,59.93317451025591,
167.8,168.0,5,0.0,Stimuli\Blank.png,0,0,0,266,266,266,,,,,,,,,,,,,167.8468444,0.04684439999999768,5,0.13222479999967618,199.92393340000035,199.92393340000035,199.92393340000035,199.92393340000035,199.92393340000035,199.92393340000035,199.92393340000035,199.92393340000035,001,P006,2025_Jan_25_1146,CategoryLocalizer,2021.2.3,59.93317451025591,
168.0,168.8,4,0.75,Stimuli\ImageFiles-Set1\Scenes\Scenes_036.png,0,0,0,267,267,267,,,,,,,,,,,,,168.01529010000013,0.015290100000129314,None,,200.1074421000003,200.1074421000003,200.1074421000003,200.1074421000003,200.1074421000003,200.1074421000003,200.1074421000003,200.1074421000003,001,P006,2025_Jan_25_1146,CategoryLocalizer,2021.2.3,59.93317451025591,
168.8,169.0,5,0.0,Stimuli\Blank.png,0,0,0,268,268,268,,,,,,,,,,,,,168.81414200000017,0.01414200000016308,None,,200.8914606999997,200.8914606999997,200.8914606999997,200.8914606999997,200.8914606999997,200.8914606999997,200.8914606999997,200.8914606999997,001,P006,2025_Jan_25_1146,CategoryLocalizer,2021.2.3,59.93317451025591,
169.0,169.8,4,0.75,Stimuli\ImageFiles-Set1\Scenes\Scenes_011.png,0,0,0,269,269,269,,,,,,,,,,,,,169.0139921,0.013992099999995844,None,,201.10831619999954,201.10831619999954,201.10831619999954,201.10831619999954,201.10831619999954,201.10831619999954,201.10831619999954,201.10831619999954,001,P006,2025_Jan_25_1146,CategoryLocalizer,2021.2.3,59.93317451025591,
169.8,170.0,5,0.0,Stimuli\Blank.png,0,0,0,270,270,270,,,,,,,,,,,,,169.83194660000026,0.03194660000025351,5,0.1471609999998691,201.90901440000016,201.90901440000016,201.90901440000016,201.90901440000016,201.90901440000016,201.90901440000016,201.90901440000016,201.90901440000016,001,P006,2025_Jan_25_1146,CategoryLocalizer,2021.2.3,59.93317451025591,
170.0,170.8,4,0.75,Stimuli\ImageFiles-Set1\Scenes\Scenes_042.png,0,0,0,271,271,271,,,,,,,,,,,,,170.01532110000062,0.01532110000061948,None,,202.1092050999996,202.1092050999996,202.1092050999996,202.1092050999996,202.1092050999996,202.1092050999996,202.1092050999996,202.1092050999996,001,P006,2025_Jan_25_1146,CategoryLocalizer,2021.2.3,59.93317451025591,
170.8,171.0,5,0.0,Stimuli\Blank.png,0,0,0,272,272,272,,,,,,,,,,,,,170.8158400000002,0.01584000000019614,None,,202.89321990000008,202.89321990000008,202.89321990000008,202.89321990000008,202.89321990000008,202.89321990000008,202.89321990000008,202.89321990000008,001,P006,2025_Jan_25_1146,CategoryLocalizer,2021.2.3,59.93317451025591,
171.0,171.8,4,0.75,Stimuli\ImageFiles-Set1\Scenes\Scenes_027.png,0,0,0,273,273,273,,,,,,,,,,,,,170.99983190000057,-0.0001680999994277954,None,,203.0934086999996,203.0934086999996,203.0934086999996,203.0934086999996,203.0934086999996,203.0934086999996,203.0934086999996,203.0934086999996,001,P006,2025_Jan_25_1146,CategoryLocalizer,2021.2.3,59.93317451025591,
171.8,172.0,5,0.0,Stimuli\Blank.png,0,0,0,274,274,274,,,,,,,,,,,,,171.81713590000072,0.01713590000071008,None,,203.8941007000003,203.8941007000003,203.8941007000003,203.8941007000003,203.8941007000003,203.8941007000003,203.8941007000003,203.8941007000003,001,P006,2025_Jan_25_1146,CategoryLocalizer,2021.2.3,59.93317451025591,
172.0,172.8,4,0.75,Stimuli\ImageFiles-Set1\Scenes\Scenes_030.png,0,0,0,275,275,275,,,,,,,,,,,,,171.99987000000056,-0.00012999999944440788,None,,204.1109606,204.1109606,204.1109606,204.1109606,204.1109606,204.1109606,204.1109606,204.1109606,001,P006,2025_Jan_25_1146,CategoryLocalizer,2021.2.3,59.93317451025591,
172.8,173.0,5,0.0,Stimuli\Blank.png,0,0,0,276,276,276,,,,,,,,,,,,,172.83469930000047,0.034699300000454514,None,,204.9116782000001,204.9116782000001,204.9116782000001,204.9116782000001,204.9116782000001,204.9116782000001,204.9116782000001,204.9116782000001,001,P006,2025_Jan_25_1146,CategoryLocalizer,2021.2.3,59.93317451025591,
173.0,173.8,4,0.75,Stimuli\ImageFiles-Set1\Scenes\Scenes_018.png,0,0,0,277,277,277,,,,,,,,,,,,,173.0012813000003,0.0012813000003006891,None,,205.0951667999998,205.0951667999998,205.0951667999998,205.0951667999998,205.0951667999998,205.0951667999998,205.0951667999998,205.0951667999998,001,P006,2025_Jan_25_1146,CategoryLocalizer,2021.2.3,59.93317451025591,
173.8,174.0,5,0.0,Stimuli\Blank.png,0,0,0,278,278,278,,,,,,,,,,,,,173.81908190000013,0.019081900000117002,None,,205.8958843999999,205.8958843999999,205.8958843999999,205.8958843999999,205.8958843999999,205.8958843999999,205.8958843999999,205.8958843999999,001,P006,2025_Jan_25_1146,CategoryLocalizer,2021.2.3,59.93317451025591,
174.0,174.8,4,0.75,Stimuli\ImageFiles-Set1\Scenes\Scenes_050.png,0,0,0,279,279,279,,,,,,,,,,,,,174.00212870000087,0.0021287000008669565,None,,206.0960382000003,206.0960382000003,206.0960382000003,206.0960382000003,206.0960382000003,206.0960382000003,206.0960382000003,206.0960382000003,001,P006,2025_Jan_25_1146,CategoryLocalizer,2021.2.3,59.93317451025591,
174.8,175.0,5,0.0,Stimuli\Blank.png,0,0,0,280,280,280,,,,,,,,,,,,,174.81987150000077,0.01987150000076099,None,,206.8967573,206.8967573,206.8967573,206.8967573,206.8967573,206.8967573,206.8967573,206.8967573,001,P006,2025_Jan_25_1146,CategoryLocalizer,2021.2.3,59.93317451025591,
175.0,175.8,4,0.75,Stimuli\ImageFiles-Set1\Scenes\Scenes_041.png,0,0,0,281,281,281,,,,,,,,,,,,,175.0033839000007,0.0033839000006992137,None,,207.11362480000025,207.11362480000025,207.11362480000025,207.11362480000025,207.11362480000025,207.11362480000025,207.11362480000025,207.11362480000025,001,P006,2025_Jan_25_1146,CategoryLocalizer,2021.2.3,59.93317451025591,
175.8,176.0,5,0.0,Stimuli\Blank.png,0,0,0,282,282,282,,,,,,,,,,,,,175.83715850000044,0.037158500000430195,None,,207.91431339999963,207.91431339999963,207.91431339999963,207.91431339999963,207.91431339999963,207.91431339999963,207.91431339999963,207.91431339999963,001,P006,2025_Jan_25_1146,CategoryLocalizer,2021.2.3,59.93317451025591,
176.0,176.8,4,0.75,Stimuli\ImageFiles-Set1\Scenes\Scenes_041.png,1,1,0,283,283,283,,,,,,,,,,,,,176.00423170000067,0.0042317000006733,1,0.4204532999992807,208.09780239999964,208.09780239999964,208.09780239999964,208.09780239999964,208.09780239999964,208.09780239999964,208.09780239999964,208.09780239999964,001,P006,2025_Jan_25_1146,CategoryLocalizer,2021.2.3,59.93317451025591,
176.8,177.0,5,0.0,Stimuli\Blank.png,0,0,0,284,284,284,,,,,,,,,,,,,176.82067910000023,0.02067910000022266,None,,208.8985862999998,208.8985862999998,208.8985862999998,208.8985862999998,208.8985862999998,208.8985862999998,208.8985862999998,208.8985862999998,001,P006,2025_Jan_25_1146,CategoryLocalizer,2021.2.3,59.93317451025591,
