eventStartTime,eventEndTime,eventCond,imSize,imFile,repeatedImage,responseEvent,Events.thisRepN,Events.thisTrialN,Events.thisN,Events.thisIndex,Instructions.started,Instructions.stopped,participantReadyResponse.keys,participantReadyResponse.rt,participantReadyResponse.started,participantReadyResponse.stopped,startWaitforTrigger,triggerResponse.keys,triggerResponse.rt,triggerResponse.started,triggerResponse.stopped,globalTimer,actualStartTime,startTimingDiff,participantResponse.keys,participantResponse.rt,participantResponse.started,participantResponse.stopped,image.started,image.stopped,fixationOutside.started,fixationOutside.stopped,fixationInside.started,fixationInside.stopped,session,participant,date,expName,psychopyVersion,frameRate,
,,,,,,,,,,,11.755393200000071,None,1,4.00273930000003,11.755393200000071,None,,,,,,,,,,,,,,,,,,,003,P006,2025_Jan_25_1242,CategoryLocalizer,2021.2.3,59.93899409185422,
,,,,,,,,,,,,,,,,,15.775599599999623,5,14.583297099999982,15.788224599999921,None,,,,,,,,,,,,,,003,P006,2025_Jan_25_1242,CategoryLocalizer,2021.2.3,59.93899409185422,
0.0,12.0,0,0.0,Stimuli\Blank.png,0,0,0,0,0,0,,,,,,,,,,,,30.389870500000143,0.05715849999978673,0.05715849999978673,5,11.915541999999732,30.455418099999406,None,30.455418099999406,None,30.455418099999406,None,30.455418099999406,None,003,P006,2025_Jan_25_1242,CategoryLocalizer,2021.2.3,59.93899409185422,
12.0,12.8,1,0.75,Stimuli\ImageFiles-Set1\Objects\Object_Dice_00001.png,0,0,0,1,1,1,,,,,,,,,,,,,12.009537900000396,0.009537900000395894,None,,42.412114899999324,42.412114899999324,42.412114899999324,42.412114899999324,42.412114899999324,42.412114899999324,42.412114899999324,42.412114899999324,003,P006,2025_Jan_25_1242,CategoryLocalizer,2021.2.3,59.93899409185422,
12.8,13.0,5,0.0,Stimuli\Blank.png,0,0,0,2,2,2,,,,,,,,,,,,,12.808954600000106,0.008954600000105728,None,,43.2126546999998,43.2126546999998,43.2126546999998,43.2126546999998,43.2126546999998,43.2126546999998,43.2126546999998,43.2126546999998,003,P006,2025_Jan_25_1242,CategoryLocalizer,2021.2.3,59.93899409185422,
13.0,13.8,1,0.75,Stimuli\ImageFiles-Set1\Objects\Object_Crib_00001.png,0,0,0,3,3,3,,,,,,,,,,,,,13.009381400000166,0.00938140000016574,None,,43.41302099999939,43.41302099999939,43.41302099999939,43.41302099999939,43.41302099999939,43.41302099999939,43.41302099999939,43.41302099999939,003,P006,2025_Jan_25_1242,CategoryLocalizer,2021.2.3,59.93899409185422,
13.8,14.0,5,0.0,Stimuli\Blank.png,0,0,0,4,4,4,,,,,,,,,,,,,13.80985950000013,0.009859500000128918,5,0.15741150000030757,44.21370769999976,44.21370769999976,44.21370769999976,44.21370769999976,44.21370769999976,44.21370769999976,44.21370769999976,44.21370769999976,003,P006,2025_Jan_25_1242,CategoryLocalizer,2021.2.3,59.93899409185422,
14.0,14.8,1,0.75,Stimuli\ImageFiles-Set1\Objects\Object_Crib_00001.png,1,1,0,5,5,5,,,,,,,,,,,,,14.009557999999743,0.009557999999742606,1,0.3902404000000388,44.41384689999995,44.41384689999995,44.41384689999995,44.41384689999995,44.41384689999995,44.41384689999995,44.41384689999995,44.41384689999995,003,P006,2025_Jan_25_1242,CategoryLocalizer,2021.2.3,59.93899409185422,
14.8,15.0,5,0.0,Stimuli\Blank.png,0,0,0,6,6,6,,,,,,,,,,,,,14.810241199999837,0.01024119999983597,None,,45.214603099999294,45.214603099999294,45.214603099999294,45.214603099999294,45.214603099999294,45.214603099999294,45.214603099999294,45.214603099999294,003,P006,2025_Jan_25_1242,CategoryLocalizer,2021.2.3,59.93899409185422,
15.0,15.8,1,0.75,Stimuli\ImageFiles-Set1\Objects\Object_Banana_00001.png,0,0,0,7,7,7,,,,,,,,,,,,,15.011410000000069,0.011410000000068976,None,,45.41449939999984,45.41449939999984,45.41449939999984,45.41449939999984,45.41449939999984,45.41449939999984,45.41449939999984,45.41449939999984,003,P006,2025_Jan_25_1242,CategoryLocalizer,2021.2.3,59.93899409185422,
15.8,16.0,5,0.0,Stimuli\Blank.png,0,0,0,8,8,8,,,,,,,,,,,,,15.812459499999932,0.012459499999931012,5,0.15579319999960717,46.21519189999981,46.21519189999981,46.21519189999981,46.21519189999981,46.21519189999981,46.21519189999981,46.21519189999981,46.21519189999981,003,P006,2025_Jan_25_1242,CategoryLocalizer,2021.2.3,59.93899409185422,
16.0,16.8,1,0.75,Stimuli\ImageFiles-Set1\Objects\Object_FileFolder_00001.png,0,0,0,9,9,9,,,,,,,,,,,,,16.012121700000534,0.012121700000534474,None,,46.41566890000013,46.41566890000013,46.41566890000013,46.41566890000013,46.41566890000013,46.41566890000013,46.41566890000013,46.41566890000013,003,P006,2025_Jan_25_1242,CategoryLocalizer,2021.2.3,59.93899409185422,
16.8,17.0,5,0.0,Stimuli\Blank.png,0,0,0,10,10,10,,,,,,,,,,,,,16.814175499999692,0.014175499999691255,None,,47.21722499999942,47.21722499999942,47.21722499999942,47.21722499999942,47.21722499999942,47.21722499999942,47.21722499999942,47.21722499999942,003,P006,2025_Jan_25_1242,CategoryLocalizer,2021.2.3,59.93899409185422,
17.0,17.8,1,0.75,Stimuli\ImageFiles-Set1\Objects\Object_Table_00001.png,0,0,0,11,11,11,,,,,,,,,,,,,17.013171600000533,0.013171600000532635,None,,47.41668949999985,47.41668949999985,47.41668949999985,47.41668949999985,47.41668949999985,47.41668949999985,47.41668949999985,47.41668949999985,003,P006,2025_Jan_25_1242,CategoryLocalizer,2021.2.3,59.93899409185422,
17.8,18.0,5,0.0,Stimuli\Blank.png,0,0,0,12,12,12,,,,,,,,,,,,,17.814878600000156,0.014878600000155728,5,0.1534219999994093,48.21756709999954,48.21756709999954,48.21756709999954,48.21756709999954,48.21756709999954,48.21756709999954,48.21756709999954,48.21756709999954,003,P006,2025_Jan_25_1242,CategoryLocalizer,2021.2.3,59.93899409185422,
18.0,18.8,1,0.75,Stimuli\ImageFiles-Set1\Objects\Object_Apple_00001.png,0,0,0,13,13,13,,,,,,,,,,,,,18.013045499999862,0.013045499999861931,None,,48.4173909000001,48.4173909000001,48.4173909000001,48.4173909000001,48.4173909000001,48.4173909000001,48.4173909000001,48.4173909000001,003,P006,2025_Jan_25_1242,CategoryLocalizer,2021.2.3,59.93899409185422,
18.8,19.0,5,0.0,Stimuli\Blank.png,0,0,0,14,14,14,,,,,,,,,,,,,18.816129499999988,0.016129499999987473,None,,49.21848659999978,49.21848659999978,49.21848659999978,49.21848659999978,49.21848659999978,49.21848659999978,49.21848659999978,49.21848659999978,003,P006,2025_Jan_25_1242,CategoryLocalizer,2021.2.3,59.93899409185422,
19.0,19.8,1,0.75,Stimuli\ImageFiles-Set1\Objects\Object_GarbageCan_00001.png,0,0,0,15,15,15,,,,,,,,,,,,,18.99859120000019,-0.0014087999998082523,None,,49.401740499999505,49.401740499999505,49.401740499999505,49.401740499999505,49.401740499999505,49.401740499999505,49.401740499999505,49.401740499999505,003,P006,2025_Jan_25_1242,CategoryLocalizer,2021.2.3,59.93899409185422,
19.8,20.0,5,0.0,Stimuli\Blank.png,0,0,0,16,16,16,,,,,,,,,,,,,19.799597000000176,-0.00040299999982451595,None,,50.20201300000008,50.20201300000008,50.20201300000008,50.20201300000008,50.20201300000008,50.20201300000008,50.20201300000008,50.20201300000008,003,P006,2025_Jan_25_1242,CategoryLocalizer,2021.2.3,59.93899409185422,
20.0,20.8,1,0.75,Stimuli\ImageFiles-Set1\Objects\Object_Brush_00001.png,0,0,0,17,17,17,,,,,,,,,,,,,19.998763300000064,-0.0012366999999358086,None,,50.40246969999953,50.40246969999953,50.40246969999953,50.40246969999953,50.40246969999953,50.40246969999953,50.40246969999953,50.40246969999953,003,P006,2025_Jan_25_1242,CategoryLocalizer,2021.2.3,59.93899409185422,
20.8,21.0,5,0.0,Stimuli\Blank.png,0,0,0,18,18,18,,,,,,,,,,,,,20.799344300000485,-0.0006556999995162016,None,,51.20311549999951,51.20311549999951,51.20311549999951,51.20311549999951,51.20311549999951,51.20311549999951,51.20311549999951,51.20311549999951,003,P006,2025_Jan_25_1242,CategoryLocalizer,2021.2.3,59.93899409185422,
21.0,21.8,1,0.75,Stimuli\ImageFiles-Set1\Objects\Object_Shirt_00001.png,0,0,0,19,19,19,,,,,,,,,,,,,20.999231900000268,-0.0007680999997319304,None,,51.40342369999962,51.40342369999962,51.40342369999962,51.40342369999962,51.40342369999962,51.40342369999962,51.40342369999962,51.40342369999962,003,P006,2025_Jan_25_1242,CategoryLocalizer,2021.2.3,59.93899409185422,
21.8,22.0,5,0.0,Stimuli\Blank.png,0,0,0,20,20,20,,,,,,,,,,,,,21.80223930000011,0.002239300000109523,5,0.16540709999935643,52.20553279999967,52.20553279999967,52.20553279999967,52.20553279999967,52.20553279999967,52.20553279999967,52.20553279999967,52.20553279999967,003,P006,2025_Jan_25_1242,CategoryLocalizer,2021.2.3,59.93899409185422,
22.0,22.8,1,0.75,Stimuli\ImageFiles-Set1\Objects\Object_Peanut_00001.png,0,0,0,21,21,21,,,,,,,,,,,,,22.00051319999966,0.000513199999659264,None,,52.404319100000066,52.404319100000066,52.404319100000066,52.404319100000066,52.404319100000066,52.404319100000066,52.404319100000066,52.404319100000066,003,P006,2025_Jan_25_1242,CategoryLocalizer,2021.2.3,59.93899409185422,
22.8,23.0,5,0.0,Stimuli\Blank.png,0,0,0,22,22,22,,,,,,,,,,,,,22.800842399999965,0.0008423999999642717,None,,53.204793199999585,53.204793199999585,53.204793199999585,53.204793199999585,53.204793199999585,53.204793199999585,53.204793199999585,53.204793199999585,003,P006,2025_Jan_25_1242,CategoryLocalizer,2021.2.3,59.93899409185422,
23.0,23.8,1,0.75,Stimuli\ImageFiles-Set1\Objects\Object_ShoppingCart_00001.png,0,0,0,23,23,23,,,,,,,,,,,,,23.00072790000013,0.0007279000001290115,None,,53.40932629999952,53.40932629999952,53.40932629999952,53.40932629999952,53.40932629999952,53.40932629999952,53.40932629999952,53.40932629999952,003,P006,2025_Jan_25_1242,CategoryLocalizer,2021.2.3,59.93899409185422,
23.8,24.0,5,0.0,Stimuli\Blank.png,0,0,0,24,24,24,,,,,,,,,,,,,23.81865360000029,0.01865360000028815,5,0.14849470000081055,54.22267809999994,54.22267809999994,54.22267809999994,54.22267809999994,54.22267809999994,54.22267809999994,54.22267809999994,54.22267809999994,003,P006,2025_Jan_25_1242,CategoryLocalizer,2021.2.3,59.93899409185422,
24.0,24.8,1,0.75,Stimuli\ImageFiles-Set1\Objects\Object_Box_00001.png,1,1,0,25,25,25,,,,,,,,,,,,,24.001387299999806,0.0013872999998056912,None,,54.406084199999896,54.406084199999896,54.406084199999896,54.406084199999896,54.406084199999896,54.406084199999896,54.406084199999896,54.406084199999896,003,P006,2025_Jan_25_1242,CategoryLocalizer,2021.2.3,59.93899409185422,
24.8,25.0,5,0.0,Stimuli\Blank.png,0,0,0,26,26,26,,,,,,,,,,,,,24.804367400000046,0.0043674000000457625,None,,55.20639979999942,55.20639979999942,55.20639979999942,55.20639979999942,55.20639979999942,55.20639979999942,55.20639979999942,55.20639979999942,003,P006,2025_Jan_25_1242,CategoryLocalizer,2021.2.3,59.93899409185422,
25.0,25.8,1,0.75,Stimuli\ImageFiles-Set1\Objects\Object_Scale_00001.png,0,0,0,27,27,27,,,,,,,,,,,,,25.00444880000032,0.0044488000003184425,None,,55.41247729999941,55.41247729999941,55.41247729999941,55.41247729999941,55.41247729999941,55.41247729999941,55.41247729999941,55.41247729999941,003,P006,2025_Jan_25_1242,CategoryLocalizer,2021.2.3,59.93899409185422,
25.8,26.0,5,0.0,Stimuli\Blank.png,0,0,0,28,28,28,,,,,,,,,,,,,25.80373520000012,0.0037352000001185104,5,0.16341019999981654,56.20770670000002,56.20770670000002,56.20770670000002,56.20770670000002,56.20770670000002,56.20770670000002,56.20770670000002,56.20770670000002,003,P006,2025_Jan_25_1242,CategoryLocalizer,2021.2.3,59.93899409185422,
26.0,26.8,1,0.75,Stimuli\ImageFiles-Set1\Objects\Object_Scale_00001.png,0,0,0,29,29,29,,,,,,,,,,,,,26.00455990000046,0.004559900000458583,1,0.49227820000032807,56.40790449999986,56.40790449999986,56.40790449999986,56.40790449999986,56.40790449999986,56.40790449999986,56.40790449999986,56.40790449999986,003,P006,2025_Jan_25_1242,CategoryLocalizer,2021.2.3,59.93899409185422,
26.8,27.0,5,0.0,Stimuli\Blank.png,0,0,0,30,30,30,,,,,,,,,,,,,26.80486010000004,0.004860100000041001,None,,57.20867929999986,57.20867929999986,57.20867929999986,57.20867929999986,57.20867929999986,57.20867929999986,57.20867929999986,57.20867929999986,003,P006,2025_Jan_25_1242,CategoryLocalizer,2021.2.3,59.93899409185422,
27.0,27.8,1,0.75,Stimuli\ImageFiles-Set1\Objects\Object_Book_00001.png,0,0,0,31,31,31,,,,,,,,,,,,,27.00511920000008,0.005119200000081037,None,,57.408661599999505,57.408661599999505,57.408661599999505,57.408661599999505,57.408661599999505,57.408661599999505,57.408661599999505,57.408661599999505,003,P006,2025_Jan_25_1242,CategoryLocalizer,2021.2.3,59.93899409185422,
27.8,28.0,5,0.0,Stimuli\Blank.png,0,0,0,32,32,32,,,,,,,,,,,,,27.806534999999712,0.006534999999711744,5,0.1621857000000091,58.20904569999948,58.20904569999948,58.20904569999948,58.20904569999948,58.20904569999948,58.20904569999948,58.20904569999948,58.20904569999948,003,P006,2025_Jan_25_1242,CategoryLocalizer,2021.2.3,59.93899409185422,
28.0,28.8,2,0.75,Stimuli\ImageFiles-Set1\Bodies\Bodies_Falling_00002.png,0,0,0,33,33,33,,,,,,,,,,,,,28.005742199999986,0.005742199999986042,None,,58.413963399999375,58.413963399999375,58.413963399999375,58.413963399999375,58.413963399999375,58.413963399999375,58.413963399999375,58.413963399999375,003,P006,2025_Jan_25_1242,CategoryLocalizer,2021.2.3,59.93899409185422,
28.8,29.0,5,0.0,Stimuli\Blank.png,0,0,0,34,34,34,,,,,,,,,,,,,28.807256600000073,0.007256600000072666,None,,59.2102304,59.2102304,59.2102304,59.2102304,59.2102304,59.2102304,59.2102304,59.2102304,003,P006,2025_Jan_25_1242,CategoryLocalizer,2021.2.3,59.93899409185422,
29.0,29.8,2,0.75,Stimuli\ImageFiles-Set1\Bodies\Bodies_Jumping_00002.png,0,0,0,35,35,35,,,,,,,,,,,,,29.006938999999875,0.006938999999874795,None,,59.4101499999997,59.4101499999997,59.4101499999997,59.4101499999997,59.4101499999997,59.4101499999997,59.4101499999997,59.4101499999997,003,P006,2025_Jan_25_1242,CategoryLocalizer,2021.2.3,59.93899409185422,
29.8,30.0,5,0.0,Stimuli\Blank.png,0,0,0,36,36,36,,,,,,,,,,,,,29.807831400000396,0.00783140000039495,5,0.16008190000047762,60.21119529999942,60.21119529999942,60.21119529999942,60.21119529999942,60.21119529999942,60.21119529999942,60.21119529999942,60.21119529999942,003,P006,2025_Jan_25_1242,CategoryLocalizer,2021.2.3,59.93899409185422,
30.0,30.8,2,0.75,Stimuli\ImageFiles-Set1\Bodies\Bodies_Standing_00001.png,0,0,0,37,37,37,,,,,,,,,,,,,30.007491399999708,0.007491399999707937,None,,60.41135309999936,60.41135309999936,60.41135309999936,60.41135309999936,60.41135309999936,60.41135309999936,60.41135309999936,60.41135309999936,003,P006,2025_Jan_25_1242,CategoryLocalizer,2021.2.3,59.93899409185422,
30.8,31.0,5,0.0,Stimuli\Blank.png,0,0,0,38,38,38,,,,,,,,,,,,,30.808871899999758,0.00887189999975746,None,,61.212220599999455,61.212220599999455,61.212220599999455,61.212220599999455,61.212220599999455,61.212220599999455,61.212220599999455,61.212220599999455,003,P006,2025_Jan_25_1242,CategoryLocalizer,2021.2.3,59.93899409185422,
31.0,31.8,2,0.75,Stimuli\ImageFiles-Set1\Bodies\Bodies_Punching_00001.png,0,0,0,39,39,39,,,,,,,,,,,,,31.009045400000105,0.009045400000104564,None,,61.41199289999986,61.41199289999986,61.41199289999986,61.41199289999986,61.41199289999986,61.41199289999986,61.41199289999986,61.41199289999986,003,P006,2025_Jan_25_1242,CategoryLocalizer,2021.2.3,59.93899409185422,
31.8,32.0,5,0.0,Stimuli\Blank.png,0,0,0,40,40,40,,,,,,,,,,,,,31.810136300000522,0.010136300000521459,5,0.15719110000009096,62.21396399999958,62.21396399999958,62.21396399999958,62.21396399999958,62.21396399999958,62.21396399999958,62.21396399999958,62.21396399999958,003,P006,2025_Jan_25_1242,CategoryLocalizer,2021.2.3,59.93899409185422,
32.0,32.8,2,0.75,Stimuli\ImageFiles-Set1\Bodies\Bodies_Kicking_00007.png,0,0,0,41,41,41,,,,,,,,,,,,,32.00934890000008,0.009348900000077265,None,,62.413067200000114,62.413067200000114,62.413067200000114,62.413067200000114,62.413067200000114,62.413067200000114,62.413067200000114,62.413067200000114,003,P006,2025_Jan_25_1242,CategoryLocalizer,2021.2.3,59.93899409185422,
32.8,33.0,5,0.0,Stimuli\Blank.png,0,0,0,42,42,42,,,,,,,,,,,,,32.811853500000325,0.011853500000327699,None,,63.21570939999947,63.21570939999947,63.21570939999947,63.21570939999947,63.21570939999947,63.21570939999947,63.21570939999947,63.21570939999947,003,P006,2025_Jan_25_1242,CategoryLocalizer,2021.2.3,59.93899409185422,
33.0,33.8,2,0.75,Stimuli\ImageFiles-Set1\Bodies\Bodies_Kicking_00003.png,0,0,0,43,43,43,,,,,,,,,,,,,33.010565999999926,0.010565999999926134,None,,63.414311099999395,63.414311099999395,63.414311099999395,63.414311099999395,63.414311099999395,63.414311099999395,63.414311099999395,63.414311099999395,003,P006,2025_Jan_25_1242,CategoryLocalizer,2021.2.3,59.93899409185422,
33.8,34.0,5,0.0,Stimuli\Blank.png,0,0,0,44,44,44,,,,,,,,,,,,,33.812728800000514,0.012728800000516571,5,0.15474890000041341,64.21615870000005,64.21615870000005,64.21615870000005,64.21615870000005,64.21615870000005,64.21615870000005,64.21615870000005,64.21615870000005,003,P006,2025_Jan_25_1242,CategoryLocalizer,2021.2.3,59.93899409185422,
34.0,34.8,2,0.75,Stimuli\ImageFiles-Set1\Bodies\Bodies_Pushing_00001.png,0,0,0,45,45,45,,,,,,,,,,,,,34.010956300000544,0.010956300000543706,None,,64.41514370000004,64.41514370000004,64.41514370000004,64.41514370000004,64.41514370000004,64.41514370000004,64.41514370000004,64.41514370000004,003,P006,2025_Jan_25_1242,CategoryLocalizer,2021.2.3,59.93899409185422,
34.8,35.0,5,0.0,Stimuli\Blank.png,0,0,0,46,46,46,,,,,,,,,,,,,34.813380900000084,0.013380900000086626,None,,65.21636750000016,65.21636750000016,65.21636750000016,65.21636750000016,65.21636750000016,65.21636750000016,65.21636750000016,65.21636750000016,003,P006,2025_Jan_25_1242,CategoryLocalizer,2021.2.3,59.93899409185422,
35.0,35.8,2,0.75,Stimuli\ImageFiles-Set1\Bodies\Bodies_Standing_00003.png,0,0,0,47,47,47,,,,,,,,,,,,,35.01311520000036,0.013115200000356708,None,,65.41952089999995,65.41952089999995,65.41952089999995,65.41952089999995,65.41952089999995,65.41952089999995,65.41952089999995,65.41952089999995,003,P006,2025_Jan_25_1242,CategoryLocalizer,2021.2.3,59.93899409185422,
35.8,36.0,5,0.0,Stimuli\Blank.png,0,0,0,48,48,48,,,,,,,,,,,,,35.81253220000053,0.012532200000535454,5,0.15427969999927882,66.21662449999985,66.21662449999985,66.21662449999985,66.21662449999985,66.21662449999985,66.21662449999985,66.21662449999985,66.21662449999985,003,P006,2025_Jan_25_1242,CategoryLocalizer,2021.2.3,59.93899409185422,
36.0,36.8,2,0.75,Stimuli\ImageFiles-Set1\Bodies\Bodies_PushUp_00004.png,0,0,0,49,49,49,,,,,,,,,,,,,36.012559699999656,0.012559699999656004,None,,66.4238121999997,66.4238121999997,66.4238121999997,66.4238121999997,66.4238121999997,66.4238121999997,66.4238121999997,66.4238121999997,003,P006,2025_Jan_25_1242,CategoryLocalizer,2021.2.3,59.93899409185422,
36.8,37.0,5,0.0,Stimuli\Blank.png,0,0,0,50,50,50,,,,,,,,,,,,,36.81492470000012,0.01492470000012247,None,,67.21764249999978,67.21764249999978,67.21764249999978,67.21764249999978,67.21764249999978,67.21764249999978,67.21764249999978,67.21764249999978,003,P006,2025_Jan_25_1242,CategoryLocalizer,2021.2.3,59.93899409185422,
37.0,37.8,2,0.75,Stimuli\ImageFiles-Set1\Bodies\Bodies_DownwardDog_00003.png,0,0,0,51,51,51,,,,,,,,,,,,,37.014974300000176,0.0149743000001763,None,,67.41731309999977,67.41731309999977,67.41731309999977,67.41731309999977,67.41731309999977,67.41731309999977,67.41731309999977,67.41731309999977,003,P006,2025_Jan_25_1242,CategoryLocalizer,2021.2.3,59.93899409185422,
37.8,38.0,5,0.0,Stimuli\Blank.png,0,0,0,52,52,52,,,,,,,,,,,,,37.79762579999988,-0.002374200000119231,5,0.16958830000021408,68.20153339999979,68.20153339999979,68.20153339999979,68.20153339999979,68.20153339999979,68.20153339999979,68.20153339999979,68.20153339999979,003,P006,2025_Jan_25_1242,CategoryLocalizer,2021.2.3,59.93899409185422,
38.0,38.8,2,0.75,Stimuli\ImageFiles-Set1\Bodies\Bodies_DownwardDog_00007.png,0,0,0,53,53,53,,,,,,,,,,,,,38.01571169999988,0.01571169999988342,None,,68.41956459999983,68.41956459999983,68.41956459999983,68.41956459999983,68.41956459999983,68.41956459999983,68.41956459999983,68.41956459999983,003,P006,2025_Jan_25_1242,CategoryLocalizer,2021.2.3,59.93899409185422,
38.8,39.0,5,0.0,Stimuli\Blank.png,0,0,0,54,54,54,,,,,,,,,,,,,38.7987361000005,-0.0012638999995004951,None,,69.2029324999994,69.2029324999994,69.2029324999994,69.2029324999994,69.2029324999994,69.2029324999994,69.2029324999994,69.2029324999994,003,P006,2025_Jan_25_1242,CategoryLocalizer,2021.2.3,59.93899409185422,
39.0,39.8,2,0.75,Stimuli\ImageFiles-Set1\Bodies\Bodies_Kicking_00005.png,0,0,0,55,55,55,,,,,,,,,,,,,39.01588309999988,0.01588309999988269,None,,69.41972339999938,69.41972339999938,69.41972339999938,69.41972339999938,69.41972339999938,69.41972339999938,69.41972339999938,69.41972339999938,003,P006,2025_Jan_25_1242,CategoryLocalizer,2021.2.3,59.93899409185422,
39.8,40.0,5,0.0,Stimuli\Blank.png,0,0,0,56,56,56,,,,,,,,,,,,,39.800629899999876,0.0006298999998790578,5,0.16727529999934632,70.20397929999945,70.20397929999945,70.20397929999945,70.20397929999945,70.20397929999945,70.20397929999945,70.20397929999945,70.20397929999945,003,P006,2025_Jan_25_1242,CategoryLocalizer,2021.2.3,59.93899409185422,
40.0,40.8,2,0.75,Stimuli\ImageFiles-Set1\Bodies\Bodies_Kicking_00005.png,1,1,0,57,57,57,,,,,,,,,,,,,39.99890070000038,-0.0010992999996233266,1,0.3902100999994218,70.40378359999977,70.40378359999977,70.40378359999977,70.40378359999977,70.40378359999977,70.40378359999977,70.40378359999977,70.40378359999977,003,P006,2025_Jan_25_1242,CategoryLocalizer,2021.2.3,59.93899409185422,
40.8,41.0,5,0.0,Stimuli\Blank.png,0,0,0,58,58,58,,,,,,,,,,,,,40.8010204000002,0.0010204000002005387,None,,71.20451629999934,71.20451629999934,71.20451629999934,71.20451629999934,71.20451629999934,71.20451629999934,71.20451629999934,71.20451629999934,003,P006,2025_Jan_25_1242,CategoryLocalizer,2021.2.3,59.93899409185422,
41.0,41.8,2,0.75,Stimuli\ImageFiles-Set1\Bodies\Bodies_Pushing_00003.png,0,0,0,59,59,59,,,,,,,,,,,,,41.00105280000025,0.0010528000002523186,None,,71.40434719999939,71.40434719999939,71.40434719999939,71.40434719999939,71.40434719999939,71.40434719999939,71.40434719999939,71.40434719999939,003,P006,2025_Jan_25_1242,CategoryLocalizer,2021.2.3,59.93899409185422,
41.8,42.0,5,0.0,Stimuli\Blank.png,0,0,0,60,60,60,,,,,,,,,,,,,41.802705799999785,0.002705799999787928,5,0.16606570000021748,72.20512249999956,72.20512249999956,72.20512249999956,72.20512249999956,72.20512249999956,72.20512249999956,72.20512249999956,72.20512249999956,003,P006,2025_Jan_25_1242,CategoryLocalizer,2021.2.3,59.93899409185422,
42.0,42.8,2,0.75,Stimuli\ImageFiles-Set1\Bodies\Bodies_Crawling_00006.png,0,0,0,61,61,61,,,,,,,,,,,,,42.001581200000146,0.0015812000001460547,None,,72.40567800000008,72.40567800000008,72.40567800000008,72.40567800000008,72.40567800000008,72.40567800000008,72.40567800000008,72.40567800000008,003,P006,2025_Jan_25_1242,CategoryLocalizer,2021.2.3,59.93899409185422,
42.8,43.0,5,0.0,Stimuli\Blank.png,0,0,0,62,62,62,,,,,,,,,,,,,42.803151699999944,0.0031516999999468,None,,73.20631929999945,73.20631929999945,73.20631929999945,73.20631929999945,73.20631929999945,73.20631929999945,73.20631929999945,73.20631929999945,003,P006,2025_Jan_25_1242,CategoryLocalizer,2021.2.3,59.93899409185422,
43.0,43.8,2,0.75,Stimuli\ImageFiles-Set1\Bodies\Bodies_SittingFloor_00007.png,0,0,0,63,63,63,,,,,,,,,,,,,43.00315299999966,0.0031529999996564584,None,,73.4063255000001,73.4063255000001,73.4063255000001,73.4063255000001,73.4063255000001,73.4063255000001,73.4063255000001,73.4063255000001,003,P006,2025_Jan_25_1242,CategoryLocalizer,2021.2.3,59.93899409185422,
43.8,44.0,5,0.0,Stimuli\Blank.png,0,0,0,64,64,64,,,,,,,,,,,,,43.804168700000446,0.004168700000448666,5,0.16345519999958924,74.20766589999948,74.20766589999948,74.20766589999948,74.20766589999948,74.20766589999948,74.20766589999948,74.20766589999948,74.20766589999948,003,P006,2025_Jan_25_1242,CategoryLocalizer,2021.2.3,59.93899409185422,
44.0,44.8,3,0.75,Stimuli\ImageFiles-Set1\Faces\Face_00057.png,0,0,0,65,65,65,,,,,,,,,,,,,44.00281840000025,0.002818400000251131,None,,74.40705350000007,74.40705350000007,74.40705350000007,74.40705350000007,74.40705350000007,74.40705350000007,74.40705350000007,74.40705350000007,003,P006,2025_Jan_25_1242,CategoryLocalizer,2021.2.3,59.93899409185422,
44.8,45.0,5,0.0,Stimuli\Blank.png,0,0,0,66,66,66,,,,,,,,,,,,,44.80422760000056,0.004227600000561438,None,,75.20816849999937,75.20816849999937,75.20816849999937,75.20816849999937,75.20816849999937,75.20816849999937,75.20816849999937,75.20816849999937,003,P006,2025_Jan_25_1242,CategoryLocalizer,2021.2.3,59.93899409185422,
45.0,45.8,3,0.75,Stimuli\ImageFiles-Set1\Faces\Face_00055.png,0,0,0,67,67,67,,,,,,,,,,,,,45.00565490000008,0.005654900000081398,None,,75.41213739999966,75.41213739999966,75.41213739999966,75.41213739999966,75.41213739999966,75.41213739999966,75.41213739999966,75.41213739999966,003,P006,2025_Jan_25_1242,CategoryLocalizer,2021.2.3,59.93899409185422,
45.8,46.0,5,0.0,Stimuli\Blank.png,0,0,0,68,68,68,,,,,,,,,,,,,45.807403499999964,0.007403499999966812,5,0.16135339999982534,76.20956109999952,76.20956109999952,76.20956109999952,76.20956109999952,76.20956109999952,76.20956109999952,76.20956109999952,76.20956109999952,003,P006,2025_Jan_25_1242,CategoryLocalizer,2021.2.3,59.93899409185422,
46.0,46.8,3,0.75,Stimuli\ImageFiles-Set1\Faces\Face_00055.png,1,1,0,69,69,69,,,,,,,,,,,,,46.00517420000051,0.005174200000510609,1,0.5270364999996673,76.4091226999999,76.4091226999999,76.4091226999999,76.4091226999999,76.4091226999999,76.4091226999999,76.4091226999999,76.4091226999999,003,P006,2025_Jan_25_1242,CategoryLocalizer,2021.2.3,59.93899409185422,
46.8,47.0,5,0.0,Stimuli\Blank.png,0,0,0,70,70,70,,,,,,,,,,,,,46.80782100000033,0.007821000000333811,None,,77.21118159999969,77.21118159999969,77.21118159999969,77.21118159999969,77.21118159999969,77.21118159999969,77.21118159999969,77.21118159999969,003,P006,2025_Jan_25_1242,CategoryLocalizer,2021.2.3,59.93899409185422,
47.0,47.8,3,0.75,Stimuli\ImageFiles-Set1\Faces\Face_00041.png,0,0,0,71,71,71,,,,,,,,,,,,,47.006362799999806,0.006362799999806157,None,,77.41223529999934,77.41223529999934,77.41223529999934,77.41223529999934,77.41223529999934,77.41223529999934,77.41223529999934,77.41223529999934,003,P006,2025_Jan_25_1242,CategoryLocalizer,2021.2.3,59.93899409185422,
47.8,48.0,5,0.0,Stimuli\Blank.png,0,0,0,72,72,72,,,,,,,,,,,,,47.80678799999987,0.006787999999872341,5,0.1603064999999333,78.21089870000014,78.21089870000014,78.21089870000014,78.21089870000014,78.21089870000014,78.21089870000014,78.21089870000014,78.21089870000014,003,P006,2025_Jan_25_1242,CategoryLocalizer,2021.2.3,59.93899409185422,
48.0,48.8,3,0.75,Stimuli\ImageFiles-Set1\Faces\Face_00115.png,0,0,0,73,73,73,,,,,,,,,,,,,48.00681179999992,0.006811799999923096,None,,78.41098640000018,78.41098640000018,78.41098640000018,78.41098640000018,78.41098640000018,78.41098640000018,78.41098640000018,78.41098640000018,003,P006,2025_Jan_25_1242,CategoryLocalizer,2021.2.3,59.93899409185422,
48.8,49.0,5,0.0,Stimuli\Blank.png,0,0,0,74,74,74,,,,,,,,,,,,,48.80796149999969,0.007961499999694865,None,,79.2115745000001,79.2115745000001,79.2115745000001,79.2115745000001,79.2115745000001,79.2115745000001,79.2115745000001,79.2115745000001,003,P006,2025_Jan_25_1242,CategoryLocalizer,2021.2.3,59.93899409185422,
49.0,49.8,3,0.75,Stimuli\ImageFiles-Set1\Faces\Face_00005.png,0,0,0,75,75,75,,,,,,,,,,,,,49.008234699999775,0.00823469999977533,None,,79.41584160000002,79.41584160000002,79.41584160000002,79.41584160000002,79.41584160000002,79.41584160000002,79.41584160000002,79.41584160000002,003,P006,2025_Jan_25_1242,CategoryLocalizer,2021.2.3,59.93899409185422,
49.8,50.0,5,0.0,Stimuli\Blank.png,0,0,0,76,76,76,,,,,,,,,,,,,49.808890500000416,0.00889050000041891,5,0.15875190000042494,80.21229379999932,80.21229379999932,80.21229379999932,80.21229379999932,80.21229379999932,80.21229379999932,80.21229379999932,80.21229379999932,003,P006,2025_Jan_25_1242,CategoryLocalizer,2021.2.3,59.93899409185422,
50.0,50.8,3,0.75,Stimuli\ImageFiles-Set1\Faces\Face_00001.png,0,0,0,77,77,77,,,,,,,,,,,,,50.008252800000264,0.00825280000026396,None,,80.41243200000008,80.41243200000008,80.41243200000008,80.41243200000008,80.41243200000008,80.41243200000008,80.41243200000008,80.41243200000008,003,P006,2025_Jan_25_1242,CategoryLocalizer,2021.2.3,59.93899409185422,
50.8,51.0,5,0.0,Stimuli\Blank.png,0,0,0,78,78,78,,,,,,,,,,,,,50.81018380000023,0.010183800000234555,None,,81.21337249999942,81.21337249999942,81.21337249999942,81.21337249999942,81.21337249999942,81.21337249999942,81.21337249999942,81.21337249999942,003,P006,2025_Jan_25_1242,CategoryLocalizer,2021.2.3,59.93899409185422,
51.0,51.8,3,0.75,Stimuli\ImageFiles-Set1\Faces\Face_00061.png,0,0,0,79,79,79,,,,,,,,,,,,,51.00977310000053,0.009773100000529666,None,,81.41619899999932,81.41619899999932,81.41619899999932,81.41619899999932,81.41619899999932,81.41619899999932,81.41619899999932,81.41619899999932,003,P006,2025_Jan_25_1242,CategoryLocalizer,2021.2.3,59.93899409185422,
51.8,52.0,5,0.0,Stimuli\Blank.png,0,0,0,80,80,80,,,,,,,,,,,,,51.81046979999974,0.010469799999739848,5,0.15701020000051358,82.21408969999993,82.21408969999993,82.21408969999993,82.21408969999993,82.21408969999993,82.21408969999993,82.21408969999993,82.21408969999993,003,P006,2025_Jan_25_1242,CategoryLocalizer,2021.2.3,59.93899409185422,
52.0,52.8,3,0.75,Stimuli\ImageFiles-Set1\Faces\Face_00024.png,0,0,0,81,81,81,,,,,,,,,,,,,52.01061600000048,0.010616000000482018,None,,82.41389650000019,82.41389650000019,82.41389650000019,82.41389650000019,82.41389650000019,82.41389650000019,82.41389650000019,82.41389650000019,003,P006,2025_Jan_25_1242,CategoryLocalizer,2021.2.3,59.93899409185422,
52.8,53.0,5,0.0,Stimuli\Blank.png,0,0,0,82,82,82,,,,,,,,,,,,,52.8108529000001,0.01085290000010275,None,,83.21490660000018,83.21490660000018,83.21490660000018,83.21490660000018,83.21490660000018,83.21490660000018,83.21490660000018,83.21490660000018,003,P006,2025_Jan_25_1242,CategoryLocalizer,2021.2.3,59.93899409185422,
53.0,53.8,3,0.75,Stimuli\ImageFiles-Set1\Faces\Face_00079.png,0,0,0,83,83,83,,,,,,,,,,,,,53.01127330000054,0.011273300000539166,None,,83.41699739999967,83.41699739999967,83.41699739999967,83.41699739999967,83.41699739999967,83.41699739999967,83.41699739999967,83.41699739999967,003,P006,2025_Jan_25_1242,CategoryLocalizer,2021.2.3,59.93899409185422,
53.8,54.0,5,0.0,Stimuli\Blank.png,0,0,0,84,84,84,,,,,,,,,,,,,53.811568300000545,0.011568300000547538,5,0.15512630000011995,84.21583370000008,84.21583370000008,84.21583370000008,84.21583370000008,84.21583370000008,84.21583370000008,84.21583370000008,84.21583370000008,003,P006,2025_Jan_25_1242,CategoryLocalizer,2021.2.3,59.93899409185422,
54.0,54.8,3,0.75,Stimuli\ImageFiles-Set1\Faces\Face_00067.png,0,0,0,85,85,85,,,,,,,,,,,,,54.011535300000105,0.011535300000105053,None,,84.41605829999935,84.41605829999935,84.41605829999935,84.41605829999935,84.41605829999935,84.41605829999935,84.41605829999935,84.41605829999935,003,P006,2025_Jan_25_1242,CategoryLocalizer,2021.2.3,59.93899409185422,
54.8,55.0,5,0.0,Stimuli\Blank.png,0,0,0,86,86,86,,,,,,,,,,,,,54.81264490000012,0.012644900000125858,None,,85.21676769999976,85.21676769999976,85.21676769999976,85.21676769999976,85.21676769999976,85.21676769999976,85.21676769999976,85.21676769999976,003,P006,2025_Jan_25_1242,CategoryLocalizer,2021.2.3,59.93899409185422,
55.0,55.8,3,0.75,Stimuli\ImageFiles-Set1\Faces\Face_00069.png,0,0,0,87,87,87,,,,,,,,,,,,,55.01341760000014,0.013417600000138918,None,,85.41911139999957,85.41911139999957,85.41911139999957,85.41911139999957,85.41911139999957,85.41911139999957,85.41911139999957,85.41911139999957,003,P006,2025_Jan_25_1242,CategoryLocalizer,2021.2.3,59.93899409185422,
55.8,56.0,5,0.0,Stimuli\Blank.png,0,0,0,88,88,88,,,,,,,,,,,,,55.81352020000031,0.01352020000031473,5,0.15346649999992223,86.21742469999936,86.21742469999936,86.21742469999936,86.21742469999936,86.21742469999936,86.21742469999936,86.21742469999936,86.21742469999936,003,P006,2025_Jan_25_1242,CategoryLocalizer,2021.2.3,59.93899409185422,
56.0,56.8,3,0.75,Stimuli\ImageFiles-Set1\Faces\Face_00022.png,0,0,0,89,89,89,,,,,,,,,,,,,56.01484810000056,0.014848100000563136,None,,86.41880599999968,86.41880599999968,86.41880599999968,86.41880599999968,86.41880599999968,86.41880599999968,86.41880599999968,86.41880599999968,003,P006,2025_Jan_25_1242,CategoryLocalizer,2021.2.3,59.93899409185422,
56.8,57.0,5,0.0,Stimuli\Blank.png,0,0,0,90,90,90,,,,,,,,,,,,,56.815334099999745,0.015334099999748219,None,,87.21900959999948,87.21900959999948,87.21900959999948,87.21900959999948,87.21900959999948,87.21900959999948,87.21900959999948,87.21900959999948,003,P006,2025_Jan_25_1242,CategoryLocalizer,2021.2.3,59.93899409185422,
57.0,57.8,3,0.75,Stimuli\ImageFiles-Set1\Faces\Face_00091.png,0,0,0,91,91,91,,,,,,,,,,,,,57.01490670000021,0.014906700000210549,None,,87.41866690000006,87.41866690000006,87.41866690000006,87.41866690000006,87.41866690000006,87.41866690000006,87.41866690000006,87.41866690000006,003,P006,2025_Jan_25_1242,CategoryLocalizer,2021.2.3,59.93899409185422,
57.8,58.0,5,0.0,Stimuli\Blank.png,0,0,0,92,92,92,,,,,,,,,,,,,57.816952799999854,0.016952799999856438,5,0.15069559999938065,88.22030759999961,88.22030759999961,88.22030759999961,88.22030759999961,88.22030759999961,88.22030759999961,88.22030759999961,88.22030759999961,003,P006,2025_Jan_25_1242,CategoryLocalizer,2021.2.3,59.93899409185422,
58.0,58.8,3,0.75,Stimuli\ImageFiles-Set1\Faces\Face_00117.png,0,0,0,93,93,93,,,,,,,,,,,,,57.99847899999986,-0.0015210000001388835,None,,88.40291919999981,88.40291919999981,88.40291919999981,88.40291919999981,88.40291919999981,88.40291919999981,88.40291919999981,88.40291919999981,003,P006,2025_Jan_25_1242,CategoryLocalizer,2021.2.3,59.93899409185422,
58.8,59.0,5,0.0,Stimuli\Blank.png,0,0,0,94,94,94,,,,,,,,,,,,,58.80127040000025,0.0012704000002514704,None,,89.20372709999992,89.20372709999992,89.20372709999992,89.20372709999992,89.20372709999992,89.20372709999992,89.20372709999992,89.20372709999992,003,P006,2025_Jan_25_1242,CategoryLocalizer,2021.2.3,59.93899409185422,
59.0,59.8,3,0.75,Stimuli\ImageFiles-Set1\Faces\Face_00031.png,0,0,0,95,95,95,,,,,,,,,,,,,58.99969200000032,-0.0003079999996771221,None,,89.40374639999936,89.40374639999936,89.40374639999936,89.40374639999936,89.40374639999936,89.40374639999936,89.40374639999936,89.40374639999936,003,P006,2025_Jan_25_1242,CategoryLocalizer,2021.2.3,59.93899409185422,
59.8,60.0,5,0.0,Stimuli\Blank.png,0,0,0,96,96,96,,,,,,,,,,,,,59.80086670000037,0.0008667000003725889,5,0.1665182000006098,90.20461530000011,90.20461530000011,90.20461530000011,90.20461530000011,90.20461530000011,90.20461530000011,90.20461530000011,90.20461530000011,003,P006,2025_Jan_25_1242,CategoryLocalizer,2021.2.3,59.93899409185422,
60.0,60.8,4,0.75,Stimuli\ImageFiles-Set1\Scenes\Scenes_048.png,0,0,0,97,97,97,,,,,,,,,,,,,60.000671100000545,0.0006711000005452661,None,,90.40468789999977,90.40468789999977,90.40468789999977,90.40468789999977,90.40468789999977,90.40468789999977,90.40468789999977,90.40468789999977,003,P006,2025_Jan_25_1242,CategoryLocalizer,2021.2.3,59.93899409185422,
60.8,61.0,5,0.0,Stimuli\Blank.png,0,0,0,98,98,98,,,,,,,,,,,,,60.80350150000049,0.003501500000496094,None,,91.20642189999944,91.20642189999944,91.20642189999944,91.20642189999944,91.20642189999944,91.20642189999944,91.20642189999944,91.20642189999944,003,P006,2025_Jan_25_1242,CategoryLocalizer,2021.2.3,59.93899409185422,
61.0,61.8,4,0.75,Stimuli\ImageFiles-Set1\Scenes\Scenes_026.png,0,0,0,99,99,99,,,,,,,,,,,,,61.00184369999988,0.0018436999998812098,None,,91.40521059999992,91.40521059999992,91.40521059999992,91.40521059999992,91.40521059999992,91.40521059999992,91.40521059999992,91.40521059999992,003,P006,2025_Jan_25_1242,CategoryLocalizer,2021.2.3,59.93899409185422,
61.8,62.0,5,0.0,Stimuli\Blank.png,0,0,0,100,100,100,,,,,,,,,,,,,61.80318140000054,0.003181400000542567,5,0.16437820000010106,92.20687999999973,92.20687999999973,92.20687999999973,92.20687999999973,92.20687999999973,92.20687999999973,92.20687999999973,92.20687999999973,003,P006,2025_Jan_25_1242,CategoryLocalizer,2021.2.3,59.93899409185422,
62.0,62.8,4,0.75,Stimuli\ImageFiles-Set1\Scenes\Scenes_049.png,0,0,0,101,101,101,,,,,,,,,,,,,62.00259410000035,0.002594100000351318,None,,92.40723290000005,92.40723290000005,92.40723290000005,92.40723290000005,92.40723290000005,92.40723290000005,92.40723290000005,92.40723290000005,003,P006,2025_Jan_25_1242,CategoryLocalizer,2021.2.3,59.93899409185422,
62.8,63.0,5,0.0,Stimuli\Blank.png,0,0,0,102,102,102,,,,,,,,,,,,,62.80521300000055,0.005213000000551915,None,,93.20847049999975,93.20847049999975,93.20847049999975,93.20847049999975,93.20847049999975,93.20847049999975,93.20847049999975,93.20847049999975,003,P006,2025_Jan_25_1242,CategoryLocalizer,2021.2.3,59.93899409185422,
63.0,63.8,4,0.75,Stimuli\ImageFiles-Set1\Scenes\Scenes_053.png,0,0,0,103,103,103,,,,,,,,,,,,,63.00405380000029,0.00405380000029254,None,,93.4113539,93.4113539,93.4113539,93.4113539,93.4113539,93.4113539,93.4113539,93.4113539,003,P006,2025_Jan_25_1242,CategoryLocalizer,2021.2.3,59.93899409185422,
63.8,64.0,5,0.0,Stimuli\Blank.png,0,0,0,104,104,104,,,,,,,,,,,,,63.80633730000045,0.006337300000453183,5,0.1613575999999739,94.20951289999994,94.20951289999994,94.20951289999994,94.20951289999994,94.20951289999994,94.20951289999994,94.20951289999994,94.20951289999994,003,P006,2025_Jan_25_1242,CategoryLocalizer,2021.2.3,59.93899409185422,
64.0,64.8,4,0.75,Stimuli\ImageFiles-Set1\Scenes\Scenes_023.png,0,0,0,105,105,105,,,,,,,,,,,,,64.0041228,0.004122800000004645,None,,94.40855419999934,94.40855419999934,94.40855419999934,94.40855419999934,94.40855419999934,94.40855419999934,94.40855419999934,94.40855419999934,003,P006,2025_Jan_25_1242,CategoryLocalizer,2021.2.3,59.93899409185422,
64.8,65.0,5,0.0,Stimuli\Blank.png,0,0,0,106,106,106,,,,,,,,,,,,,64.80567280000014,0.005672800000141365,None,,95.20914519999951,95.20914519999951,95.20914519999951,95.20914519999951,95.20914519999951,95.20914519999951,95.20914519999951,95.20914519999951,003,P006,2025_Jan_25_1242,CategoryLocalizer,2021.2.3,59.93899409185422,
65.0,65.8,4,0.75,Stimuli\ImageFiles-Set1\Scenes\Scenes_024.png,0,0,0,107,107,107,,,,,,,,,,,,,65.00544009999976,0.0054400999997596955,None,,95.41343649999999,95.41343649999999,95.41343649999999,95.41343649999999,95.41343649999999,95.41343649999999,95.41343649999999,95.41343649999999,003,P006,2025_Jan_25_1242,CategoryLocalizer,2021.2.3,59.93899409185422,
65.8,66.0,5,0.0,Stimuli\Blank.png,0,0,0,108,108,108,,,,,,,,,,,,,65.8075144000004,0.007514400000403043,5,0.16128049999952054,96.20978999999988,96.20978999999988,96.20978999999988,96.20978999999988,96.20978999999988,96.20978999999988,96.20978999999988,96.20978999999988,003,P006,2025_Jan_25_1242,CategoryLocalizer,2021.2.3,59.93899409185422,
66.0,66.8,4,0.75,Stimuli\ImageFiles-Set1\Scenes\Scenes_041.png,0,0,0,109,109,109,,,,,,,,,,,,,66.0059925000005,0.005992500000502332,None,,96.40974409999944,96.40974409999944,96.40974409999944,96.40974409999944,96.40974409999944,96.40974409999944,96.40974409999944,96.40974409999944,003,P006,2025_Jan_25_1242,CategoryLocalizer,2021.2.3,59.93899409185422,
66.8,67.0,5,0.0,Stimuli\Blank.png,0,0,0,110,110,110,,,,,,,,,,,,,66.80875879999985,0.008758799999853295,None,,97.21177019999959,97.21177019999959,97.21177019999959,97.21177019999959,97.21177019999959,97.21177019999959,97.21177019999959,97.21177019999959,003,P006,2025_Jan_25_1242,CategoryLocalizer,2021.2.3,59.93899409185422,
67.0,67.8,4,0.75,Stimuli\ImageFiles-Set1\Scenes\Scenes_050.png,0,0,0,111,111,111,,,,,,,,,,,,,67.00708450000002,0.007084500000019034,None,,97.4121441999996,97.4121441999996,97.4121441999996,97.4121441999996,97.4121441999996,97.4121441999996,97.4121441999996,97.4121441999996,003,P006,2025_Jan_25_1242,CategoryLocalizer,2021.2.3,59.93899409185422,
67.8,68.0,5,0.0,Stimuli\Blank.png,0,0,0,112,112,112,,,,,,,,,,,,,67.80782499999987,0.007824999999868965,5,0.15958909999972093,98.21180229999936,98.21180229999936,98.21180229999936,98.21180229999936,98.21180229999936,98.21180229999936,98.21180229999936,98.21180229999936,003,P006,2025_Jan_25_1242,CategoryLocalizer,2021.2.3,59.93899409185422,
68.0,68.8,4,0.75,Stimuli\ImageFiles-Set1\Scenes\Scenes_027.png,0,0,0,113,113,113,,,,,,,,,,,,,68.00774350000029,0.007743500000287895,None,,98.41165999999976,98.41165999999976,98.41165999999976,98.41165999999976,98.41165999999976,98.41165999999976,98.41165999999976,98.41165999999976,003,P006,2025_Jan_25_1242,CategoryLocalizer,2021.2.3,59.93899409185422,
68.8,69.0,5,0.0,Stimuli\Blank.png,0,0,0,114,114,114,,,,,,,,,,,,,68.80875139999989,0.008751399999894716,None,,99.21306949999962,99.21306949999962,99.21306949999962,99.21306949999962,99.21306949999962,99.21306949999962,99.21306949999962,99.21306949999962,003,P006,2025_Jan_25_1242,CategoryLocalizer,2021.2.3,59.93899409185422,
69.0,69.8,4,0.75,Stimuli\ImageFiles-Set1\Scenes\Scenes_043.png,0,0,0,115,115,115,,,,,,,,,,,,,69.00898609999967,0.00898609999967448,None,,99.41632229999959,99.41632229999959,99.41632229999959,99.41632229999959,99.41632229999959,99.41632229999959,99.41632229999959,99.41632229999959,003,P006,2025_Jan_25_1242,CategoryLocalizer,2021.2.3,59.93899409185422,
69.8,70.0,5,0.0,Stimuli\Blank.png,0,0,0,116,116,116,,,,,,,,,,,,,69.80993480000052,0.00993480000052216,5,0.15753099999983533,100.21349589999954,100.21349589999954,100.21349589999954,100.21349589999954,100.21349589999954,100.21349589999954,100.21349589999954,100.21349589999954,003,P006,2025_Jan_25_1242,CategoryLocalizer,2021.2.3,59.93899409185422,
70.0,70.8,4,0.75,Stimuli\ImageFiles-Set1\Scenes\Scenes_006.png,0,0,0,117,117,117,,,,,,,,,,,,,70.00981270000011,0.009812700000111363,None,,100.41354090000004,100.41354090000004,100.41354090000004,100.41354090000004,100.41354090000004,100.41354090000004,100.41354090000004,100.41354090000004,003,P006,2025_Jan_25_1242,CategoryLocalizer,2021.2.3,59.93899409185422,
70.8,71.0,5,0.0,Stimuli\Blank.png,0,0,0,118,118,118,,,,,,,,,,,,,70.81080530000054,0.010805300000541251,None,,101.21436509999967,101.21436509999967,101.21436509999967,101.21436509999967,101.21436509999967,101.21436509999967,101.21436509999967,101.21436509999967,003,P006,2025_Jan_25_1242,CategoryLocalizer,2021.2.3,59.93899409185422,
71.0,71.8,4,0.75,Stimuli\ImageFiles-Set1\Scenes\Scenes_013.png,0,0,0,119,119,119,,,,,,,,,,,,,71.01049950000015,0.010499500000150874,None,,101.42549229999986,101.42549229999986,101.42549229999986,101.42549229999986,101.42549229999986,101.42549229999986,101.42549229999986,101.42549229999986,003,P006,2025_Jan_25_1242,CategoryLocalizer,2021.2.3,59.93899409185422,
71.8,72.0,5,0.0,Stimuli\Blank.png,0,0,0,120,120,120,,,,,,,,,,,,,71.81239040000037,0.012390400000370505,5,0.13938470000084635,102.23202929999934,102.23202929999934,102.23202929999934,102.23202929999934,102.23202929999934,102.23202929999934,102.23202929999934,102.23202929999934,003,P006,2025_Jan_25_1242,CategoryLocalizer,2021.2.3,59.93899409185422,
72.0,72.8,4,0.75,Stimuli\ImageFiles-Set1\Scenes\Scenes_013.png,1,1,0,121,121,121,,,,,,,,,,,,,72.02750920000017,0.027509200000167766,1,0.4540209999995568,102.43188269999973,102.43188269999973,102.43188269999973,102.43188269999973,102.43188269999973,102.43188269999973,102.43188269999973,102.43188269999973,003,P006,2025_Jan_25_1242,CategoryLocalizer,2021.2.3,59.93899409185422,
72.8,73.0,5,0.0,Stimuli\Blank.png,0,0,0,122,122,122,,,,,,,,,,,,,72.81189340000037,0.011893400000374754,None,,103.21602050000001,103.21602050000001,103.21602050000001,103.21602050000001,103.21602050000001,103.21602050000001,103.21602050000001,103.21602050000001,003,P006,2025_Jan_25_1242,CategoryLocalizer,2021.2.3,59.93899409185422,
73.0,73.8,4,0.75,Stimuli\ImageFiles-Set1\Scenes\Scenes_004.png,0,0,0,123,123,123,,,,,,,,,,,,,73.01286340000024,0.012863400000242109,None,,103.43301249999968,103.43301249999968,103.43301249999968,103.43301249999968,103.43301249999968,103.43301249999968,103.43301249999968,103.43301249999968,003,P006,2025_Jan_25_1242,CategoryLocalizer,2021.2.3,59.93899409185422,
73.8,74.0,5,0.0,Stimuli\Blank.png,0,0,0,124,124,124,,,,,,,,,,,,,73.83076220000021,0.030762200000211237,5,0.13754310000058467,104.2333678999994,104.2333678999994,104.2333678999994,104.2333678999994,104.2333678999994,104.2333678999994,104.2333678999994,104.2333678999994,003,P006,2025_Jan_25_1242,CategoryLocalizer,2021.2.3,59.93899409185422,
74.0,74.8,4,0.75,Stimuli\ImageFiles-Set1\Scenes\Scenes_044.png,0,0,0,125,125,125,,,,,,,,,,,,,74.01378250000016,0.013782500000161235,None,,104.41669939999974,104.41669939999974,104.41669939999974,104.41669939999974,104.41669939999974,104.41669939999974,104.41669939999974,104.41669939999974,003,P006,2025_Jan_25_1242,CategoryLocalizer,2021.2.3,59.93899409185422,
74.8,75.0,5,0.0,Stimuli\Blank.png,0,0,0,126,126,126,,,,,,,,,,,,,74.81398590000026,0.01398590000026445,None,,105.21795569999995,105.21795569999995,105.21795569999995,105.21795569999995,105.21795569999995,105.21795569999995,105.21795569999995,105.21795569999995,003,P006,2025_Jan_25_1242,CategoryLocalizer,2021.2.3,59.93899409185422,
75.0,75.8,4,0.75,Stimuli\ImageFiles-Set1\Scenes\Scenes_057.png,0,0,0,127,127,127,,,,,,,,,,,,,75.0151851999999,0.015185199999905308,None,,105.42264399999931,105.42264399999931,105.42264399999931,105.42264399999931,105.42264399999931,105.42264399999931,105.42264399999931,105.42264399999931,003,P006,2025_Jan_25_1242,CategoryLocalizer,2021.2.3,59.93899409185422,
75.8,76.0,5,0.0,Stimuli\Blank.png,0,0,0,128,128,128,,,,,,,,,,,,,75.81578850000005,0.01578850000005616,None,,106.21857039999941,106.21857039999941,106.21857039999941,106.21857039999941,106.21857039999941,106.21857039999941,106.21857039999941,106.21857039999941,003,P006,2025_Jan_25_1242,CategoryLocalizer,2021.2.3,59.93899409185422,
76.0,88.0,0,0.0,Stimuli\Blank.png,0,0,0,129,129,129,,,,,,,,,,,,,75.99878520000038,-0.0012147999996159342,5,11.96846050000022,106.40235819999998,106.40235819999998,106.40235819999998,106.40235819999998,106.40235819999998,106.40235819999998,106.40235819999998,106.40235819999998,003,P006,2025_Jan_25_1242,CategoryLocalizer,2021.2.3,59.93899409185422,
88.0,88.8,3,0.75,Stimuli\ImageFiles-Set1\Faces\Face_00113.png,0,0,0,130,130,130,,,,,,,,,,,,,88.0087368000004,0.00873680000040622,None,,118.4153083000001,118.4153083000001,118.4153083000001,118.4153083000001,118.4153083000001,118.4153083000001,118.4153083000001,118.4153083000001,003,P006,2025_Jan_25_1242,CategoryLocalizer,2021.2.3,59.93899409185422,
88.8,89.0,5,0.0,Stimuli\Blank.png,0,0,0,131,131,131,,,,,,,,,,,,,88.80992760000026,0.009927600000267489,None,,119.21370409999963,119.21370409999963,119.21370409999963,119.21370409999963,119.21370409999963,119.21370409999963,119.21370409999963,119.21370409999963,003,P006,2025_Jan_25_1242,CategoryLocalizer,2021.2.3,59.93899409185422,
89.0,89.8,3,0.75,Stimuli\ImageFiles-Set1\Faces\Face_00081.png,0,0,0,132,132,132,,,,,,,,,,,,,89.01140149999992,0.011401499999919906,None,,119.42144699999972,119.42144699999972,119.42144699999972,119.42144699999972,119.42144699999972,119.42144699999972,119.42144699999972,119.42144699999972,003,P006,2025_Jan_25_1242,CategoryLocalizer,2021.2.3,59.93899409185422,
89.8,90.0,5,0.0,Stimuli\Blank.png,0,0,0,133,133,133,,,,,,,,,,,,,89.81074530000024,0.01074530000023799,5,0.15693129999999655,120.21438699999999,120.21438699999999,120.21438699999999,120.21438699999999,120.21438699999999,120.21438699999999,120.21438699999999,120.21438699999999,003,P006,2025_Jan_25_1242,CategoryLocalizer,2021.2.3,59.93899409185422,
90.0,90.8,3,0.75,Stimuli\ImageFiles-Set1\Faces\Face_00119.png,0,0,0,134,134,134,,,,,,,,,,,,,90.01028510000015,0.010285100000146485,None,,120.41442939999979,120.41442939999979,120.41442939999979,120.41442939999979,120.41442939999979,120.41442939999979,120.41442939999979,120.41442939999979,003,P006,2025_Jan_25_1242,CategoryLocalizer,2021.2.3,59.93899409185422,
90.8,91.0,5,0.0,Stimuli\Blank.png,0,0,0,135,135,135,,,,,,,,,,,,,90.81082539999989,0.010825399999887964,None,,121.21529190000001,121.21529190000001,121.21529190000001,121.21529190000001,121.21529190000001,121.21529190000001,121.21529190000001,121.21529190000001,003,P006,2025_Jan_25_1242,CategoryLocalizer,2021.2.3,59.93899409185422,
91.0,91.8,3,0.75,Stimuli\ImageFiles-Set1\Faces\Face_00049.png,0,0,0,136,136,136,,,,,,,,,,,,,91.01174890000038,0.01174890000038431,None,,121.41659900000013,121.41659900000013,121.41659900000013,121.41659900000013,121.41659900000013,121.41659900000013,121.41659900000013,121.41659900000013,003,P006,2025_Jan_25_1242,CategoryLocalizer,2021.2.3,59.93899409185422,
91.8,92.0,5,0.0,Stimuli\Blank.png,0,0,0,137,137,137,,,,,,,,,,,,,91.81185950000054,0.011859500000539924,5,0.15502070000002277,122.21588069999962,122.21588069999962,122.21588069999962,122.21588069999962,122.21588069999962,122.21588069999962,122.21588069999962,122.21588069999962,003,P006,2025_Jan_25_1242,CategoryLocalizer,2021.2.3,59.93899409185422,
92.0,92.8,3,0.75,Stimuli\ImageFiles-Set1\Faces\Face_00049.png,1,1,0,138,138,138,,,,,,,,,,,,,92.01187140000002,0.011871400000018184,1,0.4812243000005765,122.41586499999994,122.41586499999994,122.41586499999994,122.41586499999994,122.41586499999994,122.41586499999994,122.41586499999994,122.41586499999994,003,P006,2025_Jan_25_1242,CategoryLocalizer,2021.2.3,59.93899409185422,
92.8,93.0,5,0.0,Stimuli\Blank.png,0,0,0,139,139,139,,,,,,,,,,,,,92.81376120000004,0.013761200000047324,None,,123.2174742999996,123.2174742999996,123.2174742999996,123.2174742999996,123.2174742999996,123.2174742999996,123.2174742999996,123.2174742999996,003,P006,2025_Jan_25_1242,CategoryLocalizer,2021.2.3,59.93899409185422,
93.0,93.8,3,0.75,Stimuli\ImageFiles-Set1\Faces\Face_00059.png,0,0,0,140,140,140,,,,,,,,,,,,,93.01384210000015,0.013842100000147184,None,,123.41813459999958,123.41813459999958,123.41813459999958,123.41813459999958,123.41813459999958,123.41813459999958,123.41813459999958,123.41813459999958,003,P006,2025_Jan_25_1242,CategoryLocalizer,2021.2.3,59.93899409185422,
93.8,94.0,5,0.0,Stimuli\Blank.png,0,0,0,141,141,141,,,,,,,,,,,,,93.81378889999996,0.01378889999996602,5,0.1525695000000269,124.21830609999961,124.21830609999961,124.21830609999961,124.21830609999961,124.21830609999961,124.21830609999961,124.21830609999961,124.21830609999961,003,P006,2025_Jan_25_1242,CategoryLocalizer,2021.2.3,59.93899409185422,
94.0,94.8,3,0.75,Stimuli\ImageFiles-Set1\Faces\Face_00101.png,0,0,0,142,142,142,,,,,,,,,,,,,94.01481919999969,0.0148191999996925,None,,124.41894919999959,124.41894919999959,124.41894919999959,124.41894919999959,124.41894919999959,124.41894919999959,124.41894919999959,124.41894919999959,003,P006,2025_Jan_25_1242,CategoryLocalizer,2021.2.3,59.93899409185422,
94.8,95.0,5,0.0,Stimuli\Blank.png,0,0,0,143,143,143,,,,,,,,,,,,,94.81405960000029,0.014059600000294381,None,,125.21850649999942,125.21850649999942,125.21850649999942,125.21850649999942,125.21850649999942,125.21850649999942,125.21850649999942,125.21850649999942,003,P006,2025_Jan_25_1242,CategoryLocalizer,2021.2.3,59.93899409185422,
95.0,95.8,3,0.75,Stimuli\ImageFiles-Set1\Faces\Face_00039.png,0,0,0,144,144,144,,,,,,,,,,,,,95.01497420000032,0.014974200000324345,None,,125.42075859999932,125.42075859999932,125.42075859999932,125.42075859999932,125.42075859999932,125.42075859999932,125.42075859999932,125.42075859999932,003,P006,2025_Jan_25_1242,CategoryLocalizer,2021.2.3,59.93899409185422,
95.8,96.0,5,0.0,Stimuli\Blank.png,0,0,0,145,145,145,,,,,,,,,,,,,95.81588100000045,0.015881000000447898,5,0.15135370000007242,126.21954339999957,126.21954339999957,126.21954339999957,126.21954339999957,126.21954339999957,126.21954339999957,126.21954339999957,126.21954339999957,003,P006,2025_Jan_25_1242,CategoryLocalizer,2021.2.3,59.93899409185422,
96.0,96.8,3,0.75,Stimuli\ImageFiles-Set1\Faces\Face_00047.png,1,1,0,146,146,146,,,,,,,,,,,,,95.99942079999983,-0.000579200000174751,None,,126.40378650000002,126.40378650000002,126.40378650000002,126.40378650000002,126.40378650000002,126.40378650000002,126.40378650000002,126.40378650000002,003,P006,2025_Jan_25_1242,CategoryLocalizer,2021.2.3,59.93899409185422,
96.8,97.0,5,0.0,Stimuli\Blank.png,0,0,0,147,147,147,,,,,,,,,,,,,96.80100850000053,0.0010085000005375377,None,,127.2041478000001,127.2041478000001,127.2041478000001,127.2041478000001,127.2041478000001,127.2041478000001,127.2041478000001,127.2041478000001,003,P006,2025_Jan_25_1242,CategoryLocalizer,2021.2.3,59.93899409185422,
97.0,97.8,3,0.75,Stimuli\ImageFiles-Set1\Faces\Face_00065.png,0,0,0,148,148,148,,,,,,,,,,,,,97.00085339999987,0.0008533999998689978,None,,127.40542249999999,127.40542249999999,127.40542249999999,127.40542249999999,127.40542249999999,127.40542249999999,127.40542249999999,127.40542249999999,003,P006,2025_Jan_25_1242,CategoryLocalizer,2021.2.3,59.93899409185422,
97.8,98.0,5,0.0,Stimuli\Blank.png,0,0,0,149,149,149,,,,,,,,,,,,,97.80230660000052,0.0023066000005229625,5,0.16666179999992892,128.20454549999977,128.20454549999977,128.20454549999977,128.20454549999977,128.20454549999977,128.20454549999977,128.20454549999977,128.20454549999977,003,P006,2025_Jan_25_1242,CategoryLocalizer,2021.2.3,59.93899409185422,
98.0,98.8,3,0.75,Stimuli\ImageFiles-Set1\Faces\Face_00065.png,0,0,0,150,150,150,,,,,,,,,,,,,98.00084719999995,0.0008471999999528634,1,0.45901120000053197,128.40524689999984,128.40524689999984,128.40524689999984,128.40524689999984,128.40524689999984,128.40524689999984,128.40524689999984,128.40524689999984,003,P006,2025_Jan_25_1242,CategoryLocalizer,2021.2.3,59.93899409185422,
98.8,99.0,5,0.0,Stimuli\Blank.png,0,0,0,151,151,151,,,,,,,,,,,,,98.80382800000007,0.0038280000000696646,None,,129.20699520000016,129.20699520000016,129.20699520000016,129.20699520000016,129.20699520000016,129.20699520000016,129.20699520000016,129.20699520000016,003,P006,2025_Jan_25_1242,CategoryLocalizer,2021.2.3,59.93899409185422,
99.0,99.8,3,0.75,Stimuli\ImageFiles-Set1\Faces\Face_00105.png,0,0,0,152,152,152,,,,,,,,,,,,,99.00143410000055,0.0014341000005515525,None,,129.40556579999975,129.40556579999975,129.40556579999975,129.40556579999975,129.40556579999975,129.40556579999975,129.40556579999975,129.40556579999975,003,P006,2025_Jan_25_1242,CategoryLocalizer,2021.2.3,59.93899409185422,
99.8,100.0,5,0.0,Stimuli\Blank.png,0,0,0,153,153,153,,,,,,,,,,,,,99.8036490000004,0.0036490000004079093,5,0.16460470000038185,130.20629399999962,130.20629399999962,130.20629399999962,130.20629399999962,130.20629399999962,130.20629399999962,130.20629399999962,130.20629399999962,003,P006,2025_Jan_25_1242,CategoryLocalizer,2021.2.3,59.93899409185422,
100.0,100.8,3,0.75,Stimuli\ImageFiles-Set1\Faces\Face_00018.png,0,0,0,154,154,154,,,,,,,,,,,,,100.00287630000003,0.002876300000025367,None,,130.40753669999958,130.40753669999958,130.40753669999958,130.40753669999958,130.40753669999958,130.40753669999958,130.40753669999958,130.40753669999958,003,P006,2025_Jan_25_1242,CategoryLocalizer,2021.2.3,59.93899409185422,
100.8,101.0,5,0.0,Stimuli\Blank.png,0,0,0,155,155,155,,,,,,,,,,,,,100.8048845000003,0.004884500000301273,None,,131.20737519999966,131.20737519999966,131.20737519999966,131.20737519999966,131.20737519999966,131.20737519999966,131.20737519999966,131.20737519999966,003,P006,2025_Jan_25_1242,CategoryLocalizer,2021.2.3,59.93899409185422,
101.0,101.8,3,0.75,Stimuli\ImageFiles-Set1\Faces\Face_00053.png,0,0,0,156,156,156,,,,,,,,,,,,,101.00399519999974,0.0039951999997356324,None,,131.4154609999996,131.4154609999996,131.4154609999996,131.4154609999996,131.4154609999996,131.4154609999996,131.4154609999996,131.4154609999996,003,P006,2025_Jan_25_1242,CategoryLocalizer,2021.2.3,59.93899409185422,
101.8,102.0,5,0.0,Stimuli\Blank.png,0,0,0,157,157,157,,,,,,,,,,,,,101.82128990000001,0.021289900000013517,5,0.14635069999985717,132.22473159999936,132.22473159999936,132.22473159999936,132.22473159999936,132.22473159999936,132.22473159999936,132.22473159999936,132.22473159999936,003,P006,2025_Jan_25_1242,CategoryLocalizer,2021.2.3,59.93899409185422,
102.0,102.8,3,0.75,Stimuli\ImageFiles-Set1\Faces\Face_00045.png,0,0,0,158,158,158,,,,,,,,,,,,,102.00482499999998,0.004824999999982538,None,,132.40845079999963,132.40845079999963,132.40845079999963,132.40845079999963,132.40845079999963,132.40845079999963,132.40845079999963,132.40845079999963,003,P006,2025_Jan_25_1242,CategoryLocalizer,2021.2.3,59.93899409185422,
102.8,103.0,5,0.0,Stimuli\Blank.png,0,0,0,159,159,159,,,,,,,,,,,,,102.80515130000003,0.00515130000003694,None,,133.20908689999942,133.20908689999942,133.20908689999942,133.20908689999942,133.20908689999942,133.20908689999942,133.20908689999942,133.20908689999942,003,P006,2025_Jan_25_1242,CategoryLocalizer,2021.2.3,59.93899409185422,
103.0,103.8,3,0.75,Stimuli\ImageFiles-Set1\Faces\Face_00087.png,0,0,0,160,160,160,,,,,,,,,,,,,103.0063454000001,0.006345400000100199,None,,133.4120656999994,133.4120656999994,133.4120656999994,133.4120656999994,133.4120656999994,133.4120656999994,133.4120656999994,133.4120656999994,003,P006,2025_Jan_25_1242,CategoryLocalizer,2021.2.3,59.93899409185422,
103.8,104.0,5,0.0,Stimuli\Blank.png,0,0,0,161,161,161,,,,,,,,,,,,,103.80670800000007,0.006708000000074321,5,0.1608859999996639,134.21026110000003,134.21026110000003,134.21026110000003,134.21026110000003,134.21026110000003,134.21026110000003,134.21026110000003,134.21026110000003,003,P006,2025_Jan_25_1242,CategoryLocalizer,2021.2.3,59.93899409185422,
104.0,104.8,1,0.75,Stimuli\ImageFiles-Set1\Objects\Object_Key_00001.png,0,0,0,162,162,162,,,,,,,,,,,,,104.00616739999987,0.0061673999998674844,None,,134.4100740999993,134.4100740999993,134.4100740999993,134.4100740999993,134.4100740999993,134.4100740999993,134.4100740999993,134.4100740999993,003,P006,2025_Jan_25_1242,CategoryLocalizer,2021.2.3,59.93899409185422,
104.8,105.0,5,0.0,Stimuli\Blank.png,0,0,0,163,163,163,,,,,,,,,,,,,104.80746770000042,0.007467700000418631,None,,135.21081979999963,135.21081979999963,135.21081979999963,135.21081979999963,135.21081979999963,135.21081979999963,135.21081979999963,135.21081979999963,003,P006,2025_Jan_25_1242,CategoryLocalizer,2021.2.3,59.93899409185422,
105.0,105.8,1,0.75,Stimuli\ImageFiles-Set1\Objects\Object_Bottle_00001.png,0,0,0,164,164,164,,,,,,,,,,,,,105.00748300000032,0.007483000000320317,None,,135.41081459999987,135.41081459999987,135.41081459999987,135.41081459999987,135.41081459999987,135.41081459999987,135.41081459999987,135.41081459999987,003,P006,2025_Jan_25_1242,CategoryLocalizer,2021.2.3,59.93899409185422,
105.8,106.0,5,0.0,Stimuli\Blank.png,0,0,0,165,165,165,,,,,,,,,,,,,105.8090302999999,0.009030299999906788,5,0.15926500000023225,136.21173289999933,136.21173289999933,136.21173289999933,136.21173289999933,136.21173289999933,136.21173289999933,136.21173289999933,136.21173289999933,003,P006,2025_Jan_25_1242,CategoryLocalizer,2021.2.3,59.93899409185422,
106.0,106.8,1,0.75,Stimuli\ImageFiles-Set1\Objects\Object_Bench_00001.png,0,0,0,166,166,166,,,,,,,,,,,,,106.00798209999994,0.007982099999935599,None,,136.41186599999946,136.41186599999946,136.41186599999946,136.41186599999946,136.41186599999946,136.41186599999946,136.41186599999946,136.41186599999946,003,P006,2025_Jan_25_1242,CategoryLocalizer,2021.2.3,59.93899409185422,
106.8,107.0,5,0.0,Stimuli\Blank.png,0,0,0,167,167,167,,,,,,,,,,,,,106.80901240000003,0.009012400000031562,None,,137.21272510000017,137.21272510000017,137.21272510000017,137.21272510000017,137.21272510000017,137.21272510000017,137.21272510000017,137.21272510000017,003,P006,2025_Jan_25_1242,CategoryLocalizer,2021.2.3,59.93899409185422,
107.0,107.8,1,0.75,Stimuli\ImageFiles-Set1\Objects\Object_Chest_00001.png,0,0,0,168,168,168,,,,,,,,,,,,,107.00939160000053,0.009391600000526523,None,,137.41389869999966,137.41389869999966,137.41389869999966,137.41389869999966,137.41389869999966,137.41389869999966,137.41389869999966,137.41389869999966,003,P006,2025_Jan_25_1242,CategoryLocalizer,2021.2.3,59.93899409185422,
107.8,108.0,5,0.0,Stimuli\Blank.png,0,0,0,169,169,169,,,,,,,,,,,,,107.81135050000012,0.011350500000119723,5,0.15625989999989542,138.21480019999944,138.21480019999944,138.21480019999944,138.21480019999944,138.21480019999944,138.21480019999944,138.21480019999944,138.21480019999944,003,P006,2025_Jan_25_1242,CategoryLocalizer,2021.2.3,59.93899409185422,
108.0,108.8,1,0.75,Stimuli\ImageFiles-Set1\Objects\Object_Boat_00001.png,0,0,0,170,170,170,,,,,,,,,,,,,108.00939740000013,0.009397400000125344,None,,138.4137007999998,138.4137007999998,138.4137007999998,138.4137007999998,138.4137007999998,138.4137007999998,138.4137007999998,138.4137007999998,003,P006,2025_Jan_25_1242,CategoryLocalizer,2021.2.3,59.93899409185422,
108.8,109.0,5,0.0,Stimuli\Blank.png,0,0,0,171,171,171,,,,,,,,,,,,,108.81080550000024,0.01080550000024516,None,,139.21453999999994,139.21453999999994,139.21453999999994,139.21453999999994,139.21453999999994,139.21453999999994,139.21453999999994,139.21453999999994,003,P006,2025_Jan_25_1242,CategoryLocalizer,2021.2.3,59.93899409185422,
109.0,109.8,1,0.75,Stimuli\ImageFiles-Set1\Objects\Object_Bed_00001.png,0,0,0,172,172,172,,,,,,,,,,,,,109.01088530000015,0.01088530000015453,None,,139.41623199999958,139.41623199999958,139.41623199999958,139.41623199999958,139.41623199999958,139.41623199999958,139.41623199999958,139.41623199999958,003,P006,2025_Jan_25_1242,CategoryLocalizer,2021.2.3,59.93899409185422,
109.8,110.0,5,0.0,Stimuli\Blank.png,0,0,0,173,173,173,,,,,,,,,,,,,109.81345099999999,0.013450999999989222,5,0.15345870000055584,140.2173929999999,140.2173929999999,140.2173929999999,140.2173929999999,140.2173929999999,140.2173929999999,140.2173929999999,140.2173929999999,003,P006,2025_Jan_25_1242,CategoryLocalizer,2021.2.3,59.93899409185422,
110.0,110.8,1,0.75,Stimuli\ImageFiles-Set1\Objects\Object_Pencil_00001.png,0,0,0,174,174,174,,,,,,,,,,,,,110.0109035000005,0.010903500000495114,None,,140.41519229999994,140.41519229999994,140.41519229999994,140.41519229999994,140.41519229999994,140.41519229999994,140.41519229999994,140.41519229999994,003,P006,2025_Jan_25_1242,CategoryLocalizer,2021.2.3,59.93899409185422,
110.8,111.0,5,0.0,Stimuli\Blank.png,0,0,0,175,175,175,,,,,,,,,,,,,110.81336379999993,0.013363799999936532,None,,141.21706839999933,141.21706839999933,141.21706839999933,141.21706839999933,141.21706839999933,141.21706839999933,141.21706839999933,141.21706839999933,003,P006,2025_Jan_25_1242,CategoryLocalizer,2021.2.3,59.93899409185422,
111.0,111.8,1,0.75,Stimuli\ImageFiles-Set1\Objects\Object_Hammer_00001.png,0,0,0,176,176,176,,,,,,,,,,,,,111.01317569999992,0.013175699999919743,None,,141.41728539999986,141.41728539999986,141.41728539999986,141.41728539999986,141.41728539999986,141.41728539999986,141.41728539999986,141.41728539999986,003,P006,2025_Jan_25_1242,CategoryLocalizer,2021.2.3,59.93899409185422,
111.8,112.0,5,0.0,Stimuli\Blank.png,0,0,0,177,177,177,,,,,,,,,,,,,111.81378610000047,0.013786100000473311,5,0.153536200000417,142.21751659999973,142.21751659999973,142.21751659999973,142.21751659999973,142.21751659999973,142.21751659999973,142.21751659999973,142.21751659999973,003,P006,2025_Jan_25_1242,CategoryLocalizer,2021.2.3,59.93899409185422,
112.0,112.8,1,0.75,Stimuli\ImageFiles-Set1\Objects\Object_Matches_00001.png,0,0,0,178,178,178,,,,,,,,,,,,,112.01386480000019,0.01386480000019219,None,,142.41755729999932,142.41755729999932,142.41755729999932,142.41755729999932,142.41755729999932,142.41755729999932,142.41755729999932,142.41755729999932,003,P006,2025_Jan_25_1242,CategoryLocalizer,2021.2.3,59.93899409185422,
112.8,113.0,5,0.0,Stimuli\Blank.png,0,0,0,179,179,179,,,,,,,,,,,,,112.81553129999975,0.015531299999750559,None,,143.21789029999945,143.21789029999945,143.21789029999945,143.21789029999945,143.21789029999945,143.21789029999945,143.21789029999945,143.21789029999945,003,P006,2025_Jan_25_1242,CategoryLocalizer,2021.2.3,59.93899409185422,
113.0,113.8,1,0.75,Stimuli\ImageFiles-Set1\Objects\Object_Dryer_00001.png,0,0,0,180,180,180,,,,,,,,,,,,,112.9991342000003,-0.0008657999997012666,None,,143.40490239999963,143.40490239999963,143.40490239999963,143.40490239999963,143.40490239999963,143.40490239999963,143.40490239999963,143.40490239999963,003,P006,2025_Jan_25_1242,CategoryLocalizer,2021.2.3,59.93899409185422,
113.8,114.0,5,0.0,Stimuli\Blank.png,0,0,0,181,181,181,,,,,,,,,,,,,113.81519840000055,0.015198400000556944,5,0.1514460999997027,144.21940039999936,144.21940039999936,144.21940039999936,144.21940039999936,144.21940039999936,144.21940039999936,144.21940039999936,144.21940039999936,003,P006,2025_Jan_25_1242,CategoryLocalizer,2021.2.3,59.93899409185422,
114.0,114.8,1,0.75,Stimuli\ImageFiles-Set1\Objects\Object_Walnut_00001.png,0,0,0,182,182,182,,,,,,,,,,,,,114.01500839999972,0.015008399999715039,None,,144.41940599999998,144.41940599999998,144.41940599999998,144.41940599999998,144.41940599999998,144.41940599999998,144.41940599999998,144.41940599999998,003,P006,2025_Jan_25_1242,CategoryLocalizer,2021.2.3,59.93899409185422,
114.8,115.0,5,0.0,Stimuli\Blank.png,0,0,0,183,183,183,,,,,,,,,,,,,114.81608680000045,0.016086800000451262,None,,145.21965569999975,145.21965569999975,145.21965569999975,145.21965569999975,145.21965569999975,145.21965569999975,145.21965569999975,145.21965569999975,003,P006,2025_Jan_25_1242,CategoryLocalizer,2021.2.3,59.93899409185422,
115.0,115.8,1,0.75,Stimuli\ImageFiles-Set1\Objects\Object_Walnut_00001.png,1,1,0,184,184,184,,,,,,,,,,,,,114.99984099999983,-0.00015900000016699778,1,0.5008063999994192,145.40307239999947,145.40307239999947,145.40307239999947,145.40307239999947,145.40307239999947,145.40307239999947,145.40307239999947,145.40307239999947,003,P006,2025_Jan_25_1242,CategoryLocalizer,2021.2.3,59.93899409185422,
115.8,116.0,5,0.0,Stimuli\Blank.png,0,0,0,185,185,185,,,,,,,,,,,,,115.80155639999975,0.0015563999997567635,5,0.16687670000010257,146.20411289999993,146.20411289999993,146.20411289999993,146.20411289999993,146.20411289999993,146.20411289999993,146.20411289999993,146.20411289999993,003,P006,2025_Jan_25_1242,CategoryLocalizer,2021.2.3,59.93899409185422,
116.0,116.8,1,0.75,Stimuli\ImageFiles-Set1\Objects\Object_PepperShaker_00001.png,0,0,0,186,186,186,,,,,,,,,,,,,116.00054610000007,0.0005461000000650529,None,,146.40446369999972,146.40446369999972,146.40446369999972,146.40446369999972,146.40446369999972,146.40446369999972,146.40446369999972,146.40446369999972,003,P006,2025_Jan_25_1242,CategoryLocalizer,2021.2.3,59.93899409185422,
116.8,117.0,5,0.0,Stimuli\Blank.png,0,0,0,187,187,187,,,,,,,,,,,,,116.8028976000005,0.00289760000050876,None,,147.20628639999995,147.20628639999995,147.20628639999995,147.20628639999995,147.20628639999995,147.20628639999995,147.20628639999995,147.20628639999995,003,P006,2025_Jan_25_1242,CategoryLocalizer,2021.2.3,59.93899409185422,
117.0,117.8,1,0.75,Stimuli\ImageFiles-Set1\Objects\Object_Canoe_00001.png,0,0,0,188,188,188,,,,,,,,,,,,,117.00223970000025,0.002239700000245648,None,,147.4071567000001,147.4071567000001,147.4071567000001,147.4071567000001,147.4071567000001,147.4071567000001,147.4071567000001,147.4071567000001,003,P006,2025_Jan_25_1242,CategoryLocalizer,2021.2.3,59.93899409185422,
117.8,118.0,5,0.0,Stimuli\Blank.png,0,0,0,189,189,189,,,,,,,,,,,,,117.80261040000005,0.002610400000051527,5,0.16550869999991846,148.2058017999998,148.2058017999998,148.2058017999998,148.2058017999998,148.2058017999998,148.2058017999998,148.2058017999998,148.2058017999998,003,P006,2025_Jan_25_1242,CategoryLocalizer,2021.2.3,59.93899409185422,
118.0,118.8,1,0.75,Stimuli\ImageFiles-Set1\Objects\Object_Wagon_00001.png,0,0,0,190,190,190,,,,,,,,,,,,,118.00189109999974,0.001891099999738799,None,,148.40606959999968,148.40606959999968,148.40606959999968,148.40606959999968,148.40606959999968,148.40606959999968,148.40606959999968,148.40606959999968,003,P006,2025_Jan_25_1242,CategoryLocalizer,2021.2.3,59.93899409185422,
118.8,119.0,5,0.0,Stimuli\Blank.png,0,0,0,191,191,191,,,,,,,,,,,,,118.80355450000025,0.003554500000248595,None,,149.20647909999934,149.20647909999934,149.20647909999934,149.20647909999934,149.20647909999934,149.20647909999934,149.20647909999934,149.20647909999934,003,P006,2025_Jan_25_1242,CategoryLocalizer,2021.2.3,59.93899409185422,
119.0,119.8,1,0.75,Stimuli\ImageFiles-Set1\Objects\Object_Locker_00001.png,0,0,0,192,192,192,,,,,,,,,,,,,119.00357129999975,0.0035712999997485895,None,,149.4088428999994,149.4088428999994,149.4088428999994,149.4088428999994,149.4088428999994,149.4088428999994,149.4088428999994,149.4088428999994,003,P006,2025_Jan_25_1242,CategoryLocalizer,2021.2.3,59.93899409185422,
119.8,120.0,5,0.0,Stimuli\Blank.png,0,0,0,193,193,193,,,,,,,,,,,,,119.80379170000015,0.0037917000001499446,5,0.16335270000035962,150.20768520000001,150.20768520000001,150.20768520000001,150.20768520000001,150.20768520000001,150.20768520000001,150.20768520000001,150.20768520000001,003,P006,2025_Jan_25_1242,CategoryLocalizer,2021.2.3,59.93899409185422,
120.0,120.8,4,0.75,Stimuli\ImageFiles-Set1\Scenes\Scenes_032.png,0,0,0,194,194,194,,,,,,,,,,,,,120.00443840000025,0.0044384000002537505,None,,150.40796359999968,150.40796359999968,150.40796359999968,150.40796359999968,150.40796359999968,150.40796359999968,150.40796359999968,150.40796359999968,003,P006,2025_Jan_25_1242,CategoryLocalizer,2021.2.3,59.93899409185422,
120.8,121.0,5,0.0,Stimuli\Blank.png,0,0,0,195,195,195,,,,,,,,,,,,,120.8059088,0.005908800000000269,None,,151.2086502000002,151.2086502000002,151.2086502000002,151.2086502000002,151.2086502000002,151.2086502000002,151.2086502000002,151.2086502000002,003,P006,2025_Jan_25_1242,CategoryLocalizer,2021.2.3,59.93899409185422,
121.0,121.8,4,0.75,Stimuli\ImageFiles-Set1\Scenes\Scenes_030.png,0,0,0,196,196,196,,,,,,,,,,,,,121.00494830000025,0.004948300000251038,None,,151.41090319999967,151.41090319999967,151.41090319999967,151.41090319999967,151.41090319999967,151.41090319999967,151.41090319999967,151.41090319999967,003,P006,2025_Jan_25_1242,CategoryLocalizer,2021.2.3,59.93899409185422,
121.8,122.0,5,0.0,Stimuli\Blank.png,0,0,0,197,197,197,,,,,,,,,,,,,121.8054903000002,0.005490300000204229,5,0.16195739999966463,152.20908879999934,152.20908879999934,152.20908879999934,152.20908879999934,152.20908879999934,152.20908879999934,152.20908879999934,152.20908879999934,003,P006,2025_Jan_25_1242,CategoryLocalizer,2021.2.3,59.93899409185422,
122.0,122.8,4,0.75,Stimuli\ImageFiles-Set1\Scenes\Scenes_033.png,0,0,0,198,198,198,,,,,,,,,,,,,122.00559609999982,0.005596099999820581,None,,152.41009239999948,152.41009239999948,152.41009239999948,152.41009239999948,152.41009239999948,152.41009239999948,152.41009239999948,152.41009239999948,003,P006,2025_Jan_25_1242,CategoryLocalizer,2021.2.3,59.93899409185422,
122.8,123.0,5,0.0,Stimuli\Blank.png,0,0,0,199,199,199,,,,,,,,,,,,,122.80638050000016,0.006380500000162215,None,,153.20998849999978,153.20998849999978,153.20998849999978,153.20998849999978,153.20998849999978,153.20998849999978,153.20998849999978,153.20998849999978,003,P006,2025_Jan_25_1242,CategoryLocalizer,2021.2.3,59.93899409185422,
123.0,123.8,4,0.75,Stimuli\ImageFiles-Set1\Scenes\Scenes_033.png,1,1,0,200,200,200,,,,,,,,,,,,,123.00658939999994,0.006589399999938905,1,0.477766399999382,153.4124482999996,153.4124482999996,153.4124482999996,153.4124482999996,153.4124482999996,153.4124482999996,153.4124482999996,153.4124482999996,003,P006,2025_Jan_25_1242,CategoryLocalizer,2021.2.3,59.93899409185422,
123.8,124.0,5,0.0,Stimuli\Blank.png,0,0,0,201,201,201,,,,,,,,,,,,,123.8071361000002,0.007136100000209922,5,0.1599452000000383,154.2112417999997,154.2112417999997,154.2112417999997,154.2112417999997,154.2112417999997,154.2112417999997,154.2112417999997,154.2112417999997,003,P006,2025_Jan_25_1242,CategoryLocalizer,2021.2.3,59.93899409185422,
124.0,124.8,4,0.75,Stimuli\ImageFiles-Set1\Scenes\Scenes_059.png,0,0,0,202,202,202,,,,,,,,,,,,,124.00718589999997,0.00718589999996766,None,,154.41259059999993,154.41259059999993,154.41259059999993,154.41259059999993,154.41259059999993,154.41259059999993,154.41259059999993,154.41259059999993,003,P006,2025_Jan_25_1242,CategoryLocalizer,2021.2.3,59.93899409185422,
124.8,125.0,5,0.0,Stimuli\Blank.png,0,0,0,203,203,203,,,,,,,,,,,,,124.80933340000047,0.00933340000047167,None,,155.21218829999998,155.21218829999998,155.21218829999998,155.21218829999998,155.21218829999998,155.21218829999998,155.21218829999998,155.21218829999998,003,P006,2025_Jan_25_1242,CategoryLocalizer,2021.2.3,59.93899409185422,
125.0,125.8,4,0.75,Stimuli\ImageFiles-Set1\Scenes\Scenes_008.png,0,0,0,204,204,204,,,,,,,,,,,,,125.0080568000003,0.008056800000304065,None,,155.41235270000016,155.41235270000016,155.41235270000016,155.41235270000016,155.41235270000016,155.41235270000016,155.41235270000016,155.41235270000016,003,P006,2025_Jan_25_1242,CategoryLocalizer,2021.2.3,59.93899409185422,
125.8,126.0,5,0.0,Stimuli\Blank.png,0,0,0,205,205,205,,,,,,,,,,,,,125.8090215000002,0.009021500000201854,5,0.1578220000001238,156.21311389999937,156.21311389999937,156.21311389999937,156.21311389999937,156.21311389999937,156.21311389999937,156.21311389999937,156.21311389999937,003,P006,2025_Jan_25_1242,CategoryLocalizer,2021.2.3,59.93899409185422,
126.0,126.8,4,0.75,Stimuli\ImageFiles-Set1\Scenes\Scenes_038.png,0,0,0,206,206,206,,,,,,,,,,,,,126.00897710000027,0.008977100000265636,None,,156.41369789999953,156.41369789999953,156.41369789999953,156.41369789999953,156.41369789999953,156.41369789999953,156.41369789999953,156.41369789999953,003,P006,2025_Jan_25_1242,CategoryLocalizer,2021.2.3,59.93899409185422,
126.8,127.0,5,0.0,Stimuli\Blank.png,0,0,0,207,207,207,,,,,,,,,,,,,126.8098173999997,0.009817399999704435,None,,157.21356560000004,157.21356560000004,157.21356560000004,157.21356560000004,157.21356560000004,157.21356560000004,157.21356560000004,157.21356560000004,003,P006,2025_Jan_25_1242,CategoryLocalizer,2021.2.3,59.93899409185422,
127.0,127.8,4,0.75,Stimuli\ImageFiles-Set1\Scenes\Scenes_002.png,0,0,0,208,208,208,,,,,,,,,,,,,127.0108250000003,0.010825000000295404,None,,157.41621609999947,157.41621609999947,157.41621609999947,157.41621609999947,157.41621609999947,157.41621609999947,157.41621609999947,157.41621609999947,003,P006,2025_Jan_25_1242,CategoryLocalizer,2021.2.3,59.93899409185422,
127.8,128.0,5,0.0,Stimuli\Blank.png,0,0,0,209,209,209,,,,,,,,,,,,,127.81089760000032,0.010897600000319585,5,0.15600890000041545,158.21483869999975,158.21483869999975,158.21483869999975,158.21483869999975,158.21483869999975,158.21483869999975,158.21483869999975,158.21483869999975,003,P006,2025_Jan_25_1242,CategoryLocalizer,2021.2.3,59.93899409185422,
128.0,128.8,4,0.75,Stimuli\ImageFiles-Set1\Scenes\Scenes_051.png,0,0,0,210,210,210,,,,,,,,,,,,,128.0106467000005,0.010646700000506826,None,,158.41451809999944,158.41451809999944,158.41451809999944,158.41451809999944,158.41451809999944,158.41451809999944,158.41451809999944,158.41451809999944,003,P006,2025_Jan_25_1242,CategoryLocalizer,2021.2.3,59.93899409185422,
128.8,129.0,5,0.0,Stimuli\Blank.png,0,0,0,211,211,211,,,,,,,,,,,,,128.81250720000025,0.012507200000243301,None,,159.21613960000013,159.21613960000013,159.21613960000013,159.21613960000013,159.21613960000013,159.21613960000013,159.21613960000013,159.21613960000013,003,P006,2025_Jan_25_1242,CategoryLocalizer,2021.2.3,59.93899409185422,
129.0,129.8,4,0.75,Stimuli\ImageFiles-Set1\Scenes\Scenes_014.png,0,0,0,212,212,212,,,,,,,,,,,,,129.01272450000033,0.012724500000331318,None,,159.41733310000018,159.41733310000018,159.41733310000018,159.41733310000018,159.41733310000018,159.41733310000018,159.41733310000018,159.41733310000018,003,P006,2025_Jan_25_1242,CategoryLocalizer,2021.2.3,59.93899409185422,
129.8,130.0,5,0.0,Stimuli\Blank.png,0,0,0,213,213,213,,,,,,,,,,,,,129.81280680000054,0.012806800000532803,5,0.15440450000005512,160.21641699999964,160.21641699999964,160.21641699999964,160.21641699999964,160.21641699999964,160.21641699999964,160.21641699999964,160.21641699999964,003,P006,2025_Jan_25_1242,CategoryLocalizer,2021.2.3,59.93899409185422,
130.0,130.8,4,0.75,Stimuli\ImageFiles-Set1\Scenes\Scenes_022.png,0,0,0,214,214,214,,,,,,,,,,,,,130.01192569999967,0.011925699999665085,None,,160.41672329999983,160.41672329999983,160.41672329999983,160.41672329999983,160.41672329999983,160.41672329999983,160.41672329999983,160.41672329999983,003,P006,2025_Jan_25_1242,CategoryLocalizer,2021.2.3,59.93899409185422,
130.8,131.0,5,0.0,Stimuli\Blank.png,0,0,0,215,215,215,,,,,,,,,,,,,130.81349000000046,0.01349000000044498,None,,161.21699919999992,161.21699919999992,161.21699919999992,161.21699919999992,161.21699919999992,161.21699919999992,161.21699919999992,161.21699919999992,003,P006,2025_Jan_25_1242,CategoryLocalizer,2021.2.3,59.93899409185422,
131.0,131.8,4,0.75,Stimuli\ImageFiles-Set1\Scenes\Scenes_055.png,1,1,0,216,216,216,,,,,,,,,,,,,131.01540560000012,0.015405600000121922,None,,161.42493819999981,161.42493819999981,161.42493819999981,161.42493819999981,161.42493819999981,161.42493819999981,161.42493819999981,161.42493819999981,003,P006,2025_Jan_25_1242,CategoryLocalizer,2021.2.3,59.93899409185422,
131.8,132.0,5,0.0,Stimuli\Blank.png,0,0,0,217,217,217,,,,,,,,,,,,,131.81396909999967,0.01396909999965601,5,0.15291420000085054,162.21811059999982,162.21811059999982,162.21811059999982,162.21811059999982,162.21811059999982,162.21811059999982,162.21811059999982,162.21811059999982,003,P006,2025_Jan_25_1242,CategoryLocalizer,2021.2.3,59.93899409185422,
132.0,132.8,4,0.75,Stimuli\ImageFiles-Set1\Scenes\Scenes_003.png,0,0,0,218,218,218,,,,,,,,,,,,,132.0146448000005,0.014644800000496616,None,,162.41903889999958,162.41903889999958,162.41903889999958,162.41903889999958,162.41903889999958,162.41903889999958,162.41903889999958,162.41903889999958,003,P006,2025_Jan_25_1242,CategoryLocalizer,2021.2.3,59.93899409185422,
132.8,133.0,5,0.0,Stimuli\Blank.png,0,0,0,219,219,219,,,,,,,,,,,,,132.81697340000028,0.016973400000267702,None,,163.21847230000003,163.21847230000003,163.21847230000003,163.21847230000003,163.21847230000003,163.21847230000003,163.21847230000003,163.21847230000003,003,P006,2025_Jan_25_1242,CategoryLocalizer,2021.2.3,59.93899409185422,
133.0,133.8,4,0.75,Stimuli\ImageFiles-Set1\Scenes\Scenes_003.png,0,0,0,220,220,220,,,,,,,,,,,,,132.99871080000048,-0.0012891999995190417,None,,163.40454189999946,163.40454189999946,163.40454189999946,163.40454189999946,163.40454189999946,163.40454189999946,163.40454189999946,163.40454189999946,003,P006,2025_Jan_25_1242,CategoryLocalizer,2021.2.3,59.93899409185422,
133.8,134.0,5,0.0,Stimuli\Blank.png,0,0,0,221,221,221,,,,,,,,,,,,,133.81580050000048,0.0158005000004664,5,0.15092250000088825,164.21988469999997,164.21988469999997,164.21988469999997,164.21988469999997,164.21988469999997,164.21988469999997,164.21988469999997,164.21988469999997,003,P006,2025_Jan_25_1242,CategoryLocalizer,2021.2.3,59.93899409185422,
134.0,134.8,4,0.75,Stimuli\ImageFiles-Set1\Scenes\Scenes_016.png,0,0,0,222,222,222,,,,,,,,,,,,,133.99931920000017,-0.0006807999998272862,None,,164.40402799999993,164.40402799999993,164.40402799999993,164.40402799999993,164.40402799999993,164.40402799999993,164.40402799999993,164.40402799999993,003,P006,2025_Jan_25_1242,CategoryLocalizer,2021.2.3,59.93899409185422,
134.8,135.0,5,0.0,Stimuli\Blank.png,0,0,0,223,223,223,,,,,,,,,,,,,134.80163170000014,0.0016317000001322413,None,,165.2049591999994,165.2049591999994,165.2049591999994,165.2049591999994,165.2049591999994,165.2049591999994,165.2049591999994,165.2049591999994,003,P006,2025_Jan_25_1242,CategoryLocalizer,2021.2.3,59.93899409185422,
135.0,135.8,4,0.75,Stimuli\ImageFiles-Set1\Scenes\Scenes_010.png,0,0,0,224,224,224,,,,,,,,,,,,,135.00091950000024,0.0009195000002364395,None,,165.4073789999993,165.4073789999993,165.4073789999993,165.4073789999993,165.4073789999993,165.4073789999993,165.4073789999993,165.4073789999993,003,P006,2025_Jan_25_1242,CategoryLocalizer,2021.2.3,59.93899409185422,
135.8,136.0,5,0.0,Stimuli\Blank.png,0,0,0,225,225,225,,,,,,,,,,,,,135.81969329999993,0.01969329999991487,5,0.14795189999949798,166.22293600000012,166.22293600000012,166.22293600000012,166.22293600000012,166.22293600000012,166.22293600000012,166.22293600000012,166.22293600000012,003,P006,2025_Jan_25_1242,CategoryLocalizer,2021.2.3,59.93899409185422,
136.0,136.8,2,0.75,Stimuli\ImageFiles-Set1\Bodies\Bodies_Standing_00007.png,0,0,0,226,226,226,,,,,,,,,,,,,136.00099839999984,0.0009983999998439685,None,,166.4052787999999,166.4052787999999,166.4052787999999,166.4052787999999,166.4052787999999,166.4052787999999,166.4052787999999,166.4052787999999,003,P006,2025_Jan_25_1242,CategoryLocalizer,2021.2.3,59.93899409185422,
136.8,137.0,5,0.0,Stimuli\Blank.png,0,0,0,227,227,227,,,,,,,,,,,,,136.80374529999972,0.0037452999997071856,None,,167.20727979999992,167.20727979999992,167.20727979999992,167.20727979999992,167.20727979999992,167.20727979999992,167.20727979999992,167.20727979999992,003,P006,2025_Jan_25_1242,CategoryLocalizer,2021.2.3,59.93899409185422,
137.0,137.8,2,0.75,Stimuli\ImageFiles-Set1\Bodies\Bodies_SittingChair_00003.png,0,0,0,228,228,228,,,,,,,,,,,,,137.0020145999997,0.0020145999997112085,None,,167.4069811999998,167.4069811999998,167.4069811999998,167.4069811999998,167.4069811999998,167.4069811999998,167.4069811999998,167.4069811999998,003,P006,2025_Jan_25_1242,CategoryLocalizer,2021.2.3,59.93899409185422,
137.8,138.0,5,0.0,Stimuli\Blank.png,0,0,0,229,229,229,,,,,,,,,,,,,137.8030418999997,0.003041899999686848,5,0.16423029999987193,168.20677679999972,168.20677679999972,168.20677679999972,168.20677679999972,168.20677679999972,168.20677679999972,168.20677679999972,168.20677679999972,003,P006,2025_Jan_25_1242,CategoryLocalizer,2021.2.3,59.93899409185422,
138.0,138.8,2,0.75,Stimuli\ImageFiles-Set1\Bodies\Bodies_Lunging_00004.png,0,0,0,230,230,230,,,,,,,,,,,,,138.0024738000002,0.0024738000001889304,None,,168.40676669999993,168.40676669999993,168.40676669999993,168.40676669999993,168.40676669999993,168.40676669999993,168.40676669999993,168.40676669999993,003,P006,2025_Jan_25_1242,CategoryLocalizer,2021.2.3,59.93899409185422,
138.8,139.0,5,0.0,Stimuli\Blank.png,0,0,0,231,231,231,,,,,,,,,,,,,138.80335190000005,0.0033519000000410415,None,,169.20768769999995,169.20768769999995,169.20768769999995,169.20768769999995,169.20768769999995,169.20768769999995,169.20768769999995,169.20768769999995,003,P006,2025_Jan_25_1242,CategoryLocalizer,2021.2.3,59.93899409185422,
139.0,139.8,2,0.75,Stimuli\ImageFiles-Set1\Bodies\Bodies_Walking_00006.png,0,0,0,232,232,232,,,,,,,,,,,,,139.00371300000006,0.0037130000000615837,None,,169.40789469999982,169.40789469999982,169.40789469999982,169.40789469999982,169.40789469999982,169.40789469999982,169.40789469999982,169.40789469999982,003,P006,2025_Jan_25_1242,CategoryLocalizer,2021.2.3,59.93899409185422,
139.8,140.0,5,0.0,Stimuli\Blank.png,0,0,0,233,233,233,,,,,,,,,,,,,139.80617979999988,0.0061797999998702835,5,0.16259050000007846,170.2084473999994,170.2084473999994,170.2084473999994,170.2084473999994,170.2084473999994,170.2084473999994,170.2084473999994,170.2084473999994,003,P006,2025_Jan_25_1242,CategoryLocalizer,2021.2.3,59.93899409185422,
140.0,140.8,2,0.75,Stimuli\ImageFiles-Set1\Bodies\Bodies_Lunging_00001.png,0,0,0,234,234,234,,,,,,,,,,,,,140.00421069999993,0.004210699999930512,None,,170.40836750000017,170.40836750000017,170.40836750000017,170.40836750000017,170.40836750000017,170.40836750000017,170.40836750000017,170.40836750000017,003,P006,2025_Jan_25_1242,CategoryLocalizer,2021.2.3,59.93899409185422,
140.8,141.0,5,0.0,Stimuli\Blank.png,0,0,0,235,235,235,,,,,,,,,,,,,140.8061112000005,0.006111200000475492,None,,171.20973659999981,171.20973659999981,171.20973659999981,171.20973659999981,171.20973659999981,171.20973659999981,171.20973659999981,171.20973659999981,003,P006,2025_Jan_25_1242,CategoryLocalizer,2021.2.3,59.93899409185422,
141.0,141.8,2,0.75,Stimuli\ImageFiles-Set1\Bodies\Bodies_Lunging_00001.png,1,1,0,236,236,236,,,,,,,,,,,,,141.00614339999993,0.006143399999928079,1,0.5379212999996525,171.41106089999994,171.41106089999994,171.41106089999994,171.41106089999994,171.41106089999994,171.41106089999994,171.41106089999994,171.41106089999994,003,P006,2025_Jan_25_1242,CategoryLocalizer,2021.2.3,59.93899409185422,
141.8,142.0,5,0.0,Stimuli\Blank.png,0,0,0,237,237,237,,,,,,,,,,,,,141.80731949999972,0.007319499999709933,5,0.16095669999958773,172.2101417999993,172.2101417999993,172.2101417999993,172.2101417999993,172.2101417999993,172.2101417999993,172.2101417999993,172.2101417999993,003,P006,2025_Jan_25_1242,CategoryLocalizer,2021.2.3,59.93899409185422,
142.0,142.8,2,0.75,Stimuli\ImageFiles-Set1\Bodies\Bodies_SittingFloor_00003.png,0,0,0,238,238,238,,,,,,,,,,,,,142.00638919999983,0.006389199999830453,None,,172.41074500000013,172.41074500000013,172.41074500000013,172.41074500000013,172.41074500000013,172.41074500000013,172.41074500000013,172.41074500000013,003,P006,2025_Jan_25_1242,CategoryLocalizer,2021.2.3,59.93899409185422,
142.8,143.0,5,0.0,Stimuli\Blank.png,0,0,0,239,239,239,,,,,,,,,,,,,142.80741039999975,0.007410399999741912,None,,173.21099839999988,173.21099839999988,173.21099839999988,173.21099839999988,173.21099839999988,173.21099839999988,173.21099839999988,173.21099839999988,003,P006,2025_Jan_25_1242,CategoryLocalizer,2021.2.3,59.93899409185422,
143.0,143.8,2,0.75,Stimuli\ImageFiles-Set1\Bodies\Bodies_QuadStretch_00001.png,0,0,0,240,240,240,,,,,,,,,,,,,143.00749319999977,0.007493199999771605,None,,173.41229399999975,173.41229399999975,173.41229399999975,173.41229399999975,173.41229399999975,173.41229399999975,173.41229399999975,173.41229399999975,003,P006,2025_Jan_25_1242,CategoryLocalizer,2021.2.3,59.93899409185422,
143.8,144.0,5,0.0,Stimuli\Blank.png,0,0,0,241,241,241,,,,,,,,,,,,,143.80924980000054,0.009249800000532105,5,0.15824879999945551,174.21257999999943,174.21257999999943,174.21257999999943,174.21257999999943,174.21257999999943,174.21257999999943,174.21257999999943,174.21257999999943,003,P006,2025_Jan_25_1242,CategoryLocalizer,2021.2.3,59.93899409185422,
144.0,144.8,2,0.75,Stimuli\ImageFiles-Set1\Bodies\Bodies_Falling_00004.png,0,0,0,242,242,242,,,,,,,,,,,,,144.0076713999997,0.007671399999708228,None,,174.41232499999933,174.41232499999933,174.41232499999933,174.41232499999933,174.41232499999933,174.41232499999933,174.41232499999933,174.41232499999933,003,P006,2025_Jan_25_1242,CategoryLocalizer,2021.2.3,59.93899409185422,
144.8,145.0,5,0.0,Stimuli\Blank.png,0,0,0,243,243,243,,,,,,,,,,,,,144.80924820000018,0.009248200000172346,None,,175.21344379999937,175.21344379999937,175.21344379999937,175.21344379999937,175.21344379999937,175.21344379999937,175.21344379999937,175.21344379999937,003,P006,2025_Jan_25_1242,CategoryLocalizer,2021.2.3,59.93899409185422,
145.0,145.8,2,0.75,Stimuli\ImageFiles-Set1\Bodies\Bodies_SittingFloor_00005.png,0,0,0,244,244,244,,,,,,,,,,,,,145.01007409999966,0.010074099999656028,None,,175.41624919999958,175.41624919999958,175.41624919999958,175.41624919999958,175.41624919999958,175.41624919999958,175.41624919999958,175.41624919999958,003,P006,2025_Jan_25_1242,CategoryLocalizer,2021.2.3,59.93899409185422,
145.8,146.0,5,0.0,Stimuli\Blank.png,0,0,0,245,245,245,,,,,,,,,,,,,145.8102361000001,0.010236100000099668,5,0.1571112000001449,176.21379109999998,176.21379109999998,176.21379109999998,176.21379109999998,176.21379109999998,176.21379109999998,176.21379109999998,176.21379109999998,003,P006,2025_Jan_25_1242,CategoryLocalizer,2021.2.3,59.93899409185422,
146.0,146.8,2,0.75,Stimuli\ImageFiles-Set1\Bodies\Bodies_Walking_00002.png,0,0,0,246,246,246,,,,,,,,,,,,,146.00960039999973,0.009600399999726505,None,,176.4139910999993,176.4139910999993,176.4139910999993,176.4139910999993,176.4139910999993,176.4139910999993,176.4139910999993,176.4139910999993,003,P006,2025_Jan_25_1242,CategoryLocalizer,2021.2.3,59.93899409185422,
146.8,147.0,5,0.0,Stimuli\Blank.png,0,0,0,247,247,247,,,,,,,,,,,,,146.81191579999995,0.011915799999940191,None,,177.2155240000002,177.2155240000002,177.2155240000002,177.2155240000002,177.2155240000002,177.2155240000002,177.2155240000002,177.2155240000002,003,P006,2025_Jan_25_1242,CategoryLocalizer,2021.2.3,59.93899409185422,
147.0,147.8,2,0.75,Stimuli\ImageFiles-Set1\Bodies\Bodies_SittingStretch_00005.png,0,0,0,248,248,248,,,,,,,,,,,,,147.0120612999999,0.0120612999999139,None,,177.41561269999966,177.41561269999966,177.41561269999966,177.41561269999966,177.41561269999966,177.41561269999966,177.41561269999966,177.41561269999966,003,P006,2025_Jan_25_1242,CategoryLocalizer,2021.2.3,59.93899409185422,
147.8,148.0,5,0.0,Stimuli\Blank.png,0,0,0,249,249,249,,,,,,,,,,,,,147.81169529999988,0.011695299999871622,5,0.15502199999991717,178.2158116999999,178.2158116999999,178.2158116999999,178.2158116999999,178.2158116999999,178.2158116999999,178.2158116999999,178.2158116999999,003,P006,2025_Jan_25_1242,CategoryLocalizer,2021.2.3,59.93899409185422,
148.0,148.8,2,0.75,Stimuli\ImageFiles-Set1\Bodies\Bodies_Falling_00006.png,1,1,0,250,250,250,,,,,,,,,,,,,148.01154140000017,0.011541400000169233,None,,178.41570469999988,178.41570469999988,178.41570469999988,178.41570469999988,178.41570469999988,178.41570469999988,178.41570469999988,178.41570469999988,003,P006,2025_Jan_25_1242,CategoryLocalizer,2021.2.3,59.93899409185422,
148.8,149.0,5,0.0,Stimuli\Blank.png,0,0,0,251,251,251,,,,,,,,,,,,,148.81409760000042,0.014097600000411603,None,,179.21626089999972,179.21626089999972,179.21626089999972,179.21626089999972,179.21626089999972,179.21626089999972,179.21626089999972,179.21626089999972,003,P006,2025_Jan_25_1242,CategoryLocalizer,2021.2.3,59.93899409185422,
149.0,149.8,2,0.75,Stimuli\ImageFiles-Set1\Bodies\Bodies_Kneeling_00003.png,0,0,0,252,252,252,,,,,,,,,,,,,149.01403570000002,0.014035700000022189,None,,179.43348139999944,179.43348139999944,179.43348139999944,179.43348139999944,179.43348139999944,179.43348139999944,179.43348139999944,179.43348139999944,003,P006,2025_Jan_25_1242,CategoryLocalizer,2021.2.3,59.93899409185422,
149.8,150.0,5,0.0,Stimuli\Blank.png,0,0,0,253,253,253,,,,,,,,,,,,,149.8310633000001,0.031063300000084837,5,0.1373094000000492,180.2338469999995,180.2338469999995,180.2338469999995,180.2338469999995,180.2338469999995,180.2338469999995,180.2338469999995,180.2338469999995,003,P006,2025_Jan_25_1242,CategoryLocalizer,2021.2.3,59.93899409185422,
150.0,150.8,2,0.75,Stimuli\ImageFiles-Set1\Bodies\Bodies_Kneeling_00003.png,0,0,0,254,254,254,,,,,,,,,,,,,150.0140266999997,0.014026699999703851,1,0.5173153999994611,180.41758690000006,180.41758690000006,180.41758690000006,180.41758690000006,180.41758690000006,180.41758690000006,180.41758690000006,180.41758690000006,003,P006,2025_Jan_25_1242,CategoryLocalizer,2021.2.3,59.93899409185422,
150.8,151.0,5,0.0,Stimuli\Blank.png,0,0,0,255,255,255,,,,,,,,,,,,,150.81452420000005,0.0145242000000394,None,,181.21825790000003,181.21825790000003,181.21825790000003,181.21825790000003,181.21825790000003,181.21825790000003,181.21825790000003,181.21825790000003,003,P006,2025_Jan_25_1242,CategoryLocalizer,2021.2.3,59.93899409185422,
151.0,151.8,2,0.75,Stimuli\ImageFiles-Set1\Bodies\Bodies_SittingChair_00007.png,0,0,0,256,256,256,,,,,,,,,,,,,151.01488410000002,0.014884100000017497,None,,181.41964349999944,181.41964349999944,181.41964349999944,181.41964349999944,181.41964349999944,181.41964349999944,181.41964349999944,181.41964349999944,003,P006,2025_Jan_25_1242,CategoryLocalizer,2021.2.3,59.93899409185422,
151.8,152.0,5,0.0,Stimuli\Blank.png,0,0,0,257,257,257,,,,,,,,,,,,,151.81634099999974,0.016340999999727046,None,,182.2192645999994,182.2192645999994,182.2192645999994,182.2192645999994,182.2192645999994,182.2192645999994,182.2192645999994,182.2192645999994,003,P006,2025_Jan_25_1242,CategoryLocalizer,2021.2.3,59.93899409185422,
152.0,164.0,0,0.0,Stimuli\Blank.png,0,0,0,258,258,258,,,,,,,,,,,,,151.99875359999987,-0.0012464000001273234,5,11.968206800000189,182.40273609999986,182.40273609999986,182.40273609999986,182.40273609999986,182.40273609999986,182.40273609999986,182.40273609999986,182.40273609999986,003,P006,2025_Jan_25_1242,CategoryLocalizer,2021.2.3,59.93899409185422,
164.0,164.8,4,0.75,Stimuli\ImageFiles-Set1\Scenes\Scenes_019.png,0,0,0,259,259,259,,,,,,,,,,,,,164.00951760000044,0.009517600000435777,None,,194.41279119999945,194.41279119999945,194.41279119999945,194.41279119999945,194.41279119999945,194.41279119999945,194.41279119999945,194.41279119999945,003,P006,2025_Jan_25_1242,CategoryLocalizer,2021.2.3,59.93899409185422,
164.8,165.0,5,0.0,Stimuli\Blank.png,0,0,0,260,260,260,,,,,,,,,,,,,164.80999560000055,0.009995600000536342,None,,195.21365179999975,195.21365179999975,195.21365179999975,195.21365179999975,195.21365179999975,195.21365179999975,195.21365179999975,195.21365179999975,003,P006,2025_Jan_25_1242,CategoryLocalizer,2021.2.3,59.93899409185422,
165.0,165.8,4,0.75,Stimuli\ImageFiles-Set1\Scenes\Scenes_040.png,0,0,0,261,261,261,,,,,,,,,,,,,165.0119512000001,0.011951200000112294,None,,195.41825619999963,195.41825619999963,195.41825619999963,195.41825619999963,195.41825619999963,195.41825619999963,195.41825619999963,195.41825619999963,003,P006,2025_Jan_25_1242,CategoryLocalizer,2021.2.3,59.93899409185422,
165.8,166.0,5,0.0,Stimuli\Blank.png,0,0,0,262,262,262,,,,,,,,,,,,,165.81208890000016,0.01208890000015117,5,0.15624449999995704,196.21456359999956,196.21456359999956,196.21456359999956,196.21456359999956,196.21456359999956,196.21456359999956,196.21456359999956,196.21456359999956,003,P006,2025_Jan_25_1242,CategoryLocalizer,2021.2.3,59.93899409185422,
166.0,166.8,4,0.75,Stimuli\ImageFiles-Set1\Scenes\Scenes_052.png,0,0,0,263,263,263,,,,,,,,,,,,,166.0112239,0.011223900000004505,None,,196.41511589999936,196.41511589999936,196.41511589999936,196.41511589999936,196.41511589999936,196.41511589999936,196.41511589999936,196.41511589999936,003,P006,2025_Jan_25_1242,CategoryLocalizer,2021.2.3,59.93899409185422,
166.8,167.0,5,0.0,Stimuli\Blank.png,0,0,0,264,264,264,,,,,,,,,,,,,166.81293809999988,0.01293809999987161,None,,197.2158314999997,197.2158314999997,197.2158314999997,197.2158314999997,197.2158314999997,197.2158314999997,197.2158314999997,197.2158314999997,003,P006,2025_Jan_25_1242,CategoryLocalizer,2021.2.3,59.93899409185422,
167.0,167.8,4,0.75,Stimuli\ImageFiles-Set1\Scenes\Scenes_054.png,0,0,0,265,265,265,,,,,,,,,,,,,167.0139239,0.01392390000000887,None,,197.42430869999953,197.42430869999953,197.42430869999953,197.42430869999953,197.42430869999953,197.42430869999953,197.42430869999953,197.42430869999953,003,P006,2025_Jan_25_1242,CategoryLocalizer,2021.2.3,59.93899409185422,
167.8,168.0,5,0.0,Stimuli\Blank.png,0,0,0,266,266,266,,,,,,,,,,,,,167.81236669999998,0.012366699999972752,5,0.1541285000002972,198.21677829999953,198.21677829999953,198.21677829999953,198.21677829999953,198.21677829999953,198.21677829999953,198.21677829999953,198.21677829999953,003,P006,2025_Jan_25_1242,CategoryLocalizer,2021.2.3,59.93899409185422,
168.0,168.8,4,0.75,Stimuli\ImageFiles-Set1\Scenes\Scenes_017.png,0,0,0,267,267,267,,,,,,,,,,,,,168.01310379999995,0.01310379999995348,None,,198.4166940999994,198.4166940999994,198.4166940999994,198.4166940999994,198.4166940999994,198.4166940999994,198.4166940999994,198.4166940999994,003,P006,2025_Jan_25_1242,CategoryLocalizer,2021.2.3,59.93899409185422,
168.8,169.0,5,0.0,Stimuli\Blank.png,0,0,0,268,268,268,,,,,,,,,,,,,168.81310720000056,0.013107200000547437,None,,199.2171926000001,199.2171926000001,199.2171926000001,199.2171926000001,199.2171926000001,199.2171926000001,199.2171926000001,199.2171926000001,003,P006,2025_Jan_25_1242,CategoryLocalizer,2021.2.3,59.93899409185422,
169.0,169.8,4,0.75,Stimuli\ImageFiles-Set1\Scenes\Scenes_012.png,0,0,0,269,269,269,,,,,,,,,,,,,169.0134493000005,0.013449300000502262,None,,199.41752749999978,199.41752749999978,199.41752749999978,199.41752749999978,199.41752749999978,199.41752749999978,199.41752749999978,199.41752749999978,003,P006,2025_Jan_25_1242,CategoryLocalizer,2021.2.3,59.93899409185422,
169.8,170.0,5,0.0,Stimuli\Blank.png,0,0,0,270,270,270,,,,,,,,,,,,,169.8141916000004,0.01419160000040165,5,0.15281830000003538,200.21822539999994,200.21822539999994,200.21822539999994,200.21822539999994,200.21822539999994,200.21822539999994,200.21822539999994,200.21822539999994,003,P006,2025_Jan_25_1242,CategoryLocalizer,2021.2.3,59.93899409185422,
170.0,170.8,4,0.75,Stimuli\ImageFiles-Set1\Scenes\Scenes_029.png,0,0,0,271,271,271,,,,,,,,,,,,,170.01634540000032,0.016345400000318477,None,,200.4266988999998,200.4266988999998,200.4266988999998,200.4266988999998,200.4266988999998,200.4266988999998,200.4266988999998,200.4266988999998,003,P006,2025_Jan_25_1242,CategoryLocalizer,2021.2.3,59.93899409185422,
170.8,171.0,5,0.0,Stimuli\Blank.png,0,0,0,272,272,272,,,,,,,,,,,,,170.81585619999987,0.015856199999859655,None,,201.21890410000015,201.21890410000015,201.21890410000015,201.21890410000015,201.21890410000015,201.21890410000015,201.21890410000015,201.21890410000015,003,P006,2025_Jan_25_1242,CategoryLocalizer,2021.2.3,59.93899409185422,
171.0,171.8,4,0.75,Stimuli\ImageFiles-Set1\Scenes\Scenes_035.png,0,0,0,273,273,273,,,,,,,,,,,,,170.99919339999997,-0.0008066000000326312,None,,201.40770639999937,201.40770639999937,201.40770639999937,201.40770639999937,201.40770639999937,201.40770639999937,201.40770639999937,201.40770639999937,003,P006,2025_Jan_25_1242,CategoryLocalizer,2021.2.3,59.93899409185422,
171.8,172.0,5,0.0,Stimuli\Blank.png,0,0,0,274,274,274,,,,,,,,,,,,,171.81645170000047,0.01645170000045937,5,0.15086560000054305,202.22005639999952,202.22005639999952,202.22005639999952,202.22005639999952,202.22005639999952,202.22005639999952,202.22005639999952,202.22005639999952,003,P006,2025_Jan_25_1242,CategoryLocalizer,2021.2.3,59.93899409185422,
172.0,172.8,4,0.75,Stimuli\ImageFiles-Set1\Scenes\Scenes_039.png,0,0,0,275,275,275,,,,,,,,,,,,,171.99974790000033,-0.00025209999967046315,None,,202.4047412,202.4047412,202.4047412,202.4047412,202.4047412,202.4047412,202.4047412,202.4047412,003,P006,2025_Jan_25_1242,CategoryLocalizer,2021.2.3,59.93899409185422,
172.8,173.0,5,0.0,Stimuli\Blank.png,0,0,0,276,276,276,,,,,,,,,,,,,172.80046500000026,0.00046500000024707333,None,,203.2044992000001,203.2044992000001,203.2044992000001,203.2044992000001,203.2044992000001,203.2044992000001,203.2044992000001,203.2044992000001,003,P006,2025_Jan_25_1242,CategoryLocalizer,2021.2.3,59.93899409185422,
173.0,173.8,4,0.75,Stimuli\ImageFiles-Set1\Scenes\Scenes_025.png,0,0,0,277,277,277,,,,,,,,,,,,,173.00083780000023,0.0008378000002267072,None,,203.4072415999999,203.4072415999999,203.4072415999999,203.4072415999999,203.4072415999999,203.4072415999999,203.4072415999999,203.4072415999999,003,P006,2025_Jan_25_1242,CategoryLocalizer,2021.2.3,59.93899409185422,
173.8,174.0,5,0.0,Stimuli\Blank.png,0,0,0,278,278,278,,,,,,,,,,,,,173.81948680000005,0.01948680000003833,5,0.1489263999992545,204.22208049999972,204.22208049999972,204.22208049999972,204.22208049999972,204.22208049999972,204.22208049999972,204.22208049999972,204.22208049999972,003,P006,2025_Jan_25_1242,CategoryLocalizer,2021.2.3,59.93899409185422,
174.0,174.8,4,0.75,Stimuli\ImageFiles-Set1\Scenes\Scenes_001.png,0,0,0,279,279,279,,,,,,,,,,,,,174.0015486000002,0.0015486000002056244,None,,204.4051926000002,204.4051926000002,204.4051926000002,204.4051926000002,204.4051926000002,204.4051926000002,204.4051926000002,204.4051926000002,003,P006,2025_Jan_25_1242,CategoryLocalizer,2021.2.3,59.93899409185422,
174.8,175.0,5,0.0,Stimuli\Blank.png,0,0,0,280,280,280,,,,,,,,,,,,,174.80305920000046,0.003059200000450346,None,,205.20609819999936,205.20609819999936,205.20609819999936,205.20609819999936,205.20609819999936,205.20609819999936,205.20609819999936,205.20609819999936,003,P006,2025_Jan_25_1242,CategoryLocalizer,2021.2.3,59.93899409185422,
175.0,175.8,4,0.75,Stimuli\ImageFiles-Set1\Scenes\Scenes_034.png,0,0,0,281,281,281,,,,,,,,,,,,,175.00276699999995,0.0027669999999488937,None,,205.40588089999983,205.40588089999983,205.40588089999983,205.40588089999983,205.40588089999983,205.40588089999983,205.40588089999983,205.40588089999983,003,P006,2025_Jan_25_1242,CategoryLocalizer,2021.2.3,59.93899409185422,
