eventStartTime,eventEndTime,eventCond,imSize,imFile,repeatedImage,responseEvent,Events.thisRepN,Events.thisTrialN,Events.thisN,Events.thisIndex,Instructions.started,Instructions.stopped,participantReadyResponse.keys,participantReadyResponse.rt,participantReadyResponse.started,participantReadyResponse.stopped,startWaitforTrigger,triggerResponse.keys,triggerResponse.rt,triggerResponse.started,triggerResponse.stopped,globalTimer,actualStartTime,startTimingDiff,participantResponse.keys,participantResponse.rt,participantResponse.started,participantResponse.stopped,image.started,image.stopped,fixationOutside.started,fixationOutside.stopped,fixationInside.started,fixationInside.stopped,session,participant,date,expName,psychopyVersion,frameRate,
,,,,,,,,,,,20.28914999999961,None,1,5.035487299999659,20.28914999999961,None,,,,,,,,,,,,,,,,,,,002,P006,2025_Jan_25_1214,CategoryLocalizer,2021.2.3,59.93518608988652,
,,,,,,,,,,,,,,,,,25.343667999999525,5,13.485482399999455,25.356331999999384,None,,,,,,,,,,,,,,002,P006,2025_Jan_25_1214,CategoryLocalizer,2021.2.3,59.93518608988652,
0.0,12.0,0,0.0,Stimuli\Blank.png,0,0,0,0,0,0,,,,,,,,,,,,38.8552109000002,0.04415489999973943,0.04415489999973943,5,11.923268200000166,38.91826519999995,None,38.91826519999995,None,38.91826519999995,None,38.91826519999995,None,002,P006,2025_Jan_25_1214,CategoryLocalizer,2021.2.3,59.93518608988652,
12.0,12.8,1,0.75,Stimuli\ImageFiles-Set2\Objects\Object_Tomato_00001.png,0,0,0,1,1,1,,,,,,,,,,,,,12.010277399999723,0.010277399999722547,None,,50.9121997000002,50.9121997000002,50.9121997000002,50.9121997000002,50.9121997000002,50.9121997000002,50.9121997000002,50.9121997000002,002,P006,2025_Jan_25_1214,CategoryLocalizer,2021.2.3,59.93518608988652,
12.8,13.0,5,0.0,Stimuli\Blank.png,0,0,0,2,2,2,,,,,,,,,,,,,12.843313999999737,0.04331399999973584,None,,51.71294249999937,51.71294249999937,51.71294249999937,51.71294249999937,51.71294249999937,51.71294249999937,51.71294249999937,51.71294249999937,002,P006,2025_Jan_25_1214,CategoryLocalizer,2021.2.3,59.93518608988652,
13.0,13.8,1,0.75,Stimuli\ImageFiles-Set2\Objects\Object_Razor_00001.png,0,0,0,3,3,3,,,,,,,,,,,,,13.011242399999901,0.011242399999900954,None,,51.896407700000054,51.896407700000054,51.896407700000054,51.896407700000054,51.896407700000054,51.896407700000054,51.896407700000054,51.896407700000054,002,P006,2025_Jan_25_1214,CategoryLocalizer,2021.2.3,59.93518608988652,
13.8,14.0,5,0.0,Stimuli\Blank.png,0,0,0,4,4,4,,,,,,,,,,,,,13.827418199999556,0.027418199999555526,5,0.1446297999991657,52.697088599999915,52.697088599999915,52.697088599999915,52.697088599999915,52.697088599999915,52.697088599999915,52.697088599999915,52.697088599999915,002,P006,2025_Jan_25_1214,CategoryLocalizer,2021.2.3,59.93518608988652,
14.0,14.8,1,0.75,Stimuli\ImageFiles-Set2\Objects\Object_Razor_00001.png,1,1,0,5,5,5,,,,,,,,,,,,,14.010905799999819,0.010905799999818555,1,0.4210283000002164,52.880586700000094,52.880586700000094,52.880586700000094,52.880586700000094,52.880586700000094,52.880586700000094,52.880586700000094,52.880586700000094,002,P006,2025_Jan_25_1214,CategoryLocalizer,2021.2.3,59.93518608988652,
14.8,15.0,5,0.0,Stimuli\Blank.png,0,0,0,6,6,6,,,,,,,,,,,,,14.812145300000338,0.012145300000337755,None,,53.68129339999996,53.68129339999996,53.68129339999996,53.68129339999996,53.68129339999996,53.68129339999996,53.68129339999996,53.68129339999996,002,P006,2025_Jan_25_1214,CategoryLocalizer,2021.2.3,59.93518608988652,
15.0,15.8,1,0.75,Stimuli\ImageFiles-Set2\Objects\Object_Keyboard_00001.png,0,0,0,7,7,7,,,,,,,,,,,,,15.011919100000341,0.011919100000341132,None,,53.89814699999988,53.89814699999988,53.89814699999988,53.89814699999988,53.89814699999988,53.89814699999988,53.89814699999988,53.89814699999988,002,P006,2025_Jan_25_1214,CategoryLocalizer,2021.2.3,59.93518608988652,
15.8,16.0,5,0.0,Stimuli\Blank.png,0,0,0,8,8,8,,,,,,,,,,,,,15.830012299999908,0.030012299999906844,5,0.14269590000003518,54.69886299999962,54.69886299999962,54.69886299999962,54.69886299999962,54.69886299999962,54.69886299999962,54.69886299999962,54.69886299999962,002,P006,2025_Jan_25_1214,CategoryLocalizer,2021.2.3,59.93518608988652,
16.0,16.8,1,0.75,Stimuli\ImageFiles-Set2\Objects\Object_Microphone_00001.png,0,0,0,9,9,9,,,,,,,,,,,,,16.012509399999544,0.012509399999544257,None,,54.88236119999965,54.88236119999965,54.88236119999965,54.88236119999965,54.88236119999965,54.88236119999965,54.88236119999965,54.88236119999965,002,P006,2025_Jan_25_1214,CategoryLocalizer,2021.2.3,59.93518608988652,
16.8,17.0,5,0.0,Stimuli\Blank.png,0,0,0,10,10,10,,,,,,,,,,,,,16.81494169999951,0.014941699999507563,None,,55.69975830000021,55.69975830000021,55.69975830000021,55.69975830000021,55.69975830000021,55.69975830000021,55.69975830000021,55.69975830000021,002,P006,2025_Jan_25_1214,CategoryLocalizer,2021.2.3,59.93518608988652,
17.0,17.8,1,0.75,Stimuli\ImageFiles-Set2\Objects\Object_Plate_00001.png,0,0,0,11,11,11,,,,,,,,,,,,,17.030340600000272,0.03034060000027239,None,,55.91661339999973,55.91661339999973,55.91661339999973,55.91661339999973,55.91661339999973,55.91661339999973,55.91661339999973,55.91661339999973,002,P006,2025_Jan_25_1214,CategoryLocalizer,2021.2.3,59.93518608988652,
17.8,18.0,5,0.0,Stimuli\Blank.png,0,0,0,12,12,12,,,,,,,,,,,,,17.831664999999703,0.03166499999970185,5,0.14117090000036114,56.70062189999953,56.70062189999953,56.70062189999953,56.70062189999953,56.70062189999953,56.70062189999953,56.70062189999953,56.70062189999953,002,P006,2025_Jan_25_1214,CategoryLocalizer,2021.2.3,59.93518608988652,
18.0,18.8,1,0.75,Stimuli\ImageFiles-Set2\Objects\Object_Champagne_00001.png,0,0,0,13,13,13,,,,,,,,,,,,,18.015131099999962,0.015131099999962316,None,,56.90082199999961,56.90082199999961,56.90082199999961,56.90082199999961,56.90082199999961,56.90082199999961,56.90082199999961,56.90082199999961,002,P006,2025_Jan_25_1214,CategoryLocalizer,2021.2.3,59.93518608988652,
18.8,19.0,5,0.0,Stimuli\Blank.png,0,0,0,14,14,14,,,,,,,,,,,,,18.81562060000033,0.015620600000328722,None,,57.684828299999936,57.684828299999936,57.684828299999936,57.684828299999936,57.684828299999936,57.684828299999936,57.684828299999936,57.684828299999936,002,P006,2025_Jan_25_1214,CategoryLocalizer,2021.2.3,59.93518608988652,
19.0,19.8,1,0.75,Stimuli\ImageFiles-Set2\Objects\Object_Dumpster_00001.png,0,0,0,15,15,15,,,,,,,,,,,,,18.999156900000344,-0.0008430999996562605,None,,57.90169839999999,57.90169839999999,57.90169839999999,57.90169839999999,57.90169839999999,57.90169839999999,57.90169839999999,57.90169839999999,002,P006,2025_Jan_25_1214,CategoryLocalizer,2021.2.3,59.93518608988652,
19.8,20.0,5,0.0,Stimuli\Blank.png,0,0,0,16,16,16,,,,,,,,,,,,,19.833279800000128,0.03327980000012687,None,,58.70241720000013,58.70241720000013,58.70241720000013,58.70241720000013,58.70241720000013,58.70241720000013,58.70241720000013,58.70241720000013,002,P006,2025_Jan_25_1214,CategoryLocalizer,2021.2.3,59.93518608988652,
20.0,20.8,1,0.75,Stimuli\ImageFiles-Set2\Objects\Object_Sponge_00001.png,0,0,0,17,17,17,,,,,,,,,,,,,19.999424900000122,-0.0005750999998781481,None,,58.885887499999626,58.885887499999626,58.885887499999626,58.885887499999626,58.885887499999626,58.885887499999626,58.885887499999626,58.885887499999626,002,P006,2025_Jan_25_1214,CategoryLocalizer,2021.2.3,59.93518608988652,
20.8,21.0,5,0.0,Stimuli\Blank.png,0,0,0,18,18,18,,,,,,,,,,,,,20.816971100000046,0.016971100000045425,None,,59.686615800000254,59.686615800000254,59.686615800000254,59.686615800000254,59.686615800000254,59.686615800000254,59.686615800000254,59.686615800000254,002,P006,2025_Jan_25_1214,CategoryLocalizer,2021.2.3,59.93518608988652,
21.0,21.8,1,0.75,Stimuli\ImageFiles-Set2\Objects\Object_Walker_00001.png,0,0,0,19,19,19,,,,,,,,,,,,,21.000733400000172,0.0007334000001719687,None,,59.88677920000009,59.88677920000009,59.88677920000009,59.88677920000009,59.88677920000009,59.88677920000009,59.88677920000009,59.88677920000009,002,P006,2025_Jan_25_1214,CategoryLocalizer,2021.2.3,59.93518608988652,
21.8,22.0,5,0.0,Stimuli\Blank.png,0,0,0,20,20,20,,,,,,,,,,,,,21.819470599999477,0.01947059999947598,5,0.13723100000061095,60.70428769999944,60.70428769999944,60.70428769999944,60.70428769999944,60.70428769999944,60.70428769999944,60.70428769999944,60.70428769999944,002,P006,2025_Jan_25_1214,CategoryLocalizer,2021.2.3,59.93518608988652,
22.0,22.8,1,0.75,Stimuli\ImageFiles-Set2\Objects\Object_Shelves_00001.png,0,0,0,21,21,21,,,,,,,,,,,,,22.018812199999957,0.018812199999956647,None,,60.9043486999999,60.9043486999999,60.9043486999999,60.9043486999999,60.9043486999999,60.9043486999999,60.9043486999999,60.9043486999999,002,P006,2025_Jan_25_1214,CategoryLocalizer,2021.2.3,59.93518608988652,
22.8,23.0,5,0.0,Stimuli\Blank.png,0,0,0,22,22,22,,,,,,,,,,,,,22.819171000000097,0.019171000000095972,None,,61.68836050000027,61.68836050000027,61.68836050000027,61.68836050000027,61.68836050000027,61.68836050000027,61.68836050000027,61.68836050000027,002,P006,2025_Jan_25_1214,CategoryLocalizer,2021.2.3,59.93518608988652,
23.0,23.8,1,0.75,Stimuli\ImageFiles-Set2\Objects\Object_WaterCooler_00001.png,0,0,0,23,23,23,,,,,,,,,,,,,23.004694799999925,0.004694799999924726,None,,61.88853819999986,61.88853819999986,61.88853819999986,61.88853819999986,61.88853819999986,61.88853819999986,61.88853819999986,61.88853819999986,002,P006,2025_Jan_25_1214,CategoryLocalizer,2021.2.3,59.93518608988652,
23.8,24.0,5,0.0,Stimuli\Blank.png,0,0,0,24,24,24,,,,,,,,,,,,,23.820241599999463,0.020241599999462068,None,,62.68925010000021,62.68925010000021,62.68925010000021,62.68925010000021,62.68925010000021,62.68925010000021,62.68925010000021,62.68925010000021,002,P006,2025_Jan_25_1214,CategoryLocalizer,2021.2.3,59.93518608988652,
24.0,24.8,1,0.75,Stimuli\ImageFiles-Set2\Objects\Object_Dishwasher_00001.png,0,0,0,25,25,25,,,,,,,,,,,,,24.003276899999946,0.003276899999946181,None,,62.889425700000174,62.889425700000174,62.889425700000174,62.889425700000174,62.889425700000174,62.889425700000174,62.889425700000174,62.889425700000174,002,P006,2025_Jan_25_1214,CategoryLocalizer,2021.2.3,59.93518608988652,
24.8,25.0,5,0.0,Stimuli\Blank.png,0,0,0,26,26,26,,,,,,,,,,,,,24.820939199999884,0.020939199999883584,None,,63.69012229999953,63.69012229999953,63.69012229999953,63.69012229999953,63.69012229999953,63.69012229999953,63.69012229999953,63.69012229999953,002,P006,2025_Jan_25_1214,CategoryLocalizer,2021.2.3,59.93518608988652,
25.0,25.8,1,0.75,Stimuli\ImageFiles-Set2\Objects\Object_Wheelchair_00001.png,0,0,0,27,27,27,,,,,,,,,,,,,25.004181499999504,0.0041814999995040125,None,,63.89032229999975,63.89032229999975,63.89032229999975,63.89032229999975,63.89032229999975,63.89032229999975,63.89032229999975,63.89032229999975,002,P006,2025_Jan_25_1214,CategoryLocalizer,2021.2.3,59.93518608988652,
25.8,26.0,5,0.0,Stimuli\Blank.png,0,0,0,28,28,28,,,,,,,,,,,,,25.821240000000216,0.02124000000021553,5,0.1505634999994072,64.69100749999961,64.69100749999961,64.69100749999961,64.69100749999961,64.69100749999961,64.69100749999961,64.69100749999961,64.69100749999961,002,P006,2025_Jan_25_1214,CategoryLocalizer,2021.2.3,59.93518608988652,
26.0,26.8,1,0.75,Stimuli\ImageFiles-Set2\Objects\Object_Hook_00001.png,0,0,0,29,29,29,,,,,,,,,,,,,26.004939899999954,0.004939899999953923,None,,64.89119599999958,64.89119599999958,64.89119599999958,64.89119599999958,64.89119599999958,64.89119599999958,64.89119599999958,64.89119599999958,002,P006,2025_Jan_25_1214,CategoryLocalizer,2021.2.3,59.93518608988652,
26.8,27.0,5,0.0,Stimuli\Blank.png,0,0,0,30,30,30,,,,,,,,,,,,,26.822202999999718,0.022202999999716866,None,,65.69189099999949,65.69189099999949,65.69189099999949,65.69189099999949,65.69189099999949,65.69189099999949,65.69189099999949,65.69189099999949,002,P006,2025_Jan_25_1214,CategoryLocalizer,2021.2.3,59.93518608988652,
27.0,27.8,1,0.75,Stimuli\ImageFiles-Set2\Objects\Object_Paper_00001.png,0,0,0,31,31,31,,,,,,,,,,,,,27.00579689999995,0.005796899999950256,None,,65.8920806999995,65.8920806999995,65.8920806999995,65.8920806999995,65.8920806999995,65.8920806999995,65.8920806999995,65.8920806999995,002,P006,2025_Jan_25_1214,CategoryLocalizer,2021.2.3,59.93518608988652,
27.8,28.0,5,0.0,Stimuli\Blank.png,0,0,0,32,32,32,,,,,,,,,,,,,27.825181799999882,0.02518179999988135,5,0.1321619999998802,66.70946149999963,66.70946149999963,66.70946149999963,66.70946149999963,66.70946149999963,66.70946149999963,66.70946149999963,66.70946149999963,002,P006,2025_Jan_25_1214,CategoryLocalizer,2021.2.3,59.93518608988652,
28.0,28.8,2,0.75,Stimuli\ImageFiles-Set2\Bodies\Bodies_Kicking_00001.png,0,0,0,33,33,33,,,,,,,,,,,,,28.02577569999994,0.025775699999940116,None,,66.90965729999971,66.90965729999971,66.90965729999971,66.90965729999971,66.90965729999971,66.90965729999971,66.90965729999971,66.90965729999971,002,P006,2025_Jan_25_1214,CategoryLocalizer,2021.2.3,59.93518608988652,
28.8,29.0,5,0.0,Stimuli\Blank.png,0,0,0,34,34,34,,,,,,,,,,,,,28.824092900000323,0.024092900000322715,None,,67.69365599999946,67.69365599999946,67.69365599999946,67.69365599999946,67.69365599999946,67.69365599999946,67.69365599999946,67.69365599999946,002,P006,2025_Jan_25_1214,CategoryLocalizer,2021.2.3,59.93518608988652,
29.0,29.8,2,0.75,Stimuli\ImageFiles-Set2\Bodies\Bodies_Kicking_00004.png,0,0,0,35,35,35,,,,,,,,,,,,,29.009393600000294,0.0093936000002941,None,,67.89385429999948,67.89385429999948,67.89385429999948,67.89385429999948,67.89385429999948,67.89385429999948,67.89385429999948,67.89385429999948,002,P006,2025_Jan_25_1214,CategoryLocalizer,2021.2.3,59.93518608988652,
29.8,30.0,5,0.0,Stimuli\Blank.png,0,0,0,36,36,36,,,,,,,,,,,,,29.82607139999982,0.026071399999818112,5,0.1470008999995116,68.69451919999938,68.69451919999938,68.69451919999938,68.69451919999938,68.69451919999938,68.69451919999938,68.69451919999938,68.69451919999938,002,P006,2025_Jan_25_1214,CategoryLocalizer,2021.2.3,59.93518608988652,
30.0,30.8,2,0.75,Stimuli\ImageFiles-Set2\Bodies\Bodies_Kicking_00006.png,0,0,0,37,37,37,,,,,,,,,,,,,30.009286900000006,0.009286900000006426,None,,68.89472979999937,68.89472979999937,68.89472979999937,68.89472979999937,68.89472979999937,68.89472979999937,68.89472979999937,68.89472979999937,002,P006,2025_Jan_25_1214,CategoryLocalizer,2021.2.3,59.93518608988652,
30.8,31.0,5,0.0,Stimuli\Blank.png,0,0,0,38,38,38,,,,,,,,,,,,,30.82627979999961,0.026279799999610276,None,,69.6954254000002,69.6954254000002,69.6954254000002,69.6954254000002,69.6954254000002,69.6954254000002,69.6954254000002,69.6954254000002,002,P006,2025_Jan_25_1214,CategoryLocalizer,2021.2.3,59.93518608988652,
31.0,31.8,2,0.75,Stimuli\ImageFiles-Set2\Bodies\Bodies_Falling_00001.png,0,0,0,39,39,39,,,,,,,,,,,,,31.010288700000274,0.01028870000027382,None,,69.895622,69.895622,69.895622,69.895622,69.895622,69.895622,69.895622,69.895622,002,P006,2025_Jan_25_1214,CategoryLocalizer,2021.2.3,59.93518608988652,
31.8,32.0,5,0.0,Stimuli\Blank.png,0,0,0,40,40,40,,,,,,,,,,,,,31.827167599999484,0.02716759999948337,5,0.14535669999986567,70.69631169999957,70.69631169999957,70.69631169999957,70.69631169999957,70.69631169999957,70.69631169999957,70.69631169999957,70.69631169999957,002,P006,2025_Jan_25_1214,CategoryLocalizer,2021.2.3,59.93518608988652,
32.0,32.8,2,0.75,Stimuli\ImageFiles-Set2\Bodies\Bodies_Walking_00007.png,0,0,0,41,41,41,,,,,,,,,,,,,32.01054039999963,0.01054039999962697,None,,70.91317889999937,70.91317889999937,70.91317889999937,70.91317889999937,70.91317889999937,70.91317889999937,70.91317889999937,70.91317889999937,002,P006,2025_Jan_25_1214,CategoryLocalizer,2021.2.3,59.93518608988652,
32.8,33.0,5,0.0,Stimuli\Blank.png,0,0,0,42,42,42,,,,,,,,,,,,,32.845298000000184,0.045298000000187244,None,,71.71387429999959,71.71387429999959,71.71387429999959,71.71387429999959,71.71387429999959,71.71387429999959,71.71387429999959,71.71387429999959,002,P006,2025_Jan_25_1214,CategoryLocalizer,2021.2.3,59.93518608988652,
33.0,33.8,2,0.75,Stimuli\ImageFiles-Set2\Bodies\Bodies_CobraPose_00007.png,0,0,0,43,43,43,,,,,,,,,,,,,33.01131650000025,0.011316500000248197,None,,71.89739490000011,71.89739490000011,71.89739490000011,71.89739490000011,71.89739490000011,71.89739490000011,71.89739490000011,71.89739490000011,002,P006,2025_Jan_25_1214,CategoryLocalizer,2021.2.3,59.93518608988652,
33.8,34.0,5,0.0,Stimuli\Blank.png,0,0,0,44,44,44,,,,,,,,,,,,,33.829520299999785,0.029520299999788335,5,0.14347910000014963,72.6980751000001,72.6980751000001,72.6980751000001,72.6980751000001,72.6980751000001,72.6980751000001,72.6980751000001,72.6980751000001,002,P006,2025_Jan_25_1214,CategoryLocalizer,2021.2.3,59.93518608988652,
34.0,34.8,2,0.75,Stimuli\ImageFiles-Set2\Bodies\Bodies_DownwardDog_00002.png,0,0,0,45,45,45,,,,,,,,,,,,,34.01470590000008,0.014705900000080874,None,,72.91495779999968,72.91495779999968,72.91495779999968,72.91495779999968,72.91495779999968,72.91495779999968,72.91495779999968,72.91495779999968,002,P006,2025_Jan_25_1214,CategoryLocalizer,2021.2.3,59.93518608988652,
34.8,35.0,5,0.0,Stimuli\Blank.png,0,0,0,46,46,46,,,,,,,,,,,,,34.84593020000011,0.045930200000114496,None,,73.71563719999995,73.71563719999995,73.71563719999995,73.71563719999995,73.71563719999995,73.71563719999995,73.71563719999995,73.71563719999995,002,P006,2025_Jan_25_1214,CategoryLocalizer,2021.2.3,59.93518608988652,
35.0,35.8,2,0.75,Stimuli\ImageFiles-Set2\Bodies\Bodies_Punching_00002.png,0,0,0,47,47,47,,,,,,,,,,,,,35.01335250000011,0.013352500000110012,None,,73.89914510000017,73.89914510000017,73.89914510000017,73.89914510000017,73.89914510000017,73.89914510000017,73.89914510000017,73.89914510000017,002,P006,2025_Jan_25_1214,CategoryLocalizer,2021.2.3,59.93518608988652,
35.8,36.0,5,0.0,Stimuli\Blank.png,0,0,0,48,48,48,,,,,,,,,,,,,35.830391899999995,0.030391899999997918,5,0.14167280000037863,74.69984260000001,74.69984260000001,74.69984260000001,74.69984260000001,74.69984260000001,74.69984260000001,74.69984260000001,74.69984260000001,002,P006,2025_Jan_25_1214,CategoryLocalizer,2021.2.3,59.93518608988652,
36.0,36.8,2,0.75,Stimuli\ImageFiles-Set2\Bodies\Bodies_Standing_00006.png,0,0,0,49,49,49,,,,,,,,,,,,,36.013843099999576,0.013843099999576225,None,,74.90004109999973,74.90004109999973,74.90004109999973,74.90004109999973,74.90004109999973,74.90004109999973,74.90004109999973,74.90004109999973,002,P006,2025_Jan_25_1214,CategoryLocalizer,2021.2.3,59.93518608988652,
36.8,37.0,5,0.0,Stimuli\Blank.png,0,0,0,50,50,50,,,,,,,,,,,,,36.83097100000032,0.030971000000320714,None,,75.70072530000016,75.70072530000016,75.70072530000016,75.70072530000016,75.70072530000016,75.70072530000016,75.70072530000016,75.70072530000016,002,P006,2025_Jan_25_1214,CategoryLocalizer,2021.2.3,59.93518608988652,
37.0,37.8,2,0.75,Stimuli\ImageFiles-Set2\Bodies\Bodies_Standing_00002.png,0,0,0,51,51,51,,,,,,,,,,,,,37.01515699999982,0.015156999999817344,None,,75.90089590000025,75.90089590000025,75.90089590000025,75.90089590000025,75.90089590000025,75.90089590000025,75.90089590000025,75.90089590000025,002,P006,2025_Jan_25_1214,CategoryLocalizer,2021.2.3,59.93518608988652,
37.8,38.0,5,0.0,Stimuli\Blank.png,0,0,0,52,52,52,,,,,,,,,,,,,37.81566190000012,0.015661900000125684,None,,76.68493419999959,76.68493419999959,76.68493419999959,76.68493419999959,76.68493419999959,76.68493419999959,76.68493419999959,76.68493419999959,002,P006,2025_Jan_25_1214,CategoryLocalizer,2021.2.3,59.93518608988652,
38.0,38.8,2,0.75,Stimuli\ImageFiles-Set2\Bodies\Bodies_Standing_00002.png,1,1,0,53,53,53,,,,,,,,,,,,,37.99902120000024,-0.0009787999997570296,1,0.47035800000048766,76.86843349999981,76.86843349999981,76.86843349999981,76.86843349999981,76.86843349999981,76.86843349999981,76.86843349999981,76.86843349999981,002,P006,2025_Jan_25_1214,CategoryLocalizer,2021.2.3,59.93518608988652,
38.8,39.0,5,0.0,Stimuli\Blank.png,0,0,0,54,54,54,,,,,,,,,,,,,38.79977770000005,-0.00022229999994749505,None,,77.66913049999948,77.66913049999948,77.66913049999948,77.66913049999948,77.66913049999948,77.66913049999948,77.66913049999948,77.66913049999948,002,P006,2025_Jan_25_1214,CategoryLocalizer,2021.2.3,59.93518608988652,
39.0,39.8,2,0.75,Stimuli\ImageFiles-Set2\Bodies\Bodies_SittingStretch_00001.png,0,0,0,55,55,55,,,,,,,,,,,,,39.00032889999966,0.00032889999965846073,None,,77.88598759999968,77.88598759999968,77.88598759999968,77.88598759999968,77.88598759999968,77.88598759999968,77.88598759999968,77.88598759999968,002,P006,2025_Jan_25_1214,CategoryLocalizer,2021.2.3,59.93518608988652,
39.8,40.0,5,0.0,Stimuli\Blank.png,0,0,0,56,56,56,,,,,,,,,,,,,39.81949439999971,0.01949439999971503,5,0.13813140000002022,78.70342209999944,78.70342209999944,78.70342209999944,78.70342209999944,78.70342209999944,78.70342209999944,78.70342209999944,78.70342209999944,002,P006,2025_Jan_25_1214,CategoryLocalizer,2021.2.3,59.93518608988652,
40.0,40.8,2,0.75,Stimuli\ImageFiles-Set2\Bodies\Bodies_Falling_00005.png,0,0,0,57,57,57,,,,,,,,,,,,,40.01974340000015,0.019743400000152178,None,,78.90362149999964,78.90362149999964,78.90362149999964,78.90362149999964,78.90362149999964,78.90362149999964,78.90362149999964,78.90362149999964,002,P006,2025_Jan_25_1214,CategoryLocalizer,2021.2.3,59.93518608988652,
40.8,41.0,5,0.0,Stimuli\Blank.png,0,0,0,58,58,58,,,,,,,,,,,,,40.819671299999754,0.019671299999757252,None,,79.70427240000026,79.70427240000026,79.70427240000026,79.70427240000026,79.70427240000026,79.70427240000026,79.70427240000026,79.70427240000026,002,P006,2025_Jan_25_1214,CategoryLocalizer,2021.2.3,59.93518608988652,
41.0,41.8,2,0.75,Stimuli\ImageFiles-Set2\Bodies\Bodies_SittingFloor_00004.png,0,0,0,59,59,59,,,,,,,,,,,,,41.01838919999955,0.01838919999954669,None,,79.90445339999951,79.90445339999951,79.90445339999951,79.90445339999951,79.90445339999951,79.90445339999951,79.90445339999951,79.90445339999951,002,P006,2025_Jan_25_1214,CategoryLocalizer,2021.2.3,59.93518608988652,
41.8,42.0,5,0.0,Stimuli\Blank.png,0,0,0,60,60,60,,,,,,,,,,,,,41.81955099999959,0.019550999999594865,None,,80.68846450000001,80.68846450000001,80.68846450000001,80.68846450000001,80.68846450000001,80.68846450000001,80.68846450000001,80.68846450000001,002,P006,2025_Jan_25_1214,CategoryLocalizer,2021.2.3,59.93518608988652,
42.0,42.8,2,0.75,Stimuli\ImageFiles-Set2\Bodies\Bodies_Punching_00007.png,0,0,0,61,61,61,,,,,,,,,,,,,42.00246100000004,0.0024610000000393484,None,,80.88864300000023,80.88864300000023,80.88864300000023,80.88864300000023,80.88864300000023,80.88864300000023,80.88864300000023,80.88864300000023,002,P006,2025_Jan_25_1214,CategoryLocalizer,2021.2.3,59.93518608988652,
42.8,43.0,5,0.0,Stimuli\Blank.png,0,0,0,62,62,62,,,,,,,,,,,,,42.820038300000306,0.020038300000308595,None,,81.68934699999954,81.68934699999954,81.68934699999954,81.68934699999954,81.68934699999954,81.68934699999954,81.68934699999954,81.68934699999954,002,P006,2025_Jan_25_1214,CategoryLocalizer,2021.2.3,59.93518608988652,
43.0,43.8,2,0.75,Stimuli\ImageFiles-Set2\Bodies\Bodies_Standing_00004.png,0,0,0,63,63,63,,,,,,,,,,,,,43.00470700000005,0.004707000000053085,None,,81.88953750000019,81.88953750000019,81.88953750000019,81.88953750000019,81.88953750000019,81.88953750000019,81.88953750000019,81.88953750000019,002,P006,2025_Jan_25_1214,CategoryLocalizer,2021.2.3,59.93518608988652,
43.8,44.0,5,0.0,Stimuli\Blank.png,0,0,0,64,64,64,,,,,,,,,,,,,43.82086530000015,0.020865300000153297,5,0.15132380000068224,82.69022359999963,82.69022359999963,82.69022359999963,82.69022359999963,82.69022359999963,82.69022359999963,82.69022359999963,82.69022359999963,002,P006,2025_Jan_25_1214,CategoryLocalizer,2021.2.3,59.93518608988652,
44.0,44.8,3,0.75,Stimuli\ImageFiles-Set2\Faces\Face_00080.png,0,0,0,65,65,65,,,,,,,,,,,,,44.00433450000037,0.00433450000036828,None,,82.90710599999966,82.90710599999966,82.90710599999966,82.90710599999966,82.90710599999966,82.90710599999966,82.90710599999966,82.90710599999966,002,P006,2025_Jan_25_1214,CategoryLocalizer,2021.2.3,59.93518608988652,
44.8,45.0,5,0.0,Stimuli\Blank.png,0,0,0,66,66,66,,,,,,,,,,,,,44.840239299999666,0.04023929999966924,None,,83.72447519999969,83.72447519999969,83.72447519999969,83.72447519999969,83.72447519999969,83.72447519999969,83.72447519999969,83.72447519999969,002,P006,2025_Jan_25_1214,CategoryLocalizer,2021.2.3,59.93518608988652,
45.0,45.8,3,0.75,Stimuli\ImageFiles-Set2\Faces\Face_00011.png,0,0,0,67,67,67,,,,,,,,,,,,,45.02209279999988,0.022092799999882118,None,,83.90797479999947,83.90797479999947,83.90797479999947,83.90797479999947,83.90797479999947,83.90797479999947,83.90797479999947,83.90797479999947,002,P006,2025_Jan_25_1214,CategoryLocalizer,2021.2.3,59.93518608988652,
45.8,46.0,5,0.0,Stimuli\Blank.png,0,0,0,68,68,68,,,,,,,,,,,,,45.82213919999958,0.022139199999585912,5,0.14959929999986343,84.69200360000013,84.69200360000013,84.69200360000013,84.69200360000013,84.69200360000013,84.69200360000013,84.69200360000013,84.69200360000013,002,P006,2025_Jan_25_1214,CategoryLocalizer,2021.2.3,59.93518608988652,
46.0,46.8,3,0.75,Stimuli\ImageFiles-Set2\Faces\Face_00062.png,0,0,0,69,69,69,,,,,,,,,,,,,46.00587379999979,0.005873799999790208,None,,84.89216820000001,84.89216820000001,84.89216820000001,84.89216820000001,84.89216820000001,84.89216820000001,84.89216820000001,84.89216820000001,002,P006,2025_Jan_25_1214,CategoryLocalizer,2021.2.3,59.93518608988652,
46.8,47.0,5,0.0,Stimuli\Blank.png,0,0,0,70,70,70,,,,,,,,,,,,,46.82482979999986,0.02482979999986412,None,,85.70957920000001,85.70957920000001,85.70957920000001,85.70957920000001,85.70957920000001,85.70957920000001,85.70957920000001,85.70957920000001,002,P006,2025_Jan_25_1214,CategoryLocalizer,2021.2.3,59.93518608988652,
47.0,47.8,3,0.75,Stimuli\ImageFiles-Set2\Faces\Face_00120.png,0,0,0,71,71,71,,,,,,,,,,,,,47.0252346999996,0.025234699999600707,None,,85.92641749999984,85.92641749999984,85.92641749999984,85.92641749999984,85.92641749999984,85.92641749999984,85.92641749999984,85.92641749999984,002,P006,2025_Jan_25_1214,CategoryLocalizer,2021.2.3,59.93518608988652,
47.8,48.0,5,0.0,Stimuli\Blank.png,0,0,0,72,72,72,,,,,,,,,,,,,47.84140019999995,0.04140019999995559,5,0.13105569999970612,86.71043589999954,86.71043589999954,86.71043589999954,86.71043589999954,86.71043589999954,86.71043589999954,86.71043589999954,86.71043589999954,002,P006,2025_Jan_25_1214,CategoryLocalizer,2021.2.3,59.93518608988652,
48.0,48.8,3,0.75,Stimuli\ImageFiles-Set2\Faces\Face_00044.png,0,0,0,73,73,73,,,,,,,,,,,,,48.00812270000006,0.008122700000058103,None,,86.91062079999938,86.91062079999938,86.91062079999938,86.91062079999938,86.91062079999938,86.91062079999938,86.91062079999938,86.91062079999938,002,P006,2025_Jan_25_1214,CategoryLocalizer,2021.2.3,59.93518608988652,
48.8,49.0,5,0.0,Stimuli\Blank.png,0,0,0,74,74,74,,,,,,,,,,,,,48.84197669999958,0.04197669999958009,None,,87.71133199999986,87.71133199999986,87.71133199999986,87.71133199999986,87.71133199999986,87.71133199999986,87.71133199999986,87.71133199999986,002,P006,2025_Jan_25_1214,CategoryLocalizer,2021.2.3,59.93518608988652,
49.0,49.8,3,0.75,Stimuli\ImageFiles-Set2\Faces\Face_00076.png,0,0,0,75,75,75,,,,,,,,,,,,,49.00854629999958,0.008546299999579787,None,,87.89482950000001,87.89482950000001,87.89482950000001,87.89482950000001,87.89482950000001,87.89482950000001,87.89482950000001,87.89482950000001,002,P006,2025_Jan_25_1214,CategoryLocalizer,2021.2.3,59.93518608988652,
49.8,50.0,5,0.0,Stimuli\Blank.png,0,0,0,76,76,76,,,,,,,,,,,,,49.82594719999997,0.02594719999997608,5,0.1459489000008034,88.69552569999996,88.69552569999996,88.69552569999996,88.69552569999996,88.69552569999996,88.69552569999996,88.69552569999996,88.69552569999996,002,P006,2025_Jan_25_1214,CategoryLocalizer,2021.2.3,59.93518608988652,
50.0,50.8,3,0.75,Stimuli\ImageFiles-Set2\Faces\Face_00076.png,1,1,0,77,77,77,,,,,,,,,,,,,50.01074369999969,0.01074369999969349,1,0.38905939999949624,88.89569659999961,88.89569659999961,88.89569659999961,88.89569659999961,88.89569659999961,88.89569659999961,88.89569659999961,88.89569659999961,002,P006,2025_Jan_25_1214,CategoryLocalizer,2021.2.3,59.93518608988652,
50.8,51.0,5,0.0,Stimuli\Blank.png,0,0,0,78,78,78,,,,,,,,,,,,,50.82702210000025,0.02702210000025218,None,,89.69640729999992,89.69640729999992,89.69640729999992,89.69640729999992,89.69640729999992,89.69640729999992,89.69640729999992,89.69640729999992,002,P006,2025_Jan_25_1214,CategoryLocalizer,2021.2.3,59.93518608988652,
51.0,51.8,3,0.75,Stimuli\ImageFiles-Set2\Faces\Face_00019.png,0,0,0,79,79,79,,,,,,,,,,,,,51.010391799999525,0.010391799999524665,None,,89.91326630000003,89.91326630000003,89.91326630000003,89.91326630000003,89.91326630000003,89.91326630000003,89.91326630000003,89.91326630000003,002,P006,2025_Jan_25_1214,CategoryLocalizer,2021.2.3,59.93518608988652,
51.8,52.0,5,0.0,Stimuli\Blank.png,0,0,0,80,80,80,,,,,,,,,,,,,51.844599400000334,0.044599400000336686,5,0.1276428000001033,90.71397369999977,90.71397369999977,90.71397369999977,90.71397369999977,90.71397369999977,90.71397369999977,90.71397369999977,90.71397369999977,002,P006,2025_Jan_25_1214,CategoryLocalizer,2021.2.3,59.93518608988652,
52.0,52.8,3,0.75,Stimuli\ImageFiles-Set2\Faces\Face_00112.png,0,0,0,81,81,81,,,,,,,,,,,,,52.01165839999976,0.01165839999976015,None,,90.88078940000014,90.88078940000014,90.88078940000014,90.88078940000014,90.88078940000014,90.88078940000014,90.88078940000014,90.88078940000014,002,P006,2025_Jan_25_1214,CategoryLocalizer,2021.2.3,59.93518608988652,
52.8,53.0,5,0.0,Stimuli\Blank.png,0,0,0,82,82,82,,,,,,,,,,,,,52.812364100000195,0.012364100000198164,None,,91.68152629999986,91.68152629999986,91.68152629999986,91.68152629999986,91.68152629999986,91.68152629999986,91.68152629999986,91.68152629999986,002,P006,2025_Jan_25_1214,CategoryLocalizer,2021.2.3,59.93518608988652,
53.0,53.8,3,0.75,Stimuli\ImageFiles-Set2\Faces\Face_00072.png,1,1,0,83,83,83,,,,,,,,,,,,,53.01242329999968,0.012423299999682058,None,,91.89835810000022,91.89835810000022,91.89835810000022,91.89835810000022,91.89835810000022,91.89835810000022,91.89835810000022,91.89835810000022,002,P006,2025_Jan_25_1214,CategoryLocalizer,2021.2.3,59.93518608988652,
53.8,54.0,5,0.0,Stimuli\Blank.png,0,0,0,84,84,84,,,,,,,,,,,,,53.82999800000016,0.029998000000162506,5,0.14243619999979273,92.69906939999964,92.69906939999964,92.69906939999964,92.69906939999964,92.69906939999964,92.69906939999964,92.69906939999964,92.69906939999964,002,P006,2025_Jan_25_1214,CategoryLocalizer,2021.2.3,59.93518608988652,
54.0,54.8,3,0.75,Stimuli\ImageFiles-Set2\Faces\Face_00094.png,0,0,0,85,85,85,,,,,,,,,,,,,54.01299879999988,0.01299879999987752,None,,92.89922930000012,92.89922930000012,92.89922930000012,92.89922930000012,92.89922930000012,92.89922930000012,92.89922930000012,92.89922930000012,002,P006,2025_Jan_25_1214,CategoryLocalizer,2021.2.3,59.93518608988652,
54.8,55.0,5,0.0,Stimuli\Blank.png,0,0,0,86,86,86,,,,,,,,,,,,,54.830132400000366,0.030132400000368875,None,,93.69994169999973,93.69994169999973,93.69994169999973,93.69994169999973,93.69994169999973,93.69994169999973,93.69994169999973,93.69994169999973,002,P006,2025_Jan_25_1214,CategoryLocalizer,2021.2.3,59.93518608988652,
55.0,55.8,3,0.75,Stimuli\ImageFiles-Set2\Faces\Face_00094.png,0,0,0,87,87,87,,,,,,,,,,,,,55.01503119999961,0.015031199999612,1,0.3783293999995294,93.90011719999984,93.90011719999984,93.90011719999984,93.90011719999984,93.90011719999984,93.90011719999984,93.90011719999984,93.90011719999984,002,P006,2025_Jan_25_1214,CategoryLocalizer,2021.2.3,59.93518608988652,
55.8,56.0,5,0.0,Stimuli\Blank.png,0,0,0,88,88,88,,,,,,,,,,,,,55.81511049999972,0.015110499999721583,5,0.15761380000003555,94.68414740000026,94.68414740000026,94.68414740000026,94.68414740000026,94.68414740000026,94.68414740000026,94.68414740000026,94.68414740000026,002,P006,2025_Jan_25_1214,CategoryLocalizer,2021.2.3,59.93518608988652,
56.0,56.8,3,0.75,Stimuli\ImageFiles-Set2\Faces\Face_00060.png,0,0,0,89,89,89,,,,,,,,,,,,,56.01458410000032,0.014584100000320177,None,,94.88433629999963,94.88433629999963,94.88433629999963,94.88433629999963,94.88433629999963,94.88433629999963,94.88433629999963,94.88433629999963,002,P006,2025_Jan_25_1214,CategoryLocalizer,2021.2.3,59.93518608988652,
56.8,57.0,5,0.0,Stimuli\Blank.png,0,0,0,90,90,90,,,,,,,,,,,,,56.8152326999998,0.015232699999799593,None,,95.68502910000007,95.68502910000007,95.68502910000007,95.68502910000007,95.68502910000007,95.68502910000007,95.68502910000007,95.68502910000007,002,P006,2025_Jan_25_1214,CategoryLocalizer,2021.2.3,59.93518608988652,
57.0,57.8,3,0.75,Stimuli\ImageFiles-Set2\Faces\Face_00102.png,0,0,0,91,91,91,,,,,,,,,,,,,57.01579760000004,0.01579760000004171,None,,95.88521369999944,95.88521369999944,95.88521369999944,95.88521369999944,95.88521369999944,95.88521369999944,95.88521369999944,95.88521369999944,002,P006,2025_Jan_25_1214,CategoryLocalizer,2021.2.3,59.93518608988652,
57.8,58.0,5,0.0,Stimuli\Blank.png,0,0,0,92,92,92,,,,,,,,,,,,,57.799699500000315,-0.00030049999968184693,None,,96.66934089999995,96.66934089999995,96.66934089999995,96.66934089999995,96.66934089999995,96.66934089999995,96.66934089999995,96.66934089999995,002,P006,2025_Jan_25_1214,CategoryLocalizer,2021.2.3,59.93518608988652,
58.0,58.8,3,0.75,Stimuli\ImageFiles-Set2\Faces\Face_00017.png,0,0,0,93,93,93,,,,,,,,,,,,,58.000070699999924,7.069999992381781e-05,None,,96.88629330000003,96.88629330000003,96.88629330000003,96.88629330000003,96.88629330000003,96.88629330000003,96.88629330000003,96.88629330000003,002,P006,2025_Jan_25_1214,CategoryLocalizer,2021.2.3,59.93518608988652,
58.8,59.0,5,0.0,Stimuli\Blank.png,0,0,0,94,94,94,,,,,,,,,,,,,58.8172697,0.017269699999999943,None,,97.6867972,97.6867972,97.6867972,97.6867972,97.6867972,97.6867972,97.6867972,97.6867972,002,P006,2025_Jan_25_1214,CategoryLocalizer,2021.2.3,59.93518608988652,
59.0,59.8,3,0.75,Stimuli\ImageFiles-Set2\Faces\Face_00010.png,0,0,0,95,95,95,,,,,,,,,,,,,59.00087910000002,0.0008791000000201166,None,,97.88698269999986,97.88698269999986,97.88698269999986,97.88698269999986,97.88698269999986,97.88698269999986,97.88698269999986,97.88698269999986,002,P006,2025_Jan_25_1214,CategoryLocalizer,2021.2.3,59.93518608988652,
59.8,60.0,5,0.0,Stimuli\Blank.png,0,0,0,96,96,96,,,,,,,,,,,,,59.81967199999963,0.01967199999963043,5,0.13715959999990446,98.70438389999981,98.70438389999981,98.70438389999981,98.70438389999981,98.70438389999981,98.70438389999981,98.70438389999981,98.70438389999981,002,P006,2025_Jan_25_1214,CategoryLocalizer,2021.2.3,59.93518608988652,
60.0,60.8,4,0.75,Stimuli\ImageFiles-Set2\Scenes\Scenes_077.png,0,0,0,97,97,97,,,,,,,,,,,,,60.020421799999895,0.020421799999894574,None,,98.92121700000007,98.92121700000007,98.92121700000007,98.92121700000007,98.92121700000007,98.92121700000007,98.92121700000007,98.92121700000007,002,P006,2025_Jan_25_1214,CategoryLocalizer,2021.2.3,59.93518608988652,
60.8,61.0,5,0.0,Stimuli\Blank.png,0,0,0,98,98,98,,,,,,,,,,,,,60.83618790000037,0.03618790000037109,None,,99.70524000000023,99.70524000000023,99.70524000000023,99.70524000000023,99.70524000000023,99.70524000000023,99.70524000000023,99.70524000000023,002,P006,2025_Jan_25_1214,CategoryLocalizer,2021.2.3,59.93518608988652,
61.0,61.8,4,0.75,Stimuli\ImageFiles-Set2\Scenes\Scenes_083.png,0,0,0,99,99,99,,,,,,,,,,,,,61.004448599999705,0.0044485999997050385,None,,99.90541359999952,99.90541359999952,99.90541359999952,99.90541359999952,99.90541359999952,99.90541359999952,99.90541359999952,99.90541359999952,002,P006,2025_Jan_25_1214,CategoryLocalizer,2021.2.3,59.93518608988652,
61.8,62.0,5,0.0,Stimuli\Blank.png,0,0,0,100,100,100,,,,,,,,,,,,,61.83711500000027,0.037115000000270015,5,0.1353932000001805,100.70612379999966,100.70612379999966,100.70612379999966,100.70612379999966,100.70612379999966,100.70612379999966,100.70612379999966,100.70612379999966,002,P006,2025_Jan_25_1214,CategoryLocalizer,2021.2.3,59.93518608988652,
62.0,62.8,4,0.75,Stimuli\ImageFiles-Set2\Scenes\Scenes_100.png,0,0,0,101,101,101,,,,,,,,,,,,,62.003122000000076,0.0031220000000757864,None,,100.88963319999948,100.88963319999948,100.88963319999948,100.88963319999948,100.88963319999948,100.88963319999948,100.88963319999948,100.88963319999948,002,P006,2025_Jan_25_1214,CategoryLocalizer,2021.2.3,59.93518608988652,
62.8,63.0,5,0.0,Stimuli\Blank.png,0,0,0,102,102,102,,,,,,,,,,,,,62.82110829999965,0.021108299999653468,None,,101.69032809999953,101.69032809999953,101.69032809999953,101.69032809999953,101.69032809999953,101.69032809999953,101.69032809999953,101.69032809999953,002,P006,2025_Jan_25_1214,CategoryLocalizer,2021.2.3,59.93518608988652,
63.0,63.8,4,0.75,Stimuli\ImageFiles-Set2\Scenes\Scenes_084.png,0,0,0,103,103,103,,,,,,,,,,,,,63.004518599999756,0.004518599999755679,None,,101.90720090000013,101.90720090000013,101.90720090000013,101.90720090000013,101.90720090000013,101.90720090000013,101.90720090000013,101.90720090000013,002,P006,2025_Jan_25_1214,CategoryLocalizer,2021.2.3,59.93518608988652,
63.8,64.0,5,0.0,Stimuli\Blank.png,0,0,0,104,104,104,,,,,,,,,,,,,63.83827159999964,0.038271599999646355,5,0.13386699999955454,102.70793979999962,102.70793979999962,102.70793979999962,102.70793979999962,102.70793979999962,102.70793979999962,102.70793979999962,102.70793979999962,002,P006,2025_Jan_25_1214,CategoryLocalizer,2021.2.3,59.93518608988652,
64.0,64.8,4,0.75,Stimuli\ImageFiles-Set2\Scenes\Scenes_084.png,1,1,0,105,105,105,,,,,,,,,,,,,64.00489389999984,0.004893899999842688,1,0.4610920000004626,102.89140419999967,102.89140419999967,102.89140419999967,102.89140419999967,102.89140419999967,102.89140419999967,102.89140419999967,102.89140419999967,002,P006,2025_Jan_25_1214,CategoryLocalizer,2021.2.3,59.93518608988652,
64.8,65.0,5,0.0,Stimuli\Blank.png,0,0,0,106,106,106,,,,,,,,,,,,,64.82540169999993,0.025401699999932248,None,,103.70878369999991,103.70878369999991,103.70878369999991,103.70878369999991,103.70878369999991,103.70878369999991,103.70878369999991,103.70878369999991,002,P006,2025_Jan_25_1214,CategoryLocalizer,2021.2.3,59.93518608988652,
65.0,65.8,4,0.75,Stimuli\ImageFiles-Set2\Scenes\Scenes_062.png,0,0,0,107,107,107,,,,,,,,,,,,,65.02479279999989,0.024792799999886483,None,,103.92563009999958,103.92563009999958,103.92563009999958,103.92563009999958,103.92563009999958,103.92563009999958,103.92563009999958,103.92563009999958,002,P006,2025_Jan_25_1214,CategoryLocalizer,2021.2.3,59.93518608988652,
65.8,66.0,5,0.0,Stimuli\Blank.png,0,0,0,108,108,108,,,,,,,,,,,,,65.8402503999996,0.04025039999960711,5,0.13192140000046493,104.70966469999985,104.70966469999985,104.70966469999985,104.70966469999985,104.70966469999985,104.70966469999985,104.70966469999985,104.70966469999985,002,P006,2025_Jan_25_1214,CategoryLocalizer,2021.2.3,59.93518608988652,
66.0,66.8,4,0.75,Stimuli\ImageFiles-Set2\Scenes\Scenes_078.png,0,0,0,109,109,109,,,,,,,,,,,,,66.00706379999974,0.0070637999997416046,None,,104.89316749999944,104.89316749999944,104.89316749999944,104.89316749999944,104.89316749999944,104.89316749999944,104.89316749999944,104.89316749999944,002,P006,2025_Jan_25_1214,CategoryLocalizer,2021.2.3,59.93518608988652,
66.8,67.0,5,0.0,Stimuli\Blank.png,0,0,0,110,110,110,,,,,,,,,,,,,66.82428509999954,0.024285099999545423,None,,105.69386229999964,105.69386229999964,105.69386229999964,105.69386229999964,105.69386229999964,105.69386229999964,105.69386229999964,105.69386229999964,002,P006,2025_Jan_25_1214,CategoryLocalizer,2021.2.3,59.93518608988652,
67.0,67.8,4,0.75,Stimuli\ImageFiles-Set2\Scenes\Scenes_081.png,0,0,0,111,111,111,,,,,,,,,,,,,67.0094097000001,0.009409700000105659,None,,105.89404289999948,105.89404289999948,105.89404289999948,105.89404289999948,105.89404289999948,105.89404289999948,105.89404289999948,105.89404289999948,002,P006,2025_Jan_25_1214,CategoryLocalizer,2021.2.3,59.93518608988652,
67.8,68.0,5,0.0,Stimuli\Blank.png,0,0,0,112,112,112,,,,,,,,,,,,,67.82538699999986,0.025386999999867044,5,0.14687669999966602,106.6947467,106.6947467,106.6947467,106.6947467,106.6947467,106.6947467,106.6947467,106.6947467,002,P006,2025_Jan_25_1214,CategoryLocalizer,2021.2.3,59.93518608988652,
68.0,68.8,4,0.75,Stimuli\ImageFiles-Set2\Scenes\Scenes_090.png,0,0,0,113,113,113,,,,,,,,,,,,,68.00837150000007,0.00837150000006659,None,,106.89491749999979,106.89491749999979,106.89491749999979,106.89491749999979,106.89491749999979,106.89491749999979,106.89491749999979,106.89491749999979,002,P006,2025_Jan_25_1214,CategoryLocalizer,2021.2.3,59.93518608988652,
68.8,69.0,5,0.0,Stimuli\Blank.png,0,0,0,114,114,114,,,,,,,,,,,,,68.8262308000003,0.026230800000305976,None,,107.69562249999944,107.69562249999944,107.69562249999944,107.69562249999944,107.69562249999944,107.69562249999944,107.69562249999944,107.69562249999944,002,P006,2025_Jan_25_1214,CategoryLocalizer,2021.2.3,59.93518608988652,
69.0,69.8,4,0.75,Stimuli\ImageFiles-Set2\Scenes\Scenes_071.png,0,0,0,115,115,115,,,,,,,,,,,,,69.01024849999976,0.010248499999761407,None,,107.91248159999941,107.91248159999941,107.91248159999941,107.91248159999941,107.91248159999941,107.91248159999941,107.91248159999941,107.91248159999941,002,P006,2025_Jan_25_1214,CategoryLocalizer,2021.2.3,59.93518608988652,
69.8,70.0,5,0.0,Stimuli\Blank.png,0,0,0,116,116,116,,,,,,,,,,,,,69.84500149999985,0.04500149999985581,5,0.11174149999988003,108.72989299999972,108.72989299999972,108.72989299999972,108.72989299999972,108.72989299999972,108.72989299999972,108.72989299999972,108.72989299999972,002,P006,2025_Jan_25_1214,CategoryLocalizer,2021.2.3,59.93518608988652,
70.0,70.8,4,0.75,Stimuli\ImageFiles-Set2\Scenes\Scenes_119.png,0,0,0,117,117,117,,,,,,,,,,,,,70.02961770000002,0.029617700000017066,None,,108.93004669999937,108.93004669999937,108.93004669999937,108.93004669999937,108.93004669999937,108.93004669999937,108.93004669999937,108.93004669999937,002,P006,2025_Jan_25_1214,CategoryLocalizer,2021.2.3,59.93518608988652,
70.8,71.0,5,0.0,Stimuli\Blank.png,0,0,0,118,118,118,,,,,,,,,,,,,70.84424760000002,0.044247600000019816,None,,109.71407490000001,109.71407490000001,109.71407490000001,109.71407490000001,109.71407490000001,109.71407490000001,109.71407490000001,109.71407490000001,002,P006,2025_Jan_25_1214,CategoryLocalizer,2021.2.3,59.93518608988652,
71.0,71.8,4,0.75,Stimuli\ImageFiles-Set2\Scenes\Scenes_108.png,0,0,0,119,119,119,,,,,,,,,,,,,71.01187889999983,0.011878899999828718,None,,109.89756639999996,109.89756639999996,109.89756639999996,109.89756639999996,109.89756639999996,109.89756639999996,109.89756639999996,109.89756639999996,002,P006,2025_Jan_25_1214,CategoryLocalizer,2021.2.3,59.93518608988652,
71.8,72.0,5,0.0,Stimuli\Blank.png,0,0,0,120,120,120,,,,,,,,,,,,,71.82929069999955,0.029290699999549474,5,0.1432425000002695,110.69828309999957,110.69828309999957,110.69828309999957,110.69828309999957,110.69828309999957,110.69828309999957,110.69828309999957,110.69828309999957,002,P006,2025_Jan_25_1214,CategoryLocalizer,2021.2.3,59.93518608988652,
72.0,72.8,4,0.75,Stimuli\ImageFiles-Set2\Scenes\Scenes_101.png,0,0,0,121,121,121,,,,,,,,,,,,,72.01219719999972,0.012197199999718578,None,,110.8984688999999,110.8984688999999,110.8984688999999,110.8984688999999,110.8984688999999,110.8984688999999,110.8984688999999,110.8984688999999,002,P006,2025_Jan_25_1214,CategoryLocalizer,2021.2.3,59.93518608988652,
72.8,73.0,5,0.0,Stimuli\Blank.png,0,0,0,122,122,122,,,,,,,,,,,,,72.83008450000034,0.030084500000342018,None,,111.69916719999947,111.69916719999947,111.69916719999947,111.69916719999947,111.69916719999947,111.69916719999947,111.69916719999947,111.69916719999947,002,P006,2025_Jan_25_1214,CategoryLocalizer,2021.2.3,59.93518608988652,
73.0,73.8,4,0.75,Stimuli\ImageFiles-Set2\Scenes\Scenes_115.png,0,0,0,123,123,123,,,,,,,,,,,,,73.01489159999983,0.014891599999828031,None,,111.91601780000019,111.91601780000019,111.91601780000019,111.91601780000019,111.91601780000019,111.91601780000019,111.91601780000019,111.91601780000019,002,P006,2025_Jan_25_1214,CategoryLocalizer,2021.2.3,59.93518608988652,
73.8,74.0,5,0.0,Stimuli\Blank.png,0,0,0,124,124,124,,,,,,,,,,,,,73.84711729999981,0.047117299999811735,5,0.1250149000006786,112.71671890000016,112.71671890000016,112.71671890000016,112.71671890000016,112.71671890000016,112.71671890000016,112.71671890000016,112.71671890000016,002,P006,2025_Jan_25_1214,CategoryLocalizer,2021.2.3,59.93518608988652,
74.0,74.8,4,0.75,Stimuli\ImageFiles-Set2\Scenes\Scenes_092.png,0,0,0,125,125,125,,,,,,,,,,,,,74.01373960000001,0.013739600000008068,None,,112.90023060000021,112.90023060000021,112.90023060000021,112.90023060000021,112.90023060000021,112.90023060000021,112.90023060000021,112.90023060000021,002,P006,2025_Jan_25_1214,CategoryLocalizer,2021.2.3,59.93518608988652,
74.8,75.0,5,0.0,Stimuli\Blank.png,0,0,0,126,126,126,,,,,,,,,,,,,74.83107539999946,0.031075399999465958,None,,113.70094969999991,113.70094969999991,113.70094969999991,113.70094969999991,113.70094969999991,113.70094969999991,113.70094969999991,113.70094969999991,002,P006,2025_Jan_25_1214,CategoryLocalizer,2021.2.3,59.93518608988652,
75.0,75.8,4,0.75,Stimuli\ImageFiles-Set2\Scenes\Scenes_096.png,0,0,0,127,127,127,,,,,,,,,,,,,75.01523679999991,0.015236799999911455,None,,113.91778040000008,113.91778040000008,113.91778040000008,113.91778040000008,113.91778040000008,113.91778040000008,113.91778040000008,113.91778040000008,002,P006,2025_Jan_25_1214,CategoryLocalizer,2021.2.3,59.93518608988652,
75.8,76.0,5,0.0,Stimuli\Blank.png,0,0,0,128,128,128,,,,,,,,,,,,,75.83222560000013,0.03222560000013175,None,,114.70182750000004,114.70182750000004,114.70182750000004,114.70182750000004,114.70182750000004,114.70182750000004,114.70182750000004,114.70182750000004,002,P006,2025_Jan_25_1214,CategoryLocalizer,2021.2.3,59.93518608988652,
76.0,88.0,0,0.0,Stimuli\Blank.png,0,0,0,129,129,129,,,,,,,,,,,,,75.99932220000028,-0.0006777999997211737,5,11.972933300000477,114.86868330000016,114.86868330000016,114.86868330000016,114.86868330000016,114.86868330000016,114.86868330000016,114.86868330000016,114.86868330000016,002,P006,2025_Jan_25_1214,CategoryLocalizer,2021.2.3,59.93518608988652,
88.0,88.8,3,0.75,Stimuli\ImageFiles-Set2\Faces\Face_00048.png,0,0,0,130,130,130,,,,,,,,,,,,,88.01002760000029,0.01002760000028502,None,,126.89590679999947,126.89590679999947,126.89590679999947,126.89590679999947,126.89590679999947,126.89590679999947,126.89590679999947,126.89590679999947,002,P006,2025_Jan_25_1214,CategoryLocalizer,2021.2.3,59.93518608988652,
88.8,89.0,5,0.0,Stimuli\Blank.png,0,0,0,131,131,131,,,,,,,,,,,,,88.82927910000035,0.029279100000351832,None,,127.71329799999967,127.71329799999967,127.71329799999967,127.71329799999967,127.71329799999967,127.71329799999967,127.71329799999967,127.71329799999967,002,P006,2025_Jan_25_1214,CategoryLocalizer,2021.2.3,59.93518608988652,
89.0,89.8,3,0.75,Stimuli\ImageFiles-Set2\Faces\Face_00056.png,0,0,0,132,132,132,,,,,,,,,,,,,89.02935210000032,0.029352100000323844,None,,127.91347059999953,127.91347059999953,127.91347059999953,127.91347059999953,127.91347059999953,127.91347059999953,127.91347059999953,127.91347059999953,002,P006,2025_Jan_25_1214,CategoryLocalizer,2021.2.3,59.93518608988652,
89.8,90.0,5,0.0,Stimuli\Blank.png,0,0,0,133,133,133,,,,,,,,,,,,,89.82889900000009,0.028899000000095043,5,0.14410979999956908,128.69750179999937,128.69750179999937,128.69750179999937,128.69750179999937,128.69750179999937,128.69750179999937,128.69750179999937,128.69750179999937,002,P006,2025_Jan_25_1214,CategoryLocalizer,2021.2.3,59.93518608988652,
90.0,90.8,3,0.75,Stimuli\ImageFiles-Set2\Faces\Face_00002.png,0,0,0,134,134,134,,,,,,,,,,,,,90.01186599999983,0.011865999999827181,None,,128.8976920999994,128.8976920999994,128.8976920999994,128.8976920999994,128.8976920999994,128.8976920999994,128.8976920999994,128.8976920999994,002,P006,2025_Jan_25_1214,CategoryLocalizer,2021.2.3,59.93518608988652,
90.8,91.0,5,0.0,Stimuli\Blank.png,0,0,0,135,135,135,,,,,,,,,,,,,90.82928290000018,0.029282900000183076,None,,129.6983640999997,129.6983640999997,129.6983640999997,129.6983640999997,129.6983640999997,129.6983640999997,129.6983640999997,129.6983640999997,002,P006,2025_Jan_25_1214,CategoryLocalizer,2021.2.3,59.93518608988652,
91.0,91.8,3,0.75,Stimuli\ImageFiles-Set2\Faces\Face_00002.png,1,1,0,136,136,136,,,,,,,,,,,,,91.01304179999988,0.013041799999882642,1,0.4565122000003612,129.88191149999966,129.88191149999966,129.88191149999966,129.88191149999966,129.88191149999966,129.88191149999966,129.88191149999966,129.88191149999966,002,P006,2025_Jan_25_1214,CategoryLocalizer,2021.2.3,59.93518608988652,
91.8,92.0,5,0.0,Stimuli\Blank.png,0,0,0,137,137,137,,,,,,,,,,,,,91.81592769999952,0.015927699999522815,5,0.14219200000025012,130.69926979999946,130.69926979999946,130.69926979999946,130.69926979999946,130.69926979999946,130.69926979999946,130.69926979999946,130.69926979999946,002,P006,2025_Jan_25_1214,CategoryLocalizer,2021.2.3,59.93518608988652,
92.0,92.8,3,0.75,Stimuli\ImageFiles-Set2\Faces\Face_00068.png,0,0,0,138,138,138,,,,,,,,,,,,,92.01361100000031,0.013611000000310014,None,,130.9161108999997,130.9161108999997,130.9161108999997,130.9161108999997,130.9161108999997,130.9161108999997,130.9161108999997,130.9161108999997,002,P006,2025_Jan_25_1214,CategoryLocalizer,2021.2.3,59.93518608988652,
92.8,93.0,5,0.0,Stimuli\Blank.png,0,0,0,139,139,139,,,,,,,,,,,,,92.84724790000018,0.04724790000018686,None,,131.7168190000002,131.7168190000002,131.7168190000002,131.7168190000002,131.7168190000002,131.7168190000002,131.7168190000002,131.7168190000002,002,P006,2025_Jan_25_1214,CategoryLocalizer,2021.2.3,59.93518608988652,
93.0,93.8,3,0.75,Stimuli\ImageFiles-Set2\Faces\Face_00082.png,0,0,0,140,140,140,,,,,,,,,,,,,93.01391129999956,0.013911299999563198,None,,131.9003376999999,131.9003376999999,131.9003376999999,131.9003376999999,131.9003376999999,131.9003376999999,131.9003376999999,131.9003376999999,002,P006,2025_Jan_25_1214,CategoryLocalizer,2021.2.3,59.93518608988652,
93.8,94.0,5,0.0,Stimuli\Blank.png,0,0,0,141,141,141,,,,,,,,,,,,,93.83127160000004,0.03127160000003926,5,0.14160570000058215,132.7010221999999,132.7010221999999,132.7010221999999,132.7010221999999,132.7010221999999,132.7010221999999,132.7010221999999,132.7010221999999,002,P006,2025_Jan_25_1214,CategoryLocalizer,2021.2.3,59.93518608988652,
94.0,94.8,3,0.75,Stimuli\ImageFiles-Set2\Faces\Face_00021.png,0,0,0,142,142,142,,,,,,,,,,,,,94.01487650000036,0.014876500000355009,None,,132.91787879999993,132.91787879999993,132.91787879999993,132.91787879999993,132.91787879999993,132.91787879999993,132.91787879999993,132.91787879999993,002,P006,2025_Jan_25_1214,CategoryLocalizer,2021.2.3,59.93518608988652,
94.8,95.0,5,0.0,Stimuli\Blank.png,0,0,0,143,143,143,,,,,,,,,,,,,94.84932180000033,0.04932180000032815,None,,133.71859270000004,133.71859270000004,133.71859270000004,133.71859270000004,133.71859270000004,133.71859270000004,133.71859270000004,133.71859270000004,002,P006,2025_Jan_25_1214,CategoryLocalizer,2021.2.3,59.93518608988652,
95.0,95.8,3,0.75,Stimuli\ImageFiles-Set2\Faces\Face_00038.png,0,0,0,144,144,144,,,,,,,,,,,,,94.99996349999947,-3.6500000533123966e-05,None,,133.88539769999988,133.88539769999988,133.88539769999988,133.88539769999988,133.88539769999988,133.88539769999988,133.88539769999988,133.88539769999988,002,P006,2025_Jan_25_1214,CategoryLocalizer,2021.2.3,59.93518608988652,
95.8,96.0,5,0.0,Stimuli\Blank.png,0,0,0,145,145,145,,,,,,,,,,,,,95.81701390000035,0.01701390000035019,None,,134.68610999999964,134.68610999999964,134.68610999999964,134.68610999999964,134.68610999999964,134.68610999999964,134.68610999999964,134.68610999999964,002,P006,2025_Jan_25_1214,CategoryLocalizer,2021.2.3,59.93518608988652,
96.0,96.8,3,0.75,Stimuli\ImageFiles-Set2\Faces\Face_00064.png,0,0,0,146,146,146,,,,,,,,,,,,,95.99993600000016,-6.399999983841553e-05,None,,134.88627949999955,134.88627949999955,134.88627949999955,134.88627949999955,134.88627949999955,134.88627949999955,134.88627949999955,134.88627949999955,002,P006,2025_Jan_25_1214,CategoryLocalizer,2021.2.3,59.93518608988652,
96.8,97.0,5,0.0,Stimuli\Blank.png,0,0,0,147,147,147,,,,,,,,,,,,,96.81931050000003,0.01931050000003154,None,,135.7037018000001,135.7037018000001,135.7037018000001,135.7037018000001,135.7037018000001,135.7037018000001,135.7037018000001,135.7037018000001,002,P006,2025_Jan_25_1214,CategoryLocalizer,2021.2.3,59.93518608988652,
97.0,97.8,3,0.75,Stimuli\ImageFiles-Set2\Faces\Face_00028.png,0,0,0,148,148,148,,,,,,,,,,,,,97.01985530000002,0.01985530000001745,None,,135.92052569999942,135.92052569999942,135.92052569999942,135.92052569999942,135.92052569999942,135.92052569999942,135.92052569999942,135.92052569999942,002,P006,2025_Jan_25_1214,CategoryLocalizer,2021.2.3,59.93518608988652,
97.8,98.0,5,0.0,Stimuli\Blank.png,0,0,0,149,149,149,,,,,,,,,,,,,97.83534859999963,0.035348599999636576,None,,136.70456509999985,136.70456509999985,136.70456509999985,136.70456509999985,136.70456509999985,136.70456509999985,136.70456509999985,136.70456509999985,002,P006,2025_Jan_25_1214,CategoryLocalizer,2021.2.3,59.93518608988652,
98.0,98.8,3,0.75,Stimuli\ImageFiles-Set2\Faces\Face_00040.png,0,0,0,150,150,150,,,,,,,,,,,,,98.00145309999971,0.0014530999997077743,None,,136.88816849999967,136.88816849999967,136.88816849999967,136.88816849999967,136.88816849999967,136.88816849999967,136.88816849999967,136.88816849999967,002,P006,2025_Jan_25_1214,CategoryLocalizer,2021.2.3,59.93518608988652,
98.8,99.0,5,0.0,Stimuli\Blank.png,0,0,0,151,151,151,,,,,,,,,,,,,98.81946940000034,0.01946940000034658,None,,137.68876379999983,137.68876379999983,137.68876379999983,137.68876379999983,137.68876379999983,137.68876379999983,137.68876379999983,137.68876379999983,002,P006,2025_Jan_25_1214,CategoryLocalizer,2021.2.3,59.93518608988652,
99.0,99.8,3,0.75,Stimuli\ImageFiles-Set2\Faces\Face_00046.png,0,0,0,152,152,152,,,,,,,,,,,,,99.00457149999966,0.0045714999996562256,None,,137.88894079999955,137.88894079999955,137.88894079999955,137.88894079999955,137.88894079999955,137.88894079999955,137.88894079999955,137.88894079999955,002,P006,2025_Jan_25_1214,CategoryLocalizer,2021.2.3,59.93518608988652,
99.8,100.0,5,0.0,Stimuli\Blank.png,0,0,0,153,153,153,,,,,,,,,,,,,99.82038720000037,0.02038720000037131,None,,138.6896571999996,138.6896571999996,138.6896571999996,138.6896571999996,138.6896571999996,138.6896571999996,138.6896571999996,138.6896571999996,002,P006,2025_Jan_25_1214,CategoryLocalizer,2021.2.3,59.93518608988652,
100.0,100.8,3,0.75,Stimuli\ImageFiles-Set2\Faces\Face_00114.png,0,0,0,154,154,154,,,,,,,,,,,,,100.00331110000025,0.0033111000002463697,None,,138.8898124999996,138.8898124999996,138.8898124999996,138.8898124999996,138.8898124999996,138.8898124999996,138.8898124999996,138.8898124999996,002,P006,2025_Jan_25_1214,CategoryLocalizer,2021.2.3,59.93518608988652,
100.8,101.0,5,0.0,Stimuli\Blank.png,0,0,0,155,155,155,,,,,,,,,,,,,100.82088810000005,0.020888100000050258,None,,139.69052079999983,139.69052079999983,139.69052079999983,139.69052079999983,139.69052079999983,139.69052079999983,139.69052079999983,139.69052079999983,002,P006,2025_Jan_25_1214,CategoryLocalizer,2021.2.3,59.93518608988652,
101.0,101.8,3,0.75,Stimuli\ImageFiles-Set2\Faces\Face_00008.png,0,0,0,156,156,156,,,,,,,,,,,,,101.00432430000001,0.004324300000007497,None,,139.8906965999995,139.8906965999995,139.8906965999995,139.8906965999995,139.8906965999995,139.8906965999995,139.8906965999995,139.8906965999995,002,P006,2025_Jan_25_1214,CategoryLocalizer,2021.2.3,59.93518608988652,
101.8,102.0,5,0.0,Stimuli\Blank.png,0,0,0,157,157,157,,,,,,,,,,,,,101.82208499999979,0.022084999999790966,5,0.15111439999964205,140.69140979999975,140.69140979999975,140.69140979999975,140.69140979999975,140.69140979999975,140.69140979999975,140.69140979999975,140.69140979999975,002,P006,2025_Jan_25_1214,CategoryLocalizer,2021.2.3,59.93518608988652,
102.0,102.8,3,0.75,Stimuli\ImageFiles-Set2\Faces\Face_00104.png,0,0,0,158,158,158,,,,,,,,,,,,,102.00572509999984,0.0057250999998359475,None,,140.8749068999996,140.8749068999996,140.8749068999996,140.8749068999996,140.8749068999996,140.8749068999996,140.8749068999996,140.8749068999996,002,P006,2025_Jan_25_1214,CategoryLocalizer,2021.2.3,59.93518608988652,
102.8,103.0,5,0.0,Stimuli\Blank.png,0,0,0,159,159,159,,,,,,,,,,,,,102.8057418999997,0.005741899999705424,None,,141.6756102999998,141.6756102999998,141.6756102999998,141.6756102999998,141.6756102999998,141.6756102999998,141.6756102999998,141.6756102999998,002,P006,2025_Jan_25_1214,CategoryLocalizer,2021.2.3,59.93518608988652,
103.0,103.8,3,0.75,Stimuli\ImageFiles-Set2\Faces\Face_00086.png,0,0,0,160,160,160,,,,,,,,,,,,,103.0062055999997,0.006205599999702827,None,,141.8924605000002,141.8924605000002,141.8924605000002,141.8924605000002,141.8924605000002,141.8924605000002,141.8924605000002,141.8924605000002,002,P006,2025_Jan_25_1214,CategoryLocalizer,2021.2.3,59.93518608988652,
103.8,104.0,5,0.0,Stimuli\Blank.png,0,0,0,161,161,161,,,,,,,,,,,,,103.82331520000025,0.023315200000254777,5,0.1492645000007542,142.69318359999943,142.69318359999943,142.69318359999943,142.69318359999943,142.69318359999943,142.69318359999943,142.69318359999943,142.69318359999943,002,P006,2025_Jan_25_1214,CategoryLocalizer,2021.2.3,59.93518608988652,
104.0,104.8,1,0.75,Stimuli\ImageFiles-Set2\Objects\Object_Boot_00001.png,0,0,0,162,162,162,,,,,,,,,,,,,104.00676360000034,0.006763600000340375,None,,142.8933632999997,142.8933632999997,142.8933632999997,142.8933632999997,142.8933632999997,142.8933632999997,142.8933632999997,142.8933632999997,002,P006,2025_Jan_25_1214,CategoryLocalizer,2021.2.3,59.93518608988652,
104.8,105.0,5,0.0,Stimuli\Blank.png,0,0,0,163,163,163,,,,,,,,,,,,,104.82447219999995,0.02447219999994843,None,,143.69405910000023,143.69405910000023,143.69405910000023,143.69405910000023,143.69405910000023,143.69405910000023,143.69405910000023,143.69405910000023,002,P006,2025_Jan_25_1214,CategoryLocalizer,2021.2.3,59.93518608988652,
105.0,105.8,1,0.75,Stimuli\ImageFiles-Set2\Objects\Object_Boot_00001.png,1,1,0,164,164,164,,,,,,,,,,,,,105.00818759999947,0.008187599999473605,1,0.4119228999998086,143.87755349999952,143.87755349999952,143.87755349999952,143.87755349999952,143.87755349999952,143.87755349999952,143.87755349999952,143.87755349999952,002,P006,2025_Jan_25_1214,CategoryLocalizer,2021.2.3,59.93518608988652,
105.8,106.0,5,0.0,Stimuli\Blank.png,0,0,0,165,165,165,,,,,,,,,,,,,105.80916439999964,0.009164399999647799,5,0.16429429999971035,144.6782536999999,144.6782536999999,144.6782536999999,144.6782536999999,144.6782536999999,144.6782536999999,144.6782536999999,144.6782536999999,002,P006,2025_Jan_25_1214,CategoryLocalizer,2021.2.3,59.93518608988652,
106.0,106.8,1,0.75,Stimuli\ImageFiles-Set2\Objects\Object_Dresser_00001.png,0,0,0,166,166,166,,,,,,,,,,,,,106.0087526999996,0.008752699999604374,None,,144.89514289999988,144.89514289999988,144.89514289999988,144.89514289999988,144.89514289999988,144.89514289999988,144.89514289999988,144.89514289999988,002,P006,2025_Jan_25_1214,CategoryLocalizer,2021.2.3,59.93518608988652,
106.8,107.0,5,0.0,Stimuli\Blank.png,0,0,0,167,167,167,,,,,,,,,,,,,106.82672559999992,0.026725599999920746,None,,145.6958254000001,145.6958254000001,145.6958254000001,145.6958254000001,145.6958254000001,145.6958254000001,145.6958254000001,145.6958254000001,002,P006,2025_Jan_25_1214,CategoryLocalizer,2021.2.3,59.93518608988652,
107.0,107.8,1,0.75,Stimuli\ImageFiles-Set2\Objects\Object_Desk_00001.png,0,0,0,168,168,168,,,,,,,,,,,,,107.01020940000035,0.010209400000348978,None,,145.89602370000011,145.89602370000011,145.89602370000011,145.89602370000011,145.89602370000011,145.89602370000011,145.89602370000011,145.89602370000011,002,P006,2025_Jan_25_1214,CategoryLocalizer,2021.2.3,59.93518608988652,
107.8,108.0,5,0.0,Stimuli\Blank.png,0,0,0,169,169,169,,,,,,,,,,,,,107.82949269999972,0.029492699999721594,5,0.12903000000005704,146.71340809999947,146.71340809999947,146.71340809999947,146.71340809999947,146.71340809999947,146.71340809999947,146.71340809999947,146.71340809999947,002,P006,2025_Jan_25_1214,CategoryLocalizer,2021.2.3,59.93518608988652,
108.0,108.8,1,0.75,Stimuli\ImageFiles-Set2\Objects\Object_WashingMachine_00001.png,0,0,0,170,170,170,,,,,,,,,,,,,108.02726509999957,0.02726509999956761,None,,146.91357530000005,146.91357530000005,146.91357530000005,146.91357530000005,146.91357530000005,146.91357530000005,146.91357530000005,146.91357530000005,002,P006,2025_Jan_25_1214,CategoryLocalizer,2021.2.3,59.93518608988652,
108.8,109.0,5,0.0,Stimuli\Blank.png,0,0,0,171,171,171,,,,,,,,,,,,,108.82979780000005,0.029797800000054053,None,,147.71427719999974,147.71427719999974,147.71427719999974,147.71427719999974,147.71427719999974,147.71427719999974,147.71427719999974,147.71427719999974,002,P006,2025_Jan_25_1214,CategoryLocalizer,2021.2.3,59.93518608988652,
109.0,109.8,1,0.75,Stimuli\ImageFiles-Set2\Objects\Object_Shoe_00001.png,0,0,0,172,172,172,,,,,,,,,,,,,109.03032470000016,0.03032470000016474,None,,147.9144566999994,147.9144566999994,147.9144566999994,147.9144566999994,147.9144566999994,147.9144566999994,147.9144566999994,147.9144566999994,002,P006,2025_Jan_25_1214,CategoryLocalizer,2021.2.3,59.93518608988652,
109.8,110.0,5,0.0,Stimuli\Blank.png,0,0,0,173,173,173,,,,,,,,,,,,,109.8299605000002,0.02996050000020034,5,0.14393660000041564,148.69848379999985,148.69848379999985,148.69848379999985,148.69848379999985,148.69848379999985,148.69848379999985,148.69848379999985,148.69848379999985,002,P006,2025_Jan_25_1214,CategoryLocalizer,2021.2.3,59.93518608988652,
110.0,110.8,1,0.75,Stimuli\ImageFiles-Set2\Objects\Object_Ladder_00001.png,0,0,0,174,174,174,,,,,,,,,,,,,110.01213370000005,0.01213370000004943,None,,148.8986616000002,148.8986616000002,148.8986616000002,148.8986616000002,148.8986616000002,148.8986616000002,148.8986616000002,148.8986616000002,002,P006,2025_Jan_25_1214,CategoryLocalizer,2021.2.3,59.93518608988652,
110.8,111.0,5,0.0,Stimuli\Blank.png,0,0,0,175,175,175,,,,,,,,,,,,,110.83043799999996,0.030437999999961107,None,,149.69936700000017,149.69936700000017,149.69936700000017,149.69936700000017,149.69936700000017,149.69936700000017,149.69936700000017,149.69936700000017,002,P006,2025_Jan_25_1214,CategoryLocalizer,2021.2.3,59.93518608988652,
111.0,111.8,1,0.75,Stimuli\ImageFiles-Set2\Objects\Object_Flashlight_00001.png,0,0,0,176,176,176,,,,,,,,,,,,,111.01590159999978,0.015901599999779137,None,,149.91624580000007,149.91624580000007,149.91624580000007,149.91624580000007,149.91624580000007,149.91624580000007,149.91624580000007,149.91624580000007,002,P006,2025_Jan_25_1214,CategoryLocalizer,2021.2.3,59.93518608988652,
111.8,112.0,5,0.0,Stimuli\Blank.png,0,0,0,177,177,177,,,,,,,,,,,,,111.83062109999992,0.030621099999919466,5,0.1423862999999983,150.7002451999997,150.7002451999997,150.7002451999997,150.7002451999997,150.7002451999997,150.7002451999997,150.7002451999997,150.7002451999997,002,P006,2025_Jan_25_1214,CategoryLocalizer,2021.2.3,59.93518608988652,
112.0,112.8,1,0.75,Stimuli\ImageFiles-Set2\Objects\Object_Pen_00001.png,0,0,0,178,178,178,,,,,,,,,,,,,112.01419970000006,0.014199700000062876,None,,150.90043929999956,150.90043929999956,150.90043929999956,150.90043929999956,150.90043929999956,150.90043929999956,150.90043929999956,150.90043929999956,002,P006,2025_Jan_25_1214,CategoryLocalizer,2021.2.3,59.93518608988652,
112.8,113.0,5,0.0,Stimuli\Blank.png,0,0,0,179,179,179,,,,,,,,,,,,,112.83188549999977,0.03188549999977397,None,,151.70112119999976,151.70112119999976,151.70112119999976,151.70112119999976,151.70112119999976,151.70112119999976,151.70112119999976,151.70112119999976,002,P006,2025_Jan_25_1214,CategoryLocalizer,2021.2.3,59.93518608988652,
113.0,113.8,1,0.75,Stimuli\ImageFiles-Set2\Objects\Object_Jar_00001.png,0,0,0,180,180,180,,,,,,,,,,,,,113.01530120000007,0.015301200000067183,None,,151.90131349999956,151.90131349999956,151.90131349999956,151.90131349999956,151.90131349999956,151.90131349999956,151.90131349999956,151.90131349999956,002,P006,2025_Jan_25_1214,CategoryLocalizer,2021.2.3,59.93518608988652,
113.8,114.0,5,0.0,Stimuli\Blank.png,0,0,0,181,181,181,,,,,,,,,,,,,113.81628,0.016280000000008954,None,,152.6853271,152.6853271,152.6853271,152.6853271,152.6853271,152.6853271,152.6853271,152.6853271,002,P006,2025_Jan_25_1214,CategoryLocalizer,2021.2.3,59.93518608988652,
114.0,114.8,1,0.75,Stimuli\ImageFiles-Set2\Objects\Object_Belt_00001.png,0,0,0,182,182,182,,,,,,,,,,,,,113.99980069999947,-0.0001993000005313661,None,,152.8855193999998,152.8855193999998,152.8855193999998,152.8855193999998,152.8855193999998,152.8855193999998,152.8855193999998,152.8855193999998,002,P006,2025_Jan_25_1214,CategoryLocalizer,2021.2.3,59.93518608988652,
114.8,115.0,5,0.0,Stimuli\Blank.png,0,0,0,183,183,183,,,,,,,,,,,,,114.81668269999955,0.0166826999995493,None,,153.68621379999968,153.68621379999968,153.68621379999968,153.68621379999968,153.68621379999968,153.68621379999968,153.68621379999968,153.68621379999968,002,P006,2025_Jan_25_1214,CategoryLocalizer,2021.2.3,59.93518608988652,
115.0,115.8,1,0.75,Stimuli\ImageFiles-Set2\Objects\Object_Coffee_00001.png,1,1,0,184,184,184,,,,,,,,,,,,,115.00070369999958,0.0007036999995762017,None,,153.90307440000015,153.90307440000015,153.90307440000015,153.90307440000015,153.90307440000015,153.90307440000015,153.90307440000015,153.90307440000015,002,P006,2025_Jan_25_1214,CategoryLocalizer,2021.2.3,59.93518608988652,
115.8,116.0,5,0.0,Stimuli\Blank.png,0,0,0,185,185,185,,,,,,,,,,,,,115.83523979999973,0.03523979999972937,None,,154.7037768,154.7037768,154.7037768,154.7037768,154.7037768,154.7037768,154.7037768,154.7037768,002,P006,2025_Jan_25_1214,CategoryLocalizer,2021.2.3,59.93518608988652,
116.0,116.8,1,0.75,Stimuli\ImageFiles-Set2\Objects\Object_Truck_00001.png,0,0,0,186,186,186,,,,,,,,,,,,,116.0013356999998,0.0013356999997995445,None,,154.8872741999994,154.8872741999994,154.8872741999994,154.8872741999994,154.8872741999994,154.8872741999994,154.8872741999994,154.8872741999994,002,P006,2025_Jan_25_1214,CategoryLocalizer,2021.2.3,59.93518608988652,
116.8,117.0,5,0.0,Stimuli\Blank.png,0,0,0,187,187,187,,,,,,,,,,,,,116.8200526999999,0.02005269999990844,None,,155.70465830000012,155.70465830000012,155.70465830000012,155.70465830000012,155.70465830000012,155.70465830000012,155.70465830000012,155.70465830000012,002,P006,2025_Jan_25_1214,CategoryLocalizer,2021.2.3,59.93518608988652,
117.0,117.8,1,0.75,Stimuli\ImageFiles-Set2\Objects\Object_Truck_00001.png,0,0,0,188,188,188,,,,,,,,,,,,,117.01926170000024,0.019261700000242854,1,0.43336959999942337,155.88816049999969,155.88816049999969,155.88816049999969,155.88816049999969,155.88816049999969,155.88816049999969,155.88816049999969,155.88816049999969,002,P006,2025_Jan_25_1214,CategoryLocalizer,2021.2.3,59.93518608988652,
117.8,118.0,5,0.0,Stimuli\Blank.png,0,0,0,189,189,189,,,,,,,,,,,,,117.8045259999999,0.004525999999899,5,0.15358580000065558,156.68887600000016,156.68887600000016,156.68887600000016,156.68887600000016,156.68887600000016,156.68887600000016,156.68887600000016,156.68887600000016,002,P006,2025_Jan_25_1214,CategoryLocalizer,2021.2.3,59.93518608988652,
118.0,118.8,1,0.75,Stimuli\ImageFiles-Set2\Objects\Object_Glass_00001.png,0,0,0,190,190,190,,,,,,,,,,,,,118.02059660000032,0.020596600000317267,None,,156.90571589999945,156.90571589999945,156.90571589999945,156.90571589999945,156.90571589999945,156.90571589999945,156.90571589999945,156.90571589999945,002,P006,2025_Jan_25_1214,CategoryLocalizer,2021.2.3,59.93518608988652,
118.8,119.0,5,0.0,Stimuli\Blank.png,0,0,0,191,191,191,,,,,,,,,,,,,118.82043199999953,0.020431999999530603,None,,157.68974830000025,157.68974830000025,157.68974830000025,157.68974830000025,157.68974830000025,157.68974830000025,157.68974830000025,157.68974830000025,002,P006,2025_Jan_25_1214,CategoryLocalizer,2021.2.3,59.93518608988652,
119.0,119.8,1,0.75,Stimuli\ImageFiles-Set2\Objects\Object_Couch_00001.png,0,0,0,192,192,192,,,,,,,,,,,,,119.00393520000034,0.003935200000341865,None,,157.88994509999975,157.88994509999975,157.88994509999975,157.88994509999975,157.88994509999975,157.88994509999975,157.88994509999975,157.88994509999975,002,P006,2025_Jan_25_1214,CategoryLocalizer,2021.2.3,59.93518608988652,
119.8,120.0,5,0.0,Stimuli\Blank.png,0,0,0,193,193,193,,,,,,,,,,,,,119.82111639999948,0.021116399999485225,None,,158.6906288,158.6906288,158.6906288,158.6906288,158.6906288,158.6906288,158.6906288,158.6906288,002,P006,2025_Jan_25_1214,CategoryLocalizer,2021.2.3,59.93518608988652,
120.0,120.8,4,0.75,Stimuli\ImageFiles-Set2\Scenes\Scenes_116.png,0,0,0,194,194,194,,,,,,,,,,,,,120.00453149999976,0.004531499999757216,None,,158.90748199999962,158.90748199999962,158.90748199999962,158.90748199999962,158.90748199999962,158.90748199999962,158.90748199999962,158.90748199999962,002,P006,2025_Jan_25_1214,CategoryLocalizer,2021.2.3,59.93518608988652,
120.8,121.0,5,0.0,Stimuli\Blank.png,0,0,0,195,195,195,,,,,,,,,,,,,120.83829369999967,0.03829369999967014,None,,159.70823800000016,159.70823800000016,159.70823800000016,159.70823800000016,159.70823800000016,159.70823800000016,159.70823800000016,159.70823800000016,002,P006,2025_Jan_25_1214,CategoryLocalizer,2021.2.3,59.93518608988652,
121.0,121.8,4,0.75,Stimuli\ImageFiles-Set2\Scenes\Scenes_088.png,0,0,0,196,196,196,,,,,,,,,,,,,121.00502520000009,0.00502520000009099,None,,159.89175369999975,159.89175369999975,159.89175369999975,159.89175369999975,159.89175369999975,159.89175369999975,159.89175369999975,159.89175369999975,002,P006,2025_Jan_25_1214,CategoryLocalizer,2021.2.3,59.93518608988652,
121.8,122.0,5,0.0,Stimuli\Blank.png,0,0,0,197,197,197,,,,,,,,,,,,,121.82461169999988,0.024611699999880443,5,0.1333652000002985,160.7090948999994,160.7090948999994,160.7090948999994,160.7090948999994,160.7090948999994,160.7090948999994,160.7090948999994,160.7090948999994,002,P006,2025_Jan_25_1214,CategoryLocalizer,2021.2.3,59.93518608988652,
122.0,122.8,4,0.75,Stimuli\ImageFiles-Set2\Scenes\Scenes_073.png,0,0,0,198,198,198,,,,,,,,,,,,,122.02338340000006,0.02338340000005701,None,,160.92593299999953,160.92593299999953,160.92593299999953,160.92593299999953,160.92593299999953,160.92593299999953,160.92593299999953,160.92593299999953,002,P006,2025_Jan_25_1214,CategoryLocalizer,2021.2.3,59.93518608988652,
122.8,123.0,5,0.0,Stimuli\Blank.png,0,0,0,199,199,199,,,,,,,,,,,,,122.84021909999956,0.04021909999956108,None,,161.70996469999955,161.70996469999955,161.70996469999955,161.70996469999955,161.70996469999955,161.70996469999955,161.70996469999955,161.70996469999955,002,P006,2025_Jan_25_1214,CategoryLocalizer,2021.2.3,59.93518608988652,
123.0,123.8,4,0.75,Stimuli\ImageFiles-Set2\Scenes\Scenes_066.png,0,0,0,200,200,200,,,,,,,,,,,,,123.00698050000028,0.006980500000281609,None,,161.89344299999993,161.89344299999993,161.89344299999993,161.89344299999993,161.89344299999993,161.89344299999993,161.89344299999993,161.89344299999993,002,P006,2025_Jan_25_1214,CategoryLocalizer,2021.2.3,59.93518608988652,
123.8,124.0,5,0.0,Stimuli\Blank.png,0,0,0,201,201,201,,,,,,,,,,,,,123.82499639999969,0.024996399999693608,5,0.14822199999980512,162.69417329999942,162.69417329999942,162.69417329999942,162.69417329999942,162.69417329999942,162.69417329999942,162.69417329999942,162.69417329999942,002,P006,2025_Jan_25_1214,CategoryLocalizer,2021.2.3,59.93518608988652,
124.0,124.8,4,0.75,Stimuli\ImageFiles-Set2\Scenes\Scenes_113.png,0,0,0,202,202,202,,,,,,,,,,,,,124.00993879999987,0.009938799999872572,None,,162.9110300000002,162.9110300000002,162.9110300000002,162.9110300000002,162.9110300000002,162.9110300000002,162.9110300000002,162.9110300000002,002,P006,2025_Jan_25_1214,CategoryLocalizer,2021.2.3,59.93518608988652,
124.8,125.0,5,0.0,Stimuli\Blank.png,0,0,0,203,203,203,,,,,,,,,,,,,124.8418286999995,0.04182869999949901,None,,163.7117472,163.7117472,163.7117472,163.7117472,163.7117472,163.7117472,163.7117472,163.7117472,002,P006,2025_Jan_25_1214,CategoryLocalizer,2021.2.3,59.93518608988652,
125.0,125.8,4,0.75,Stimuli\ImageFiles-Set2\Scenes\Scenes_113.png,1,1,0,204,204,204,,,,,,,,,,,,,125.01016939999954,0.010169399999540474,1,0.383206199999222,163.89521549999972,163.89521549999972,163.89521549999972,163.89521549999972,163.89521549999972,163.89521549999972,163.89521549999972,163.89521549999972,002,P006,2025_Jan_25_1214,CategoryLocalizer,2021.2.3,59.93518608988652,
125.8,126.0,5,0.0,Stimuli\Blank.png,0,0,0,205,205,205,,,,,,,,,,,,,125.82646740000018,0.026467400000186103,5,0.14662829999997484,164.6959022000001,164.6959022000001,164.6959022000001,164.6959022000001,164.6959022000001,164.6959022000001,164.6959022000001,164.6959022000001,002,P006,2025_Jan_25_1214,CategoryLocalizer,2021.2.3,59.93518608988652,
126.0,126.8,4,0.75,Stimuli\ImageFiles-Set2\Scenes\Scenes_085.png,0,0,0,206,206,206,,,,,,,,,,,,,126.01034100000015,0.010341000000153144,None,,164.89615279999998,164.89615279999998,164.89615279999998,164.89615279999998,164.89615279999998,164.89615279999998,164.89615279999998,164.89615279999998,002,P006,2025_Jan_25_1214,CategoryLocalizer,2021.2.3,59.93518608988652,
126.8,127.0,5,0.0,Stimuli\Blank.png,0,0,0,207,207,207,,,,,,,,,,,,,126.82950429999983,0.02950429999982873,None,,165.7134830999994,165.7134830999994,165.7134830999994,165.7134830999994,165.7134830999994,165.7134830999994,165.7134830999994,165.7134830999994,002,P006,2025_Jan_25_1214,CategoryLocalizer,2021.2.3,59.93518608988652,
127.0,127.8,4,0.75,Stimuli\ImageFiles-Set2\Scenes\Scenes_104.png,0,0,0,208,208,208,,,,,,,,,,,,,127.0273231000001,0.027323100000103295,None,,165.93037209999966,165.93037209999966,165.93037209999966,165.93037209999966,165.93037209999966,165.93037209999966,165.93037209999966,165.93037209999966,002,P006,2025_Jan_25_1214,CategoryLocalizer,2021.2.3,59.93518608988652,
127.8,128.0,5,0.0,Stimuli\Blank.png,0,0,0,209,209,209,,,,,,,,,,,,,127.84549309999966,0.04549309999966056,5,0.1281492000007347,166.71437909999986,166.71437909999986,166.71437909999986,166.71437909999986,166.71437909999986,166.71437909999986,166.71437909999986,166.71437909999986,002,P006,2025_Jan_25_1214,CategoryLocalizer,2021.2.3,59.93518608988652,
128.0,128.8,4,0.75,Stimuli\ImageFiles-Set2\Scenes\Scenes_061.png,0,0,0,210,210,210,,,,,,,,,,,,,128.0115036999996,0.011503699999593664,None,,166.89786540000023,166.89786540000023,166.89786540000023,166.89786540000023,166.89786540000023,166.89786540000023,166.89786540000023,166.89786540000023,002,P006,2025_Jan_25_1214,CategoryLocalizer,2021.2.3,59.93518608988652,
128.8,129.0,5,0.0,Stimuli\Blank.png,0,0,0,211,211,211,,,,,,,,,,,,,128.8294759999999,0.029475999999874603,None,,167.69858039999963,167.69858039999963,167.69858039999963,167.69858039999963,167.69858039999963,167.69858039999963,167.69858039999963,167.69858039999963,002,P006,2025_Jan_25_1214,CategoryLocalizer,2021.2.3,59.93518608988652,
129.0,129.8,4,0.75,Stimuli\ImageFiles-Set2\Scenes\Scenes_087.png,0,0,0,212,212,212,,,,,,,,,,,,,129.01458319999983,0.014583199999833596,None,,167.91542539999955,167.91542539999955,167.91542539999955,167.91542539999955,167.91542539999955,167.91542539999955,167.91542539999955,167.91542539999955,002,P006,2025_Jan_25_1214,CategoryLocalizer,2021.2.3,59.93518608988652,
129.8,130.0,5,0.0,Stimuli\Blank.png,0,0,0,213,213,213,,,,,,,,,,,,,129.8470811999996,0.04708119999958171,5,0.12628810000023805,168.71613400000024,168.71613400000024,168.71613400000024,168.71613400000024,168.71613400000024,168.71613400000024,168.71613400000024,168.71613400000024,002,P006,2025_Jan_25_1214,CategoryLocalizer,2021.2.3,59.93518608988652,
130.0,130.8,4,0.75,Stimuli\ImageFiles-Set2\Scenes\Scenes_114.png,0,0,0,214,214,214,,,,,,,,,,,,,130.01413299999967,0.014132999999674212,None,,168.8996787999995,168.8996787999995,168.8996787999995,168.8996787999995,168.8996787999995,168.8996787999995,168.8996787999995,168.8996787999995,002,P006,2025_Jan_25_1214,CategoryLocalizer,2021.2.3,59.93518608988652,
130.8,131.0,5,0.0,Stimuli\Blank.png,0,0,0,215,215,215,,,,,,,,,,,,,130.8309835,0.030983499999990727,None,,169.70033689999946,169.70033689999946,169.70033689999946,169.70033689999946,169.70033689999946,169.70033689999946,169.70033689999946,169.70033689999946,002,P006,2025_Jan_25_1214,CategoryLocalizer,2021.2.3,59.93518608988652,
131.0,131.8,4,0.75,Stimuli\ImageFiles-Set2\Scenes\Scenes_095.png,0,0,0,216,216,216,,,,,,,,,,,,,131.01498209999954,0.014982099999542697,None,,169.91720869999972,169.91720869999972,169.91720869999972,169.91720869999972,169.91720869999972,169.91720869999972,169.91720869999972,169.91720869999972,002,P006,2025_Jan_25_1214,CategoryLocalizer,2021.2.3,59.93518608988652,
131.8,132.0,5,0.0,Stimuli\Blank.png,0,0,0,217,217,217,,,,,,,,,,,,,131.8321229000003,0.03212290000027451,5,0.14106579999952373,170.70133129999977,170.70133129999977,170.70133129999977,170.70133129999977,170.70133129999977,170.70133129999977,170.70133129999977,170.70133129999977,002,P006,2025_Jan_25_1214,CategoryLocalizer,2021.2.3,59.93518608988652,
132.0,132.8,4,0.75,Stimuli\ImageFiles-Set2\Scenes\Scenes_076.png,0,0,0,218,218,218,,,,,,,,,,,,,132.01496529999986,0.014965299999857962,None,,170.91810480000004,170.91810480000004,170.91810480000004,170.91810480000004,170.91810480000004,170.91810480000004,170.91810480000004,170.91810480000004,002,P006,2025_Jan_25_1214,CategoryLocalizer,2021.2.3,59.93518608988652,
132.8,133.0,5,0.0,Stimuli\Blank.png,0,0,0,219,219,219,,,,,,,,,,,,,132.83466109999972,0.03466109999970968,None,,171.71879799999988,171.71879799999988,171.71879799999988,171.71879799999988,171.71879799999988,171.71879799999988,171.71879799999988,171.71879799999988,002,P006,2025_Jan_25_1214,CategoryLocalizer,2021.2.3,59.93518608988652,
133.0,133.8,4,0.75,Stimuli\ImageFiles-Set2\Scenes\Scenes_072.png,1,1,0,220,220,220,,,,,,,,,,,,,133.01639989999967,0.016399899999669287,None,,171.9023132000002,171.9023132000002,171.9023132000002,171.9023132000002,171.9023132000002,171.9023132000002,171.9023132000002,171.9023132000002,002,P006,2025_Jan_25_1214,CategoryLocalizer,2021.2.3,59.93518608988652,
133.8,134.0,5,0.0,Stimuli\Blank.png,0,0,0,221,221,221,,,,,,,,,,,,,133.81714250000005,0.017142500000034033,None,,172.68637919999946,172.68637919999946,172.68637919999946,172.68637919999946,172.68637919999946,172.68637919999946,172.68637919999946,172.68637919999946,002,P006,2025_Jan_25_1214,CategoryLocalizer,2021.2.3,59.93518608988652,
134.0,134.8,4,0.75,Stimuli\ImageFiles-Set2\Scenes\Scenes_075.png,0,0,0,222,222,222,,,,,,,,,,,,,133.9999410999999,-5.890000011277152e-05,None,,172.90314070000022,172.90314070000022,172.90314070000022,172.90314070000022,172.90314070000022,172.90314070000022,172.90314070000022,172.90314070000022,002,P006,2025_Jan_25_1214,CategoryLocalizer,2021.2.3,59.93518608988652,
134.8,135.0,5,0.0,Stimuli\Blank.png,0,0,0,223,223,223,,,,,,,,,,,,,134.83532370000012,0.03532370000010587,None,,173.70388269999967,173.70388269999967,173.70388269999967,173.70388269999967,173.70388269999967,173.70388269999967,173.70388269999967,173.70388269999967,002,P006,2025_Jan_25_1214,CategoryLocalizer,2021.2.3,59.93518608988652,
135.0,135.8,4,0.75,Stimuli\ImageFiles-Set2\Scenes\Scenes_075.png,0,0,0,224,224,224,,,,,,,,,,,,,135.00149599999986,0.001495999999860942,1,0.3906959000005372,173.87069389999942,173.87069389999942,173.87069389999942,173.87069389999942,173.87069389999942,173.87069389999942,173.87069389999942,173.87069389999942,002,P006,2025_Jan_25_1214,CategoryLocalizer,2021.2.3,59.93518608988652,
135.8,136.0,5,0.0,Stimuli\Blank.png,0,0,0,225,225,225,,,,,,,,,,,,,135.80229320000035,0.002293200000337947,None,,174.6713866,174.6713866,174.6713866,174.6713866,174.6713866,174.6713866,174.6713866,174.6713866,002,P006,2025_Jan_25_1214,CategoryLocalizer,2021.2.3,59.93518608988652,
136.0,136.8,2,0.75,Stimuli\ImageFiles-Set2\Bodies\Bodies_Kneeling_00004.png,0,0,0,226,226,226,,,,,,,,,,,,,136.00165730000026,0.001657300000260875,None,,174.88824680000016,174.88824680000016,174.88824680000016,174.88824680000016,174.88824680000016,174.88824680000016,174.88824680000016,174.88824680000016,002,P006,2025_Jan_25_1214,CategoryLocalizer,2021.2.3,59.93518608988652,
136.8,137.0,5,0.0,Stimuli\Blank.png,0,0,0,227,227,227,,,,,,,,,,,,,136.82038680000005,0.020386800000039784,None,,175.6889661999994,175.6889661999994,175.6889661999994,175.6889661999994,175.6889661999994,175.6889661999994,175.6889661999994,175.6889661999994,002,P006,2025_Jan_25_1214,CategoryLocalizer,2021.2.3,59.93518608988652,
137.0,137.8,2,0.75,Stimuli\ImageFiles-Set2\Bodies\Bodies_Hanging_00001.png,0,0,0,228,228,228,,,,,,,,,,,,,137.00515499999983,0.005154999999831489,None,,175.88915799999995,175.88915799999995,175.88915799999995,175.88915799999995,175.88915799999995,175.88915799999995,175.88915799999995,175.88915799999995,002,P006,2025_Jan_25_1214,CategoryLocalizer,2021.2.3,59.93518608988652,
137.8,138.0,5,0.0,Stimuli\Blank.png,0,0,0,229,229,229,,,,,,,,,,,,,137.82092899999952,0.020928999999512143,None,,176.68983860000026,176.68983860000026,176.68983860000026,176.68983860000026,176.68983860000026,176.68983860000026,176.68983860000026,176.68983860000026,002,P006,2025_Jan_25_1214,CategoryLocalizer,2021.2.3,59.93518608988652,
138.0,138.8,2,0.75,Stimuli\ImageFiles-Set2\Bodies\Bodies_QuadStretch_00006.png,0,0,0,230,230,230,,,,,,,,,,,,,138.0032510000001,0.003251000000091153,None,,176.89002919999984,176.89002919999984,176.89002919999984,176.89002919999984,176.89002919999984,176.89002919999984,176.89002919999984,176.89002919999984,002,P006,2025_Jan_25_1214,CategoryLocalizer,2021.2.3,59.93518608988652,
138.8,139.0,5,0.0,Stimuli\Blank.png,0,0,0,231,231,231,,,,,,,,,,,,,138.8211123000001,0.021112300000083906,None,,177.69072069999947,177.69072069999947,177.69072069999947,177.69072069999947,177.69072069999947,177.69072069999947,177.69072069999947,177.69072069999947,002,P006,2025_Jan_25_1214,CategoryLocalizer,2021.2.3,59.93518608988652,
139.0,139.8,2,0.75,Stimuli\ImageFiles-Set2\Bodies\Bodies_Walking_00005.png,0,0,0,232,232,232,,,,,,,,,,,,,139.0049055999998,0.00490559999980178,None,,177.89091039999948,177.89091039999948,177.89091039999948,177.89091039999948,177.89091039999948,177.89091039999948,177.89091039999948,177.89091039999948,002,P006,2025_Jan_25_1214,CategoryLocalizer,2021.2.3,59.93518608988652,
139.8,140.0,5,0.0,Stimuli\Blank.png,0,0,0,233,233,233,,,,,,,,,,,,,139.82424160000028,0.024241600000266317,5,0.13413339999988239,178.7083103999994,178.7083103999994,178.7083103999994,178.7083103999994,178.7083103999994,178.7083103999994,178.7083103999994,178.7083103999994,002,P006,2025_Jan_25_1214,CategoryLocalizer,2021.2.3,59.93518608988652,
140.0,140.8,2,0.75,Stimuli\ImageFiles-Set2\Bodies\Bodies_Kneeling_00006.png,0,0,0,234,234,234,,,,,,,,,,,,,140.02263870000024,0.02263870000024326,None,,178.90847489999942,178.90847489999942,178.90847489999942,178.90847489999942,178.90847489999942,178.90847489999942,178.90847489999942,178.90847489999942,002,P006,2025_Jan_25_1214,CategoryLocalizer,2021.2.3,59.93518608988652,
140.8,141.0,5,0.0,Stimuli\Blank.png,0,0,0,235,235,235,,,,,,,,,,,,,140.82319459999962,0.02319459999961282,None,,179.6924881999994,179.6924881999994,179.6924881999994,179.6924881999994,179.6924881999994,179.6924881999994,179.6924881999994,179.6924881999994,002,P006,2025_Jan_25_1214,CategoryLocalizer,2021.2.3,59.93518608988652,
141.0,141.8,2,0.75,Stimuli\ImageFiles-Set2\Bodies\Bodies_Lunging_00006.png,0,0,0,236,236,236,,,,,,,,,,,,,141.00682529999995,0.006825299999945855,None,,179.89270709999983,179.89270709999983,179.89270709999983,179.89270709999983,179.89270709999983,179.89270709999983,179.89270709999983,179.89270709999983,002,P006,2025_Jan_25_1214,CategoryLocalizer,2021.2.3,59.93518608988652,
141.8,142.0,5,0.0,Stimuli\Blank.png,0,0,0,237,237,237,,,,,,,,,,,,,141.8242355000002,0.024235500000202137,5,0.14897490000021207,180.69338319999952,180.69338319999952,180.69338319999952,180.69338319999952,180.69338319999952,180.69338319999952,180.69338319999952,180.69338319999952,002,P006,2025_Jan_25_1214,CategoryLocalizer,2021.2.3,59.93518608988652,
142.0,142.8,2,0.75,Stimuli\ImageFiles-Set2\Bodies\Bodies_Jumping_00001.png,0,0,0,238,238,238,,,,,,,,,,,,,142.00735470000018,0.007354700000178127,None,,180.89356750000024,180.89356750000024,180.89356750000024,180.89356750000024,180.89356750000024,180.89356750000024,180.89356750000024,180.89356750000024,002,P006,2025_Jan_25_1214,CategoryLocalizer,2021.2.3,59.93518608988652,
142.8,143.0,5,0.0,Stimuli\Blank.png,0,0,0,239,239,239,,,,,,,,,,,,,142.82500179999988,0.0250017999998704,None,,181.69425709999996,181.69425709999996,181.69425709999996,181.69425709999996,181.69425709999996,181.69425709999996,181.69425709999996,181.69425709999996,002,P006,2025_Jan_25_1214,CategoryLocalizer,2021.2.3,59.93518608988652,
143.0,143.8,2,0.75,Stimuli\ImageFiles-Set2\Bodies\Bodies_PushUp_00003.png,0,0,0,240,240,240,,,,,,,,,,,,,143.01019650000035,0.010196500000347442,None,,181.8944449999999,181.8944449999999,181.8944449999999,181.8944449999999,181.8944449999999,181.8944449999999,181.8944449999999,181.8944449999999,002,P006,2025_Jan_25_1214,CategoryLocalizer,2021.2.3,59.93518608988652,
143.8,144.0,5,0.0,Stimuli\Blank.png,0,0,0,241,241,241,,,,,,,,,,,,,143.82600339999954,0.02600339999952439,5,0.14739379999991797,182.69513610000013,182.69513610000013,182.69513610000013,182.69513610000013,182.69513610000013,182.69513610000013,182.69513610000013,182.69513610000013,002,P006,2025_Jan_25_1214,CategoryLocalizer,2021.2.3,59.93518608988652,
144.0,144.8,2,0.75,Stimuli\ImageFiles-Set2\Bodies\Bodies_Running_00007.png,0,0,0,242,242,242,,,,,,,,,,,,,144.0095411000002,0.009541100000205915,None,,182.89532999999938,182.89532999999938,182.89532999999938,182.89532999999938,182.89532999999938,182.89532999999938,182.89532999999938,182.89532999999938,002,P006,2025_Jan_25_1214,CategoryLocalizer,2021.2.3,59.93518608988652,
144.8,145.0,5,0.0,Stimuli\Blank.png,0,0,0,243,243,243,,,,,,,,,,,,,144.8268748999999,0.026874899999882018,None,,183.69602589999977,183.69602589999977,183.69602589999977,183.69602589999977,183.69602589999977,183.69602589999977,183.69602589999977,183.69602589999977,002,P006,2025_Jan_25_1214,CategoryLocalizer,2021.2.3,59.93518608988652,
145.0,145.8,2,0.75,Stimuli\ImageFiles-Set2\Bodies\Bodies_Kneeling_00002.png,0,0,0,244,244,244,,,,,,,,,,,,,145.01024249999955,0.010242499999549182,None,,183.8962105999999,183.8962105999999,183.8962105999999,183.8962105999999,183.8962105999999,183.8962105999999,183.8962105999999,183.8962105999999,002,P006,2025_Jan_25_1214,CategoryLocalizer,2021.2.3,59.93518608988652,
145.8,146.0,5,0.0,Stimuli\Blank.png,0,0,0,245,245,245,,,,,,,,,,,,,145.82964110000012,0.02964110000010578,5,0.12889159999940603,184.71360819999973,184.71360819999973,184.71360819999973,184.71360819999973,184.71360819999973,184.71360819999973,184.71360819999973,184.71360819999973,002,P006,2025_Jan_25_1214,CategoryLocalizer,2021.2.3,59.93518608988652,
146.0,146.8,2,0.75,Stimuli\ImageFiles-Set2\Bodies\Bodies_SittingFloor_00006.png,0,0,0,246,246,246,,,,,,,,,,,,,146.02933800000028,0.029338000000279862,None,,184.93044099999952,184.93044099999952,184.93044099999952,184.93044099999952,184.93044099999952,184.93044099999952,184.93044099999952,184.93044099999952,002,P006,2025_Jan_25_1214,CategoryLocalizer,2021.2.3,59.93518608988652,
146.8,147.0,5,0.0,Stimuli\Blank.png,0,0,0,247,247,247,,,,,,,,,,,,,146.84637999999995,0.046379999999942356,None,,185.7144989999997,185.7144989999997,185.7144989999997,185.7144989999997,185.7144989999997,185.7144989999997,185.7144989999997,185.7144989999997,002,P006,2025_Jan_25_1214,CategoryLocalizer,2021.2.3,59.93518608988652,
147.0,147.8,2,0.75,Stimuli\ImageFiles-Set2\Bodies\Bodies_SittingFloor_00006.png,1,1,0,248,248,248,,,,,,,,,,,,,147.01203689999966,0.01203689999965718,1,0.5861826000000292,185.88128849999976,185.88128849999976,185.88128849999976,185.88128849999976,185.88128849999976,185.88128849999976,185.88128849999976,185.88128849999976,002,P006,2025_Jan_25_1214,CategoryLocalizer,2021.2.3,59.93518608988652,
147.8,148.0,5,0.0,Stimuli\Blank.png,0,0,0,249,249,249,,,,,,,,,,,,,147.81471200000033,0.014712000000315584,5,0.14372199999979784,186.69869169999947,186.69869169999947,186.69869169999947,186.69869169999947,186.69869169999947,186.69869169999947,186.69869169999947,186.69869169999947,002,P006,2025_Jan_25_1214,CategoryLocalizer,2021.2.3,59.93518608988652,
148.0,148.8,2,0.75,Stimuli\ImageFiles-Set2\Bodies\Bodies_Pushing_00004.png,0,0,0,250,250,250,,,,,,,,,,,,,148.02929570000015,0.029295700000147917,None,,186.91551530000015,186.91551530000015,186.91551530000015,186.91551530000015,186.91551530000015,186.91551530000015,186.91551530000015,186.91551530000015,002,P006,2025_Jan_25_1214,CategoryLocalizer,2021.2.3,59.93518608988652,
148.8,149.0,5,0.0,Stimuli\Blank.png,0,0,0,251,251,251,,,,,,,,,,,,,148.8303487000003,0.030348700000274675,None,,187.6996240999997,187.6996240999997,187.6996240999997,187.6996240999997,187.6996240999997,187.6996240999997,187.6996240999997,187.6996240999997,002,P006,2025_Jan_25_1214,CategoryLocalizer,2021.2.3,59.93518608988652,
149.0,149.8,2,0.75,Stimuli\ImageFiles-Set2\Bodies\Bodies_Jumping_00005.png,0,0,0,252,252,252,,,,,,,,,,,,,149.0154483999995,0.01544839999951364,None,,187.89973850000024,187.89973850000024,187.89973850000024,187.89973850000024,187.89973850000024,187.89973850000024,187.89973850000024,187.89973850000024,002,P006,2025_Jan_25_1214,CategoryLocalizer,2021.2.3,59.93518608988652,
149.8,150.0,5,0.0,Stimuli\Blank.png,0,0,0,253,253,253,,,,,,,,,,,,,149.81511709999995,0.01511709999994082,5,0.15879039999981615,188.68377189999956,188.68377189999956,188.68377189999956,188.68377189999956,188.68377189999956,188.68377189999956,188.68377189999956,188.68377189999956,002,P006,2025_Jan_25_1214,CategoryLocalizer,2021.2.3,59.93518608988652,
150.0,150.8,2,0.75,Stimuli\ImageFiles-Set2\Bodies\Bodies_PushUp_00006.png,0,0,0,254,254,254,,,,,,,,,,,,,150.01402189999953,0.014021899999534071,None,,188.90063980000014,188.90063980000014,188.90063980000014,188.90063980000014,188.90063980000014,188.90063980000014,188.90063980000014,188.90063980000014,002,P006,2025_Jan_25_1214,CategoryLocalizer,2021.2.3,59.93518608988652,
150.8,151.0,5,0.0,Stimuli\Blank.png,0,0,0,255,255,255,,,,,,,,,,,,,150.83287539999947,0.03287539999945466,None,,189.70134150000013,189.70134150000013,189.70134150000013,189.70134150000013,189.70134150000013,189.70134150000013,189.70134150000013,189.70134150000013,002,P006,2025_Jan_25_1214,CategoryLocalizer,2021.2.3,59.93518608988652,
151.0,151.8,2,0.75,Stimuli\ImageFiles-Set2\Bodies\Bodies_Pushing_00002.png,0,0,0,256,256,256,,,,,,,,,,,,,150.99939220000033,-0.000607799999670533,None,,189.88488599999982,189.88488599999982,189.88488599999982,189.88488599999982,189.88488599999982,189.88488599999982,189.88488599999982,189.88488599999982,002,P006,2025_Jan_25_1214,CategoryLocalizer,2021.2.3,59.93518608988652,
151.8,152.0,5,0.0,Stimuli\Blank.png,0,0,0,257,257,257,,,,,,,,,,,,,151.8157670999999,0.015767099999891343,None,,190.68552660000023,190.68552660000023,190.68552660000023,190.68552660000023,190.68552660000023,190.68552660000023,190.68552660000023,190.68552660000023,002,P006,2025_Jan_25_1214,CategoryLocalizer,2021.2.3,59.93518608988652,
152.0,164.0,0,0.0,Stimuli\Blank.png,0,0,0,258,258,258,,,,,,,,,,,,,151.99921220000033,-0.000787799999670824,5,11.973465200000646,190.86902269999973,190.86902269999973,190.86902269999973,190.86902269999973,190.86902269999973,190.86902269999973,190.86902269999973,190.86902269999973,002,P006,2025_Jan_25_1214,CategoryLocalizer,2021.2.3,59.93518608988652,
164.0,164.8,4,0.75,Stimuli\ImageFiles-Set2\Scenes\Scenes_106.png,0,0,0,259,259,259,,,,,,,,,,,,,164.0099110000001,0.009911000000101922,None,,202.89629590000004,202.89629590000004,202.89629590000004,202.89629590000004,202.89629590000004,202.89629590000004,202.89629590000004,202.89629590000004,002,P006,2025_Jan_25_1214,CategoryLocalizer,2021.2.3,59.93518608988652,
164.8,165.0,5,0.0,Stimuli\Blank.png,0,0,0,260,260,260,,,,,,,,,,,,,164.82948579999993,0.029485799999918072,None,,203.71371350000027,203.71371350000027,203.71371350000027,203.71371350000027,203.71371350000027,203.71371350000027,203.71371350000027,203.71371350000027,002,P006,2025_Jan_25_1214,CategoryLocalizer,2021.2.3,59.93518608988652,
165.0,165.8,4,0.75,Stimuli\ImageFiles-Set2\Scenes\Scenes_107.png,0,0,0,261,261,261,,,,,,,,,,,,,165.02719950000028,0.02719950000027893,None,,203.91387919999943,203.91387919999943,203.91387919999943,203.91387919999943,203.91387919999943,203.91387919999943,203.91387919999943,203.91387919999943,002,P006,2025_Jan_25_1214,CategoryLocalizer,2021.2.3,59.93518608988652,
165.8,166.0,5,0.0,Stimuli\Blank.png,0,0,0,262,262,262,,,,,,,,,,,,,165.83030189999954,0.030301899999528814,5,0.12789760000032402,204.71457939999982,204.71457939999982,204.71457939999982,204.71457939999982,204.71457939999982,204.71457939999982,204.71457939999982,204.71457939999982,002,P006,2025_Jan_25_1214,CategoryLocalizer,2021.2.3,59.93518608988652,
166.0,166.8,4,0.75,Stimuli\ImageFiles-Set2\Scenes\Scenes_120.png,0,0,0,263,263,263,,,,,,,,,,,,,166.02875029999996,0.02875029999995604,None,,204.9314433999998,204.9314433999998,204.9314433999998,204.9314433999998,204.9314433999998,204.9314433999998,204.9314433999998,204.9314433999998,002,P006,2025_Jan_25_1214,CategoryLocalizer,2021.2.3,59.93518608988652,
166.8,167.0,5,0.0,Stimuli\Blank.png,0,0,0,264,264,264,,,,,,,,,,,,,166.8457860999997,0.0457860999997024,None,,205.71563069999956,205.71563069999956,205.71563069999956,205.71563069999956,205.71563069999956,205.71563069999956,205.71563069999956,205.71563069999956,002,P006,2025_Jan_25_1214,CategoryLocalizer,2021.2.3,59.93518608988652,
167.0,167.8,4,0.75,Stimuli\ImageFiles-Set2\Scenes\Scenes_080.png,0,0,0,265,265,265,,,,,,,,,,,,,167.0132211,0.013221100000009756,None,,205.91563609999957,205.91563609999957,205.91563609999957,205.91563609999957,205.91563609999957,205.91563609999957,205.91563609999957,205.91563609999957,002,P006,2025_Jan_25_1214,CategoryLocalizer,2021.2.3,59.93518608988652,
167.8,168.0,5,0.0,Stimuli\Blank.png,0,0,0,266,266,266,,,,,,,,,,,,,167.84704799999963,0.04704799999962006,5,0.12619810000069265,206.7163369,206.7163369,206.7163369,206.7163369,206.7163369,206.7163369,206.7163369,206.7163369,002,P006,2025_Jan_25_1214,CategoryLocalizer,2021.2.3,59.93518608988652,
168.0,168.8,4,0.75,Stimuli\ImageFiles-Set2\Scenes\Scenes_070.png,0,0,0,267,267,267,,,,,,,,,,,,,168.01419540000006,0.014195400000062364,None,,206.91651509999974,206.91651509999974,206.91651509999974,206.91651509999974,206.91651509999974,206.91651509999974,206.91651509999974,206.91651509999974,002,P006,2025_Jan_25_1214,CategoryLocalizer,2021.2.3,59.93518608988652,
168.8,169.0,5,0.0,Stimuli\Blank.png,0,0,0,268,268,268,,,,,,,,,,,,,168.84923780000008,0.049237800000071275,None,,207.73392429999967,207.73392429999967,207.73392429999967,207.73392429999967,207.73392429999967,207.73392429999967,207.73392429999967,207.73392429999967,002,P006,2025_Jan_25_1214,CategoryLocalizer,2021.2.3,59.93518608988652,
169.0,169.8,4,0.75,Stimuli\ImageFiles-Set2\Scenes\Scenes_070.png,1,1,0,269,269,269,,,,,,,,,,,,,169.0142152999997,0.014215299999705167,1,0.47261020000041754,207.88403349999953,207.88403349999953,207.88403349999953,207.88403349999953,207.88403349999953,207.88403349999953,207.88403349999953,207.88403349999953,002,P006,2025_Jan_25_1214,CategoryLocalizer,2021.2.3,59.93518608988652,
169.8,170.0,5,0.0,Stimuli\Blank.png,0,0,0,270,270,270,,,,,,,,,,,,,169.81518229999983,0.01518229999982168,5,0.1580260000000635,208.6847501000002,208.6847501000002,208.6847501000002,208.6847501000002,208.6847501000002,208.6847501000002,208.6847501000002,208.6847501000002,002,P006,2025_Jan_25_1214,CategoryLocalizer,2021.2.3,59.93518608988652,
170.0,170.8,4,0.75,Stimuli\ImageFiles-Set2\Scenes\Scenes_094.png,0,0,0,271,271,271,,,,,,,,,,,,,170.01559420000012,0.015594200000123237,None,,208.91832299999987,208.91832299999987,208.91832299999987,208.91832299999987,208.91832299999987,208.91832299999987,208.91832299999987,208.91832299999987,002,P006,2025_Jan_25_1214,CategoryLocalizer,2021.2.3,59.93518608988652,
170.8,171.0,5,0.0,Stimuli\Blank.png,0,0,0,272,272,272,,,,,,,,,,,,,170.83416549999947,0.03416549999946028,None,,209.71898760000022,209.71898760000022,209.71898760000022,209.71898760000022,209.71898760000022,209.71898760000022,209.71898760000022,209.71898760000022,002,P006,2025_Jan_25_1214,CategoryLocalizer,2021.2.3,59.93518608988652,
171.0,171.8,4,0.75,Stimuli\ImageFiles-Set2\Scenes\Scenes_110.png,0,0,0,273,273,273,,,,,,,,,,,,,171.0159205,0.0159204999999929,None,,209.91922629999954,209.91922629999954,209.91922629999954,209.91922629999954,209.91922629999954,209.91922629999954,209.91922629999954,209.91922629999954,002,P006,2025_Jan_25_1214,CategoryLocalizer,2021.2.3,59.93518608988652,
171.8,172.0,5,0.0,Stimuli\Blank.png,0,0,0,274,274,274,,,,,,,,,,,,,171.8336744999997,0.033674499999676755,None,,210.70321689999946,210.70321689999946,210.70321689999946,210.70321689999946,210.70321689999946,210.70321689999946,210.70321689999946,210.70321689999946,002,P006,2025_Jan_25_1214,CategoryLocalizer,2021.2.3,59.93518608988652,
172.0,172.8,4,0.75,Stimuli\ImageFiles-Set2\Scenes\Scenes_111.png,0,0,0,275,275,275,,,,,,,,,,,,,172.00045339999997,0.00045339999996940605,None,,210.88669570000002,210.88669570000002,210.88669570000002,210.88669570000002,210.88669570000002,210.88669570000002,210.88669570000002,210.88669570000002,002,P006,2025_Jan_25_1214,CategoryLocalizer,2021.2.3,59.93518608988652,
172.8,173.0,5,0.0,Stimuli\Blank.png,0,0,0,276,276,276,,,,,,,,,,,,,172.81936940000014,0.0193694000001301,None,,211.70407929999965,211.70407929999965,211.70407929999965,211.70407929999965,211.70407929999965,211.70407929999965,211.70407929999965,211.70407929999965,002,P006,2025_Jan_25_1214,CategoryLocalizer,2021.2.3,59.93518608988652,
173.0,173.8,4,0.75,Stimuli\ImageFiles-Set2\Scenes\Scenes_079.png,0,0,0,277,277,277,,,,,,,,,,,,,173.01812510000036,0.01812510000036127,None,,211.9042572999997,211.9042572999997,211.9042572999997,211.9042572999997,211.9042572999997,211.9042572999997,211.9042572999997,211.9042572999997,002,P006,2025_Jan_25_1214,CategoryLocalizer,2021.2.3,59.93518608988652,
173.8,174.0,5,0.0,Stimuli\Blank.png,0,0,0,278,278,278,,,,,,,,,,,,,173.81909840000026,0.019098400000245874,None,,212.68827199999942,212.68827199999942,212.68827199999942,212.68827199999942,212.68827199999942,212.68827199999942,212.68827199999942,212.68827199999942,002,P006,2025_Jan_25_1214,CategoryLocalizer,2021.2.3,59.93518608988652,
174.0,174.8,4,0.75,Stimuli\ImageFiles-Set2\Scenes\Scenes_109.png,0,0,0,279,279,279,,,,,,,,,,,,,174.00218810000024,0.0021881000002395012,None,,212.88844739999968,212.88844739999968,212.88844739999968,212.88844739999968,212.88844739999968,212.88844739999968,212.88844739999968,212.88844739999968,002,P006,2025_Jan_25_1214,CategoryLocalizer,2021.2.3,59.93518608988652,
174.8,175.0,5,0.0,Stimuli\Blank.png,0,0,0,280,280,280,,,,,,,,,,,,,174.8203653999999,0.020365399999889178,None,,213.6891614999995,213.6891614999995,213.6891614999995,213.6891614999995,213.6891614999995,213.6891614999995,213.6891614999995,213.6891614999995,002,P006,2025_Jan_25_1214,CategoryLocalizer,2021.2.3,59.93518608988652,
175.0,175.8,4,0.75,Stimuli\ImageFiles-Set2\Scenes\Scenes_069.png,0,0,0,281,281,281,,,,,,,,,,,,,175.00511189999997,0.005111899999974412,None,,213.90604449999955,213.90604449999955,213.90604449999955,213.90604449999955,213.90604449999955,213.90604449999955,213.90604449999955,213.90604449999955,002,P006,2025_Jan_25_1214,CategoryLocalizer,2021.2.3,59.93518608988652,
175.8,176.0,5,0.0,Stimuli\Blank.png,0,0,0,282,282,282,,,,,,,,,,,,,175.8392004999996,0.03920049999959474,5,0.11922899999990477,214.7234085,214.7234085,214.7234085,214.7234085,214.7234085,214.7234085,214.7234085,214.7234085,002,P006,2025_Jan_25_1214,CategoryLocalizer,2021.2.3,59.93518608988652,
176.0,176.8,4,0.75,Stimuli\ImageFiles-Set2\Scenes\Scenes_068.png,0,0,0,283,283,283,,,,,,,,,,,,,176.0207449999998,0.02074499999980617,None,,214.9235953999996,214.9235953999996,214.9235953999996,214.9235953999996,214.9235953999996,214.9235953999996,214.9235953999996,214.9235953999996,002,P006,2025_Jan_25_1214,CategoryLocalizer,2021.2.3,59.93518608988652,
