eventStartTime,eventEndTime,eventCond,imSize,imFile,repeatedImage,responseEvent,Events.thisRepN,Events.thisTrialN,Events.thisN,Events.thisIndex,Instructions.started,Instructions.stopped,participantReadyResponse.keys,participantReadyResponse.rt,participantReadyResponse.started,participantReadyResponse.stopped,startWaitforTrigger,triggerResponse.keys,triggerResponse.rt,triggerResponse.started,triggerResponse.stopped,globalTimer,actualStartTime,startTimingDiff,participantResponse.keys,participantResponse.started,participantResponse.stopped,image.started,image.stopped,fixationOutside.started,fixationOutside.stopped,fixationInside.started,fixationInside.stopped,participantResponse.rt,session,participant,date,expName,psychopyVersion,frameRate,
,,,,,,,,,,,13.519904400000087,None,2,8.188890100000208,13.519904400000087,None,,,,,,,,,,,,,,,,,,,002,P007,2025_Feb_01_1018,CategoryLocalizer,2021.2.3,59.944491400707825,
,,,,,,,,,,,,,,,,,21.723974699999417,5,14.441791500000363,21.736931200000072,None,,,,,,,,,,,,,,002,P007,2025_Feb_01_1018,CategoryLocalizer,2021.2.3,59.944491400707825,
0.0,12.0,0,0.0,Stimuli\Blank.png,0,0,0,0,0,0,,,,,,,,,,,,36.186326399999416,0.029383499999312335,0.029383499999312335,None,36.23309109999991,None,36.23309109999991,None,36.23309109999991,None,36.23309109999991,None,,002,P007,2025_Feb_01_1018,CategoryLocalizer,2021.2.3,59.944491400707825,
12.0,12.8,1,0.75,Stimuli\ImageFiles-Set2\Objects\Object_Hamburger_00001.png,0,0,0,1,1,1,,,,,,,,,,,,,12.011124599999675,0.01112459999967541,None,48.22701179999967,48.22701179999967,48.22701179999967,48.22701179999967,48.22701179999967,48.22701179999967,48.22701179999967,48.22701179999967,,002,P007,2025_Feb_01_1018,CategoryLocalizer,2021.2.3,59.944491400707825,
12.8,13.0,5,0.0,Stimuli\Blank.png,0,0,0,2,2,2,,,,,,,,,,,,,12.828190399999585,0.02819039999958406,None,49.02769989999979,49.02769989999979,49.02769989999979,49.02769989999979,49.02769989999979,49.02769989999979,49.02769989999979,49.02769989999979,,002,P007,2025_Feb_01_1018,CategoryLocalizer,2021.2.3,59.944491400707825,
13.0,13.8,1,0.75,Stimuli\ImageFiles-Set2\Objects\Object_Pepper_00001.png,0,0,0,3,3,3,,,,,,,,,,,,,13.010689099999581,0.01068909999958123,None,49.22788929999933,49.22788929999933,49.22788929999933,49.22788929999933,49.22788929999933,49.22788929999933,49.22788929999933,49.22788929999933,,002,P007,2025_Feb_01_1018,CategoryLocalizer,2021.2.3,59.944491400707825,
13.8,14.0,5,0.0,Stimuli\Blank.png,0,0,0,4,4,4,,,,,,,,,,,,,13.827626799999962,0.027626799999961094,None,50.02858079999987,50.02858079999987,50.02858079999987,50.02858079999987,50.02858079999987,50.02858079999987,50.02858079999987,50.02858079999987,,002,P007,2025_Feb_01_1018,CategoryLocalizer,2021.2.3,59.944491400707825,
14.0,14.8,1,0.75,Stimuli\ImageFiles-Set2\Objects\Object_Belt_00001.png,0,0,0,5,5,5,,,,,,,,,,,,,14.011413499999435,0.011413499999434862,None,50.22878009999931,50.22878009999931,50.22878009999931,50.22878009999931,50.22878009999931,50.22878009999931,50.22878009999931,50.22878009999931,,002,P007,2025_Feb_01_1018,CategoryLocalizer,2021.2.3,59.944491400707825,
14.8,15.0,5,0.0,Stimuli\Blank.png,0,0,0,6,6,6,,,,,,,,,,,,,14.829514000000017,0.029514000000016694,None,51.02947159999985,51.02947159999985,51.02947159999985,51.02947159999985,51.02947159999985,51.02947159999985,51.02947159999985,51.02947159999985,,002,P007,2025_Feb_01_1018,CategoryLocalizer,2021.2.3,59.944491400707825,
15.0,15.8,1,0.75,Stimuli\ImageFiles-Set2\Objects\Object_Truck_00001.png,0,0,0,7,7,7,,,,,,,,,,,,,15.012999399999899,0.012999399999898742,None,51.229746399999385,51.229746399999385,51.229746399999385,51.229746399999385,51.229746399999385,51.229746399999385,51.229746399999385,51.229746399999385,,002,P007,2025_Feb_01_1018,CategoryLocalizer,2021.2.3,59.944491400707825,
15.8,16.0,5,0.0,Stimuli\Blank.png,0,0,0,8,8,8,,,,,,,,,,,,,15.829283099999884,0.029283099999883433,None,52.03034729999945,52.03034729999945,52.03034729999945,52.03034729999945,52.03034729999945,52.03034729999945,52.03034729999945,52.03034729999945,,002,P007,2025_Feb_01_1018,CategoryLocalizer,2021.2.3,59.944491400707825,
16.0,16.8,1,0.75,Stimuli\ImageFiles-Set2\Objects\Object_Plate_00001.png,0,0,0,9,9,9,,,,,,,,,,,,,16.01337539999986,0.013375399999858928,None,52.230596599999444,52.230596599999444,52.230596599999444,52.230596599999444,52.230596599999444,52.230596599999444,52.230596599999444,52.230596599999444,,002,P007,2025_Feb_01_1018,CategoryLocalizer,2021.2.3,59.944491400707825,
16.8,17.0,5,0.0,Stimuli\Blank.png,0,0,0,10,10,10,,,,,,,,,,,,,16.833065399999214,0.033065399999212985,None,53.04792759999964,53.04792759999964,53.04792759999964,53.04792759999964,53.04792759999964,53.04792759999964,53.04792759999964,53.04792759999964,,002,P007,2025_Feb_01_1018,CategoryLocalizer,2021.2.3,59.944491400707825,
17.0,17.8,1,0.75,Stimuli\ImageFiles-Set2\Objects\Object_Car_00001.png,0,0,0,11,11,11,,,,,,,,,,,,,17.01482820000001,0.014828200000010838,None,53.23141349999969,53.23141349999969,53.23141349999969,53.23141349999969,53.23141349999969,53.23141349999969,53.23141349999969,53.23141349999969,,002,P007,2025_Feb_01_1018,CategoryLocalizer,2021.2.3,59.944491400707825,
17.8,18.0,5,0.0,Stimuli\Blank.png,0,0,0,12,12,12,,,,,,,,,,,,,17.831152499999916,0.03115249999991576,None,54.03217569999924,54.03217569999924,54.03217569999924,54.03217569999924,54.03217569999924,54.03217569999924,54.03217569999924,54.03217569999924,,002,P007,2025_Feb_01_1018,CategoryLocalizer,2021.2.3,59.944491400707825,
18.0,18.8,1,0.75,Stimuli\ImageFiles-Set2\Objects\Object_Paper_00001.png,0,0,0,13,13,13,,,,,,,,,,,,,18.015216799999507,0.015216799999507202,None,54.23230969999986,54.23230969999986,54.23230969999986,54.23230969999986,54.23230969999986,54.23230969999986,54.23230969999986,54.23230969999986,,002,P007,2025_Feb_01_1018,CategoryLocalizer,2021.2.3,59.944491400707825,
18.8,19.0,5,0.0,Stimuli\Blank.png,0,0,0,14,14,14,,,,,,,,,,,,,18.817718199999945,0.017718199999944062,None,55.03303799999958,55.03303799999958,55.03303799999958,55.03303799999958,55.03303799999958,55.03303799999958,55.03303799999958,55.03303799999958,,002,P007,2025_Feb_01_1018,CategoryLocalizer,2021.2.3,59.944491400707825,
19.0,19.8,1,0.75,Stimuli\ImageFiles-Set2\Objects\Object_Microphone_00001.png,0,0,0,15,15,15,,,,,,,,,,,,,19.016114899999593,0.016114899999593035,None,55.23318569999992,55.23318569999992,55.23318569999992,55.23318569999992,55.23318569999992,55.23318569999992,55.23318569999992,55.23318569999992,,002,P007,2025_Feb_01_1018,CategoryLocalizer,2021.2.3,59.944491400707825,
19.8,20.0,5,0.0,Stimuli\Blank.png,0,0,0,16,16,16,,,,,,,,,,,,,19.816802899999857,0.01680289999985618,None,56.01720889999979,56.01720889999979,56.01720889999979,56.01720889999979,56.01720889999979,56.01720889999979,56.01720889999979,56.01720889999979,,002,P007,2025_Feb_01_1018,CategoryLocalizer,2021.2.3,59.944491400707825,
20.0,20.8,1,0.75,Stimuli\ImageFiles-Set2\Objects\Object_Walker_00001.png,0,0,0,17,17,17,,,,,,,,,,,,,20.00169239999923,0.0016923999992286554,None,56.234040399999685,56.234040399999685,56.234040399999685,56.234040399999685,56.234040399999685,56.234040399999685,56.234040399999685,56.234040399999685,,002,P007,2025_Feb_01_1018,CategoryLocalizer,2021.2.3,59.944491400707825,
20.8,21.0,5,0.0,Stimuli\Blank.png,0,0,0,18,18,18,,,,,,,,,,,,,20.83432289999928,0.03432289999927818,None,57.03477579999981,57.03477579999981,57.03477579999981,57.03477579999981,57.03477579999981,57.03477579999981,57.03477579999981,57.03477579999981,,002,P007,2025_Feb_01_1018,CategoryLocalizer,2021.2.3,59.944491400707825,
21.0,21.8,1,0.75,Stimuli\ImageFiles-Set2\Objects\Object_Tape_00001.png,0,0,0,19,19,19,,,,,,,,,,,,,21.001496599999882,0.0014965999998821644,None,57.21829660000003,57.21829660000003,57.21829660000003,57.21829660000003,57.21829660000003,57.21829660000003,57.21829660000003,57.21829660000003,,002,P007,2025_Feb_01_1018,CategoryLocalizer,2021.2.3,59.944491400707825,
21.8,22.0,5,0.0,Stimuli\Blank.png,0,0,0,20,20,20,,,,,,,,,,,,,21.81888589999926,0.01888589999925827,None,58.01898600000004,58.01898600000004,58.01898600000004,58.01898600000004,58.01898600000004,58.01898600000004,58.01898600000004,58.01898600000004,,002,P007,2025_Feb_01_1018,CategoryLocalizer,2021.2.3,59.944491400707825,
22.0,22.8,1,0.75,Stimuli\ImageFiles-Set2\Objects\Object_Mug_00001.png,0,0,0,21,21,21,,,,,,,,,,,,,22.00201500000003,0.0020150000000285218,None,58.23586869999963,58.23586869999963,58.23586869999963,58.23586869999963,58.23586869999963,58.23586869999963,58.23586869999963,58.23586869999963,,002,P007,2025_Feb_01_1018,CategoryLocalizer,2021.2.3,59.944491400707825,
22.8,23.0,5,0.0,Stimuli\Blank.png,0,0,0,22,22,22,,,,,,,,,,,,,22.836127999999917,0.03612799999991623,None,59.0365654999996,59.0365654999996,59.0365654999996,59.0365654999996,59.0365654999996,59.0365654999996,59.0365654999996,59.0365654999996,,002,P007,2025_Feb_01_1018,CategoryLocalizer,2021.2.3,59.944491400707825,
23.0,23.8,1,0.75,Stimuli\ImageFiles-Set2\Objects\Object_Dresser_00001.png,0,0,0,23,23,23,,,,,,,,,,,,,23.002485899999556,0.0024858999995558406,None,59.22006309999961,59.22006309999961,59.22006309999961,59.22006309999961,59.22006309999961,59.22006309999961,59.22006309999961,59.22006309999961,,002,P007,2025_Feb_01_1018,CategoryLocalizer,2021.2.3,59.944491400707825,
23.8,24.0,5,0.0,Stimuli\Blank.png,0,0,0,24,24,24,,,,,,,,,,,,,23.82153719999951,0.021537199999510648,None,60.03745269999945,60.03745269999945,60.03745269999945,60.03745269999945,60.03745269999945,60.03745269999945,60.03745269999945,60.03745269999945,,002,P007,2025_Feb_01_1018,CategoryLocalizer,2021.2.3,59.944491400707825,
24.0,24.8,1,0.75,Stimuli\ImageFiles-Set2\Objects\Object_Dresser_00001.png,1,1,0,25,25,25,,,,,,,,,,,,,24.020758299999216,0.020758299999215524,2,60.220939499999986,60.220939499999986,60.220939499999986,60.220939499999986,60.220939499999986,60.220939499999986,60.220939499999986,60.220939499999986,0.3201953000007052,002,P007,2025_Feb_01_1018,CategoryLocalizer,2021.2.3,59.944491400707825,
24.8,25.0,5,0.0,Stimuli\Blank.png,0,0,0,26,26,26,,,,,,,,,,,,,24.804696700000022,0.004696700000021536,None,61.00503279999975,61.00503279999975,61.00503279999975,61.00503279999975,61.00503279999975,61.00503279999975,61.00503279999975,61.00503279999975,,002,P007,2025_Feb_01_1018,CategoryLocalizer,2021.2.3,59.944491400707825,
25.0,25.8,1,0.75,Stimuli\ImageFiles-Set2\Objects\Object_Strawberry_00001.png,0,0,0,27,27,27,,,,,,,,,,,,,25.00649059999978,0.006490599999779079,None,61.22182220000013,61.22182220000013,61.22182220000013,61.22182220000013,61.22182220000013,61.22182220000013,61.22182220000013,61.22182220000013,,002,P007,2025_Feb_01_1018,CategoryLocalizer,2021.2.3,59.944491400707825,
25.8,26.0,5,0.0,Stimuli\Blank.png,0,0,0,28,28,28,,,,,,,,,,,,,25.82290859999921,0.02290859999920869,None,62.02253209999981,62.02253209999981,62.02253209999981,62.02253209999981,62.02253209999981,62.02253209999981,62.02253209999981,62.02253209999981,,002,P007,2025_Feb_01_1018,CategoryLocalizer,2021.2.3,59.944491400707825,
26.0,26.8,1,0.75,Stimuli\ImageFiles-Set2\Objects\Object_Pin_00001.png,0,0,0,29,29,29,,,,,,,,,,,,,26.00585449999926,0.005854499999259133,None,62.222704599999815,62.222704599999815,62.222704599999815,62.222704599999815,62.222704599999815,62.222704599999815,62.222704599999815,62.222704599999815,,002,P007,2025_Feb_01_1018,CategoryLocalizer,2021.2.3,59.944491400707825,
26.8,27.0,5,0.0,Stimuli\Blank.png,0,0,0,30,30,30,,,,,,,,,,,,,26.822298000000046,0.022298000000045448,None,63.02341979999983,63.02341979999983,63.02341979999983,63.02341979999983,63.02341979999983,63.02341979999983,63.02341979999983,63.02341979999983,,002,P007,2025_Feb_01_1018,CategoryLocalizer,2021.2.3,59.944491400707825,
27.0,27.8,1,0.75,Stimuli\ImageFiles-Set2\Objects\Object_Scissors_00001.png,0,0,0,31,31,31,,,,,,,,,,,,,27.00669259999995,0.006692599999951199,None,63.2235813999996,63.2235813999996,63.2235813999996,63.2235813999996,63.2235813999996,63.2235813999996,63.2235813999996,63.2235813999996,,002,P007,2025_Feb_01_1018,CategoryLocalizer,2021.2.3,59.944491400707825,
27.8,28.0,5,0.0,Stimuli\Blank.png,0,0,0,32,32,32,,,,,,,,,,,,,27.82429989999946,0.02429989999945903,None,64.02429329999995,64.02429329999995,64.02429329999995,64.02429329999995,64.02429329999995,64.02429329999995,64.02429329999995,64.02429329999995,,002,P007,2025_Feb_01_1018,CategoryLocalizer,2021.2.3,59.944491400707825,
28.0,28.8,2,0.75,Stimuli\ImageFiles-Set2\Bodies\Bodies_Pushing_00004.png,0,0,0,33,33,33,,,,,,,,,,,,,28.0073825999998,0.007382599999800732,None,64.2244968999994,64.2244968999994,64.2244968999994,64.2244968999994,64.2244968999994,64.2244968999994,64.2244968999994,64.2244968999994,,002,P007,2025_Feb_01_1018,CategoryLocalizer,2021.2.3,59.944491400707825,
28.8,29.0,5,0.0,Stimuli\Blank.png,0,0,0,34,34,34,,,,,,,,,,,,,28.827156599999398,0.027156599999397457,None,65.0418665999996,65.0418665999996,65.0418665999996,65.0418665999996,65.0418665999996,65.0418665999996,65.0418665999996,65.0418665999996,,002,P007,2025_Feb_01_1018,CategoryLocalizer,2021.2.3,59.944491400707825,
29.0,29.8,2,0.75,Stimuli\ImageFiles-Set2\Bodies\Bodies_Jumping_00003.png,0,0,0,35,35,35,,,,,,,,,,,,,29.02648269999918,0.026482699999178294,None,65.24205069999971,65.24205069999971,65.24205069999971,65.24205069999971,65.24205069999971,65.24205069999971,65.24205069999971,65.24205069999971,,002,P007,2025_Feb_01_1018,CategoryLocalizer,2021.2.3,59.944491400707825,
29.8,30.0,5,0.0,Stimuli\Blank.png,0,0,0,36,36,36,,,,,,,,,,,,,29.826188799999727,0.026188799999726342,None,66.02606999999989,66.02606999999989,66.02606999999989,66.02606999999989,66.02606999999989,66.02606999999989,66.02606999999989,66.02606999999989,,002,P007,2025_Feb_01_1018,CategoryLocalizer,2021.2.3,59.944491400707825,
30.0,30.8,2,0.75,Stimuli\ImageFiles-Set2\Bodies\Bodies_Falling_00005.png,0,0,0,37,37,37,,,,,,,,,,,,,30.008503899999596,0.008503899999595887,None,66.22623930000009,66.22623930000009,66.22623930000009,66.22623930000009,66.22623930000009,66.22623930000009,66.22623930000009,66.22623930000009,,002,P007,2025_Feb_01_1018,CategoryLocalizer,2021.2.3,59.944491400707825,
30.8,31.0,5,0.0,Stimuli\Blank.png,0,0,0,38,38,38,,,,,,,,,,,,,30.826936799999203,0.026936799999202066,None,67.02695739999945,67.02695739999945,67.02695739999945,67.02695739999945,67.02695739999945,67.02695739999945,67.02695739999945,67.02695739999945,,002,P007,2025_Feb_01_1018,CategoryLocalizer,2021.2.3,59.944491400707825,
31.0,31.8,2,0.75,Stimuli\ImageFiles-Set2\Bodies\Bodies_Kneeling_00001.png,0,0,0,39,39,39,,,,,,,,,,,,,31.011550899999747,0.011550899999747344,None,67.24380839999958,67.24380839999958,67.24380839999958,67.24380839999958,67.24380839999958,67.24380839999958,67.24380839999958,67.24380839999958,,002,P007,2025_Feb_01_1018,CategoryLocalizer,2021.2.3,59.944491400707825,
31.8,32.0,5,0.0,Stimuli\Blank.png,0,0,0,40,40,40,,,,,,,,,,,,,31.84358499999962,0.04358499999962007,None,68.04451739999968,68.04451739999968,68.04451739999968,68.04451739999968,68.04451739999968,68.04451739999968,68.04451739999968,68.04451739999968,,002,P007,2025_Feb_01_1018,CategoryLocalizer,2021.2.3,59.944491400707825,
32.0,32.8,2,0.75,Stimuli\ImageFiles-Set2\Bodies\Bodies_DownwardDog_00002.png,0,0,0,41,41,41,,,,,,,,,,,,,32.01204599999983,0.012045999999827472,None,68.2446962999993,68.2446962999993,68.2446962999993,68.2446962999993,68.2446962999993,68.2446962999993,68.2446962999993,68.2446962999993,,002,P007,2025_Feb_01_1018,CategoryLocalizer,2021.2.3,59.944491400707825,
32.8,33.0,5,0.0,Stimuli\Blank.png,0,0,0,42,42,42,,,,,,,,,,,,,32.84701549999954,0.047015499999545796,None,69.06210329999976,69.06210329999976,69.06210329999976,69.06210329999976,69.06210329999976,69.06210329999976,69.06210329999976,69.06210329999976,,002,P007,2025_Feb_01_1018,CategoryLocalizer,2021.2.3,59.944491400707825,
33.0,33.8,2,0.75,Stimuli\ImageFiles-Set2\Bodies\Bodies_Punching_00002.png,0,0,0,43,43,43,,,,,,,,,,,,,33.028409999999894,0.028409999999894353,None,69.24557929999992,69.24557929999992,69.24557929999992,69.24557929999992,69.24557929999992,69.24557929999992,69.24557929999992,69.24557929999992,,002,P007,2025_Feb_01_1018,CategoryLocalizer,2021.2.3,59.944491400707825,
33.8,34.0,5,0.0,Stimuli\Blank.png,0,0,0,44,44,44,,,,,,,,,,,,,33.829871699999785,0.029871699999787893,None,70.02962669999943,70.02962669999943,70.02962669999943,70.02962669999943,70.02962669999943,70.02962669999943,70.02962669999943,70.02962669999943,,002,P007,2025_Feb_01_1018,CategoryLocalizer,2021.2.3,59.944491400707825,
34.0,34.8,2,0.75,Stimuli\ImageFiles-Set2\Bodies\Bodies_Punching_00002.png,1,1,0,45,45,45,,,,,,,,,,,,,34.012579399999595,0.012579399999594898,2,70.21311220000007,70.21311220000007,70.21311220000007,70.21311220000007,70.21311220000007,70.21311220000007,70.21311220000007,70.21311220000007,0.3316784999997253,002,P007,2025_Feb_01_1018,CategoryLocalizer,2021.2.3,59.944491400707825,
34.8,35.0,5,0.0,Stimuli\Blank.png,0,0,0,46,46,46,,,,,,,,,,,,,34.813833799999884,0.013833799999886764,None,71.01380969999991,71.01380969999991,71.01380969999991,71.01380969999991,71.01380969999991,71.01380969999991,71.01380969999991,71.01380969999991,,002,P007,2025_Feb_01_1018,CategoryLocalizer,2021.2.3,59.944491400707825,
35.0,35.8,2,0.75,Stimuli\ImageFiles-Set2\Bodies\Bodies_SittingStretch_00003.png,0,0,0,47,47,47,,,,,,,,,,,,,35.01286979999986,0.012869799999862153,None,71.23074449999967,71.23074449999967,71.23074449999967,71.23074449999967,71.23074449999967,71.23074449999967,71.23074449999967,71.23074449999967,,002,P007,2025_Feb_01_1018,CategoryLocalizer,2021.2.3,59.944491400707825,
35.8,36.0,5,0.0,Stimuli\Blank.png,0,0,0,48,48,48,,,,,,,,,,,,,35.83228340000005,0.03228340000005403,None,72.04806399999961,72.04806399999961,72.04806399999961,72.04806399999961,72.04806399999961,72.04806399999961,72.04806399999961,72.04806399999961,,002,P007,2025_Feb_01_1018,CategoryLocalizer,2021.2.3,59.944491400707825,
36.0,36.8,2,0.75,Stimuli\ImageFiles-Set2\Bodies\Bodies_CobraPose_00007.png,1,1,0,49,49,49,,,,,,,,,,,,,36.01376909999999,0.01376909999999043,None,72.21486829999958,72.21486829999958,72.21486829999958,72.21486829999958,72.21486829999958,72.21486829999958,72.21486829999958,72.21486829999958,,002,P007,2025_Feb_01_1018,CategoryLocalizer,2021.2.3,59.944491400707825,
36.8,37.0,5,0.0,Stimuli\Blank.png,0,0,0,50,50,50,,,,,,,,,,,,,36.816998299999796,0.016998299999798405,None,73.03228679999938,73.03228679999938,73.03228679999938,73.03228679999938,73.03228679999938,73.03228679999938,73.03228679999938,73.03228679999938,,002,P007,2025_Feb_01_1018,CategoryLocalizer,2021.2.3,59.944491400707825,
37.0,37.8,2,0.75,Stimuli\ImageFiles-Set2\Bodies\Bodies_Running_00007.png,0,0,0,51,51,51,,,,,,,,,,,,,37.017040599999746,0.01704059999974561,None,73.23245979999956,73.23245979999956,73.23245979999956,73.23245979999956,73.23245979999956,73.23245979999956,73.23245979999956,73.23245979999956,,002,P007,2025_Feb_01_1018,CategoryLocalizer,2021.2.3,59.944491400707825,
37.8,38.0,5,0.0,Stimuli\Blank.png,0,0,0,52,52,52,,,,,,,,,,,,,37.815938599999754,0.015938599999756775,None,74.0164851999998,74.0164851999998,74.0164851999998,74.0164851999998,74.0164851999998,74.0164851999998,74.0164851999998,74.0164851999998,,002,P007,2025_Feb_01_1018,CategoryLocalizer,2021.2.3,59.944491400707825,
38.0,38.8,2,0.75,Stimuli\ImageFiles-Set2\Bodies\Bodies_Running_00007.png,0,0,0,53,53,53,,,,,,,,,,,,,37.998933099999704,-0.0010669000002963003,2,74.21663850000004,74.21663850000004,74.21663850000004,74.21663850000004,74.21663850000004,74.21663850000004,74.21663850000004,74.21663850000004,0.41713590000017575,002,P007,2025_Feb_01_1018,CategoryLocalizer,2021.2.3,59.944491400707825,
38.8,39.0,5,0.0,Stimuli\Blank.png,0,0,0,54,54,54,,,,,,,,,,,,,38.81640929999958,0.016409299999580185,None,75.01737019999928,75.01737019999928,75.01737019999928,75.01737019999928,75.01737019999928,75.01737019999928,75.01737019999928,75.01737019999928,,002,P007,2025_Feb_01_1018,CategoryLocalizer,2021.2.3,59.944491400707825,
39.0,39.8,2,0.75,Stimuli\ImageFiles-Set2\Bodies\Bodies_Standing_00004.png,0,0,0,55,55,55,,,,,,,,,,,,,39.00174209999932,0.00174209999931918,None,75.217533,75.217533,75.217533,75.217533,75.217533,75.217533,75.217533,75.217533,,002,P007,2025_Feb_01_1018,CategoryLocalizer,2021.2.3,59.944491400707825,
39.8,40.0,5,0.0,Stimuli\Blank.png,0,0,0,56,56,56,,,,,,,,,,,,,39.81768579999971,0.017685799999711094,None,76.01824450000004,76.01824450000004,76.01824450000004,76.01824450000004,76.01824450000004,76.01824450000004,76.01824450000004,76.01824450000004,,002,P007,2025_Feb_01_1018,CategoryLocalizer,2021.2.3,59.944491400707825,
40.0,40.8,2,0.75,Stimuli\ImageFiles-Set2\Bodies\Bodies_Walking_00007.png,0,0,0,57,57,57,,,,,,,,,,,,,40.00076799999988,0.0007679999998799758,None,76.21840679999968,76.21840679999968,76.21840679999968,76.21840679999968,76.21840679999968,76.21840679999968,76.21840679999968,76.21840679999968,,002,P007,2025_Feb_01_1018,CategoryLocalizer,2021.2.3,59.944491400707825,
40.8,41.0,5,0.0,Stimuli\Blank.png,0,0,0,58,58,58,,,,,,,,,,,,,40.81896229999984,0.018962299999842003,None,77.01912289999927,77.01912289999927,77.01912289999927,77.01912289999927,77.01912289999927,77.01912289999927,77.01912289999927,77.01912289999927,,002,P007,2025_Feb_01_1018,CategoryLocalizer,2021.2.3,59.944491400707825,
41.0,41.8,2,0.75,Stimuli\ImageFiles-Set2\Bodies\Bodies_SittingFloor_00006.png,0,0,0,59,59,59,,,,,,,,,,,,,41.00249039999926,0.002490399999260262,None,77.23599329999979,77.23599329999979,77.23599329999979,77.23599329999979,77.23599329999979,77.23599329999979,77.23599329999979,77.23599329999979,,002,P007,2025_Feb_01_1018,CategoryLocalizer,2021.2.3,59.944491400707825,
41.8,42.0,5,0.0,Stimuli\Blank.png,0,0,0,60,60,60,,,,,,,,,,,,,41.83651629999986,0.03651629999986028,None,78.0366968999997,78.0366968999997,78.0366968999997,78.0366968999997,78.0366968999997,78.0366968999997,78.0366968999997,78.0366968999997,,002,P007,2025_Feb_01_1018,CategoryLocalizer,2021.2.3,59.944491400707825,
42.0,42.8,2,0.75,Stimuli\ImageFiles-Set2\Bodies\Bodies_PushUp_00006.png,0,0,0,61,61,61,,,,,,,,,,,,,42.00253789999988,0.0025378999998793006,None,78.20345999999972,78.20345999999972,78.20345999999972,78.20345999999972,78.20345999999972,78.20345999999972,78.20345999999972,78.20345999999972,,002,P007,2025_Feb_01_1018,CategoryLocalizer,2021.2.3,59.944491400707825,
42.8,43.0,5,0.0,Stimuli\Blank.png,0,0,0,62,62,62,,,,,,,,,,,,,42.80425859999923,0.004258599999232615,None,79.00420609999946,79.00420609999946,79.00420609999946,79.00420609999946,79.00420609999946,79.00420609999946,79.00420609999946,79.00420609999946,,002,P007,2025_Feb_01_1018,CategoryLocalizer,2021.2.3,59.944491400707825,
43.0,43.8,2,0.75,Stimuli\ImageFiles-Set2\Bodies\Bodies_SittingFloor_00004.png,0,0,0,63,63,63,,,,,,,,,,,,,43.00329909999982,0.0032990999998219195,None,79.22108979999939,79.22108979999939,79.22108979999939,79.22108979999939,79.22108979999939,79.22108979999939,79.22108979999939,79.22108979999939,,002,P007,2025_Feb_01_1018,CategoryLocalizer,2021.2.3,59.944491400707825,
43.8,44.0,5,0.0,Stimuli\Blank.png,0,0,0,64,64,64,,,,,,,,,,,,,43.821277899999586,0.021277899999589067,None,80.02178959999947,80.02178959999947,80.02178959999947,80.02178959999947,80.02178959999947,80.02178959999947,80.02178959999947,80.02178959999947,,002,P007,2025_Feb_01_1018,CategoryLocalizer,2021.2.3,59.944491400707825,
44.0,44.8,3,0.75,Stimuli\ImageFiles-Set2\Faces\Face_00078.png,0,0,0,65,65,65,,,,,,,,,,,,,44.00733659999969,0.007336599999689497,None,80.23863189999975,80.23863189999975,80.23863189999975,80.23863189999975,80.23863189999975,80.23863189999975,80.23863189999975,80.23863189999975,,002,P007,2025_Feb_01_1018,CategoryLocalizer,2021.2.3,59.944491400707825,
44.8,45.0,5,0.0,Stimuli\Blank.png,0,0,0,66,66,66,,,,,,,,,,,,,44.838418499999534,0.03841849999953695,None,81.03934729999946,81.03934729999946,81.03934729999946,81.03934729999946,81.03934729999946,81.03934729999946,81.03934729999946,81.03934729999946,,002,P007,2025_Feb_01_1018,CategoryLocalizer,2021.2.3,59.944491400707825,
45.0,45.8,3,0.75,Stimuli\ImageFiles-Set2\Faces\Face_00108.png,0,0,0,67,67,67,,,,,,,,,,,,,45.0061670999994,0.006167099999402126,None,81.2228454999995,81.2228454999995,81.2228454999995,81.2228454999995,81.2228454999995,81.2228454999995,81.2228454999995,81.2228454999995,,002,P007,2025_Feb_01_1018,CategoryLocalizer,2021.2.3,59.944491400707825,
45.8,46.0,5,0.0,Stimuli\Blank.png,0,0,0,68,68,68,,,,,,,,,,,,,45.82318329999998,0.023183299999985252,None,82.02357799999936,82.02357799999936,82.02357799999936,82.02357799999936,82.02357799999936,82.02357799999936,82.02357799999936,82.02357799999936,,002,P007,2025_Feb_01_1018,CategoryLocalizer,2021.2.3,59.944491400707825,
46.0,46.8,3,0.75,Stimuli\ImageFiles-Set2\Faces\Face_00030.png,0,0,0,69,69,69,,,,,,,,,,,,,46.006557599999724,0.006557599999723607,None,82.20703929999945,82.20703929999945,82.20703929999945,82.20703929999945,82.20703929999945,82.20703929999945,82.20703929999945,82.20703929999945,,002,P007,2025_Feb_01_1018,CategoryLocalizer,2021.2.3,59.944491400707825,
46.8,47.0,5,0.0,Stimuli\Blank.png,0,0,0,70,70,70,,,,,,,,,,,,,46.80768050000006,0.007680500000063262,None,83.00780649999979,83.00780649999979,83.00780649999979,83.00780649999979,83.00780649999979,83.00780649999979,83.00780649999979,83.00780649999979,,002,P007,2025_Feb_01_1018,CategoryLocalizer,2021.2.3,59.944491400707825,
47.0,47.8,3,0.75,Stimuli\ImageFiles-Set2\Faces\Face_00011.png,0,0,0,71,71,71,,,,,,,,,,,,,47.00875049999922,0.008750499999223393,None,83.24129749999975,83.24129749999975,83.24129749999975,83.24129749999975,83.24129749999975,83.24129749999975,83.24129749999975,83.24129749999975,,002,P007,2025_Feb_01_1018,CategoryLocalizer,2021.2.3,59.944491400707825,
47.8,48.0,5,0.0,Stimuli\Blank.png,0,0,0,72,72,72,,,,,,,,,,,,,47.8409259,0.040925900000004845,None,84.0420009999998,84.0420009999998,84.0420009999998,84.0420009999998,84.0420009999998,84.0420009999998,84.0420009999998,84.0420009999998,,002,P007,2025_Feb_01_1018,CategoryLocalizer,2021.2.3,59.944491400707825,
48.0,48.8,3,0.75,Stimuli\ImageFiles-Set2\Faces\Face_00074.png,0,0,0,73,73,73,,,,,,,,,,,,,48.007978799999364,0.007978799999364128,None,84.24219679999987,84.24219679999987,84.24219679999987,84.24219679999987,84.24219679999987,84.24219679999987,84.24219679999987,84.24219679999987,,002,P007,2025_Feb_01_1018,CategoryLocalizer,2021.2.3,59.944491400707825,
48.8,49.0,5,0.0,Stimuli\Blank.png,0,0,0,74,74,74,,,,,,,,,,,,,48.84314479999921,0.043144799999211614,None,85.04287479999948,85.04287479999948,85.04287479999948,85.04287479999948,85.04287479999948,85.04287479999948,85.04287479999948,85.04287479999948,,002,P007,2025_Feb_01_1018,CategoryLocalizer,2021.2.3,59.944491400707825,
49.0,49.8,3,0.75,Stimuli\ImageFiles-Set2\Faces\Face_00048.png,0,0,0,75,75,75,,,,,,,,,,,,,49.009327999999186,0.009327999999186432,None,85.2430934999993,85.2430934999993,85.2430934999993,85.2430934999993,85.2430934999993,85.2430934999993,85.2430934999993,85.2430934999993,,002,P007,2025_Feb_01_1018,CategoryLocalizer,2021.2.3,59.944491400707825,
49.8,50.0,5,0.0,Stimuli\Blank.png,0,0,0,76,76,76,,,,,,,,,,,,,49.84332599999925,0.04332599999925435,None,86.0437707000001,86.0437707000001,86.0437707000001,86.0437707000001,86.0437707000001,86.0437707000001,86.0437707000001,86.0437707000001,,002,P007,2025_Feb_01_1018,CategoryLocalizer,2021.2.3,59.944491400707825,
50.0,50.8,3,0.75,Stimuli\ImageFiles-Set2\Faces\Face_00048.png,1,1,0,77,77,77,,,,,,,,,,,,,50.0101982999995,0.010198299999501614,2,86.22728279999956,86.22728279999956,86.22728279999956,86.22728279999956,86.22728279999956,86.22728279999956,86.22728279999956,86.22728279999956,0.4975119000000632,002,P007,2025_Feb_01_1018,CategoryLocalizer,2021.2.3,59.944491400707825,
50.8,51.0,5,0.0,Stimuli\Blank.png,0,0,0,78,78,78,,,,,,,,,,,,,50.82909560000007,0.02909560000007616,None,87.04468129999987,87.04468129999987,87.04468129999987,87.04468129999987,87.04468129999987,87.04468129999987,87.04468129999987,87.04468129999987,,002,P007,2025_Feb_01_1018,CategoryLocalizer,2021.2.3,59.944491400707825,
51.0,51.8,3,0.75,Stimuli\ImageFiles-Set2\Faces\Face_00114.png,0,0,0,79,79,79,,,,,,,,,,,,,51.02887179999925,0.02887179999925138,None,87.26151239999945,87.26151239999945,87.26151239999945,87.26151239999945,87.26151239999945,87.26151239999945,87.26151239999945,87.26151239999945,,002,P007,2025_Feb_01_1018,CategoryLocalizer,2021.2.3,59.944491400707825,
51.8,52.0,5,0.0,Stimuli\Blank.png,0,0,0,80,80,80,,,,,,,,,,,,,51.8452527999998,0.04525279999980114,None,88.04554129999997,88.04554129999997,88.04554129999997,88.04554129999997,88.04554129999997,88.04554129999997,88.04554129999997,88.04554129999997,,002,P007,2025_Feb_01_1018,CategoryLocalizer,2021.2.3,59.944491400707825,
52.0,52.8,3,0.75,Stimuli\ImageFiles-Set2\Faces\Face_00118.png,0,0,0,81,81,81,,,,,,,,,,,,,52.01131449999957,0.011314499999571126,None,88.2457359,88.2457359,88.2457359,88.2457359,88.2457359,88.2457359,88.2457359,88.2457359,,002,P007,2025_Feb_01_1018,CategoryLocalizer,2021.2.3,59.944491400707825,
52.8,53.0,5,0.0,Stimuli\Blank.png,0,0,0,82,82,82,,,,,,,,,,,,,52.845663899999636,0.0456638999996386,None,89.04643559999931,89.04643559999931,89.04643559999931,89.04643559999931,89.04643559999931,89.04643559999931,89.04643559999931,89.04643559999931,,002,P007,2025_Feb_01_1018,CategoryLocalizer,2021.2.3,59.944491400707825,
53.0,53.8,3,0.75,Stimuli\ImageFiles-Set2\Faces\Face_00032.png,0,0,0,83,83,83,,,,,,,,,,,,,53.013553599999796,0.013553599999795551,None,89.22991469999943,89.22991469999943,89.22991469999943,89.22991469999943,89.22991469999943,89.22991469999943,89.22991469999943,89.22991469999943,,002,P007,2025_Feb_01_1018,CategoryLocalizer,2021.2.3,59.944491400707825,
53.8,54.0,5,0.0,Stimuli\Blank.png,0,0,0,84,84,84,,,,,,,,,,,,,53.830645499999264,0.03064549999926669,None,90.03060249999999,90.03060249999999,90.03060249999999,90.03060249999999,90.03060249999999,90.03060249999999,90.03060249999999,90.03060249999999,,002,P007,2025_Feb_01_1018,CategoryLocalizer,2021.2.3,59.944491400707825,
54.0,54.8,3,0.75,Stimuli\ImageFiles-Set2\Faces\Face_00100.png,0,0,0,85,85,85,,,,,,,,,,,,,54.014275599999564,0.014275599999564292,None,90.23083270000006,90.23083270000006,90.23083270000006,90.23083270000006,90.23083270000006,90.23083270000006,90.23083270000006,90.23083270000006,,002,P007,2025_Feb_01_1018,CategoryLocalizer,2021.2.3,59.944491400707825,
54.8,55.0,5,0.0,Stimuli\Blank.png,0,0,0,86,86,86,,,,,,,,,,,,,54.83112849999998,0.03112849999997991,None,91.03151509999952,91.03151509999952,91.03151509999952,91.03151509999952,91.03151509999952,91.03151509999952,91.03151509999952,91.03151509999952,,002,P007,2025_Feb_01_1018,CategoryLocalizer,2021.2.3,59.944491400707825,
55.0,55.8,3,0.75,Stimuli\ImageFiles-Set2\Faces\Face_00013.png,1,1,0,87,87,87,,,,,,,,,,,,,55.01450969999951,0.014509699999507575,None,91.2483859999993,91.2483859999993,91.2483859999993,91.2483859999993,91.2483859999993,91.2483859999993,91.2483859999993,91.2483859999993,,002,P007,2025_Feb_01_1018,CategoryLocalizer,2021.2.3,59.944491400707825,
55.8,56.0,5,0.0,Stimuli\Blank.png,0,0,0,88,88,88,,,,,,,,,,,,,55.84902399999919,0.049023999999192824,None,92.04910719999953,92.04910719999953,92.04910719999953,92.04910719999953,92.04910719999953,92.04910719999953,92.04910719999953,92.04910719999953,,002,P007,2025_Feb_01_1018,CategoryLocalizer,2021.2.3,59.944491400707825,
56.0,56.8,3,0.75,Stimuli\ImageFiles-Set2\Faces\Face_00112.png,0,0,0,89,89,89,,,,,,,,,,,,,55.998461599999246,-0.0015384000007543364,None,92.19918309999957,92.19918309999957,92.19918309999957,92.19918309999957,92.19918309999957,92.19918309999957,92.19918309999957,92.19918309999957,,002,P007,2025_Feb_01_1018,CategoryLocalizer,2021.2.3,59.944491400707825,
56.8,57.0,5,0.0,Stimuli\Blank.png,0,0,0,90,90,90,,,,,,,,,,,,,56.79979209999965,-0.00020790000034764944,None,92.99991189999946,92.99991189999946,92.99991189999946,92.99991189999946,92.99991189999946,92.99991189999946,92.99991189999946,92.99991189999946,,002,P007,2025_Feb_01_1018,CategoryLocalizer,2021.2.3,59.944491400707825,
57.0,57.8,3,0.75,Stimuli\ImageFiles-Set2\Faces\Face_00112.png,0,0,0,91,91,91,,,,,,,,,,,,,56.99998239999968,-1.7600000319362152e-05,2,93.21678650000013,93.21678650000013,93.21678650000013,93.21678650000013,93.21678650000013,93.21678650000013,93.21678650000013,93.21678650000013,0.37801179999951273,002,P007,2025_Feb_01_1018,CategoryLocalizer,2021.2.3,59.944491400707825,
57.8,58.0,5,0.0,Stimuli\Blank.png,0,0,0,92,92,92,,,,,,,,,,,,,57.81730889999926,0.017308899999264327,None,94.01750289999927,94.01750289999927,94.01750289999927,94.01750289999927,94.01750289999927,94.01750289999927,94.01750289999927,94.01750289999927,,002,P007,2025_Feb_01_1018,CategoryLocalizer,2021.2.3,59.944491400707825,
58.0,58.8,3,0.75,Stimuli\ImageFiles-Set2\Faces\Face_00086.png,0,0,0,93,93,93,,,,,,,,,,,,,58.000207999999475,0.00020799999947485048,None,94.2176630999993,94.2176630999993,94.2176630999993,94.2176630999993,94.2176630999993,94.2176630999993,94.2176630999993,94.2176630999993,,002,P007,2025_Feb_01_1018,CategoryLocalizer,2021.2.3,59.944491400707825,
58.8,59.0,5,0.0,Stimuli\Blank.png,0,0,0,94,94,94,,,,,,,,,,,,,58.81902519999949,0.019025199999489928,None,95.03508129999955,95.03508129999955,95.03508129999955,95.03508129999955,95.03508129999955,95.03508129999955,95.03508129999955,95.03508129999955,,002,P007,2025_Feb_01_1018,CategoryLocalizer,2021.2.3,59.944491400707825,
59.0,59.8,3,0.75,Stimuli\ImageFiles-Set2\Faces\Face_00068.png,0,0,0,95,95,95,,,,,,,,,,,,,59.0191836999993,0.019183699999302917,None,95.25192340000012,95.25192340000012,95.25192340000012,95.25192340000012,95.25192340000012,95.25192340000012,95.25192340000012,95.25192340000012,,002,P007,2025_Feb_01_1018,CategoryLocalizer,2021.2.3,59.944491400707825,
59.8,60.0,5,0.0,Stimuli\Blank.png,0,0,0,96,96,96,,,,,,,,,,,,,59.83551169999919,0.03551169999919068,None,96.03594149999935,96.03594149999935,96.03594149999935,96.03594149999935,96.03594149999935,96.03594149999935,96.03594149999935,96.03594149999935,,002,P007,2025_Feb_01_1018,CategoryLocalizer,2021.2.3,59.944491400707825,
60.0,60.8,4,0.75,Stimuli\ImageFiles-Set2\Scenes\Scenes_110.png,0,0,0,97,97,97,,,,,,,,,,,,,60.001833199999965,0.0018331999999645632,None,96.23615019999943,96.23615019999943,96.23615019999943,96.23615019999943,96.23615019999943,96.23615019999943,96.23615019999943,96.23615019999943,,002,P007,2025_Feb_01_1018,CategoryLocalizer,2021.2.3,59.944491400707825,
60.8,61.0,5,0.0,Stimuli\Blank.png,0,0,0,98,98,98,,,,,,,,,,,,,60.8357647999992,0.03576479999919968,None,97.03682739999931,97.03682739999931,97.03682739999931,97.03682739999931,97.03682739999931,97.03682739999931,97.03682739999931,97.03682739999931,,002,P007,2025_Feb_01_1018,CategoryLocalizer,2021.2.3,59.944491400707825,
61.0,61.8,4,0.75,Stimuli\ImageFiles-Set2\Scenes\Scenes_116.png,0,0,0,99,99,99,,,,,,,,,,,,,61.00426689999949,0.0042668999994930346,None,97.23700709999957,97.23700709999957,97.23700709999957,97.23700709999957,97.23700709999957,97.23700709999957,97.23700709999957,97.23700709999957,,002,P007,2025_Feb_01_1018,CategoryLocalizer,2021.2.3,59.944491400707825,
61.8,62.0,5,0.0,Stimuli\Blank.png,0,0,0,100,100,100,,,,,,,,,,,,,61.83878959999947,0.0387895999994754,None,98.05439989999923,98.05439989999923,98.05439989999923,98.05439989999923,98.05439989999923,98.05439989999923,98.05439989999923,98.05439989999923,,002,P007,2025_Feb_01_1018,CategoryLocalizer,2021.2.3,59.944491400707825,
62.0,62.8,4,0.75,Stimuli\ImageFiles-Set2\Scenes\Scenes_066.png,0,0,0,101,101,101,,,,,,,,,,,,,62.020143099999586,0.02014309999958641,None,98.2545640999997,98.2545640999997,98.2545640999997,98.2545640999997,98.2545640999997,98.2545640999997,98.2545640999997,98.2545640999997,,002,P007,2025_Feb_01_1018,CategoryLocalizer,2021.2.3,59.944491400707825,
62.8,63.0,5,0.0,Stimuli\Blank.png,0,0,0,102,102,102,,,,,,,,,,,,,62.838235299999724,0.038235299999726635,None,99.03860159999931,99.03860159999931,99.03860159999931,99.03860159999931,99.03860159999931,99.03860159999931,99.03860159999931,99.03860159999931,,002,P007,2025_Feb_01_1018,CategoryLocalizer,2021.2.3,59.944491400707825,
63.0,63.8,4,0.75,Stimuli\ImageFiles-Set2\Scenes\Scenes_112.png,0,0,0,103,103,103,,,,,,,,,,,,,63.00433189999967,0.004331899999669986,None,99.22211009999955,99.22211009999955,99.22211009999955,99.22211009999955,99.22211009999955,99.22211009999955,99.22211009999955,99.22211009999955,,002,P007,2025_Feb_01_1018,CategoryLocalizer,2021.2.3,59.944491400707825,
63.8,64.0,5,0.0,Stimuli\Blank.png,0,0,0,104,104,104,,,,,,,,,,,,,63.82333309999922,0.023333099999220508,None,100.02280259999952,100.02280259999952,100.02280259999952,100.02280259999952,100.02280259999952,100.02280259999952,100.02280259999952,100.02280259999952,,002,P007,2025_Feb_01_1018,CategoryLocalizer,2021.2.3,59.944491400707825,
64.0,64.8,4,0.75,Stimuli\ImageFiles-Set2\Scenes\Scenes_101.png,0,0,0,105,105,105,,,,,,,,,,,,,64.00603219999994,0.006032199999935983,None,100.22300169999926,100.22300169999926,100.22300169999926,100.22300169999926,100.22300169999926,100.22300169999926,100.22300169999926,100.22300169999926,,002,P007,2025_Feb_01_1018,CategoryLocalizer,2021.2.3,59.944491400707825,
64.8,65.0,5,0.0,Stimuli\Blank.png,0,0,0,106,106,106,,,,,,,,,,,,,64.8234623999997,0.023462399999701233,None,101.02369159999944,101.02369159999944,101.02369159999944,101.02369159999944,101.02369159999944,101.02369159999944,101.02369159999944,101.02369159999944,,002,P007,2025_Feb_01_1018,CategoryLocalizer,2021.2.3,59.944491400707825,
65.0,65.8,4,0.75,Stimuli\ImageFiles-Set2\Scenes\Scenes_096.png,0,0,0,107,107,107,,,,,,,,,,,,,65.0060982999994,0.00609829999939393,None,101.22388839999985,101.22388839999985,101.22388839999985,101.22388839999985,101.22388839999985,101.22388839999985,101.22388839999985,101.22388839999985,,002,P007,2025_Feb_01_1018,CategoryLocalizer,2021.2.3,59.944491400707825,
65.8,66.0,5,0.0,Stimuli\Blank.png,0,0,0,108,108,108,,,,,,,,,,,,,65.82470409999951,0.02470409999951073,None,102.0245802999998,102.0245802999998,102.0245802999998,102.0245802999998,102.0245802999998,102.0245802999998,102.0245802999998,102.0245802999998,,002,P007,2025_Feb_01_1018,CategoryLocalizer,2021.2.3,59.944491400707825,
66.0,66.8,4,0.75,Stimuli\ImageFiles-Set2\Scenes\Scenes_078.png,0,0,0,109,109,109,,,,,,,,,,,,,66.00771389999954,0.007713899999544083,None,102.22475029999987,102.22475029999987,102.22475029999987,102.22475029999987,102.22475029999987,102.22475029999987,102.22475029999987,102.22475029999987,,002,P007,2025_Feb_01_1018,CategoryLocalizer,2021.2.3,59.944491400707825,
66.8,67.0,5,0.0,Stimuli\Blank.png,0,0,0,110,110,110,,,,,,,,,,,,,66.82517310000003,0.025173100000031923,None,103.0254675999995,103.0254675999995,103.0254675999995,103.0254675999995,103.0254675999995,103.0254675999995,103.0254675999995,103.0254675999995,,002,P007,2025_Feb_01_1018,CategoryLocalizer,2021.2.3,59.944491400707825,
67.0,67.8,4,0.75,Stimuli\ImageFiles-Set2\Scenes\Scenes_111.png,0,0,0,111,111,111,,,,,,,,,,,,,67.00861989999976,0.008619899999757763,None,103.24234530000012,103.24234530000012,103.24234530000012,103.24234530000012,103.24234530000012,103.24234530000012,103.24234530000012,103.24234530000012,,002,P007,2025_Feb_01_1018,CategoryLocalizer,2021.2.3,59.944491400707825,
67.8,68.0,5,0.0,Stimuli\Blank.png,0,0,0,112,112,112,,,,,,,,,,,,,67.84366979999959,0.04366979999959142,None,104.05972059999931,104.05972059999931,104.05972059999931,104.05972059999931,104.05972059999931,104.05972059999931,104.05972059999931,104.05972059999931,,002,P007,2025_Feb_01_1018,CategoryLocalizer,2021.2.3,59.944491400707825,
68.0,68.8,4,0.75,Stimuli\ImageFiles-Set2\Scenes\Scenes_080.png,0,0,0,113,113,113,,,,,,,,,,,,,68.02574559999994,0.02574559999993653,None,104.25996329999998,104.25996329999998,104.25996329999998,104.25996329999998,104.25996329999998,104.25996329999998,104.25996329999998,104.25996329999998,,002,P007,2025_Feb_01_1018,CategoryLocalizer,2021.2.3,59.944491400707825,
68.8,69.0,5,0.0,Stimuli\Blank.png,0,0,0,114,114,114,,,,,,,,,,,,,68.84363159999975,0.04363159999975608,None,105.04392069999994,105.04392069999994,105.04392069999994,105.04392069999994,105.04392069999994,105.04392069999994,105.04392069999994,105.04392069999994,,002,P007,2025_Feb_01_1018,CategoryLocalizer,2021.2.3,59.944491400707825,
69.0,69.8,4,0.75,Stimuli\ImageFiles-Set2\Scenes\Scenes_080.png,1,1,0,115,115,115,,,,,,,,,,,,,69.00976939999964,0.009769399999640882,2,105.2107175000001,105.2107175000001,105.2107175000001,105.2107175000001,105.2107175000001,105.2107175000001,105.2107175000001,105.2107175000001,0.322086400000444,002,P007,2025_Feb_01_1018,CategoryLocalizer,2021.2.3,59.944491400707825,
69.8,70.0,5,0.0,Stimuli\Blank.png,0,0,0,116,116,116,,,,,,,,,,,,,69.81049819999953,0.010498199999531721,None,106.01142699999946,106.01142699999946,106.01142699999946,106.01142699999946,106.01142699999946,106.01142699999946,106.01142699999946,106.01142699999946,,002,P007,2025_Feb_01_1018,CategoryLocalizer,2021.2.3,59.944491400707825,
70.0,70.8,4,0.75,Stimuli\ImageFiles-Set2\Scenes\Scenes_077.png,0,0,0,117,117,117,,,,,,,,,,,,,70.01047799999924,0.010477999999238818,None,106.22830149999936,106.22830149999936,106.22830149999936,106.22830149999936,106.22830149999936,106.22830149999936,106.22830149999936,106.22830149999936,,002,P007,2025_Feb_01_1018,CategoryLocalizer,2021.2.3,59.944491400707825,
70.8,71.0,5,0.0,Stimuli\Blank.png,0,0,0,118,118,118,,,,,,,,,,,,,70.82859589999953,0.02859589999953016,None,107.02902839999933,107.02902839999933,107.02902839999933,107.02902839999933,107.02902839999933,107.02902839999933,107.02902839999933,107.02902839999933,,002,P007,2025_Feb_01_1018,CategoryLocalizer,2021.2.3,59.944491400707825,
71.0,71.8,4,0.75,Stimuli\ImageFiles-Set2\Scenes\Scenes_085.png,0,0,0,119,119,119,,,,,,,,,,,,,71.01214499999969,0.012144999999691208,None,107.22917799999959,107.22917799999959,107.22917799999959,107.22917799999959,107.22917799999959,107.22917799999959,107.22917799999959,107.22917799999959,,002,P007,2025_Feb_01_1018,CategoryLocalizer,2021.2.3,59.944491400707825,
71.8,72.0,5,0.0,Stimuli\Blank.png,0,0,0,120,120,120,,,,,,,,,,,,,71.82941119999941,0.02941119999941577,None,108.02990689999933,108.02990689999933,108.02990689999933,108.02990689999933,108.02990689999933,108.02990689999933,108.02990689999933,108.02990689999933,,002,P007,2025_Feb_01_1018,CategoryLocalizer,2021.2.3,59.944491400707825,
72.0,72.8,4,0.75,Stimuli\ImageFiles-Set2\Scenes\Scenes_109.png,0,0,0,121,121,121,,,,,,,,,,,,,72.01400179999928,0.014001799999277864,None,108.24676980000004,108.24676980000004,108.24676980000004,108.24676980000004,108.24676980000004,108.24676980000004,108.24676980000004,108.24676980000004,,002,P007,2025_Feb_01_1018,CategoryLocalizer,2021.2.3,59.944491400707825,
72.8,73.0,5,0.0,Stimuli\Blank.png,0,0,0,122,122,122,,,,,,,,,,,,,72.84871759999987,0.04871759999987546,None,109.06414049999967,109.06414049999967,109.06414049999967,109.06414049999967,109.06414049999967,109.06414049999967,109.06414049999967,109.06414049999967,,002,P007,2025_Feb_01_1018,CategoryLocalizer,2021.2.3,59.944491400707825,
73.0,73.8,4,0.75,Stimuli\ImageFiles-Set2\Scenes\Scenes_071.png,0,0,0,123,123,123,,,,,,,,,,,,,73.02995749999991,0.029957499999909487,None,109.24761919999946,109.24761919999946,109.24761919999946,109.24761919999946,109.24761919999946,109.24761919999946,109.24761919999946,109.24761919999946,,002,P007,2025_Feb_01_1018,CategoryLocalizer,2021.2.3,59.944491400707825,
73.8,74.0,5,0.0,Stimuli\Blank.png,0,0,0,124,124,124,,,,,,,,,,,,,73.83152619999964,0.031526199999646565,None,110.03166529999999,110.03166529999999,110.03166529999999,110.03166529999999,110.03166529999999,110.03166529999999,110.03166529999999,110.03166529999999,,002,P007,2025_Feb_01_1018,CategoryLocalizer,2021.2.3,59.944491400707825,
74.0,74.8,4,0.75,Stimuli\ImageFiles-Set2\Scenes\Scenes_065.png,0,0,0,125,125,125,,,,,,,,,,,,,74.01431419999972,0.014314199999716948,None,110.24850639999931,110.24850639999931,110.24850639999931,110.24850639999931,110.24850639999931,110.24850639999931,110.24850639999931,110.24850639999931,,002,P007,2025_Feb_01_1018,CategoryLocalizer,2021.2.3,59.944491400707825,
74.8,75.0,5,0.0,Stimuli\Blank.png,0,0,0,126,126,126,,,,,,,,,,,,,74.84879999999976,0.04879999999975837,None,111.04922959999931,111.04922959999931,111.04922959999931,111.04922959999931,111.04922959999931,111.04922959999931,111.04922959999931,111.04922959999931,,002,P007,2025_Feb_01_1018,CategoryLocalizer,2021.2.3,59.944491400707825,
75.0,75.8,4,0.75,Stimuli\ImageFiles-Set2\Scenes\Scenes_104.png,0,0,0,127,127,127,,,,,,,,,,,,,75.01521239999965,0.015212399999654735,None,111.2493930999999,111.2493930999999,111.2493930999999,111.2493930999999,111.2493930999999,111.2493930999999,111.2493930999999,111.2493930999999,,002,P007,2025_Feb_01_1018,CategoryLocalizer,2021.2.3,59.944491400707825,
75.8,76.0,5,0.0,Stimuli\Blank.png,0,0,0,128,128,128,,,,,,,,,,,,,75.8334350999994,0.033435099999408635,None,112.03343479999967,112.03343479999967,112.03343479999967,112.03343479999967,112.03343479999967,112.03343479999967,112.03343479999967,112.03343479999967,,002,P007,2025_Feb_01_1018,CategoryLocalizer,2021.2.3,59.944491400707825,
76.0,88.0,0,0.0,Stimuli\Blank.png,0,0,0,129,129,129,,,,,,,,,,,,,75.99987939999937,-0.00012060000062774634,None,112.20019890000003,112.20019890000003,112.20019890000003,112.20019890000003,112.20019890000003,112.20019890000003,112.20019890000003,112.20019890000003,,002,P007,2025_Feb_01_1018,CategoryLocalizer,2021.2.3,59.944491400707825,
88.0,88.8,3,0.75,Stimuli\ImageFiles-Set2\Faces\Face_00044.png,0,0,0,130,130,130,,,,,,,,,,,,,88.01046299999962,0.01046299999961775,None,124.2275454999999,124.2275454999999,124.2275454999999,124.2275454999999,124.2275454999999,124.2275454999999,124.2275454999999,124.2275454999999,,002,P007,2025_Feb_01_1018,CategoryLocalizer,2021.2.3,59.944491400707825,
88.8,89.0,5,0.0,Stimuli\Blank.png,0,0,0,131,131,131,,,,,,,,,,,,,88.82909689999997,0.02909689999997056,None,125.04495429999952,125.04495429999952,125.04495429999952,125.04495429999952,125.04495429999952,125.04495429999952,125.04495429999952,125.04495429999952,,002,P007,2025_Feb_01_1018,CategoryLocalizer,2021.2.3,59.944491400707825,
89.0,89.8,3,0.75,Stimuli\ImageFiles-Set2\Faces\Face_00044.png,1,1,0,132,132,132,,,,,,,,,,,,,89.02913269999954,0.02913269999953627,2,125.24510759999976,125.24510759999976,125.24510759999976,125.24510759999976,125.24510759999976,125.24510759999976,125.24510759999976,125.24510759999976,0.379820699999982,002,P007,2025_Feb_01_1018,CategoryLocalizer,2021.2.3,59.944491400707825,
89.8,90.0,5,0.0,Stimuli\Blank.png,0,0,0,133,133,133,,,,,,,,,,,,,89.82808759999989,0.028087599999892632,None,126.02919620000011,126.02919620000011,126.02919620000011,126.02919620000011,126.02919620000011,126.02919620000011,126.02919620000011,126.02919620000011,,002,P007,2025_Feb_01_1018,CategoryLocalizer,2021.2.3,59.944491400707825,
90.0,90.8,3,0.75,Stimuli\ImageFiles-Set2\Faces\Face_00080.png,0,0,0,134,134,134,,,,,,,,,,,,,90.01318279999941,0.013182799999412964,None,126.2293136999997,126.2293136999997,126.2293136999997,126.2293136999997,126.2293136999997,126.2293136999997,126.2293136999997,126.2293136999997,,002,P007,2025_Feb_01_1018,CategoryLocalizer,2021.2.3,59.944491400707825,
90.8,91.0,5,0.0,Stimuli\Blank.png,0,0,0,135,135,135,,,,,,,,,,,,,90.82906209999965,0.02906209999964915,None,127.03001919999951,127.03001919999951,127.03001919999951,127.03001919999951,127.03001919999951,127.03001919999951,127.03001919999951,127.03001919999951,,002,P007,2025_Feb_01_1018,CategoryLocalizer,2021.2.3,59.944491400707825,
91.0,91.8,3,0.75,Stimuli\ImageFiles-Set2\Faces\Face_00006.png,0,0,0,136,136,136,,,,,,,,,,,,,91.01421039999968,0.014210399999683432,None,127.24689469999976,127.24689469999976,127.24689469999976,127.24689469999976,127.24689469999976,127.24689469999976,127.24689469999976,127.24689469999976,,002,P007,2025_Feb_01_1018,CategoryLocalizer,2021.2.3,59.944491400707825,
91.8,92.0,5,0.0,Stimuli\Blank.png,0,0,0,137,137,137,,,,,,,,,,,,,91.84886619999997,0.048866199999977766,None,128.06428219999998,128.06428219999998,128.06428219999998,128.06428219999998,128.06428219999998,128.06428219999998,128.06428219999998,128.06428219999998,,002,P007,2025_Feb_01_1018,CategoryLocalizer,2021.2.3,59.944491400707825,
92.0,92.8,3,0.75,Stimuli\ImageFiles-Set2\Faces\Face_00064.png,0,0,0,138,138,138,,,,,,,,,,,,,92.03005329999996,0.0300532999999632,None,128.24777819999963,128.24777819999963,128.24777819999963,128.24777819999963,128.24777819999963,128.24777819999963,128.24777819999963,128.24777819999963,,002,P007,2025_Feb_01_1018,CategoryLocalizer,2021.2.3,59.944491400707825,
92.8,93.0,5,0.0,Stimuli\Blank.png,0,0,0,139,139,139,,,,,,,,,,,,,92.83082009999998,0.030820099999985473,None,129.03179569999975,129.03179569999975,129.03179569999975,129.03179569999975,129.03179569999975,129.03179569999975,129.03179569999975,129.03179569999975,,002,P007,2025_Feb_01_1018,CategoryLocalizer,2021.2.3,59.944491400707825,
93.0,93.8,3,0.75,Stimuli\ImageFiles-Set2\Faces\Face_00054.png,0,0,0,140,140,140,,,,,,,,,,,,,93.01486529999966,0.01486529999965569,None,129.21529329999976,129.21529329999976,129.21529329999976,129.21529329999976,129.21529329999976,129.21529329999976,129.21529329999976,129.21529329999976,,002,P007,2025_Feb_01_1018,CategoryLocalizer,2021.2.3,59.944491400707825,
93.8,94.0,5,0.0,Stimuli\Blank.png,0,0,0,141,141,141,,,,,,,,,,,,,93.81501379999918,0.015013799999181288,None,130.01597270000002,130.01597270000002,130.01597270000002,130.01597270000002,130.01597270000002,130.01597270000002,130.01597270000002,130.01597270000002,,002,P007,2025_Feb_01_1018,CategoryLocalizer,2021.2.3,59.944491400707825,
94.0,94.8,3,0.75,Stimuli\ImageFiles-Set2\Faces\Face_00066.png,0,0,0,142,142,142,,,,,,,,,,,,,94.0158853999992,0.01588539999920613,None,130.23285489999944,130.23285489999944,130.23285489999944,130.23285489999944,130.23285489999944,130.23285489999944,130.23285489999944,130.23285489999944,,002,P007,2025_Feb_01_1018,CategoryLocalizer,2021.2.3,59.944491400707825,
94.8,95.0,5,0.0,Stimuli\Blank.png,0,0,0,143,143,143,,,,,,,,,,,,,94.81590759999926,0.01590759999926661,None,131.0169618,131.0169618,131.0169618,131.0169618,131.0169618,131.0169618,131.0169618,131.0169618,,002,P007,2025_Feb_01_1018,CategoryLocalizer,2021.2.3,59.944491400707825,
95.0,95.8,3,0.75,Stimuli\ImageFiles-Set2\Faces\Face_00008.png,0,0,0,144,144,144,,,,,,,,,,,,,94.99940329999936,-0.0005967000006421586,None,131.23376029999963,131.23376029999963,131.23376029999963,131.23376029999963,131.23376029999963,131.23376029999963,131.23376029999963,131.23376029999963,,002,P007,2025_Feb_01_1018,CategoryLocalizer,2021.2.3,59.944491400707825,
95.8,96.0,5,0.0,Stimuli\Blank.png,0,0,0,145,145,145,,,,,,,,,,,,,95.83342999999968,0.03342999999968299,None,132.0344514999997,132.0344514999997,132.0344514999997,132.0344514999997,132.0344514999997,132.0344514999997,132.0344514999997,132.0344514999997,,002,P007,2025_Feb_01_1018,CategoryLocalizer,2021.2.3,59.944491400707825,
96.0,96.8,3,0.75,Stimuli\ImageFiles-Set2\Faces\Face_00070.png,0,0,0,146,146,146,,,,,,,,,,,,,96.00034349999987,0.0003434999998717103,None,132.23463169999923,132.23463169999923,132.23463169999923,132.23463169999923,132.23463169999923,132.23463169999923,132.23463169999923,132.23463169999923,,002,P007,2025_Feb_01_1018,CategoryLocalizer,2021.2.3,59.944491400707825,
96.8,97.0,5,0.0,Stimuli\Blank.png,0,0,0,147,147,147,,,,,,,,,,,,,96.83499839999968,0.034998399999679464,None,133.03533029999926,133.03533029999926,133.03533029999926,133.03533029999926,133.03533029999926,133.03533029999926,133.03533029999926,133.03533029999926,,002,P007,2025_Feb_01_1018,CategoryLocalizer,2021.2.3,59.944491400707825,
97.0,97.8,3,0.75,Stimuli\ImageFiles-Set2\Faces\Face_00092.png,0,0,0,148,148,148,,,,,,,,,,,,,97.0012944,0.001294400000006135,None,133.21885539999948,133.21885539999948,133.21885539999948,133.21885539999948,133.21885539999948,133.21885539999948,133.21885539999948,133.21885539999948,,002,P007,2025_Feb_01_1018,CategoryLocalizer,2021.2.3,59.944491400707825,
97.8,98.0,5,0.0,Stimuli\Blank.png,0,0,0,149,149,149,,,,,,,,,,,,,97.81859899999927,0.01859899999926995,None,134.01953580000009,134.01953580000009,134.01953580000009,134.01953580000009,134.01953580000009,134.01953580000009,134.01953580000009,134.01953580000009,,002,P007,2025_Feb_01_1018,CategoryLocalizer,2021.2.3,59.944491400707825,
98.0,98.8,3,0.75,Stimuli\ImageFiles-Set2\Faces\Face_00094.png,1,1,0,150,150,150,,,,,,,,,,,,,98.00491669999974,0.004916699999739649,None,134.21971269999995,134.21971269999995,134.21971269999995,134.21971269999995,134.21971269999995,134.21971269999995,134.21971269999995,134.21971269999995,,002,P007,2025_Feb_01_1018,CategoryLocalizer,2021.2.3,59.944491400707825,
98.8,99.0,5,0.0,Stimuli\Blank.png,0,0,0,151,151,151,,,,,,,,,,,,,98.81952769999953,0.019527699999528636,None,135.0204279999998,135.0204279999998,135.0204279999998,135.0204279999998,135.0204279999998,135.0204279999998,135.0204279999998,135.0204279999998,,002,P007,2025_Feb_01_1018,CategoryLocalizer,2021.2.3,59.944491400707825,
99.0,99.8,3,0.75,Stimuli\ImageFiles-Set2\Faces\Face_00015.png,0,0,0,152,152,152,,,,,,,,,,,,,99.00375519999943,0.0037551999994320795,None,135.22062519999963,135.22062519999963,135.22062519999963,135.22062519999963,135.22062519999963,135.22062519999963,135.22062519999963,135.22062519999963,,002,P007,2025_Feb_01_1018,CategoryLocalizer,2021.2.3,59.944491400707825,
99.8,100.0,5,0.0,Stimuli\Blank.png,0,0,0,153,153,153,,,,,,,,,,,,,99.8202825999997,0.020282599999703166,None,136.0213063000001,136.0213063000001,136.0213063000001,136.0213063000001,136.0213063000001,136.0213063000001,136.0213063000001,136.0213063000001,,002,P007,2025_Feb_01_1018,CategoryLocalizer,2021.2.3,59.944491400707825,
100.0,100.8,3,0.75,Stimuli\ImageFiles-Set2\Faces\Face_00015.png,0,0,0,154,154,154,,,,,,,,,,,,,100.00393689999964,0.0039368999996440834,2,136.20480809999935,136.20480809999935,136.20480809999935,136.20480809999935,136.20480809999935,136.20480809999935,136.20480809999935,136.20480809999935,0.5720227000001614,002,P007,2025_Feb_01_1018,CategoryLocalizer,2021.2.3,59.944491400707825,
100.8,101.0,5,0.0,Stimuli\Blank.png,0,0,0,155,155,155,,,,,,,,,,,,,100.8052674999999,0.005267499999902725,None,137.0055128999993,137.0055128999993,137.0055128999993,137.0055128999993,137.0055128999993,137.0055128999993,137.0055128999993,137.0055128999993,,002,P007,2025_Feb_01_1018,CategoryLocalizer,2021.2.3,59.944491400707825,
101.0,101.8,3,0.75,Stimuli\ImageFiles-Set2\Faces\Face_00060.png,0,0,0,156,156,156,,,,,,,,,,,,,101.00524749999931,0.005247499999313732,None,137.23909729999923,137.23909729999923,137.23909729999923,137.23909729999923,137.23909729999923,137.23909729999923,137.23909729999923,137.23909729999923,,002,P007,2025_Feb_01_1018,CategoryLocalizer,2021.2.3,59.944491400707825,
101.8,102.0,5,0.0,Stimuli\Blank.png,0,0,0,157,157,157,,,,,,,,,,,,,101.83922709999933,0.039227099999337156,None,138.03976919999968,138.03976919999968,138.03976919999968,138.03976919999968,138.03976919999968,138.03976919999968,138.03976919999968,138.03976919999968,,002,P007,2025_Feb_01_1018,CategoryLocalizer,2021.2.3,59.944491400707825,
102.0,102.8,3,0.75,Stimuli\ImageFiles-Set2\Faces\Face_00026.png,0,0,0,158,158,158,,,,,,,,,,,,,102.0057511999994,0.005751199999394885,None,138.2065724999993,138.2065724999993,138.2065724999993,138.2065724999993,138.2065724999993,138.2065724999993,138.2065724999993,138.2065724999993,,002,P007,2025_Feb_01_1018,CategoryLocalizer,2021.2.3,59.944491400707825,
102.8,103.0,5,0.0,Stimuli\Blank.png,0,0,0,159,159,159,,,,,,,,,,,,,102.80655529999967,0.0065552999996754124,None,139.0073683999999,139.0073683999999,139.0073683999999,139.0073683999999,139.0073683999999,139.0073683999999,139.0073683999999,139.0073683999999,,002,P007,2025_Feb_01_1018,CategoryLocalizer,2021.2.3,59.944491400707825,
103.0,103.8,3,0.75,Stimuli\ImageFiles-Set2\Faces\Face_00084.png,0,0,0,160,160,160,,,,,,,,,,,,,103.00896039999952,0.00896039999952336,None,139.2241473999993,139.2241473999993,139.2241473999993,139.2241473999993,139.2241473999993,139.2241473999993,139.2241473999993,139.2241473999993,,002,P007,2025_Feb_01_1018,CategoryLocalizer,2021.2.3,59.944491400707825,
103.8,104.0,5,0.0,Stimuli\Blank.png,0,0,0,161,161,161,,,,,,,,,,,,,103.82450189999963,0.024501899999634702,None,140.02485259999958,140.02485259999958,140.02485259999958,140.02485259999958,140.02485259999958,140.02485259999958,140.02485259999958,140.02485259999958,,002,P007,2025_Feb_01_1018,CategoryLocalizer,2021.2.3,59.944491400707825,
104.0,104.8,1,0.75,Stimuli\ImageFiles-Set2\Objects\Object_Shovel_00001.png,0,0,0,162,162,162,,,,,,,,,,,,,104.00966009999956,0.009660099999564409,None,140.24173470000005,140.24173470000005,140.24173470000005,140.24173470000005,140.24173470000005,140.24173470000005,140.24173470000005,140.24173470000005,,002,P007,2025_Feb_01_1018,CategoryLocalizer,2021.2.3,59.944491400707825,
104.8,105.0,5,0.0,Stimuli\Blank.png,0,0,0,163,163,163,,,,,,,,,,,,,104.84132369999952,0.041323699999523456,None,141.04241309999998,141.04241309999998,141.04241309999998,141.04241309999998,141.04241309999998,141.04241309999998,141.04241309999998,141.04241309999998,,002,P007,2025_Feb_01_1018,CategoryLocalizer,2021.2.3,59.944491400707825,
105.0,105.8,1,0.75,Stimuli\ImageFiles-Set2\Objects\Object_Perfume_00001.png,0,0,0,164,164,164,,,,,,,,,,,,,105.0092311999997,0.009231199999703676,None,141.22593749999942,141.22593749999942,141.22593749999942,141.22593749999942,141.22593749999942,141.22593749999942,141.22593749999942,141.22593749999942,,002,P007,2025_Feb_01_1018,CategoryLocalizer,2021.2.3,59.944491400707825,
105.8,106.0,5,0.0,Stimuli\Blank.png,0,0,0,165,165,165,,,,,,,,,,,,,105.8257595999994,0.025759599999403804,None,142.0266173,142.0266173,142.0266173,142.0266173,142.0266173,142.0266173,142.0266173,142.0266173,,002,P007,2025_Feb_01_1018,CategoryLocalizer,2021.2.3,59.944491400707825,
106.0,106.8,1,0.75,Stimuli\ImageFiles-Set2\Objects\Object_Bolt_00001.png,0,0,0,166,166,166,,,,,,,,,,,,,106.00965599999927,0.009655999999267806,None,142.22682739999982,142.22682739999982,142.22682739999982,142.22682739999982,142.22682739999982,142.22682739999982,142.22682739999982,142.22682739999982,,002,P007,2025_Feb_01_1018,CategoryLocalizer,2021.2.3,59.944491400707825,
106.8,107.0,5,0.0,Stimuli\Blank.png,0,0,0,167,167,167,,,,,,,,,,,,,106.82761929999924,0.027619299999244618,None,143.02750259999993,143.02750259999993,143.02750259999993,143.02750259999993,143.02750259999993,143.02750259999993,143.02750259999993,143.02750259999993,,002,P007,2025_Feb_01_1018,CategoryLocalizer,2021.2.3,59.944491400707825,
107.0,107.8,1,0.75,Stimuli\ImageFiles-Set2\Objects\Object_Bicycle_00001.png,0,0,0,168,168,168,,,,,,,,,,,,,107.01074999999946,0.01074999999946158,None,143.21101980000003,143.21101980000003,143.21101980000003,143.21101980000003,143.21101980000003,143.21101980000003,143.21101980000003,143.21101980000003,,002,P007,2025_Feb_01_1018,CategoryLocalizer,2021.2.3,59.944491400707825,
107.8,108.0,5,0.0,Stimuli\Blank.png,0,0,0,169,169,169,,,,,,,,,,,,,107.81074139999964,0.010741399999645296,None,144.0117051999996,144.0117051999996,144.0117051999996,144.0117051999996,144.0117051999996,144.0117051999996,144.0117051999996,144.0117051999996,,002,P007,2025_Feb_01_1018,CategoryLocalizer,2021.2.3,59.944491400707825,
108.0,108.8,1,0.75,Stimuli\ImageFiles-Set2\Objects\Object_Keyboard_00001.png,0,0,0,170,170,170,,,,,,,,,,,,,108.01147199999923,0.01147199999923032,None,144.21188389999952,144.21188389999952,144.21188389999952,144.21188389999952,144.21188389999952,144.21188389999952,144.21188389999952,144.21188389999952,,002,P007,2025_Feb_01_1018,CategoryLocalizer,2021.2.3,59.944491400707825,
108.8,109.0,5,0.0,Stimuli\Blank.png,0,0,0,171,171,171,,,,,,,,,,,,,108.81164759999956,0.011647599999562885,None,145.0125954999994,145.0125954999994,145.0125954999994,145.0125954999994,145.0125954999994,145.0125954999994,145.0125954999994,145.0125954999994,,002,P007,2025_Feb_01_1018,CategoryLocalizer,2021.2.3,59.944491400707825,
109.0,109.8,1,0.75,Stimuli\ImageFiles-Set2\Objects\Object_Jar_00001.png,0,0,0,172,172,172,,,,,,,,,,,,,109.0139922999997,0.013992299999699753,None,145.24613229999977,145.24613229999977,145.24613229999977,145.24613229999977,145.24613229999977,145.24613229999977,145.24613229999977,145.24613229999977,,002,P007,2025_Feb_01_1018,CategoryLocalizer,2021.2.3,59.944491400707825,
109.8,110.0,5,0.0,Stimuli\Blank.png,0,0,0,173,173,173,,,,,,,,,,,,,109.84646649999922,0.046466499999226585,None,146.04685339999924,146.04685339999924,146.04685339999924,146.04685339999924,146.04685339999924,146.04685339999924,146.04685339999924,146.04685339999924,,002,P007,2025_Feb_01_1018,CategoryLocalizer,2021.2.3,59.944491400707825,
110.0,110.8,1,0.75,Stimuli\ImageFiles-Set2\Objects\Object_Ambulance_00001.png,0,0,0,174,174,174,,,,,,,,,,,,,110.01337299999977,0.013372999999774038,None,146.24704349999956,146.24704349999956,146.24704349999956,146.24704349999956,146.24704349999956,146.24704349999956,146.24704349999956,146.24704349999956,,002,P007,2025_Feb_01_1018,CategoryLocalizer,2021.2.3,59.944491400707825,
110.8,111.0,5,0.0,Stimuli\Blank.png,0,0,0,175,175,175,,,,,,,,,,,,,110.84663099999943,0.04663099999943654,None,147.04773440000008,147.04773440000008,147.04773440000008,147.04773440000008,147.04773440000008,147.04773440000008,147.04773440000008,147.04773440000008,,002,P007,2025_Feb_01_1018,CategoryLocalizer,2021.2.3,59.944491400707825,
111.0,111.8,1,0.75,Stimuli\ImageFiles-Set2\Objects\Object_Lock_00001.png,0,0,0,176,176,176,,,,,,,,,,,,,111.01463819999935,0.014638199999353674,None,147.24790549999943,147.24790549999943,147.24790549999943,147.24790549999943,147.24790549999943,147.24790549999943,147.24790549999943,147.24790549999943,,002,P007,2025_Feb_01_1018,CategoryLocalizer,2021.2.3,59.944491400707825,
111.8,112.0,5,0.0,Stimuli\Blank.png,0,0,0,177,177,177,,,,,,,,,,,,,111.85021169999982,0.05021169999982078,None,148.0653026,148.0653026,148.0653026,148.0653026,148.0653026,148.0653026,148.0653026,148.0653026,,002,P007,2025_Feb_01_1018,CategoryLocalizer,2021.2.3,59.944491400707825,
112.0,112.8,1,0.75,Stimuli\ImageFiles-Set2\Objects\Object_Hat_00001.png,0,0,0,178,178,178,,,,,,,,,,,,,112.01462790000005,0.014627900000050431,None,148.2321693999993,148.2321693999993,148.2321693999993,148.2321693999993,148.2321693999993,148.2321693999993,148.2321693999993,148.2321693999993,,002,P007,2025_Feb_01_1018,CategoryLocalizer,2021.2.3,59.944491400707825,
112.8,113.0,5,0.0,Stimuli\Blank.png,0,0,0,179,179,179,,,,,,,,,,,,,112.83398039999975,0.033980399999748556,None,149.04964419999942,149.04964419999942,149.04964419999942,149.04964419999942,149.04964419999942,149.04964419999942,149.04964419999942,149.04964419999942,,002,P007,2025_Feb_01_1018,CategoryLocalizer,2021.2.3,59.944491400707825,
113.0,113.8,1,0.75,Stimuli\ImageFiles-Set2\Objects\Object_Hat_00001.png,1,1,0,180,180,180,,,,,,,,,,,,,113.01614789999985,0.01614789999985078,2,149.2330050999999,149.2330050999999,149.2330050999999,149.2330050999999,149.2330050999999,149.2330050999999,149.2330050999999,149.2330050999999,0.4701215000004595,002,P007,2025_Feb_01_1018,CategoryLocalizer,2021.2.3,59.944491400707825,
113.8,114.0,5,0.0,Stimuli\Blank.png,0,0,0,181,181,181,,,,,,,,,,,,,113.81872569999996,0.018725699999961876,None,150.03374669999994,150.03374669999994,150.03374669999994,150.03374669999994,150.03374669999994,150.03374669999994,150.03374669999994,150.03374669999994,,002,P007,2025_Feb_01_1018,CategoryLocalizer,2021.2.3,59.944491400707825,
114.0,114.8,1,0.75,Stimuli\ImageFiles-Set2\Objects\Object_Ladder_00001.png,0,0,0,182,182,182,,,,,,,,,,,,,114.01626809999925,0.016268099999251717,None,150.21719479999956,150.21719479999956,150.21719479999956,150.21719479999956,150.21719479999956,150.21719479999956,150.21719479999956,150.21719479999956,,002,P007,2025_Feb_01_1018,CategoryLocalizer,2021.2.3,59.944491400707825,
114.8,115.0,5,0.0,Stimuli\Blank.png,0,0,0,183,183,183,,,,,,,,,,,,,114.80024799999956,0.0002479999995586013,None,151.00122589999955,151.00122589999955,151.00122589999955,151.00122589999955,151.00122589999955,151.00122589999955,151.00122589999955,151.00122589999955,,002,P007,2025_Feb_01_1018,CategoryLocalizer,2021.2.3,59.944491400707825,
115.0,115.8,1,0.75,Stimuli\ImageFiles-Set2\Objects\Object_Fork_00001.png,0,0,0,184,184,184,,,,,,,,,,,,,115.00114659999963,0.001146599999628961,None,151.20139909999943,151.20139909999943,151.20139909999943,151.20139909999943,151.20139909999943,151.20139909999943,151.20139909999943,151.20139909999943,,002,P007,2025_Feb_01_1018,CategoryLocalizer,2021.2.3,59.944491400707825,
115.8,116.0,5,0.0,Stimuli\Blank.png,0,0,0,185,185,185,,,,,,,,,,,,,115.80381169999964,0.003811699999644702,None,152.01882489999934,152.01882489999934,152.01882489999934,152.01882489999934,152.01882489999934,152.01882489999934,152.01882489999934,152.01882489999934,,002,P007,2025_Feb_01_1018,CategoryLocalizer,2021.2.3,59.944491400707825,
116.0,116.8,1,0.75,Stimuli\ImageFiles-Set2\Objects\Object_Grill_00001.png,0,0,0,186,186,186,,,,,,,,,,,,,116.01855249999971,0.0185524999997142,None,152.23567659999935,152.23567659999935,152.23567659999935,152.23567659999935,152.23567659999935,152.23567659999935,152.23567659999935,152.23567659999935,,002,P007,2025_Feb_01_1018,CategoryLocalizer,2021.2.3,59.944491400707825,
116.8,117.0,5,0.0,Stimuli\Blank.png,0,0,0,187,187,187,,,,,,,,,,,,,116.8197295,0.019729499999996847,None,153.01968009999928,153.01968009999928,153.01968009999928,153.01968009999928,153.01968009999928,153.01968009999928,153.01968009999928,153.01968009999928,,002,P007,2025_Feb_01_1018,CategoryLocalizer,2021.2.3,59.944491400707825,
117.0,117.8,1,0.75,Stimuli\ImageFiles-Set2\Objects\Object_Glass_00001.png,0,0,0,188,188,188,,,,,,,,,,,,,117.00265549999949,0.0026554999994914397,None,153.21985159999986,153.21985159999986,153.21985159999986,153.21985159999986,153.21985159999986,153.21985159999986,153.21985159999986,153.21985159999986,,002,P007,2025_Feb_01_1018,CategoryLocalizer,2021.2.3,59.944491400707825,
117.8,118.0,5,0.0,Stimuli\Blank.png,0,0,0,189,189,189,,,,,,,,,,,,,117.82029599999987,0.02029599999987397,None,154.0205576999997,154.0205576999997,154.0205576999997,154.0205576999997,154.0205576999997,154.0205576999997,154.0205576999997,154.0205576999997,,002,P007,2025_Feb_01_1018,CategoryLocalizer,2021.2.3,59.944491400707825,
118.0,118.8,1,0.75,Stimuli\ImageFiles-Set2\Objects\Object_Barrel_00001.png,0,0,0,190,190,190,,,,,,,,,,,,,118.00368639999942,0.003686399999423884,None,154.22073909999926,154.22073909999926,154.22073909999926,154.22073909999926,154.22073909999926,154.22073909999926,154.22073909999926,154.22073909999926,,002,P007,2025_Feb_01_1018,CategoryLocalizer,2021.2.3,59.944491400707825,
118.8,119.0,5,0.0,Stimuli\Blank.png,0,0,0,191,191,191,,,,,,,,,,,,,118.82077879999997,0.020778799999973785,None,155.02147100000002,155.02147100000002,155.02147100000002,155.02147100000002,155.02147100000002,155.02147100000002,155.02147100000002,155.02147100000002,,002,P007,2025_Feb_01_1018,CategoryLocalizer,2021.2.3,59.944491400707825,
119.0,119.8,1,0.75,Stimuli\ImageFiles-Set2\Objects\Object_Coffee_00001.png,0,0,0,192,192,192,,,,,,,,,,,,,119.00453209999978,0.004532099999778438,None,155.22163699999965,155.22163699999965,155.22163699999965,155.22163699999965,155.22163699999965,155.22163699999965,155.22163699999965,155.22163699999965,,002,P007,2025_Feb_01_1018,CategoryLocalizer,2021.2.3,59.944491400707825,
119.8,120.0,5,0.0,Stimuli\Blank.png,0,0,0,193,193,193,,,,,,,,,,,,,119.8220397999994,0.022039799999404863,None,156.02235440000004,156.02235440000004,156.02235440000004,156.02235440000004,156.02235440000004,156.02235440000004,156.02235440000004,156.02235440000004,,002,P007,2025_Feb_01_1018,CategoryLocalizer,2021.2.3,59.944491400707825,
120.0,120.8,4,0.75,Stimuli\ImageFiles-Set2\Scenes\Scenes_086.png,0,0,0,194,194,194,,,,,,,,,,,,,120.00556049999977,0.005560499999774038,None,156.23918569999933,156.23918569999933,156.23918569999933,156.23918569999933,156.23918569999933,156.23918569999933,156.23918569999933,156.23918569999933,,002,P007,2025_Feb_01_1018,CategoryLocalizer,2021.2.3,59.944491400707825,
120.8,121.0,5,0.0,Stimuli\Blank.png,0,0,0,195,195,195,,,,,,,,,,,,,120.83908279999923,0.03908279999923536,None,157.0398937,157.0398937,157.0398937,157.0398937,157.0398937,157.0398937,157.0398937,157.0398937,,002,P007,2025_Feb_01_1018,CategoryLocalizer,2021.2.3,59.944491400707825,
121.0,121.8,4,0.75,Stimuli\ImageFiles-Set2\Scenes\Scenes_068.png,0,0,0,196,196,196,,,,,,,,,,,,,121.00641019999966,0.006410199999663746,None,157.24007979999988,157.24007979999988,157.24007979999988,157.24007979999988,157.24007979999988,157.24007979999988,157.24007979999988,157.24007979999988,,002,P007,2025_Feb_01_1018,CategoryLocalizer,2021.2.3,59.944491400707825,
121.8,122.0,5,0.0,Stimuli\Blank.png,0,0,0,197,197,197,,,,,,,,,,,,,121.83983360000002,0.039833600000022784,None,158.0407878999995,158.0407878999995,158.0407878999995,158.0407878999995,158.0407878999995,158.0407878999995,158.0407878999995,158.0407878999995,,002,P007,2025_Feb_01_1018,CategoryLocalizer,2021.2.3,59.944491400707825,
122.0,122.8,4,0.75,Stimuli\ImageFiles-Set2\Scenes\Scenes_070.png,0,0,0,198,198,198,,,,,,,,,,,,,122.00700379999944,0.007003799999438343,None,158.22429399999965,158.22429399999965,158.22429399999965,158.22429399999965,158.22429399999965,158.22429399999965,158.22429399999965,158.22429399999965,,002,P007,2025_Feb_01_1018,CategoryLocalizer,2021.2.3,59.944491400707825,
122.8,123.0,5,0.0,Stimuli\Blank.png,0,0,0,199,199,199,,,,,,,,,,,,,122.82455129999926,0.024551299999259868,None,159.02499360000002,159.02499360000002,159.02499360000002,159.02499360000002,159.02499360000002,159.02499360000002,159.02499360000002,159.02499360000002,,002,P007,2025_Feb_01_1018,CategoryLocalizer,2021.2.3,59.944491400707825,
123.0,123.8,4,0.75,Stimuli\ImageFiles-Set2\Scenes\Scenes_089.png,0,0,0,200,200,200,,,,,,,,,,,,,123.0083009,0.008300899999994726,None,159.24187389999952,159.24187389999952,159.24187389999952,159.24187389999952,159.24187389999952,159.24187389999952,159.24187389999952,159.24187389999952,,002,P007,2025_Feb_01_1018,CategoryLocalizer,2021.2.3,59.944491400707825,
123.8,124.0,5,0.0,Stimuli\Blank.png,0,0,0,201,201,201,,,,,,,,,,,,,123.84371469999951,0.04371469999951216,None,160.0592700999996,160.0592700999996,160.0592700999996,160.0592700999996,160.0592700999996,160.0592700999996,160.0592700999996,160.0592700999996,,002,P007,2025_Feb_01_1018,CategoryLocalizer,2021.2.3,59.944491400707825,
124.0,124.8,4,0.75,Stimuli\ImageFiles-Set2\Scenes\Scenes_064.png,0,0,0,202,202,202,,,,,,,,,,,,,124.02524519999952,0.025245199999517354,None,160.2427674999999,160.2427674999999,160.2427674999999,160.2427674999999,160.2427674999999,160.2427674999999,160.2427674999999,160.2427674999999,,002,P007,2025_Feb_01_1018,CategoryLocalizer,2021.2.3,59.944491400707825,
124.8,125.0,5,0.0,Stimuli\Blank.png,0,0,0,203,203,203,,,,,,,,,,,,,124.82630169999993,0.026301699999933703,None,161.02676079999947,161.02676079999947,161.02676079999947,161.02676079999947,161.02676079999947,161.02676079999947,161.02676079999947,161.02676079999947,,002,P007,2025_Feb_01_1018,CategoryLocalizer,2021.2.3,59.944491400707825,
125.0,125.8,4,0.75,Stimuli\ImageFiles-Set2\Scenes\Scenes_064.png,1,1,0,204,204,204,,,,,,,,,,,,,125.0098782999994,0.009878299999400042,None,161.22695719999956,161.22695719999956,161.22695719999956,161.22695719999956,161.22695719999956,161.22695719999956,161.22695719999956,161.22695719999956,,002,P007,2025_Feb_01_1018,CategoryLocalizer,2021.2.3,59.944491400707825,
125.8,126.0,5,0.0,Stimuli\Blank.png,0,0,0,205,205,205,,,,,,,,,,,,,125.82702639999934,0.027026399999343198,None,162.02773869999965,162.02773869999965,162.02773869999965,162.02773869999965,162.02773869999965,162.02773869999965,162.02773869999965,162.02773869999965,,002,P007,2025_Feb_01_1018,CategoryLocalizer,2021.2.3,59.944491400707825,
126.0,126.8,4,0.75,Stimuli\ImageFiles-Set2\Scenes\Scenes_107.png,0,0,0,206,206,206,,,,,,,,,,,,,126.0106421999999,0.01064219999989291,None,162.22782239999924,162.22782239999924,162.22782239999924,162.22782239999924,162.22782239999924,162.22782239999924,162.22782239999924,162.22782239999924,,002,P007,2025_Feb_01_1018,CategoryLocalizer,2021.2.3,59.944491400707825,
126.8,127.0,5,0.0,Stimuli\Blank.png,0,0,0,207,207,207,,,,,,,,,,,,,126.82854279999992,0.028542799999925705,None,163.02853950000008,163.02853950000008,163.02853950000008,163.02853950000008,163.02853950000008,163.02853950000008,163.02853950000008,163.02853950000008,,002,P007,2025_Feb_01_1018,CategoryLocalizer,2021.2.3,59.944491400707825,
127.0,127.8,4,0.75,Stimuli\ImageFiles-Set2\Scenes\Scenes_088.png,0,0,0,208,208,208,,,,,,,,,,,,,127.01098759999968,0.010987599999680242,None,163.22871269999996,163.22871269999996,163.22871269999996,163.22871269999996,163.22871269999996,163.22871269999996,163.22871269999996,163.22871269999996,,002,P007,2025_Feb_01_1018,CategoryLocalizer,2021.2.3,59.944491400707825,
127.8,128.0,5,0.0,Stimuli\Blank.png,0,0,0,209,209,209,,,,,,,,,,,,,127.82930029999989,0.029300299999889035,None,164.02940979999948,164.02940979999948,164.02940979999948,164.02940979999948,164.02940979999948,164.02940979999948,164.02940979999948,164.02940979999948,,002,P007,2025_Feb_01_1018,CategoryLocalizer,2021.2.3,59.944491400707825,
128.0,128.8,4,0.75,Stimuli\ImageFiles-Set2\Scenes\Scenes_063.png,0,0,0,210,210,210,,,,,,,,,,,,,128.01278449999973,0.012784499999725085,None,164.22958999999992,164.22958999999992,164.22958999999992,164.22958999999992,164.22958999999992,164.22958999999992,164.22958999999992,164.22958999999992,,002,P007,2025_Feb_01_1018,CategoryLocalizer,2021.2.3,59.944491400707825,
128.8,129.0,5,0.0,Stimuli\Blank.png,0,0,0,211,211,211,,,,,,,,,,,,,128.8298161999992,0.02981619999917484,None,165.03030020000006,165.03030020000006,165.03030020000006,165.03030020000006,165.03030020000006,165.03030020000006,165.03030020000006,165.03030020000006,,002,P007,2025_Feb_01_1018,CategoryLocalizer,2021.2.3,59.944491400707825,
129.0,129.8,4,0.75,Stimuli\ImageFiles-Set2\Scenes\Scenes_074.png,0,0,0,212,212,212,,,,,,,,,,,,,129.01431709999997,0.014317099999971106,None,165.23050329999933,165.23050329999933,165.23050329999933,165.23050329999933,165.23050329999933,165.23050329999933,165.23050329999933,165.23050329999933,,002,P007,2025_Feb_01_1018,CategoryLocalizer,2021.2.3,59.944491400707825,
129.8,130.0,5,0.0,Stimuli\Blank.png,0,0,0,213,213,213,,,,,,,,,,,,,129.83016079999925,0.030160799999237042,None,166.0311789999996,166.0311789999996,166.0311789999996,166.0311789999996,166.0311789999996,166.0311789999996,166.0311789999996,166.0311789999996,,002,P007,2025_Feb_01_1018,CategoryLocalizer,2021.2.3,59.944491400707825,
130.0,130.8,4,0.75,Stimuli\ImageFiles-Set2\Scenes\Scenes_095.png,1,1,0,214,214,214,,,,,,,,,,,,,130.01420179999968,0.014201799999682407,None,166.24804529999983,166.24804529999983,166.24804529999983,166.24804529999983,166.24804529999983,166.24804529999983,166.24804529999983,166.24804529999983,,002,P007,2025_Feb_01_1018,CategoryLocalizer,2021.2.3,59.944491400707825,
130.8,131.0,5,0.0,Stimuli\Blank.png,0,0,0,215,215,215,,,,,,,,,,,,,130.85091589999956,0.05091589999955204,None,167.06558159999986,167.06558159999986,167.06558159999986,167.06558159999986,167.06558159999986,167.06558159999986,167.06558159999986,167.06558159999986,,002,P007,2025_Feb_01_1018,CategoryLocalizer,2021.2.3,59.944491400707825,
131.0,131.8,4,0.75,Stimuli\ImageFiles-Set2\Scenes\Scenes_100.png,0,0,0,216,216,216,,,,,,,,,,,,,131.0152193999993,0.015219399999296002,None,167.24901129999944,167.24901129999944,167.24901129999944,167.24901129999944,167.24901129999944,167.24901129999944,167.24901129999944,167.24901129999944,,002,P007,2025_Feb_01_1018,CategoryLocalizer,2021.2.3,59.944491400707825,
131.8,132.0,5,0.0,Stimuli\Blank.png,0,0,0,217,217,217,,,,,,,,,,,,,131.83370859999923,0.033708599999215494,None,168.04967549999947,168.04967549999947,168.04967549999947,168.04967549999947,168.04967549999947,168.04967549999947,168.04967549999947,168.04967549999947,,002,P007,2025_Feb_01_1018,CategoryLocalizer,2021.2.3,59.944491400707825,
132.0,132.8,4,0.75,Stimuli\ImageFiles-Set2\Scenes\Scenes_100.png,0,0,0,218,218,218,,,,,,,,,,,,,132.01574129999972,0.01574129999971774,2,168.21644599999945,168.21644599999945,168.21644599999945,168.21644599999945,168.21644599999945,168.21644599999945,168.21644599999945,168.21644599999945,0.45151929999974527,002,P007,2025_Feb_01_1018,CategoryLocalizer,2021.2.3,59.944491400707825,
132.8,133.0,5,0.0,Stimuli\Blank.png,0,0,0,219,219,219,,,,,,,,,,,,,132.79954149999958,-0.0004585000004340145,None,169.00048069999957,169.00048069999957,169.00048069999957,169.00048069999957,169.00048069999957,169.00048069999957,169.00048069999957,169.00048069999957,,002,P007,2025_Feb_01_1018,CategoryLocalizer,2021.2.3,59.944491400707825,
133.0,133.8,4,0.75,Stimuli\ImageFiles-Set2\Scenes\Scenes_067.png,0,0,0,220,220,220,,,,,,,,,,,,,132.99949879999986,-0.0005012000001443084,None,169.21735209999952,169.21735209999952,169.21735209999952,169.21735209999952,169.21735209999952,169.21735209999952,169.21735209999952,169.21735209999952,,002,P007,2025_Feb_01_1018,CategoryLocalizer,2021.2.3,59.944491400707825,
133.8,134.0,5,0.0,Stimuli\Blank.png,0,0,0,221,221,221,,,,,,,,,,,,,133.81864569999925,0.01864569999924015,None,170.03475949999938,170.03475949999938,170.03475949999938,170.03475949999938,170.03475949999938,170.03475949999938,170.03475949999938,170.03475949999938,,002,P007,2025_Feb_01_1018,CategoryLocalizer,2021.2.3,59.944491400707825,
134.0,134.8,4,0.75,Stimuli\ImageFiles-Set2\Scenes\Scenes_102.png,0,0,0,222,222,222,,,,,,,,,,,,,134.01768259999972,0.01768259999971633,None,170.23489829999926,170.23489829999926,170.23489829999926,170.23489829999926,170.23489829999926,170.23489829999926,170.23489829999926,170.23489829999926,,002,P007,2025_Feb_01_1018,CategoryLocalizer,2021.2.3,59.944491400707825,
134.8,135.0,5,0.0,Stimuli\Blank.png,0,0,0,223,223,223,,,,,,,,,,,,,134.8194395999999,0.01943959999988465,None,171.0189262999993,171.0189262999993,171.0189262999993,171.0189262999993,171.0189262999993,171.0189262999993,171.0189262999993,171.0189262999993,,002,P007,2025_Feb_01_1018,CategoryLocalizer,2021.2.3,59.944491400707825,
135.0,135.8,4,0.75,Stimuli\ImageFiles-Set2\Scenes\Scenes_061.png,0,0,0,224,224,224,,,,,,,,,,,,,135.0029096999997,0.002909699999690929,None,171.2357822999993,171.2357822999993,171.2357822999993,171.2357822999993,171.2357822999993,171.2357822999993,171.2357822999993,171.2357822999993,,002,P007,2025_Feb_01_1018,CategoryLocalizer,2021.2.3,59.944491400707825,
135.8,136.0,5,0.0,Stimuli\Blank.png,0,0,0,225,225,225,,,,,,,,,,,,,135.83622519999972,0.03622519999970564,None,172.03649210000003,172.03649210000003,172.03649210000003,172.03649210000003,172.03649210000003,172.03649210000003,172.03649210000003,172.03649210000003,,002,P007,2025_Feb_01_1018,CategoryLocalizer,2021.2.3,59.944491400707825,
136.0,136.8,2,0.75,Stimuli\ImageFiles-Set2\Bodies\Bodies_Falling_00003.png,0,0,0,226,226,226,,,,,,,,,,,,,136.00471909999942,0.004719099999419996,None,172.21996709999985,172.21996709999985,172.21996709999985,172.21996709999985,172.21996709999985,172.21996709999985,172.21996709999985,172.21996709999985,,002,P007,2025_Feb_01_1018,CategoryLocalizer,2021.2.3,59.944491400707825,
136.8,137.0,5,0.0,Stimuli\Blank.png,0,0,0,227,227,227,,,,,,,,,,,,,136.81975179999972,0.01975179999971033,None,173.0207051999996,173.0207051999996,173.0207051999996,173.0207051999996,173.0207051999996,173.0207051999996,173.0207051999996,173.0207051999996,,002,P007,2025_Feb_01_1018,CategoryLocalizer,2021.2.3,59.944491400707825,
137.0,137.8,2,0.75,Stimuli\ImageFiles-Set2\Bodies\Bodies_Falling_00003.png,1,1,0,228,228,228,,,,,,,,,,,,,137.0035355,0.0035354999999981374,2,173.20419069999934,173.20419069999934,173.20419069999934,173.20419069999934,173.20419069999934,173.20419069999934,173.20419069999934,173.20419069999934,0.39281990000017686,002,P007,2025_Feb_01_1018,CategoryLocalizer,2021.2.3,59.944491400707825,
137.8,138.0,5,0.0,Stimuli\Blank.png,0,0,0,229,229,229,,,,,,,,,,,,,137.8045459999994,0.004545999999379546,None,174.00491209999927,174.00491209999927,174.00491209999927,174.00491209999927,174.00491209999927,174.00491209999927,174.00491209999927,174.00491209999927,,002,P007,2025_Feb_01_1018,CategoryLocalizer,2021.2.3,59.944491400707825,
138.0,138.8,2,0.75,Stimuli\ImageFiles-Set2\Bodies\Bodies_Standing_00002.png,0,0,0,230,230,230,,,,,,,,,,,,,138.00486779999937,0.004867799999374256,None,174.22172469999987,174.22172469999987,174.22172469999987,174.22172469999987,174.22172469999987,174.22172469999987,174.22172469999987,174.22172469999987,,002,P007,2025_Feb_01_1018,CategoryLocalizer,2021.2.3,59.944491400707825,
138.8,139.0,5,0.0,Stimuli\Blank.png,0,0,0,231,231,231,,,,,,,,,,,,,138.8241541999996,0.024154199999600223,None,175.0391964999999,175.0391964999999,175.0391964999999,175.0391964999999,175.0391964999999,175.0391964999999,175.0391964999999,175.0391964999999,,002,P007,2025_Feb_01_1018,CategoryLocalizer,2021.2.3,59.944491400707825,
139.0,139.8,2,0.75,Stimuli\ImageFiles-Set2\Bodies\Bodies_Punching_00005.png,0,0,0,232,232,232,,,,,,,,,,,,,139.02395869999964,0.023958699999639066,None,175.25601619999998,175.25601619999998,175.25601619999998,175.25601619999998,175.25601619999998,175.25601619999998,175.25601619999998,175.25601619999998,,002,P007,2025_Feb_01_1018,CategoryLocalizer,2021.2.3,59.944491400707825,
139.8,140.0,5,0.0,Stimuli\Blank.png,0,0,0,233,233,233,,,,,,,,,,,,,139.83921839999948,0.039218399999469966,None,176.0400314999997,176.0400314999997,176.0400314999997,176.0400314999997,176.0400314999997,176.0400314999997,176.0400314999997,176.0400314999997,,002,P007,2025_Feb_01_1018,CategoryLocalizer,2021.2.3,59.944491400707825,
140.0,140.8,2,0.75,Stimuli\ImageFiles-Set2\Bodies\Bodies_Waving_00004.png,0,0,0,234,234,234,,,,,,,,,,,,,140.00617039999997,0.006170399999973597,None,176.24021719999928,176.24021719999928,176.24021719999928,176.24021719999928,176.24021719999928,176.24021719999928,176.24021719999928,176.24021719999928,,002,P007,2025_Feb_01_1018,CategoryLocalizer,2021.2.3,59.944491400707825,
140.8,141.0,5,0.0,Stimuli\Blank.png,0,0,0,235,235,235,,,,,,,,,,,,,140.84059569999954,0.04059569999952828,None,177.04092020000007,177.04092020000007,177.04092020000007,177.04092020000007,177.04092020000007,177.04092020000007,177.04092020000007,177.04092020000007,,002,P007,2025_Feb_01_1018,CategoryLocalizer,2021.2.3,59.944491400707825,
141.0,141.8,2,0.75,Stimuli\ImageFiles-Set2\Bodies\Bodies_Hanging_00001.png,0,0,0,236,236,236,,,,,,,,,,,,,141.00667889999932,0.0066788999993150355,None,177.22445509999943,177.22445509999943,177.22445509999943,177.22445509999943,177.22445509999943,177.22445509999943,177.22445509999943,177.22445509999943,,002,P007,2025_Feb_01_1018,CategoryLocalizer,2021.2.3,59.944491400707825,
141.8,142.0,5,0.0,Stimuli\Blank.png,0,0,0,237,237,237,,,,,,,,,,,,,141.82471149999947,0.0247114999994551,None,178.02513199999976,178.02513199999976,178.02513199999976,178.02513199999976,178.02513199999976,178.02513199999976,178.02513199999976,178.02513199999976,,002,P007,2025_Feb_01_1018,CategoryLocalizer,2021.2.3,59.944491400707825,
142.0,142.8,2,0.75,Stimuli\ImageFiles-Set2\Bodies\Bodies_Crawling_00004.png,0,0,0,238,238,238,,,,,,,,,,,,,142.00768179999977,0.00768179999977292,None,178.2253256999993,178.2253256999993,178.2253256999993,178.2253256999993,178.2253256999993,178.2253256999993,178.2253256999993,178.2253256999993,,002,P007,2025_Feb_01_1018,CategoryLocalizer,2021.2.3,59.944491400707825,
142.8,143.0,5,0.0,Stimuli\Blank.png,0,0,0,239,239,239,,,,,,,,,,,,,142.8258533999997,0.02585339999967573,None,179.02600769999935,179.02600769999935,179.02600769999935,179.02600769999935,179.02600769999935,179.02600769999935,179.02600769999935,179.02600769999935,,002,P007,2025_Feb_01_1018,CategoryLocalizer,2021.2.3,59.944491400707825,
143.0,143.8,2,0.75,Stimuli\ImageFiles-Set2\Bodies\Bodies_Falling_00001.png,0,0,0,240,240,240,,,,,,,,,,,,,143.00941609999973,0.009416099999725702,None,179.22620629999983,179.22620629999983,179.22620629999983,179.22620629999983,179.22620629999983,179.22620629999983,179.22620629999983,179.22620629999983,,002,P007,2025_Feb_01_1018,CategoryLocalizer,2021.2.3,59.944491400707825,
143.8,144.0,5,0.0,Stimuli\Blank.png,0,0,0,241,241,241,,,,,,,,,,,,,143.82607439999992,0.026074399999913567,None,180.02689719999944,180.02689719999944,180.02689719999944,180.02689719999944,180.02689719999944,180.02689719999944,180.02689719999944,180.02689719999944,,002,P007,2025_Feb_01_1018,CategoryLocalizer,2021.2.3,59.944491400707825,
144.0,144.8,2,0.75,Stimuli\ImageFiles-Set2\Bodies\Bodies_PushUp_00001.png,0,0,0,242,242,242,,,,,,,,,,,,,144.00925889999962,0.009258899999622372,None,180.22709320000013,180.22709320000013,180.22709320000013,180.22709320000013,180.22709320000013,180.22709320000013,180.22709320000013,180.22709320000013,,002,P007,2025_Feb_01_1018,CategoryLocalizer,2021.2.3,59.944491400707825,
144.8,145.0,5,0.0,Stimuli\Blank.png,0,0,0,243,243,243,,,,,,,,,,,,,144.82859019999978,0.028590199999769084,None,181.04448439999942,181.04448439999942,181.04448439999942,181.04448439999942,181.04448439999942,181.04448439999942,181.04448439999942,181.04448439999942,,002,P007,2025_Feb_01_1018,CategoryLocalizer,2021.2.3,59.944491400707825,
145.0,145.8,2,0.75,Stimuli\ImageFiles-Set2\Bodies\Bodies_Kicking_00004.png,1,1,0,244,244,244,,,,,,,,,,,,,145.02840059999926,0.028400599999258702,None,181.24464869999974,181.24464869999974,181.24464869999974,181.24464869999974,181.24464869999974,181.24464869999974,181.24464869999974,181.24464869999974,,002,P007,2025_Feb_01_1018,CategoryLocalizer,2021.2.3,59.944491400707825,
145.8,146.0,5,0.0,Stimuli\Blank.png,0,0,0,245,245,245,,,,,,,,,,,,,145.8282421999993,0.028242199999283457,None,182.0286655,182.0286655,182.0286655,182.0286655,182.0286655,182.0286655,182.0286655,182.0286655,,002,P007,2025_Feb_01_1018,CategoryLocalizer,2021.2.3,59.944491400707825,
146.0,146.8,2,0.75,Stimuli\ImageFiles-Set2\Bodies\Bodies_Jumping_00005.png,0,0,0,246,246,246,,,,,,,,,,,,,146.0111382999994,0.01113829999940208,None,182.22886219999964,182.22886219999964,182.22886219999964,182.22886219999964,182.22886219999964,182.22886219999964,182.22886219999964,182.22886219999964,,002,P007,2025_Feb_01_1018,CategoryLocalizer,2021.2.3,59.944491400707825,
146.8,147.0,5,0.0,Stimuli\Blank.png,0,0,0,247,247,247,,,,,,,,,,,,,146.82946339999944,0.02946339999942893,None,183.02957029999925,183.02957029999925,183.02957029999925,183.02957029999925,183.02957029999925,183.02957029999925,183.02957029999925,183.02957029999925,,002,P007,2025_Feb_01_1018,CategoryLocalizer,2021.2.3,59.944491400707825,
147.0,147.8,2,0.75,Stimuli\ImageFiles-Set2\Bodies\Bodies_Jumping_00005.png,0,0,0,248,248,248,,,,,,,,,,,,,147.01440309999998,0.01440309999998135,2,183.2297441999999,183.2297441999999,183.2297441999999,183.2297441999999,183.2297441999999,183.2297441999999,183.2297441999999,183.2297441999999,0.4714026000001468,002,P007,2025_Feb_01_1018,CategoryLocalizer,2021.2.3,59.944491400707825,
147.8,148.0,5,0.0,Stimuli\Blank.png,0,0,0,249,249,249,,,,,,,,,,,,,147.82954809999956,0.029548099999544775,None,184.03043669999988,184.03043669999988,184.03043669999988,184.03043669999988,184.03043669999988,184.03043669999988,184.03043669999988,184.03043669999988,,002,P007,2025_Feb_01_1018,CategoryLocalizer,2021.2.3,59.944491400707825,
148.0,148.8,2,0.75,Stimuli\ImageFiles-Set2\Bodies\Bodies_Kicking_00006.png,0,0,0,250,250,250,,,,,,,,,,,,,148.01332139999977,0.013321399999767891,None,184.23065199999928,184.23065199999928,184.23065199999928,184.23065199999928,184.23065199999928,184.23065199999928,184.23065199999928,184.23065199999928,,002,P007,2025_Feb_01_1018,CategoryLocalizer,2021.2.3,59.944491400707825,
148.8,149.0,5,0.0,Stimuli\Blank.png,0,0,0,251,251,251,,,,,,,,,,,,,148.83023979999962,0.03023979999960602,None,185.03132389999973,185.03132389999973,185.03132389999973,185.03132389999973,185.03132389999973,185.03132389999973,185.03132389999973,185.03132389999973,,002,P007,2025_Feb_01_1018,CategoryLocalizer,2021.2.3,59.944491400707825,
149.0,149.8,2,0.75,Stimuli\ImageFiles-Set2\Bodies\Bodies_Jumping_00007.png,0,0,0,252,252,252,,,,,,,,,,,,,149.01579760000004,0.01579760000004171,None,185.231632,185.231632,185.231632,185.231632,185.231632,185.231632,185.231632,185.231632,,002,P007,2025_Feb_01_1018,CategoryLocalizer,2021.2.3,59.944491400707825,
149.8,150.0,5,0.0,Stimuli\Blank.png,0,0,0,253,253,253,,,,,,,,,,,,,149.81518639999922,0.015186399999208788,None,186.01553499999955,186.01553499999955,186.01553499999955,186.01553499999955,186.01553499999955,186.01553499999955,186.01553499999955,186.01553499999955,,002,P007,2025_Feb_01_1018,CategoryLocalizer,2021.2.3,59.944491400707825,
150.0,150.8,2,0.75,Stimuli\ImageFiles-Set2\Bodies\Bodies_Walking_00003.png,0,0,0,254,254,254,,,,,,,,,,,,,150.01484170000003,0.014841700000033597,None,186.23239430000012,186.23239430000012,186.23239430000012,186.23239430000012,186.23239430000012,186.23239430000012,186.23239430000012,186.23239430000012,,002,P007,2025_Feb_01_1018,CategoryLocalizer,2021.2.3,59.944491400707825,
150.8,151.0,5,0.0,Stimuli\Blank.png,0,0,0,255,255,255,,,,,,,,,,,,,150.83386279999922,0.03386279999921271,None,187.0497996999993,187.0497996999993,187.0497996999993,187.0497996999993,187.0497996999993,187.0497996999993,187.0497996999993,187.0497996999993,,002,P007,2025_Feb_01_1018,CategoryLocalizer,2021.2.3,59.944491400707825,
151.0,151.8,2,0.75,Stimuli\ImageFiles-Set2\Bodies\Bodies_Kneeling_00002.png,0,0,0,256,256,256,,,,,,,,,,,,,151.01589579999927,0.01589579999927082,None,187.24994669999978,187.24994669999978,187.24994669999978,187.24994669999978,187.24994669999978,187.24994669999978,187.24994669999978,187.24994669999978,,002,P007,2025_Feb_01_1018,CategoryLocalizer,2021.2.3,59.944491400707825,
151.8,152.0,5,0.0,Stimuli\Blank.png,0,0,0,257,257,257,,,,,,,,,,,,,151.8336174999995,0.033617499999479605,None,188.03398049999942,188.03398049999942,188.03398049999942,188.03398049999942,188.03398049999942,188.03398049999942,188.03398049999942,188.03398049999942,,002,P007,2025_Feb_01_1018,CategoryLocalizer,2021.2.3,59.944491400707825,
152.0,164.0,0,0.0,Stimuli\Blank.png,0,0,0,258,258,258,,,,,,,,,,,,,152.00002049999966,2.049999966402538e-05,None,188.20079179999993,188.20079179999993,188.20079179999993,188.20079179999993,188.20079179999993,188.20079179999993,188.20079179999993,188.20079179999993,,002,P007,2025_Feb_01_1018,CategoryLocalizer,2021.2.3,59.944491400707825,
164.0,164.8,4,0.75,Stimuli\ImageFiles-Set2\Scenes\Scenes_114.png,0,0,0,259,259,259,,,,,,,,,,,,,164.01029949999975,0.010299499999746331,None,200.2280936999996,200.2280936999996,200.2280936999996,200.2280936999996,200.2280936999996,200.2280936999996,200.2280936999996,200.2280936999996,,002,P007,2025_Feb_01_1018,CategoryLocalizer,2021.2.3,59.944491400707825,
164.8,165.0,5,0.0,Stimuli\Blank.png,0,0,0,260,260,260,,,,,,,,,,,,,164.82834099999945,0.028340999999443284,None,201.02881359999992,201.02881359999992,201.02881359999992,201.02881359999992,201.02881359999992,201.02881359999992,201.02881359999992,201.02881359999992,,002,P007,2025_Feb_01_1018,CategoryLocalizer,2021.2.3,59.944491400707825,
165.0,165.8,4,0.75,Stimuli\ImageFiles-Set2\Scenes\Scenes_075.png,0,0,0,261,261,261,,,,,,,,,,,,,165.01176299999952,0.011762999999518797,None,201.22898309999982,201.22898309999982,201.22898309999982,201.22898309999982,201.22898309999982,201.22898309999982,201.22898309999982,201.22898309999982,,002,P007,2025_Feb_01_1018,CategoryLocalizer,2021.2.3,59.944491400707825,
165.8,166.0,5,0.0,Stimuli\Blank.png,0,0,0,262,262,262,,,,,,,,,,,,,165.82956509999985,0.029565099999842914,None,202.0296961999993,202.0296961999993,202.0296961999993,202.0296961999993,202.0296961999993,202.0296961999993,202.0296961999993,202.0296961999993,,002,P007,2025_Feb_01_1018,CategoryLocalizer,2021.2.3,59.944491400707825,
166.0,166.8,4,0.75,Stimuli\ImageFiles-Set2\Scenes\Scenes_106.png,0,0,0,263,263,263,,,,,,,,,,,,,166.01509759999954,0.015097599999535305,None,202.22987119999925,202.22987119999925,202.22987119999925,202.22987119999925,202.22987119999925,202.22987119999925,202.22987119999925,202.22987119999925,,002,P007,2025_Feb_01_1018,CategoryLocalizer,2021.2.3,59.944491400707825,
166.8,167.0,5,0.0,Stimuli\Blank.png,0,0,0,264,264,264,,,,,,,,,,,,,166.81297449999965,0.012974499999643285,None,203.0139524999995,203.0139524999995,203.0139524999995,203.0139524999995,203.0139524999995,203.0139524999995,203.0139524999995,203.0139524999995,,002,P007,2025_Feb_01_1018,CategoryLocalizer,2021.2.3,59.944491400707825,
167.0,167.8,4,0.75,Stimuli\ImageFiles-Set2\Scenes\Scenes_108.png,0,0,0,265,265,265,,,,,,,,,,,,,167.0129834999998,0.012983499999791093,None,203.23074989999986,203.23074989999986,203.23074989999986,203.23074989999986,203.23074989999986,203.23074989999986,203.23074989999986,203.23074989999986,,002,P007,2025_Feb_01_1018,CategoryLocalizer,2021.2.3,59.944491400707825,
167.8,168.0,5,0.0,Stimuli\Blank.png,0,0,0,266,266,266,,,,,,,,,,,,,167.83141819999946,0.03141819999945028,None,204.0314639999997,204.0314639999997,204.0314639999997,204.0314639999997,204.0314639999997,204.0314639999997,204.0314639999997,204.0314639999997,,002,P007,2025_Feb_01_1018,CategoryLocalizer,2021.2.3,59.944491400707825,
168.0,168.8,4,0.75,Stimuli\ImageFiles-Set2\Scenes\Scenes_076.png,0,0,0,267,267,267,,,,,,,,,,,,,168.01457069999924,0.014570699999239878,None,204.24832489999972,204.24832489999972,204.24832489999972,204.24832489999972,204.24832489999972,204.24832489999972,204.24832489999972,204.24832489999972,,002,P007,2025_Feb_01_1018,CategoryLocalizer,2021.2.3,59.944491400707825,
168.8,169.0,5,0.0,Stimuli\Blank.png,0,0,0,268,268,268,,,,,,,,,,,,,168.84953899999982,0.04953899999981104,None,205.0490351999997,205.0490351999997,205.0490351999997,205.0490351999997,205.0490351999997,205.0490351999997,205.0490351999997,205.0490351999997,,002,P007,2025_Feb_01_1018,CategoryLocalizer,2021.2.3,59.944491400707825,
169.0,169.8,4,0.75,Stimuli\ImageFiles-Set2\Scenes\Scenes_113.png,0,0,0,269,269,269,,,,,,,,,,,,,168.99955799999952,-0.000442000000475673,None,205.23252479999974,205.23252479999974,205.23252479999974,205.23252479999974,205.23252479999974,205.23252479999974,205.23252479999974,205.23252479999974,,002,P007,2025_Feb_01_1018,CategoryLocalizer,2021.2.3,59.944491400707825,
169.8,170.0,5,0.0,Stimuli\Blank.png,0,0,0,270,270,270,,,,,,,,,,,,,169.83422599999994,0.03422599999993281,None,206.04993289999948,206.04993289999948,206.04993289999948,206.04993289999948,206.04993289999948,206.04993289999948,206.04993289999948,206.04993289999948,,002,P007,2025_Feb_01_1018,CategoryLocalizer,2021.2.3,59.944491400707825,
170.0,170.8,4,0.75,Stimuli\ImageFiles-Set2\Scenes\Scenes_113.png,1,1,0,271,271,271,,,,,,,,,,,,,170.0158824,0.01588240000000951,2,206.2167258999998,206.2167258999998,206.2167258999998,206.2167258999998,206.2167258999998,206.2167258999998,206.2167258999998,206.2167258999998,0.4311321000004682,002,P007,2025_Feb_01_1018,CategoryLocalizer,2021.2.3,59.944491400707825,
170.8,171.0,5,0.0,Stimuli\Blank.png,0,0,0,272,272,272,,,,,,,,,,,,,170.7997446999998,-0.00025530000021944943,None,207.00075169999946,207.00075169999946,207.00075169999946,207.00075169999946,207.00075169999946,207.00075169999946,207.00075169999946,207.00075169999946,,002,P007,2025_Feb_01_1018,CategoryLocalizer,2021.2.3,59.944491400707825,
171.0,171.8,4,0.75,Stimuli\ImageFiles-Set2\Scenes\Scenes_081.png,0,0,0,273,273,273,,,,,,,,,,,,,170.9998326999994,-0.00016730000061215833,None,207.23432989999947,207.23432989999947,207.23432989999947,207.23432989999947,207.23432989999947,207.23432989999947,207.23432989999947,207.23432989999947,,002,P007,2025_Feb_01_1018,CategoryLocalizer,2021.2.3,59.944491400707825,
171.8,172.0,5,0.0,Stimuli\Blank.png,0,0,0,274,274,274,,,,,,,,,,,,,171.83521719999953,0.03521719999952211,None,208.0350112999995,208.0350112999995,208.0350112999995,208.0350112999995,208.0350112999995,208.0350112999995,208.0350112999995,208.0350112999995,,002,P007,2025_Feb_01_1018,CategoryLocalizer,2021.2.3,59.944491400707825,
172.0,172.8,4,0.75,Stimuli\ImageFiles-Set2\Scenes\Scenes_092.png,0,0,0,275,275,275,,,,,,,,,,,,,172.00088959999994,0.0008895999999367632,None,208.2184989999996,208.2184989999996,208.2184989999996,208.2184989999996,208.2184989999996,208.2184989999996,208.2184989999996,208.2184989999996,,002,P007,2025_Feb_01_1018,CategoryLocalizer,2021.2.3,59.944491400707825,
172.8,173.0,5,0.0,Stimuli\Blank.png,0,0,0,276,276,276,,,,,,,,,,,,,172.8197221999999,0.01972219999987601,None,209.01921089999996,209.01921089999996,209.01921089999996,209.01921089999996,209.01921089999996,209.01921089999996,209.01921089999996,209.01921089999996,,002,P007,2025_Feb_01_1018,CategoryLocalizer,2021.2.3,59.944491400707825,
173.0,173.8,4,0.75,Stimuli\ImageFiles-Set2\Scenes\Scenes_117.png,0,0,0,277,277,277,,,,,,,,,,,,,173.00232059999962,0.002320599999620754,None,209.21937909999997,209.21937909999997,209.21937909999997,209.21937909999997,209.21937909999997,209.21937909999997,209.21937909999997,209.21937909999997,,002,P007,2025_Feb_01_1018,CategoryLocalizer,2021.2.3,59.944491400707825,
173.8,174.0,5,0.0,Stimuli\Blank.png,0,0,0,278,278,278,,,,,,,,,,,,,173.81959559999996,0.019595599999945534,None,210.0201075999994,210.0201075999994,210.0201075999994,210.0201075999994,210.0201075999994,210.0201075999994,210.0201075999994,210.0201075999994,,002,P007,2025_Feb_01_1018,CategoryLocalizer,2021.2.3,59.944491400707825,
174.0,174.8,4,0.75,Stimuli\ImageFiles-Set2\Scenes\Scenes_093.png,0,0,0,279,279,279,,,,,,,,,,,,,174.00363489999927,0.0036348999992696918,None,210.2202626999997,210.2202626999997,210.2202626999997,210.2202626999997,210.2202626999997,210.2202626999997,210.2202626999997,210.2202626999997,,002,P007,2025_Feb_01_1018,CategoryLocalizer,2021.2.3,59.944491400707825,
174.8,175.0,5,0.0,Stimuli\Blank.png,0,0,0,280,280,280,,,,,,,,,,,,,174.82101319999947,0.02101319999945872,None,211.02096919999985,211.02096919999985,211.02096919999985,211.02096919999985,211.02096919999985,211.02096919999985,211.02096919999985,211.02096919999985,,002,P007,2025_Feb_01_1018,CategoryLocalizer,2021.2.3,59.944491400707825,
175.0,175.8,4,0.75,Stimuli\ImageFiles-Set2\Scenes\Scenes_091.png,0,0,0,281,281,281,,,,,,,,,,,,,175.0046427999996,0.004642799999601266,None,211.23784449999948,211.23784449999948,211.23784449999948,211.23784449999948,211.23784449999948,211.23784449999948,211.23784449999948,211.23784449999948,,002,P007,2025_Feb_01_1018,CategoryLocalizer,2021.2.3,59.944491400707825,
175.8,176.0,5,0.0,Stimuli\Blank.png,0,0,0,282,282,282,,,,,,,,,,,,,175.83972069999982,0.039720699999804765,None,212.05522569999994,212.05522569999994,212.05522569999994,212.05522569999994,212.05522569999994,212.05522569999994,212.05522569999994,212.05522569999994,,002,P007,2025_Feb_01_1018,CategoryLocalizer,2021.2.3,59.944491400707825,
176.0,176.8,4,0.75,Stimuli\ImageFiles-Set2\Scenes\Scenes_099.png,0,0,0,283,283,283,,,,,,,,,,,,,176.02233429999978,0.02233429999978398,None,212.25540610000007,212.25540610000007,212.25540610000007,212.25540610000007,212.25540610000007,212.25540610000007,212.25540610000007,212.25540610000007,,002,P007,2025_Feb_01_1018,CategoryLocalizer,2021.2.3,59.944491400707825,
176.8,177.0,5,0.0,Stimuli\Blank.png,0,0,0,284,284,284,,,,,,,,,,,,,176.83832959999927,0.038329599999258335,None,213.03948349999973,213.03948349999973,213.03948349999973,213.03948349999973,213.03948349999973,213.03948349999973,213.03948349999973,213.03948349999973,,002,P007,2025_Feb_01_1018,CategoryLocalizer,2021.2.3,59.944491400707825,
177.0,177.8,4,0.75,Stimuli\ImageFiles-Set2\Scenes\Scenes_118.png,0,0,0,285,285,285,,,,,,,,,,,,,177.0057070999992,0.005707099999199272,None,213.2229172999996,213.2229172999996,213.2229172999996,213.2229172999996,213.2229172999996,213.2229172999996,213.2229172999996,213.2229172999996,,002,P007,2025_Feb_01_1018,CategoryLocalizer,2021.2.3,59.944491400707825,
