eventStartTime,eventEndTime,eventCond,imSize,imFile,repeatedImage,responseEvent,Events.thisRepN,Events.thisTrialN,Events.thisN,Events.thisIndex,Instructions.started,Instructions.stopped,participantReadyResponse.keys,participantReadyResponse.rt,participantReadyResponse.started,participantReadyResponse.stopped,startWaitforTrigger,triggerResponse.keys,triggerResponse.rt,triggerResponse.started,triggerResponse.stopped,globalTimer,actualStartTime,startTimingDiff,participantResponse.keys,participantResponse.started,participantResponse.stopped,image.started,image.stopped,fixationOutside.started,fixationOutside.stopped,fixationInside.started,fixationInside.stopped,participantResponse.rt,session,participant,date,expName,psychopyVersion,frameRate,
,,,,,,,,,,,12.016607000000477,None,2,6.305688499999633,12.016607000000477,None,,,,,,,,,,,,,,,,,,,003,P007,2025_Feb_01_1047,CategoryLocalizer,2021.2.3,59.885367429768806,
,,,,,,,,,,,,,,,,,18.328230500000245,5,7.180446400000619,18.340923900000234,None,,,,,,,,,,,,,,003,P007,2025_Feb_01_1047,CategoryLocalizer,2021.2.3,59.885367429768806,
0.0,12.0,0,0.0,Stimuli\Blank.png,0,0,0,0,0,0,,,,,,,,,,,,25.53401389999999,0.029137300000002142,0.029137300000002142,None,25.580591500000082,None,25.580591500000082,None,25.580591500000082,None,25.580591500000082,None,,003,P007,2025_Feb_01_1047,CategoryLocalizer,2021.2.3,59.885367429768806,
12.0,12.8,1,0.75,Stimuli\ImageFiles-Set1\Objects\Object_Dice_00001.png,0,0,0,1,1,1,,,,,,,,,,,,,12.01412849999997,0.01412849999996979,None,37.57449400000041,37.57449400000041,37.57449400000041,37.57449400000041,37.57449400000041,37.57449400000041,37.57449400000041,37.57449400000041,,003,P007,2025_Feb_01_1047,CategoryLocalizer,2021.2.3,59.885367429768806,
12.8,13.0,5,0.0,Stimuli\Blank.png,0,0,0,2,2,2,,,,,,,,,,,,,12.827137899999798,0.0271378999997971,None,38.37519060000068,38.37519060000068,38.37519060000068,38.37519060000068,38.37519060000068,38.37519060000068,38.37519060000068,38.37519060000068,,003,P007,2025_Feb_01_1047,CategoryLocalizer,2021.2.3,59.885367429768806,
13.0,13.8,1,0.75,Stimuli\ImageFiles-Set1\Objects\Object_Lamp_00001.png,0,0,0,3,3,3,,,,,,,,,,,,,13.010571800000434,0.01057180000043445,None,38.55869320000056,38.55869320000056,38.55869320000056,38.55869320000056,38.55869320000056,38.55869320000056,38.55869320000056,38.55869320000056,,003,P007,2025_Feb_01_1047,CategoryLocalizer,2021.2.3,59.885367429768806,
13.8,14.0,5,0.0,Stimuli\Blank.png,0,0,0,4,4,4,,,,,,,,,,,,,13.81126789999962,0.011267899999619857,None,39.3594077000007,39.3594077000007,39.3594077000007,39.3594077000007,39.3594077000007,39.3594077000007,39.3594077000007,39.3594077000007,,003,P007,2025_Feb_01_1047,CategoryLocalizer,2021.2.3,59.885367429768806,
14.0,14.8,1,0.75,Stimuli\ImageFiles-Set1\Objects\Object_Stroller_00001.png,0,0,0,5,5,5,,,,,,,,,,,,,14.011468400000012,0.01146840000001248,None,39.55957180000041,39.55957180000041,39.55957180000041,39.55957180000041,39.55957180000041,39.55957180000041,39.55957180000041,39.55957180000041,,003,P007,2025_Feb_01_1047,CategoryLocalizer,2021.2.3,59.885367429768806,
14.8,15.0,5,0.0,Stimuli\Blank.png,0,0,0,6,6,6,,,,,,,,,,,,,14.811534700000266,0.011534700000265019,None,40.360289100000045,40.360289100000045,40.360289100000045,40.360289100000045,40.360289100000045,40.360289100000045,40.360289100000045,40.360289100000045,,003,P007,2025_Feb_01_1047,CategoryLocalizer,2021.2.3,59.885367429768806,
15.0,15.8,1,0.75,Stimuli\ImageFiles-Set1\Objects\Object_Stroller_00001.png,1,1,0,7,7,7,,,,,,,,,,,,,15.011673599999995,0.011673599999994622,2,40.56045600000016,40.56045600000016,40.56045600000016,40.56045600000016,40.56045600000016,40.56045600000016,40.56045600000016,40.56045600000016,0.4690619000002698,003,P007,2025_Feb_01_1047,CategoryLocalizer,2021.2.3,59.885367429768806,
15.8,16.0,5,0.0,Stimuli\Blank.png,0,0,0,8,8,8,,,,,,,,,,,,,15.812965899999654,0.012965899999652919,None,41.36121870000079,41.36121870000079,41.36121870000079,41.36121870000079,41.36121870000079,41.36121870000079,41.36121870000079,41.36121870000079,,003,P007,2025_Feb_01_1047,CategoryLocalizer,2021.2.3,59.885367429768806,
16.0,16.8,1,0.75,Stimuli\ImageFiles-Set1\Objects\Object_Whistle_00001.png,0,0,0,9,9,9,,,,,,,,,,,,,16.013293599999997,0.013293599999997241,None,41.561380800000734,41.561380800000734,41.561380800000734,41.561380800000734,41.561380800000734,41.561380800000734,41.561380800000734,41.561380800000734,,003,P007,2025_Feb_01_1047,CategoryLocalizer,2021.2.3,59.885367429768806,
16.8,17.0,5,0.0,Stimuli\Blank.png,0,0,0,10,10,10,,,,,,,,,,,,,16.813218999999663,0.013218999999661918,None,42.362025899999935,42.362025899999935,42.362025899999935,42.362025899999935,42.362025899999935,42.362025899999935,42.362025899999935,42.362025899999935,,003,P007,2025_Feb_01_1047,CategoryLocalizer,2021.2.3,59.885367429768806,
17.0,17.8,1,0.75,Stimuli\ImageFiles-Set1\Objects\Object_Table_00001.png,0,0,0,11,11,11,,,,,,,,,,,,,17.01375840000037,0.013758400000369875,None,42.56222530000014,42.56222530000014,42.56222530000014,42.56222530000014,42.56222530000014,42.56222530000014,42.56222530000014,42.56222530000014,,003,P007,2025_Feb_01_1047,CategoryLocalizer,2021.2.3,59.885367429768806,
17.8,18.0,5,0.0,Stimuli\Blank.png,0,0,0,12,12,12,,,,,,,,,,,,,17.815201600000364,0.015201600000363413,None,43.36294230000021,43.36294230000021,43.36294230000021,43.36294230000021,43.36294230000021,43.36294230000021,43.36294230000021,43.36294230000021,,003,P007,2025_Feb_01_1047,CategoryLocalizer,2021.2.3,59.885367429768806,
18.0,18.8,1,0.75,Stimuli\ImageFiles-Set1\Objects\Object_Apple_00001.png,0,0,0,13,13,13,,,,,,,,,,,,,18.0151507999999,0.01515079999990121,None,43.57979280000018,43.57979280000018,43.57979280000018,43.57979280000018,43.57979280000018,43.57979280000018,43.57979280000018,43.57979280000018,,003,P007,2025_Feb_01_1047,CategoryLocalizer,2021.2.3,59.885367429768806,
18.8,19.0,5,0.0,Stimuli\Blank.png,0,0,0,14,14,14,,,,,,,,,,,,,18.81597529999999,0.015975299999990256,None,44.3638389000007,44.3638389000007,44.3638389000007,44.3638389000007,44.3638389000007,44.3638389000007,44.3638389000007,44.3638389000007,,003,P007,2025_Feb_01_1047,CategoryLocalizer,2021.2.3,59.885367429768806,
19.0,19.8,1,0.75,Stimuli\ImageFiles-Set1\Objects\Object_Pizza_00001.png,0,0,0,15,15,15,,,,,,,,,,,,,19.000507099999595,0.0005070999995950842,None,44.56404310000016,44.56404310000016,44.56404310000016,44.56404310000016,44.56404310000016,44.56404310000016,44.56404310000016,44.56404310000016,,003,P007,2025_Feb_01_1047,CategoryLocalizer,2021.2.3,59.885367429768806,
19.8,20.0,5,0.0,Stimuli\Blank.png,0,0,0,16,16,16,,,,,,,,,,,,,19.81715609999992,0.017156099999919405,None,45.364727300000595,45.364727300000595,45.364727300000595,45.364727300000595,45.364727300000595,45.364727300000595,45.364727300000595,45.364727300000595,,003,P007,2025_Feb_01_1047,CategoryLocalizer,2021.2.3,59.885367429768806,
20.0,20.8,1,0.75,Stimuli\ImageFiles-Set1\Objects\Object_GarbageCan_00001.png,0,0,0,17,17,17,,,,,,,,,,,,,20.001230400000168,0.0012304000001677196,None,45.564891900000475,45.564891900000475,45.564891900000475,45.564891900000475,45.564891900000475,45.564891900000475,45.564891900000475,45.564891900000475,,003,P007,2025_Feb_01_1047,CategoryLocalizer,2021.2.3,59.885367429768806,
20.8,21.0,5,0.0,Stimuli\Blank.png,0,0,0,18,18,18,,,,,,,,,,,,,20.817341300000408,0.01734130000040679,None,46.36557130000074,46.36557130000074,46.36557130000074,46.36557130000074,46.36557130000074,46.36557130000074,46.36557130000074,46.36557130000074,,003,P007,2025_Feb_01_1047,CategoryLocalizer,2021.2.3,59.885367429768806,
21.0,21.8,1,0.75,Stimuli\ImageFiles-Set1\Objects\Object_Shirt_00001.png,0,0,0,19,19,19,,,,,,,,,,,,,21.000848499999847,0.0008484999998472631,None,46.54908969999997,46.54908969999997,46.54908969999997,46.54908969999997,46.54908969999997,46.54908969999997,46.54908969999997,46.54908969999997,,003,P007,2025_Feb_01_1047,CategoryLocalizer,2021.2.3,59.885367429768806,
21.8,22.0,5,0.0,Stimuli\Blank.png,0,0,0,20,20,20,,,,,,,,,,,,,21.8016647000004,0.001664700000400643,None,47.34980600000017,47.34980600000017,47.34980600000017,47.34980600000017,47.34980600000017,47.34980600000017,47.34980600000017,47.34980600000017,,003,P007,2025_Feb_01_1047,CategoryLocalizer,2021.2.3,59.885367429768806,
22.0,22.8,1,0.75,Stimuli\ImageFiles-Set1\Objects\Object_ShoppingCart_00001.png,0,0,0,21,21,21,,,,,,,,,,,,,22.00196700000015,0.00196700000014971,None,47.54997630000071,47.54997630000071,47.54997630000071,47.54997630000071,47.54997630000071,47.54997630000071,47.54997630000071,47.54997630000071,,003,P007,2025_Feb_01_1047,CategoryLocalizer,2021.2.3,59.885367429768806,
22.8,23.0,5,0.0,Stimuli\Blank.png,0,0,0,22,22,22,,,,,,,,,,,,,22.80266070000016,0.0026607000001597214,None,48.35068780000074,48.35068780000074,48.35068780000074,48.35068780000074,48.35068780000074,48.35068780000074,48.35068780000074,48.35068780000074,,003,P007,2025_Feb_01_1047,CategoryLocalizer,2021.2.3,59.885367429768806,
23.0,23.8,1,0.75,Stimuli\ImageFiles-Set1\Objects\Object_Sock_00001.png,0,0,0,23,23,23,,,,,,,,,,,,,23.002815900000314,0.0028159000003142864,None,48.56755840000005,48.56755840000005,48.56755840000005,48.56755840000005,48.56755840000005,48.56755840000005,48.56755840000005,48.56755840000005,,003,P007,2025_Feb_01_1047,CategoryLocalizer,2021.2.3,59.885367429768806,
23.8,24.0,5,0.0,Stimuli\Blank.png,0,0,0,24,24,24,,,,,,,,,,,,,23.820187100000112,0.020187100000111258,None,49.36825730000055,49.36825730000055,49.36825730000055,49.36825730000055,49.36825730000055,49.36825730000055,49.36825730000055,49.36825730000055,,003,P007,2025_Feb_01_1047,CategoryLocalizer,2021.2.3,59.885367429768806,
24.0,24.8,1,0.75,Stimuli\ImageFiles-Set1\Objects\Object_Matches_00001.png,0,0,0,25,25,25,,,,,,,,,,,,,24.003494900000078,0.003494900000077905,None,49.551742900000136,49.551742900000136,49.551742900000136,49.551742900000136,49.551742900000136,49.551742900000136,49.551742900000136,49.551742900000136,,003,P007,2025_Feb_01_1047,CategoryLocalizer,2021.2.3,59.885367429768806,
24.8,25.0,5,0.0,Stimuli\Blank.png,0,0,0,26,26,26,,,,,,,,,,,,,24.804369100000258,0.004369100000257475,None,50.352504400000726,50.352504400000726,50.352504400000726,50.352504400000726,50.352504400000726,50.352504400000726,50.352504400000726,50.352504400000726,,003,P007,2025_Feb_01_1047,CategoryLocalizer,2021.2.3,59.885367429768806,
25.0,25.8,1,0.75,Stimuli\ImageFiles-Set1\Objects\Object_Glasses_00001.png,0,0,0,27,27,27,,,,,,,,,,,,,25.00576809999984,0.00576809999984107,None,50.5693323000005,50.5693323000005,50.5693323000005,50.5693323000005,50.5693323000005,50.5693323000005,50.5693323000005,50.5693323000005,,003,P007,2025_Feb_01_1047,CategoryLocalizer,2021.2.3,59.885367429768806,
25.8,26.0,5,0.0,Stimuli\Blank.png,0,0,0,28,28,28,,,,,,,,,,,,,25.821487899999738,0.021487899999737436,None,51.37002240000038,51.37002240000038,51.37002240000038,51.37002240000038,51.37002240000038,51.37002240000038,51.37002240000038,51.37002240000038,,003,P007,2025_Feb_01_1047,CategoryLocalizer,2021.2.3,59.885367429768806,
26.0,26.8,1,0.75,Stimuli\ImageFiles-Set1\Objects\Object_Screw_00001.png,0,0,0,29,29,29,,,,,,,,,,,,,26.004726299999675,0.004726299999674666,None,51.55351109999992,51.55351109999992,51.55351109999992,51.55351109999992,51.55351109999992,51.55351109999992,51.55351109999992,51.55351109999992,,003,P007,2025_Feb_01_1047,CategoryLocalizer,2021.2.3,59.885367429768806,
26.8,27.0,5,0.0,Stimuli\Blank.png,0,0,0,30,30,30,,,,,,,,,,,,,26.806282600000486,0.0062826000004854166,None,52.35422610000023,52.35422610000023,52.35422610000023,52.35422610000023,52.35422610000023,52.35422610000023,52.35422610000023,52.35422610000023,,003,P007,2025_Feb_01_1047,CategoryLocalizer,2021.2.3,59.885367429768806,
27.0,27.8,1,0.75,Stimuli\ImageFiles-Set1\Objects\Object_Box_00001.png,0,0,0,31,31,31,,,,,,,,,,,,,27.006828100000348,0.0068281000003480585,None,52.55443110000033,52.55443110000033,52.55443110000033,52.55443110000033,52.55443110000033,52.55443110000033,52.55443110000033,52.55443110000033,,003,P007,2025_Feb_01_1047,CategoryLocalizer,2021.2.3,59.885367429768806,
27.8,28.0,5,0.0,Stimuli\Blank.png,0,0,0,32,32,32,,,,,,,,,,,,,27.806394600000203,0.006394600000202644,None,53.355105900000126,53.355105900000126,53.355105900000126,53.355105900000126,53.355105900000126,53.355105900000126,53.355105900000126,53.355105900000126,,003,P007,2025_Feb_01_1047,CategoryLocalizer,2021.2.3,59.885367429768806,
28.0,28.8,2,0.75,Stimuli\ImageFiles-Set1\Bodies\Bodies_DownwardDog_00003.png,0,0,0,33,33,33,,,,,,,,,,,,,28.00737449999997,0.007374499999968975,None,53.55548720000024,53.55548720000024,53.55548720000024,53.55548720000024,53.55548720000024,53.55548720000024,53.55548720000024,53.55548720000024,,003,P007,2025_Feb_01_1047,CategoryLocalizer,2021.2.3,59.885367429768806,
28.8,29.0,5,0.0,Stimuli\Blank.png,0,0,0,34,34,34,,,,,,,,,,,,,28.8080302999997,0.008030299999699508,None,54.35599660000025,54.35599660000025,54.35599660000025,54.35599660000025,54.35599660000025,54.35599660000025,54.35599660000025,54.35599660000025,,003,P007,2025_Feb_01_1047,CategoryLocalizer,2021.2.3,59.885367429768806,
29.0,29.8,2,0.75,Stimuli\ImageFiles-Set1\Bodies\Bodies_Standing_00003.png,0,0,0,35,35,35,,,,,,,,,,,,,29.009030100000018,0.009030100000018138,None,54.572851200000514,54.572851200000514,54.572851200000514,54.572851200000514,54.572851200000514,54.572851200000514,54.572851200000514,54.572851200000514,,003,P007,2025_Feb_01_1047,CategoryLocalizer,2021.2.3,59.885367429768806,
29.8,30.0,5,0.0,Stimuli\Blank.png,0,0,0,36,36,36,,,,,,,,,,,,,29.825865099999646,0.02586509999964548,None,55.37356320000072,55.37356320000072,55.37356320000072,55.37356320000072,55.37356320000072,55.37356320000072,55.37356320000072,55.37356320000072,,003,P007,2025_Feb_01_1047,CategoryLocalizer,2021.2.3,59.885367429768806,
30.0,30.8,2,0.75,Stimuli\ImageFiles-Set1\Bodies\Bodies_Punching_00006.png,0,0,0,37,37,37,,,,,,,,,,,,,30.00904559999981,0.009045599999808474,None,55.55706240000018,55.55706240000018,55.55706240000018,55.55706240000018,55.55706240000018,55.55706240000018,55.55706240000018,55.55706240000018,,003,P007,2025_Feb_01_1047,CategoryLocalizer,2021.2.3,59.885367429768806,
30.8,31.0,5,0.0,Stimuli\Blank.png,0,0,0,38,38,38,,,,,,,,,,,,,30.810908700000255,0.010908700000253901,None,56.3744183000008,56.3744183000008,56.3744183000008,56.3744183000008,56.3744183000008,56.3744183000008,56.3744183000008,56.3744183000008,,003,P007,2025_Feb_01_1047,CategoryLocalizer,2021.2.3,59.885367429768806,
31.0,31.8,2,0.75,Stimuli\ImageFiles-Set1\Bodies\Bodies_DownwardDog_00006.png,0,0,0,39,39,39,,,,,,,,,,,,,31.02672470000016,0.02672470000015892,None,56.574621800000386,56.574621800000386,56.574621800000386,56.574621800000386,56.574621800000386,56.574621800000386,56.574621800000386,56.574621800000386,,003,P007,2025_Feb_01_1047,CategoryLocalizer,2021.2.3,59.885367429768806,
31.8,32.0,5,0.0,Stimuli\Blank.png,0,0,0,40,40,40,,,,,,,,,,,,,31.810494199999994,0.010494199999993015,None,57.358651100000316,57.358651100000316,57.358651100000316,57.358651100000316,57.358651100000316,57.358651100000316,57.358651100000316,57.358651100000316,,003,P007,2025_Feb_01_1047,CategoryLocalizer,2021.2.3,59.885367429768806,
32.0,32.8,2,0.75,Stimuli\ImageFiles-Set1\Bodies\Bodies_Standing_00007.png,0,0,0,41,41,41,,,,,,,,,,,,,32.01026269999966,0.010262699999657343,None,57.55883030000041,57.55883030000041,57.55883030000041,57.55883030000041,57.55883030000041,57.55883030000041,57.55883030000041,57.55883030000041,,003,P007,2025_Feb_01_1047,CategoryLocalizer,2021.2.3,59.885367429768806,
32.8,33.0,5,0.0,Stimuli\Blank.png,0,0,0,42,42,42,,,,,,,,,,,,,32.81167370000003,0.011673700000031317,None,58.35953790000076,58.35953790000076,58.35953790000076,58.35953790000076,58.35953790000076,58.35953790000076,58.35953790000076,58.35953790000076,,003,P007,2025_Feb_01_1047,CategoryLocalizer,2021.2.3,59.885367429768806,
33.0,33.8,2,0.75,Stimuli\ImageFiles-Set1\Bodies\Bodies_Standing_00007.png,1,1,0,43,43,43,,,,,,,,,,,,,33.01153760000034,0.011537600000337989,2,58.55971709999994,58.55971709999994,58.55971709999994,58.55971709999994,58.55971709999994,58.55971709999994,58.55971709999994,58.55971709999994,0.3857421000002432,003,P007,2025_Feb_01_1047,CategoryLocalizer,2021.2.3,59.885367429768806,
33.8,34.0,5,0.0,Stimuli\Blank.png,0,0,0,44,44,44,,,,,,,,,,,,,33.81166109999958,0.011661099999585645,None,59.3604505000003,59.3604505000003,59.3604505000003,59.3604505000003,59.3604505000003,59.3604505000003,59.3604505000003,59.3604505000003,,003,P007,2025_Feb_01_1047,CategoryLocalizer,2021.2.3,59.885367429768806,
34.0,34.8,2,0.75,Stimuli\ImageFiles-Set1\Bodies\Bodies_Walking_00002.png,0,0,0,45,45,45,,,,,,,,,,,,,34.01239270000042,0.0123927000004187,None,59.560594700000365,59.560594700000365,59.560594700000365,59.560594700000365,59.560594700000365,59.560594700000365,59.560594700000365,59.560594700000365,,003,P007,2025_Feb_01_1047,CategoryLocalizer,2021.2.3,59.885367429768806,
34.8,35.0,5,0.0,Stimuli\Blank.png,0,0,0,46,46,46,,,,,,,,,,,,,34.813542300000336,0.013542300000338514,None,60.361305400000674,60.361305400000674,60.361305400000674,60.361305400000674,60.361305400000674,60.361305400000674,60.361305400000674,60.361305400000674,,003,P007,2025_Feb_01_1047,CategoryLocalizer,2021.2.3,59.885367429768806,
35.0,35.8,2,0.75,Stimuli\ImageFiles-Set1\Bodies\Bodies_PushUp_00002.png,0,0,0,47,47,47,,,,,,,,,,,,,35.013507100000425,0.013507100000424543,None,60.56150980000075,60.56150980000075,60.56150980000075,60.56150980000075,60.56150980000075,60.56150980000075,60.56150980000075,60.56150980000075,,003,P007,2025_Feb_01_1047,CategoryLocalizer,2021.2.3,59.885367429768806,
35.8,36.0,5,0.0,Stimuli\Blank.png,0,0,0,48,48,48,,,,,,,,,,,,,35.81586090000019,0.01586090000019169,None,61.378901699999915,61.378901699999915,61.378901699999915,61.378901699999915,61.378901699999915,61.378901699999915,61.378901699999915,61.378901699999915,,003,P007,2025_Feb_01_1047,CategoryLocalizer,2021.2.3,59.885367429768806,
36.0,36.8,2,0.75,Stimuli\ImageFiles-Set1\Bodies\Bodies_Lunging_00001.png,0,0,0,49,49,49,,,,,,,,,,,,,36.01429310000003,0.0142931000000317,None,61.57905550000032,61.57905550000032,61.57905550000032,61.57905550000032,61.57905550000032,61.57905550000032,61.57905550000032,61.57905550000032,,003,P007,2025_Feb_01_1047,CategoryLocalizer,2021.2.3,59.885367429768806,
36.8,37.0,5,0.0,Stimuli\Blank.png,0,0,0,50,50,50,,,,,,,,,,,,,36.83158600000024,0.03158600000024592,None,62.37978070000008,62.37978070000008,62.37978070000008,62.37978070000008,62.37978070000008,62.37978070000008,62.37978070000008,62.37978070000008,,003,P007,2025_Feb_01_1047,CategoryLocalizer,2021.2.3,59.885367429768806,
37.0,37.8,2,0.75,Stimuli\ImageFiles-Set1\Bodies\Bodies_Punching_00003.png,0,0,0,51,51,51,,,,,,,,,,,,,37.01516679999986,0.015166799999860814,None,62.56325900000047,62.56325900000047,62.56325900000047,62.56325900000047,62.56325900000047,62.56325900000047,62.56325900000047,62.56325900000047,,003,P007,2025_Feb_01_1047,CategoryLocalizer,2021.2.3,59.885367429768806,
37.8,38.0,5,0.0,Stimuli\Blank.png,0,0,0,52,52,52,,,,,,,,,,,,,37.80068879999999,0.0006887999999918293,None,63.363971100000526,63.363971100000526,63.363971100000526,63.363971100000526,63.363971100000526,63.363971100000526,63.363971100000526,63.363971100000526,,003,P007,2025_Feb_01_1047,CategoryLocalizer,2021.2.3,59.885367429768806,
38.0,38.8,2,0.75,Stimuli\ImageFiles-Set1\Bodies\Bodies_Standing_00001.png,0,0,0,53,53,53,,,,,,,,,,,,,38.01571109999986,0.0157110999998622,None,63.56414920000043,63.56414920000043,63.56414920000043,63.56414920000043,63.56414920000043,63.56414920000043,63.56414920000043,63.56414920000043,,003,P007,2025_Feb_01_1047,CategoryLocalizer,2021.2.3,59.885367429768806,
38.8,39.0,5,0.0,Stimuli\Blank.png,0,0,0,54,54,54,,,,,,,,,,,,,38.80027590000009,0.0002759000000907008,None,64.34817150000072,64.34817150000072,64.34817150000072,64.34817150000072,64.34817150000072,64.34817150000072,64.34817150000072,64.34817150000072,,003,P007,2025_Feb_01_1047,CategoryLocalizer,2021.2.3,59.885367429768806,
39.0,39.8,2,0.75,Stimuli\ImageFiles-Set1\Bodies\Bodies_CobraPose_00001.png,0,0,0,55,55,55,,,,,,,,,,,,,38.999799999999595,-0.00020000000040454324,None,64.54834460000075,64.54834460000075,64.54834460000075,64.54834460000075,64.54834460000075,64.54834460000075,64.54834460000075,64.54834460000075,,003,P007,2025_Feb_01_1047,CategoryLocalizer,2021.2.3,59.885367429768806,
39.8,40.0,5,0.0,Stimuli\Blank.png,0,0,0,56,56,56,,,,,,,,,,,,,39.80088789999991,0.0008878999999097914,None,65.34906840000076,65.34906840000076,65.34906840000076,65.34906840000076,65.34906840000076,65.34906840000076,65.34906840000076,65.34906840000076,,003,P007,2025_Feb_01_1047,CategoryLocalizer,2021.2.3,59.885367429768806,
40.0,40.8,2,0.75,Stimuli\ImageFiles-Set1\Bodies\Bodies_Waving_00003.png,0,0,0,57,57,57,,,,,,,,,,,,,40.00090699999964,0.0009069999996427214,None,65.54923390000022,65.54923390000022,65.54923390000022,65.54923390000022,65.54923390000022,65.54923390000022,65.54923390000022,65.54923390000022,,003,P007,2025_Feb_01_1047,CategoryLocalizer,2021.2.3,59.885367429768806,
40.8,41.0,5,0.0,Stimuli\Blank.png,0,0,0,58,58,58,,,,,,,,,,,,,40.801910000000134,0.0019100000001373019,None,66.34993850000046,66.34993850000046,66.34993850000046,66.34993850000046,66.34993850000046,66.34993850000046,66.34993850000046,66.34993850000046,,003,P007,2025_Feb_01_1047,CategoryLocalizer,2021.2.3,59.885367429768806,
41.0,41.8,2,0.75,Stimuli\ImageFiles-Set1\Bodies\Bodies_Waving_00007.png,0,0,0,59,59,59,,,,,,,,,,,,,41.00215190000017,0.002151900000171736,None,66.55011340000055,66.55011340000055,66.55011340000055,66.55011340000055,66.55011340000055,66.55011340000055,66.55011340000055,66.55011340000055,,003,P007,2025_Feb_01_1047,CategoryLocalizer,2021.2.3,59.885367429768806,
41.8,42.0,5,0.0,Stimuli\Blank.png,0,0,0,60,60,60,,,,,,,,,,,,,41.80229630000031,0.002296300000310225,None,67.35081590000027,67.35081590000027,67.35081590000027,67.35081590000027,67.35081590000027,67.35081590000027,67.35081590000027,67.35081590000027,,003,P007,2025_Feb_01_1047,CategoryLocalizer,2021.2.3,59.885367429768806,
42.0,42.8,2,0.75,Stimuli\ImageFiles-Set1\Bodies\Bodies_Walking_00004.png,0,0,0,61,61,61,,,,,,,,,,,,,42.00254289999975,0.00254289999975299,None,67.55100070000026,67.55100070000026,67.55100070000026,67.55100070000026,67.55100070000026,67.55100070000026,67.55100070000026,67.55100070000026,,003,P007,2025_Feb_01_1047,CategoryLocalizer,2021.2.3,59.885367429768806,
42.8,43.0,5,0.0,Stimuli\Blank.png,0,0,0,62,62,62,,,,,,,,,,,,,42.80362030000015,0.003620300000150678,None,68.35170749999997,68.35170749999997,68.35170749999997,68.35170749999997,68.35170749999997,68.35170749999997,68.35170749999997,68.35170749999997,,003,P007,2025_Feb_01_1047,CategoryLocalizer,2021.2.3,59.885367429768806,
43.0,43.8,2,0.75,Stimuli\ImageFiles-Set1\Bodies\Bodies_PushUp_00004.png,0,0,0,63,63,63,,,,,,,,,,,,,43.003777300000365,0.003777300000365358,None,68.55189190000056,68.55189190000056,68.55189190000056,68.55189190000056,68.55189190000056,68.55189190000056,68.55189190000056,68.55189190000056,,003,P007,2025_Feb_01_1047,CategoryLocalizer,2021.2.3,59.885367429768806,
43.8,44.0,5,0.0,Stimuli\Blank.png,0,0,0,64,64,64,,,,,,,,,,,,,43.80570369999987,0.005703699999870082,None,69.36928640000042,69.36928640000042,69.36928640000042,69.36928640000042,69.36928640000042,69.36928640000042,69.36928640000042,69.36928640000042,,003,P007,2025_Feb_01_1047,CategoryLocalizer,2021.2.3,59.885367429768806,
44.0,44.8,3,0.75,Stimuli\ImageFiles-Set1\Faces\Face_00045.png,0,0,0,65,65,65,,,,,,,,,,,,,44.02130769999985,0.021307699999852048,None,69.56948860000011,69.56948860000011,69.56948860000011,69.56948860000011,69.56948860000011,69.56948860000011,69.56948860000011,69.56948860000011,,003,P007,2025_Feb_01_1047,CategoryLocalizer,2021.2.3,59.885367429768806,
44.8,45.0,5,0.0,Stimuli\Blank.png,0,0,0,66,66,66,,,,,,,,,,,,,44.80537579999964,0.0053757999996406625,None,70.35348390000036,70.35348390000036,70.35348390000036,70.35348390000036,70.35348390000036,70.35348390000036,70.35348390000036,70.35348390000036,,003,P007,2025_Feb_01_1047,CategoryLocalizer,2021.2.3,59.885367429768806,
45.0,45.8,3,0.75,Stimuli\ImageFiles-Set1\Faces\Face_00075.png,0,0,0,67,67,67,,,,,,,,,,,,,45.005489600000146,0.005489600000146311,None,70.57034079999994,70.57034079999994,70.57034079999994,70.57034079999994,70.57034079999994,70.57034079999994,70.57034079999994,70.57034079999994,,003,P007,2025_Feb_01_1047,CategoryLocalizer,2021.2.3,59.885367429768806,
45.8,46.0,5,0.0,Stimuli\Blank.png,0,0,0,68,68,68,,,,,,,,,,,,,45.82289839999976,0.022898399999760954,None,71.37105000000065,71.37105000000065,71.37105000000065,71.37105000000065,71.37105000000065,71.37105000000065,71.37105000000065,71.37105000000065,,003,P007,2025_Feb_01_1047,CategoryLocalizer,2021.2.3,59.885367429768806,
46.0,46.8,3,0.75,Stimuli\ImageFiles-Set1\Faces\Face_00099.png,0,0,0,69,69,69,,,,,,,,,,,,,46.00665519999984,0.006655199999840988,None,71.55454360000022,71.55454360000022,71.55454360000022,71.55454360000022,71.55454360000022,71.55454360000022,71.55454360000022,71.55454360000022,,003,P007,2025_Feb_01_1047,CategoryLocalizer,2021.2.3,59.885367429768806,
46.8,47.0,5,0.0,Stimuli\Blank.png,0,0,0,70,70,70,,,,,,,,,,,,,46.80653960000018,0.006539600000181167,None,72.35524720000012,72.35524720000012,72.35524720000012,72.35524720000012,72.35524720000012,72.35524720000012,72.35524720000012,72.35524720000012,,003,P007,2025_Feb_01_1047,CategoryLocalizer,2021.2.3,59.885367429768806,
47.0,47.8,3,0.75,Stimuli\ImageFiles-Set1\Faces\Face_00111.png,0,0,0,71,71,71,,,,,,,,,,,,,47.00663700000041,0.006637000000409898,None,72.5721239000004,72.5721239000004,72.5721239000004,72.5721239000004,72.5721239000004,72.5721239000004,72.5721239000004,72.5721239000004,,003,P007,2025_Feb_01_1047,CategoryLocalizer,2021.2.3,59.885367429768806,
47.8,48.0,5,0.0,Stimuli\Blank.png,0,0,0,72,72,72,,,,,,,,,,,,,47.82599819999996,0.025998199999961003,None,73.38952130000052,73.38952130000052,73.38952130000052,73.38952130000052,73.38952130000052,73.38952130000052,73.38952130000052,73.38952130000052,,003,P007,2025_Feb_01_1047,CategoryLocalizer,2021.2.3,59.885367429768806,
48.0,48.8,3,0.75,Stimuli\ImageFiles-Set1\Faces\Face_00115.png,0,0,0,73,73,73,,,,,,,,,,,,,48.02732079999987,0.02732079999987036,None,73.5896715000008,73.5896715000008,73.5896715000008,73.5896715000008,73.5896715000008,73.5896715000008,73.5896715000008,73.5896715000008,,003,P007,2025_Feb_01_1047,CategoryLocalizer,2021.2.3,59.885367429768806,
48.8,49.0,5,0.0,Stimuli\Blank.png,0,0,0,74,74,74,,,,,,,,,,,,,48.82563870000013,0.02563870000012969,None,74.37369820000004,74.37369820000004,74.37369820000004,74.37369820000004,74.37369820000004,74.37369820000004,74.37369820000004,74.37369820000004,,003,P007,2025_Feb_01_1047,CategoryLocalizer,2021.2.3,59.885367429768806,
49.0,49.8,3,0.75,Stimuli\ImageFiles-Set1\Faces\Face_00101.png,0,0,0,75,75,75,,,,,,,,,,,,,49.00842759999978,0.008427599999777158,None,74.55720010000005,74.55720010000005,74.55720010000005,74.55720010000005,74.55720010000005,74.55720010000005,74.55720010000005,74.55720010000005,,003,P007,2025_Feb_01_1047,CategoryLocalizer,2021.2.3,59.885367429768806,
49.8,50.0,5,0.0,Stimuli\Blank.png,0,0,0,76,76,76,,,,,,,,,,,,,49.81174439999995,0.011744399999955135,None,75.3746125000007,75.3746125000007,75.3746125000007,75.3746125000007,75.3746125000007,75.3746125000007,75.3746125000007,75.3746125000007,,003,P007,2025_Feb_01_1047,CategoryLocalizer,2021.2.3,59.885367429768806,
50.0,50.8,3,0.75,Stimuli\ImageFiles-Set1\Faces\Face_00101.png,1,1,0,77,77,77,,,,,,,,,,,,,50.02644859999964,0.026448599999639555,2,75.57477070000004,75.57477070000004,75.57477070000004,75.57477070000004,75.57477070000004,75.57477070000004,75.57477070000004,75.57477070000004,0.5306449999998222,003,P007,2025_Feb_01_1047,CategoryLocalizer,2021.2.3,59.885367429768806,
50.8,51.0,5,0.0,Stimuli\Blank.png,0,0,0,78,78,78,,,,,,,,,,,,,50.810198400000445,0.010198400000447805,None,76.3588021000005,76.3588021000005,76.3588021000005,76.3588021000005,76.3588021000005,76.3588021000005,76.3588021000005,76.3588021000005,,003,P007,2025_Feb_01_1047,CategoryLocalizer,2021.2.3,59.885367429768806,
51.0,51.8,3,0.75,Stimuli\ImageFiles-Set1\Faces\Face_00119.png,0,0,0,79,79,79,,,,,,,,,,,,,51.0112038999996,0.011203899999600253,None,76.57565450000038,76.57565450000038,76.57565450000038,76.57565450000038,76.57565450000038,76.57565450000038,76.57565450000038,76.57565450000038,,003,P007,2025_Feb_01_1047,CategoryLocalizer,2021.2.3,59.885367429768806,
51.8,52.0,5,0.0,Stimuli\Blank.png,0,0,0,80,80,80,,,,,,,,,,,,,51.82765780000045,0.027657800000454813,None,77.37637780000023,77.37637780000023,77.37637780000023,77.37637780000023,77.37637780000023,77.37637780000023,77.37637780000023,77.37637780000023,,003,P007,2025_Feb_01_1047,CategoryLocalizer,2021.2.3,59.885367429768806,
52.0,52.8,3,0.75,Stimuli\ImageFiles-Set1\Faces\Face_00065.png,0,0,0,81,81,81,,,,,,,,,,,,,52.01125609999963,0.011256099999627622,None,77.57656170000064,77.57656170000064,77.57656170000064,77.57656170000064,77.57656170000064,77.57656170000064,77.57656170000064,77.57656170000064,,003,P007,2025_Feb_01_1047,CategoryLocalizer,2021.2.3,59.885367429768806,
52.8,53.0,5,0.0,Stimuli\Blank.png,0,0,0,82,82,82,,,,,,,,,,,,,52.82847949999996,0.028479499999960467,None,78.37724880000042,78.37724880000042,78.37724880000042,78.37724880000042,78.37724880000042,78.37724880000042,78.37724880000042,78.37724880000042,,003,P007,2025_Feb_01_1047,CategoryLocalizer,2021.2.3,59.885367429768806,
53.0,53.8,3,0.75,Stimuli\ImageFiles-Set1\Faces\Face_00033.png,0,0,0,83,83,83,,,,,,,,,,,,,53.01222719999987,0.012227199999870209,None,78.57742260000032,78.57742260000032,78.57742260000032,78.57742260000032,78.57742260000032,78.57742260000032,78.57742260000032,78.57742260000032,,003,P007,2025_Feb_01_1047,CategoryLocalizer,2021.2.3,59.885367429768806,
53.8,54.0,5,0.0,Stimuli\Blank.png,0,0,0,84,84,84,,,,,,,,,,,,,53.83186930000011,0.031869300000110456,None,79.39481370000067,79.39481370000067,79.39481370000067,79.39481370000067,79.39481370000067,79.39481370000067,79.39481370000067,79.39481370000067,,003,P007,2025_Feb_01_1047,CategoryLocalizer,2021.2.3,59.885367429768806,
54.0,54.8,3,0.75,Stimuli\ImageFiles-Set1\Faces\Face_00027.png,1,1,0,85,85,85,,,,,,,,,,,,,54.03026990000035,0.03026990000034857,None,79.5950012000003,79.5950012000003,79.5950012000003,79.5950012000003,79.5950012000003,79.5950012000003,79.5950012000003,79.5950012000003,,003,P007,2025_Feb_01_1047,CategoryLocalizer,2021.2.3,59.885367429768806,
54.8,55.0,5,0.0,Stimuli\Blank.png,0,0,0,86,86,86,,,,,,,,,,,,,54.83139779999965,0.03139779999965242,None,80.37902300000042,80.37902300000042,80.37902300000042,80.37902300000042,80.37902300000042,80.37902300000042,80.37902300000042,80.37902300000042,,003,P007,2025_Feb_01_1047,CategoryLocalizer,2021.2.3,59.885367429768806,
55.0,55.8,3,0.75,Stimuli\ImageFiles-Set1\Faces\Face_00049.png,0,0,0,87,87,87,,,,,,,,,,,,,55.01578520000021,0.015785200000209443,None,80.57919280000078,80.57919280000078,80.57919280000078,80.57919280000078,80.57919280000078,80.57919280000078,80.57919280000078,80.57919280000078,,003,P007,2025_Feb_01_1047,CategoryLocalizer,2021.2.3,59.885367429768806,
55.8,56.0,5,0.0,Stimuli\Blank.png,0,0,0,88,88,88,,,,,,,,,,,,,55.81509340000048,0.015093400000480983,None,81.36323280000033,81.36323280000033,81.36323280000033,81.36323280000033,81.36323280000033,81.36323280000033,81.36323280000033,81.36323280000033,,003,P007,2025_Feb_01_1047,CategoryLocalizer,2021.2.3,59.885367429768806,
56.0,56.8,3,0.75,Stimuli\ImageFiles-Set1\Faces\Face_00049.png,0,0,0,89,89,89,,,,,,,,,,,,,56.015263199999936,0.01526319999993575,2,81.56339740000021,81.56339740000021,81.56339740000021,81.56339740000021,81.56339740000021,81.56339740000021,81.56339740000021,81.56339740000021,0.5020108999997319,003,P007,2025_Feb_01_1047,CategoryLocalizer,2021.2.3,59.885367429768806,
56.8,57.0,5,0.0,Stimuli\Blank.png,0,0,0,90,90,90,,,,,,,,,,,,,56.79863459999979,-0.0013654000002105704,None,82.34739780000018,82.34739780000018,82.34739780000018,82.34739780000018,82.34739780000018,82.34739780000018,82.34739780000018,82.34739780000018,,003,P007,2025_Feb_01_1047,CategoryLocalizer,2021.2.3,59.885367429768806,
57.0,57.8,3,0.75,Stimuli\ImageFiles-Set1\Faces\Face_00039.png,0,0,0,91,91,91,,,,,,,,,,,,,57.01773229999981,0.017732299999806855,None,82.58096990000013,82.58096990000013,82.58096990000013,82.58096990000013,82.58096990000013,82.58096990000013,82.58096990000013,82.58096990000013,,003,P007,2025_Feb_01_1047,CategoryLocalizer,2021.2.3,59.885367429768806,
57.8,58.0,5,0.0,Stimuli\Blank.png,0,0,0,92,92,92,,,,,,,,,,,,,57.81650389999959,0.016503899999591454,None,83.36498819999997,83.36498819999997,83.36498819999997,83.36498819999997,83.36498819999997,83.36498819999997,83.36498819999997,83.36498819999997,,003,P007,2025_Feb_01_1047,CategoryLocalizer,2021.2.3,59.885367429768806,
58.0,58.8,3,0.75,Stimuli\ImageFiles-Set1\Faces\Face_00109.png,0,0,0,93,93,93,,,,,,,,,,,,,58.00067010000021,0.0006701000002067303,None,83.5651656,83.5651656,83.5651656,83.5651656,83.5651656,83.5651656,83.5651656,83.5651656,,003,P007,2025_Feb_01_1047,CategoryLocalizer,2021.2.3,59.885367429768806,
58.8,59.0,5,0.0,Stimuli\Blank.png,0,0,0,94,94,94,,,,,,,,,,,,,58.81708570000046,0.0170857000004645,None,84.36587240000063,84.36587240000063,84.36587240000063,84.36587240000063,84.36587240000063,84.36587240000063,84.36587240000063,84.36587240000063,,003,P007,2025_Feb_01_1047,CategoryLocalizer,2021.2.3,59.885367429768806,
59.0,59.8,3,0.75,Stimuli\ImageFiles-Set1\Faces\Face_00001.png,0,0,0,95,95,95,,,,,,,,,,,,,59.001615899999706,0.0016158999997060164,None,84.56605000000036,84.56605000000036,84.56605000000036,84.56605000000036,84.56605000000036,84.56605000000036,84.56605000000036,84.56605000000036,,003,P007,2025_Feb_01_1047,CategoryLocalizer,2021.2.3,59.885367429768806,
59.8,60.0,5,0.0,Stimuli\Blank.png,0,0,0,96,96,96,,,,,,,,,,,,,59.82081920000019,0.020819200000190108,None,85.38346340000044,85.38346340000044,85.38346340000044,85.38346340000044,85.38346340000044,85.38346340000044,85.38346340000044,85.38346340000044,,003,P007,2025_Feb_01_1047,CategoryLocalizer,2021.2.3,59.885367429768806,
60.0,60.8,4,0.75,Stimuli\ImageFiles-Set1\Scenes\Scenes_047.png,0,0,0,97,97,97,,,,,,,,,,,,,60.01817140000003,0.01817140000002837,None,85.5669381000007,85.5669381000007,85.5669381000007,85.5669381000007,85.5669381000007,85.5669381000007,85.5669381000007,85.5669381000007,,003,P007,2025_Feb_01_1047,CategoryLocalizer,2021.2.3,59.885367429768806,
60.8,61.0,5,0.0,Stimuli\Blank.png,0,0,0,98,98,98,,,,,,,,,,,,,60.80326330000025,0.0032633000002562085,None,86.35096320000048,86.35096320000048,86.35096320000048,86.35096320000048,86.35096320000048,86.35096320000048,86.35096320000048,86.35096320000048,,003,P007,2025_Feb_01_1047,CategoryLocalizer,2021.2.3,59.885367429768806,
61.0,61.8,4,0.75,Stimuli\ImageFiles-Set1\Scenes\Scenes_015.png,0,0,0,99,99,99,,,,,,,,,,,,,61.00238900000022,0.002389000000221131,None,86.55113370000072,86.55113370000072,86.55113370000072,86.55113370000072,86.55113370000072,86.55113370000072,86.55113370000072,86.55113370000072,,003,P007,2025_Feb_01_1047,CategoryLocalizer,2021.2.3,59.885367429768806,
61.8,62.0,5,0.0,Stimuli\Blank.png,0,0,0,100,100,100,,,,,,,,,,,,,61.803073799999765,0.003073799999768312,None,87.3518423000005,87.3518423000005,87.3518423000005,87.3518423000005,87.3518423000005,87.3518423000005,87.3518423000005,87.3518423000005,,003,P007,2025_Feb_01_1047,CategoryLocalizer,2021.2.3,59.885367429768806,
62.0,62.8,4,0.75,Stimuli\ImageFiles-Set1\Scenes\Scenes_056.png,0,0,0,101,101,101,,,,,,,,,,,,,62.0033368000004,0.0033368000003974885,None,87.55202300000019,87.55202300000019,87.55202300000019,87.55202300000019,87.55202300000019,87.55202300000019,87.55202300000019,87.55202300000019,,003,P007,2025_Feb_01_1047,CategoryLocalizer,2021.2.3,59.885367429768806,
62.8,63.0,5,0.0,Stimuli\Blank.png,0,0,0,102,102,102,,,,,,,,,,,,,62.804563900000176,0.004563900000178478,None,88.35277730000053,88.35277730000053,88.35277730000053,88.35277730000053,88.35277730000053,88.35277730000053,88.35277730000053,88.35277730000053,,003,P007,2025_Feb_01_1047,CategoryLocalizer,2021.2.3,59.885367429768806,
63.0,63.8,4,0.75,Stimuli\ImageFiles-Set1\Scenes\Scenes_025.png,0,0,0,103,103,103,,,,,,,,,,,,,63.007219899999654,0.007219899999654444,None,88.56959430000006,88.56959430000006,88.56959430000006,88.56959430000006,88.56959430000006,88.56959430000006,88.56959430000006,88.56959430000006,,003,P007,2025_Feb_01_1047,CategoryLocalizer,2021.2.3,59.885367429768806,
63.8,64.0,5,0.0,Stimuli\Blank.png,0,0,0,104,104,104,,,,,,,,,,,,,63.82265670000015,0.022656700000155183,None,89.37030930000037,89.37030930000037,89.37030930000037,89.37030930000037,89.37030930000037,89.37030930000037,89.37030930000037,89.37030930000037,,003,P007,2025_Feb_01_1047,CategoryLocalizer,2021.2.3,59.885367429768806,
64.0,64.8,4,0.75,Stimuli\ImageFiles-Set1\Scenes\Scenes_051.png,0,0,0,105,105,105,,,,,,,,,,,,,64.00514469999962,0.0051446999996187515,None,89.5537944000007,89.5537944000007,89.5537944000007,89.5537944000007,89.5537944000007,89.5537944000007,89.5537944000007,89.5537944000007,,003,P007,2025_Feb_01_1047,CategoryLocalizer,2021.2.3,59.885367429768806,
64.8,65.0,5,0.0,Stimuli\Blank.png,0,0,0,106,106,106,,,,,,,,,,,,,64.80640870000025,0.006408700000250178,None,90.35450600000058,90.35450600000058,90.35450600000058,90.35450600000058,90.35450600000058,90.35450600000058,90.35450600000058,90.35450600000058,,003,P007,2025_Feb_01_1047,CategoryLocalizer,2021.2.3,59.885367429768806,
65.0,65.8,4,0.75,Stimuli\ImageFiles-Set1\Scenes\Scenes_041.png,0,0,0,107,107,107,,,,,,,,,,,,,65.0087196000004,0.00871960000040417,None,90.57138450000002,90.57138450000002,90.57138450000002,90.57138450000002,90.57138450000002,90.57138450000002,90.57138450000002,90.57138450000002,,003,P007,2025_Feb_01_1047,CategoryLocalizer,2021.2.3,59.885367429768806,
65.8,66.0,5,0.0,Stimuli\Blank.png,0,0,0,108,108,108,,,,,,,,,,,,,65.8241121000001,0.024112100000095893,None,91.3720830000002,91.3720830000002,91.3720830000002,91.3720830000002,91.3720830000002,91.3720830000002,91.3720830000002,91.3720830000002,,003,P007,2025_Feb_01_1047,CategoryLocalizer,2021.2.3,59.885367429768806,
66.0,66.8,4,0.75,Stimuli\ImageFiles-Set1\Scenes\Scenes_001.png,0,0,0,109,109,109,,,,,,,,,,,,,66.00689450000027,0.006894500000271364,None,91.57224840000072,91.57224840000072,91.57224840000072,91.57224840000072,91.57224840000072,91.57224840000072,91.57224840000072,91.57224840000072,,003,P007,2025_Feb_01_1047,CategoryLocalizer,2021.2.3,59.885367429768806,
66.8,67.0,5,0.0,Stimuli\Blank.png,0,0,0,110,110,110,,,,,,,,,,,,,66.82686530000046,0.026865300000466164,None,92.38964240000041,92.38964240000041,92.38964240000041,92.38964240000041,92.38964240000041,92.38964240000041,92.38964240000041,92.38964240000041,,003,P007,2025_Feb_01_1047,CategoryLocalizer,2021.2.3,59.885367429768806,
67.0,67.8,4,0.75,Stimuli\ImageFiles-Set1\Scenes\Scenes_012.png,0,0,0,111,111,111,,,,,,,,,,,,,67.02691140000024,0.026911400000244612,None,92.58981930000027,92.58981930000027,92.58981930000027,92.58981930000027,92.58981930000027,92.58981930000027,92.58981930000027,92.58981930000027,,003,P007,2025_Feb_01_1047,CategoryLocalizer,2021.2.3,59.885367429768806,
67.8,68.0,5,0.0,Stimuli\Blank.png,0,0,0,112,112,112,,,,,,,,,,,,,67.8252577000003,0.025257700000295813,None,93.37384689999999,93.37384689999999,93.37384689999999,93.37384689999999,93.37384689999999,93.37384689999999,93.37384689999999,93.37384689999999,,003,P007,2025_Feb_01_1047,CategoryLocalizer,2021.2.3,59.885367429768806,
68.0,68.8,4,0.75,Stimuli\ImageFiles-Set1\Scenes\Scenes_029.png,0,0,0,113,113,113,,,,,,,,,,,,,68.0085552999999,0.008555299999898125,None,93.55733099999998,93.55733099999998,93.55733099999998,93.55733099999998,93.55733099999998,93.55733099999998,93.55733099999998,93.55733099999998,,003,P007,2025_Feb_01_1047,CategoryLocalizer,2021.2.3,59.885367429768806,
68.8,69.0,5,0.0,Stimuli\Blank.png,0,0,0,114,114,114,,,,,,,,,,,,,68.81098409999959,0.010984099999589603,None,94.3747656000005,94.3747656000005,94.3747656000005,94.3747656000005,94.3747656000005,94.3747656000005,94.3747656000005,94.3747656000005,,003,P007,2025_Feb_01_1047,CategoryLocalizer,2021.2.3,59.885367429768806,
69.0,69.8,4,0.75,Stimuli\ImageFiles-Set1\Scenes\Scenes_019.png,0,0,0,115,115,115,,,,,,,,,,,,,69.02661679999983,0.0266167999998288,None,94.59160070000053,94.59160070000053,94.59160070000053,94.59160070000053,94.59160070000053,94.59160070000053,94.59160070000053,94.59160070000053,,003,P007,2025_Feb_01_1047,CategoryLocalizer,2021.2.3,59.885367429768806,
69.8,70.0,5,0.0,Stimuli\Blank.png,0,0,0,116,116,116,,,,,,,,,,,,,69.82795600000009,0.027956000000088466,None,95.3756140000005,95.3756140000005,95.3756140000005,95.3756140000005,95.3756140000005,95.3756140000005,95.3756140000005,95.3756140000005,,003,P007,2025_Feb_01_1047,CategoryLocalizer,2021.2.3,59.885367429768806,
70.0,70.8,4,0.75,Stimuli\ImageFiles-Set1\Scenes\Scenes_019.png,1,1,0,117,117,117,,,,,,,,,,,,,70.01044699999966,0.010446999999658146,2,95.57583880000038,95.57583880000038,95.57583880000038,95.57583880000038,95.57583880000038,95.57583880000038,95.57583880000038,95.57583880000038,0.5416440999997576,003,P007,2025_Feb_01_1047,CategoryLocalizer,2021.2.3,59.885367429768806,
70.8,71.0,5,0.0,Stimuli\Blank.png,0,0,0,118,118,118,,,,,,,,,,,,,70.82846119999977,0.028461199999767928,None,96.37649790000069,96.37649790000069,96.37649790000069,96.37649790000069,96.37649790000069,96.37649790000069,96.37649790000069,96.37649790000069,,003,P007,2025_Feb_01_1047,CategoryLocalizer,2021.2.3,59.885367429768806,
71.0,71.8,4,0.75,Stimuli\ImageFiles-Set1\Scenes\Scenes_033.png,0,0,0,119,119,119,,,,,,,,,,,,,71.01200849999987,0.012008499999865307,None,96.55999300000076,96.55999300000076,96.55999300000076,96.55999300000076,96.55999300000076,96.55999300000076,96.55999300000076,96.55999300000076,,003,P007,2025_Feb_01_1047,CategoryLocalizer,2021.2.3,59.885367429768806,
71.8,72.0,5,0.0,Stimuli\Blank.png,0,0,0,120,120,120,,,,,,,,,,,,,71.81207050000012,0.012070500000120887,None,97.36069840000073,97.36069840000073,97.36069840000073,97.36069840000073,97.36069840000073,97.36069840000073,97.36069840000073,97.36069840000073,,003,P007,2025_Feb_01_1047,CategoryLocalizer,2021.2.3,59.885367429768806,
72.0,72.8,4,0.75,Stimuli\ImageFiles-Set1\Scenes\Scenes_035.png,0,0,0,121,121,121,,,,,,,,,,,,,72.0121624000003,0.012162400000306661,None,97.56086070000038,97.56086070000038,97.56086070000038,97.56086070000038,97.56086070000038,97.56086070000038,97.56086070000038,97.56086070000038,,003,P007,2025_Feb_01_1047,CategoryLocalizer,2021.2.3,59.885367429768806,
72.8,73.0,5,0.0,Stimuli\Blank.png,0,0,0,122,122,122,,,,,,,,,,,,,72.81325339999967,0.013253399999669568,None,98.36159600000065,98.36159600000065,98.36159600000065,98.36159600000065,98.36159600000065,98.36159600000065,98.36159600000065,98.36159600000065,,003,P007,2025_Feb_01_1047,CategoryLocalizer,2021.2.3,59.885367429768806,
73.0,73.8,4,0.75,Stimuli\ImageFiles-Set1\Scenes\Scenes_060.png,0,0,0,123,123,123,,,,,,,,,,,,,73.01343799999995,0.01343799999995099,None,98.5617557000005,98.5617557000005,98.5617557000005,98.5617557000005,98.5617557000005,98.5617557000005,98.5617557000005,98.5617557000005,,003,P007,2025_Feb_01_1047,CategoryLocalizer,2021.2.3,59.885367429768806,
73.8,74.0,5,0.0,Stimuli\Blank.png,0,0,0,124,124,124,,,,,,,,,,,,,73.81578420000005,0.015784200000055648,None,99.3791699000003,99.3791699000003,99.3791699000003,99.3791699000003,99.3791699000003,99.3791699000003,99.3791699000003,99.3791699000003,,003,P007,2025_Feb_01_1047,CategoryLocalizer,2021.2.3,59.885367429768806,
74.0,74.8,4,0.75,Stimuli\ImageFiles-Set1\Scenes\Scenes_044.png,0,0,0,125,125,125,,,,,,,,,,,,,74.01391369999965,0.013913699999648088,None,99.56264780000038,99.56264780000038,99.56264780000038,99.56264780000038,99.56264780000038,99.56264780000038,99.56264780000038,99.56264780000038,,003,P007,2025_Feb_01_1047,CategoryLocalizer,2021.2.3,59.885367429768806,
74.8,75.0,5,0.0,Stimuli\Blank.png,0,0,0,126,126,126,,,,,,,,,,,,,74.8150542000003,0.015054200000307105,None,100.36339230000067,100.36339230000067,100.36339230000067,100.36339230000067,100.36339230000067,100.36339230000067,100.36339230000067,100.36339230000067,,003,P007,2025_Feb_01_1047,CategoryLocalizer,2021.2.3,59.885367429768806,
75.0,75.8,4,0.75,Stimuli\ImageFiles-Set1\Scenes\Scenes_020.png,0,0,0,127,127,127,,,,,,,,,,,,,75.0161465000001,0.016146500000104425,None,100.58022150000033,100.58022150000033,100.58022150000033,100.58022150000033,100.58022150000033,100.58022150000033,100.58022150000033,100.58022150000033,,003,P007,2025_Feb_01_1047,CategoryLocalizer,2021.2.3,59.885367429768806,
75.8,76.0,5,0.0,Stimuli\Blank.png,0,0,0,128,128,128,,,,,,,,,,,,,75.81612440000026,0.016124400000265382,None,101.36424310000075,101.36424310000075,101.36424310000075,101.36424310000075,101.36424310000075,101.36424310000075,101.36424310000075,101.36424310000075,,003,P007,2025_Feb_01_1047,CategoryLocalizer,2021.2.3,59.885367429768806,
76.0,88.0,0,0.0,Stimuli\Blank.png,0,0,0,129,129,129,,,,,,,,,,,,,75.9998171999996,-0.00018280000040249433,None,101.54775310000059,101.54775310000059,101.54775310000059,101.54775310000059,101.54775310000059,101.54775310000059,101.54775310000059,101.54775310000059,,003,P007,2025_Feb_01_1047,CategoryLocalizer,2021.2.3,59.885367429768806,
88.0,88.8,3,0.75,Stimuli\ImageFiles-Set1\Faces\Face_00095.png,0,0,0,130,130,130,,,,,,,,,,,,,88.0102022000001,0.010202200000094308,None,113.55835900000056,113.55835900000056,113.55835900000056,113.55835900000056,113.55835900000056,113.55835900000056,113.55835900000056,113.55835900000056,,003,P007,2025_Feb_01_1047,CategoryLocalizer,2021.2.3,59.885367429768806,
88.8,89.0,5,0.0,Stimuli\Blank.png,0,0,0,131,131,131,,,,,,,,,,,,,88.81121259999964,0.011212599999637973,None,114.35908440000003,114.35908440000003,114.35908440000003,114.35908440000003,114.35908440000003,114.35908440000003,114.35908440000003,114.35908440000003,,003,P007,2025_Feb_01_1047,CategoryLocalizer,2021.2.3,59.885367429768806,
89.0,89.8,3,0.75,Stimuli\ImageFiles-Set1\Faces\Face_00113.png,0,0,0,132,132,132,,,,,,,,,,,,,89.01048340000034,0.010483400000339316,None,114.55924390000018,114.55924390000018,114.55924390000018,114.55924390000018,114.55924390000018,114.55924390000018,114.55924390000018,114.55924390000018,,003,P007,2025_Feb_01_1047,CategoryLocalizer,2021.2.3,59.885367429768806,
89.8,90.0,5,0.0,Stimuli\Blank.png,0,0,0,133,133,133,,,,,,,,,,,,,89.81180469999981,0.011804699999814261,None,115.35995920000005,115.35995920000005,115.35995920000005,115.35995920000005,115.35995920000005,115.35995920000005,115.35995920000005,115.35995920000005,,003,P007,2025_Feb_01_1047,CategoryLocalizer,2021.2.3,59.885367429768806,
90.0,90.8,3,0.75,Stimuli\ImageFiles-Set1\Faces\Face_00016.png,0,0,0,134,134,134,,,,,,,,,,,,,90.01196100000016,0.011961000000155764,None,115.56013729999995,115.56013729999995,115.56013729999995,115.56013729999995,115.56013729999995,115.56013729999995,115.56013729999995,115.56013729999995,,003,P007,2025_Feb_01_1047,CategoryLocalizer,2021.2.3,59.885367429768806,
90.8,91.0,5,0.0,Stimuli\Blank.png,0,0,0,135,135,135,,,,,,,,,,,,,90.81269429999975,0.012694299999751024,None,116.3608492000003,116.3608492000003,116.3608492000003,116.3608492000003,116.3608492000003,116.3608492000003,116.3608492000003,116.3608492000003,,003,P007,2025_Feb_01_1047,CategoryLocalizer,2021.2.3,59.885367429768806,
91.0,91.8,3,0.75,Stimuli\ImageFiles-Set1\Faces\Face_00012.png,0,0,0,136,136,136,,,,,,,,,,,,,91.0126621999998,0.01266219999979512,None,116.56101480000052,116.56101480000052,116.56101480000052,116.56101480000052,116.56101480000052,116.56101480000052,116.56101480000052,116.56101480000052,,003,P007,2025_Feb_01_1047,CategoryLocalizer,2021.2.3,59.885367429768806,
91.8,92.0,5,0.0,Stimuli\Blank.png,0,0,0,137,137,137,,,,,,,,,,,,,91.81296230000044,0.012962300000438631,None,117.36173440000039,117.36173440000039,117.36173440000039,117.36173440000039,117.36173440000039,117.36173440000039,117.36173440000039,117.36173440000039,,003,P007,2025_Feb_01_1047,CategoryLocalizer,2021.2.3,59.885367429768806,
92.0,92.8,3,0.75,Stimuli\ImageFiles-Set1\Faces\Face_00009.png,0,0,0,138,138,138,,,,,,,,,,,,,92.01555050000024,0.015550500000244938,None,117.57861200000025,117.57861200000025,117.57861200000025,117.57861200000025,117.57861200000025,117.57861200000025,117.57861200000025,117.57861200000025,,003,P007,2025_Feb_01_1047,CategoryLocalizer,2021.2.3,59.885367429768806,
92.8,93.0,5,0.0,Stimuli\Blank.png,0,0,0,139,139,139,,,,,,,,,,,,,92.81569889999992,0.01569889999991858,None,118.37931010000011,118.37931010000011,118.37931010000011,118.37931010000011,118.37931010000011,118.37931010000011,118.37931010000011,118.37931010000011,,003,P007,2025_Feb_01_1047,CategoryLocalizer,2021.2.3,59.885367429768806,
93.0,93.8,3,0.75,Stimuli\ImageFiles-Set1\Faces\Face_00041.png,0,0,0,140,140,140,,,,,,,,,,,,,93.01594159999968,0.015941599999678147,None,118.57949550000012,118.57949550000012,118.57949550000012,118.57949550000012,118.57949550000012,118.57949550000012,118.57949550000012,118.57949550000012,,003,P007,2025_Feb_01_1047,CategoryLocalizer,2021.2.3,59.885367429768806,
93.8,94.0,5,0.0,Stimuli\Blank.png,0,0,0,141,141,141,,,,,,,,,,,,,93.81503359999988,0.01503359999988163,None,119.36354329999995,119.36354329999995,119.36354329999995,119.36354329999995,119.36354329999995,119.36354329999995,119.36354329999995,119.36354329999995,,003,P007,2025_Feb_01_1047,CategoryLocalizer,2021.2.3,59.885367429768806,
94.0,94.8,3,0.75,Stimuli\ImageFiles-Set1\Faces\Face_00041.png,1,1,0,142,142,142,,,,,,,,,,,,,94.01576899999964,0.015768999999636435,2,119.5636714000002,119.5636714000002,119.5636714000002,119.5636714000002,119.5636714000002,119.5636714000002,119.5636714000002,119.5636714000002,0.4838174999995317,003,P007,2025_Feb_01_1047,CategoryLocalizer,2021.2.3,59.885367429768806,
94.8,95.0,5,0.0,Stimuli\Blank.png,0,0,0,143,143,143,,,,,,,,,,,,,94.79970860000049,-0.0002913999995115546,None,120.34771070000079,120.34771070000079,120.34771070000079,120.34771070000079,120.34771070000079,120.34771070000079,120.34771070000079,120.34771070000079,,003,P007,2025_Feb_01_1047,CategoryLocalizer,2021.2.3,59.885367429768806,
95.0,95.8,3,0.75,Stimuli\ImageFiles-Set1\Faces\Face_00055.png,0,0,0,144,144,144,,,,,,,,,,,,,95.00157519999993,0.0015751999999338295,None,120.56456980000075,120.56456980000075,120.56456980000075,120.56456980000075,120.56456980000075,120.56456980000075,120.56456980000075,120.56456980000075,,003,P007,2025_Feb_01_1047,CategoryLocalizer,2021.2.3,59.885367429768806,
95.8,96.0,5,0.0,Stimuli\Blank.png,0,0,0,145,145,145,,,,,,,,,,,,,95.81659070000023,0.016590700000236325,None,121.36526400000002,121.36526400000002,121.36526400000002,121.36526400000002,121.36526400000002,121.36526400000002,121.36526400000002,121.36526400000002,,003,P007,2025_Feb_01_1047,CategoryLocalizer,2021.2.3,59.885367429768806,
96.0,96.8,3,0.75,Stimuli\ImageFiles-Set1\Faces\Face_00103.png,0,0,0,146,146,146,,,,,,,,,,,,,96.00093209999977,0.0009320999997726176,None,121.54876800000056,121.54876800000056,121.54876800000056,121.54876800000056,121.54876800000056,121.54876800000056,121.54876800000056,121.54876800000056,,003,P007,2025_Feb_01_1047,CategoryLocalizer,2021.2.3,59.885367429768806,
96.8,97.0,5,0.0,Stimuli\Blank.png,0,0,0,147,147,147,,,,,,,,,,,,,96.8008189000002,0.0008189000001976865,None,122.34947000000011,122.34947000000011,122.34947000000011,122.34947000000011,122.34947000000011,122.34947000000011,122.34947000000011,122.34947000000011,,003,P007,2025_Feb_01_1047,CategoryLocalizer,2021.2.3,59.885367429768806,
97.0,97.8,3,0.75,Stimuli\ImageFiles-Set1\Faces\Face_00081.png,0,0,0,148,148,148,,,,,,,,,,,,,97.00156109999989,0.0015610999998898478,None,122.56631890000062,122.56631890000062,122.56631890000062,122.56631890000062,122.56631890000062,122.56631890000062,122.56631890000062,122.56631890000062,,003,P007,2025_Feb_01_1047,CategoryLocalizer,2021.2.3,59.885367429768806,
97.8,98.0,5,0.0,Stimuli\Blank.png,0,0,0,149,149,149,,,,,,,,,,,,,97.81899379999959,0.018993799999591943,None,123.3670490000004,123.3670490000004,123.3670490000004,123.3670490000004,123.3670490000004,123.3670490000004,123.3670490000004,123.3670490000004,,003,P007,2025_Feb_01_1047,CategoryLocalizer,2021.2.3,59.885367429768806,
98.0,98.8,3,0.75,Stimuli\ImageFiles-Set1\Faces\Face_00053.png,0,0,0,150,150,150,,,,,,,,,,,,,98.00232669999968,0.0023266999996849336,None,123.56721330000073,123.56721330000073,123.56721330000073,123.56721330000073,123.56721330000073,123.56721330000073,123.56721330000073,123.56721330000073,,003,P007,2025_Feb_01_1047,CategoryLocalizer,2021.2.3,59.885367429768806,
98.8,99.0,5,0.0,Stimuli\Blank.png,0,0,0,151,151,151,,,,,,,,,,,,,98.82117480000034,0.021174800000338223,None,124.38464620000013,124.38464620000013,124.38464620000013,124.38464620000013,124.38464620000013,124.38464620000013,124.38464620000013,124.38464620000013,,003,P007,2025_Feb_01_1047,CategoryLocalizer,2021.2.3,59.885367429768806,
99.0,99.8,3,0.75,Stimuli\ImageFiles-Set1\Faces\Face_00107.png,0,0,0,152,152,152,,,,,,,,,,,,,99.02004889999989,0.020048899999892456,None,124.58479720000014,124.58479720000014,124.58479720000014,124.58479720000014,124.58479720000014,124.58479720000014,124.58479720000014,124.58479720000014,,003,P007,2025_Feb_01_1047,CategoryLocalizer,2021.2.3,59.885367429768806,
99.8,100.0,5,0.0,Stimuli\Blank.png,0,0,0,153,153,153,,,,,,,,,,,,,99.8205969999999,0.020596999999909826,None,125.36881200000062,125.36881200000062,125.36881200000062,125.36881200000062,125.36881200000062,125.36881200000062,125.36881200000062,125.36881200000062,,003,P007,2025_Feb_01_1047,CategoryLocalizer,2021.2.3,59.885367429768806,
100.0,100.8,3,0.75,Stimuli\ImageFiles-Set1\Faces\Face_00031.png,1,1,0,154,154,154,,,,,,,,,,,,,100.00586519999979,0.0058651999997891835,None,125.56898660000024,125.56898660000024,125.56898660000024,125.56898660000024,125.56898660000024,125.56898660000024,125.56898660000024,125.56898660000024,,003,P007,2025_Feb_01_1047,CategoryLocalizer,2021.2.3,59.885367429768806,
100.8,101.0,5,0.0,Stimuli\Blank.png,0,0,0,155,155,155,,,,,,,,,,,,,100.82160139999996,0.02160139999996602,None,126.36969910000062,126.36969910000062,126.36969910000062,126.36969910000062,126.36969910000062,126.36969910000062,126.36969910000062,126.36969910000062,,003,P007,2025_Feb_01_1047,CategoryLocalizer,2021.2.3,59.885367429768806,
101.0,101.8,3,0.75,Stimuli\ImageFiles-Set1\Faces\Face_00043.png,0,0,0,156,156,156,,,,,,,,,,,,,101.00517820000005,0.005178200000045763,None,126.56987000000026,126.56987000000026,126.56987000000026,126.56987000000026,126.56987000000026,126.56987000000026,126.56987000000026,126.56987000000026,,003,P007,2025_Feb_01_1047,CategoryLocalizer,2021.2.3,59.885367429768806,
101.8,102.0,5,0.0,Stimuli\Blank.png,0,0,0,157,157,157,,,,,,,,,,,,,101.82186460000048,0.021864600000483847,None,127.37058140000045,127.37058140000045,127.37058140000045,127.37058140000045,127.37058140000045,127.37058140000045,127.37058140000045,127.37058140000045,,003,P007,2025_Feb_01_1047,CategoryLocalizer,2021.2.3,59.885367429768806,
102.0,102.8,3,0.75,Stimuli\ImageFiles-Set1\Faces\Face_00043.png,0,0,0,158,158,158,,,,,,,,,,,,,102.00627650000024,0.006276500000240048,2,127.57080100000076,127.57080100000076,127.57080100000076,127.57080100000076,127.57080100000076,127.57080100000076,127.57080100000076,127.57080100000076,0.39166060000025027,003,P007,2025_Feb_01_1047,CategoryLocalizer,2021.2.3,59.885367429768806,
102.8,103.0,5,0.0,Stimuli\Blank.png,0,0,0,159,159,159,,,,,,,,,,,,,102.823308,0.023308000000000106,None,128.3714918000005,128.3714918000005,128.3714918000005,128.3714918000005,128.3714918000005,128.3714918000005,128.3714918000005,128.3714918000005,,003,P007,2025_Feb_01_1047,CategoryLocalizer,2021.2.3,59.885367429768806,
103.0,103.8,3,0.75,Stimuli\ImageFiles-Set1\Faces\Face_00073.png,0,0,0,160,160,160,,,,,,,,,,,,,103.00733300000047,0.007333000000471657,None,128.55495659999997,128.55495659999997,128.55495659999997,128.55495659999997,128.55495659999997,128.55495659999997,128.55495659999997,128.55495659999997,,003,P007,2025_Feb_01_1047,CategoryLocalizer,2021.2.3,59.885367429768806,
103.8,104.0,5,0.0,Stimuli\Blank.png,0,0,0,161,161,161,,,,,,,,,,,,,103.80700390000038,0.007003900000384533,None,129.35567040000024,129.35567040000024,129.35567040000024,129.35567040000024,129.35567040000024,129.35567040000024,129.35567040000024,129.35567040000024,,003,P007,2025_Feb_01_1047,CategoryLocalizer,2021.2.3,59.885367429768806,
104.0,104.8,1,0.75,Stimuli\ImageFiles-Set1\Objects\Object_Bench_00001.png,0,0,0,162,162,162,,,,,,,,,,,,,104.0070923000003,0.007092300000294927,None,129.55584420000014,129.55584420000014,129.55584420000014,129.55584420000014,129.55584420000014,129.55584420000014,129.55584420000014,129.55584420000014,,003,P007,2025_Feb_01_1047,CategoryLocalizer,2021.2.3,59.885367429768806,
104.8,105.0,5,0.0,Stimuli\Blank.png,0,0,0,163,163,163,,,,,,,,,,,,,104.80773700000009,0.007737000000091143,None,130.35655900000074,130.35655900000074,130.35655900000074,130.35655900000074,130.35655900000074,130.35655900000074,130.35655900000074,130.35655900000074,,003,P007,2025_Feb_01_1047,CategoryLocalizer,2021.2.3,59.885367429768806,
105.0,105.8,1,0.75,Stimuli\ImageFiles-Set1\Objects\Object_Banana_00001.png,0,0,0,164,164,164,,,,,,,,,,,,,105.0087096999996,0.008709699999599252,None,130.55674350000027,130.55674350000027,130.55674350000027,130.55674350000027,130.55674350000027,130.55674350000027,130.55674350000027,130.55674350000027,,003,P007,2025_Feb_01_1047,CategoryLocalizer,2021.2.3,59.885367429768806,
105.8,106.0,5,0.0,Stimuli\Blank.png,0,0,0,165,165,165,,,,,,,,,,,,,105.80887369999982,0.00887369999982468,None,131.35744140000043,131.35744140000043,131.35744140000043,131.35744140000043,131.35744140000043,131.35744140000043,131.35744140000043,131.35744140000043,,003,P007,2025_Feb_01_1047,CategoryLocalizer,2021.2.3,59.885367429768806,
106.0,106.8,1,0.75,Stimuli\ImageFiles-Set1\Objects\Object_FileFolder_00001.png,0,0,0,166,166,166,,,,,,,,,,,,,106.00966080000035,0.00966080000034708,None,131.55761239999993,131.55761239999993,131.55761239999993,131.55761239999993,131.55761239999993,131.55761239999993,131.55761239999993,131.55761239999993,,003,P007,2025_Feb_01_1047,CategoryLocalizer,2021.2.3,59.885367429768806,
106.8,107.0,5,0.0,Stimuli\Blank.png,0,0,0,167,167,167,,,,,,,,,,,,,106.81017580000025,0.010175800000254753,None,132.35834220000015,132.35834220000015,132.35834220000015,132.35834220000015,132.35834220000015,132.35834220000015,132.35834220000015,132.35834220000015,,003,P007,2025_Feb_01_1047,CategoryLocalizer,2021.2.3,59.885367429768806,
107.0,107.8,1,0.75,Stimuli\ImageFiles-Set1\Objects\Object_Boat_00001.png,0,0,0,168,168,168,,,,,,,,,,,,,107.01041239999995,0.01041239999995014,None,132.55851940000048,132.55851940000048,132.55851940000048,132.55851940000048,132.55851940000048,132.55851940000048,132.55851940000048,132.55851940000048,,003,P007,2025_Feb_01_1047,CategoryLocalizer,2021.2.3,59.885367429768806,
107.8,108.0,5,0.0,Stimuli\Blank.png,0,0,0,169,169,169,,,,,,,,,,,,,107.81181319999996,0.01181319999996333,None,133.35922850000043,133.35922850000043,133.35922850000043,133.35922850000043,133.35922850000043,133.35922850000043,133.35922850000043,133.35922850000043,,003,P007,2025_Feb_01_1047,CategoryLocalizer,2021.2.3,59.885367429768806,
108.0,108.8,1,0.75,Stimuli\ImageFiles-Set1\Objects\Object_Pencil_00001.png,0,0,0,170,170,170,,,,,,,,,,,,,108.01136829999996,0.011368299999958253,None,133.55938640000022,133.55938640000022,133.55938640000022,133.55938640000022,133.55938640000022,133.55938640000022,133.55938640000022,133.55938640000022,,003,P007,2025_Feb_01_1047,CategoryLocalizer,2021.2.3,59.885367429768806,
108.8,109.0,5,0.0,Stimuli\Blank.png,0,0,0,171,171,171,,,,,,,,,,,,,108.81170730000031,0.011707300000310283,None,134.36009120000017,134.36009120000017,134.36009120000017,134.36009120000017,134.36009120000017,134.36009120000017,134.36009120000017,134.36009120000017,,003,P007,2025_Feb_01_1047,CategoryLocalizer,2021.2.3,59.885367429768806,
109.0,109.8,1,0.75,Stimuli\ImageFiles-Set1\Objects\Object_Canoe_00001.png,0,0,0,172,172,172,,,,,,,,,,,,,109.0122921000002,0.012292100000195205,None,134.56027880000056,134.56027880000056,134.56027880000056,134.56027880000056,134.56027880000056,134.56027880000056,134.56027880000056,134.56027880000056,,003,P007,2025_Feb_01_1047,CategoryLocalizer,2021.2.3,59.885367429768806,
109.8,110.0,5,0.0,Stimuli\Blank.png,0,0,0,173,173,173,,,,,,,,,,,,,109.8129957000001,0.012995700000104193,None,135.36097640000025,135.36097640000025,135.36097640000025,135.36097640000025,135.36097640000025,135.36097640000025,135.36097640000025,135.36097640000025,,003,P007,2025_Feb_01_1047,CategoryLocalizer,2021.2.3,59.885367429768806,
110.0,110.8,1,0.75,Stimuli\ImageFiles-Set1\Objects\Object_Canoe_00001.png,1,1,0,174,174,174,,,,,,,,,,,,,110.01300400000036,0.013004000000364613,2,135.57785409999997,135.57785409999997,135.57785409999997,135.57785409999997,135.57785409999997,135.57785409999997,135.57785409999997,135.57785409999997,0.5625959999997576,003,P007,2025_Feb_01_1047,CategoryLocalizer,2021.2.3,59.885367429768806,
110.8,111.0,5,0.0,Stimuli\Blank.png,0,0,0,175,175,175,,,,,,,,,,,,,110.83102190000045,0.031021900000453684,None,136.3785398,136.3785398,136.3785398,136.3785398,136.3785398,136.3785398,136.3785398,136.3785398,,003,P007,2025_Feb_01_1047,CategoryLocalizer,2021.2.3,59.885367429768806,
111.0,111.8,1,0.75,Stimuli\ImageFiles-Set1\Objects\Object_Peanut_00001.png,0,0,0,176,176,176,,,,,,,,,,,,,111.01330260000032,0.013302600000315579,None,136.57874360000005,136.57874360000005,136.57874360000005,136.57874360000005,136.57874360000005,136.57874360000005,136.57874360000005,136.57874360000005,,003,P007,2025_Feb_01_1047,CategoryLocalizer,2021.2.3,59.885367429768806,
111.8,112.0,5,0.0,Stimuli\Blank.png,0,0,0,177,177,177,,,,,,,,,,,,,111.83163719999993,0.03163719999993475,None,137.37944229999994,137.37944229999994,137.37944229999994,137.37944229999994,137.37944229999994,137.37944229999994,137.37944229999994,137.37944229999994,,003,P007,2025_Feb_01_1047,CategoryLocalizer,2021.2.3,59.885367429768806,
112.0,112.8,1,0.75,Stimuli\ImageFiles-Set1\Objects\Object_Brush_00001.png,0,0,0,178,178,178,,,,,,,,,,,,,112.01620569999977,0.01620569999977306,None,137.57961280000018,137.57961280000018,137.57961280000018,137.57961280000018,137.57961280000018,137.57961280000018,137.57961280000018,137.57961280000018,,003,P007,2025_Feb_01_1047,CategoryLocalizer,2021.2.3,59.885367429768806,
112.8,113.0,5,0.0,Stimuli\Blank.png,0,0,0,179,179,179,,,,,,,,,,,,,112.81518770000002,0.015187700000026894,None,138.3636344000006,138.3636344000006,138.3636344000006,138.3636344000006,138.3636344000006,138.3636344000006,138.3636344000006,138.3636344000006,,003,P007,2025_Feb_01_1047,CategoryLocalizer,2021.2.3,59.885367429768806,
113.0,113.8,1,0.75,Stimuli\ImageFiles-Set1\Objects\Object_Dryer_00001.png,0,0,0,180,180,180,,,,,,,,,,,,,113.0152779,0.015277900000000955,None,138.56381430000056,138.56381430000056,138.56381430000056,138.56381430000056,138.56381430000056,138.56381430000056,138.56381430000056,138.56381430000056,,003,P007,2025_Feb_01_1047,CategoryLocalizer,2021.2.3,59.885367429768806,
113.8,114.0,5,0.0,Stimuli\Blank.png,0,0,0,181,181,181,,,,,,,,,,,,,113.80184089999966,0.0018408999996637476,None,139.3645363000005,139.3645363000005,139.3645363000005,139.3645363000005,139.3645363000005,139.3645363000005,139.3645363000005,139.3645363000005,,003,P007,2025_Feb_01_1047,CategoryLocalizer,2021.2.3,59.885367429768806,
114.0,114.8,1,0.75,Stimuli\ImageFiles-Set1\Objects\Object_PepperShaker_00001.png,1,1,0,182,182,182,,,,,,,,,,,,,114.01727959999971,0.017279599999710626,None,139.58137680000073,139.58137680000073,139.58137680000073,139.58137680000073,139.58137680000073,139.58137680000073,139.58137680000073,139.58137680000073,,003,P007,2025_Feb_01_1047,CategoryLocalizer,2021.2.3,59.885367429768806,
114.8,115.0,5,0.0,Stimuli\Blank.png,0,0,0,183,183,183,,,,,,,,,,,,,114.81724430000031,0.017244300000314183,None,140.36540800000057,140.36540800000057,140.36540800000057,140.36540800000057,140.36540800000057,140.36540800000057,140.36540800000057,140.36540800000057,,003,P007,2025_Feb_01_1047,CategoryLocalizer,2021.2.3,59.885367429768806,
115.0,115.8,1,0.75,Stimuli\ImageFiles-Set1\Objects\Object_Watch_00001.png,0,0,0,184,184,184,,,,,,,,,,,,,115.00035910000042,0.00035910000042349566,None,140.54894690000037,140.54894690000037,140.54894690000037,140.54894690000037,140.54894690000037,140.54894690000037,140.54894690000037,140.54894690000037,,003,P007,2025_Feb_01_1047,CategoryLocalizer,2021.2.3,59.885367429768806,
115.8,116.0,5,0.0,Stimuli\Blank.png,0,0,0,185,185,185,,,,,,,,,,,,,115.80087509999976,0.0008750999997602094,None,141.3496092000005,141.3496092000005,141.3496092000005,141.3496092000005,141.3496092000005,141.3496092000005,141.3496092000005,141.3496092000005,,003,P007,2025_Feb_01_1047,CategoryLocalizer,2021.2.3,59.885367429768806,
116.0,116.8,1,0.75,Stimuli\ImageFiles-Set1\Objects\Object_Watch_00001.png,0,0,0,186,186,186,,,,,,,,,,,,,116.00131049999982,0.0013104999998176936,2,141.5497834000007,141.5497834000007,141.5497834000007,141.5497834000007,141.5497834000007,141.5497834000007,141.5497834000007,141.5497834000007,0.35603419999915786,003,P007,2025_Feb_01_1047,CategoryLocalizer,2021.2.3,59.885367429768806,
116.8,117.0,5,0.0,Stimuli\Blank.png,0,0,0,187,187,187,,,,,,,,,,,,,116.80198389999987,0.0019838999998711415,None,142.3504941000001,142.3504941000001,142.3504941000001,142.3504941000001,142.3504941000001,142.3504941000001,142.3504941000001,142.3504941000001,,003,P007,2025_Feb_01_1047,CategoryLocalizer,2021.2.3,59.885367429768806,
117.0,117.8,1,0.75,Stimuli\ImageFiles-Set1\Objects\Object_Baseball_00001.png,0,0,0,188,188,188,,,,,,,,,,,,,117.00195669999994,0.0019566999999369727,None,142.5673411000007,142.5673411000007,142.5673411000007,142.5673411000007,142.5673411000007,142.5673411000007,142.5673411000007,142.5673411000007,,003,P007,2025_Feb_01_1047,CategoryLocalizer,2021.2.3,59.885367429768806,
117.8,118.0,5,0.0,Stimuli\Blank.png,0,0,0,189,189,189,,,,,,,,,,,,,117.82096579999961,0.020965799999615342,None,143.38476050000008,143.38476050000008,143.38476050000008,143.38476050000008,143.38476050000008,143.38476050000008,143.38476050000008,143.38476050000008,,003,P007,2025_Feb_01_1047,CategoryLocalizer,2021.2.3,59.885367429768806,
118.0,118.8,1,0.75,Stimuli\ImageFiles-Set1\Objects\Object_Crib_00001.png,0,0,0,190,190,190,,,,,,,,,,,,,118.02034600000025,0.020346000000245112,None,143.58493650000037,143.58493650000037,143.58493650000037,143.58493650000037,143.58493650000037,143.58493650000037,143.58493650000037,143.58493650000037,,003,P007,2025_Feb_01_1047,CategoryLocalizer,2021.2.3,59.885367429768806,
118.8,119.0,5,0.0,Stimuli\Blank.png,0,0,0,191,191,191,,,,,,,,,,,,,118.8208580999999,0.020858099999898627,None,144.36903110000003,144.36903110000003,144.36903110000003,144.36903110000003,144.36903110000003,144.36903110000003,144.36903110000003,144.36903110000003,,003,P007,2025_Feb_01_1047,CategoryLocalizer,2021.2.3,59.885367429768806,
119.0,119.8,1,0.75,Stimuli\ImageFiles-Set1\Objects\Object_Book_00001.png,0,0,0,192,192,192,,,,,,,,,,,,,119.00593050000043,0.005930500000431493,None,144.56913280000026,144.56913280000026,144.56913280000026,144.56913280000026,144.56913280000026,144.56913280000026,144.56913280000026,144.56913280000026,,003,P007,2025_Feb_01_1047,CategoryLocalizer,2021.2.3,59.885367429768806,
119.8,120.0,5,0.0,Stimuli\Blank.png,0,0,0,193,193,193,,,,,,,,,,,,,119.82189470000048,0.021894700000487433,None,145.36984370000027,145.36984370000027,145.36984370000027,145.36984370000027,145.36984370000027,145.36984370000027,145.36984370000027,145.36984370000027,,003,P007,2025_Feb_01_1047,CategoryLocalizer,2021.2.3,59.885367429768806,
120.0,120.8,4,0.75,Stimuli\ImageFiles-Set1\Scenes\Scenes_013.png,0,0,0,194,194,194,,,,,,,,,,,,,120.00593079999999,0.005930799999987357,None,145.55332739999994,145.55332739999994,145.55332739999994,145.55332739999994,145.55332739999994,145.55332739999994,145.55332739999994,145.55332739999994,,003,P007,2025_Feb_01_1047,CategoryLocalizer,2021.2.3,59.885367429768806,
120.8,121.0,5,0.0,Stimuli\Blank.png,0,0,0,195,195,195,,,,,,,,,,,,,120.80528680000043,0.0052868000004338,None,146.3540851000007,146.3540851000007,146.3540851000007,146.3540851000007,146.3540851000007,146.3540851000007,146.3540851000007,146.3540851000007,,003,P007,2025_Feb_01_1047,CategoryLocalizer,2021.2.3,59.885367429768806,
121.0,121.8,4,0.75,Stimuli\ImageFiles-Set1\Scenes\Scenes_037.png,0,0,0,196,196,196,,,,,,,,,,,,,121.00660630000039,0.00660630000038509,None,146.57086130000062,146.57086130000062,146.57086130000062,146.57086130000062,146.57086130000062,146.57086130000062,146.57086130000062,146.57086130000062,,003,P007,2025_Feb_01_1047,CategoryLocalizer,2021.2.3,59.885367429768806,
121.8,122.0,5,0.0,Stimuli\Blank.png,0,0,0,197,197,197,,,,,,,,,,,,,121.82332250000036,0.0233225000003614,None,147.3716084000007,147.3716084000007,147.3716084000007,147.3716084000007,147.3716084000007,147.3716084000007,147.3716084000007,147.3716084000007,,003,P007,2025_Feb_01_1047,CategoryLocalizer,2021.2.3,59.885367429768806,
122.0,122.8,4,0.75,Stimuli\ImageFiles-Set1\Scenes\Scenes_045.png,0,0,0,198,198,198,,,,,,,,,,,,,122.00640010000006,0.006400100000064413,None,147.5550955000008,147.5550955000008,147.5550955000008,147.5550955000008,147.5550955000008,147.5550955000008,147.5550955000008,147.5550955000008,,003,P007,2025_Feb_01_1047,CategoryLocalizer,2021.2.3,59.885367429768806,
122.8,123.0,5,0.0,Stimuli\Blank.png,0,0,0,199,199,199,,,,,,,,,,,,,122.80713190000006,0.007131900000061364,None,148.35580580000078,148.35580580000078,148.35580580000078,148.35580580000078,148.35580580000078,148.35580580000078,148.35580580000078,148.35580580000078,,003,P007,2025_Feb_01_1047,CategoryLocalizer,2021.2.3,59.885367429768806,
123.0,123.8,4,0.75,Stimuli\ImageFiles-Set1\Scenes\Scenes_045.png,1,1,0,200,200,200,,,,,,,,,,,,,123.00735590000022,0.007355900000220572,None,148.55595600000015,148.55595600000015,148.55595600000015,148.55595600000015,148.55595600000015,148.55595600000015,148.55595600000015,148.55595600000015,,003,P007,2025_Feb_01_1047,CategoryLocalizer,2021.2.3,59.885367429768806,
123.8,124.0,5,0.0,Stimuli\Blank.png,0,0,0,201,201,201,,,,,,,,,,,,,123.80790960000013,0.007909600000132855,None,149.35669000000053,149.35669000000053,149.35669000000053,149.35669000000053,149.35669000000053,149.35669000000053,149.35669000000053,149.35669000000053,,003,P007,2025_Feb_01_1047,CategoryLocalizer,2021.2.3,59.885367429768806,
124.0,124.8,4,0.75,Stimuli\ImageFiles-Set1\Scenes\Scenes_003.png,0,0,0,202,202,202,,,,,,,,,,,,,124.00812510000014,0.008125100000142993,None,149.57355950000056,149.57355950000056,149.57355950000056,149.57355950000056,149.57355950000056,149.57355950000056,149.57355950000056,149.57355950000056,,003,P007,2025_Feb_01_1047,CategoryLocalizer,2021.2.3,59.885367429768806,
124.8,125.0,5,0.0,Stimuli\Blank.png,0,0,0,203,203,203,,,,,,,,,,,,,124.82672490000004,0.02672490000004757,None,150.37426270000014,150.37426270000014,150.37426270000014,150.37426270000014,150.37426270000014,150.37426270000014,150.37426270000014,150.37426270000014,,003,P007,2025_Feb_01_1047,CategoryLocalizer,2021.2.3,59.885367429768806,
125.0,125.8,4,0.75,Stimuli\ImageFiles-Set1\Scenes\Scenes_038.png,0,0,0,204,204,204,,,,,,,,,,,,,125.01068010000017,0.010680100000172388,None,150.5744405000005,150.5744405000005,150.5744405000005,150.5744405000005,150.5744405000005,150.5744405000005,150.5744405000005,150.5744405000005,,003,P007,2025_Feb_01_1047,CategoryLocalizer,2021.2.3,59.885367429768806,
125.8,126.0,5,0.0,Stimuli\Blank.png,0,0,0,205,205,205,,,,,,,,,,,,,125.82662960000016,0.026629600000163123,None,151.37514740000006,151.37514740000006,151.37514740000006,151.37514740000006,151.37514740000006,151.37514740000006,151.37514740000006,151.37514740000006,,003,P007,2025_Feb_01_1047,CategoryLocalizer,2021.2.3,59.885367429768806,
126.0,126.8,4,0.75,Stimuli\ImageFiles-Set1\Scenes\Scenes_031.png,0,0,0,206,206,206,,,,,,,,,,,,,126.01064039999983,0.010640399999829242,None,151.5586361000005,151.5586361000005,151.5586361000005,151.5586361000005,151.5586361000005,151.5586361000005,151.5586361000005,151.5586361000005,,003,P007,2025_Feb_01_1047,CategoryLocalizer,2021.2.3,59.885367429768806,
126.8,127.0,5,0.0,Stimuli\Blank.png,0,0,0,207,207,207,,,,,,,,,,,,,126.81156850000025,0.011568500000251447,None,152.3593606000004,152.3593606000004,152.3593606000004,152.3593606000004,152.3593606000004,152.3593606000004,152.3593606000004,152.3593606000004,,003,P007,2025_Feb_01_1047,CategoryLocalizer,2021.2.3,59.885367429768806,
127.0,127.8,4,0.75,Stimuli\ImageFiles-Set1\Scenes\Scenes_059.png,0,0,0,208,208,208,,,,,,,,,,,,,127.01231370000005,0.012313700000049721,None,152.5762091000006,152.5762091000006,152.5762091000006,152.5762091000006,152.5762091000006,152.5762091000006,152.5762091000006,152.5762091000006,,003,P007,2025_Feb_01_1047,CategoryLocalizer,2021.2.3,59.885367429768806,
127.8,128.0,5,0.0,Stimuli\Blank.png,0,0,0,209,209,209,,,,,,,,,,,,,127.82821739999963,0.02821739999963313,None,153.3769170000005,153.3769170000005,153.3769170000005,153.3769170000005,153.3769170000005,153.3769170000005,153.3769170000005,153.3769170000005,,003,P007,2025_Feb_01_1047,CategoryLocalizer,2021.2.3,59.885367429768806,
128.0,128.8,4,0.75,Stimuli\ImageFiles-Set1\Scenes\Scenes_017.png,0,0,0,210,210,210,,,,,,,,,,,,,128.01195970000026,0.011959700000261364,None,153.56040570000005,153.56040570000005,153.56040570000005,153.56040570000005,153.56040570000005,153.56040570000005,153.56040570000005,153.56040570000005,,003,P007,2025_Feb_01_1047,CategoryLocalizer,2021.2.3,59.885367429768806,
128.8,129.0,5,0.0,Stimuli\Blank.png,0,0,0,211,211,211,,,,,,,,,,,,,128.81319809999968,0.013198099999669921,None,154.36112130000038,154.36112130000038,154.36112130000038,154.36112130000038,154.36112130000038,154.36112130000038,154.36112130000038,154.36112130000038,,003,P007,2025_Feb_01_1047,CategoryLocalizer,2021.2.3,59.885367429768806,
129.0,129.8,4,0.75,Stimuli\ImageFiles-Set1\Scenes\Scenes_026.png,0,0,0,212,212,212,,,,,,,,,,,,,129.01290679999966,0.01290679999965505,None,154.5612916,154.5612916,154.5612916,154.5612916,154.5612916,154.5612916,154.5612916,154.5612916,,003,P007,2025_Feb_01_1047,CategoryLocalizer,2021.2.3,59.885367429768806,
129.8,130.0,5,0.0,Stimuli\Blank.png,0,0,0,213,213,213,,,,,,,,,,,,,129.81328510000003,0.013285100000018701,None,155.3620105,155.3620105,155.3620105,155.3620105,155.3620105,155.3620105,155.3620105,155.3620105,,003,P007,2025_Feb_01_1047,CategoryLocalizer,2021.2.3,59.885367429768806,
130.0,130.8,4,0.75,Stimuli\ImageFiles-Set1\Scenes\Scenes_050.png,0,0,0,214,214,214,,,,,,,,,,,,,130.0134436999997,0.013443699999697856,None,155.56217650000053,155.56217650000053,155.56217650000053,155.56217650000053,155.56217650000053,155.56217650000053,155.56217650000053,155.56217650000053,,003,P007,2025_Feb_01_1047,CategoryLocalizer,2021.2.3,59.885367429768806,
130.8,131.0,5,0.0,Stimuli\Blank.png,0,0,0,215,215,215,,,,,,,,,,,,,130.8159157,0.01591569999999365,None,156.37958849999995,156.37958849999995,156.37958849999995,156.37958849999995,156.37958849999995,156.37958849999995,156.37958849999995,156.37958849999995,,003,P007,2025_Feb_01_1047,CategoryLocalizer,2021.2.3,59.885367429768806,
131.0,131.8,4,0.75,Stimuli\ImageFiles-Set1\Scenes\Scenes_036.png,0,0,0,216,216,216,,,,,,,,,,,,,131.01606170000014,0.016061700000136625,None,156.57975830000032,156.57975830000032,156.57975830000032,156.57975830000032,156.57975830000032,156.57975830000032,156.57975830000032,156.57975830000032,,003,P007,2025_Feb_01_1047,CategoryLocalizer,2021.2.3,59.885367429768806,
131.8,132.0,5,0.0,Stimuli\Blank.png,0,0,0,217,217,217,,,,,,,,,,,,,131.81526060000033,0.015260600000317481,None,157.36377560000074,157.36377560000074,157.36377560000074,157.36377560000074,157.36377560000074,157.36377560000074,157.36377560000074,157.36377560000074,,003,P007,2025_Feb_01_1047,CategoryLocalizer,2021.2.3,59.885367429768806,
132.0,132.8,4,0.75,Stimuli\ImageFiles-Set1\Scenes\Scenes_043.png,1,1,0,218,218,218,,,,,,,,,,,,,132.01590020000003,0.015900200000032783,None,157.58067010000013,157.58067010000013,157.58067010000013,157.58067010000013,157.58067010000013,157.58067010000013,157.58067010000013,157.58067010000013,,003,P007,2025_Feb_01_1047,CategoryLocalizer,2021.2.3,59.885367429768806,
132.8,133.0,5,0.0,Stimuli\Blank.png,0,0,0,219,219,219,,,,,,,,,,,,,132.81592780000028,0.015927800000270054,None,158.36466910000036,158.36466910000036,158.36466910000036,158.36466910000036,158.36466910000036,158.36466910000036,158.36466910000036,158.36466910000036,,003,P007,2025_Feb_01_1047,CategoryLocalizer,2021.2.3,59.885367429768806,
133.0,133.8,4,0.75,Stimuli\ImageFiles-Set1\Scenes\Scenes_030.png,0,0,0,220,220,220,,,,,,,,,,,,,133.00014720000036,0.0001472000003559515,None,158.56483470000057,158.56483470000057,158.56483470000057,158.56483470000057,158.56483470000057,158.56483470000057,158.56483470000057,158.56483470000057,,003,P007,2025_Feb_01_1047,CategoryLocalizer,2021.2.3,59.885367429768806,
133.8,134.0,5,0.0,Stimuli\Blank.png,0,0,0,221,221,221,,,,,,,,,,,,,133.81793879999987,0.017938799999853927,None,159.36555350000071,159.36555350000071,159.36555350000071,159.36555350000071,159.36555350000071,159.36555350000071,159.36555350000071,159.36555350000071,,003,P007,2025_Feb_01_1047,CategoryLocalizer,2021.2.3,59.885367429768806,
134.0,134.8,4,0.75,Stimuli\ImageFiles-Set1\Scenes\Scenes_030.png,0,0,0,222,222,222,,,,,,,,,,,,,134.0005831999997,0.0005831999997099047,2,159.5490120000004,159.5490120000004,159.5490120000004,159.5490120000004,159.5490120000004,159.5490120000004,159.5490120000004,159.5490120000004,0.39547640000000683,003,P007,2025_Feb_01_1047,CategoryLocalizer,2021.2.3,59.885367429768806,
134.8,135.0,5,0.0,Stimuli\Blank.png,0,0,0,223,223,223,,,,,,,,,,,,,134.80178260000048,0.0017826000004674825,None,160.34975940000004,160.34975940000004,160.34975940000004,160.34975940000004,160.34975940000004,160.34975940000004,160.34975940000004,160.34975940000004,,003,P007,2025_Feb_01_1047,CategoryLocalizer,2021.2.3,59.885367429768806,
135.0,135.8,4,0.75,Stimuli\ImageFiles-Set1\Scenes\Scenes_002.png,0,0,0,224,224,224,,,,,,,,,,,,,135.00204920000033,0.0020492000003287103,None,160.56663520000075,160.56663520000075,160.56663520000075,160.56663520000075,160.56663520000075,160.56663520000075,160.56663520000075,160.56663520000075,,003,P007,2025_Feb_01_1047,CategoryLocalizer,2021.2.3,59.885367429768806,
135.8,136.0,5,0.0,Stimuli\Blank.png,0,0,0,225,225,225,,,,,,,,,,,,,135.81923619999998,0.019236199999966175,None,161.36733679999998,161.36733679999998,161.36733679999998,161.36733679999998,161.36733679999998,161.36733679999998,161.36733679999998,161.36733679999998,,003,P007,2025_Feb_01_1047,CategoryLocalizer,2021.2.3,59.885367429768806,
136.0,136.8,2,0.75,Stimuli\ImageFiles-Set1\Bodies\Bodies_Pushing_00001.png,0,0,0,226,226,226,,,,,,,,,,,,,136.00218870000026,0.0021887000002607238,None,161.55078460000004,161.55078460000004,161.55078460000004,161.55078460000004,161.55078460000004,161.55078460000004,161.55078460000004,161.55078460000004,,003,P007,2025_Feb_01_1047,CategoryLocalizer,2021.2.3,59.885367429768806,
136.8,137.0,5,0.0,Stimuli\Blank.png,0,0,0,227,227,227,,,,,,,,,,,,,136.8029177999997,0.002917799999693216,None,162.35172090000015,162.35172090000015,162.35172090000015,162.35172090000015,162.35172090000015,162.35172090000015,162.35172090000015,162.35172090000015,,003,P007,2025_Feb_01_1047,CategoryLocalizer,2021.2.3,59.885367429768806,
137.0,137.8,2,0.75,Stimuli\ImageFiles-Set1\Bodies\Bodies_Pushing_00003.png,0,0,0,228,228,228,,,,,,,,,,,,,137.0029381000004,0.0029381000003922964,None,162.55172530000073,162.55172530000073,162.55172530000073,162.55172530000073,162.55172530000073,162.55172530000073,162.55172530000073,162.55172530000073,,003,P007,2025_Feb_01_1047,CategoryLocalizer,2021.2.3,59.885367429768806,
137.8,138.0,5,0.0,Stimuli\Blank.png,0,0,0,229,229,229,,,,,,,,,,,,,137.80561790000047,0.005617900000459031,None,163.36915300000055,163.36915300000055,163.36915300000055,163.36915300000055,163.36915300000055,163.36915300000055,163.36915300000055,163.36915300000055,,003,P007,2025_Feb_01_1047,CategoryLocalizer,2021.2.3,59.885367429768806,
138.0,138.8,2,0.75,Stimuli\ImageFiles-Set1\Bodies\Bodies_SittingChair_00001.png,0,0,0,230,230,230,,,,,,,,,,,,,138.02176090000012,0.021760900000117545,None,163.5692697000004,163.5692697000004,163.5692697000004,163.5692697000004,163.5692697000004,163.5692697000004,163.5692697000004,163.5692697000004,,003,P007,2025_Feb_01_1047,CategoryLocalizer,2021.2.3,59.885367429768806,
138.8,139.0,5,0.0,Stimuli\Blank.png,0,0,0,231,231,231,,,,,,,,,,,,,138.80526379999992,0.005263799999909224,None,164.3533036000008,164.3533036000008,164.3533036000008,164.3533036000008,164.3533036000008,164.3533036000008,164.3533036000008,164.3533036000008,,003,P007,2025_Feb_01_1047,CategoryLocalizer,2021.2.3,59.885367429768806,
139.0,139.8,2,0.75,Stimuli\ImageFiles-Set1\Bodies\Bodies_Crawling_00006.png,0,0,0,232,232,232,,,,,,,,,,,,,139.00533389999964,0.0053338999996412895,None,164.5701766000002,164.5701766000002,164.5701766000002,164.5701766000002,164.5701766000002,164.5701766000002,164.5701766000002,164.5701766000002,,003,P007,2025_Feb_01_1047,CategoryLocalizer,2021.2.3,59.885367429768806,
139.8,140.0,5,0.0,Stimuli\Blank.png,0,0,0,233,233,233,,,,,,,,,,,,,139.82225579999977,0.0222557999997548,None,165.37086480000016,165.37086480000016,165.37086480000016,165.37086480000016,165.37086480000016,165.37086480000016,165.37086480000016,165.37086480000016,,003,P007,2025_Feb_01_1047,CategoryLocalizer,2021.2.3,59.885367429768806,
140.0,140.8,2,0.75,Stimuli\ImageFiles-Set1\Bodies\Bodies_Crawling_00006.png,1,1,0,234,234,234,,,,,,,,,,,,,140.00644069999998,0.006440699999984645,2,165.5543471000001,165.5543471000001,165.5543471000001,165.5543471000001,165.5543471000001,165.5543471000001,165.5543471000001,165.5543471000001,0.41728969999985566,003,P007,2025_Feb_01_1047,CategoryLocalizer,2021.2.3,59.885367429768806,
140.8,141.0,5,0.0,Stimuli\Blank.png,0,0,0,235,235,235,,,,,,,,,,,,,140.8070002000004,0.0070002000003910325,None,166.3550692000008,166.3550692000008,166.3550692000008,166.3550692000008,166.3550692000008,166.3550692000008,166.3550692000008,166.3550692000008,,003,P007,2025_Feb_01_1047,CategoryLocalizer,2021.2.3,59.885367429768806,
141.0,141.8,2,0.75,Stimuli\ImageFiles-Set1\Bodies\Bodies_Waving_00005.png,0,0,0,236,236,236,,,,,,,,,,,,,141.00660100000005,0.006601000000046042,None,166.55523280000034,166.55523280000034,166.55523280000034,166.55523280000034,166.55523280000034,166.55523280000034,166.55523280000034,166.55523280000034,,003,P007,2025_Feb_01_1047,CategoryLocalizer,2021.2.3,59.885367429768806,
141.8,142.0,5,0.0,Stimuli\Blank.png,0,0,0,237,237,237,,,,,,,,,,,,,141.80719529999988,0.007195299999864346,None,167.35594160000073,167.35594160000073,167.35594160000073,167.35594160000073,167.35594160000073,167.35594160000073,167.35594160000073,167.35594160000073,,003,P007,2025_Feb_01_1047,CategoryLocalizer,2021.2.3,59.885367429768806,
142.0,142.8,2,0.75,Stimuli\ImageFiles-Set1\Bodies\Bodies_DownwardDog_00007.png,0,0,0,238,238,238,,,,,,,,,,,,,142.00739299999987,0.007392999999865424,None,167.5560985000002,167.5560985000002,167.5560985000002,167.5560985000002,167.5560985000002,167.5560985000002,167.5560985000002,167.5560985000002,,003,P007,2025_Feb_01_1047,CategoryLocalizer,2021.2.3,59.885367429768806,
142.8,143.0,5,0.0,Stimuli\Blank.png,0,0,0,239,239,239,,,,,,,,,,,,,142.81066199999987,0.010661999999854288,None,168.37351560000025,168.37351560000025,168.37351560000025,168.37351560000025,168.37351560000025,168.37351560000025,168.37351560000025,168.37351560000025,,003,P007,2025_Feb_01_1047,CategoryLocalizer,2021.2.3,59.885367429768806,
143.0,143.8,2,0.75,Stimuli\ImageFiles-Set1\Bodies\Bodies_Falling_00002.png,0,0,0,240,240,240,,,,,,,,,,,,,143.02584449999995,0.02584449999994831,None,168.59039100000064,168.59039100000064,168.59039100000064,168.59039100000064,168.59039100000064,168.59039100000064,168.59039100000064,168.59039100000064,,003,P007,2025_Feb_01_1047,CategoryLocalizer,2021.2.3,59.885367429768806,
143.8,144.0,5,0.0,Stimuli\Blank.png,0,0,0,241,241,241,,,,,,,,,,,,,143.8264793999997,0.026479399999686848,None,169.3744211000003,169.3744211000003,169.3744211000003,169.3744211000003,169.3744211000003,169.3744211000003,169.3744211000003,169.3744211000003,,003,P007,2025_Feb_01_1047,CategoryLocalizer,2021.2.3,59.885367429768806,
144.0,144.8,2,0.75,Stimuli\ImageFiles-Set1\Bodies\Bodies_DownwardDog_00005.png,0,0,0,242,242,242,,,,,,,,,,,,,144.01015900000039,0.010159000000385277,None,169.55789100000038,169.55789100000038,169.55789100000038,169.55789100000038,169.55789100000038,169.55789100000038,169.55789100000038,169.55789100000038,,003,P007,2025_Feb_01_1047,CategoryLocalizer,2021.2.3,59.885367429768806,
144.8,145.0,5,0.0,Stimuli\Blank.png,0,0,0,243,243,243,,,,,,,,,,,,,144.8098944000003,0.009894400000291625,None,170.42535560000033,170.42535560000033,170.42535560000033,170.42535560000033,170.42535560000033,170.42535560000033,170.42535560000033,170.42535560000033,,003,P007,2025_Feb_01_1047,CategoryLocalizer,2021.2.3,59.885367429768806,
145.0,145.8,2,0.75,Stimuli\ImageFiles-Set1\Bodies\Bodies_Waving_00001.png,0,0,0,244,244,244,,,,,,,,,,,,,145.0777919000002,0.07779190000019298,None,170.62552050000068,170.62552050000068,170.62552050000068,170.62552050000068,170.62552050000068,170.62552050000068,170.62552050000068,170.62552050000068,,003,P007,2025_Feb_01_1047,CategoryLocalizer,2021.2.3,59.885367429768806,
145.8,146.0,5,0.0,Stimuli\Blank.png,0,0,0,245,245,245,,,,,,,,,,,,,145.8112940000001,0.01129400000007763,None,171.35950000000048,171.35950000000048,171.35950000000048,171.35950000000048,171.35950000000048,171.35950000000048,171.35950000000048,171.35950000000048,,003,P007,2025_Feb_01_1047,CategoryLocalizer,2021.2.3,59.885367429768806,
146.0,146.8,2,0.75,Stimuli\ImageFiles-Set1\Bodies\Bodies_Lunging_00004.png,0,0,0,246,246,246,,,,,,,,,,,,,146.01120150000042,0.011201500000424858,None,171.55963180000072,171.55963180000072,171.55963180000072,171.55963180000072,171.55963180000072,171.55963180000072,171.55963180000072,171.55963180000072,,003,P007,2025_Feb_01_1047,CategoryLocalizer,2021.2.3,59.885367429768806,
146.8,147.0,5,0.0,Stimuli\Blank.png,0,0,0,247,247,247,,,,,,,,,,,,,146.8121713999999,0.012171399999886034,None,172.36036520000016,172.36036520000016,172.36036520000016,172.36036520000016,172.36036520000016,172.36036520000016,172.36036520000016,172.36036520000016,,003,P007,2025_Feb_01_1047,CategoryLocalizer,2021.2.3,59.885367429768806,
147.0,147.8,2,0.75,Stimuli\ImageFiles-Set1\Bodies\Bodies_Hanging_00002.png,0,0,0,248,248,248,,,,,,,,,,,,,147.01238660000035,0.01238660000035452,None,172.5605757000003,172.5605757000003,172.5605757000003,172.5605757000003,172.5605757000003,172.5605757000003,172.5605757000003,172.5605757000003,,003,P007,2025_Feb_01_1047,CategoryLocalizer,2021.2.3,59.885367429768806,
147.8,148.0,5,0.0,Stimuli\Blank.png,0,0,0,249,249,249,,,,,,,,,,,,,147.81253019999986,0.012530199999844172,None,173.3612591000001,173.3612591000001,173.3612591000001,173.3612591000001,173.3612591000001,173.3612591000001,173.3612591000001,173.3612591000001,,003,P007,2025_Feb_01_1047,CategoryLocalizer,2021.2.3,59.885367429768806,
148.0,148.8,2,0.75,Stimuli\ImageFiles-Set1\Bodies\Bodies_Kicking_00007.png,0,0,0,250,250,250,,,,,,,,,,,,,148.01259970000046,0.012599700000464509,None,173.5781465,173.5781465,173.5781465,173.5781465,173.5781465,173.5781465,173.5781465,173.5781465,,003,P007,2025_Feb_01_1047,CategoryLocalizer,2021.2.3,59.885367429768806,
148.8,149.0,5,0.0,Stimuli\Blank.png,0,0,0,251,251,251,,,,,,,,,,,,,148.83152810000047,0.03152810000045747,None,174.37883560000046,174.37883560000046,174.37883560000046,174.37883560000046,174.37883560000046,174.37883560000046,174.37883560000046,174.37883560000046,,003,P007,2025_Feb_01_1047,CategoryLocalizer,2021.2.3,59.885367429768806,
149.0,149.8,2,0.75,Stimuli\ImageFiles-Set1\Bodies\Bodies_Lunging_00003.png,0,0,0,252,252,252,,,,,,,,,,,,,149.01425050000034,0.01425050000034389,None,174.5623314000004,174.5623314000004,174.5623314000004,174.5623314000004,174.5623314000004,174.5623314000004,174.5623314000004,174.5623314000004,,003,P007,2025_Feb_01_1047,CategoryLocalizer,2021.2.3,59.885367429768806,
149.8,150.0,5,0.0,Stimuli\Blank.png,0,0,0,253,253,253,,,,,,,,,,,,,149.8156544000003,0.01565440000030094,None,175.3630045,175.3630045,175.3630045,175.3630045,175.3630045,175.3630045,175.3630045,175.3630045,,003,P007,2025_Feb_01_1047,CategoryLocalizer,2021.2.3,59.885367429768806,
150.0,150.8,2,0.75,Stimuli\ImageFiles-Set1\Bodies\Bodies_Pushing_00005.png,0,0,0,254,254,254,,,,,,,,,,,,,150.00070200000027,0.0007020000002739835,None,175.56320760000017,175.56320760000017,175.56320760000017,175.56320760000017,175.56320760000017,175.56320760000017,175.56320760000017,175.56320760000017,,003,P007,2025_Feb_01_1047,CategoryLocalizer,2021.2.3,59.885367429768806,
150.8,151.0,5,0.0,Stimuli\Blank.png,0,0,0,255,255,255,,,,,,,,,,,,,150.81561539999984,0.01561539999983097,None,176.36391100000037,176.36391100000037,176.36391100000037,176.36391100000037,176.36391100000037,176.36391100000037,176.36391100000037,176.36391100000037,,003,P007,2025_Feb_01_1047,CategoryLocalizer,2021.2.3,59.885367429768806,
151.0,151.8,2,0.75,Stimuli\ImageFiles-Set1\Bodies\Bodies_SittingFloor_00005.png,0,0,0,256,256,256,,,,,,,,,,,,,150.99927660000048,-0.0007233999995150953,None,176.56409950000034,176.56409950000034,176.56409950000034,176.56409950000034,176.56409950000034,176.56409950000034,176.56409950000034,176.56409950000034,,003,P007,2025_Feb_01_1047,CategoryLocalizer,2021.2.3,59.885367429768806,
151.8,152.0,5,0.0,Stimuli\Blank.png,0,0,0,257,257,257,,,,,,,,,,,,,151.81675069999983,0.016750699999818153,None,177.3648148000002,177.3648148000002,177.3648148000002,177.3648148000002,177.3648148000002,177.3648148000002,177.3648148000002,177.3648148000002,,003,P007,2025_Feb_01_1047,CategoryLocalizer,2021.2.3,59.885367429768806,
152.0,164.0,0,0.0,Stimuli\Blank.png,0,0,0,258,258,258,,,,,,,,,,,,,152.00027539999974,0.0002753999997366918,None,177.5482574000007,177.5482574000007,177.5482574000007,177.5482574000007,177.5482574000007,177.5482574000007,177.5482574000007,177.5482574000007,,003,P007,2025_Feb_01_1047,CategoryLocalizer,2021.2.3,59.885367429768806,
164.0,164.8,4,0.75,Stimuli\ImageFiles-Set1\Scenes\Scenes_009.png,0,0,0,259,259,259,,,,,,,,,,,,,164.01042909999978,0.01042909999978292,None,189.5589142000008,189.5589142000008,189.5589142000008,189.5589142000008,189.5589142000008,189.5589142000008,189.5589142000008,189.5589142000008,,003,P007,2025_Feb_01_1047,CategoryLocalizer,2021.2.3,59.885367429768806,
164.8,165.0,5,0.0,Stimuli\Blank.png,0,0,0,260,260,260,,,,,,,,,,,,,164.81149600000026,0.011496000000249751,None,190.35963340000035,190.35963340000035,190.35963340000035,190.35963340000035,190.35963340000035,190.35963340000035,190.35963340000035,190.35963340000035,,003,P007,2025_Feb_01_1047,CategoryLocalizer,2021.2.3,59.885367429768806,
165.0,165.8,4,0.75,Stimuli\ImageFiles-Set1\Scenes\Scenes_022.png,0,0,0,261,261,261,,,,,,,,,,,,,165.01162269999986,0.011622699999861652,None,190.5764835,190.5764835,190.5764835,190.5764835,190.5764835,190.5764835,190.5764835,190.5764835,,003,P007,2025_Feb_01_1047,CategoryLocalizer,2021.2.3,59.885367429768806,
165.8,166.0,5,0.0,Stimuli\Blank.png,0,0,0,262,262,262,,,,,,,,,,,,,165.82925410000007,0.02925410000005968,None,191.3772071000003,191.3772071000003,191.3772071000003,191.3772071000003,191.3772071000003,191.3772071000003,191.3772071000003,191.3772071000003,,003,P007,2025_Feb_01_1047,CategoryLocalizer,2021.2.3,59.885367429768806,
166.0,166.8,4,0.75,Stimuli\ImageFiles-Set1\Scenes\Scenes_054.png,0,0,0,263,263,263,,,,,,,,,,,,,166.0119609000003,0.011960900000303809,None,191.56068890000006,191.56068890000006,191.56068890000006,191.56068890000006,191.56068890000006,191.56068890000006,191.56068890000006,191.56068890000006,,003,P007,2025_Feb_01_1047,CategoryLocalizer,2021.2.3,59.885367429768806,
166.8,167.0,5,0.0,Stimuli\Blank.png,0,0,0,264,264,264,,,,,,,,,,,,,166.81324829999994,0.013248299999929714,None,192.36143960000027,192.36143960000027,192.36143960000027,192.36143960000027,192.36143960000027,192.36143960000027,192.36143960000027,192.36143960000027,,003,P007,2025_Feb_01_1047,CategoryLocalizer,2021.2.3,59.885367429768806,
167.0,167.8,4,0.75,Stimuli\ImageFiles-Set1\Scenes\Scenes_048.png,0,0,0,265,265,265,,,,,,,,,,,,,167.01280380000026,0.01280380000025616,None,192.56156790000023,192.56156790000023,192.56156790000023,192.56156790000023,192.56156790000023,192.56156790000023,192.56156790000023,192.56156790000023,,003,P007,2025_Feb_01_1047,CategoryLocalizer,2021.2.3,59.885367429768806,
167.8,168.0,5,0.0,Stimuli\Blank.png,0,0,0,266,266,266,,,,,,,,,,,,,167.81622200000038,0.016222000000368553,None,193.37898940000014,193.37898940000014,193.37898940000014,193.37898940000014,193.37898940000014,193.37898940000014,193.37898940000014,193.37898940000014,,003,P007,2025_Feb_01_1047,CategoryLocalizer,2021.2.3,59.885367429768806,
168.0,168.8,4,0.75,Stimuli\ImageFiles-Set1\Scenes\Scenes_042.png,0,0,0,267,267,267,,,,,,,,,,,,,168.01522660000046,0.015226600000460166,None,193.5791751000006,193.5791751000006,193.5791751000006,193.5791751000006,193.5791751000006,193.5791751000006,193.5791751000006,193.5791751000006,,003,P007,2025_Feb_01_1047,CategoryLocalizer,2021.2.3,59.885367429768806,
168.8,169.0,5,0.0,Stimuli\Blank.png,0,0,0,268,268,268,,,,,,,,,,,,,168.81710360000034,0.017103600000325514,None,194.37986230000024,194.37986230000024,194.37986230000024,194.37986230000024,194.37986230000024,194.37986230000024,194.37986230000024,194.37986230000024,,003,P007,2025_Feb_01_1047,CategoryLocalizer,2021.2.3,59.885367429768806,
169.0,169.8,4,0.75,Stimuli\ImageFiles-Set1\Scenes\Scenes_055.png,0,0,0,269,269,269,,,,,,,,,,,,,169.0146560000003,0.01465600000028644,None,194.58006920000025,194.58006920000025,194.58006920000025,194.58006920000025,194.58006920000025,194.58006920000025,194.58006920000025,194.58006920000025,,003,P007,2025_Feb_01_1047,CategoryLocalizer,2021.2.3,59.885367429768806,
169.8,170.0,5,0.0,Stimuli\Blank.png,0,0,0,270,270,270,,,,,,,,,,,,,169.8319873999999,0.03198739999987765,None,195.3807325000007,195.3807325000007,195.3807325000007,195.3807325000007,195.3807325000007,195.3807325000007,195.3807325000007,195.3807325000007,,003,P007,2025_Feb_01_1047,CategoryLocalizer,2021.2.3,59.885367429768806,
170.0,170.8,4,0.75,Stimuli\ImageFiles-Set1\Scenes\Scenes_034.png,0,0,0,271,271,271,,,,,,,,,,,,,170.0165476000002,0.016547600000194507,None,195.58091800000057,195.58091800000057,195.58091800000057,195.58091800000057,195.58091800000057,195.58091800000057,195.58091800000057,195.58091800000057,,003,P007,2025_Feb_01_1047,CategoryLocalizer,2021.2.3,59.885367429768806,
170.8,171.0,5,0.0,Stimuli\Blank.png,0,0,0,272,272,272,,,,,,,,,,,,,170.81692199999998,0.016921999999965465,None,196.3649486000004,196.3649486000004,196.3649486000004,196.3649486000004,196.3649486000004,196.3649486000004,196.3649486000004,196.3649486000004,,003,P007,2025_Feb_01_1047,CategoryLocalizer,2021.2.3,59.885367429768806,
171.0,171.8,4,0.75,Stimuli\ImageFiles-Set1\Scenes\Scenes_053.png,0,0,0,273,273,273,,,,,,,,,,,,,170.99981370000023,-0.00018629999976838008,None,196.54843150000033,196.54843150000033,196.54843150000033,196.54843150000033,196.54843150000033,196.54843150000033,196.54843150000033,196.54843150000033,,003,P007,2025_Feb_01_1047,CategoryLocalizer,2021.2.3,59.885367429768806,
171.8,172.0,5,0.0,Stimuli\Blank.png,0,0,0,274,274,274,,,,,,,,,,,,,171.80140070000016,0.001400700000147026,None,197.34915480000018,197.34915480000018,197.34915480000018,197.34915480000018,197.34915480000018,197.34915480000018,197.34915480000018,197.34915480000018,,003,P007,2025_Feb_01_1047,CategoryLocalizer,2021.2.3,59.885367429768806,
172.0,172.8,4,0.75,Stimuli\ImageFiles-Set1\Scenes\Scenes_021.png,0,0,0,275,275,275,,,,,,,,,,,,,172.0017697000003,0.0017697000002954155,None,197.56599360000018,197.56599360000018,197.56599360000018,197.56599360000018,197.56599360000018,197.56599360000018,197.56599360000018,197.56599360000018,,003,P007,2025_Feb_01_1047,CategoryLocalizer,2021.2.3,59.885367429768806,
172.8,173.0,5,0.0,Stimuli\Blank.png,0,0,0,276,276,276,,,,,,,,,,,,,172.81936899999982,0.019368999999812786,None,198.36671939999997,198.36671939999997,198.36671939999997,198.36671939999997,198.36671939999997,198.36671939999997,198.36671939999997,198.36671939999997,,003,P007,2025_Feb_01_1047,CategoryLocalizer,2021.2.3,59.885367429768806,
173.0,173.8,4,0.75,Stimuli\ImageFiles-Set1\Scenes\Scenes_014.png,0,0,0,277,277,277,,,,,,,,,,,,,173.00233039999966,0.0023303999996642233,None,198.56699300000037,198.56699300000037,198.56699300000037,198.56699300000037,198.56699300000037,198.56699300000037,198.56699300000037,198.56699300000037,,003,P007,2025_Feb_01_1047,CategoryLocalizer,2021.2.3,59.885367429768806,
173.8,174.0,5,0.0,Stimuli\Blank.png,0,0,0,278,278,278,,,,,,,,,,,,,173.82089040000028,0.020890400000268983,None,199.38428730000032,199.38428730000032,199.38428730000032,199.38428730000032,199.38428730000032,199.38428730000032,199.38428730000032,199.38428730000032,,003,P007,2025_Feb_01_1047,CategoryLocalizer,2021.2.3,59.885367429768806,
174.0,174.8,4,0.75,Stimuli\ImageFiles-Set1\Scenes\Scenes_052.png,0,0,0,279,279,279,,,,,,,,,,,,,174.0208074000002,0.02080740000019432,None,199.58450080000057,199.58450080000057,199.58450080000057,199.58450080000057,199.58450080000057,199.58450080000057,199.58450080000057,199.58450080000057,,003,P007,2025_Feb_01_1047,CategoryLocalizer,2021.2.3,59.885367429768806,
174.8,175.0,5,0.0,Stimuli\Blank.png,0,0,0,280,280,280,,,,,,,,,,,,,174.82043169999997,0.02043169999996053,None,200.36848090000058,200.36848090000058,200.36848090000058,200.36848090000058,200.36848090000058,200.36848090000058,200.36848090000058,200.36848090000058,,003,P007,2025_Feb_01_1047,CategoryLocalizer,2021.2.3,59.885367429768806,
175.0,175.8,4,0.75,Stimuli\ImageFiles-Set1\Scenes\Scenes_057.png,0,0,0,281,281,281,,,,,,,,,,,,,175.00368249999974,0.003682499999740685,None,200.55197320000025,200.55197320000025,200.55197320000025,200.55197320000025,200.55197320000025,200.55197320000025,200.55197320000025,200.55197320000025,,003,P007,2025_Feb_01_1047,CategoryLocalizer,2021.2.3,59.885367429768806,
175.8,176.0,5,0.0,Stimuli\Blank.png,0,0,0,282,282,282,,,,,,,,,,,,,175.8069056000004,0.0069056000003797635,None,201.36936409999998,201.36936409999998,201.36936409999998,201.36936409999998,201.36936409999998,201.36936409999998,201.36936409999998,201.36936409999998,,003,P007,2025_Feb_01_1047,CategoryLocalizer,2021.2.3,59.885367429768806,
176.0,176.8,4,0.75,Stimuli\ImageFiles-Set1\Scenes\Scenes_018.png,0,0,0,283,283,283,,,,,,,,,,,,,176.0217832999997,0.021783299999697192,None,201.58621690000018,201.58621690000018,201.58621690000018,201.58621690000018,201.58621690000018,201.58621690000018,201.58621690000018,201.58621690000018,,003,P007,2025_Feb_01_1047,CategoryLocalizer,2021.2.3,59.885367429768806,
176.8,177.0,5,0.0,Stimuli\Blank.png,0,0,0,284,284,284,,,,,,,,,,,,,176.8222695000004,0.022269500000390963,None,202.37024569999994,202.37024569999994,202.37024569999994,202.37024569999994,202.37024569999994,202.37024569999994,202.37024569999994,202.37024569999994,,003,P007,2025_Feb_01_1047,CategoryLocalizer,2021.2.3,59.885367429768806,
177.0,177.8,4,0.75,Stimuli\ImageFiles-Set1\Scenes\Scenes_018.png,1,1,0,285,285,285,,,,,,,,,,,,,177.0056265000003,0.005626500000289525,2,202.5704243,202.5704243,202.5704243,202.5704243,202.5704243,202.5704243,202.5704243,202.5704243,0.4821205000007467,003,P007,2025_Feb_01_1047,CategoryLocalizer,2021.2.3,59.885367429768806,
