eventStartTime,eventEndTime,eventCond,imSize,imFile,repeatedImage,responseEvent,Events.thisRepN,Events.thisTrialN,Events.thisN,Events.thisIndex,Instructions.started,Instructions.stopped,participantReadyResponse.keys,participantReadyResponse.rt,participantReadyResponse.started,participantReadyResponse.stopped,startWaitforTrigger,triggerResponse.keys,triggerResponse.rt,triggerResponse.started,triggerResponse.stopped,globalTimer,actualStartTime,startTimingDiff,participantResponse.keys,participantResponse.started,participantResponse.stopped,image.started,image.stopped,fixationOutside.started,fixationOutside.stopped,fixationInside.started,fixationInside.stopped,participantResponse.rt,session,participant,date,expName,psychopyVersion,frameRate,
,,,,,,,,,,,15.929323199999999,None,2,7.724481100000048,15.929323199999999,None,,,,,,,,,,,,,,,,,,,001,P007,2025_Feb_01_0950,CategoryLocalizer,2021.2.3,59.94556942307401,
,,,,,,,,,,,,,,,,,23.662760600000183,5,13.527668300000187,23.67597560000013,None,,,,,,,,,,,,,,001,P007,2025_Feb_01_0950,CategoryLocalizer,2021.2.3,59.94556942307401,
0.0,12.0,0,0.0,Stimuli\Blank.png,0,0,0,0,0,0,,,,,,,,,,,,37.208111500000086,0.04353069999979198,0.04353069999979198,None,37.27129629999945,None,37.27129629999945,None,37.27129629999945,None,37.27129629999945,None,,001,P007,2025_Feb_01_0950,CategoryLocalizer,2021.2.3,59.94556942307401,
12.0,12.8,1,0.75,Stimuli\ImageFiles-Set1\Objects\Object_Knife_00001.png,0,0,0,1,1,1,,,,,,,,,,,,,12.01054959999965,0.010549599999649217,None,49.23187489999964,49.23187489999964,49.23187489999964,49.23187489999964,49.23187489999964,49.23187489999964,49.23187489999964,49.23187489999964,,001,P007,2025_Feb_01_0950,CategoryLocalizer,2021.2.3,59.94556942307401,
12.8,13.0,5,0.0,Stimuli\Blank.png,0,0,0,2,2,2,,,,,,,,,,,,,12.810344200000145,0.010344200000144355,None,50.032585500000096,50.032585500000096,50.032585500000096,50.032585500000096,50.032585500000096,50.032585500000096,50.032585500000096,50.032585500000096,,001,P007,2025_Feb_01_0950,CategoryLocalizer,2021.2.3,59.94556942307401,
13.0,13.8,1,0.75,Stimuli\ImageFiles-Set1\Objects\Object_Banana_00001.png,0,0,0,3,3,3,,,,,,,,,,,,,13.009907499999827,0.009907499999826541,None,50.249436799999785,50.249436799999785,50.249436799999785,50.249436799999785,50.249436799999785,50.249436799999785,50.249436799999785,50.249436799999785,,001,P007,2025_Feb_01_0950,CategoryLocalizer,2021.2.3,59.94556942307401,
13.8,14.0,5,0.0,Stimuli\Blank.png,0,0,0,4,4,4,,,,,,,,,,,,,13.830043199999636,0.03004319999963556,None,51.06683299999986,51.06683299999986,51.06683299999986,51.06683299999986,51.06683299999986,51.06683299999986,51.06683299999986,51.06683299999986,,001,P007,2025_Feb_01_0950,CategoryLocalizer,2021.2.3,59.94556942307401,
14.0,14.8,1,0.75,Stimuli\ImageFiles-Set1\Objects\Object_Pizza_00001.png,0,0,0,5,5,5,,,,,,,,,,,,,14.028824899999563,0.02882489999956306,None,51.28369070000008,51.28369070000008,51.28369070000008,51.28369070000008,51.28369070000008,51.28369070000008,51.28369070000008,51.28369070000008,,001,P007,2025_Feb_01_0950,CategoryLocalizer,2021.2.3,59.94556942307401,
14.8,15.0,5,0.0,Stimuli\Blank.png,0,0,0,6,6,6,,,,,,,,,,,,,14.845476299999973,0.04547629999997227,None,52.067709099999774,52.067709099999774,52.067709099999774,52.067709099999774,52.067709099999774,52.067709099999774,52.067709099999774,52.067709099999774,,001,P007,2025_Feb_01_0950,CategoryLocalizer,2021.2.3,59.94556942307401,
15.0,15.8,1,0.75,Stimuli\ImageFiles-Set1\Objects\Object_Peanut_00001.png,0,0,0,7,7,7,,,,,,,,,,,,,15.013804599999276,0.013804599999275524,None,52.251239899999746,52.251239899999746,52.251239899999746,52.251239899999746,52.251239899999746,52.251239899999746,52.251239899999746,52.251239899999746,,001,P007,2025_Feb_01_0950,CategoryLocalizer,2021.2.3,59.94556942307401,
15.8,16.0,5,0.0,Stimuli\Blank.png,0,0,0,8,8,8,,,,,,,,,,,,,15.82902869999998,0.029028699999980034,None,53.05191939999986,53.05191939999986,53.05191939999986,53.05191939999986,53.05191939999986,53.05191939999986,53.05191939999986,53.05191939999986,,001,P007,2025_Feb_01_0950,CategoryLocalizer,2021.2.3,59.94556942307401,
16.0,16.8,1,0.75,Stimuli\ImageFiles-Set1\Objects\Object_Peanut_00001.png,1,1,0,9,9,9,,,,,,,,,,,,,16.0133593999999,0.013359399999899324,2,53.23544140000013,53.23544140000013,53.23544140000013,53.23544140000013,53.23544140000013,53.23544140000013,53.23544140000013,53.23544140000013,0.3601933999998437,001,P007,2025_Feb_01_0950,CategoryLocalizer,2021.2.3,59.94556942307401,
16.8,17.0,5,0.0,Stimuli\Blank.png,0,0,0,10,10,10,,,,,,,,,,,,,16.81419989999995,0.014199899999947974,None,54.036136499999884,54.036136499999884,54.036136499999884,54.036136499999884,54.036136499999884,54.036136499999884,54.036136499999884,54.036136499999884,,001,P007,2025_Feb_01_0950,CategoryLocalizer,2021.2.3,59.94556942307401,
17.0,17.8,1,0.75,Stimuli\ImageFiles-Set1\Objects\Object_Boat_00001.png,0,0,0,11,11,11,,,,,,,,,,,,,17.01423739999973,0.01423739999972895,None,54.25298349999957,54.25298349999957,54.25298349999957,54.25298349999957,54.25298349999957,54.25298349999957,54.25298349999957,54.25298349999957,,001,P007,2025_Feb_01_0950,CategoryLocalizer,2021.2.3,59.94556942307401,
17.8,18.0,5,0.0,Stimuli\Blank.png,0,0,0,12,12,12,,,,,,,,,,,,,17.831609199999548,0.031609199999547144,None,55.05378279999968,55.05378279999968,55.05378279999968,55.05378279999968,55.05378279999968,55.05378279999968,55.05378279999968,55.05378279999968,,001,P007,2025_Feb_01_0950,CategoryLocalizer,2021.2.3,59.94556942307401,
18.0,18.8,1,0.75,Stimuli\ImageFiles-Set1\Objects\Object_FileFolder_00001.png,0,0,0,13,13,13,,,,,,,,,,,,,18.01535799999965,0.015357999999650929,None,55.25389069999983,55.25389069999983,55.25389069999983,55.25389069999983,55.25389069999983,55.25389069999983,55.25389069999983,55.25389069999983,,001,P007,2025_Feb_01_0950,CategoryLocalizer,2021.2.3,59.94556942307401,
18.8,19.0,5,0.0,Stimuli\Blank.png,0,0,0,14,14,14,,,,,,,,,,,,,18.814993500000128,0.014993500000127113,None,56.037892100000136,56.037892100000136,56.037892100000136,56.037892100000136,56.037892100000136,56.037892100000136,56.037892100000136,56.037892100000136,,001,P007,2025_Feb_01_0950,CategoryLocalizer,2021.2.3,59.94556942307401,
19.0,19.8,1,0.75,Stimuli\ImageFiles-Set1\Objects\Object_PepperShaker_00001.png,0,0,0,15,15,15,,,,,,,,,,,,,19.01546210000015,0.015462100000149803,None,56.254724700000224,56.254724700000224,56.254724700000224,56.254724700000224,56.254724700000224,56.254724700000224,56.254724700000224,56.254724700000224,,001,P007,2025_Feb_01_0950,CategoryLocalizer,2021.2.3,59.94556942307401,
19.8,20.0,5,0.0,Stimuli\Blank.png,0,0,0,16,16,16,,,,,,,,,,,,,19.81591759999992,0.01591759999991993,None,57.038780699999734,57.038780699999734,57.038780699999734,57.038780699999734,57.038780699999734,57.038780699999734,57.038780699999734,57.038780699999734,,001,P007,2025_Feb_01_0950,CategoryLocalizer,2021.2.3,59.94556942307401,
20.0,20.8,1,0.75,Stimuli\ImageFiles-Set1\Objects\Object_Whistle_00001.png,0,0,0,17,17,17,,,,,,,,,,,,,19.99956899999961,-0.0004310000003897585,None,57.238981699999385,57.238981699999385,57.238981699999385,57.238981699999385,57.238981699999385,57.238981699999385,57.238981699999385,57.238981699999385,,001,P007,2025_Feb_01_0950,CategoryLocalizer,2021.2.3,59.94556942307401,
20.8,21.0,5,0.0,Stimuli\Blank.png,0,0,0,18,18,18,,,,,,,,,,,,,20.818689299999278,0.018689299999277154,None,58.05636649999997,58.05636649999997,58.05636649999997,58.05636649999997,58.05636649999997,58.05636649999997,58.05636649999997,58.05636649999997,,001,P007,2025_Feb_01_0950,CategoryLocalizer,2021.2.3,59.94556942307401,
21.0,21.8,1,0.75,Stimuli\ImageFiles-Set1\Objects\Object_Football_00001.png,0,0,0,19,19,19,,,,,,,,,,,,,21.01901689999977,0.01901689999976952,None,58.256533599999784,58.256533599999784,58.256533599999784,58.256533599999784,58.256533599999784,58.256533599999784,58.256533599999784,58.256533599999784,,001,P007,2025_Feb_01_0950,CategoryLocalizer,2021.2.3,59.94556942307401,
21.8,22.0,5,0.0,Stimuli\Blank.png,0,0,0,20,20,20,,,,,,,,,,,,,21.81834290000006,0.01834290000006078,None,59.040553299999374,59.040553299999374,59.040553299999374,59.040553299999374,59.040553299999374,59.040553299999374,59.040553299999374,59.040553299999374,,001,P007,2025_Feb_01_0950,CategoryLocalizer,2021.2.3,59.94556942307401,
22.0,22.8,1,0.75,Stimuli\ImageFiles-Set1\Objects\Object_Stroller_00001.png,0,0,0,21,21,21,,,,,,,,,,,,,22.0019156999997,0.0019156999996994273,None,59.240734599999996,59.240734599999996,59.240734599999996,59.240734599999996,59.240734599999996,59.240734599999996,59.240734599999996,59.240734599999996,,001,P007,2025_Feb_01_0950,CategoryLocalizer,2021.2.3,59.94556942307401,
22.8,23.0,5,0.0,Stimuli\Blank.png,0,0,0,22,22,22,,,,,,,,,,,,,22.81917329999942,0.019173299999419413,None,60.04144939999969,60.04144939999969,60.04144939999969,60.04144939999969,60.04144939999969,60.04144939999969,60.04144939999969,60.04144939999969,,001,P007,2025_Feb_01_0950,CategoryLocalizer,2021.2.3,59.94556942307401,
23.0,23.8,1,0.75,Stimuli\ImageFiles-Set1\Objects\Object_Bed_00001.png,0,0,0,23,23,23,,,,,,,,,,,,,23.002615800000058,0.0026158000000577886,None,60.24163039999985,60.24163039999985,60.24163039999985,60.24163039999985,60.24163039999985,60.24163039999985,60.24163039999985,60.24163039999985,,001,P007,2025_Feb_01_0950,CategoryLocalizer,2021.2.3,59.94556942307401,
23.8,24.0,5,0.0,Stimuli\Blank.png,0,0,0,24,24,24,,,,,,,,,,,,,23.819515000000138,0.01951500000013695,None,61.042322799999965,61.042322799999965,61.042322799999965,61.042322799999965,61.042322799999965,61.042322799999965,61.042322799999965,61.042322799999965,,001,P007,2025_Feb_01_0950,CategoryLocalizer,2021.2.3,59.94556942307401,
24.0,24.8,1,0.75,Stimuli\ImageFiles-Set1\Objects\Object_Box_00001.png,0,0,0,25,25,25,,,,,,,,,,,,,24.003792699999394,0.0037926999993942445,None,61.2591840999994,61.2591840999994,61.2591840999994,61.2591840999994,61.2591840999994,61.2591840999994,61.2591840999994,61.2591840999994,,001,P007,2025_Feb_01_0950,CategoryLocalizer,2021.2.3,59.94556942307401,
24.8,25.0,5,0.0,Stimuli\Blank.png,0,0,0,26,26,26,,,,,,,,,,,,,24.83898859999954,0.038988599999537854,None,62.076591399999415,62.076591399999415,62.076591399999415,62.076591399999415,62.076591399999415,62.076591399999415,62.076591399999415,62.076591399999415,,001,P007,2025_Feb_01_0950,CategoryLocalizer,2021.2.3,59.94556942307401,
25.0,25.8,1,0.75,Stimuli\ImageFiles-Set1\Objects\Object_Hammer_00001.png,0,0,0,27,27,27,,,,,,,,,,,,,25.02128360000006,0.021283600000060687,None,62.2600752999997,62.2600752999997,62.2600752999997,62.2600752999997,62.2600752999997,62.2600752999997,62.2600752999997,62.2600752999997,,001,P007,2025_Feb_01_0950,CategoryLocalizer,2021.2.3,59.94556942307401,
25.8,26.0,5,0.0,Stimuli\Blank.png,0,0,0,28,28,28,,,,,,,,,,,,,25.821278299999904,0.021278299999902828,None,63.044101299999966,63.044101299999966,63.044101299999966,63.044101299999966,63.044101299999966,63.044101299999966,63.044101299999966,63.044101299999966,,001,P007,2025_Feb_01_0950,CategoryLocalizer,2021.2.3,59.94556942307401,
26.0,26.8,1,0.75,Stimuli\ImageFiles-Set1\Objects\Object_Pillow_00001.png,0,0,0,29,29,29,,,,,,,,,,,,,26.00522599999931,0.0052259999993111705,None,63.26092280000012,63.26092280000012,63.26092280000012,63.26092280000012,63.26092280000012,63.26092280000012,63.26092280000012,63.26092280000012,,001,P007,2025_Feb_01_0950,CategoryLocalizer,2021.2.3,59.94556942307401,
26.8,27.0,5,0.0,Stimuli\Blank.png,0,0,0,30,30,30,,,,,,,,,,,,,26.838965399999324,0.03896539999932358,None,64.06166419999954,64.06166419999954,64.06166419999954,64.06166419999954,64.06166419999954,64.06166419999954,64.06166419999954,64.06166419999954,,001,P007,2025_Feb_01_0950,CategoryLocalizer,2021.2.3,59.94556942307401,
27.0,27.8,1,0.75,Stimuli\ImageFiles-Set1\Objects\Object_Glasses_00001.png,0,0,0,31,31,31,,,,,,,,,,,,,27.006575200000043,0.006575200000042969,None,64.26185079999959,64.26185079999959,64.26185079999959,64.26185079999959,64.26185079999959,64.26185079999959,64.26185079999959,64.26185079999959,,001,P007,2025_Feb_01_0950,CategoryLocalizer,2021.2.3,59.94556942307401,
27.8,28.0,5,0.0,Stimuli\Blank.png,0,0,0,32,32,32,,,,,,,,,,,,,27.840804099999332,0.0408040999993311,None,65.06254470000022,65.06254470000022,65.06254470000022,65.06254470000022,65.06254470000022,65.06254470000022,65.06254470000022,65.06254470000022,,001,P007,2025_Feb_01_0950,CategoryLocalizer,2021.2.3,59.94556942307401,
28.0,28.8,2,0.75,Stimuli\ImageFiles-Set1\Bodies\Bodies_Crawling_00001.png,0,0,0,33,33,33,,,,,,,,,,,,,28.00713369999994,0.007133699999940291,None,65.22936019999997,65.22936019999997,65.22936019999997,65.22936019999997,65.22936019999997,65.22936019999997,65.22936019999997,65.22936019999997,,001,P007,2025_Feb_01_0950,CategoryLocalizer,2021.2.3,59.94556942307401,
28.8,29.0,5,0.0,Stimuli\Blank.png,0,0,0,34,34,34,,,,,,,,,,,,,28.808963599999515,0.008963599999514571,None,66.04674749999958,66.04674749999958,66.04674749999958,66.04674749999958,66.04674749999958,66.04674749999958,66.04674749999958,66.04674749999958,,001,P007,2025_Feb_01_0950,CategoryLocalizer,2021.2.3,59.94556942307401,
29.0,29.8,2,0.75,Stimuli\ImageFiles-Set1\Bodies\Bodies_Pushing_00001.png,0,0,0,35,35,35,,,,,,,,,,,,,29.02471400000013,0.02471400000013091,None,66.2636166000002,66.2636166000002,66.2636166000002,66.2636166000002,66.2636166000002,66.2636166000002,66.2636166000002,66.2636166000002,,001,P007,2025_Feb_01_0950,CategoryLocalizer,2021.2.3,59.94556942307401,
29.8,30.0,5,0.0,Stimuli\Blank.png,0,0,0,36,36,36,,,,,,,,,,,,,29.824806499999795,0.02480649999979434,None,67.04763689999982,67.04763689999982,67.04763689999982,67.04763689999982,67.04763689999982,67.04763689999982,67.04763689999982,67.04763689999982,,001,P007,2025_Feb_01_0950,CategoryLocalizer,2021.2.3,59.94556942307401,
30.0,30.8,2,0.75,Stimuli\ImageFiles-Set1\Bodies\Bodies_CobraPose_00003.png,0,0,0,37,37,37,,,,,,,,,,,,,30.008454799999527,0.008454799999526585,None,67.24780749999991,67.24780749999991,67.24780749999991,67.24780749999991,67.24780749999991,67.24780749999991,67.24780749999991,67.24780749999991,,001,P007,2025_Feb_01_0950,CategoryLocalizer,2021.2.3,59.94556942307401,
30.8,31.0,5,0.0,Stimuli\Blank.png,0,0,0,38,38,38,,,,,,,,,,,,,30.826308699999572,0.026308699999571417,None,68.04852039999969,68.04852039999969,68.04852039999969,68.04852039999969,68.04852039999969,68.04852039999969,68.04852039999969,68.04852039999969,,001,P007,2025_Feb_01_0950,CategoryLocalizer,2021.2.3,59.94556942307401,
31.0,31.8,2,0.75,Stimuli\ImageFiles-Set1\Bodies\Bodies_DownwardDog_00003.png,0,0,0,39,39,39,,,,,,,,,,,,,31.009898999999677,0.009898999999677471,None,68.24872400000004,68.24872400000004,68.24872400000004,68.24872400000004,68.24872400000004,68.24872400000004,68.24872400000004,68.24872400000004,,001,P007,2025_Feb_01_0950,CategoryLocalizer,2021.2.3,59.94556942307401,
31.8,32.0,5,0.0,Stimuli\Blank.png,0,0,0,40,40,40,,,,,,,,,,,,,31.827242899999874,0.02724289999987306,None,69.04941229999986,69.04941229999986,69.04941229999986,69.04941229999986,69.04941229999986,69.04941229999986,69.04941229999986,69.04941229999986,,001,P007,2025_Feb_01_0950,CategoryLocalizer,2021.2.3,59.94556942307401,
32.0,32.8,2,0.75,Stimuli\ImageFiles-Set1\Bodies\Bodies_Falling_00002.png,0,0,0,41,41,41,,,,,,,,,,,,,32.010073999999804,0.010073999999804073,None,69.2329380000001,69.2329380000001,69.2329380000001,69.2329380000001,69.2329380000001,69.2329380000001,69.2329380000001,69.2329380000001,,001,P007,2025_Feb_01_0950,CategoryLocalizer,2021.2.3,59.94556942307401,
32.8,33.0,5,0.0,Stimuli\Blank.png,0,0,0,42,42,42,,,,,,,,,,,,,32.81154030000016,0.011540300000163484,None,70.03358579999986,70.03358579999986,70.03358579999986,70.03358579999986,70.03358579999986,70.03358579999986,70.03358579999986,70.03358579999986,,001,P007,2025_Feb_01_0950,CategoryLocalizer,2021.2.3,59.94556942307401,
33.0,33.8,2,0.75,Stimuli\ImageFiles-Set1\Bodies\Bodies_Waving_00005.png,0,0,0,43,43,43,,,,,,,,,,,,,33.01099789999989,0.01099789999989298,None,70.25046339999972,70.25046339999972,70.25046339999972,70.25046339999972,70.25046339999972,70.25046339999972,70.25046339999972,70.25046339999972,,001,P007,2025_Feb_01_0950,CategoryLocalizer,2021.2.3,59.94556942307401,
33.8,34.0,5,0.0,Stimuli\Blank.png,0,0,0,44,44,44,,,,,,,,,,,,,33.830286099999284,0.03028609999928733,None,71.05119670000022,71.05119670000022,71.05119670000022,71.05119670000022,71.05119670000022,71.05119670000022,71.05119670000022,71.05119670000022,,001,P007,2025_Feb_01_0950,CategoryLocalizer,2021.2.3,59.94556942307401,
34.0,34.8,2,0.75,Stimuli\ImageFiles-Set1\Bodies\Bodies_Jumping_00006.png,0,0,0,45,45,45,,,,,,,,,,,,,34.01289540000016,0.012895400000161317,None,71.25136199999997,71.25136199999997,71.25136199999997,71.25136199999997,71.25136199999997,71.25136199999997,71.25136199999997,71.25136199999997,,001,P007,2025_Feb_01_0950,CategoryLocalizer,2021.2.3,59.94556942307401,
34.8,35.0,5,0.0,Stimuli\Blank.png,0,0,0,46,46,46,,,,,,,,,,,,,34.82931379999991,0.029313799999911794,None,72.05206529999941,72.05206529999941,72.05206529999941,72.05206529999941,72.05206529999941,72.05206529999941,72.05206529999941,72.05206529999941,,001,P007,2025_Feb_01_0950,CategoryLocalizer,2021.2.3,59.94556942307401,
35.0,35.8,2,0.75,Stimuli\ImageFiles-Set1\Bodies\Bodies_Standing_00001.png,0,0,0,47,47,47,,,,,,,,,,,,,35.01289850000012,0.012898500000119384,None,72.23555560000023,72.23555560000023,72.23555560000023,72.23555560000023,72.23555560000023,72.23555560000023,72.23555560000023,72.23555560000023,,001,P007,2025_Feb_01_0950,CategoryLocalizer,2021.2.3,59.94556942307401,
35.8,36.0,5,0.0,Stimuli\Blank.png,0,0,0,48,48,48,,,,,,,,,,,,,35.813355899999806,0.013355899999808685,None,73.03626559999975,73.03626559999975,73.03626559999975,73.03626559999975,73.03626559999975,73.03626559999975,73.03626559999975,73.03626559999975,,001,P007,2025_Feb_01_0950,CategoryLocalizer,2021.2.3,59.94556942307401,
36.0,36.8,2,0.75,Stimuli\ImageFiles-Set1\Bodies\Bodies_DownwardDog_00001.png,0,0,0,49,49,49,,,,,,,,,,,,,36.01399880000008,0.013998800000081246,None,73.23644439999953,73.23644439999953,73.23644439999953,73.23644439999953,73.23644439999953,73.23644439999953,73.23644439999953,73.23644439999953,,001,P007,2025_Feb_01_0950,CategoryLocalizer,2021.2.3,59.94556942307401,
36.8,37.0,5,0.0,Stimuli\Blank.png,0,0,0,50,50,50,,,,,,,,,,,,,36.81470449999961,0.014704499999609766,None,74.03715190000003,74.03715190000003,74.03715190000003,74.03715190000003,74.03715190000003,74.03715190000003,74.03715190000003,74.03715190000003,,001,P007,2025_Feb_01_0950,CategoryLocalizer,2021.2.3,59.94556942307401,
37.0,37.8,2,0.75,Stimuli\ImageFiles-Set1\Bodies\Bodies_PushUp_00004.png,0,0,0,51,51,51,,,,,,,,,,,,,37.01572329999999,0.01572329999999056,None,74.25403180000012,74.25403180000012,74.25403180000012,74.25403180000012,74.25403180000012,74.25403180000012,74.25403180000012,74.25403180000012,,001,P007,2025_Feb_01_0950,CategoryLocalizer,2021.2.3,59.94556942307401,
37.8,38.0,5,0.0,Stimuli\Blank.png,0,0,0,52,52,52,,,,,,,,,,,,,37.81530699999985,0.015306999999850746,None,75.03803359999984,75.03803359999984,75.03803359999984,75.03803359999984,75.03803359999984,75.03803359999984,75.03803359999984,75.03803359999984,,001,P007,2025_Feb_01_0950,CategoryLocalizer,2021.2.3,59.94556942307401,
38.0,38.8,2,0.75,Stimuli\ImageFiles-Set1\Bodies\Bodies_Punching_00006.png,0,0,0,53,53,53,,,,,,,,,,,,,38.0157535999997,0.015753599999698054,None,75.2382192999994,75.2382192999994,75.2382192999994,75.2382192999994,75.2382192999994,75.2382192999994,75.2382192999994,75.2382192999994,,001,P007,2025_Feb_01_0950,CategoryLocalizer,2021.2.3,59.94556942307401,
38.8,39.0,5,0.0,Stimuli\Blank.png,0,0,0,54,54,54,,,,,,,,,,,,,38.80024109999977,0.00024109999976928975,None,76.02224449999994,76.02224449999994,76.02224449999994,76.02224449999994,76.02224449999994,76.02224449999994,76.02224449999994,76.02224449999994,,001,P007,2025_Feb_01_0950,CategoryLocalizer,2021.2.3,59.94556942307401,
39.0,39.8,2,0.75,Stimuli\ImageFiles-Set1\Bodies\Bodies_DownwardDog_00005.png,0,0,0,55,55,55,,,,,,,,,,,,,38.999688899999455,-0.000311100000544684,None,76.2391189,76.2391189,76.2391189,76.2391189,76.2391189,76.2391189,76.2391189,76.2391189,,001,P007,2025_Feb_01_0950,CategoryLocalizer,2021.2.3,59.94556942307401,
39.8,40.0,5,0.0,Stimuli\Blank.png,0,0,0,56,56,56,,,,,,,,,,,,,39.81888769999932,0.01888769999932549,None,77.05649480000011,77.05649480000011,77.05649480000011,77.05649480000011,77.05649480000011,77.05649480000011,77.05649480000011,77.05649480000011,,001,P007,2025_Feb_01_0950,CategoryLocalizer,2021.2.3,59.94556942307401,
40.0,40.8,2,0.75,Stimuli\ImageFiles-Set1\Bodies\Bodies_SittingChair_00007.png,0,0,0,57,57,57,,,,,,,,,,,,,40.01738099999966,0.017380999999659252,None,77.25669139999991,77.25669139999991,77.25669139999991,77.25669139999991,77.25669139999991,77.25669139999991,77.25669139999991,77.25669139999991,,001,P007,2025_Feb_01_0950,CategoryLocalizer,2021.2.3,59.94556942307401,
40.8,41.0,5,0.0,Stimuli\Blank.png,0,0,0,58,58,58,,,,,,,,,,,,,40.81867669999974,0.018676699999744528,None,78.04070789999969,78.04070789999969,78.04070789999969,78.04070789999969,78.04070789999969,78.04070789999969,78.04070789999969,78.04070789999969,,001,P007,2025_Feb_01_0950,CategoryLocalizer,2021.2.3,59.94556942307401,
41.0,41.8,2,0.75,Stimuli\ImageFiles-Set1\Bodies\Bodies_Kneeling_00003.png,0,0,0,59,59,59,,,,,,,,,,,,,41.00361889999931,0.003618899999310088,None,78.2408833999998,78.2408833999998,78.2408833999998,78.2408833999998,78.2408833999998,78.2408833999998,78.2408833999998,78.2408833999998,,001,P007,2025_Feb_01_0950,CategoryLocalizer,2021.2.3,59.94556942307401,
41.8,42.0,5,0.0,Stimuli\Blank.png,0,0,0,60,60,60,,,,,,,,,,,,,41.81872639999983,0.018726399999835053,None,79.04157719999967,79.04157719999967,79.04157719999967,79.04157719999967,79.04157719999967,79.04157719999967,79.04157719999967,79.04157719999967,,001,P007,2025_Feb_01_0950,CategoryLocalizer,2021.2.3,59.94556942307401,
42.0,42.8,2,0.75,Stimuli\ImageFiles-Set1\Bodies\Bodies_Kneeling_00003.png,1,1,0,61,61,61,,,,,,,,,,,,,42.00490959999934,0.004909599999336933,2,79.24175920000016,79.24175920000016,79.24175920000016,79.24175920000016,79.24175920000016,79.24175920000016,79.24175920000016,79.24175920000016,0.5378816000002189,001,P007,2025_Feb_01_0950,CategoryLocalizer,2021.2.3,59.94556942307401,
42.8,43.0,5,0.0,Stimuli\Blank.png,0,0,0,62,62,62,,,,,,,,,,,,,42.82036710000011,0.0203671000001151,None,80.04246700000022,80.04246700000022,80.04246700000022,80.04246700000022,80.04246700000022,80.04246700000022,80.04246700000022,80.04246700000022,,001,P007,2025_Feb_01_0950,CategoryLocalizer,2021.2.3,59.94556942307401,
43.0,43.8,2,0.75,Stimuli\ImageFiles-Set1\Bodies\Bodies_Jumping_00002.png,0,0,0,63,63,63,,,,,,,,,,,,,43.003236699999434,0.0032366999994337675,None,80.25933189999978,80.25933189999978,80.25933189999978,80.25933189999978,80.25933189999978,80.25933189999978,80.25933189999978,80.25933189999978,,001,P007,2025_Feb_01_0950,CategoryLocalizer,2021.2.3,59.94556942307401,
43.8,44.0,5,0.0,Stimuli\Blank.png,0,0,0,64,64,64,,,,,,,,,,,,,43.83990519999952,0.03990519999952369,None,81.0767194,81.0767194,81.0767194,81.0767194,81.0767194,81.0767194,81.0767194,81.0767194,,001,P007,2025_Feb_01_0950,CategoryLocalizer,2021.2.3,59.94556942307401,
44.0,44.8,3,0.75,Stimuli\ImageFiles-Set1\Faces\Face_00111.png,0,0,0,65,65,65,,,,,,,,,,,,,44.02087699999993,0.020876999999927648,None,81.26022009999997,81.26022009999997,81.26022009999997,81.26022009999997,81.26022009999997,81.26022009999997,81.26022009999997,81.26022009999997,,001,P007,2025_Feb_01_0950,CategoryLocalizer,2021.2.3,59.94556942307401,
44.8,45.0,5,0.0,Stimuli\Blank.png,0,0,0,66,66,66,,,,,,,,,,,,,44.821384699999726,0.021384699999728696,None,82.04423820000011,82.04423820000011,82.04423820000011,82.04423820000011,82.04423820000011,82.04423820000011,82.04423820000011,82.04423820000011,,001,P007,2025_Feb_01_0950,CategoryLocalizer,2021.2.3,59.94556942307401,
45.0,45.8,3,0.75,Stimuli\ImageFiles-Set1\Faces\Face_00045.png,0,0,0,67,67,67,,,,,,,,,,,,,45.00533579999956,0.005335799999556912,None,82.24443069999961,82.24443069999961,82.24443069999961,82.24443069999961,82.24443069999961,82.24443069999961,82.24443069999961,82.24443069999961,,001,P007,2025_Feb_01_0950,CategoryLocalizer,2021.2.3,59.94556942307401,
45.8,46.0,5,0.0,Stimuli\Blank.png,0,0,0,68,68,68,,,,,,,,,,,,,45.825165399999605,0.025165399999607985,None,83.06182979999994,83.06182979999994,83.06182979999994,83.06182979999994,83.06182979999994,83.06182979999994,83.06182979999994,83.06182979999994,,001,P007,2025_Feb_01_0950,CategoryLocalizer,2021.2.3,59.94556942307401,
46.0,46.8,3,0.75,Stimuli\ImageFiles-Set1\Faces\Face_00045.png,1,1,0,69,69,69,,,,,,,,,,,,,46.02320520000012,0.023205200000120385,2,83.2452959000002,83.2452959000002,83.2452959000002,83.2452959000002,83.2452959000002,83.2452959000002,83.2452959000002,83.2452959000002,0.5374529000000621,001,P007,2025_Feb_01_0950,CategoryLocalizer,2021.2.3,59.94556942307401,
46.8,47.0,5,0.0,Stimuli\Blank.png,0,0,0,70,70,70,,,,,,,,,,,,,46.80726760000016,0.007267600000162133,None,84.02933200000007,84.02933200000007,84.02933200000007,84.02933200000007,84.02933200000007,84.02933200000007,84.02933200000007,84.02933200000007,,001,P007,2025_Feb_01_0950,CategoryLocalizer,2021.2.3,59.94556942307401,
47.0,47.8,3,0.75,Stimuli\ImageFiles-Set1\Faces\Face_00031.png,0,0,0,71,71,71,,,,,,,,,,,,,47.00859429999946,0.008594299999458599,None,84.26285949999965,84.26285949999965,84.26285949999965,84.26285949999965,84.26285949999965,84.26285949999965,84.26285949999965,84.26285949999965,,001,P007,2025_Feb_01_0950,CategoryLocalizer,2021.2.3,59.94556942307401,
47.8,48.0,5,0.0,Stimuli\Blank.png,0,0,0,72,72,72,,,,,,,,,,,,,47.84070999999949,0.04070999999949265,None,85.0635812999999,85.0635812999999,85.0635812999999,85.0635812999999,85.0635812999999,85.0635812999999,85.0635812999999,85.0635812999999,,001,P007,2025_Feb_01_0950,CategoryLocalizer,2021.2.3,59.94556942307401,
48.0,48.8,3,0.75,Stimuli\ImageFiles-Set1\Faces\Face_00093.png,0,0,0,73,73,73,,,,,,,,,,,,,48.00840280000011,0.00840280000011262,None,85.26376729999993,85.26376729999993,85.26376729999993,85.26376729999993,85.26376729999993,85.26376729999993,85.26376729999993,85.26376729999993,,001,P007,2025_Feb_01_0950,CategoryLocalizer,2021.2.3,59.94556942307401,
48.8,49.0,5,0.0,Stimuli\Blank.png,0,0,0,74,74,74,,,,,,,,,,,,,48.843960599999264,0.04396059999926649,None,86.08114889999979,86.08114889999979,86.08114889999979,86.08114889999979,86.08114889999979,86.08114889999979,86.08114889999979,86.08114889999979,,001,P007,2025_Feb_01_0950,CategoryLocalizer,2021.2.3,59.94556942307401,
49.0,49.8,3,0.75,Stimuli\ImageFiles-Set1\Faces\Face_00020.png,0,0,0,75,75,75,,,,,,,,,,,,,49.02587719999974,0.025877199999740697,None,86.28131510000003,86.28131510000003,86.28131510000003,86.28131510000003,86.28131510000003,86.28131510000003,86.28131510000003,86.28131510000003,,001,P007,2025_Feb_01_0950,CategoryLocalizer,2021.2.3,59.94556942307401,
49.8,50.0,5,0.0,Stimuli\Blank.png,0,0,0,76,76,76,,,,,,,,,,,,,49.84315089999927,0.043150899999275794,None,87.06535050000002,87.06535050000002,87.06535050000002,87.06535050000002,87.06535050000002,87.06535050000002,87.06535050000002,87.06535050000002,,001,P007,2025_Feb_01_0950,CategoryLocalizer,2021.2.3,59.94556942307401,
50.0,50.8,3,0.75,Stimuli\ImageFiles-Set1\Faces\Face_00047.png,0,0,0,77,77,77,,,,,,,,,,,,,50.00931020000007,0.009310200000072655,None,87.2488171999994,87.2488171999994,87.2488171999994,87.2488171999994,87.2488171999994,87.2488171999994,87.2488171999994,87.2488171999994,,001,P007,2025_Feb_01_0950,CategoryLocalizer,2021.2.3,59.94556942307401,
50.8,51.0,5,0.0,Stimuli\Blank.png,0,0,0,78,78,78,,,,,,,,,,,,,50.827153299999736,0.027153299999739033,None,88.04960429999937,88.04960429999937,88.04960429999937,88.04960429999937,88.04960429999937,88.04960429999937,88.04960429999937,88.04960429999937,,001,P007,2025_Feb_01_0950,CategoryLocalizer,2021.2.3,59.94556942307401,
51.0,51.8,3,0.75,Stimuli\ImageFiles-Set1\Faces\Face_00063.png,0,0,0,79,79,79,,,,,,,,,,,,,51.01059170000008,0.010591700000077253,None,88.24971740000001,88.24971740000001,88.24971740000001,88.24971740000001,88.24971740000001,88.24971740000001,88.24971740000001,88.24971740000001,,001,P007,2025_Feb_01_0950,CategoryLocalizer,2021.2.3,59.94556942307401,
51.8,52.0,5,0.0,Stimuli\Blank.png,0,0,0,80,80,80,,,,,,,,,,,,,51.82762399999956,0.027623999999562443,None,89.05044529999941,89.05044529999941,89.05044529999941,89.05044529999941,89.05044529999941,89.05044529999941,89.05044529999941,89.05044529999941,,001,P007,2025_Feb_01_0950,CategoryLocalizer,2021.2.3,59.94556942307401,
52.0,52.8,3,0.75,Stimuli\ImageFiles-Set1\Faces\Face_00095.png,0,0,0,81,81,81,,,,,,,,,,,,,52.01162939999995,0.011629399999947054,None,89.2339278999998,89.2339278999998,89.2339278999998,89.2339278999998,89.2339278999998,89.2339278999998,89.2339278999998,89.2339278999998,,001,P007,2025_Feb_01_0950,CategoryLocalizer,2021.2.3,59.94556942307401,
52.8,53.0,5,0.0,Stimuli\Blank.png,0,0,0,82,82,82,,,,,,,,,,,,,52.815118800000164,0.015118800000166743,None,90.05132369999956,90.05132369999956,90.05132369999956,90.05132369999956,90.05132369999956,90.05132369999956,90.05132369999956,90.05132369999956,,001,P007,2025_Feb_01_0950,CategoryLocalizer,2021.2.3,59.94556942307401,
53.0,53.8,3,0.75,Stimuli\ImageFiles-Set1\Faces\Face_00043.png,0,0,0,83,83,83,,,,,,,,,,,,,53.030129799999486,0.03012979999948584,None,90.28485589999946,90.28485589999946,90.28485589999946,90.28485589999946,90.28485589999946,90.28485589999946,90.28485589999946,90.28485589999946,,001,P007,2025_Feb_01_0950,CategoryLocalizer,2021.2.3,59.94556942307401,
53.8,54.0,5,0.0,Stimuli\Blank.png,0,0,0,84,84,84,,,,,,,,,,,,,53.84884629999942,0.04884629999942547,None,91.08558449999964,91.08558449999964,91.08558449999964,91.08558449999964,91.08558449999964,91.08558449999964,91.08558449999964,91.08558449999964,,001,P007,2025_Feb_01_0950,CategoryLocalizer,2021.2.3,59.94556942307401,
54.0,54.8,3,0.75,Stimuli\ImageFiles-Set1\Faces\Face_00051.png,0,0,0,85,85,85,,,,,,,,,,,,,54.02980169999955,0.02980169999955251,None,91.2691020000002,91.2691020000002,91.2691020000002,91.2691020000002,91.2691020000002,91.2691020000002,91.2691020000002,91.2691020000002,,001,P007,2025_Feb_01_0950,CategoryLocalizer,2021.2.3,59.94556942307401,
54.8,55.0,5,0.0,Stimuli\Blank.png,0,0,0,86,86,86,,,,,,,,,,,,,54.8306720999999,0.03067209999990439,None,92.05308960000002,92.05308960000002,92.05308960000002,92.05308960000002,92.05308960000002,92.05308960000002,92.05308960000002,92.05308960000002,,001,P007,2025_Feb_01_0950,CategoryLocalizer,2021.2.3,59.94556942307401,
55.0,55.8,3,0.75,Stimuli\ImageFiles-Set1\Faces\Face_00085.png,1,1,0,87,87,87,,,,,,,,,,,,,55.0145537999997,0.014553799999703187,None,92.26995970000007,92.26995970000007,92.26995970000007,92.26995970000007,92.26995970000007,92.26995970000007,92.26995970000007,92.26995970000007,,001,P007,2025_Feb_01_0950,CategoryLocalizer,2021.2.3,59.94556942307401,
55.8,56.0,5,0.0,Stimuli\Blank.png,0,0,0,88,88,88,,,,,,,,,,,,,55.847794799999974,0.047794799999977045,None,93.07065379999949,93.07065379999949,93.07065379999949,93.07065379999949,93.07065379999949,93.07065379999949,93.07065379999949,93.07065379999949,,001,P007,2025_Feb_01_0950,CategoryLocalizer,2021.2.3,59.94556942307401,
56.0,56.8,3,0.75,Stimuli\ImageFiles-Set1\Faces\Face_00016.png,0,0,0,89,89,89,,,,,,,,,,,,,56.01501469999948,0.015014699999483128,None,93.25416940000014,93.25416940000014,93.25416940000014,93.25416940000014,93.25416940000014,93.25416940000014,93.25416940000014,93.25416940000014,,001,P007,2025_Feb_01_0950,CategoryLocalizer,2021.2.3,59.94556942307401,
56.8,57.0,5,0.0,Stimuli\Blank.png,0,0,0,90,90,90,,,,,,,,,,,,,56.81589299999996,0.015892999999962854,None,94.03818649999994,94.03818649999994,94.03818649999994,94.03818649999994,94.03818649999994,94.03818649999994,94.03818649999994,94.03818649999994,,001,P007,2025_Feb_01_0950,CategoryLocalizer,2021.2.3,59.94556942307401,
57.0,57.8,3,0.75,Stimuli\ImageFiles-Set1\Faces\Face_00016.png,0,0,0,91,91,91,,,,,,,,,,,,,56.999907800000074,-9.219999992637895e-05,2,94.23834879999959,94.23834879999959,94.23834879999959,94.23834879999959,94.23834879999959,94.23834879999959,94.23834879999959,94.23834879999959,0.362441399999625,001,P007,2025_Feb_01_0950,CategoryLocalizer,2021.2.3,59.94556942307401,
57.8,58.0,5,0.0,Stimuli\Blank.png,0,0,0,92,92,92,,,,,,,,,,,,,57.819131399999605,0.019131399999608334,None,95.05575700000009,95.05575700000009,95.05575700000009,95.05575700000009,95.05575700000009,95.05575700000009,95.05575700000009,95.05575700000009,,001,P007,2025_Feb_01_0950,CategoryLocalizer,2021.2.3,59.94556942307401,
58.0,58.8,3,0.75,Stimuli\ImageFiles-Set1\Faces\Face_00027.png,0,0,0,93,93,93,,,,,,,,,,,,,58.016869600000064,0.016869600000063656,None,95.25592509999933,95.25592509999933,95.25592509999933,95.25592509999933,95.25592509999933,95.25592509999933,95.25592509999933,95.25592509999933,,001,P007,2025_Feb_01_0950,CategoryLocalizer,2021.2.3,59.94556942307401,
58.8,59.0,5,0.0,Stimuli\Blank.png,0,0,0,94,94,94,,,,,,,,,,,,,58.818884100000105,0.01888410000010765,None,96.05665959999988,96.05665959999988,96.05665959999988,96.05665959999988,96.05665959999988,96.05665959999988,96.05665959999988,96.05665959999988,,001,P007,2025_Feb_01_0950,CategoryLocalizer,2021.2.3,59.94556942307401,
59.0,59.8,3,0.75,Stimuli\ImageFiles-Set1\Faces\Face_00105.png,0,0,0,95,95,95,,,,,,,,,,,,,59.018969699999616,0.01896969999961584,None,96.27348840000013,96.27348840000013,96.27348840000013,96.27348840000013,96.27348840000013,96.27348840000013,96.27348840000013,96.27348840000013,,001,P007,2025_Feb_01_0950,CategoryLocalizer,2021.2.3,59.94556942307401,
59.8,60.0,5,0.0,Stimuli\Blank.png,0,0,0,96,96,96,,,,,,,,,,,,,59.83508929999971,0.03508929999971144,None,97.05751919999966,97.05751919999966,97.05751919999966,97.05751919999966,97.05751919999966,97.05751919999966,97.05751919999966,97.05751919999966,,001,P007,2025_Feb_01_0950,CategoryLocalizer,2021.2.3,59.94556942307401,
60.0,60.8,4,0.75,Stimuli\ImageFiles-Set1\Scenes\Scenes_039.png,0,0,0,97,97,97,,,,,,,,,,,,,60.001636199999666,0.0016361999996661325,None,97.24098589999994,97.24098589999994,97.24098589999994,97.24098589999994,97.24098589999994,97.24098589999994,97.24098589999994,97.24098589999994,,001,P007,2025_Feb_01_0950,CategoryLocalizer,2021.2.3,59.94556942307401,
60.8,61.0,5,0.0,Stimuli\Blank.png,0,0,0,98,98,98,,,,,,,,,,,,,60.81984029999967,0.01984029999967163,None,98.04172589999962,98.04172589999962,98.04172589999962,98.04172589999962,98.04172589999962,98.04172589999962,98.04172589999962,98.04172589999962,,001,P007,2025_Feb_01_0950,CategoryLocalizer,2021.2.3,59.94556942307401,
61.0,61.8,4,0.75,Stimuli\ImageFiles-Set1\Scenes\Scenes_015.png,0,0,0,99,99,99,,,,,,,,,,,,,61.00501660000009,0.005016600000089966,None,98.25859059999948,98.25859059999948,98.25859059999948,98.25859059999948,98.25859059999948,98.25859059999948,98.25859059999948,98.25859059999948,,001,P007,2025_Feb_01_0950,CategoryLocalizer,2021.2.3,59.94556942307401,
61.8,62.0,5,0.0,Stimuli\Blank.png,0,0,0,100,100,100,,,,,,,,,,,,,61.83733979999943,0.0373397999994296,None,99.05938189999961,99.05938189999961,99.05938189999961,99.05938189999961,99.05938189999961,99.05938189999961,99.05938189999961,99.05938189999961,,001,P007,2025_Feb_01_0950,CategoryLocalizer,2021.2.3,59.94556942307401,
62.0,62.8,4,0.75,Stimuli\ImageFiles-Set1\Scenes\Scenes_047.png,0,0,0,101,101,101,,,,,,,,,,,,,62.0038614999994,0.00386149999940244,None,99.24278129999948,99.24278129999948,99.24278129999948,99.24278129999948,99.24278129999948,99.24278129999948,99.24278129999948,99.24278129999948,,001,P007,2025_Feb_01_0950,CategoryLocalizer,2021.2.3,59.94556942307401,
62.8,63.0,5,0.0,Stimuli\Blank.png,0,0,0,102,102,102,,,,,,,,,,,,,62.82060339999953,0.02060339999952987,None,100.04349180000008,100.04349180000008,100.04349180000008,100.04349180000008,100.04349180000008,100.04349180000008,100.04349180000008,100.04349180000008,,001,P007,2025_Feb_01_0950,CategoryLocalizer,2021.2.3,59.94556942307401,
63.0,63.8,4,0.75,Stimuli\ImageFiles-Set1\Scenes\Scenes_047.png,1,1,0,103,103,103,,,,,,,,,,,,,63.004731099999844,0.004731099999844446,2,100.24365820000003,100.24365820000003,100.24365820000003,100.24365820000003,100.24365820000003,100.24365820000003,100.24365820000003,100.24365820000003,0.48114930000065215,001,P007,2025_Feb_01_0950,CategoryLocalizer,2021.2.3,59.94556942307401,
63.8,64.0,5,0.0,Stimuli\Blank.png,0,0,0,104,104,104,,,,,,,,,,,,,63.82258980000006,0.02258980000006261,None,101.04438759999994,101.04438759999994,101.04438759999994,101.04438759999994,101.04438759999994,101.04438759999994,101.04438759999994,101.04438759999994,,001,P007,2025_Feb_01_0950,CategoryLocalizer,2021.2.3,59.94556942307401,
64.0,64.8,4,0.75,Stimuli\ImageFiles-Set1\Scenes\Scenes_007.png,0,0,0,105,105,105,,,,,,,,,,,,,64.0051438999999,0.00514389999989362,None,101.26123610000013,101.26123610000013,101.26123610000013,101.26123610000013,101.26123610000013,101.26123610000013,101.26123610000013,101.26123610000013,,001,P007,2025_Feb_01_0950,CategoryLocalizer,2021.2.3,59.94556942307401,
64.8,65.0,5,0.0,Stimuli\Blank.png,0,0,0,106,106,106,,,,,,,,,,,,,64.83970649999992,0.03970649999992304,None,102.0619515999997,102.0619515999997,102.0619515999997,102.0619515999997,102.0619515999997,102.0619515999997,102.0619515999997,102.0619515999997,,001,P007,2025_Feb_01_0950,CategoryLocalizer,2021.2.3,59.94556942307401,
65.0,65.8,4,0.75,Stimuli\ImageFiles-Set1\Scenes\Scenes_046.png,0,0,0,107,107,107,,,,,,,,,,,,,65.00588909999988,0.005889099999876635,None,102.2454646999995,102.2454646999995,102.2454646999995,102.2454646999995,102.2454646999995,102.2454646999995,102.2454646999995,102.2454646999995,,001,P007,2025_Feb_01_0950,CategoryLocalizer,2021.2.3,59.94556942307401,
65.8,66.0,5,0.0,Stimuli\Blank.png,0,0,0,108,108,108,,,,,,,,,,,,,65.8247937999995,0.024793799999500266,None,103.04615789999934,103.04615789999934,103.04615789999934,103.04615789999934,103.04615789999934,103.04615789999934,103.04615789999934,103.04615789999934,,001,P007,2025_Feb_01_0950,CategoryLocalizer,2021.2.3,59.94556942307401,
66.0,66.8,4,0.75,Stimuli\ImageFiles-Set1\Scenes\Scenes_042.png,0,0,0,109,109,109,,,,,,,,,,,,,66.00741130000006,0.007411300000057963,None,103.26299539999945,103.26299539999945,103.26299539999945,103.26299539999945,103.26299539999945,103.26299539999945,103.26299539999945,103.26299539999945,,001,P007,2025_Feb_01_0950,CategoryLocalizer,2021.2.3,59.94556942307401,
66.8,67.0,5,0.0,Stimuli\Blank.png,0,0,0,110,110,110,,,,,,,,,,,,,66.84096330000011,0.040963300000115055,None,104.06371209999998,104.06371209999998,104.06371209999998,104.06371209999998,104.06371209999998,104.06371209999998,104.06371209999998,104.06371209999998,,001,P007,2025_Feb_01_0950,CategoryLocalizer,2021.2.3,59.94556942307401,
67.0,67.8,4,0.75,Stimuli\ImageFiles-Set1\Scenes\Scenes_052.png,0,0,0,111,111,111,,,,,,,,,,,,,67.0085567999995,0.008556799999496434,None,104.26388889999998,104.26388889999998,104.26388889999998,104.26388889999998,104.26388889999998,104.26388889999998,104.26388889999998,104.26388889999998,,001,P007,2025_Feb_01_0950,CategoryLocalizer,2021.2.3,59.94556942307401,
67.8,68.0,5,0.0,Stimuli\Blank.png,0,0,0,112,112,112,,,,,,,,,,,,,67.84174110000004,0.0417411000000385,None,105.06460309999966,105.06460309999966,105.06460309999966,105.06460309999966,105.06460309999966,105.06460309999966,105.06460309999966,105.06460309999966,,001,P007,2025_Feb_01_0950,CategoryLocalizer,2021.2.3,59.94556942307401,
68.0,68.8,4,0.75,Stimuli\ImageFiles-Set1\Scenes\Scenes_048.png,0,0,0,113,113,113,,,,,,,,,,,,,68.00943299999926,0.009432999999262393,None,105.28146490000017,105.28146490000017,105.28146490000017,105.28146490000017,105.28146490000017,105.28146490000017,105.28146490000017,105.28146490000017,,001,P007,2025_Feb_01_0950,CategoryLocalizer,2021.2.3,59.94556942307401,
68.8,69.0,5,0.0,Stimuli\Blank.png,0,0,0,114,114,114,,,,,,,,,,,,,68.85938189999979,0.059381899999792154,None,106.0821718999996,106.0821718999996,106.0821718999996,106.0821718999996,106.0821718999996,106.0821718999996,106.0821718999996,106.0821718999996,,001,P007,2025_Feb_01_0950,CategoryLocalizer,2021.2.3,59.94556942307401,
69.0,69.8,4,0.75,Stimuli\ImageFiles-Set1\Scenes\Scenes_029.png,0,0,0,115,115,115,,,,,,,,,,,,,69.00958019999962,0.009580199999618344,None,106.26565549999941,106.26565549999941,106.26565549999941,106.26565549999941,106.26565549999941,106.26565549999941,106.26565549999941,106.26565549999941,,001,P007,2025_Feb_01_0950,CategoryLocalizer,2021.2.3,59.94556942307401,
69.8,70.0,5,0.0,Stimuli\Blank.png,0,0,0,116,116,116,,,,,,,,,,,,,69.84423489999972,0.04423489999972219,None,107.06637799999953,107.06637799999953,107.06637799999953,107.06637799999953,107.06637799999953,107.06637799999953,107.06637799999953,107.06637799999953,,001,P007,2025_Feb_01_0950,CategoryLocalizer,2021.2.3,59.94556942307401,
70.0,70.8,4,0.75,Stimuli\ImageFiles-Set1\Scenes\Scenes_044.png,0,0,0,117,117,117,,,,,,,,,,,,,70.0111896999997,0.011189699999704317,None,107.24985829999969,107.24985829999969,107.24985829999969,107.24985829999969,107.24985829999969,107.24985829999969,107.24985829999969,107.24985829999969,,001,P007,2025_Feb_01_0950,CategoryLocalizer,2021.2.3,59.94556942307401,
70.8,71.0,5,0.0,Stimuli\Blank.png,0,0,0,118,118,118,,,,,,,,,,,,,70.82772489999934,0.0277248999993418,None,108.05064129999937,108.05064129999937,108.05064129999937,108.05064129999937,108.05064129999937,108.05064129999937,108.05064129999937,108.05064129999937,,001,P007,2025_Feb_01_0950,CategoryLocalizer,2021.2.3,59.94556942307401,
71.0,71.8,4,0.75,Stimuli\ImageFiles-Set1\Scenes\Scenes_040.png,0,0,0,119,119,119,,,,,,,,,,,,,71.01382599999943,0.01382599999942613,None,108.26743249999981,108.26743249999981,108.26743249999981,108.26743249999981,108.26743249999981,108.26743249999981,108.26743249999981,108.26743249999981,,001,P007,2025_Feb_01_0950,CategoryLocalizer,2021.2.3,59.94556942307401,
71.8,72.0,5,0.0,Stimuli\Blank.png,0,0,0,120,120,120,,,,,,,,,,,,,71.8466101999993,0.046610199999307156,None,109.06821659999969,109.06821659999969,109.06821659999969,109.06821659999969,109.06821659999969,109.06821659999969,109.06821659999969,109.06821659999969,,001,P007,2025_Feb_01_0950,CategoryLocalizer,2021.2.3,59.94556942307401,
72.0,72.8,4,0.75,Stimuli\ImageFiles-Set1\Scenes\Scenes_011.png,1,1,0,121,121,121,,,,,,,,,,,,,72.01254199999948,0.012541999999484688,None,109.25165279999965,109.25165279999965,109.25165279999965,109.25165279999965,109.25165279999965,109.25165279999965,109.25165279999965,109.25165279999965,,001,P007,2025_Feb_01_0950,CategoryLocalizer,2021.2.3,59.94556942307401,
72.8,73.0,5,0.0,Stimuli\Blank.png,0,0,0,122,122,122,,,,,,,,,,,,,72.82960079999975,0.029600799999755623,None,110.05234920000021,110.05234920000021,110.05234920000021,110.05234920000021,110.05234920000021,110.05234920000021,110.05234920000021,110.05234920000021,,001,P007,2025_Feb_01_0950,CategoryLocalizer,2021.2.3,59.94556942307401,
73.0,73.8,4,0.75,Stimuli\ImageFiles-Set1\Scenes\Scenes_025.png,0,0,0,123,123,123,,,,,,,,,,,,,73.01362309999968,0.013623099999676924,None,110.25251620000017,110.25251620000017,110.25251620000017,110.25251620000017,110.25251620000017,110.25251620000017,110.25251620000017,110.25251620000017,,001,P007,2025_Feb_01_0950,CategoryLocalizer,2021.2.3,59.94556942307401,
73.8,74.0,5,0.0,Stimuli\Blank.png,0,0,0,124,124,124,,,,,,,,,,,,,73.83118669999931,0.031186699999310008,None,111.05322689999957,111.05322689999957,111.05322689999957,111.05322689999957,111.05322689999957,111.05322689999957,111.05322689999957,111.05322689999957,,001,P007,2025_Feb_01_0950,CategoryLocalizer,2021.2.3,59.94556942307401,
74.0,74.8,4,0.75,Stimuli\ImageFiles-Set1\Scenes\Scenes_025.png,0,0,0,125,125,125,,,,,,,,,,,,,74.01463830000012,0.014638300000115123,2,111.2534397999998,111.2534397999998,111.2534397999998,111.2534397999998,111.2534397999998,111.2534397999998,111.2534397999998,111.2534397999998,0.4182240999998612,001,P007,2025_Feb_01_0950,CategoryLocalizer,2021.2.3,59.94556942307401,
74.8,75.0,5,0.0,Stimuli\Blank.png,0,0,0,126,126,126,,,,,,,,,,,,,74.83403730000009,0.03403730000009375,None,112.07080359999964,112.07080359999964,112.07080359999964,112.07080359999964,112.07080359999964,112.07080359999964,112.07080359999964,112.07080359999964,,001,P007,2025_Feb_01_0950,CategoryLocalizer,2021.2.3,59.94556942307401,
75.0,75.8,4,0.75,Stimuli\ImageFiles-Set1\Scenes\Scenes_026.png,0,0,0,127,127,127,,,,,,,,,,,,,75.01521259999936,0.015212599999358645,None,112.25429389999954,112.25429389999954,112.25429389999954,112.25429389999954,112.25429389999954,112.25429389999954,112.25429389999954,112.25429389999954,,001,P007,2025_Feb_01_0950,CategoryLocalizer,2021.2.3,59.94556942307401,
75.8,76.0,5,0.0,Stimuli\Blank.png,0,0,0,128,128,128,,,,,,,,,,,,,75.81545060000008,0.015450600000079362,None,113.03832109999985,113.03832109999985,113.03832109999985,113.03832109999985,113.03832109999985,113.03832109999985,113.03832109999985,113.03832109999985,,001,P007,2025_Feb_01_0950,CategoryLocalizer,2021.2.3,59.94556942307401,
76.0,88.0,0,0.0,Stimuli\Blank.png,0,0,0,129,129,129,,,,,,,,,,,,,76.01637750000009,0.01637750000008964,None,113.23849419999988,113.23849419999988,113.23849419999988,113.23849419999988,113.23849419999988,113.23849419999988,113.23849419999988,113.23849419999988,,001,P007,2025_Feb_01_0950,CategoryLocalizer,2021.2.3,59.94556942307401,
88.0,88.8,3,0.75,Stimuli\ImageFiles-Set1\Faces\Face_00119.png,0,0,0,130,130,130,,,,,,,,,,,,,88.0103952999998,0.010395299999800045,None,125.2491173999997,125.2491173999997,125.2491173999997,125.2491173999997,125.2491173999997,125.2491173999997,125.2491173999997,125.2491173999997,,001,P007,2025_Feb_01_0950,CategoryLocalizer,2021.2.3,59.94556942307401,
88.8,89.0,5,0.0,Stimuli\Blank.png,0,0,0,131,131,131,,,,,,,,,,,,,88.8269051999996,0.026905199999603724,None,126.04983529999936,126.04983529999936,126.04983529999936,126.04983529999936,126.04983529999936,126.04983529999936,126.04983529999936,126.04983529999936,,001,P007,2025_Feb_01_0950,CategoryLocalizer,2021.2.3,59.94556942307401,
89.0,89.8,3,0.75,Stimuli\ImageFiles-Set1\Faces\Face_00025.png,0,0,0,132,132,132,,,,,,,,,,,,,89.01046609999958,0.010466099999575817,None,126.2500215,126.2500215,126.2500215,126.2500215,126.2500215,126.2500215,126.2500215,126.2500215,,001,P007,2025_Feb_01_0950,CategoryLocalizer,2021.2.3,59.94556942307401,
89.8,90.0,5,0.0,Stimuli\Blank.png,0,0,0,133,133,133,,,,,,,,,,,,,89.82936309999968,0.029363099999685005,None,127.05072089999976,127.05072089999976,127.05072089999976,127.05072089999976,127.05072089999976,127.05072089999976,127.05072089999976,127.05072089999976,,001,P007,2025_Feb_01_0950,CategoryLocalizer,2021.2.3,59.94556942307401,
90.0,90.8,3,0.75,Stimuli\ImageFiles-Set1\Faces\Face_00099.png,0,0,0,134,134,134,,,,,,,,,,,,,90.01502419999997,0.015024199999970733,None,127.26761139999962,127.26761139999962,127.26761139999962,127.26761139999962,127.26761139999962,127.26761139999962,127.26761139999962,127.26761139999962,,001,P007,2025_Feb_01_0950,CategoryLocalizer,2021.2.3,59.94556942307401,
90.8,91.0,5,0.0,Stimuli\Blank.png,0,0,0,135,135,135,,,,,,,,,,,,,90.84616920000008,0.04616920000007951,None,128.06828080000014,128.06828080000014,128.06828080000014,128.06828080000014,128.06828080000014,128.06828080000014,128.06828080000014,128.06828080000014,,001,P007,2025_Feb_01_0950,CategoryLocalizer,2021.2.3,59.94556942307401,
91.0,91.8,3,0.75,Stimuli\ImageFiles-Set1\Faces\Face_00061.png,0,0,0,136,136,136,,,,,,,,,,,,,91.0149695,0.01496950000000652,None,128.26851420000003,128.26851420000003,128.26851420000003,128.26851420000003,128.26851420000003,128.26851420000003,128.26851420000003,128.26851420000003,,001,P007,2025_Feb_01_0950,CategoryLocalizer,2021.2.3,59.94556942307401,
91.8,92.0,5,0.0,Stimuli\Blank.png,0,0,0,137,137,137,,,,,,,,,,,,,91.84639749999951,0.04639749999951448,None,129.0691608999996,129.0691608999996,129.0691608999996,129.0691608999996,129.0691608999996,129.0691608999996,129.0691608999996,129.0691608999996,,001,P007,2025_Feb_01_0950,CategoryLocalizer,2021.2.3,59.94556942307401,
92.0,92.8,3,0.75,Stimuli\ImageFiles-Set1\Faces\Face_00109.png,0,0,0,138,138,138,,,,,,,,,,,,,92.01358079999954,0.013580799999544979,None,129.25271030000022,129.25271030000022,129.25271030000022,129.25271030000022,129.25271030000022,129.25271030000022,129.25271030000022,129.25271030000022,,001,P007,2025_Feb_01_0950,CategoryLocalizer,2021.2.3,59.94556942307401,
92.8,93.0,5,0.0,Stimuli\Blank.png,0,0,0,139,139,139,,,,,,,,,,,,,92.8306204999999,0.030620499999898243,None,130.05336649999936,130.05336649999936,130.05336649999936,130.05336649999936,130.05336649999936,130.05336649999936,130.05336649999936,130.05336649999936,,001,P007,2025_Feb_01_0950,CategoryLocalizer,2021.2.3,59.94556942307401,
93.0,93.8,3,0.75,Stimuli\ImageFiles-Set1\Faces\Face_00109.png,1,1,0,140,140,140,,,,,,,,,,,,,93.01489859999947,0.014898599999469297,2,130.23686110000017,130.23686110000017,130.23686110000017,130.23686110000017,130.23686110000017,130.23686110000017,130.23686110000017,130.23686110000017,0.4868741999998747,001,P007,2025_Feb_01_0950,CategoryLocalizer,2021.2.3,59.94556942307401,
93.8,94.0,5,0.0,Stimuli\Blank.png,0,0,0,141,141,141,,,,,,,,,,,,,93.81516209999972,0.01516209999972773,None,131.0375739000001,131.0375739000001,131.0375739000001,131.0375739000001,131.0375739000001,131.0375739000001,131.0375739000001,131.0375739000001,,001,P007,2025_Feb_01_0950,CategoryLocalizer,2021.2.3,59.94556942307401,
94.0,94.8,3,0.75,Stimuli\ImageFiles-Set1\Faces\Face_00075.png,0,0,0,142,142,142,,,,,,,,,,,,,94.0156694999996,0.01566949999960343,None,131.2544281999999,131.2544281999999,131.2544281999999,131.2544281999999,131.2544281999999,131.2544281999999,131.2544281999999,131.2544281999999,,001,P007,2025_Feb_01_0950,CategoryLocalizer,2021.2.3,59.94556942307401,
94.8,95.0,5,0.0,Stimuli\Blank.png,0,0,0,143,143,143,,,,,,,,,,,,,94.8160313999997,0.016031399999704377,None,132.0384696000001,132.0384696000001,132.0384696000001,132.0384696000001,132.0384696000001,132.0384696000001,132.0384696000001,132.0384696000001,,001,P007,2025_Feb_01_0950,CategoryLocalizer,2021.2.3,59.94556942307401,
95.0,95.8,3,0.75,Stimuli\ImageFiles-Set1\Faces\Face_00081.png,0,0,0,144,144,144,,,,,,,,,,,,,95.00064999999995,0.0006499999999505235,None,132.23863209999945,132.23863209999945,132.23863209999945,132.23863209999945,132.23863209999945,132.23863209999945,132.23863209999945,132.23863209999945,,001,P007,2025_Feb_01_0950,CategoryLocalizer,2021.2.3,59.94556942307401,
95.8,96.0,5,0.0,Stimuli\Blank.png,0,0,0,145,145,145,,,,,,,,,,,,,95.81881189999967,0.01881189999967603,None,133.05604200000016,133.05604200000016,133.05604200000016,133.05604200000016,133.05604200000016,133.05604200000016,133.05604200000016,133.05604200000016,,001,P007,2025_Feb_01_0950,CategoryLocalizer,2021.2.3,59.94556942307401,
96.0,96.8,3,0.75,Stimuli\ImageFiles-Set1\Faces\Face_00113.png,0,0,0,146,146,146,,,,,,,,,,,,,96.0186893,0.01868930000000546,None,133.25621629999932,133.25621629999932,133.25621629999932,133.25621629999932,133.25621629999932,133.25621629999932,133.25621629999932,133.25621629999932,,001,P007,2025_Feb_01_0950,CategoryLocalizer,2021.2.3,59.94556942307401,
96.8,97.0,5,0.0,Stimuli\Blank.png,0,0,0,147,147,147,,,,,,,,,,,,,96.81964729999982,0.019647299999817847,None,134.0568856,134.0568856,134.0568856,134.0568856,134.0568856,134.0568856,134.0568856,134.0568856,,001,P007,2025_Feb_01_0950,CategoryLocalizer,2021.2.3,59.94556942307401,
97.0,97.8,3,0.75,Stimuli\ImageFiles-Set1\Faces\Face_00083.png,0,0,0,148,148,148,,,,,,,,,,,,,97.01813459999994,0.018134599999939383,None,134.27378489999955,134.27378489999955,134.27378489999955,134.27378489999955,134.27378489999955,134.27378489999955,134.27378489999955,134.27378489999955,,001,P007,2025_Feb_01_0950,CategoryLocalizer,2021.2.3,59.94556942307401,
97.8,98.0,5,0.0,Stimuli\Blank.png,0,0,0,149,149,149,,,,,,,,,,,,,97.83498150000014,0.03498150000014277,None,135.05778920000012,135.05778920000012,135.05778920000012,135.05778920000012,135.05778920000012,135.05778920000012,135.05778920000012,135.05778920000012,,001,P007,2025_Feb_01_0950,CategoryLocalizer,2021.2.3,59.94556942307401,
98.0,98.8,3,0.75,Stimuli\ImageFiles-Set1\Faces\Face_00079.png,0,0,0,150,150,150,,,,,,,,,,,,,98.00389279999945,0.0038927999994484708,None,135.25803449999967,135.25803449999967,135.25803449999967,135.25803449999967,135.25803449999967,135.25803449999967,135.25803449999967,135.25803449999967,,001,P007,2025_Feb_01_0950,CategoryLocalizer,2021.2.3,59.94556942307401,
98.8,99.0,5,0.0,Stimuli\Blank.png,0,0,0,151,151,151,,,,,,,,,,,,,98.83658009999999,0.036580099999994786,None,136.0587504999994,136.0587504999994,136.0587504999994,136.0587504999994,136.0587504999994,136.0587504999994,136.0587504999994,136.0587504999994,,001,P007,2025_Feb_01_0950,CategoryLocalizer,2021.2.3,59.94556942307401,
99.0,99.8,3,0.75,Stimuli\ImageFiles-Set1\Faces\Face_00007.png,0,0,0,152,152,152,,,,,,,,,,,,,99.00367819999974,0.0036781999997401726,None,136.24217039999985,136.24217039999985,136.24217039999985,136.24217039999985,136.24217039999985,136.24217039999985,136.24217039999985,136.24217039999985,,001,P007,2025_Feb_01_0950,CategoryLocalizer,2021.2.3,59.94556942307401,
99.8,100.0,5,0.0,Stimuli\Blank.png,0,0,0,153,153,153,,,,,,,,,,,,,99.82014439999966,0.020144399999665552,None,137.04288879999967,137.04288879999967,137.04288879999967,137.04288879999967,137.04288879999967,137.04288879999967,137.04288879999967,137.04288879999967,,001,P007,2025_Feb_01_0950,CategoryLocalizer,2021.2.3,59.94556942307401,
100.0,100.8,3,0.75,Stimuli\ImageFiles-Set1\Faces\Face_00041.png,0,0,0,154,154,154,,,,,,,,,,,,,100.00468659999933,0.00468659999933152,None,137.25974140000017,137.25974140000017,137.25974140000017,137.25974140000017,137.25974140000017,137.25974140000017,137.25974140000017,137.25974140000017,,001,P007,2025_Feb_01_0950,CategoryLocalizer,2021.2.3,59.94556942307401,
100.8,101.0,5,0.0,Stimuli\Blank.png,0,0,0,155,155,155,,,,,,,,,,,,,100.83912090000013,0.039120900000128245,None,138.0604671000001,138.0604671000001,138.0604671000001,138.0604671000001,138.0604671000001,138.0604671000001,138.0604671000001,138.0604671000001,,001,P007,2025_Feb_01_0950,CategoryLocalizer,2021.2.3,59.94556942307401,
101.0,101.8,3,0.75,Stimuli\ImageFiles-Set1\Faces\Face_00107.png,0,0,0,156,156,156,,,,,,,,,,,,,101.00535929999933,0.00535929999932705,None,138.2439488,138.2439488,138.2439488,138.2439488,138.2439488,138.2439488,138.2439488,138.2439488,,001,P007,2025_Feb_01_0950,CategoryLocalizer,2021.2.3,59.94556942307401,
101.8,102.0,5,0.0,Stimuli\Blank.png,0,0,0,157,157,157,,,,,,,,,,,,,101.82370809999975,0.023708099999751653,None,139.06135709999944,139.06135709999944,139.06135709999944,139.06135709999944,139.06135709999944,139.06135709999944,139.06135709999944,139.06135709999944,,001,P007,2025_Feb_01_0950,CategoryLocalizer,2021.2.3,59.94556942307401,
102.0,102.8,3,0.75,Stimuli\ImageFiles-Set1\Faces\Face_00001.png,0,0,0,158,158,158,,,,,,,,,,,,,102.02201879999939,0.02201879999938683,None,139.26151339999979,139.26151339999979,139.26151339999979,139.26151339999979,139.26151339999979,139.26151339999979,139.26151339999979,139.26151339999979,,001,P007,2025_Feb_01_0950,CategoryLocalizer,2021.2.3,59.94556942307401,
102.8,103.0,5,0.0,Stimuli\Blank.png,0,0,0,159,159,159,,,,,,,,,,,,,102.82352349999928,0.02352349999928549,None,140.04554759999974,140.04554759999974,140.04554759999974,140.04554759999974,140.04554759999974,140.04554759999974,140.04554759999974,140.04554759999974,,001,P007,2025_Feb_01_0950,CategoryLocalizer,2021.2.3,59.94556942307401,
103.0,103.8,3,0.75,Stimuli\ImageFiles-Set1\Faces\Face_00059.png,0,0,0,160,160,160,,,,,,,,,,,,,103.00625609999952,0.006256099999518483,None,140.2457205999999,140.2457205999999,140.2457205999999,140.2457205999999,140.2457205999999,140.2457205999999,140.2457205999999,140.2457205999999,,001,P007,2025_Feb_01_0950,CategoryLocalizer,2021.2.3,59.94556942307401,
103.8,104.0,5,0.0,Stimuli\Blank.png,0,0,0,161,161,161,,,,,,,,,,,,,103.82417279999936,0.024172799999362837,None,141.04644009999993,141.04644009999993,141.04644009999993,141.04644009999993,141.04644009999993,141.04644009999993,141.04644009999993,141.04644009999993,,001,P007,2025_Feb_01_0950,CategoryLocalizer,2021.2.3,59.94556942307401,
104.0,104.8,1,0.75,Stimuli\ImageFiles-Set1\Objects\Object_Stool_00001.png,0,0,0,162,162,162,,,,,,,,,,,,,104.0090325000001,0.009032500000103028,None,141.24657409999963,141.24657409999963,141.24657409999963,141.24657409999963,141.24657409999963,141.24657409999963,141.24657409999963,141.24657409999963,,001,P007,2025_Feb_01_0950,CategoryLocalizer,2021.2.3,59.94556942307401,
104.8,105.0,5,0.0,Stimuli\Blank.png,0,0,0,163,163,163,,,,,,,,,,,,,104.8249767999996,0.02497679999960667,None,142.04731119999997,142.04731119999997,142.04731119999997,142.04731119999997,142.04731119999997,142.04731119999997,142.04731119999997,142.04731119999997,,001,P007,2025_Feb_01_0950,CategoryLocalizer,2021.2.3,59.94556942307401,
105.0,105.8,1,0.75,Stimuli\ImageFiles-Set1\Objects\Object_Stool_00001.png,1,1,0,164,164,164,,,,,,,,,,,,,105.00858439999956,0.008584399999563175,2,142.2308094,142.2308094,142.2308094,142.2308094,142.2308094,142.2308094,142.2308094,142.2308094,0.42893240000012156,001,P007,2025_Feb_01_0950,CategoryLocalizer,2021.2.3,59.94556942307401,
105.8,106.0,5,0.0,Stimuli\Blank.png,0,0,0,165,165,165,,,,,,,,,,,,,105.81012259999989,0.010122599999888848,None,143.0315313000001,143.0315313000001,143.0315313000001,143.0315313000001,143.0315313000001,143.0315313000001,143.0315313000001,143.0315313000001,,001,P007,2025_Feb_01_0950,CategoryLocalizer,2021.2.3,59.94556942307401,
106.0,106.8,1,0.75,Stimuli\ImageFiles-Set1\Objects\Object_Pot_00001.png,0,0,0,166,166,166,,,,,,,,,,,,,106.00876840000001,0.008768400000008114,None,143.24838920000002,143.24838920000002,143.24838920000002,143.24838920000002,143.24838920000002,143.24838920000002,143.24838920000002,143.24838920000002,,001,P007,2025_Feb_01_0950,CategoryLocalizer,2021.2.3,59.94556942307401,
106.8,107.0,5,0.0,Stimuli\Blank.png,0,0,0,167,167,167,,,,,,,,,,,,,106.82901259999926,0.029012599999262534,None,144.06579169999986,144.06579169999986,144.06579169999986,144.06579169999986,144.06579169999986,144.06579169999986,144.06579169999986,144.06579169999986,,001,P007,2025_Feb_01_0950,CategoryLocalizer,2021.2.3,59.94556942307401,
107.0,107.8,1,0.75,Stimuli\ImageFiles-Set1\Objects\Object_Wagon_00001.png,0,0,0,168,168,168,,,,,,,,,,,,,107.02887519999967,0.028875199999674805,None,144.28262050000012,144.28262050000012,144.28262050000012,144.28262050000012,144.28262050000012,144.28262050000012,144.28262050000012,144.28262050000012,,001,P007,2025_Feb_01_0950,CategoryLocalizer,2021.2.3,59.94556942307401,
107.8,108.0,5,0.0,Stimuli\Blank.png,0,0,0,169,169,169,,,,,,,,,,,,,107.84436759999971,0.044367599999716845,None,145.06664910000018,145.06664910000018,145.06664910000018,145.06664910000018,145.06664910000018,145.06664910000018,145.06664910000018,145.06664910000018,,001,P007,2025_Feb_01_0950,CategoryLocalizer,2021.2.3,59.94556942307401,
108.0,108.8,1,0.75,Stimuli\ImageFiles-Set1\Objects\Object_Crib_00001.png,0,0,0,170,170,170,,,,,,,,,,,,,108.01129969999965,0.011299699999653967,None,145.25016520000008,145.25016520000008,145.25016520000008,145.25016520000008,145.25016520000008,145.25016520000008,145.25016520000008,145.25016520000008,,001,P007,2025_Feb_01_0950,CategoryLocalizer,2021.2.3,59.94556942307401,
108.8,109.0,5,0.0,Stimuli\Blank.png,0,0,0,171,171,171,,,,,,,,,,,,,108.82945839999957,0.02945839999956945,None,146.0508635999995,146.0508635999995,146.0508635999995,146.0508635999995,146.0508635999995,146.0508635999995,146.0508635999995,146.0508635999995,,001,P007,2025_Feb_01_0950,CategoryLocalizer,2021.2.3,59.94556942307401,
109.0,109.8,1,0.75,Stimuli\ImageFiles-Set1\Objects\Object_Screw_00001.png,0,0,0,172,172,172,,,,,,,,,,,,,109.01410579999992,0.014105799999924784,None,146.25104120000015,146.25104120000015,146.25104120000015,146.25104120000015,146.25104120000015,146.25104120000015,146.25104120000015,146.25104120000015,,001,P007,2025_Feb_01_0950,CategoryLocalizer,2021.2.3,59.94556942307401,
109.8,110.0,5,0.0,Stimuli\Blank.png,0,0,0,173,173,173,,,,,,,,,,,,,109.82887810000011,0.028878100000113704,None,147.05173550000018,147.05173550000018,147.05173550000018,147.05173550000018,147.05173550000018,147.05173550000018,147.05173550000018,147.05173550000018,,001,P007,2025_Feb_01_0950,CategoryLocalizer,2021.2.3,59.94556942307401,
110.0,110.8,1,0.75,Stimuli\ImageFiles-Set1\Objects\Object_IroningBoard_00001.png,0,0,0,174,174,174,,,,,,,,,,,,,110.01312789999974,0.013127899999744841,None,147.25195129999975,147.25195129999975,147.25195129999975,147.25195129999975,147.25195129999975,147.25195129999975,147.25195129999975,147.25195129999975,,001,P007,2025_Feb_01_0950,CategoryLocalizer,2021.2.3,59.94556942307401,
110.8,111.0,5,0.0,Stimuli\Blank.png,0,0,0,175,175,175,,,,,,,,,,,,,110.82988380000006,0.029883800000064298,None,148.0526245000001,148.0526245000001,148.0526245000001,148.0526245000001,148.0526245000001,148.0526245000001,148.0526245000001,148.0526245000001,,001,P007,2025_Feb_01_0950,CategoryLocalizer,2021.2.3,59.94556942307401,
111.0,111.8,1,0.75,Stimuli\ImageFiles-Set1\Objects\Object_Apple_00001.png,0,0,0,176,176,176,,,,,,,,,,,,,111.01387909999994,0.013879099999940081,None,148.2528284,148.2528284,148.2528284,148.2528284,148.2528284,148.2528284,148.2528284,148.2528284,,001,P007,2025_Feb_01_0950,CategoryLocalizer,2021.2.3,59.94556942307401,
111.8,112.0,5,0.0,Stimuli\Blank.png,0,0,0,177,177,177,,,,,,,,,,,,,111.83075909999934,0.030759099999343675,None,149.05350999999973,149.05350999999973,149.05350999999973,149.05350999999973,149.05350999999973,149.05350999999973,149.05350999999973,149.05350999999973,,001,P007,2025_Feb_01_0950,CategoryLocalizer,2021.2.3,59.94556942307401,
112.0,112.8,1,0.75,Stimuli\ImageFiles-Set1\Objects\Object_Sock_00001.png,0,0,0,178,178,178,,,,,,,,,,,,,112.0142095000001,0.014209500000106345,None,149.25370419999945,149.25370419999945,149.25370419999945,149.25370419999945,149.25370419999945,149.25370419999945,149.25370419999945,149.25370419999945,,001,P007,2025_Feb_01_0950,CategoryLocalizer,2021.2.3,59.94556942307401,
112.8,113.0,5,0.0,Stimuli\Blank.png,0,0,0,179,179,179,,,,,,,,,,,,,112.83384320000005,0.03384320000004948,None,150.07107949999954,150.07107949999954,150.07107949999954,150.07107949999954,150.07107949999954,150.07107949999954,150.07107949999954,150.07107949999954,,001,P007,2025_Feb_01_0950,CategoryLocalizer,2021.2.3,59.94556942307401,
113.0,113.8,1,0.75,Stimuli\ImageFiles-Set1\Objects\Object_Brush_00001.png,0,0,0,180,180,180,,,,,,,,,,,,,113.0155052,0.01550520000000688,None,150.2546037000002,150.2546037000002,150.2546037000002,150.2546037000002,150.2546037000002,150.2546037000002,150.2546037000002,150.2546037000002,,001,P007,2025_Feb_01_0950,CategoryLocalizer,2021.2.3,59.94556942307401,
113.8,114.0,5,0.0,Stimuli\Blank.png,0,0,0,181,181,181,,,,,,,,,,,,,113.8164041,0.016404100000002586,None,151.03860729999997,151.03860729999997,151.03860729999997,151.03860729999997,151.03860729999997,151.03860729999997,151.03860729999997,151.03860729999997,,001,P007,2025_Feb_01_0950,CategoryLocalizer,2021.2.3,59.94556942307401,
114.0,114.8,1,0.75,Stimuli\ImageFiles-Set1\Objects\Object_Bench_00001.png,0,0,0,182,182,182,,,,,,,,,,,,,113.99930949999998,-0.0006905000000188011,None,151.25546369999938,151.25546369999938,151.25546369999938,151.25546369999938,151.25546369999938,151.25546369999938,151.25546369999938,151.25546369999938,,001,P007,2025_Feb_01_0950,CategoryLocalizer,2021.2.3,59.94556942307401,
114.8,115.0,5,0.0,Stimuli\Blank.png,0,0,0,183,183,183,,,,,,,,,,,,,114.83392599999934,0.033925999999340206,None,152.05617369999982,152.05617369999982,152.05617369999982,152.05617369999982,152.05617369999982,152.05617369999982,152.05617369999982,152.05617369999982,,001,P007,2025_Feb_01_0950,CategoryLocalizer,2021.2.3,59.94556942307401,
115.0,115.8,1,0.75,Stimuli\ImageFiles-Set1\Objects\Object_Pipe_00001.png,0,0,0,184,184,184,,,,,,,,,,,,,115.00086649999957,0.0008664999995744438,None,152.23965919999955,152.23965919999955,152.23965919999955,152.23965919999955,152.23965919999955,152.23965919999955,152.23965919999955,152.23965919999955,,001,P007,2025_Feb_01_0950,CategoryLocalizer,2021.2.3,59.94556942307401,
115.8,116.0,5,0.0,Stimuli\Blank.png,0,0,0,185,185,185,,,,,,,,,,,,,115.8182827999999,0.018282799999909116,None,153.04037470000003,153.04037470000003,153.04037470000003,153.04037470000003,153.04037470000003,153.04037470000003,153.04037470000003,153.04037470000003,,001,P007,2025_Feb_01_0950,CategoryLocalizer,2021.2.3,59.94556942307401,
116.0,116.8,1,0.75,Stimuli\ImageFiles-Set1\Objects\Object_Watch_00001.png,1,1,0,186,186,186,,,,,,,,,,,,,116.00385279999955,0.003852799999549461,None,153.25786960000005,153.25786960000005,153.25786960000005,153.25786960000005,153.25786960000005,153.25786960000005,153.25786960000005,153.25786960000005,,001,P007,2025_Feb_01_0950,CategoryLocalizer,2021.2.3,59.94556942307401,
116.8,117.0,5,0.0,Stimuli\Blank.png,0,0,0,187,187,187,,,,,,,,,,,,,116.83597459999964,0.035974599999647694,None,154.05793699999958,154.05793699999958,154.05793699999958,154.05793699999958,154.05793699999958,154.05793699999958,154.05793699999958,154.05793699999958,,001,P007,2025_Feb_01_0950,CategoryLocalizer,2021.2.3,59.94556942307401,
117.0,117.8,1,0.75,Stimuli\ImageFiles-Set1\Objects\Object_Nightstand_00001.png,0,0,0,188,188,188,,,,,,,,,,,,,117.00381669999933,0.0038166999993336503,None,154.2414404000001,154.2414404000001,154.2414404000001,154.2414404000001,154.2414404000001,154.2414404000001,154.2414404000001,154.2414404000001,,001,P007,2025_Feb_01_0950,CategoryLocalizer,2021.2.3,59.94556942307401,
117.8,118.0,5,0.0,Stimuli\Blank.png,0,0,0,189,189,189,,,,,,,,,,,,,117.81987449999997,0.019874499999971817,None,155.04215029999978,155.04215029999978,155.04215029999978,155.04215029999978,155.04215029999978,155.04215029999978,155.04215029999978,155.04215029999978,,001,P007,2025_Feb_01_0950,CategoryLocalizer,2021.2.3,59.94556942307401,
118.0,118.8,1,0.75,Stimuli\ImageFiles-Set1\Objects\Object_Nightstand_00001.png,0,0,0,190,190,190,,,,,,,,,,,,,118.00398119999954,0.003981199999543605,2,155.24231859999963,155.24231859999963,155.24231859999963,155.24231859999963,155.24231859999963,155.24231859999963,155.24231859999963,155.24231859999963,0.41553339999973105,001,P007,2025_Feb_01_0950,CategoryLocalizer,2021.2.3,59.94556942307401,
118.8,119.0,5,0.0,Stimuli\Blank.png,0,0,0,191,191,191,,,,,,,,,,,,,118.82029199999943,0.020291999999429322,None,156.04302439999992,156.04302439999992,156.04302439999992,156.04302439999992,156.04302439999992,156.04302439999992,156.04302439999992,156.04302439999992,,001,P007,2025_Feb_01_0950,CategoryLocalizer,2021.2.3,59.94556942307401,
119.0,119.8,1,0.75,Stimuli\ImageFiles-Set1\Objects\Object_Toilet_00001.png,0,0,0,192,192,192,,,,,,,,,,,,,119.00480519999928,0.004805199999282195,None,156.24322630000006,156.24322630000006,156.24322630000006,156.24322630000006,156.24322630000006,156.24322630000006,156.24322630000006,156.24322630000006,,001,P007,2025_Feb_01_0950,CategoryLocalizer,2021.2.3,59.94556942307401,
119.8,120.0,5,0.0,Stimuli\Blank.png,0,0,0,193,193,193,,,,,,,,,,,,,119.82370170000013,0.02370170000013161,None,157.06059749999986,157.06059749999986,157.06059749999986,157.06059749999986,157.06059749999986,157.06059749999986,157.06059749999986,157.06059749999986,,001,P007,2025_Feb_01_0950,CategoryLocalizer,2021.2.3,59.94556942307401,
120.0,120.8,4,0.75,Stimuli\ImageFiles-Set1\Scenes\Scenes_036.png,0,0,0,194,194,194,,,,,,,,,,,,,120.02216769999995,0.022167699999954493,None,157.27747819999968,157.27747819999968,157.27747819999968,157.27747819999968,157.27747819999968,157.27747819999968,157.27747819999968,157.27747819999968,,001,P007,2025_Feb_01_0950,CategoryLocalizer,2021.2.3,59.94556942307401,
120.8,121.0,5,0.0,Stimuli\Blank.png,0,0,0,195,195,195,,,,,,,,,,,,,120.83918519999952,0.039185199999522524,None,158.06149480000022,158.06149480000022,158.06149480000022,158.06149480000022,158.06149480000022,158.06149480000022,158.06149480000022,158.06149480000022,,001,P007,2025_Feb_01_0950,CategoryLocalizer,2021.2.3,59.94556942307401,
121.0,121.8,4,0.75,Stimuli\ImageFiles-Set1\Scenes\Scenes_014.png,0,0,0,196,196,196,,,,,,,,,,,,,121.00550529999964,0.005505299999640556,None,158.2449802000001,158.2449802000001,158.2449802000001,158.2449802000001,158.2449802000001,158.2449802000001,158.2449802000001,158.2449802000001,,001,P007,2025_Feb_01_0950,CategoryLocalizer,2021.2.3,59.94556942307401,
121.8,122.0,5,0.0,Stimuli\Blank.png,0,0,0,197,197,197,,,,,,,,,,,,,121.8236395999993,0.02363959999929932,None,159.04568279999967,159.04568279999967,159.04568279999967,159.04568279999967,159.04568279999967,159.04568279999967,159.04568279999967,159.04568279999967,,001,P007,2025_Feb_01_0950,CategoryLocalizer,2021.2.3,59.94556942307401,
122.0,122.8,4,0.75,Stimuli\ImageFiles-Set1\Scenes\Scenes_002.png,0,0,0,198,198,198,,,,,,,,,,,,,122.00635759999932,0.0063575999993190635,None,159.22913710000012,159.22913710000012,159.22913710000012,159.22913710000012,159.22913710000012,159.22913710000012,159.22913710000012,159.22913710000012,,001,P007,2025_Feb_01_0950,CategoryLocalizer,2021.2.3,59.94556942307401,
122.8,123.0,5,0.0,Stimuli\Blank.png,0,0,0,199,199,199,,,,,,,,,,,,,122.80990740000016,0.009907400000159328,None,160.04657080000015,160.04657080000015,160.04657080000015,160.04657080000015,160.04657080000015,160.04657080000015,160.04657080000015,160.04657080000015,,001,P007,2025_Feb_01_0950,CategoryLocalizer,2021.2.3,59.94556942307401,
123.0,123.8,4,0.75,Stimuli\ImageFiles-Set1\Scenes\Scenes_021.png,0,0,0,200,200,200,,,,,,,,,,,,,123.02457229999982,0.024572299999817915,None,160.26343279999946,160.26343279999946,160.26343279999946,160.26343279999946,160.26343279999946,160.26343279999946,160.26343279999946,160.26343279999946,,001,P007,2025_Feb_01_0950,CategoryLocalizer,2021.2.3,59.94556942307401,
123.8,124.0,5,0.0,Stimuli\Blank.png,0,0,0,201,201,201,,,,,,,,,,,,,123.82474589999947,0.02474589999947341,None,161.04745719999937,161.04745719999937,161.04745719999937,161.04745719999937,161.04745719999937,161.04745719999937,161.04745719999937,161.04745719999937,,001,P007,2025_Feb_01_0950,CategoryLocalizer,2021.2.3,59.94556942307401,
124.0,124.8,4,0.75,Stimuli\ImageFiles-Set1\Scenes\Scenes_023.png,0,0,0,202,202,202,,,,,,,,,,,,,124.00959289999992,0.009592899999915971,None,161.2476274999999,161.2476274999999,161.2476274999999,161.2476274999999,161.2476274999999,161.2476274999999,161.2476274999999,161.2476274999999,,001,P007,2025_Feb_01_0950,CategoryLocalizer,2021.2.3,59.94556942307401,
124.8,125.0,5,0.0,Stimuli\Blank.png,0,0,0,203,203,203,,,,,,,,,,,,,124.82560000000012,0.025600000000125078,None,162.04833489999965,162.04833489999965,162.04833489999965,162.04833489999965,162.04833489999965,162.04833489999965,162.04833489999965,162.04833489999965,,001,P007,2025_Feb_01_0950,CategoryLocalizer,2021.2.3,59.94556942307401,
125.0,125.8,4,0.75,Stimuli\ImageFiles-Set1\Scenes\Scenes_023.png,1,1,0,204,204,204,,,,,,,,,,,,,125.00906029999987,0.009060299999873678,2,162.23183379999955,162.23183379999955,162.23183379999955,162.23183379999955,162.23183379999955,162.23183379999955,162.23183379999955,162.23183379999955,0.3328989999999976,001,P007,2025_Feb_01_0950,CategoryLocalizer,2021.2.3,59.94556942307401,
125.8,126.0,5,0.0,Stimuli\Blank.png,0,0,0,205,205,205,,,,,,,,,,,,,125.80966529999932,0.009665299999326749,None,163.03254899999956,163.03254899999956,163.03254899999956,163.03254899999956,163.03254899999956,163.03254899999956,163.03254899999956,163.03254899999956,,001,P007,2025_Feb_01_0950,CategoryLocalizer,2021.2.3,59.94556942307401,
126.0,126.8,4,0.75,Stimuli\ImageFiles-Set1\Scenes\Scenes_045.png,0,0,0,206,206,206,,,,,,,,,,,,,126.01076699999976,0.010766999999759719,None,163.24939819999963,163.24939819999963,163.24939819999963,163.24939819999963,163.24939819999963,163.24939819999963,163.24939819999963,163.24939819999963,,001,P007,2025_Feb_01_0950,CategoryLocalizer,2021.2.3,59.94556942307401,
126.8,127.0,5,0.0,Stimuli\Blank.png,0,0,0,207,207,207,,,,,,,,,,,,,126.82905750000009,0.029057500000092773,None,164.0668010999998,164.0668010999998,164.0668010999998,164.0668010999998,164.0668010999998,164.0668010999998,164.0668010999998,164.0668010999998,,001,P007,2025_Feb_01_0950,CategoryLocalizer,2021.2.3,59.94556942307401,
127.0,127.8,4,0.75,Stimuli\ImageFiles-Set1\Scenes\Scenes_060.png,0,0,0,208,208,208,,,,,,,,,,,,,127.02920910000012,0.02920910000011645,None,164.26697499999955,164.26697499999955,164.26697499999955,164.26697499999955,164.26697499999955,164.26697499999955,164.26697499999955,164.26697499999955,,001,P007,2025_Feb_01_0950,CategoryLocalizer,2021.2.3,59.94556942307401,
127.8,128.0,5,0.0,Stimuli\Blank.png,0,0,0,209,209,209,,,,,,,,,,,,,127.82940679999956,0.029406799999563304,None,165.05100369999946,165.05100369999946,165.05100369999946,165.05100369999946,165.05100369999946,165.05100369999946,165.05100369999946,165.05100369999946,,001,P007,2025_Feb_01_0950,CategoryLocalizer,2021.2.3,59.94556942307401,
128.0,128.8,4,0.75,Stimuli\ImageFiles-Set1\Scenes\Scenes_016.png,0,0,0,210,210,210,,,,,,,,,,,,,128.01237429999946,0.01237429999946471,None,165.2511730999995,165.2511730999995,165.2511730999995,165.2511730999995,165.2511730999995,165.2511730999995,165.2511730999995,165.2511730999995,,001,P007,2025_Feb_01_0950,CategoryLocalizer,2021.2.3,59.94556942307401,
128.8,129.0,5,0.0,Stimuli\Blank.png,0,0,0,211,211,211,,,,,,,,,,,,,128.82912699999997,0.029126999999959935,None,166.05187829999977,166.05187829999977,166.05187829999977,166.05187829999977,166.05187829999977,166.05187829999977,166.05187829999977,166.05187829999977,,001,P007,2025_Feb_01_0950,CategoryLocalizer,2021.2.3,59.94556942307401,
129.0,129.8,4,0.75,Stimuli\ImageFiles-Set1\Scenes\Scenes_030.png,0,0,0,212,212,212,,,,,,,,,,,,,129.01493899999969,0.01493899999968562,None,166.26873909999995,166.26873909999995,166.26873909999995,166.26873909999995,166.26873909999995,166.26873909999995,166.26873909999995,166.26873909999995,,001,P007,2025_Feb_01_0950,CategoryLocalizer,2021.2.3,59.94556942307401,
129.8,130.0,5,0.0,Stimuli\Blank.png,0,0,0,213,213,213,,,,,,,,,,,,,129.84738659999948,0.047386599999470036,None,167.06945779999933,167.06945779999933,167.06945779999933,167.06945779999933,167.06945779999933,167.06945779999933,167.06945779999933,167.06945779999933,,001,P007,2025_Feb_01_0950,CategoryLocalizer,2021.2.3,59.94556942307401,
130.0,130.8,4,0.75,Stimuli\ImageFiles-Set1\Scenes\Scenes_024.png,0,0,0,214,214,214,,,,,,,,,,,,,130.01419089999945,0.014190899999448447,None,167.25296849999995,167.25296849999995,167.25296849999995,167.25296849999995,167.25296849999995,167.25296849999995,167.25296849999995,167.25296849999995,,001,P007,2025_Feb_01_0950,CategoryLocalizer,2021.2.3,59.94556942307401,
130.8,131.0,5,0.0,Stimuli\Blank.png,0,0,0,215,215,215,,,,,,,,,,,,,130.83157179999944,0.031571799999426275,None,168.05372679999982,168.05372679999982,168.05372679999982,168.05372679999982,168.05372679999982,168.05372679999982,168.05372679999982,168.05372679999982,,001,P007,2025_Feb_01_0950,CategoryLocalizer,2021.2.3,59.94556942307401,
131.0,131.8,4,0.75,Stimuli\ImageFiles-Set1\Scenes\Scenes_058.png,0,0,0,216,216,216,,,,,,,,,,,,,131.0145339999999,0.01453399999991234,None,168.27053160000014,168.27053160000014,168.27053160000014,168.27053160000014,168.27053160000014,168.27053160000014,168.27053160000014,168.27053160000014,,001,P007,2025_Feb_01_0950,CategoryLocalizer,2021.2.3,59.94556942307401,
131.8,132.0,5,0.0,Stimuli\Blank.png,0,0,0,217,217,217,,,,,,,,,,,,,131.84836929999983,0.04836929999981976,None,169.07121619999998,169.07121619999998,169.07121619999998,169.07121619999998,169.07121619999998,169.07121619999998,169.07121619999998,169.07121619999998,,001,P007,2025_Feb_01_0950,CategoryLocalizer,2021.2.3,59.94556942307401,
132.0,132.8,4,0.75,Stimuli\ImageFiles-Set1\Scenes\Scenes_010.png,0,0,0,218,218,218,,,,,,,,,,,,,132.01592530000016,0.01592530000016268,None,169.27139179999995,169.27139179999995,169.27139179999995,169.27139179999995,169.27139179999995,169.27139179999995,169.27139179999995,169.27139179999995,,001,P007,2025_Feb_01_0950,CategoryLocalizer,2021.2.3,59.94556942307401,
132.8,133.0,5,0.0,Stimuli\Blank.png,0,0,0,219,219,219,,,,,,,,,,,,,132.8331892999995,0.03318929999949205,None,170.05542819999937,170.05542819999937,170.05542819999937,170.05542819999937,170.05542819999937,170.05542819999937,170.05542819999937,170.05542819999937,,001,P007,2025_Feb_01_0950,CategoryLocalizer,2021.2.3,59.94556942307401,
133.0,133.8,4,0.75,Stimuli\ImageFiles-Set1\Scenes\Scenes_059.png,0,0,0,220,220,220,,,,,,,,,,,,,132.99960920000012,-0.0003907999998773448,None,170.25561729999936,170.25561729999936,170.25561729999936,170.25561729999936,170.25561729999936,170.25561729999936,170.25561729999936,170.25561729999936,,001,P007,2025_Feb_01_0950,CategoryLocalizer,2021.2.3,59.94556942307401,
133.8,134.0,5,0.0,Stimuli\Blank.png,0,0,0,221,221,221,,,,,,,,,,,,,133.8336005000001,0.03360050000009096,None,171.05630440000004,171.05630440000004,171.05630440000004,171.05630440000004,171.05630440000004,171.05630440000004,171.05630440000004,171.05630440000004,,001,P007,2025_Feb_01_0950,CategoryLocalizer,2021.2.3,59.94556942307401,
134.0,134.8,4,0.75,Stimuli\ImageFiles-Set1\Scenes\Scenes_043.png,0,0,0,222,222,222,,,,,,,,,,,,,134.00036089999958,0.0003608999995776685,None,171.25648019999971,171.25648019999971,171.25648019999971,171.25648019999971,171.25648019999971,171.25648019999971,171.25648019999971,171.25648019999971,,001,P007,2025_Feb_01_0950,CategoryLocalizer,2021.2.3,59.94556942307401,
134.8,135.0,5,0.0,Stimuli\Blank.png,0,0,0,223,223,223,,,,,,,,,,,,,134.8348965999994,0.034896599999399314,None,172.05718949999937,172.05718949999937,172.05718949999937,172.05718949999937,172.05718949999937,172.05718949999937,172.05718949999937,172.05718949999937,,001,P007,2025_Feb_01_0950,CategoryLocalizer,2021.2.3,59.94556942307401,
135.0,135.8,4,0.75,Stimuli\ImageFiles-Set1\Scenes\Scenes_028.png,0,0,0,224,224,224,,,,,,,,,,,,,135.0039627999995,0.0039627999994991114,None,172.25736489999963,172.25736489999963,172.25736489999963,172.25736489999963,172.25736489999963,172.25736489999963,172.25736489999963,172.25736489999963,,001,P007,2025_Feb_01_0950,CategoryLocalizer,2021.2.3,59.94556942307401,
135.8,136.0,5,0.0,Stimuli\Blank.png,0,0,0,225,225,225,,,,,,,,,,,,,135.83577559999958,0.035775599999567476,None,173.05807709999954,173.05807709999954,173.05807709999954,173.05807709999954,173.05807709999954,173.05807709999954,173.05807709999954,173.05807709999954,,001,P007,2025_Feb_01_0950,CategoryLocalizer,2021.2.3,59.94556942307401,
136.0,136.8,2,0.75,Stimuli\ImageFiles-Set1\Bodies\Bodies_Running_00006.png,0,0,0,226,226,226,,,,,,,,,,,,,136.0048644999997,0.0048644999997122795,None,173.2582550999996,173.2582550999996,173.2582550999996,173.2582550999996,173.2582550999996,173.2582550999996,173.2582550999996,173.2582550999996,,001,P007,2025_Feb_01_0950,CategoryLocalizer,2021.2.3,59.94556942307401,
136.8,137.0,5,0.0,Stimuli\Blank.png,0,0,0,227,227,227,,,,,,,,,,,,,136.83608969999932,0.03608969999930878,None,174.05896309999935,174.05896309999935,174.05896309999935,174.05896309999935,174.05896309999935,174.05896309999935,174.05896309999935,174.05896309999935,,001,P007,2025_Feb_01_0950,CategoryLocalizer,2021.2.3,59.94556942307401,
137.0,137.8,2,0.75,Stimuli\ImageFiles-Set1\Bodies\Bodies_Running_00006.png,1,1,0,228,228,228,,,,,,,,,,,,,137.00357209999947,0.0035720999994737213,2,174.22577850000016,174.22577850000016,174.22577850000016,174.22577850000016,174.22577850000016,174.22577850000016,174.22577850000016,174.22577850000016,0.38896220000060566,001,P007,2025_Feb_01_0950,CategoryLocalizer,2021.2.3,59.94556942307401,
137.8,138.0,5,0.0,Stimuli\Blank.png,0,0,0,229,229,229,,,,,,,,,,,,,137.80504329999985,0.005043299999840656,None,175.02648820000013,175.02648820000013,175.02648820000013,175.02648820000013,175.02648820000013,175.02648820000013,175.02648820000013,175.02648820000013,,001,P007,2025_Feb_01_0950,CategoryLocalizer,2021.2.3,59.94556942307401,
138.0,138.8,2,0.75,Stimuli\ImageFiles-Set1\Bodies\Bodies_Jumping_00004.png,0,0,0,230,230,230,,,,,,,,,,,,,138.00471509999988,0.004715099999884842,None,175.25999570000022,175.25999570000022,175.25999570000022,175.25999570000022,175.25999570000022,175.25999570000022,175.25999570000022,175.25999570000022,,001,P007,2025_Feb_01_0950,CategoryLocalizer,2021.2.3,59.94556942307401,
138.8,139.0,5,0.0,Stimuli\Blank.png,0,0,0,231,231,231,,,,,,,,,,,,,138.83797830000003,0.037978300000020226,None,176.06077879999975,176.06077879999975,176.06077879999975,176.06077879999975,176.06077879999975,176.06077879999975,176.06077879999975,176.06077879999975,,001,P007,2025_Feb_01_0950,CategoryLocalizer,2021.2.3,59.94556942307401,
139.0,139.8,2,0.75,Stimuli\ImageFiles-Set1\Bodies\Bodies_SittingChair_00003.png,0,0,0,232,232,232,,,,,,,,,,,,,139.0048240999995,0.004824099999495957,None,176.24424889999955,176.24424889999955,176.24424889999955,176.24424889999955,176.24424889999955,176.24424889999955,176.24424889999955,176.24424889999955,,001,P007,2025_Feb_01_0950,CategoryLocalizer,2021.2.3,59.94556942307401,
139.8,140.0,5,0.0,Stimuli\Blank.png,0,0,0,233,233,233,,,,,,,,,,,,,139.82483820000016,0.024838200000147026,None,177.0616289999998,177.0616289999998,177.0616289999998,177.0616289999998,177.0616289999998,177.0616289999998,177.0616289999998,177.0616289999998,,001,P007,2025_Feb_01_0950,CategoryLocalizer,2021.2.3,59.94556942307401,
140.0,140.8,2,0.75,Stimuli\ImageFiles-Set1\Bodies\Bodies_Lunging_00003.png,0,0,0,234,234,234,,,,,,,,,,,,,140.02287419999993,0.022874199999932898,None,177.26181480000014,177.26181480000014,177.26181480000014,177.26181480000014,177.26181480000014,177.26181480000014,177.26181480000014,177.26181480000014,,001,P007,2025_Feb_01_0950,CategoryLocalizer,2021.2.3,59.94556942307401,
140.8,141.0,5,0.0,Stimuli\Blank.png,0,0,0,235,235,235,,,,,,,,,,,,,140.82380809999995,0.023808099999939714,None,178.0458297999994,178.0458297999994,178.0458297999994,178.0458297999994,178.0458297999994,178.0458297999994,178.0458297999994,178.0458297999994,,001,P007,2025_Feb_01_0950,CategoryLocalizer,2021.2.3,59.94556942307401,
141.0,141.8,2,0.75,Stimuli\ImageFiles-Set1\Bodies\Bodies_QuadStretch_00005.png,0,0,0,236,236,236,,,,,,,,,,,,,141.00643330000003,0.006433300000026065,None,178.24601129999974,178.24601129999974,178.24601129999974,178.24601129999974,178.24601129999974,178.24601129999974,178.24601129999974,178.24601129999974,,001,P007,2025_Feb_01_0950,CategoryLocalizer,2021.2.3,59.94556942307401,
141.8,142.0,5,0.0,Stimuli\Blank.png,0,0,0,237,237,237,,,,,,,,,,,,,141.82561019999957,0.025610199999562155,None,179.06343219999962,179.06343219999962,179.06343219999962,179.06343219999962,179.06343219999962,179.06343219999962,179.06343219999962,179.06343219999962,,001,P007,2025_Feb_01_0950,CategoryLocalizer,2021.2.3,59.94556942307401,
142.0,142.8,2,0.75,Stimuli\ImageFiles-Set1\Bodies\Bodies_Lunging_00001.png,0,0,0,238,238,238,,,,,,,,,,,,,142.02412980000008,0.02412980000008247,None,179.26357469999948,179.26357469999948,179.26357469999948,179.26357469999948,179.26357469999948,179.26357469999948,179.26357469999948,179.26357469999948,,001,P007,2025_Feb_01_0950,CategoryLocalizer,2021.2.3,59.94556942307401,
142.8,143.0,5,0.0,Stimuli\Blank.png,0,0,0,239,239,239,,,,,,,,,,,,,142.82490899999993,0.0249089999999228,None,180.04759589999958,180.04759589999958,180.04759589999958,180.04759589999958,180.04759589999958,180.04759589999958,180.04759589999958,180.04759589999958,,001,P007,2025_Feb_01_0950,CategoryLocalizer,2021.2.3,59.94556942307401,
143.0,143.8,2,0.75,Stimuli\ImageFiles-Set1\Bodies\Bodies_Standing_00007.png,0,0,0,240,240,240,,,,,,,,,,,,,143.0094935999996,0.009493599999586877,None,180.24776459999975,180.24776459999975,180.24776459999975,180.24776459999975,180.24776459999975,180.24776459999975,180.24776459999975,180.24776459999975,,001,P007,2025_Feb_01_0950,CategoryLocalizer,2021.2.3,59.94556942307401,
143.8,144.0,5,0.0,Stimuli\Blank.png,0,0,0,241,241,241,,,,,,,,,,,,,143.8264677999996,0.02646779999957971,None,181.0485533000001,181.0485533000001,181.0485533000001,181.0485533000001,181.0485533000001,181.0485533000001,181.0485533000001,181.0485533000001,,001,P007,2025_Feb_01_0950,CategoryLocalizer,2021.2.3,59.94556942307401,
144.0,144.8,2,0.75,Stimuli\ImageFiles-Set1\Bodies\Bodies_Punching_00001.png,0,0,0,242,242,242,,,,,,,,,,,,,144.00927890000003,0.009278900000026624,None,181.24863060000007,181.24863060000007,181.24863060000007,181.24863060000007,181.24863060000007,181.24863060000007,181.24863060000007,181.24863060000007,,001,P007,2025_Feb_01_0950,CategoryLocalizer,2021.2.3,59.94556942307401,
144.8,145.0,5,0.0,Stimuli\Blank.png,0,0,0,243,243,243,,,,,,,,,,,,,144.82645890000003,0.026458900000022822,None,182.0493607999997,182.0493607999997,182.0493607999997,182.0493607999997,182.0493607999997,182.0493607999997,182.0493607999997,182.0493607999997,,001,P007,2025_Feb_01_0950,CategoryLocalizer,2021.2.3,59.94556942307401,
145.0,145.8,2,0.75,Stimuli\ImageFiles-Set1\Bodies\Bodies_Kicking_00007.png,0,0,0,244,244,244,,,,,,,,,,,,,145.0099970000001,0.009997000000112166,None,182.2496132999995,182.2496132999995,182.2496132999995,182.2496132999995,182.2496132999995,182.2496132999995,182.2496132999995,182.2496132999995,,001,P007,2025_Feb_01_0950,CategoryLocalizer,2021.2.3,59.94556942307401,
145.8,146.0,5,0.0,Stimuli\Blank.png,0,0,0,245,245,245,,,,,,,,,,,,,145.8299546999997,0.029954699999677814,None,183.06693180000002,183.06693180000002,183.06693180000002,183.06693180000002,183.06693180000002,183.06693180000002,183.06693180000002,183.06693180000002,,001,P007,2025_Feb_01_0950,CategoryLocalizer,2021.2.3,59.94556942307401,
146.0,146.8,2,0.75,Stimuli\ImageFiles-Set1\Bodies\Bodies_CobraPose_00005.png,1,1,0,246,246,246,,,,,,,,,,,,,146.0293318999993,0.029331899999306188,None,183.2671320999998,183.2671320999998,183.2671320999998,183.2671320999998,183.2671320999998,183.2671320999998,183.2671320999998,183.2671320999998,,001,P007,2025_Feb_01_0950,CategoryLocalizer,2021.2.3,59.94556942307401,
146.8,147.0,5,0.0,Stimuli\Blank.png,0,0,0,247,247,247,,,,,,,,,,,,,146.82885970000007,0.028859700000055,None,184.05112839999947,184.05112839999947,184.05112839999947,184.05112839999947,184.05112839999947,184.05112839999947,184.05112839999947,184.05112839999947,,001,P007,2025_Feb_01_0950,CategoryLocalizer,2021.2.3,59.94556942307401,
147.0,147.8,2,0.75,Stimuli\ImageFiles-Set1\Bodies\Bodies_Falling_00004.png,0,0,0,248,248,248,,,,,,,,,,,,,147.01431820000016,0.014318200000161596,None,184.25132419999954,184.25132419999954,184.25132419999954,184.25132419999954,184.25132419999954,184.25132419999954,184.25132419999954,184.25132419999954,,001,P007,2025_Feb_01_0950,CategoryLocalizer,2021.2.3,59.94556942307401,
147.8,148.0,5,0.0,Stimuli\Blank.png,0,0,0,249,249,249,,,,,,,,,,,,,147.82918100000006,0.02918100000005097,None,185.0520158999998,185.0520158999998,185.0520158999998,185.0520158999998,185.0520158999998,185.0520158999998,185.0520158999998,185.0520158999998,,001,P007,2025_Feb_01_0950,CategoryLocalizer,2021.2.3,59.94556942307401,
148.0,148.8,2,0.75,Stimuli\ImageFiles-Set1\Bodies\Bodies_Falling_00004.png,0,0,0,250,250,250,,,,,,,,,,,,,148.01270130000012,0.012701300000117044,2,185.23551749999933,185.23551749999933,185.23551749999933,185.23551749999933,185.23551749999933,185.23551749999933,185.23551749999933,185.23551749999933,0.4362879999998768,001,P007,2025_Feb_01_0950,CategoryLocalizer,2021.2.3,59.94556942307401,
148.8,149.0,5,0.0,Stimuli\Blank.png,0,0,0,251,251,251,,,,,,,,,,,,,148.81372719999945,0.013727199999436834,None,186.03622089999953,186.03622089999953,186.03622089999953,186.03622089999953,186.03622089999953,186.03622089999953,186.03622089999953,186.03622089999953,,001,P007,2025_Feb_01_0950,CategoryLocalizer,2021.2.3,59.94556942307401,
149.0,149.8,2,0.75,Stimuli\ImageFiles-Set1\Bodies\Bodies_SittingStretch_00005.png,0,0,0,252,252,252,,,,,,,,,,,,,149.01368129999992,0.013681299999916519,None,186.25309899999957,186.25309899999957,186.25309899999957,186.25309899999957,186.25309899999957,186.25309899999957,186.25309899999957,186.25309899999957,,001,P007,2025_Feb_01_0950,CategoryLocalizer,2021.2.3,59.94556942307401,
149.8,150.0,5,0.0,Stimuli\Blank.png,0,0,0,253,253,253,,,,,,,,,,,,,149.8322159999998,0.03221599999977798,None,187.05380530000002,187.05380530000002,187.05380530000002,187.05380530000002,187.05380530000002,187.05380530000002,187.05380530000002,187.05380530000002,,001,P007,2025_Feb_01_0950,CategoryLocalizer,2021.2.3,59.94556942307401,
150.0,150.8,2,0.75,Stimuli\ImageFiles-Set1\Bodies\Bodies_Kneeling_00007.png,0,0,0,254,254,254,,,,,,,,,,,,,149.99848659999952,-0.0015134000004763948,None,187.23724519999996,187.23724519999996,187.23724519999996,187.23724519999996,187.23724519999996,187.23724519999996,187.23724519999996,187.23724519999996,,001,P007,2025_Feb_01_0950,CategoryLocalizer,2021.2.3,59.94556942307401,
150.8,151.0,5,0.0,Stimuli\Blank.png,0,0,0,255,255,255,,,,,,,,,,,,,150.81561019999936,0.015610199999343877,None,188.0379955999997,188.0379955999997,188.0379955999997,188.0379955999997,188.0379955999997,188.0379955999997,188.0379955999997,188.0379955999997,,001,P007,2025_Feb_01_0950,CategoryLocalizer,2021.2.3,59.94556942307401,
151.0,151.8,2,0.75,Stimuli\ImageFiles-Set1\Bodies\Bodies_Pushing_00003.png,0,0,0,256,256,256,,,,,,,,,,,,,150.99977109999963,-0.0002289000003656838,None,188.2381852999997,188.2381852999997,188.2381852999997,188.2381852999997,188.2381852999997,188.2381852999997,188.2381852999997,188.2381852999997,,001,P007,2025_Feb_01_0950,CategoryLocalizer,2021.2.3,59.94556942307401,
151.8,152.0,5,0.0,Stimuli\Blank.png,0,0,0,257,257,257,,,,,,,,,,,,,151.81596699999955,0.015966999999534437,None,189.03887810000015,189.03887810000015,189.03887810000015,189.03887810000015,189.03887810000015,189.03887810000015,189.03887810000015,189.03887810000015,,001,P007,2025_Feb_01_0950,CategoryLocalizer,2021.2.3,59.94556942307401,
152.0,164.0,0,0.0,Stimuli\Blank.png,0,0,0,258,258,258,,,,,,,,,,,,,152.00065540000014,0.0006554000001415261,None,189.2223385999996,189.2223385999996,189.2223385999996,189.2223385999996,189.2223385999996,189.2223385999996,189.2223385999996,189.2223385999996,,001,P007,2025_Feb_01_0950,CategoryLocalizer,2021.2.3,59.94556942307401,
164.0,164.8,4,0.75,Stimuli\ImageFiles-Set1\Scenes\Scenes_004.png,0,0,0,259,259,259,,,,,,,,,,,,,164.01089179999963,0.010891799999626528,None,201.24972770000022,201.24972770000022,201.24972770000022,201.24972770000022,201.24972770000022,201.24972770000022,201.24972770000022,201.24972770000022,,001,P007,2025_Feb_01_0950,CategoryLocalizer,2021.2.3,59.94556942307401,
164.8,165.0,5,0.0,Stimuli\Blank.png,0,0,0,260,260,260,,,,,,,,,,,,,164.82944729999963,0.02944729999961737,None,202.06710269999985,202.06710269999985,202.06710269999985,202.06710269999985,202.06710269999985,202.06710269999985,202.06710269999985,202.06710269999985,,001,P007,2025_Feb_01_0950,CategoryLocalizer,2021.2.3,59.94556942307401,
165.0,165.8,4,0.75,Stimuli\ImageFiles-Set1\Scenes\Scenes_004.png,1,1,0,261,261,261,,,,,,,,,,,,,165.03015210000012,0.030152100000123028,None,202.26725290000013,202.26725290000013,202.26725290000013,202.26725290000013,202.26725290000013,202.26725290000013,202.26725290000013,202.26725290000013,,001,P007,2025_Feb_01_0950,CategoryLocalizer,2021.2.3,59.94556942307401,
165.8,166.0,5,0.0,Stimuli\Blank.png,0,0,0,262,262,262,,,,,,,,,,,,,165.82918459999928,0.029184599999268812,None,203.05127699999957,203.05127699999957,203.05127699999957,203.05127699999957,203.05127699999957,203.05127699999957,203.05127699999957,203.05127699999957,,001,P007,2025_Feb_01_0950,CategoryLocalizer,2021.2.3,59.94556942307401,
166.0,166.8,4,0.75,Stimuli\ImageFiles-Set1\Scenes\Scenes_054.png,0,0,0,263,263,263,,,,,,,,,,,,,166.01331609999943,0.013316099999428843,None,203.25148139999965,203.25148139999965,203.25148139999965,203.25148139999965,203.25148139999965,203.25148139999965,203.25148139999965,203.25148139999965,,001,P007,2025_Feb_01_0950,CategoryLocalizer,2021.2.3,59.94556942307401,
166.8,167.0,5,0.0,Stimuli\Blank.png,0,0,0,264,264,264,,,,,,,,,,,,,166.8295909999997,0.029590999999697942,None,204.05216010000004,204.05216010000004,204.05216010000004,204.05216010000004,204.05216010000004,204.05216010000004,204.05216010000004,204.05216010000004,,001,P007,2025_Feb_01_0950,CategoryLocalizer,2021.2.3,59.94556942307401,
167.0,167.8,4,0.75,Stimuli\ImageFiles-Set1\Scenes\Scenes_020.png,0,0,0,265,265,265,,,,,,,,,,,,,167.01347569999962,0.013475699999617063,None,204.2690216000001,204.2690216000001,204.2690216000001,204.2690216000001,204.2690216000001,204.2690216000001,204.2690216000001,204.2690216000001,,001,P007,2025_Feb_01_0950,CategoryLocalizer,2021.2.3,59.94556942307401,
167.8,168.0,5,0.0,Stimuli\Blank.png,0,0,0,266,266,266,,,,,,,,,,,,,167.8488652999995,0.048865299999476974,None,205.08640949999972,205.08640949999972,205.08640949999972,205.08640949999972,205.08640949999972,205.08640949999972,205.08640949999972,205.08640949999972,,001,P007,2025_Feb_01_0950,CategoryLocalizer,2021.2.3,59.94556942307401,
168.0,168.8,4,0.75,Stimuli\ImageFiles-Set1\Scenes\Scenes_041.png,0,0,0,267,267,267,,,,,,,,,,,,,168.0149223999997,0.014922399999704794,None,205.26990990000013,205.26990990000013,205.26990990000013,205.26990990000013,205.26990990000013,205.26990990000013,205.26990990000013,205.26990990000013,,001,P007,2025_Feb_01_0950,CategoryLocalizer,2021.2.3,59.94556942307401,
168.8,169.0,5,0.0,Stimuli\Blank.png,0,0,0,268,268,268,,,,,,,,,,,,,168.84887509999953,0.048875099999520444,None,206.07061109999995,206.07061109999995,206.07061109999995,206.07061109999995,206.07061109999995,206.07061109999995,206.07061109999995,206.07061109999995,,001,P007,2025_Feb_01_0950,CategoryLocalizer,2021.2.3,59.94556942307401,
169.0,169.8,4,0.75,Stimuli\ImageFiles-Set1\Scenes\Scenes_057.png,0,0,0,269,269,269,,,,,,,,,,,,,168.99855070000012,-0.00144929999987653,None,206.25415299999986,206.25415299999986,206.25415299999986,206.25415299999986,206.25415299999986,206.25415299999986,206.25415299999986,206.25415299999986,,001,P007,2025_Feb_01_0950,CategoryLocalizer,2021.2.3,59.94556942307401,
169.8,170.0,5,0.0,Stimuli\Blank.png,0,0,0,270,270,270,,,,,,,,,,,,,169.83356959999946,0.03356959999945275,None,207.0548205999994,207.0548205999994,207.0548205999994,207.0548205999994,207.0548205999994,207.0548205999994,207.0548205999994,207.0548205999994,,001,P007,2025_Feb_01_0950,CategoryLocalizer,2021.2.3,59.94556942307401,
170.0,170.8,4,0.75,Stimuli\ImageFiles-Set1\Scenes\Scenes_051.png,0,0,0,271,271,271,,,,,,,,,,,,,170.00030799999968,0.0003079999996771221,None,207.2383159000001,207.2383159000001,207.2383159000001,207.2383159000001,207.2383159000001,207.2383159000001,207.2383159000001,207.2383159000001,,001,P007,2025_Feb_01_0950,CategoryLocalizer,2021.2.3,59.94556942307401,
170.8,171.0,5,0.0,Stimuli\Blank.png,0,0,0,272,272,272,,,,,,,,,,,,,170.8187214999998,0.018721499999799107,None,208.05572029999985,208.05572029999985,208.05572029999985,208.05572029999985,208.05572029999985,208.05572029999985,208.05572029999985,208.05572029999985,,001,P007,2025_Feb_01_0950,CategoryLocalizer,2021.2.3,59.94556942307401,
171.0,171.8,4,0.75,Stimuli\ImageFiles-Set1\Scenes\Scenes_006.png,0,0,0,273,273,273,,,,,,,,,,,,,171.0163976999993,0.016397699999288307,None,208.2558884,208.2558884,208.2558884,208.2558884,208.2558884,208.2558884,208.2558884,208.2558884,,001,P007,2025_Feb_01_0950,CategoryLocalizer,2021.2.3,59.94556942307401,
171.8,172.0,5,0.0,Stimuli\Blank.png,0,0,0,274,274,274,,,,,,,,,,,,,171.81916469999942,0.01916469999940773,None,209.05660530000023,209.05660530000023,209.05660530000023,209.05660530000023,209.05660530000023,209.05660530000023,209.05660530000023,209.05660530000023,,001,P007,2025_Feb_01_0950,CategoryLocalizer,2021.2.3,59.94556942307401,
172.0,172.8,4,0.75,Stimuli\ImageFiles-Set1\Scenes\Scenes_056.png,0,0,0,275,275,275,,,,,,,,,,,,,172.01920619999964,0.019206199999644014,None,209.27347049999935,209.27347049999935,209.27347049999935,209.27347049999935,209.27347049999935,209.27347049999935,209.27347049999935,209.27347049999935,,001,P007,2025_Feb_01_0950,CategoryLocalizer,2021.2.3,59.94556942307401,
172.8,173.0,5,0.0,Stimuli\Blank.png,0,0,0,276,276,276,,,,,,,,,,,,,172.83519809999962,0.03519809999960444,None,210.05746589999944,210.05746589999944,210.05746589999944,210.05746589999944,210.05746589999944,210.05746589999944,210.05746589999944,210.05746589999944,,001,P007,2025_Feb_01_0950,CategoryLocalizer,2021.2.3,59.94556942307401,
173.0,173.8,4,0.75,Stimuli\ImageFiles-Set1\Scenes\Scenes_019.png,1,1,0,277,277,277,,,,,,,,,,,,,173.00140759999977,0.0014075999997658073,None,210.25764609999987,210.25764609999987,210.25764609999987,210.25764609999987,210.25764609999987,210.25764609999987,210.25764609999987,210.25764609999987,,001,P007,2025_Feb_01_0950,CategoryLocalizer,2021.2.3,59.94556942307401,
173.8,174.0,5,0.0,Stimuli\Blank.png,0,0,0,278,278,278,,,,,,,,,,,,,173.83646169999975,0.03646169999973381,None,211.05837579999934,211.05837579999934,211.05837579999934,211.05837579999934,211.05837579999934,211.05837579999934,211.05837579999934,211.05837579999934,,001,P007,2025_Feb_01_0950,CategoryLocalizer,2021.2.3,59.94556942307401,
174.0,174.8,4,0.75,Stimuli\ImageFiles-Set1\Scenes\Scenes_031.png,0,0,0,279,279,279,,,,,,,,,,,,,174.00348769999982,0.003487699999823235,None,211.2585312000001,211.2585312000001,211.2585312000001,211.2585312000001,211.2585312000001,211.2585312000001,211.2585312000001,211.2585312000001,,001,P007,2025_Feb_01_0950,CategoryLocalizer,2021.2.3,59.94556942307401,
174.8,175.0,5,0.0,Stimuli\Blank.png,0,0,0,280,280,280,,,,,,,,,,,,,174.83646849999968,0.03646849999967117,None,212.0592876999999,212.0592876999999,212.0592876999999,212.0592876999999,212.0592876999999,212.0592876999999,212.0592876999999,212.0592876999999,,001,P007,2025_Feb_01_0950,CategoryLocalizer,2021.2.3,59.94556942307401,
175.0,175.8,4,0.75,Stimuli\ImageFiles-Set1\Scenes\Scenes_031.png,0,0,0,281,281,281,,,,,,,,,,,,,175.00351509999928,0.003515099999276572,2,212.22606199999973,212.22606199999973,212.22606199999973,212.22606199999973,212.22606199999973,212.22606199999973,212.22606199999973,212.22606199999973,0.35064090000014403,001,P007,2025_Feb_01_0950,CategoryLocalizer,2021.2.3,59.94556942307401,
175.8,176.0,5,0.0,Stimuli\Blank.png,0,0,0,282,282,282,,,,,,,,,,,,,175.80496099999982,0.004960999999809701,None,213.02679279999938,213.02679279999938,213.02679279999938,213.02679279999938,213.02679279999938,213.02679279999938,213.02679279999938,213.02679279999938,,001,P007,2025_Feb_01_0950,CategoryLocalizer,2021.2.3,59.94556942307401,
176.0,176.8,4,0.75,Stimuli\ImageFiles-Set1\Scenes\Scenes_038.png,0,0,0,283,283,283,,,,,,,,,,,,,176.0047494999999,0.00474949999988894,None,213.2603264999998,213.2603264999998,213.2603264999998,213.2603264999998,213.2603264999998,213.2603264999998,213.2603264999998,213.2603264999998,,001,P007,2025_Feb_01_0950,CategoryLocalizer,2021.2.3,59.94556942307401,
176.8,177.0,5,0.0,Stimuli\Blank.png,0,0,0,284,284,284,,,,,,,,,,,,,176.84028989999933,0.04028989999932264,None,214.06103989999974,214.06103989999974,214.06103989999974,214.06103989999974,214.06103989999974,214.06103989999974,214.06103989999974,214.06103989999974,,001,P007,2025_Feb_01_0950,CategoryLocalizer,2021.2.3,59.94556942307401,
177.0,177.8,4,0.75,Stimuli\ImageFiles-Set1\Scenes\Scenes_017.png,0,0,0,285,285,285,,,,,,,,,,,,,177.00497559999985,0.00497559999985242,None,214.2612492999997,214.2612492999997,214.2612492999997,214.2612492999997,214.2612492999997,214.2612492999997,214.2612492999997,214.2612492999997,,001,P007,2025_Feb_01_0950,CategoryLocalizer,2021.2.3,59.94556942307401,
