eventStartTime,eventEndTime,eventCond,imSize,imFile,repeatedImage,responseEvent,Events.thisRepN,Events.thisTrialN,Events.thisN,Events.thisIndex,Instructions.started,Instructions.stopped,participantReadyResponse.keys,participantReadyResponse.rt,participantReadyResponse.started,participantReadyResponse.stopped,startWaitforTrigger,triggerResponse.keys,triggerResponse.rt,triggerResponse.started,triggerResponse.stopped,globalTimer,actualStartTime,startTimingDiff,participantResponse.keys,participantResponse.started,participantResponse.stopped,image.started,image.stopped,fixationOutside.started,fixationOutside.stopped,fixationInside.started,fixationInside.stopped,participantResponse.rt,session,participant,date,expName,psychopyVersion,frameRate,
,,,,,,,,,,,22.853662099998473,None,2,0.7618215999991662,22.853662099998473,None,,,,,,,,,,,,,,,,,,,003,P008,2025_Feb_01_1238,CategoryLocalizer,2021.2.3,59.96062985015669,
,,,,,,,,,,,,,,,,,23.631717899999785,5,16.18897310000102,23.64439609999863,None,,,,,,,,,,,,,,003,P008,2025_Feb_01_1238,CategoryLocalizer,2021.2.3,59.96062985015669,
0.0,12.0,0,0.0,Stimuli\Blank.png,0,0,0,0,0,0,,,,,,,,,,,,39.84614199999851,0.033675599999696715,0.033675599999696715,None,39.90874729999996,None,39.90874729999996,None,39.90874729999996,None,39.90874729999996,None,,003,P008,2025_Feb_01_1238,CategoryLocalizer,2021.2.3,59.96062985015669,
12.0,12.8,1,0.75,Stimuli\ImageFiles-Set1\Objects\Object_Box_00001.png,0,0,0,1,1,1,,,,,,,,,,,,,12.030880700000125,0.030880700000125216,None,51.9026887,51.9026887,51.9026887,51.9026887,51.9026887,51.9026887,51.9026887,51.9026887,,003,P008,2025_Feb_01_1238,CategoryLocalizer,2021.2.3,59.96062985015669,
12.8,13.0,5,0.0,Stimuli\Blank.png,0,0,0,2,2,2,,,,,,,,,,,,,12.826957600000242,0.026957600000240944,None,52.68672129999868,52.68672129999868,52.68672129999868,52.68672129999868,52.68672129999868,52.68672129999868,52.68672129999868,52.68672129999868,,003,P008,2025_Feb_01_1238,CategoryLocalizer,2021.2.3,59.96062985015669,
13.0,13.8,1,0.75,Stimuli\ImageFiles-Set1\Objects\Object_Stroller_00001.png,0,0,0,3,3,3,,,,,,,,,,,,,13.010276099999828,0.010276099999828148,None,52.88690630000019,52.88690630000019,52.88690630000019,52.88690630000019,52.88690630000019,52.88690630000019,52.88690630000019,52.88690630000019,,003,P008,2025_Feb_01_1238,CategoryLocalizer,2021.2.3,59.96062985015669,
13.8,14.0,5,0.0,Stimuli\Blank.png,0,0,0,4,4,4,,,,,,,,,,,,,13.82765499999914,0.027654999999139562,None,53.68759089999912,53.68759089999912,53.68759089999912,53.68759089999912,53.68759089999912,53.68759089999912,53.68759089999912,53.68759089999912,,003,P008,2025_Feb_01_1238,CategoryLocalizer,2021.2.3,59.96062985015669,
14.0,14.8,1,0.75,Stimuli\ImageFiles-Set1\Objects\Object_Bench_00001.png,0,0,0,5,5,5,,,,,,,,,,,,,14.012688200000412,0.012688200000411598,None,53.88781349999954,53.88781349999954,53.88781349999954,53.88781349999954,53.88781349999954,53.88781349999954,53.88781349999954,53.88781349999954,,003,P008,2025_Feb_01_1238,CategoryLocalizer,2021.2.3,59.96062985015669,
14.8,15.0,5,0.0,Stimuli\Blank.png,0,0,0,6,6,6,,,,,,,,,,,,,14.827557000000525,0.027557000000523857,None,54.68847569999889,54.68847569999889,54.68847569999889,54.68847569999889,54.68847569999889,54.68847569999889,54.68847569999889,54.68847569999889,,003,P008,2025_Feb_01_1238,CategoryLocalizer,2021.2.3,59.96062985015669,
15.0,15.8,1,0.75,Stimuli\ImageFiles-Set1\Objects\Object_Shirt_00001.png,0,0,0,7,7,7,,,,,,,,,,,,,15.01134970000021,0.01134970000020985,None,54.87197939999896,54.87197939999896,54.87197939999896,54.87197939999896,54.87197939999896,54.87197939999896,54.87197939999896,54.87197939999896,,003,P008,2025_Feb_01_1238,CategoryLocalizer,2021.2.3,59.96062985015669,
15.8,16.0,5,0.0,Stimuli\Blank.png,0,0,0,8,8,8,,,,,,,,,,,,,15.812665399998878,0.012665399998876836,None,55.6727807999996,55.6727807999996,55.6727807999996,55.6727807999996,55.6727807999996,55.6727807999996,55.6727807999996,55.6727807999996,,003,P008,2025_Feb_01_1238,CategoryLocalizer,2021.2.3,59.96062985015669,
16.0,16.8,1,0.75,Stimuli\ImageFiles-Set1\Objects\Object_Pot_00001.png,0,0,0,9,9,9,,,,,,,,,,,,,16.01209899999958,0.012098999999579974,None,55.87287449999894,55.87287449999894,55.87287449999894,55.87287449999894,55.87287449999894,55.87287449999894,55.87287449999894,55.87287449999894,,003,P008,2025_Feb_01_1238,CategoryLocalizer,2021.2.3,59.96062985015669,
16.8,17.0,5,0.0,Stimuli\Blank.png,0,0,0,10,10,10,,,,,,,,,,,,,16.813034699998752,0.01303469999875162,None,56.67356229999859,56.67356229999859,56.67356229999859,56.67356229999859,56.67356229999859,56.67356229999859,56.67356229999859,56.67356229999859,,003,P008,2025_Feb_01_1238,CategoryLocalizer,2021.2.3,59.96062985015669,
17.0,17.8,1,0.75,Stimuli\ImageFiles-Set1\Objects\Object_Sock_00001.png,0,0,0,11,11,11,,,,,,,,,,,,,17.013600999998744,0.013600999998743646,None,56.89043999999922,56.89043999999922,56.89043999999922,56.89043999999922,56.89043999999922,56.89043999999922,56.89043999999922,56.89043999999922,,003,P008,2025_Feb_01_1238,CategoryLocalizer,2021.2.3,59.96062985015669,
17.8,18.0,5,0.0,Stimuli\Blank.png,0,0,0,12,12,12,,,,,,,,,,,,,17.83092620000025,0.03092620000024837,None,57.69114569999874,57.69114569999874,57.69114569999874,57.69114569999874,57.69114569999874,57.69114569999874,57.69114569999874,57.69114569999874,,003,P008,2025_Feb_01_1238,CategoryLocalizer,2021.2.3,59.96062985015669,
18.0,18.8,1,0.75,Stimuli\ImageFiles-Set1\Objects\Object_Dryer_00001.png,0,0,0,13,13,13,,,,,,,,,,,,,18.014371799999935,0.01437179999993532,None,57.89131989999987,57.89131989999987,57.89131989999987,57.89131989999987,57.89131989999987,57.89131989999987,57.89131989999987,57.89131989999987,,003,P008,2025_Feb_01_1238,CategoryLocalizer,2021.2.3,59.96062985015669,
18.8,19.0,5,0.0,Stimuli\Blank.png,0,0,0,14,14,14,,,,,,,,,,,,,18.83256269999947,0.03256269999947037,None,58.69201789999897,58.69201789999897,58.69201789999897,58.69201789999897,58.69201789999897,58.69201789999897,58.69201789999897,58.69201789999897,,003,P008,2025_Feb_01_1238,CategoryLocalizer,2021.2.3,59.96062985015669,
19.0,19.8,1,0.75,Stimuli\ImageFiles-Set1\Objects\Object_Highchair_00001.png,0,0,0,15,15,15,,,,,,,,,,,,,18.998054800000318,-0.0019451999996817904,None,58.858837899999344,58.858837899999344,58.858837899999344,58.858837899999344,58.858837899999344,58.858837899999344,58.858837899999344,58.858837899999344,,003,P008,2025_Feb_01_1238,CategoryLocalizer,2021.2.3,59.96062985015669,
19.8,20.0,5,0.0,Stimuli\Blank.png,0,0,0,16,16,16,,,,,,,,,,,,,19.81603340000038,0.016033400000377895,None,59.67625479999879,59.67625479999879,59.67625479999879,59.67625479999879,59.67625479999879,59.67625479999879,59.67625479999879,59.67625479999879,,003,P008,2025_Feb_01_1238,CategoryLocalizer,2021.2.3,59.96062985015669,
20.0,20.8,1,0.75,Stimuli\ImageFiles-Set1\Objects\Object_Recliner_00001.png,0,0,0,17,17,17,,,,,,,,,,,,,19.999490199999855,-0.0005098000001453329,None,59.85971889999928,59.85971889999928,59.85971889999928,59.85971889999928,59.85971889999928,59.85971889999928,59.85971889999928,59.85971889999928,,003,P008,2025_Feb_01_1238,CategoryLocalizer,2021.2.3,59.96062985015669,
20.8,21.0,5,0.0,Stimuli\Blank.png,0,0,0,18,18,18,,,,,,,,,,,,,20.80160219999925,0.0016021999992510416,None,60.67710929999885,60.67710929999885,60.67710929999885,60.67710929999885,60.67710929999885,60.67710929999885,60.67710929999885,60.67710929999885,,003,P008,2025_Feb_01_1238,CategoryLocalizer,2021.2.3,59.96062985015669,
21.0,21.8,1,0.75,Stimuli\ImageFiles-Set1\Objects\Object_Wagon_00001.png,0,0,0,19,19,19,,,,,,,,,,,,,21.017050599999493,0.017050599999492988,None,60.87729269999909,60.87729269999909,60.87729269999909,60.87729269999909,60.87729269999909,60.87729269999909,60.87729269999909,60.87729269999909,,003,P008,2025_Feb_01_1238,CategoryLocalizer,2021.2.3,59.96062985015669,
21.8,22.0,5,0.0,Stimuli\Blank.png,0,0,0,20,20,20,,,,,,,,,,,,,21.80042510000021,0.0004251000002106764,None,61.66136929999993,61.66136929999993,61.66136929999993,61.66136929999993,61.66136929999993,61.66136929999993,61.66136929999993,61.66136929999993,,003,P008,2025_Feb_01_1238,CategoryLocalizer,2021.2.3,59.96062985015669,
22.0,22.8,1,0.75,Stimuli\ImageFiles-Set1\Objects\Object_Glasses_00001.png,0,0,0,21,21,21,,,,,,,,,,,,,22.0008042999998,0.0008042999997996958,None,61.861488599999575,61.861488599999575,61.861488599999575,61.861488599999575,61.861488599999575,61.861488599999575,61.861488599999575,61.861488599999575,,003,P008,2025_Feb_01_1238,CategoryLocalizer,2021.2.3,59.96062985015669,
22.8,23.0,5,0.0,Stimuli\Blank.png,0,0,0,22,22,22,,,,,,,,,,,,,22.802329699999973,0.0023296999999722345,None,62.66220189999876,62.66220189999876,62.66220189999876,62.66220189999876,62.66220189999876,62.66220189999876,62.66220189999876,62.66220189999876,,003,P008,2025_Feb_01_1238,CategoryLocalizer,2021.2.3,59.96062985015669,
23.0,23.8,1,0.75,Stimuli\ImageFiles-Set1\Objects\Object_Glasses_00001.png,1,1,0,23,23,23,,,,,,,,,,,,,23.0023616999988,0.002361699998800759,2,62.86237809999875,62.86237809999875,62.86237809999875,62.86237809999875,62.86237809999875,62.86237809999875,62.86237809999875,62.86237809999875,0.48612779999893974,003,P008,2025_Feb_01_1238,CategoryLocalizer,2021.2.3,59.96062985015669,
23.8,24.0,5,0.0,Stimuli\Blank.png,0,0,0,24,24,24,,,,,,,,,,,,,23.80264089999946,0.0026408999994593785,None,63.66308149999895,63.66308149999895,63.66308149999895,63.66308149999895,63.66308149999895,63.66308149999895,63.66308149999895,63.66308149999895,,003,P008,2025_Feb_01_1238,CategoryLocalizer,2021.2.3,59.96062985015669,
24.0,24.8,1,0.75,Stimuli\ImageFiles-Set1\Objects\Object_Apple_00001.png,0,0,0,25,25,25,,,,,,,,,,,,,24.002468799999406,0.0024687999994057463,None,63.86325930000021,63.86325930000021,63.86325930000021,63.86325930000021,63.86325930000021,63.86325930000021,63.86325930000021,63.86325930000021,,003,P008,2025_Feb_01_1238,CategoryLocalizer,2021.2.3,59.96062985015669,
24.8,25.0,5,0.0,Stimuli\Blank.png,0,0,0,26,26,26,,,,,,,,,,,,,24.80382809999901,0.003828099999008572,None,64.66396449999957,64.66396449999957,64.66396449999957,64.66396449999957,64.66396449999957,64.66396449999957,64.66396449999957,64.66396449999957,,003,P008,2025_Feb_01_1238,CategoryLocalizer,2021.2.3,59.96062985015669,
25.0,25.8,1,0.75,Stimuli\ImageFiles-Set1\Objects\Object_Scale_00001.png,0,0,0,27,27,27,,,,,,,,,,,,,25.004057099999045,0.004057099999045022,None,64.86415239999951,64.86415239999951,64.86415239999951,64.86415239999951,64.86415239999951,64.86415239999951,64.86415239999951,64.86415239999951,,003,P008,2025_Feb_01_1238,CategoryLocalizer,2021.2.3,59.96062985015669,
25.8,26.0,5,0.0,Stimuli\Blank.png,0,0,0,28,28,28,,,,,,,,,,,,,25.80414430000019,0.0041443000001883945,None,65.66485149999971,65.66485149999971,65.66485149999971,65.66485149999971,65.66485149999971,65.66485149999971,65.66485149999971,65.66485149999971,,003,P008,2025_Feb_01_1238,CategoryLocalizer,2021.2.3,59.96062985015669,
26.0,26.8,1,0.75,Stimuli\ImageFiles-Set1\Objects\Object_Matches_00001.png,0,0,0,29,29,29,,,,,,,,,,,,,26.006530599999678,0.006530599999678088,None,65.88171659999898,65.88171659999898,65.88171659999898,65.88171659999898,65.88171659999898,65.88171659999898,65.88171659999898,65.88171659999898,,003,P008,2025_Feb_01_1238,CategoryLocalizer,2021.2.3,59.96062985015669,
26.8,27.0,5,0.0,Stimuli\Blank.png,0,0,0,30,30,30,,,,,,,,,,,,,26.822096500000043,0.022096500000042596,None,66.68243839999923,66.68243839999923,66.68243839999923,66.68243839999923,66.68243839999923,66.68243839999923,66.68243839999923,66.68243839999923,,003,P008,2025_Feb_01_1238,CategoryLocalizer,2021.2.3,59.96062985015669,
27.0,27.8,1,0.75,Stimuli\ImageFiles-Set1\Objects\Object_Oven_00001.png,0,0,0,31,31,31,,,,,,,,,,,,,27.00681210000039,0.006812100000388455,None,66.88260040000023,66.88260040000023,66.88260040000023,66.88260040000023,66.88260040000023,66.88260040000023,66.88260040000023,66.88260040000023,,003,P008,2025_Feb_01_1238,CategoryLocalizer,2021.2.3,59.96062985015669,
27.8,28.0,5,0.0,Stimuli\Blank.png,0,0,0,32,32,32,,,,,,,,,,,,,27.82245890000013,0.022458900000128068,None,67.68330529999912,67.68330529999912,67.68330529999912,67.68330529999912,67.68330529999912,67.68330529999912,67.68330529999912,67.68330529999912,,003,P008,2025_Feb_01_1238,CategoryLocalizer,2021.2.3,59.96062985015669,
28.0,28.8,2,0.75,Stimuli\ImageFiles-Set1\Bodies\Bodies_Punching_00001.png,0,0,0,33,33,33,,,,,,,,,,,,,28.007042999999612,0.0070429999996122206,None,67.88350589999936,67.88350589999936,67.88350589999936,67.88350589999936,67.88350589999936,67.88350589999936,67.88350589999936,67.88350589999936,,003,P008,2025_Feb_01_1238,CategoryLocalizer,2021.2.3,59.96062985015669,
28.8,29.0,5,0.0,Stimuli\Blank.png,0,0,0,34,34,34,,,,,,,,,,,,,28.82400830000006,0.024008300000058824,None,68.68420089999927,68.68420089999927,68.68420089999927,68.68420089999927,68.68420089999927,68.68420089999927,68.68420089999927,68.68420089999927,,003,P008,2025_Feb_01_1238,CategoryLocalizer,2021.2.3,59.96062985015669,
29.0,29.8,2,0.75,Stimuli\ImageFiles-Set1\Bodies\Bodies_Kneeling_00005.png,0,0,0,35,35,35,,,,,,,,,,,,,29.007405700000163,0.007405700000163051,None,68.8676918000001,68.8676918000001,68.8676918000001,68.8676918000001,68.8676918000001,68.8676918000001,68.8676918000001,68.8676918000001,,003,P008,2025_Feb_01_1238,CategoryLocalizer,2021.2.3,59.96062985015669,
29.8,30.0,5,0.0,Stimuli\Blank.png,0,0,0,36,36,36,,,,,,,,,,,,,29.80748399999902,0.0074839999990210515,None,69.66839999999866,69.66839999999866,69.66839999999866,69.66839999999866,69.66839999999866,69.66839999999866,69.66839999999866,69.66839999999866,,003,P008,2025_Feb_01_1238,CategoryLocalizer,2021.2.3,59.96062985015669,
30.0,30.8,2,0.75,Stimuli\ImageFiles-Set1\Bodies\Bodies_PushUp_00002.png,0,0,0,37,37,37,,,,,,,,,,,,,30.00767900000028,0.007679000000280212,None,69.86857009999949,69.86857009999949,69.86857009999949,69.86857009999949,69.86857009999949,69.86857009999949,69.86857009999949,69.86857009999949,,003,P008,2025_Feb_01_1238,CategoryLocalizer,2021.2.3,59.96062985015669,
30.8,31.0,5,0.0,Stimuli\Blank.png,0,0,0,38,38,38,,,,,,,,,,,,,30.808543699999063,0.008543699999062682,None,70.66929600000003,70.66929600000003,70.66929600000003,70.66929600000003,70.66929600000003,70.66929600000003,70.66929600000003,70.66929600000003,,003,P008,2025_Feb_01_1238,CategoryLocalizer,2021.2.3,59.96062985015669,
31.0,31.8,2,0.75,Stimuli\ImageFiles-Set1\Bodies\Bodies_Falling_00002.png,0,0,0,39,39,39,,,,,,,,,,,,,31.008540699998775,0.00854069999877538,None,70.86945489999925,70.86945489999925,70.86945489999925,70.86945489999925,70.86945489999925,70.86945489999925,70.86945489999925,70.86945489999925,,003,P008,2025_Feb_01_1238,CategoryLocalizer,2021.2.3,59.96062985015669,
31.8,32.0,5,0.0,Stimuli\Blank.png,0,0,0,40,40,40,,,,,,,,,,,,,31.811585499999637,0.01158549999963654,None,71.68686389999857,71.68686389999857,71.68686389999857,71.68686389999857,71.68686389999857,71.68686389999857,71.68686389999857,71.68686389999857,,003,P008,2025_Feb_01_1238,CategoryLocalizer,2021.2.3,59.96062985015669,
32.0,32.8,2,0.75,Stimuli\ImageFiles-Set1\Bodies\Bodies_DownwardDog_00007.png,0,0,0,41,41,41,,,,,,,,,,,,,32.02673219999997,0.026732199999969453,None,71.88702139999987,71.88702139999987,71.88702139999987,71.88702139999987,71.88702139999987,71.88702139999987,71.88702139999987,71.88702139999987,,003,P008,2025_Feb_01_1238,CategoryLocalizer,2021.2.3,59.96062985015669,
32.8,33.0,5,0.0,Stimuli\Blank.png,0,0,0,42,42,42,,,,,,,,,,,,,32.81291280000005,0.012912800000052016,None,72.68778959999872,72.68778959999872,72.68778959999872,72.68778959999872,72.68778959999872,72.68778959999872,72.68778959999872,72.68778959999872,,003,P008,2025_Feb_01_1238,CategoryLocalizer,2021.2.3,59.96062985015669,
33.0,33.8,2,0.75,Stimuli\ImageFiles-Set1\Bodies\Bodies_Running_00006.png,0,0,0,43,43,43,,,,,,,,,,,,,33.02771120000034,0.027711200000339886,None,72.90460910000002,72.90460910000002,72.90460910000002,72.90460910000002,72.90460910000002,72.90460910000002,72.90460910000002,72.90460910000002,,003,P008,2025_Feb_01_1238,CategoryLocalizer,2021.2.3,59.96062985015669,
33.8,34.0,5,0.0,Stimuli\Blank.png,0,0,0,44,44,44,,,,,,,,,,,,,33.82800069999939,0.028000699999395806,None,73.68873679999888,73.68873679999888,73.68873679999888,73.68873679999888,73.68873679999888,73.68873679999888,73.68873679999888,73.68873679999888,,003,P008,2025_Feb_01_1238,CategoryLocalizer,2021.2.3,59.96062985015669,
34.0,34.8,2,0.75,Stimuli\ImageFiles-Set1\Bodies\Bodies_QuadStretch_00003.png,0,0,0,45,45,45,,,,,,,,,,,,,34.011262899999565,0.01126289999956498,None,73.8721620999986,73.8721620999986,73.8721620999986,73.8721620999986,73.8721620999986,73.8721620999986,73.8721620999986,73.8721620999986,,003,P008,2025_Feb_01_1238,CategoryLocalizer,2021.2.3,59.96062985015669,
34.8,35.0,5,0.0,Stimuli\Blank.png,0,0,0,46,46,46,,,,,,,,,,,,,34.81237220000003,0.01237220000002992,None,74.67282759999944,74.67282759999944,74.67282759999944,74.67282759999944,74.67282759999944,74.67282759999944,74.67282759999944,74.67282759999944,,003,P008,2025_Feb_01_1238,CategoryLocalizer,2021.2.3,59.96062985015669,
35.0,35.8,2,0.75,Stimuli\ImageFiles-Set1\Bodies\Bodies_Pushing_00001.png,0,0,0,47,47,47,,,,,,,,,,,,,35.01337609999973,0.013376099999732105,None,74.87306129999888,74.87306129999888,74.87306129999888,74.87306129999888,74.87306129999888,74.87306129999888,74.87306129999888,74.87306129999888,,003,P008,2025_Feb_01_1238,CategoryLocalizer,2021.2.3,59.96062985015669,
35.8,36.0,5,0.0,Stimuli\Blank.png,0,0,0,48,48,48,,,,,,,,,,,,,35.81312069999876,0.013120699998765417,None,75.67370519999895,75.67370519999895,75.67370519999895,75.67370519999895,75.67370519999895,75.67370519999895,75.67370519999895,75.67370519999895,,003,P008,2025_Feb_01_1238,CategoryLocalizer,2021.2.3,59.96062985015669,
36.0,36.8,2,0.75,Stimuli\ImageFiles-Set1\Bodies\Bodies_CobraPose_00001.png,0,0,0,49,49,49,,,,,,,,,,,,,36.013614499999676,0.0136144999996759,None,75.87388439999995,75.87388439999995,75.87388439999995,75.87388439999995,75.87388439999995,75.87388439999995,75.87388439999995,75.87388439999995,,003,P008,2025_Feb_01_1238,CategoryLocalizer,2021.2.3,59.96062985015669,
36.8,37.0,5,0.0,Stimuli\Blank.png,0,0,0,50,50,50,,,,,,,,,,,,,36.81517659999918,0.01517659999917953,None,76.67461170000024,76.67461170000024,76.67461170000024,76.67461170000024,76.67461170000024,76.67461170000024,76.67461170000024,76.67461170000024,,003,P008,2025_Feb_01_1238,CategoryLocalizer,2021.2.3,59.96062985015669,
37.0,37.8,2,0.75,Stimuli\ImageFiles-Set1\Bodies\Bodies_DownwardDog_00006.png,0,0,0,51,51,51,,,,,,,,,,,,,37.013858999998774,0.01385899999877438,None,76.87476889999925,76.87476889999925,76.87476889999925,76.87476889999925,76.87476889999925,76.87476889999925,76.87476889999925,76.87476889999925,,003,P008,2025_Feb_01_1238,CategoryLocalizer,2021.2.3,59.96062985015669,
37.8,38.0,5,0.0,Stimuli\Blank.png,0,0,0,52,52,52,,,,,,,,,,,,,37.81670800000029,0.0167080000002926,None,77.6921700999992,77.6921700999992,77.6921700999992,77.6921700999992,77.6921700999992,77.6921700999992,77.6921700999992,77.6921700999992,,003,P008,2025_Feb_01_1238,CategoryLocalizer,2021.2.3,59.96062985015669,
38.0,38.8,2,0.75,Stimuli\ImageFiles-Set1\Bodies\Bodies_Walking_00002.png,0,0,0,53,53,53,,,,,,,,,,,,,38.01546860000053,0.015468600000531296,None,77.87565919999906,77.87565919999906,77.87565919999906,77.87565919999906,77.87565919999906,77.87565919999906,77.87565919999906,77.87565919999906,,003,P008,2025_Feb_01_1238,CategoryLocalizer,2021.2.3,59.96062985015669,
38.8,39.0,5,0.0,Stimuli\Blank.png,0,0,0,54,54,54,,,,,,,,,,,,,38.80160219999925,0.0016021999992545943,None,78.67633999999998,78.67633999999998,78.67633999999998,78.67633999999998,78.67633999999998,78.67633999999998,78.67633999999998,78.67633999999998,,003,P008,2025_Feb_01_1238,CategoryLocalizer,2021.2.3,59.96062985015669,
39.0,39.8,2,0.75,Stimuli\ImageFiles-Set1\Bodies\Bodies_Pushing_00005.png,0,0,0,55,55,55,,,,,,,,,,,,,39.017419300000256,0.017419300000256044,None,78.8765399999993,78.8765399999993,78.8765399999993,78.8765399999993,78.8765399999993,78.8765399999993,78.8765399999993,78.8765399999993,,003,P008,2025_Feb_01_1238,CategoryLocalizer,2021.2.3,59.96062985015669,
39.8,40.0,5,0.0,Stimuli\Blank.png,0,0,0,56,56,56,,,,,,,,,,,,,39.80098539999926,0.0009853999992657236,None,79.66056810000009,79.66056810000009,79.66056810000009,79.66056810000009,79.66056810000009,79.66056810000009,79.66056810000009,79.66056810000009,,003,P008,2025_Feb_01_1238,CategoryLocalizer,2021.2.3,59.96062985015669,
40.0,40.8,2,0.75,Stimuli\ImageFiles-Set1\Bodies\Bodies_Pushing_00005.png,1,1,0,57,57,57,,,,,,,,,,,,,40.00042719999874,0.00042719999873952474,2,79.86075429999983,79.86075429999983,79.86075429999983,79.86075429999983,79.86075429999983,79.86075429999983,79.86075429999983,79.86075429999983,0.42201789999853645,003,P008,2025_Feb_01_1238,CategoryLocalizer,2021.2.3,59.96062985015669,
40.8,41.0,5,0.0,Stimuli\Blank.png,0,0,0,58,58,58,,,,,,,,,,,,,40.801499299999705,0.0014992999997076595,None,80.66147300000011,80.66147300000011,80.66147300000011,80.66147300000011,80.66147300000011,80.66147300000011,80.66147300000011,80.66147300000011,,003,P008,2025_Feb_01_1238,CategoryLocalizer,2021.2.3,59.96062985015669,
41.0,41.8,2,0.75,Stimuli\ImageFiles-Set1\Bodies\Bodies_CobraPose_00005.png,0,0,0,59,59,59,,,,,,,,,,,,,41.0018500999995,0.0018500999995012535,None,80.86163239999951,80.86163239999951,80.86163239999951,80.86163239999951,80.86163239999951,80.86163239999951,80.86163239999951,80.86163239999951,,003,P008,2025_Feb_01_1238,CategoryLocalizer,2021.2.3,59.96062985015669,
41.8,42.0,5,0.0,Stimuli\Blank.png,0,0,0,60,60,60,,,,,,,,,,,,,41.80233179999959,0.0023317999995953187,None,81.66235059999963,81.66235059999963,81.66235059999963,81.66235059999963,81.66235059999963,81.66235059999963,81.66235059999963,81.66235059999963,,003,P008,2025_Feb_01_1238,CategoryLocalizer,2021.2.3,59.96062985015669,
42.0,42.8,2,0.75,Stimuli\ImageFiles-Set1\Bodies\Bodies_SittingStretch_00002.png,0,0,0,61,61,61,,,,,,,,,,,,,42.00226269999985,0.002262699999846518,None,81.86251789999915,81.86251789999915,81.86251789999915,81.86251789999915,81.86251789999915,81.86251789999915,81.86251789999915,81.86251789999915,,003,P008,2025_Feb_01_1238,CategoryLocalizer,2021.2.3,59.96062985015669,
42.8,43.0,5,0.0,Stimuli\Blank.png,0,0,0,62,62,62,,,,,,,,,,,,,42.80275339999935,0.0027533999993494263,None,82.66322020000007,82.66322020000007,82.66322020000007,82.66322020000007,82.66322020000007,82.66322020000007,82.66322020000007,82.66322020000007,,003,P008,2025_Feb_01_1238,CategoryLocalizer,2021.2.3,59.96062985015669,
43.0,43.8,2,0.75,Stimuli\ImageFiles-Set1\Bodies\Bodies_DownwardDog_00001.png,0,0,0,63,63,63,,,,,,,,,,,,,43.0028755000003,0.002875500000300235,None,82.86340459999883,82.86340459999883,82.86340459999883,82.86340459999883,82.86340459999883,82.86340459999883,82.86340459999883,82.86340459999883,,003,P008,2025_Feb_01_1238,CategoryLocalizer,2021.2.3,59.96062985015669,
43.8,44.0,5,0.0,Stimuli\Blank.png,0,0,0,64,64,64,,,,,,,,,,,,,43.803239400000166,0.0032394000001687573,None,83.66410240000005,83.66410240000005,83.66410240000005,83.66410240000005,83.66410240000005,83.66410240000005,83.66410240000005,83.66410240000005,,003,P008,2025_Feb_01_1238,CategoryLocalizer,2021.2.3,59.96062985015669,
44.0,44.8,3,0.75,Stimuli\ImageFiles-Set1\Faces\Face_00113.png,0,0,0,65,65,65,,,,,,,,,,,,,44.00363019999895,0.0036301999989518663,None,83.8642861999997,83.8642861999997,83.8642861999997,83.8642861999997,83.8642861999997,83.8642861999997,83.8642861999997,83.8642861999997,,003,P008,2025_Feb_01_1238,CategoryLocalizer,2021.2.3,59.96062985015669,
44.8,45.0,5,0.0,Stimuli\Blank.png,0,0,0,66,66,66,,,,,,,,,,,,,44.804897699999856,0.0048976999998586734,None,84.66499250000015,84.66499250000015,84.66499250000015,84.66499250000015,84.66499250000015,84.66499250000015,84.66499250000015,84.66499250000015,,003,P008,2025_Feb_01_1238,CategoryLocalizer,2021.2.3,59.96062985015669,
45.0,45.8,3,0.75,Stimuli\ImageFiles-Set1\Faces\Face_00020.png,0,0,0,67,67,67,,,,,,,,,,,,,45.006491000000096,0.006491000000096392,None,84.88186379999934,84.88186379999934,84.88186379999934,84.88186379999934,84.88186379999934,84.88186379999934,84.88186379999934,84.88186379999934,,003,P008,2025_Feb_01_1238,CategoryLocalizer,2021.2.3,59.96062985015669,
45.8,46.0,5,0.0,Stimuli\Blank.png,0,0,0,68,68,68,,,,,,,,,,,,,45.822279300000446,0.022279300000448643,None,85.68255559999852,85.68255559999852,85.68255559999852,85.68255559999852,85.68255559999852,85.68255559999852,85.68255559999852,85.68255559999852,,003,P008,2025_Feb_01_1238,CategoryLocalizer,2021.2.3,59.96062985015669,
46.0,46.8,3,0.75,Stimuli\ImageFiles-Set1\Faces\Face_00063.png,0,0,0,69,69,69,,,,,,,,,,,,,46.00594199999978,0.005941999999777181,None,85.88275419999991,85.88275419999991,85.88275419999991,85.88275419999991,85.88275419999991,85.88275419999991,85.88275419999991,85.88275419999991,,003,P008,2025_Feb_01_1238,CategoryLocalizer,2021.2.3,59.96062985015669,
46.8,47.0,5,0.0,Stimuli\Blank.png,0,0,0,70,70,70,,,,,,,,,,,,,46.82270210000024,0.022702100000245196,None,86.68344979999893,86.68344979999893,86.68344979999893,86.68344979999893,86.68344979999893,86.68344979999893,86.68344979999893,86.68344979999893,,003,P008,2025_Feb_01_1238,CategoryLocalizer,2021.2.3,59.96062985015669,
47.0,47.8,3,0.75,Stimuli\ImageFiles-Set1\Faces\Face_00097.png,0,0,0,71,71,71,,,,,,,,,,,,,47.00628490000054,0.006284900000537164,None,86.86694220000027,86.86694220000027,86.86694220000027,86.86694220000027,86.86694220000027,86.86694220000027,86.86694220000027,86.86694220000027,,003,P008,2025_Feb_01_1238,CategoryLocalizer,2021.2.3,59.96062985015669,
47.8,48.0,5,0.0,Stimuli\Blank.png,0,0,0,72,72,72,,,,,,,,,,,,,47.80744389999927,0.00744389999927364,None,87.66765320000013,87.66765320000013,87.66765320000013,87.66765320000013,87.66765320000013,87.66765320000013,87.66765320000013,87.66765320000013,,003,P008,2025_Feb_01_1238,CategoryLocalizer,2021.2.3,59.96062985015669,
48.0,48.8,3,0.75,Stimuli\ImageFiles-Set1\Faces\Face_00099.png,0,0,0,73,73,73,,,,,,,,,,,,,48.00752160000047,0.007521600000472972,None,87.88454929999898,87.88454929999898,87.88454929999898,87.88454929999898,87.88454929999898,87.88454929999898,87.88454929999898,87.88454929999898,,003,P008,2025_Feb_01_1238,CategoryLocalizer,2021.2.3,59.96062985015669,
48.8,49.0,5,0.0,Stimuli\Blank.png,0,0,0,74,74,74,,,,,,,,,,,,,48.82505759999913,0.02505759999912982,None,88.68522739999935,88.68522739999935,88.68522739999935,88.68522739999935,88.68522739999935,88.68522739999935,88.68522739999935,88.68522739999935,,003,P008,2025_Feb_01_1238,CategoryLocalizer,2021.2.3,59.96062985015669,
49.0,49.8,3,0.75,Stimuli\ImageFiles-Set1\Faces\Face_00012.png,0,0,0,75,75,75,,,,,,,,,,,,,49.00797059999968,0.007970599999680417,None,88.88542659999985,88.88542659999985,88.88542659999985,88.88542659999985,88.88542659999985,88.88542659999985,88.88542659999985,88.88542659999985,,003,P008,2025_Feb_01_1238,CategoryLocalizer,2021.2.3,59.96062985015669,
49.8,50.0,5,0.0,Stimuli\Blank.png,0,0,0,76,76,76,,,,,,,,,,,,,49.82525659999919,0.025256599999195828,None,89.68610479999916,89.68610479999916,89.68610479999916,89.68610479999916,89.68610479999916,89.68610479999916,89.68610479999916,89.68610479999916,,003,P008,2025_Feb_01_1238,CategoryLocalizer,2021.2.3,59.96062985015669,
50.0,50.8,3,0.75,Stimuli\ImageFiles-Set1\Faces\Face_00085.png,0,0,0,77,77,77,,,,,,,,,,,,,50.00924440000017,0.009244400000170572,None,89.86960199999885,89.86960199999885,89.86960199999885,89.86960199999885,89.86960199999885,89.86960199999885,89.86960199999885,89.86960199999885,,003,P008,2025_Feb_01_1238,CategoryLocalizer,2021.2.3,59.96062985015669,
50.8,51.0,5,0.0,Stimuli\Blank.png,0,0,0,78,78,78,,,,,,,,,,,,,50.81188680000014,0.011886800000141307,None,90.68698760000007,90.68698760000007,90.68698760000007,90.68698760000007,90.68698760000007,90.68698760000007,90.68698760000007,90.68698760000007,,003,P008,2025_Feb_01_1238,CategoryLocalizer,2021.2.3,59.96062985015669,
51.0,51.8,3,0.75,Stimuli\ImageFiles-Set1\Faces\Face_00085.png,1,1,0,79,79,79,,,,,,,,,,,,,51.02736249999907,0.027362499999071588,2,90.90390219999972,90.90390219999972,90.90390219999972,90.90390219999972,90.90390219999972,90.90390219999972,90.90390219999972,90.90390219999972,0.49256470000000263,003,P008,2025_Feb_01_1238,CategoryLocalizer,2021.2.3,59.96062985015669,
51.8,52.0,5,0.0,Stimuli\Blank.png,0,0,0,80,80,80,,,,,,,,,,,,,51.82784419999916,0.027844199999165653,None,91.687981699999,91.687981699999,91.687981699999,91.687981699999,91.687981699999,91.687981699999,91.687981699999,91.687981699999,,003,P008,2025_Feb_01_1238,CategoryLocalizer,2021.2.3,59.96062985015669,
52.0,52.8,3,0.75,Stimuli\ImageFiles-Set1\Faces\Face_00045.png,0,0,0,81,81,81,,,,,,,,,,,,,52.01128570000037,0.011285700000371435,None,91.8715403999995,91.8715403999995,91.8715403999995,91.8715403999995,91.8715403999995,91.8715403999995,91.8715403999995,91.8715403999995,,003,P008,2025_Feb_01_1238,CategoryLocalizer,2021.2.3,59.96062985015669,
52.8,53.0,5,0.0,Stimuli\Blank.png,0,0,0,82,82,82,,,,,,,,,,,,,52.811936300000525,0.011936300000527922,None,92.67207359999884,92.67207359999884,92.67207359999884,92.67207359999884,92.67207359999884,92.67207359999884,92.67207359999884,92.67207359999884,,003,P008,2025_Feb_01_1238,CategoryLocalizer,2021.2.3,59.96062985015669,
53.0,53.8,3,0.75,Stimuli\ImageFiles-Set1\Faces\Face_00075.png,0,0,0,83,83,83,,,,,,,,,,,,,53.01216910000039,0.012169100000392064,None,92.87225810000018,92.87225810000018,92.87225810000018,92.87225810000018,92.87225810000018,92.87225810000018,92.87225810000018,92.87225810000018,,003,P008,2025_Feb_01_1238,CategoryLocalizer,2021.2.3,59.96062985015669,
53.8,54.0,5,0.0,Stimuli\Blank.png,0,0,0,84,84,84,,,,,,,,,,,,,53.812077299999146,0.01207729999914875,None,93.67295729999933,93.67295729999933,93.67295729999933,93.67295729999933,93.67295729999933,93.67295729999933,93.67295729999933,93.67295729999933,,003,P008,2025_Feb_01_1238,CategoryLocalizer,2021.2.3,59.96062985015669,
54.0,54.8,3,0.75,Stimuli\ImageFiles-Set1\Faces\Face_00007.png,0,0,0,85,85,85,,,,,,,,,,,,,54.012391500000376,0.012391500000376254,None,93.88984399999936,93.88984399999936,93.88984399999936,93.88984399999936,93.88984399999936,93.88984399999936,93.88984399999936,93.88984399999936,,003,P008,2025_Feb_01_1238,CategoryLocalizer,2021.2.3,59.96062985015669,
54.8,55.0,5,0.0,Stimuli\Blank.png,0,0,0,86,86,86,,,,,,,,,,,,,54.831411999999546,0.03141199999954836,None,94.70723969999926,94.70723969999926,94.70723969999926,94.70723969999926,94.70723969999926,94.70723969999926,94.70723969999926,94.70723969999926,,003,P008,2025_Feb_01_1238,CategoryLocalizer,2021.2.3,59.96062985015669,
55.0,55.8,3,0.75,Stimuli\ImageFiles-Set1\Faces\Face_00115.png,0,0,0,87,87,87,,,,,,,,,,,,,55.03107859999909,0.03107859999909124,None,94.9073927999998,94.9073927999998,94.9073927999998,94.9073927999998,94.9073927999998,94.9073927999998,94.9073927999998,94.9073927999998,,003,P008,2025_Feb_01_1238,CategoryLocalizer,2021.2.3,59.96062985015669,
55.8,56.0,5,0.0,Stimuli\Blank.png,0,0,0,88,88,88,,,,,,,,,,,,,55.83236339999894,0.032363399998942555,None,95.70811150000009,95.70811150000009,95.70811150000009,95.70811150000009,95.70811150000009,95.70811150000009,95.70811150000009,95.70811150000009,,003,P008,2025_Feb_01_1238,CategoryLocalizer,2021.2.3,59.96062985015669,
56.0,56.8,3,0.75,Stimuli\ImageFiles-Set1\Faces\Face_00079.png,0,0,0,89,89,89,,,,,,,,,,,,,56.01444989999982,0.014449899999817717,None,95.87490489999982,95.87490489999982,95.87490489999982,95.87490489999982,95.87490489999982,95.87490489999982,95.87490489999982,95.87490489999982,,003,P008,2025_Feb_01_1238,CategoryLocalizer,2021.2.3,59.96062985015669,
56.8,57.0,5,0.0,Stimuli\Blank.png,0,0,0,90,90,90,,,,,,,,,,,,,56.816638899999816,0.016638899999819046,None,96.69233339999846,96.69233339999846,96.69233339999846,96.69233339999846,96.69233339999846,96.69233339999846,96.69233339999846,96.69233339999846,,003,P008,2025_Feb_01_1238,CategoryLocalizer,2021.2.3,59.96062985015669,
57.0,57.8,3,0.75,Stimuli\ImageFiles-Set1\Faces\Face_00003.png,0,0,0,91,91,91,,,,,,,,,,,,,57.01687309999943,0.01687309999942954,None,96.89247739999882,96.89247739999882,96.89247739999882,96.89247739999882,96.89247739999882,96.89247739999882,96.89247739999882,96.89247739999882,,003,P008,2025_Feb_01_1238,CategoryLocalizer,2021.2.3,59.96062985015669,
57.8,58.0,5,0.0,Stimuli\Blank.png,0,0,0,92,92,92,,,,,,,,,,,,,57.81636789999902,0.016367899999025326,None,97.67650379999941,97.67650379999941,97.67650379999941,97.67650379999941,97.67650379999941,97.67650379999941,97.67650379999941,97.67650379999941,,003,P008,2025_Feb_01_1238,CategoryLocalizer,2021.2.3,59.96062985015669,
58.0,58.8,3,0.75,Stimuli\ImageFiles-Set1\Faces\Face_00014.png,0,0,0,93,93,93,,,,,,,,,,,,,57.99953569999889,-0.00046430000111286063,None,97.86000109999986,97.86000109999986,97.86000109999986,97.86000109999986,97.86000109999986,97.86000109999986,97.86000109999986,97.86000109999986,,003,P008,2025_Feb_01_1238,CategoryLocalizer,2021.2.3,59.96062985015669,
58.8,59.0,5,0.0,Stimuli\Blank.png,0,0,0,94,94,94,,,,,,,,,,,,,58.80053969999972,0.0005396999997202556,None,98.66079019999961,98.66079019999961,98.66079019999961,98.66079019999961,98.66079019999961,98.66079019999961,98.66079019999961,98.66079019999961,,003,P008,2025_Feb_01_1238,CategoryLocalizer,2021.2.3,59.96062985015669,
59.0,59.8,3,0.75,Stimuli\ImageFiles-Set1\Faces\Face_00109.png,0,0,0,95,95,95,,,,,,,,,,,,,59.002792999999656,0.0027929999996558763,None,98.87761119999959,98.87761119999959,98.87761119999959,98.87761119999959,98.87761119999959,98.87761119999959,98.87761119999959,98.87761119999959,,003,P008,2025_Feb_01_1238,CategoryLocalizer,2021.2.3,59.96062985015669,
59.8,60.0,5,0.0,Stimuli\Blank.png,0,0,0,96,96,96,,,,,,,,,,,,,59.81820560000051,0.0182056000005133,None,99.6782723999986,99.6782723999986,99.6782723999986,99.6782723999986,99.6782723999986,99.6782723999986,99.6782723999986,99.6782723999986,,003,P008,2025_Feb_01_1238,CategoryLocalizer,2021.2.3,59.96062985015669,
60.0,60.8,4,0.75,Stimuli\ImageFiles-Set1\Scenes\Scenes_031.png,0,0,0,97,97,97,,,,,,,,,,,,,60.001515899999504,0.0015158999995037448,None,99.87853290000021,99.87853290000021,99.87853290000021,99.87853290000021,99.87853290000021,99.87853290000021,99.87853290000021,99.87853290000021,,003,P008,2025_Feb_01_1238,CategoryLocalizer,2021.2.3,59.96062985015669,
60.8,61.0,5,0.0,Stimuli\Blank.png,0,0,0,98,98,98,,,,,,,,,,,,,60.819096100000024,0.01909610000002715,None,100.67915769999854,100.67915769999854,100.67915769999854,100.67915769999854,100.67915769999854,100.67915769999854,100.67915769999854,100.67915769999854,,003,P008,2025_Feb_01_1238,CategoryLocalizer,2021.2.3,59.96062985015669,
61.0,61.8,4,0.75,Stimuli\ImageFiles-Set1\Scenes\Scenes_028.png,0,0,0,99,99,99,,,,,,,,,,,,,61.00244449999991,0.0024444999999104766,None,100.87933599999997,100.87933599999997,100.87933599999997,100.87933599999997,100.87933599999997,100.87933599999997,100.87933599999997,100.87933599999997,,003,P008,2025_Feb_01_1238,CategoryLocalizer,2021.2.3,59.96062985015669,
61.8,62.0,5,0.0,Stimuli\Blank.png,0,0,0,100,100,100,,,,,,,,,,,,,61.81941240000015,0.019412400000149432,None,101.68004119999932,101.68004119999932,101.68004119999932,101.68004119999932,101.68004119999932,101.68004119999932,101.68004119999932,101.68004119999932,,003,P008,2025_Feb_01_1238,CategoryLocalizer,2021.2.3,59.96062985015669,
62.0,62.8,4,0.75,Stimuli\ImageFiles-Set1\Scenes\Scenes_018.png,0,0,0,101,101,101,,,,,,,,,,,,,62.00319169999966,0.0031916999996610684,None,101.86353979999876,101.86353979999876,101.86353979999876,101.86353979999876,101.86353979999876,101.86353979999876,101.86353979999876,101.86353979999876,,003,P008,2025_Feb_01_1238,CategoryLocalizer,2021.2.3,59.96062985015669,
62.8,63.0,5,0.0,Stimuli\Blank.png,0,0,0,102,102,102,,,,,,,,,,,,,62.803910200000246,0.003910200000248665,None,102.66425049999998,102.66425049999998,102.66425049999998,102.66425049999998,102.66425049999998,102.66425049999998,102.66425049999998,102.66425049999998,,003,P008,2025_Feb_01_1238,CategoryLocalizer,2021.2.3,59.96062985015669,
63.0,63.8,4,0.75,Stimuli\ImageFiles-Set1\Scenes\Scenes_018.png,1,1,0,103,103,103,,,,,,,,,,,,,63.00367539999934,0.0036753999993379693,2,102.86442339999849,102.86442339999849,102.86442339999849,102.86442339999849,102.86442339999849,102.86442339999849,102.86442339999849,102.86442339999849,0.452180700000099,003,P008,2025_Feb_01_1238,CategoryLocalizer,2021.2.3,59.96062985015669,
63.8,64.0,5,0.0,Stimuli\Blank.png,0,0,0,104,104,104,,,,,,,,,,,,,63.804262699999526,0.004262699999529218,None,103.66513870000017,103.66513870000017,103.66513870000017,103.66513870000017,103.66513870000017,103.66513870000017,103.66513870000017,103.66513870000017,,003,P008,2025_Feb_01_1238,CategoryLocalizer,2021.2.3,59.96062985015669,
64.0,64.8,4,0.75,Stimuli\ImageFiles-Set1\Scenes\Scenes_030.png,0,0,0,105,105,105,,,,,,,,,,,,,64.00507490000018,0.005074900000181515,None,103.88202309999906,103.88202309999906,103.88202309999906,103.88202309999906,103.88202309999906,103.88202309999906,103.88202309999906,103.88202309999906,,003,P008,2025_Feb_01_1238,CategoryLocalizer,2021.2.3,59.96062985015669,
64.8,65.0,5,0.0,Stimuli\Blank.png,0,0,0,106,106,106,,,,,,,,,,,,,64.82259410000006,0.022594100000063122,None,104.68270289999964,104.68270289999964,104.68270289999964,104.68270289999964,104.68270289999964,104.68270289999964,104.68270289999964,104.68270289999964,,003,P008,2025_Feb_01_1238,CategoryLocalizer,2021.2.3,59.96062985015669,
65.0,65.8,4,0.75,Stimuli\ImageFiles-Set1\Scenes\Scenes_011.png,0,0,0,107,107,107,,,,,,,,,,,,,65.00582430000031,0.005824300000313087,None,104.8662174000001,104.8662174000001,104.8662174000001,104.8662174000001,104.8662174000001,104.8662174000001,104.8662174000001,104.8662174000001,,003,P008,2025_Feb_01_1238,CategoryLocalizer,2021.2.3,59.96062985015669,
65.8,66.0,5,0.0,Stimuli\Blank.png,0,0,0,108,108,108,,,,,,,,,,,,,65.80623550000018,0.006235500000187244,None,105.66691960000026,105.66691960000026,105.66691960000026,105.66691960000026,105.66691960000026,105.66691960000026,105.66691960000026,105.66691960000026,,003,P008,2025_Feb_01_1238,CategoryLocalizer,2021.2.3,59.96062985015669,
66.0,66.8,4,0.75,Stimuli\ImageFiles-Set1\Scenes\Scenes_007.png,0,0,0,109,109,109,,,,,,,,,,,,,66.00721689999955,0.007216899999548332,None,105.86704989999998,105.86704989999998,105.86704989999998,105.86704989999998,105.86704989999998,105.86704989999998,105.86704989999998,105.86704989999998,,003,P008,2025_Feb_01_1238,CategoryLocalizer,2021.2.3,59.96062985015669,
66.8,67.0,5,0.0,Stimuli\Blank.png,0,0,0,110,110,110,,,,,,,,,,,,,66.80740069999956,0.007400699999564608,None,106.66779099999985,106.66779099999985,106.66779099999985,106.66779099999985,106.66779099999985,106.66779099999985,106.66779099999985,106.66779099999985,,003,P008,2025_Feb_01_1238,CategoryLocalizer,2021.2.3,59.96062985015669,
67.0,67.8,4,0.75,Stimuli\ImageFiles-Set1\Scenes\Scenes_046.png,0,0,0,111,111,111,,,,,,,,,,,,,67.00719219999883,0.007192199998826254,None,106.86796270000013,106.86796270000013,106.86796270000013,106.86796270000013,106.86796270000013,106.86796270000013,106.86796270000013,106.86796270000013,,003,P008,2025_Feb_01_1238,CategoryLocalizer,2021.2.3,59.96062985015669,
67.8,68.0,5,0.0,Stimuli\Blank.png,0,0,0,112,112,112,,,,,,,,,,,,,67.80846999999994,0.008469999999945799,None,107.668756699999,107.668756699999,107.668756699999,107.668756699999,107.668756699999,107.668756699999,107.668756699999,107.668756699999,,003,P008,2025_Feb_01_1238,CategoryLocalizer,2021.2.3,59.96062985015669,
68.0,68.8,4,0.75,Stimuli\ImageFiles-Set1\Scenes\Scenes_058.png,0,0,0,113,113,113,,,,,,,,,,,,,68.0083408999999,0.008340899999893736,None,107.86886149999918,107.86886149999918,107.86886149999918,107.86886149999918,107.86886149999918,107.86886149999918,107.86886149999918,107.86886149999918,,003,P008,2025_Feb_01_1238,CategoryLocalizer,2021.2.3,59.96062985015669,
68.8,69.0,5,0.0,Stimuli\Blank.png,0,0,0,114,114,114,,,,,,,,,,,,,68.80892490000042,0.008924900000423008,None,108.66957989999901,108.66957989999901,108.66957989999901,108.66957989999901,108.66957989999901,108.66957989999901,108.66957989999901,108.66957989999901,,003,P008,2025_Feb_01_1238,CategoryLocalizer,2021.2.3,59.96062985015669,
69.0,69.8,4,0.75,Stimuli\ImageFiles-Set1\Scenes\Scenes_032.png,0,0,0,115,115,115,,,,,,,,,,,,,69.00914039999952,0.009140399999523652,None,108.86971589999848,108.86971589999848,108.86971589999848,108.86971589999848,108.86971589999848,108.86971589999848,108.86971589999848,108.86971589999848,,003,P008,2025_Feb_01_1238,CategoryLocalizer,2021.2.3,59.96062985015669,
69.8,70.0,5,0.0,Stimuli\Blank.png,0,0,0,116,116,116,,,,,,,,,,,,,69.81150720000005,0.011507200000053786,None,109.68715489999886,109.68715489999886,109.68715489999886,109.68715489999886,109.68715489999886,109.68715489999886,109.68715489999886,109.68715489999886,,003,P008,2025_Feb_01_1238,CategoryLocalizer,2021.2.3,59.96062985015669,
70.0,70.8,4,0.75,Stimuli\ImageFiles-Set1\Scenes\Scenes_010.png,0,0,0,117,117,117,,,,,,,,,,,,,70.0266259,0.026625899999999092,None,109.90449049999916,109.90449049999916,109.90449049999916,109.90449049999916,109.90449049999916,109.90449049999916,109.90449049999916,109.90449049999916,,003,P008,2025_Feb_01_1238,CategoryLocalizer,2021.2.3,59.96062985015669,
70.8,71.0,5,0.0,Stimuli\Blank.png,0,0,0,118,118,118,,,,,,,,,,,,,70.82796400000007,0.027964000000068268,None,110.6880129000001,110.6880129000001,110.6880129000001,110.6880129000001,110.6880129000001,110.6880129000001,110.6880129000001,110.6880129000001,,003,P008,2025_Feb_01_1238,CategoryLocalizer,2021.2.3,59.96062985015669,
71.0,71.8,4,0.75,Stimuli\ImageFiles-Set1\Scenes\Scenes_057.png,0,0,0,119,119,119,,,,,,,,,,,,,71.01225750000049,0.012257500000487198,None,110.88818999999967,110.88818999999967,110.88818999999967,110.88818999999967,110.88818999999967,110.88818999999967,110.88818999999967,110.88818999999967,,003,P008,2025_Feb_01_1238,CategoryLocalizer,2021.2.3,59.96062985015669,
71.8,72.0,5,0.0,Stimuli\Blank.png,0,0,0,120,120,120,,,,,,,,,,,,,71.82804589999978,0.02804589999978191,None,111.68889750000017,111.68889750000017,111.68889750000017,111.68889750000017,111.68889750000017,111.68889750000017,111.68889750000017,111.68889750000017,,003,P008,2025_Feb_01_1238,CategoryLocalizer,2021.2.3,59.96062985015669,
72.0,72.8,4,0.75,Stimuli\ImageFiles-Set1\Scenes\Scenes_038.png,0,0,0,121,121,121,,,,,,,,,,,,,72.01200429999881,0.012004299998807255,None,111.87239529999897,111.87239529999897,111.87239529999897,111.87239529999897,111.87239529999897,111.87239529999897,111.87239529999897,111.87239529999897,,003,P008,2025_Feb_01_1238,CategoryLocalizer,2021.2.3,59.96062985015669,
72.8,73.0,5,0.0,Stimuli\Blank.png,0,0,0,122,122,122,,,,,,,,,,,,,72.81231180000032,0.01231180000031884,None,112.67310069999985,112.67310069999985,112.67310069999985,112.67310069999985,112.67310069999985,112.67310069999985,112.67310069999985,112.67310069999985,,003,P008,2025_Feb_01_1238,CategoryLocalizer,2021.2.3,59.96062985015669,
73.0,73.8,4,0.75,Stimuli\ImageFiles-Set1\Scenes\Scenes_040.png,0,0,0,123,123,123,,,,,,,,,,,,,73.01330559999951,0.013305599999512197,None,112.88995409999916,112.88995409999916,112.88995409999916,112.88995409999916,112.88995409999916,112.88995409999916,112.88995409999916,112.88995409999916,,003,P008,2025_Feb_01_1238,CategoryLocalizer,2021.2.3,59.96062985015669,
73.8,74.0,5,0.0,Stimuli\Blank.png,0,0,0,124,124,124,,,,,,,,,,,,,73.83258989999922,0.03258989999922335,None,113.70737719999852,113.70737719999852,113.70737719999852,113.70737719999852,113.70737719999852,113.70737719999852,113.70737719999852,113.70737719999852,,003,P008,2025_Feb_01_1238,CategoryLocalizer,2021.2.3,59.96062985015669,
74.0,74.8,4,0.75,Stimuli\ImageFiles-Set1\Scenes\Scenes_026.png,0,0,0,125,125,125,,,,,,,,,,,,,74.01374759999999,0.01374759999998787,None,113.8741700999999,113.8741700999999,113.8741700999999,113.8741700999999,113.8741700999999,113.8741700999999,113.8741700999999,113.8741700999999,,003,P008,2025_Feb_01_1238,CategoryLocalizer,2021.2.3,59.96062985015669,
74.8,75.0,5,0.0,Stimuli\Blank.png,0,0,0,126,126,126,,,,,,,,,,,,,74.81395899999916,0.013958999999161392,None,114.67487069999879,114.67487069999879,114.67487069999879,114.67487069999879,114.67487069999879,114.67487069999879,114.67487069999879,114.67487069999879,,003,P008,2025_Feb_01_1238,CategoryLocalizer,2021.2.3,59.96062985015669,
75.0,75.8,4,0.75,Stimuli\ImageFiles-Set1\Scenes\Scenes_033.png,0,0,0,127,127,127,,,,,,,,,,,,,75.01695739999923,0.016957399999228073,None,114.89173489999848,114.89173489999848,114.89173489999848,114.89173489999848,114.89173489999848,114.89173489999848,114.89173489999848,114.89173489999848,,003,P008,2025_Feb_01_1238,CategoryLocalizer,2021.2.3,59.96062985015669,
75.8,76.0,5,0.0,Stimuli\Blank.png,0,0,0,128,128,128,,,,,,,,,,,,,75.81670949999898,0.016709499998981414,None,115.69244069999877,115.69244069999877,115.69244069999877,115.69244069999877,115.69244069999877,115.69244069999877,115.69244069999877,115.69244069999877,,003,P008,2025_Feb_01_1238,CategoryLocalizer,2021.2.3,59.96062985015669,
76.0,88.0,0,0.0,Stimuli\Blank.png,0,0,0,129,129,129,,,,,,,,,,,,,76.01691989999927,0.016919899999265908,None,115.89265059999889,115.89265059999889,115.89265059999889,115.89265059999889,115.89265059999889,115.89265059999889,115.89265059999889,115.89265059999889,,003,P008,2025_Feb_01_1238,CategoryLocalizer,2021.2.3,59.96062985015669,
88.0,88.8,3,0.75,Stimuli\ImageFiles-Set1\Faces\Face_00024.png,0,0,0,130,130,130,,,,,,,,,,,,,88.02574900000036,0.025749000000359956,None,127.8865466999996,127.8865466999996,127.8865466999996,127.8865466999996,127.8865466999996,127.8865466999996,127.8865466999996,127.8865466999996,,003,P008,2025_Feb_01_1238,CategoryLocalizer,2021.2.3,59.96062985015669,
88.8,89.0,5,0.0,Stimuli\Blank.png,0,0,0,131,131,131,,,,,,,,,,,,,88.81167920000007,0.011679200000074275,None,128.68726979999883,128.68726979999883,128.68726979999883,128.68726979999883,128.68726979999883,128.68726979999883,128.68726979999883,128.68726979999883,,003,P008,2025_Feb_01_1238,CategoryLocalizer,2021.2.3,59.96062985015669,
89.0,89.8,3,0.75,Stimuli\ImageFiles-Set1\Faces\Face_00087.png,0,0,0,132,132,132,,,,,,,,,,,,,89.02734280000004,0.02734280000004219,None,128.9041269999998,128.9041269999998,128.9041269999998,128.9041269999998,128.9041269999998,128.9041269999998,128.9041269999998,128.9041269999998,,003,P008,2025_Feb_01_1238,CategoryLocalizer,2021.2.3,59.96062985015669,
89.8,90.0,5,0.0,Stimuli\Blank.png,0,0,0,133,133,133,,,,,,,,,,,,,89.82807890000004,0.028078900000039653,None,129.68814810000003,129.68814810000003,129.68814810000003,129.68814810000003,129.68814810000003,129.68814810000003,129.68814810000003,129.68814810000003,,003,P008,2025_Feb_01_1238,CategoryLocalizer,2021.2.3,59.96062985015669,
90.0,90.8,3,0.75,Stimuli\ImageFiles-Set1\Faces\Face_00087.png,1,1,0,134,134,134,,,,,,,,,,,,,90.01157919999969,0.011579199999687262,2,129.87165119999918,129.87165119999918,129.87165119999918,129.87165119999918,129.87165119999918,129.87165119999918,129.87165119999918,129.87165119999918,0.4819869999992079,003,P008,2025_Feb_01_1238,CategoryLocalizer,2021.2.3,59.96062985015669,
90.8,91.0,5,0.0,Stimuli\Blank.png,0,0,0,135,135,135,,,,,,,,,,,,,90.81268509999973,0.012685099999728777,None,130.67235029999938,130.67235029999938,130.67235029999938,130.67235029999938,130.67235029999938,130.67235029999938,130.67235029999938,130.67235029999938,,003,P008,2025_Feb_01_1238,CategoryLocalizer,2021.2.3,59.96062985015669,
91.0,91.8,3,0.75,Stimuli\ImageFiles-Set1\Faces\Face_00027.png,0,0,0,136,136,136,,,,,,,,,,,,,91.01265760000024,0.012657600000238745,None,130.88922289999937,130.88922289999937,130.88922289999937,130.88922289999937,130.88922289999937,130.88922289999937,130.88922289999937,130.88922289999937,,003,P008,2025_Feb_01_1238,CategoryLocalizer,2021.2.3,59.96062985015669,
91.8,92.0,5,0.0,Stimuli\Blank.png,0,0,0,137,137,137,,,,,,,,,,,,,91.8290421999991,0.02904219999909685,None,131.6899197999992,131.6899197999992,131.6899197999992,131.6899197999992,131.6899197999992,131.6899197999992,131.6899197999992,131.6899197999992,,003,P008,2025_Feb_01_1238,CategoryLocalizer,2021.2.3,59.96062985015669,
92.0,92.8,3,0.75,Stimuli\ImageFiles-Set1\Faces\Face_00029.png,0,0,0,138,138,138,,,,,,,,,,,,,92.01325749999887,0.013257499998871936,None,131.8900982999985,131.8900982999985,131.8900982999985,131.8900982999985,131.8900982999985,131.8900982999985,131.8900982999985,131.8900982999985,,003,P008,2025_Feb_01_1238,CategoryLocalizer,2021.2.3,59.96062985015669,
92.8,93.0,5,0.0,Stimuli\Blank.png,0,0,0,139,139,139,,,,,,,,,,,,,92.83268419999877,0.03268419999876926,None,132.7075152999987,132.7075152999987,132.7075152999987,132.7075152999987,132.7075152999987,132.7075152999987,132.7075152999987,132.7075152999987,,003,P008,2025_Feb_01_1238,CategoryLocalizer,2021.2.3,59.96062985015669,
93.0,93.8,3,0.75,Stimuli\ImageFiles-Set1\Faces\Face_00067.png,0,0,0,140,140,140,,,,,,,,,,,,,93.01429389999976,0.014293899999756832,None,132.87430200000017,132.87430200000017,132.87430200000017,132.87430200000017,132.87430200000017,132.87430200000017,132.87430200000017,132.87430200000017,,003,P008,2025_Feb_01_1238,CategoryLocalizer,2021.2.3,59.96062985015669,
93.8,94.0,5,0.0,Stimuli\Blank.png,0,0,0,141,141,141,,,,,,,,,,,,,93.81411130000015,0.014111300000152482,None,133.67500870000003,133.67500870000003,133.67500870000003,133.67500870000003,133.67500870000003,133.67500870000003,133.67500870000003,133.67500870000003,,003,P008,2025_Feb_01_1238,CategoryLocalizer,2021.2.3,59.96062985015669,
94.0,94.8,3,0.75,Stimuli\ImageFiles-Set1\Faces\Face_00093.png,0,0,0,142,142,142,,,,,,,,,,,,,94.01462150000043,0.014621500000430387,None,133.87518509999973,133.87518509999973,133.87518509999973,133.87518509999973,133.87518509999973,133.87518509999973,133.87518509999973,133.87518509999973,,003,P008,2025_Feb_01_1238,CategoryLocalizer,2021.2.3,59.96062985015669,
94.8,95.0,5,0.0,Stimuli\Blank.png,0,0,0,143,143,143,,,,,,,,,,,,,94.81508869999925,0.015088699999253663,None,134.67594439999993,134.67594439999993,134.67594439999993,134.67594439999993,134.67594439999993,134.67594439999993,134.67594439999993,134.67594439999993,,003,P008,2025_Feb_01_1238,CategoryLocalizer,2021.2.3,59.96062985015669,
95.0,95.8,3,0.75,Stimuli\ImageFiles-Set1\Faces\Face_00111.png,0,0,0,144,144,144,,,,,,,,,,,,,95.01590339999893,0.01590339999893331,None,134.87607930000013,134.87607930000013,134.87607930000013,134.87607930000013,134.87607930000013,134.87607930000013,134.87607930000013,134.87607930000013,,003,P008,2025_Feb_01_1238,CategoryLocalizer,2021.2.3,59.96062985015669,
95.8,96.0,5,0.0,Stimuli\Blank.png,0,0,0,145,145,145,,,,,,,,,,,,,95.79990969999926,-9.030000073551037e-05,None,135.66013810000004,135.66013810000004,135.66013810000004,135.66013810000004,135.66013810000004,135.66013810000004,135.66013810000004,135.66013810000004,,003,P008,2025_Feb_01_1238,CategoryLocalizer,2021.2.3,59.96062985015669,
96.0,96.8,3,0.75,Stimuli\ImageFiles-Set1\Faces\Face_00022.png,0,0,0,146,146,146,,,,,,,,,,,,,96.00061809999897,0.0006180999989737757,None,135.860246799999,135.860246799999,135.860246799999,135.860246799999,135.860246799999,135.860246799999,135.860246799999,135.860246799999,,003,P008,2025_Feb_01_1238,CategoryLocalizer,2021.2.3,59.96062985015669,
96.8,97.0,5,0.0,Stimuli\Blank.png,0,0,0,147,147,147,,,,,,,,,,,,,96.80195249999997,0.0019524999999731563,None,136.67771100000027,136.67771100000027,136.67771100000027,136.67771100000027,136.67771100000027,136.67771100000027,136.67771100000027,136.67771100000027,,003,P008,2025_Feb_01_1238,CategoryLocalizer,2021.2.3,59.96062985015669,
97.0,97.8,3,0.75,Stimuli\ImageFiles-Set1\Faces\Face_00069.png,1,1,0,148,148,148,,,,,,,,,,,,,97.01752279999891,0.017522799998914707,None,136.87783889999992,136.87783889999992,136.87783889999992,136.87783889999992,136.87783889999992,136.87783889999992,136.87783889999992,136.87783889999992,,003,P008,2025_Feb_01_1238,CategoryLocalizer,2021.2.3,59.96062985015669,
97.8,98.0,5,0.0,Stimuli\Blank.png,0,0,0,149,149,149,,,,,,,,,,,,,97.80131309999888,0.0013130999988817393,None,137.66186579999885,137.66186579999885,137.66186579999885,137.66186579999885,137.66186579999885,137.66186579999885,137.66186579999885,137.66186579999885,,003,P008,2025_Feb_01_1238,CategoryLocalizer,2021.2.3,59.96062985015669,
98.0,98.8,3,0.75,Stimuli\ImageFiles-Set1\Faces\Face_00077.png,0,0,0,150,150,150,,,,,,,,,,,,,98.00183599999946,0.0018359999994572718,None,137.86200689999896,137.86200689999896,137.86200689999896,137.86200689999896,137.86200689999896,137.86200689999896,137.86200689999896,137.86200689999896,,003,P008,2025_Feb_01_1238,CategoryLocalizer,2021.2.3,59.96062985015669,
98.8,99.0,5,0.0,Stimuli\Blank.png,0,0,0,151,151,151,,,,,,,,,,,,,98.80245839999952,0.0024583999995257955,None,138.66277230000014,138.66277230000014,138.66277230000014,138.66277230000014,138.66277230000014,138.66277230000014,138.66277230000014,138.66277230000014,,003,P008,2025_Feb_01_1238,CategoryLocalizer,2021.2.3,59.96062985015669,
99.0,99.8,3,0.75,Stimuli\ImageFiles-Set1\Faces\Face_00077.png,0,0,0,152,152,152,,,,,,,,,,,,,99.00223460000052,0.002234600000520004,2,138.86292929999945,138.86292929999945,138.86292929999945,138.86292929999945,138.86292929999945,138.86292929999945,138.86292929999945,138.86292929999945,0.5775956999987102,003,P008,2025_Feb_01_1238,CategoryLocalizer,2021.2.3,59.96062985015669,
99.8,100.0,5,0.0,Stimuli\Blank.png,0,0,0,153,153,153,,,,,,,,,,,,,99.80277899999965,0.0027789999996485903,None,139.66364299999987,139.66364299999987,139.66364299999987,139.66364299999987,139.66364299999987,139.66364299999987,139.66364299999987,139.66364299999987,,003,P008,2025_Feb_01_1238,CategoryLocalizer,2021.2.3,59.96062985015669,
100.0,100.8,3,0.75,Stimuli\ImageFiles-Set1\Faces\Face_00083.png,0,0,0,154,154,154,,,,,,,,,,,,,100.00351520000004,0.0035152000000380212,None,139.8805003999987,139.8805003999987,139.8805003999987,139.8805003999987,139.8805003999987,139.8805003999987,139.8805003999987,139.8805003999987,,003,P008,2025_Feb_01_1238,CategoryLocalizer,2021.2.3,59.96062985015669,
100.8,101.0,5,0.0,Stimuli\Blank.png,0,0,0,155,155,155,,,,,,,,,,,,,100.82102229999873,0.02102229999873373,None,140.68121679999967,140.68121679999967,140.68121679999967,140.68121679999967,140.68121679999967,140.68121679999967,140.68121679999967,140.68121679999967,,003,P008,2025_Feb_01_1238,CategoryLocalizer,2021.2.3,59.96062985015669,
101.0,101.8,3,0.75,Stimuli\ImageFiles-Set1\Faces\Face_00018.png,0,0,0,156,156,156,,,,,,,,,,,,,101.00395709999975,0.003957099999752245,None,140.86469899999975,140.86469899999975,140.86469899999975,140.86469899999975,140.86469899999975,140.86469899999975,140.86469899999975,140.86469899999975,,003,P008,2025_Feb_01_1238,CategoryLocalizer,2021.2.3,59.96062985015669,
101.8,102.0,5,0.0,Stimuli\Blank.png,0,0,0,157,157,157,,,,,,,,,,,,,101.80538700000034,0.005387000000339981,None,141.66541739999957,141.66541739999957,141.66541739999957,141.66541739999957,141.66541739999957,141.66541739999957,141.66541739999957,141.66541739999957,,003,P008,2025_Feb_01_1238,CategoryLocalizer,2021.2.3,59.96062985015669,
102.0,102.8,3,0.75,Stimuli\ImageFiles-Set1\Faces\Face_00101.png,0,0,0,158,158,158,,,,,,,,,,,,,102.00500420000026,0.005004200000257697,None,141.86558409999998,141.86558409999998,141.86558409999998,141.86558409999998,141.86558409999998,141.86558409999998,141.86558409999998,141.86558409999998,,003,P008,2025_Feb_01_1238,CategoryLocalizer,2021.2.3,59.96062985015669,
102.8,103.0,5,0.0,Stimuli\Blank.png,0,0,0,159,159,159,,,,,,,,,,,,,102.8063216999999,0.006321699999901398,None,142.66630199999963,142.66630199999963,142.66630199999963,142.66630199999963,142.66630199999963,142.66630199999963,142.66630199999963,142.66630199999963,,003,P008,2025_Feb_01_1238,CategoryLocalizer,2021.2.3,59.96062985015669,
103.0,103.8,3,0.75,Stimuli\ImageFiles-Set1\Faces\Face_00103.png,0,0,0,160,160,160,,,,,,,,,,,,,103.00631609999982,0.006316099999821745,None,142.86644179999894,142.86644179999894,142.86644179999894,142.86644179999894,142.86644179999894,142.86644179999894,142.86644179999894,142.86644179999894,,003,P008,2025_Feb_01_1238,CategoryLocalizer,2021.2.3,59.96062985015669,
103.8,104.0,5,0.0,Stimuli\Blank.png,0,0,0,161,161,161,,,,,,,,,,,,,103.80636830000003,0.006368300000033855,None,143.66719029999877,143.66719029999877,143.66719029999877,143.66719029999877,143.66719029999877,143.66719029999877,143.66719029999877,143.66719029999877,,003,P008,2025_Feb_01_1238,CategoryLocalizer,2021.2.3,59.96062985015669,
104.0,104.8,1,0.75,Stimuli\ImageFiles-Set1\Objects\Object_Football_00001.png,0,0,0,162,162,162,,,,,,,,,,,,,104.00739570000042,0.0073957000004156725,None,143.8673515999999,143.8673515999999,143.8673515999999,143.8673515999999,143.8673515999999,143.8673515999999,143.8673515999999,143.8673515999999,,003,P008,2025_Feb_01_1238,CategoryLocalizer,2021.2.3,59.96062985015669,
104.8,105.0,5,0.0,Stimuli\Blank.png,0,0,0,163,163,163,,,,,,,,,,,,,104.8072959000001,0.007295900000102051,None,144.66806749999887,144.66806749999887,144.66806749999887,144.66806749999887,144.66806749999887,144.66806749999887,144.66806749999887,144.66806749999887,,003,P008,2025_Feb_01_1238,CategoryLocalizer,2021.2.3,59.96062985015669,
105.0,105.8,1,0.75,Stimuli\ImageFiles-Set1\Objects\Object_Motorcycle_00001.png,0,0,0,164,164,164,,,,,,,,,,,,,105.00751589999891,0.007515899998907116,None,144.8682403999992,144.8682403999992,144.8682403999992,144.8682403999992,144.8682403999992,144.8682403999992,144.8682403999992,144.8682403999992,,003,P008,2025_Feb_01_1238,CategoryLocalizer,2021.2.3,59.96062985015669,
105.8,106.0,5,0.0,Stimuli\Blank.png,0,0,0,165,165,165,,,,,,,,,,,,,105.80822259999877,0.008222599998774172,None,145.6689365000002,145.6689365000002,145.6689365000002,145.6689365000002,145.6689365000002,145.6689365000002,145.6689365000002,145.6689365000002,,003,P008,2025_Feb_01_1238,CategoryLocalizer,2021.2.3,59.96062985015669,
106.0,106.8,1,0.75,Stimuli\ImageFiles-Set1\Objects\Object_Key_00001.png,0,0,0,166,166,166,,,,,,,,,,,,,106.00874509999994,0.008745099999941885,None,145.86912329999905,145.86912329999905,145.86912329999905,145.86912329999905,145.86912329999905,145.86912329999905,145.86912329999905,145.86912329999905,,003,P008,2025_Feb_01_1238,CategoryLocalizer,2021.2.3,59.96062985015669,
106.8,107.0,5,0.0,Stimuli\Blank.png,0,0,0,167,167,167,,,,,,,,,,,,,106.80965669999932,0.009656699999325724,None,146.66983979999895,146.66983979999895,146.66983979999895,146.66983979999895,146.66983979999895,146.66983979999895,146.66983979999895,146.66983979999895,,003,P008,2025_Feb_01_1238,CategoryLocalizer,2021.2.3,59.96062985015669,
107.0,107.8,1,0.75,Stimuli\ImageFiles-Set1\Objects\Object_Key_00001.png,1,1,0,168,168,168,,,,,,,,,,,,,107.00912690000041,0.009126900000410387,2,146.8700102999992,146.8700102999992,146.8700102999992,146.8700102999992,146.8700102999992,146.8700102999992,146.8700102999992,146.8700102999992,0.7248618999983591,003,P008,2025_Feb_01_1238,CategoryLocalizer,2021.2.3,59.96062985015669,
107.8,108.0,5,0.0,Stimuli\Blank.png,0,0,0,169,169,169,,,,,,,,,,,,,107.81298939999942,0.01298939999942661,None,147.68740669999897,147.68740669999897,147.68740669999897,147.68740669999897,147.68740669999897,147.68740669999897,147.68740669999897,147.68740669999897,,003,P008,2025_Feb_01_1238,CategoryLocalizer,2021.2.3,59.96062985015669,
108.0,108.8,1,0.75,Stimuli\ImageFiles-Set1\Objects\Object_Pencil_00001.png,0,0,0,170,170,170,,,,,,,,,,,,,108.02739959999963,0.027399599999625934,None,147.88758499999858,147.88758499999858,147.88758499999858,147.88758499999858,147.88758499999858,147.88758499999858,147.88758499999858,147.88758499999858,,003,P008,2025_Feb_01_1238,CategoryLocalizer,2021.2.3,59.96062985015669,
108.8,109.0,5,0.0,Stimuli\Blank.png,0,0,0,171,171,171,,,,,,,,,,,,,108.81150829999933,0.011508299999334781,None,148.67161639999904,148.67161639999904,148.67161639999904,148.67161639999904,148.67161639999904,148.67161639999904,148.67161639999904,148.67161639999904,,003,P008,2025_Feb_01_1238,CategoryLocalizer,2021.2.3,59.96062985015669,
109.0,109.8,1,0.75,Stimuli\ImageFiles-Set1\Objects\Object_PepperShaker_00001.png,0,0,0,172,172,172,,,,,,,,,,,,,109.01176920000034,0.011769200000344426,None,148.88846209999974,148.88846209999974,148.88846209999974,148.88846209999974,148.88846209999974,148.88846209999974,148.88846209999974,148.88846209999974,,003,P008,2025_Feb_01_1238,CategoryLocalizer,2021.2.3,59.96062985015669,
109.8,110.0,5,0.0,Stimuli\Blank.png,0,0,0,173,173,173,,,,,,,,,,,,,109.82845669999915,0.02845669999915401,None,149.68917129999863,149.68917129999863,149.68917129999863,149.68917129999863,149.68917129999863,149.68917129999863,149.68917129999863,149.68917129999863,,003,P008,2025_Feb_01_1238,CategoryLocalizer,2021.2.3,59.96062985015669,
110.0,110.8,1,0.75,Stimuli\ImageFiles-Set1\Objects\Object_Airplane_00001.png,0,0,0,174,174,174,,,,,,,,,,,,,110.01235330000054,0.012353300000540912,None,149.87266479999926,149.87266479999926,149.87266479999926,149.87266479999926,149.87266479999926,149.87266479999926,149.87266479999926,149.87266479999926,,003,P008,2025_Feb_01_1238,CategoryLocalizer,2021.2.3,59.96062985015669,
110.8,111.0,5,0.0,Stimuli\Blank.png,0,0,0,175,175,175,,,,,,,,,,,,,110.81329689999984,0.013296899999843959,None,150.67337679999946,150.67337679999946,150.67337679999946,150.67337679999946,150.67337679999946,150.67337679999946,150.67337679999946,150.67337679999946,,003,P008,2025_Feb_01_1238,CategoryLocalizer,2021.2.3,59.96062985015669,
111.0,111.8,1,0.75,Stimuli\ImageFiles-Set1\Objects\Object_Door_00001.png,0,0,0,176,176,176,,,,,,,,,,,,,111.01319979999971,0.013199799999711104,None,150.87354969999978,150.87354969999978,150.87354969999978,150.87354969999978,150.87354969999978,150.87354969999978,150.87354969999978,150.87354969999978,,003,P008,2025_Feb_01_1238,CategoryLocalizer,2021.2.3,59.96062985015669,
111.8,112.0,5,0.0,Stimuli\Blank.png,0,0,0,177,177,177,,,,,,,,,,,,,111.81381229999897,0.013812299998974709,None,151.67425939999885,151.67425939999885,151.67425939999885,151.67425939999885,151.67425939999885,151.67425939999885,151.67425939999885,151.67425939999885,,003,P008,2025_Feb_01_1238,CategoryLocalizer,2021.2.3,59.96062985015669,
112.0,112.8,1,0.75,Stimuli\ImageFiles-Set1\Objects\Object_Nightstand_00001.png,0,0,0,178,178,178,,,,,,,,,,,,,112.01362709999921,0.013627099999212078,None,151.87443579999854,151.87443579999854,151.87443579999854,151.87443579999854,151.87443579999854,151.87443579999854,151.87443579999854,151.87443579999854,,003,P008,2025_Feb_01_1238,CategoryLocalizer,2021.2.3,59.96062985015669,
112.8,113.0,5,0.0,Stimuli\Blank.png,0,0,0,179,179,179,,,,,,,,,,,,,112.81431030000022,0.01431030000021849,None,152.67514479999954,152.67514479999954,152.67514479999954,152.67514479999954,152.67514479999954,152.67514479999954,152.67514479999954,152.67514479999954,,003,P008,2025_Feb_01_1238,CategoryLocalizer,2021.2.3,59.96062985015669,
113.0,113.8,1,0.75,Stimuli\ImageFiles-Set1\Objects\Object_Peanut_00001.png,1,1,0,180,180,180,,,,,,,,,,,,,113.01535200000035,0.015352000000348198,None,152.89200199999868,152.89200199999868,152.89200199999868,152.89200199999868,152.89200199999868,152.89200199999868,152.89200199999868,152.89200199999868,,003,P008,2025_Feb_01_1238,CategoryLocalizer,2021.2.3,59.96062985015669,
113.8,114.0,5,0.0,Stimuli\Blank.png,0,0,0,181,181,181,,,,,,,,,,,,,113.81556389999969,0.015563899999690989,None,153.67607729999872,153.67607729999872,153.67607729999872,153.67607729999872,153.67607729999872,153.67607729999872,153.67607729999872,153.67607729999872,,003,P008,2025_Feb_01_1238,CategoryLocalizer,2021.2.3,59.96062985015669,
114.0,114.8,1,0.75,Stimuli\ImageFiles-Set1\Objects\Object_Canoe_00001.png,0,0,0,182,182,182,,,,,,,,,,,,,113.99879929999952,-0.0012007000004814472,None,153.87620439999955,153.87620439999955,153.87620439999955,153.87620439999955,153.87620439999955,153.87620439999955,153.87620439999955,153.87620439999955,,003,P008,2025_Feb_01_1238,CategoryLocalizer,2021.2.3,59.96062985015669,
114.8,115.0,5,0.0,Stimuli\Blank.png,0,0,0,183,183,183,,,,,,,,,,,,,114.8165900999993,0.016590099999305608,None,154.67692319999878,154.67692319999878,154.67692319999878,154.67692319999878,154.67692319999878,154.67692319999878,154.67692319999878,154.67692319999878,,003,P008,2025_Feb_01_1238,CategoryLocalizer,2021.2.3,59.96062985015669,
115.0,115.8,1,0.75,Stimuli\ImageFiles-Set1\Objects\Object_Canoe_00001.png,0,0,0,184,184,184,,,,,,,,,,,,,115.00241900000037,0.002419000000372762,2,154.8771201999989,154.8771201999989,154.8771201999989,154.8771201999989,154.8771201999989,154.8771201999989,154.8771201999989,154.8771201999989,0.4893964999992022,003,P008,2025_Feb_01_1238,CategoryLocalizer,2021.2.3,59.96062985015669,
115.8,116.0,5,0.0,Stimuli\Blank.png,0,0,0,185,185,185,,,,,,,,,,,,,115.8176738000002,0.017673800000196138,None,155.6778016999997,155.6778016999997,155.6778016999997,155.6778016999997,155.6778016999997,155.6778016999997,155.6778016999997,155.6778016999997,,003,P008,2025_Feb_01_1238,CategoryLocalizer,2021.2.3,59.96062985015669,
116.0,116.8,1,0.75,Stimuli\ImageFiles-Set1\Objects\Object_Watch_00001.png,0,0,0,186,186,186,,,,,,,,,,,,,116.0010057999989,0.0010057999988930533,None,155.8612964999993,155.8612964999993,155.8612964999993,155.8612964999993,155.8612964999993,155.8612964999993,155.8612964999993,155.8612964999993,,003,P008,2025_Feb_01_1238,CategoryLocalizer,2021.2.3,59.96062985015669,
116.8,117.0,5,0.0,Stimuli\Blank.png,0,0,0,187,187,187,,,,,,,,,,,,,116.80143859999953,0.0014385999995312204,None,156.66200959999878,156.66200959999878,156.66200959999878,156.66200959999878,156.66200959999878,156.66200959999878,156.66200959999878,156.66200959999878,,003,P008,2025_Feb_01_1238,CategoryLocalizer,2021.2.3,59.96062985015669,
117.0,117.8,1,0.75,Stimuli\ImageFiles-Set1\Objects\Object_Hammer_00001.png,0,0,0,188,188,188,,,,,,,,,,,,,117.0019828000004,0.0019828000004054047,None,156.86218869999902,156.86218869999902,156.86218869999902,156.86218869999902,156.86218869999902,156.86218869999902,156.86218869999902,156.86218869999902,,003,P008,2025_Feb_01_1238,CategoryLocalizer,2021.2.3,59.96062985015669,
117.8,118.0,5,0.0,Stimuli\Blank.png,0,0,0,189,189,189,,,,,,,,,,,,,117.8026203999998,0.002620399999798906,None,157.66290459999982,157.66290459999982,157.66290459999982,157.66290459999982,157.66290459999982,157.66290459999982,157.66290459999982,157.66290459999982,,003,P008,2025_Feb_01_1238,CategoryLocalizer,2021.2.3,59.96062985015669,
118.0,118.8,1,0.75,Stimuli\ImageFiles-Set1\Objects\Object_Knife_00001.png,0,0,0,190,190,190,,,,,,,,,,,,,118.00243369999953,0.0024336999995284714,None,157.86307820000002,157.86307820000002,157.86307820000002,157.86307820000002,157.86307820000002,157.86307820000002,157.86307820000002,157.86307820000002,,003,P008,2025_Feb_01_1238,CategoryLocalizer,2021.2.3,59.96062985015669,
118.8,119.0,5,0.0,Stimuli\Blank.png,0,0,0,191,191,191,,,,,,,,,,,,,118.8035660000005,0.0035660000005037773,None,158.66378949999853,158.66378949999853,158.66378949999853,158.66378949999853,158.66378949999853,158.66378949999853,158.66378949999853,158.66378949999853,,003,P008,2025_Feb_01_1238,CategoryLocalizer,2021.2.3,59.96062985015669,
119.0,119.8,1,0.75,Stimuli\ImageFiles-Set1\Objects\Object_ComputerMouse_00001.png,0,0,0,192,192,192,,,,,,,,,,,,,119.00386359999902,0.0038635999990219716,None,158.86394819999987,158.86394819999987,158.86394819999987,158.86394819999987,158.86394819999987,158.86394819999987,158.86394819999987,158.86394819999987,,003,P008,2025_Feb_01_1238,CategoryLocalizer,2021.2.3,59.96062985015669,
119.8,120.0,5,0.0,Stimuli\Blank.png,0,0,0,193,193,193,,,,,,,,,,,,,119.8038919999999,0.00389199999990808,None,159.664664599999,159.664664599999,159.664664599999,159.664664599999,159.664664599999,159.664664599999,159.664664599999,159.664664599999,,003,P008,2025_Feb_01_1238,CategoryLocalizer,2021.2.3,59.96062985015669,
120.0,120.8,4,0.75,Stimuli\ImageFiles-Set1\Scenes\Scenes_045.png,0,0,0,194,194,194,,,,,,,,,,,,,120.00410389999888,0.0041038999988813885,None,159.86484649999875,159.86484649999875,159.86484649999875,159.86484649999875,159.86484649999875,159.86484649999875,159.86484649999875,159.86484649999875,,003,P008,2025_Feb_01_1238,CategoryLocalizer,2021.2.3,59.96062985015669,
120.8,121.0,5,0.0,Stimuli\Blank.png,0,0,0,195,195,195,,,,,,,,,,,,,120.8069816999996,0.0069816999995993,None,160.6822581999986,160.6822581999986,160.6822581999986,160.6822581999986,160.6822581999986,160.6822581999986,160.6822581999986,160.6822581999986,,003,P008,2025_Feb_01_1238,CategoryLocalizer,2021.2.3,59.96062985015669,
121.0,121.8,4,0.75,Stimuli\ImageFiles-Set1\Scenes\Scenes_054.png,0,0,0,196,196,196,,,,,,,,,,,,,121.02256730000045,0.022567300000446266,None,160.8990801,160.8990801,160.8990801,160.8990801,160.8990801,160.8990801,160.8990801,160.8990801,,003,P008,2025_Feb_01_1238,CategoryLocalizer,2021.2.3,59.96062985015669,
121.8,122.0,5,0.0,Stimuli\Blank.png,0,0,0,197,197,197,,,,,,,,,,,,,121.82256649999908,0.022566499999086886,None,161.68311259999973,161.68311259999973,161.68311259999973,161.68311259999973,161.68311259999973,161.68311259999973,161.68311259999973,161.68311259999973,,003,P008,2025_Feb_01_1238,CategoryLocalizer,2021.2.3,59.96062985015669,
122.0,122.8,4,0.75,Stimuli\ImageFiles-Set1\Scenes\Scenes_015.png,0,0,0,198,198,198,,,,,,,,,,,,,122.00581969999985,0.0058196999998472165,None,161.86661789999926,161.86661789999926,161.86661789999926,161.86661789999926,161.86661789999926,161.86661789999926,161.86661789999926,161.86661789999926,,003,P008,2025_Feb_01_1238,CategoryLocalizer,2021.2.3,59.96062985015669,
122.8,123.0,5,0.0,Stimuli\Blank.png,0,0,0,199,199,199,,,,,,,,,,,,,122.80742579999969,0.0074257999996945045,None,162.66732819999925,162.66732819999925,162.66732819999925,162.66732819999925,162.66732819999925,162.66732819999925,162.66732819999925,162.66732819999925,,003,P008,2025_Feb_01_1238,CategoryLocalizer,2021.2.3,59.96062985015669,
123.0,123.8,4,0.75,Stimuli\ImageFiles-Set1\Scenes\Scenes_037.png,0,0,0,200,200,200,,,,,,,,,,,,,123.00772030000007,0.007720300000073621,None,162.8841627999991,162.8841627999991,162.8841627999991,162.8841627999991,162.8841627999991,162.8841627999991,162.8841627999991,162.8841627999991,,003,P008,2025_Feb_01_1238,CategoryLocalizer,2021.2.3,59.96062985015669,
123.8,124.0,5,0.0,Stimuli\Blank.png,0,0,0,201,201,201,,,,,,,,,,,,,123.8245969999989,0.024596999998905744,None,163.684896499999,163.684896499999,163.684896499999,163.684896499999,163.684896499999,163.684896499999,163.684896499999,163.684896499999,,003,P008,2025_Feb_01_1238,CategoryLocalizer,2021.2.3,59.96062985015669,
124.0,124.8,4,0.75,Stimuli\ImageFiles-Set1\Scenes\Scenes_044.png,0,0,0,202,202,202,,,,,,,,,,,,,124.00804349999999,0.008043499999985215,None,163.8683919999985,163.8683919999985,163.8683919999985,163.8683919999985,163.8683919999985,163.8683919999985,163.8683919999985,163.8683919999985,,003,P008,2025_Feb_01_1238,CategoryLocalizer,2021.2.3,59.96062985015669,
124.8,125.0,5,0.0,Stimuli\Blank.png,0,0,0,203,203,203,,,,,,,,,,,,,124.80828040000051,0.008280400000515442,None,164.66910499999904,164.66910499999904,164.66910499999904,164.66910499999904,164.66910499999904,164.66910499999904,164.66910499999904,164.66910499999904,,003,P008,2025_Feb_01_1238,CategoryLocalizer,2021.2.3,59.96062985015669,
125.0,125.8,4,0.75,Stimuli\ImageFiles-Set1\Scenes\Scenes_056.png,0,0,0,204,204,204,,,,,,,,,,,,,125.00886460000038,0.008864600000379141,None,164.8692762999999,164.8692762999999,164.8692762999999,164.8692762999999,164.8692762999999,164.8692762999999,164.8692762999999,164.8692762999999,,003,P008,2025_Feb_01_1238,CategoryLocalizer,2021.2.3,59.96062985015669,
125.8,126.0,5,0.0,Stimuli\Blank.png,0,0,0,205,205,205,,,,,,,,,,,,,125.809814799999,0.00981479999900614,None,165.67002749999847,165.67002749999847,165.67002749999847,165.67002749999847,165.67002749999847,165.67002749999847,165.67002749999847,165.67002749999847,,003,P008,2025_Feb_01_1238,CategoryLocalizer,2021.2.3,59.96062985015669,
126.0,126.8,4,0.75,Stimuli\ImageFiles-Set1\Scenes\Scenes_056.png,1,1,0,206,206,206,,,,,,,,,,,,,126.01049849999981,0.010498499999812339,2,165.88684209999883,165.88684209999883,165.88684209999883,165.88684209999883,165.88684209999883,165.88684209999883,165.88684209999883,165.88684209999883,0.576920199999222,003,P008,2025_Feb_01_1238,CategoryLocalizer,2021.2.3,59.96062985015669,
126.8,127.0,5,0.0,Stimuli\Blank.png,0,0,0,207,207,207,,,,,,,,,,,,,126.82752020000044,0.027520200000438422,None,166.68754160000026,166.68754160000026,166.68754160000026,166.68754160000026,166.68754160000026,166.68754160000026,166.68754160000026,166.68754160000026,,003,P008,2025_Feb_01_1238,CategoryLocalizer,2021.2.3,59.96062985015669,
127.0,127.8,4,0.75,Stimuli\ImageFiles-Set1\Scenes\Scenes_053.png,0,0,0,208,208,208,,,,,,,,,,,,,127.01284209999903,0.012842099999033962,None,166.88772329999847,166.88772329999847,166.88772329999847,166.88772329999847,166.88772329999847,166.88772329999847,166.88772329999847,166.88772329999847,,003,P008,2025_Feb_01_1238,CategoryLocalizer,2021.2.3,59.96062985015669,
127.8,128.0,5,0.0,Stimuli\Blank.png,0,0,0,209,209,209,,,,,,,,,,,,,127.82825289999892,0.028252899998918224,None,167.68843279999965,167.68843279999965,167.68843279999965,167.68843279999965,167.68843279999965,167.68843279999965,167.68843279999965,167.68843279999965,,003,P008,2025_Feb_01_1238,CategoryLocalizer,2021.2.3,59.96062985015669,
128.0,128.8,4,0.75,Stimuli\ImageFiles-Set1\Scenes\Scenes_014.png,0,0,0,210,210,210,,,,,,,,,,,,,128.0121347000004,0.012134700000387966,None,167.888664099999,167.888664099999,167.888664099999,167.888664099999,167.888664099999,167.888664099999,167.888664099999,167.888664099999,,003,P008,2025_Feb_01_1238,CategoryLocalizer,2021.2.3,59.96062985015669,
128.8,129.0,5,0.0,Stimuli\Blank.png,0,0,0,211,211,211,,,,,,,,,,,,,128.82856059999904,0.02856059999902527,None,168.68931819999852,168.68931819999852,168.68931819999852,168.68931819999852,168.68931819999852,168.68931819999852,168.68931819999852,168.68931819999852,,003,P008,2025_Feb_01_1238,CategoryLocalizer,2021.2.3,59.96062985015669,
129.0,129.8,4,0.75,Stimuli\ImageFiles-Set1\Scenes\Scenes_036.png,0,0,0,212,212,212,,,,,,,,,,,,,129.0134976999998,0.013497699999788892,None,168.88948379999965,168.88948379999965,168.88948379999965,168.88948379999965,168.88948379999965,168.88948379999965,168.88948379999965,168.88948379999965,,003,P008,2025_Feb_01_1238,CategoryLocalizer,2021.2.3,59.96062985015669,
129.8,130.0,5,0.0,Stimuli\Blank.png,0,0,0,213,213,213,,,,,,,,,,,,,129.83183119999921,0.03183119999920336,None,169.7068847999999,169.7068847999999,169.7068847999999,169.7068847999999,169.7068847999999,169.7068847999999,169.7068847999999,169.7068847999999,,003,P008,2025_Feb_01_1238,CategoryLocalizer,2021.2.3,59.96062985015669,
130.0,130.8,4,0.75,Stimuli\ImageFiles-Set1\Scenes\Scenes_060.png,0,0,0,214,214,214,,,,,,,,,,,,,130.03200169999946,0.03200169999945501,None,169.9070686999985,169.9070686999985,169.9070686999985,169.9070686999985,169.9070686999985,169.9070686999985,169.9070686999985,169.9070686999985,,003,P008,2025_Feb_01_1238,CategoryLocalizer,2021.2.3,59.96062985015669,
130.8,131.0,5,0.0,Stimuli\Blank.png,0,0,0,215,215,215,,,,,,,,,,,,,130.81432829999903,0.014328299999021965,None,170.67440050000005,170.67440050000005,170.67440050000005,170.67440050000005,170.67440050000005,170.67440050000005,170.67440050000005,170.67440050000005,,003,P008,2025_Feb_01_1238,CategoryLocalizer,2021.2.3,59.96062985015669,
131.0,131.8,4,0.75,Stimuli\ImageFiles-Set1\Scenes\Scenes_041.png,0,0,0,216,216,216,,,,,,,,,,,,,131.01383820000046,0.013838200000463985,None,170.87457109999923,170.87457109999923,170.87457109999923,170.87457109999923,170.87457109999923,170.87457109999923,170.87457109999923,170.87457109999923,,003,P008,2025_Feb_01_1238,CategoryLocalizer,2021.2.3,59.96062985015669,
131.8,132.0,5,0.0,Stimuli\Blank.png,0,0,0,217,217,217,,,,,,,,,,,,,131.81460549999974,0.014605499999731819,None,171.67528409999977,171.67528409999977,171.67528409999977,171.67528409999977,171.67528409999977,171.67528409999977,171.67528409999977,171.67528409999977,,003,P008,2025_Feb_01_1238,CategoryLocalizer,2021.2.3,59.96062985015669,
132.0,132.8,4,0.75,Stimuli\ImageFiles-Set1\Scenes\Scenes_050.png,1,1,0,218,218,218,,,,,,,,,,,,,132.01523069999894,0.01523069999893778,None,171.89216469999883,171.89216469999883,171.89216469999883,171.89216469999883,171.89216469999883,171.89216469999883,171.89216469999883,171.89216469999883,,003,P008,2025_Feb_01_1238,CategoryLocalizer,2021.2.3,59.96062985015669,
132.8,133.0,5,0.0,Stimuli\Blank.png,0,0,0,219,219,219,,,,,,,,,,,,,132.81703220000054,0.01703220000052852,None,172.69286229999852,172.69286229999852,172.69286229999852,172.69286229999852,172.69286229999852,172.69286229999852,172.69286229999852,172.69286229999852,,003,P008,2025_Feb_01_1238,CategoryLocalizer,2021.2.3,59.96062985015669,
133.0,133.8,4,0.75,Stimuli\ImageFiles-Set1\Scenes\Scenes_043.png,0,0,0,220,220,220,,,,,,,,,,,,,133.01556489999894,0.015564899998935289,None,172.87631890000011,172.87631890000011,172.87631890000011,172.87631890000011,172.87631890000011,172.87631890000011,172.87631890000011,172.87631890000011,,003,P008,2025_Feb_01_1238,CategoryLocalizer,2021.2.3,59.96062985015669,
133.8,134.0,5,0.0,Stimuli\Blank.png,0,0,0,221,221,221,,,,,,,,,,,,,133.80019790000006,0.00019790000004604735,None,173.6603817999985,173.6603817999985,173.6603817999985,173.6603817999985,173.6603817999985,173.6603817999985,173.6603817999985,173.6603817999985,,003,P008,2025_Feb_01_1238,CategoryLocalizer,2021.2.3,59.96062985015669,
134.0,134.8,4,0.75,Stimuli\ImageFiles-Set1\Scenes\Scenes_043.png,0,0,0,222,222,222,,,,,,,,,,,,,134.0009167999997,0.0009167999996861909,2,173.87720420000005,173.87720420000005,173.87720420000005,173.87720420000005,173.87720420000005,173.87720420000005,173.87720420000005,173.87720420000005,0.44948590000058175,003,P008,2025_Feb_01_1238,CategoryLocalizer,2021.2.3,59.96062985015669,
134.8,135.0,5,0.0,Stimuli\Blank.png,0,0,0,223,223,223,,,,,,,,,,,,,134.81722450000052,0.017224500000509124,None,174.67793619999975,174.67793619999975,174.67793619999975,174.67793619999975,174.67793619999975,174.67793619999975,174.67793619999975,174.67793619999975,,003,P008,2025_Feb_01_1238,CategoryLocalizer,2021.2.3,59.96062985015669,
135.0,135.8,4,0.75,Stimuli\ImageFiles-Set1\Scenes\Scenes_055.png,0,0,0,224,224,224,,,,,,,,,,,,,135.0018799999998,0.0018799999998009298,None,174.87810759999957,174.87810759999957,174.87810759999957,174.87810759999957,174.87810759999957,174.87810759999957,174.87810759999957,174.87810759999957,,003,P008,2025_Feb_01_1238,CategoryLocalizer,2021.2.3,59.96062985015669,
135.8,136.0,5,0.0,Stimuli\Blank.png,0,0,0,225,225,225,,,,,,,,,,,,,135.81865379999908,0.018653799999071907,None,175.67882199999985,175.67882199999985,175.67882199999985,175.67882199999985,175.67882199999985,175.67882199999985,175.67882199999985,175.67882199999985,,003,P008,2025_Feb_01_1238,CategoryLocalizer,2021.2.3,59.96062985015669,
136.0,136.8,2,0.75,Stimuli\ImageFiles-Set1\Bodies\Bodies_QuadStretch_00001.png,0,0,0,226,226,226,,,,,,,,,,,,,136.00284370000008,0.0028437000000849366,None,175.8623248999993,175.8623248999993,175.8623248999993,175.8623248999993,175.8623248999993,175.8623248999993,175.8623248999993,175.8623248999993,,003,P008,2025_Feb_01_1238,CategoryLocalizer,2021.2.3,59.96062985015669,
136.8,137.0,5,0.0,Stimuli\Blank.png,0,0,0,227,227,227,,,,,,,,,,,,,136.8027721999988,0.002772199998787528,None,176.6630365000001,176.6630365000001,176.6630365000001,176.6630365000001,176.6630365000001,176.6630365000001,176.6630365000001,176.6630365000001,,003,P008,2025_Feb_01_1238,CategoryLocalizer,2021.2.3,59.96062985015669,
137.0,137.8,2,0.75,Stimuli\ImageFiles-Set1\Bodies\Bodies_Standing_00005.png,0,0,0,228,228,228,,,,,,,,,,,,,137.00273949999973,0.0027394999997341074,None,176.86320439999872,176.86320439999872,176.86320439999872,176.86320439999872,176.86320439999872,176.86320439999872,176.86320439999872,176.86320439999872,,003,P008,2025_Feb_01_1238,CategoryLocalizer,2021.2.3,59.96062985015669,
137.8,138.0,5,0.0,Stimuli\Blank.png,0,0,0,229,229,229,,,,,,,,,,,,,137.80317549999927,0.003175499999258591,None,177.6639097999996,177.6639097999996,177.6639097999996,177.6639097999996,177.6639097999996,177.6639097999996,177.6639097999996,177.6639097999996,,003,P008,2025_Feb_01_1238,CategoryLocalizer,2021.2.3,59.96062985015669,
138.0,138.8,2,0.75,Stimuli\ImageFiles-Set1\Bodies\Bodies_Crawling_00006.png,0,0,0,230,230,230,,,,,,,,,,,,,138.00330029999895,0.00330029999895487,None,177.86408969999866,177.86408969999866,177.86408969999866,177.86408969999866,177.86408969999866,177.86408969999866,177.86408969999866,177.86408969999866,,003,P008,2025_Feb_01_1238,CategoryLocalizer,2021.2.3,59.96062985015669,
138.8,139.0,5,0.0,Stimuli\Blank.png,0,0,0,231,231,231,,,,,,,,,,,,,138.80657260000044,0.0065726000004247,None,178.6814889999987,178.6814889999987,178.6814889999987,178.6814889999987,178.6814889999987,178.6814889999987,178.6814889999987,178.6814889999987,,003,P008,2025_Feb_01_1238,CategoryLocalizer,2021.2.3,59.96062985015669,
139.0,139.8,2,0.75,Stimuli\ImageFiles-Set1\Bodies\Bodies_Lunging_00001.png,0,0,0,232,232,232,,,,,,,,,,,,,139.0220035000002,0.022003500000209897,None,178.8983305999991,178.8983305999991,178.8983305999991,178.8983305999991,178.8983305999991,178.8983305999991,178.8983305999991,178.8983305999991,,003,P008,2025_Feb_01_1238,CategoryLocalizer,2021.2.3,59.96062985015669,
139.8,140.0,5,0.0,Stimuli\Blank.png,0,0,0,233,233,233,,,,,,,,,,,,,139.82295069999964,0.022950699999626067,None,179.68238409999867,179.68238409999867,179.68238409999867,179.68238409999867,179.68238409999867,179.68238409999867,179.68238409999867,179.68238409999867,,003,P008,2025_Feb_01_1238,CategoryLocalizer,2021.2.3,59.96062985015669,
140.0,140.8,2,0.75,Stimuli\ImageFiles-Set1\Bodies\Bodies_Punching_00003.png,0,0,0,234,234,234,,,,,,,,,,,,,140.0062328999993,0.006232899999304209,None,179.86587489999874,179.86587489999874,179.86587489999874,179.86587489999874,179.86587489999874,179.86587489999874,179.86587489999874,179.86587489999874,,003,P008,2025_Feb_01_1238,CategoryLocalizer,2021.2.3,59.96062985015669,
140.8,141.0,5,0.0,Stimuli\Blank.png,0,0,0,235,235,235,,,,,,,,,,,,,140.80739170000015,0.0073917000001415545,None,180.66657979999945,180.66657979999945,180.66657979999945,180.66657979999945,180.66657979999945,180.66657979999945,180.66657979999945,180.66657979999945,,003,P008,2025_Feb_01_1238,CategoryLocalizer,2021.2.3,59.96062985015669,
141.0,141.8,2,0.75,Stimuli\ImageFiles-Set1\Bodies\Bodies_Hanging_00002.png,0,0,0,236,236,236,,,,,,,,,,,,,141.00642829999924,0.006428299999242881,None,180.8667415,180.8667415,180.8667415,180.8667415,180.8667415,180.8667415,180.8667415,180.8667415,,003,P008,2025_Feb_01_1238,CategoryLocalizer,2021.2.3,59.96062985015669,
141.8,142.0,5,0.0,Stimuli\Blank.png,0,0,0,237,237,237,,,,,,,,,,,,,141.80750369999987,0.007503699999858782,None,181.66746559999956,181.66746559999956,181.66746559999956,181.66746559999956,181.66746559999956,181.66746559999956,181.66746559999956,181.66746559999956,,003,P008,2025_Feb_01_1238,CategoryLocalizer,2021.2.3,59.96062985015669,
142.0,142.8,2,0.75,Stimuli\ImageFiles-Set1\Bodies\Bodies_Lunging_00003.png,0,0,0,238,238,238,,,,,,,,,,,,,142.0074115999996,0.007411599999613827,None,181.86764599999879,181.86764599999879,181.86764599999879,181.86764599999879,181.86764599999879,181.86764599999879,181.86764599999879,181.86764599999879,,003,P008,2025_Feb_01_1238,CategoryLocalizer,2021.2.3,59.96062985015669,
142.8,143.0,5,0.0,Stimuli\Blank.png,0,0,0,239,239,239,,,,,,,,,,,,,142.8080487999996,0.008048799999585299,None,182.66838649999954,182.66838649999954,182.66838649999954,182.66838649999954,182.66838649999954,182.66838649999954,182.66838649999954,182.66838649999954,,003,P008,2025_Feb_01_1238,CategoryLocalizer,2021.2.3,59.96062985015669,
143.0,143.8,2,0.75,Stimuli\ImageFiles-Set1\Bodies\Bodies_Jumping_00006.png,0,0,0,240,240,240,,,,,,,,,,,,,143.0076408999994,0.0076408999993873294,None,182.8685157,182.8685157,182.8685157,182.8685157,182.8685157,182.8685157,182.8685157,182.8685157,,003,P008,2025_Feb_01_1238,CategoryLocalizer,2021.2.3,59.96062985015669,
143.8,144.0,5,0.0,Stimuli\Blank.png,0,0,0,241,241,241,,,,,,,,,,,,,143.8083549999992,0.008354999999198753,None,183.6692211999998,183.6692211999998,183.6692211999998,183.6692211999998,183.6692211999998,183.6692211999998,183.6692211999998,183.6692211999998,,003,P008,2025_Feb_01_1238,CategoryLocalizer,2021.2.3,59.96062985015669,
144.0,144.8,2,0.75,Stimuli\ImageFiles-Set1\Bodies\Bodies_Walking_00006.png,0,0,0,242,242,242,,,,,,,,,,,,,144.0085194000003,0.008519400000295718,None,183.8694015000001,183.8694015000001,183.8694015000001,183.8694015000001,183.8694015000001,183.8694015000001,183.8694015000001,183.8694015000001,,003,P008,2025_Feb_01_1238,CategoryLocalizer,2021.2.3,59.96062985015669,
144.8,145.0,5,0.0,Stimuli\Blank.png,0,0,0,243,243,243,,,,,,,,,,,,,144.81171509999876,0.011715099998752976,None,184.68679809999958,184.68679809999958,184.68679809999958,184.68679809999958,184.68679809999958,184.68679809999958,184.68679809999958,184.68679809999958,,003,P008,2025_Feb_01_1238,CategoryLocalizer,2021.2.3,59.96062985015669,
145.0,145.8,2,0.75,Stimuli\ImageFiles-Set1\Bodies\Bodies_Walking_00004.png,0,0,0,244,244,244,,,,,,,,,,,,,145.0275502000004,0.02755020000040531,None,184.90366709999944,184.90366709999944,184.90366709999944,184.90366709999944,184.90366709999944,184.90366709999944,184.90366709999944,184.90366709999944,,003,P008,2025_Feb_01_1238,CategoryLocalizer,2021.2.3,59.96062985015669,
145.8,146.0,5,0.0,Stimuli\Blank.png,0,0,0,245,245,245,,,,,,,,,,,,,145.82760129999951,0.027601299999503226,None,185.687686199999,185.687686199999,185.687686199999,185.687686199999,185.687686199999,185.687686199999,185.687686199999,185.687686199999,,003,P008,2025_Feb_01_1238,CategoryLocalizer,2021.2.3,59.96062985015669,
146.0,146.8,2,0.75,Stimuli\ImageFiles-Set1\Bodies\Bodies_Walking_00004.png,1,1,0,246,246,246,,,,,,,,,,,,,146.0105081999991,0.010508199999094359,2,185.87116889999925,185.87116889999925,185.87116889999925,185.87116889999925,185.87116889999925,185.87116889999925,185.87116889999925,185.87116889999925,0.4944595999986632,003,P008,2025_Feb_01_1238,CategoryLocalizer,2021.2.3,59.96062985015669,
146.8,147.0,5,0.0,Stimuli\Blank.png,0,0,0,247,247,247,,,,,,,,,,,,,146.8112827999994,0.011282799999378312,None,186.6718863999995,186.6718863999995,186.6718863999995,186.6718863999995,186.6718863999995,186.6718863999995,186.6718863999995,186.6718863999995,,003,P008,2025_Feb_01_1238,CategoryLocalizer,2021.2.3,59.96062985015669,
147.0,147.8,2,0.75,Stimuli\ImageFiles-Set1\Bodies\Bodies_Falling_00004.png,0,0,0,248,248,248,,,,,,,,,,,,,147.0123726999991,0.012372699999104952,None,186.8720564999985,186.8720564999985,186.8720564999985,186.8720564999985,186.8720564999985,186.8720564999985,186.8720564999985,186.8720564999985,,003,P008,2025_Feb_01_1238,CategoryLocalizer,2021.2.3,59.96062985015669,
147.8,148.0,5,0.0,Stimuli\Blank.png,0,0,0,249,249,249,,,,,,,,,,,,,147.8124986999992,0.012498699999184737,None,187.6727764999996,187.6727764999996,187.6727764999996,187.6727764999996,187.6727764999996,187.6727764999996,187.6727764999996,187.6727764999996,,003,P008,2025_Feb_01_1238,CategoryLocalizer,2021.2.3,59.96062985015669,
148.0,148.8,2,0.75,Stimuli\ImageFiles-Set1\Bodies\Bodies_Kneeling_00003.png,0,0,0,250,250,250,,,,,,,,,,,,,148.01274329999978,0.01274329999978363,None,187.8729422999986,187.8729422999986,187.8729422999986,187.8729422999986,187.8729422999986,187.8729422999986,187.8729422999986,187.8729422999986,,003,P008,2025_Feb_01_1238,CategoryLocalizer,2021.2.3,59.96062985015669,
148.8,149.0,5,0.0,Stimuli\Blank.png,0,0,0,251,251,251,,,,,,,,,,,,,148.81348350000007,0.013483500000063486,None,188.67364429999907,188.67364429999907,188.67364429999907,188.67364429999907,188.67364429999907,188.67364429999907,188.67364429999907,188.67364429999907,,003,P008,2025_Feb_01_1238,CategoryLocalizer,2021.2.3,59.96062985015669,
149.0,149.8,2,0.75,Stimuli\ImageFiles-Set1\Bodies\Bodies_SittingChair_00007.png,0,0,0,252,252,252,,,,,,,,,,,,,149.01310159999957,0.0131015999995725,None,188.8737999999994,188.8737999999994,188.8737999999994,188.8737999999994,188.8737999999994,188.8737999999994,188.8737999999994,188.8737999999994,,003,P008,2025_Feb_01_1238,CategoryLocalizer,2021.2.3,59.96062985015669,
149.8,150.0,5,0.0,Stimuli\Blank.png,0,0,0,253,253,253,,,,,,,,,,,,,149.81393339999886,0.013933399998848017,None,189.67453139999998,189.67453139999998,189.67453139999998,189.67453139999998,189.67453139999998,189.67453139999998,189.67453139999998,189.67453139999998,,003,P008,2025_Feb_01_1238,CategoryLocalizer,2021.2.3,59.96062985015669,
150.0,150.8,2,0.75,Stimuli\ImageFiles-Set1\Bodies\Bodies_Standing_00003.png,0,0,0,254,254,254,,,,,,,,,,,,,150.01461869999912,0.01461869999911869,None,189.87473039999895,189.87473039999895,189.87473039999895,189.87473039999895,189.87473039999895,189.87473039999895,189.87473039999895,189.87473039999895,,003,P008,2025_Feb_01_1238,CategoryLocalizer,2021.2.3,59.96062985015669,
150.8,151.0,5,0.0,Stimuli\Blank.png,0,0,0,255,255,255,,,,,,,,,,,,,150.8169070999993,0.016907099999286856,None,190.69213409999975,190.69213409999975,190.69213409999975,190.69213409999975,190.69213409999975,190.69213409999975,190.69213409999975,190.69213409999975,,003,P008,2025_Feb_01_1238,CategoryLocalizer,2021.2.3,59.96062985015669,
151.0,151.8,2,0.75,Stimuli\ImageFiles-Set1\Bodies\Bodies_Waving_00001.png,0,0,0,256,256,256,,,,,,,,,,,,,151.01598980000017,0.015989800000170362,None,190.89227879999999,190.89227879999999,190.89227879999999,190.89227879999999,190.89227879999999,190.89227879999999,190.89227879999999,190.89227879999999,,003,P008,2025_Feb_01_1238,CategoryLocalizer,2021.2.3,59.96062985015669,
151.8,152.0,5,0.0,Stimuli\Blank.png,0,0,0,257,257,257,,,,,,,,,,,,,151.81634399999894,0.016343999998923664,None,191.6763221000001,191.6763221000001,191.6763221000001,191.6763221000001,191.6763221000001,191.6763221000001,191.6763221000001,191.6763221000001,,003,P008,2025_Feb_01_1238,CategoryLocalizer,2021.2.3,59.96062985015669,
152.0,164.0,0,0.0,Stimuli\Blank.png,0,0,0,258,258,258,,,,,,,,,,,,,151.99966229999882,-0.00033770000118238386,None,191.8598304999996,191.8598304999996,191.8598304999996,191.8598304999996,191.8598304999996,191.8598304999996,191.8598304999996,191.8598304999996,,003,P008,2025_Feb_01_1238,CategoryLocalizer,2021.2.3,59.96062985015669,
164.0,164.8,4,0.75,Stimuli\ImageFiles-Set1\Scenes\Scenes_022.png,0,0,0,259,259,259,,,,,,,,,,,,,164.01216759999988,0.01216759999988426,None,203.88710899999933,203.88710899999933,203.88710899999933,203.88710899999933,203.88710899999933,203.88710899999933,203.88710899999933,203.88710899999933,,003,P008,2025_Feb_01_1238,CategoryLocalizer,2021.2.3,59.96062985015669,
164.8,165.0,5,0.0,Stimuli\Blank.png,0,0,0,260,260,260,,,,,,,,,,,,,164.8284822000005,0.028482200000496505,None,204.68782139999894,204.68782139999894,204.68782139999894,204.68782139999894,204.68782139999894,204.68782139999894,204.68782139999894,204.68782139999894,,003,P008,2025_Feb_01_1238,CategoryLocalizer,2021.2.3,59.96062985015669,
165.0,165.8,4,0.75,Stimuli\ImageFiles-Set1\Scenes\Scenes_048.png,0,0,0,261,261,261,,,,,,,,,,,,,165.01328209999883,0.013282099998832564,None,204.8879976999997,204.8879976999997,204.8879976999997,204.8879976999997,204.8879976999997,204.8879976999997,204.8879976999997,204.8879976999997,,003,P008,2025_Feb_01_1238,CategoryLocalizer,2021.2.3,59.96062985015669,
165.8,166.0,5,0.0,Stimuli\Blank.png,0,0,0,262,262,262,,,,,,,,,,,,,165.8284253999991,0.02842539999909377,None,205.6886988999995,205.6886988999995,205.6886988999995,205.6886988999995,205.6886988999995,205.6886988999995,205.6886988999995,205.6886988999995,,003,P008,2025_Feb_01_1238,CategoryLocalizer,2021.2.3,59.96062985015669,
166.0,166.8,4,0.75,Stimuli\ImageFiles-Set1\Scenes\Scenes_024.png,0,0,0,263,263,263,,,,,,,,,,,,,166.0116784999991,0.011678499999106862,None,205.88888279999992,205.88888279999992,205.88888279999992,205.88888279999992,205.88888279999992,205.88888279999992,205.88888279999992,205.88888279999992,,003,P008,2025_Feb_01_1238,CategoryLocalizer,2021.2.3,59.96062985015669,
166.8,167.0,5,0.0,Stimuli\Blank.png,0,0,0,264,264,264,,,,,,,,,,,,,166.82871019999948,0.028710199999466113,None,206.6896132999991,206.6896132999991,206.6896132999991,206.6896132999991,206.6896132999991,206.6896132999991,206.6896132999991,206.6896132999991,,003,P008,2025_Feb_01_1238,CategoryLocalizer,2021.2.3,59.96062985015669,
167.0,167.8,4,0.75,Stimuli\ImageFiles-Set1\Scenes\Scenes_025.png,0,0,0,265,265,265,,,,,,,,,,,,,167.01352419999967,0.013524199999665143,None,206.88979289999952,206.88979289999952,206.88979289999952,206.88979289999952,206.88979289999952,206.88979289999952,206.88979289999952,206.88979289999952,,003,P008,2025_Feb_01_1238,CategoryLocalizer,2021.2.3,59.96062985015669,
167.8,168.0,5,0.0,Stimuli\Blank.png,0,0,0,266,266,266,,,,,,,,,,,,,167.83176060000005,0.031760600000040995,None,207.70717309999964,207.70717309999964,207.70717309999964,207.70717309999964,207.70717309999964,207.70717309999964,207.70717309999964,207.70717309999964,,003,P008,2025_Feb_01_1238,CategoryLocalizer,2021.2.3,59.96062985015669,
168.0,168.8,4,0.75,Stimuli\ImageFiles-Set1\Scenes\Scenes_017.png,0,0,0,267,267,267,,,,,,,,,,,,,168.03146670000024,0.031466700000237324,None,207.9073348999991,207.9073348999991,207.9073348999991,207.9073348999991,207.9073348999991,207.9073348999991,207.9073348999991,207.9073348999991,,003,P008,2025_Feb_01_1238,CategoryLocalizer,2021.2.3,59.96062985015669,
168.8,169.0,5,0.0,Stimuli\Blank.png,0,0,0,268,268,268,,,,,,,,,,,,,168.83146229999875,0.0314622999987364,None,208.69136099999923,208.69136099999923,208.69136099999923,208.69136099999923,208.69136099999923,208.69136099999923,208.69136099999923,208.69136099999923,,003,P008,2025_Feb_01_1238,CategoryLocalizer,2021.2.3,59.96062985015669,
169.0,169.8,4,0.75,Stimuli\ImageFiles-Set1\Scenes\Scenes_017.png,1,1,0,269,269,269,,,,,,,,,,,,,169.0140011000003,0.014001100000314182,2,208.8748496999997,208.8748496999997,208.8748496999997,208.8748496999997,208.8748496999997,208.8748496999997,208.8748496999997,208.8748496999997,0.4787289000014425,003,P008,2025_Feb_01_1238,CategoryLocalizer,2021.2.3,59.96062985015669,
169.8,170.0,5,0.0,Stimuli\Blank.png,0,0,0,270,270,270,,,,,,,,,,,,,169.81685209999887,0.016852099998857284,None,209.69226919999892,209.69226919999892,209.69226919999892,209.69226919999892,209.69226919999892,209.69226919999892,209.69226919999892,209.69226919999892,,003,P008,2025_Feb_01_1238,CategoryLocalizer,2021.2.3,59.96062985015669,
170.0,170.8,4,0.75,Stimuli\ImageFiles-Set1\Scenes\Scenes_029.png,0,0,0,271,271,271,,,,,,,,,,,,,170.01686410000002,0.0168641000000207,None,209.8924253999994,209.8924253999994,209.8924253999994,209.8924253999994,209.8924253999994,209.8924253999994,209.8924253999994,209.8924253999994,,003,P008,2025_Feb_01_1238,CategoryLocalizer,2021.2.3,59.96062985015669,
170.8,171.0,5,0.0,Stimuli\Blank.png,0,0,0,272,272,272,,,,,,,,,,,,,170.8157646999989,0.01576469999889696,None,210.67649439999877,210.67649439999877,210.67649439999877,210.67649439999877,210.67649439999877,210.67649439999877,210.67649439999877,210.67649439999877,,003,P008,2025_Feb_01_1238,CategoryLocalizer,2021.2.3,59.96062985015669,
171.0,171.8,4,0.75,Stimuli\ImageFiles-Set1\Scenes\Scenes_035.png,0,0,0,273,273,273,,,,,,,,,,,,,171.00016549999964,0.0001654999996389961,None,210.87661939999998,210.87661939999998,210.87661939999998,210.87661939999998,210.87661939999998,210.87661939999998,210.87661939999998,210.87661939999998,,003,P008,2025_Feb_01_1238,CategoryLocalizer,2021.2.3,59.96062985015669,
171.8,172.0,5,0.0,Stimuli\Blank.png,0,0,0,274,274,274,,,,,,,,,,,,,171.81652009999925,0.016520099999240756,None,211.67733029999908,211.67733029999908,211.67733029999908,211.67733029999908,211.67733029999908,211.67733029999908,211.67733029999908,211.67733029999908,,003,P008,2025_Feb_01_1238,CategoryLocalizer,2021.2.3,59.96062985015669,
172.0,172.8,4,0.75,Stimuli\ImageFiles-Set1\Scenes\Scenes_039.png,0,0,0,275,275,275,,,,,,,,,,,,,172.00209689999974,0.0020968999997421633,None,211.87750869999945,211.87750869999945,211.87750869999945,211.87750869999945,211.87750869999945,211.87750869999945,211.87750869999945,211.87750869999945,,003,P008,2025_Feb_01_1238,CategoryLocalizer,2021.2.3,59.96062985015669,
172.8,173.0,5,0.0,Stimuli\Blank.png,0,0,0,276,276,276,,,,,,,,,,,,,172.81765239999913,0.017652399999121826,None,212.67821869999898,212.67821869999898,212.67821869999898,212.67821869999898,212.67821869999898,212.67821869999898,212.67821869999898,212.67821869999898,,003,P008,2025_Feb_01_1238,CategoryLocalizer,2021.2.3,59.96062985015669,
173.0,173.8,4,0.75,Stimuli\ImageFiles-Set1\Scenes\Scenes_023.png,0,0,0,277,277,277,,,,,,,,,,,,,173.0010282000003,0.0010282000002916902,None,212.86171009999998,212.86171009999998,212.86171009999998,212.86171009999998,212.86171009999998,212.86171009999998,212.86171009999998,212.86171009999998,,003,P008,2025_Feb_01_1238,CategoryLocalizer,2021.2.3,59.96062985015669,
173.8,174.0,5,0.0,Stimuli\Blank.png,0,0,0,278,278,278,,,,,,,,,,,,,173.80210369999986,0.0021036999998500505,None,213.66242319999947,213.66242319999947,213.66242319999947,213.66242319999947,213.66242319999947,213.66242319999947,213.66242319999947,213.66242319999947,,003,P008,2025_Feb_01_1238,CategoryLocalizer,2021.2.3,59.96062985015669,
174.0,174.8,4,0.75,Stimuli\ImageFiles-Set1\Scenes\Scenes_008.png,0,0,0,279,279,279,,,,,,,,,,,,,174.00269069999922,0.0026906999992206693,None,213.8792758999989,213.8792758999989,213.8792758999989,213.8792758999989,213.8792758999989,213.8792758999989,213.8792758999989,213.8792758999989,,003,P008,2025_Feb_01_1238,CategoryLocalizer,2021.2.3,59.96062985015669,
174.8,175.0,5,0.0,Stimuli\Blank.png,0,0,0,280,280,280,,,,,,,,,,,,,174.81910029999926,0.019100299999252,None,214.67999039999995,214.67999039999995,214.67999039999995,214.67999039999995,214.67999039999995,214.67999039999995,214.67999039999995,214.67999039999995,,003,P008,2025_Feb_01_1238,CategoryLocalizer,2021.2.3,59.96062985015669,
175.0,175.8,4,0.75,Stimuli\ImageFiles-Set1\Scenes\Scenes_005.png,0,0,0,281,281,281,,,,,,,,,,,,,175.00280819999898,0.0028081999989808537,None,214.86347869999918,214.86347869999918,214.86347869999918,214.86347869999918,214.86347869999918,214.86347869999918,214.86347869999918,214.86347869999918,,003,P008,2025_Feb_01_1238,CategoryLocalizer,2021.2.3,59.96062985015669,
175.8,176.0,5,0.0,Stimuli\Blank.png,0,0,0,282,282,282,,,,,,,,,,,,,175.80419369999981,0.004193699999802902,None,215.6641921999999,215.6641921999999,215.6641921999999,215.6641921999999,215.6641921999999,215.6641921999999,215.6641921999999,215.6641921999999,,003,P008,2025_Feb_01_1238,CategoryLocalizer,2021.2.3,59.96062985015669,
176.0,176.8,4,0.75,Stimuli\ImageFiles-Set1\Scenes\Scenes_004.png,1,1,0,283,283,283,,,,,,,,,,,,,176.0037881999997,0.003788199999689823,None,215.88104959999873,215.88104959999873,215.88104959999873,215.88104959999873,215.88104959999873,215.88104959999873,215.88104959999873,215.88104959999873,,003,P008,2025_Feb_01_1238,CategoryLocalizer,2021.2.3,59.96062985015669,
176.8,177.0,5,0.0,Stimuli\Blank.png,0,0,0,284,284,284,,,,,,,,,,,,,176.8215937999994,0.021593799999379826,None,216.6817592999996,216.6817592999996,216.6817592999996,216.6817592999996,216.6817592999996,216.6817592999996,216.6817592999996,216.6817592999996,,003,P008,2025_Feb_01_1238,CategoryLocalizer,2021.2.3,59.96062985015669,
177.0,177.8,4,0.75,Stimuli\ImageFiles-Set1\Scenes\Scenes_049.png,0,0,0,285,285,285,,,,,,,,,,,,,177.00509789999887,0.00509789999887289,None,216.8819308000002,216.8819308000002,216.8819308000002,216.8819308000002,216.8819308000002,216.8819308000002,216.8819308000002,216.8819308000002,,003,P008,2025_Feb_01_1238,CategoryLocalizer,2021.2.3,59.96062985015669,
