eventStartTime,eventEndTime,eventCond,imSize,imFile,repeatedImage,responseEvent,Events.thisRepN,Events.thisTrialN,Events.thisN,Events.thisIndex,Instructions.started,Instructions.stopped,participantReadyResponse.keys,participantReadyResponse.rt,participantReadyResponse.started,participantReadyResponse.stopped,startWaitforTrigger,triggerResponse.keys,triggerResponse.rt,triggerResponse.started,triggerResponse.stopped,globalTimer,actualStartTime,startTimingDiff,participantResponse.keys,participantResponse.started,participantResponse.stopped,image.started,image.stopped,fixationOutside.started,fixationOutside.stopped,fixationInside.started,fixationInside.stopped,participantResponse.rt,session,participant,date,expName,psychopyVersion,frameRate,
,,,,,,,,,,,13.94303680000121,None,2,9.864963500000158,13.94303680000121,None,,,,,,,,,,,,,,,,,,,002,P008,2025_Feb_01_1210,CategoryLocalizer,2021.2.3,59.93367739299467,
,,,,,,,,,,,,,,,,,23.822921800001495,5,13.885194700000284,23.835859800001344,None,,,,,,,,,,,,,,002,P008,2025_Feb_01_1210,CategoryLocalizer,2021.2.3,59.93367739299467,
0.0,12.0,0,0.0,Stimuli\Blank.png,0,0,0,0,0,0,,,,,,,,,,,,37.73581750000085,0.04602870000053372,0.04602870000053372,None,37.79820280000058,None,37.79820280000058,None,37.79820280000058,None,37.79820280000058,None,,002,P008,2025_Feb_01_1210,CategoryLocalizer,2021.2.3,59.93367739299467,
12.0,12.8,1,0.75,Stimuli\ImageFiles-Set2\Objects\Object_Shoe_00001.png,0,0,0,1,1,1,,,,,,,,,,,,,12.011247899999944,0.011247899999943911,None,49.77550710000105,49.77550710000105,49.77550710000105,49.77550710000105,49.77550710000105,49.77550710000105,49.77550710000105,49.77550710000105,,002,P008,2025_Feb_01_1210,CategoryLocalizer,2021.2.3,59.93367739299467,
12.8,13.0,5,0.0,Stimuli\Blank.png,0,0,0,2,2,2,,,,,,,,,,,,,12.826322900000378,0.026322900000376848,None,50.57617820000087,50.57617820000087,50.57617820000087,50.57617820000087,50.57617820000087,50.57617820000087,50.57617820000087,50.57617820000087,,002,P008,2025_Feb_01_1210,CategoryLocalizer,2021.2.3,59.93367739299467,
13.0,13.8,1,0.75,Stimuli\ImageFiles-Set2\Objects\Object_Truck_00001.png,0,0,0,3,3,3,,,,,,,,,,,,,13.010889200000747,0.010889200000747223,None,50.776353900000686,50.776353900000686,50.776353900000686,50.776353900000686,50.776353900000686,50.776353900000686,50.776353900000686,50.776353900000686,,002,P008,2025_Feb_01_1210,CategoryLocalizer,2021.2.3,59.93367739299467,
13.8,14.0,5,0.0,Stimuli\Blank.png,0,0,0,4,4,4,,,,,,,,,,,,,13.827308300000368,0.027308300000367325,None,51.577060800000254,51.577060800000254,51.577060800000254,51.577060800000254,51.577060800000254,51.577060800000254,51.577060800000254,51.577060800000254,,002,P008,2025_Feb_01_1210,CategoryLocalizer,2021.2.3,59.93367739299467,
14.0,14.8,1,0.75,Stimuli\ImageFiles-Set2\Objects\Object_Hat_00001.png,0,0,0,5,5,5,,,,,,,,,,,,,14.010836199999176,0.010836199999175733,None,51.76055300000007,51.76055300000007,51.76055300000007,51.76055300000007,51.76055300000007,51.76055300000007,51.76055300000007,51.76055300000007,,002,P008,2025_Feb_01_1210,CategoryLocalizer,2021.2.3,59.93367739299467,
14.8,15.0,5,0.0,Stimuli\Blank.png,0,0,0,6,6,6,,,,,,,,,,,,,14.81084489999921,0.0108448999992099,None,52.561274100000446,52.561274100000446,52.561274100000446,52.561274100000446,52.561274100000446,52.561274100000446,52.561274100000446,52.561274100000446,,002,P008,2025_Feb_01_1210,CategoryLocalizer,2021.2.3,59.93367739299467,
15.0,15.8,1,0.75,Stimuli\ImageFiles-Set2\Objects\Object_Hat_00001.png,1,1,0,7,7,7,,,,,,,,,,,,,15.011533499999132,0.011533499999131891,2,52.76143640000009,52.76143640000009,52.76143640000009,52.76143640000009,52.76143640000009,52.76143640000009,52.76143640000009,52.76143640000009,0.4133239999991929,002,P008,2025_Feb_01_1210,CategoryLocalizer,2021.2.3,59.93367739299467,
15.8,16.0,5,0.0,Stimuli\Blank.png,0,0,0,8,8,8,,,,,,,,,,,,,15.812634300000354,0.012634300000353704,None,53.562151000000085,53.562151000000085,53.562151000000085,53.562151000000085,53.562151000000085,53.562151000000085,53.562151000000085,53.562151000000085,,002,P008,2025_Feb_01_1210,CategoryLocalizer,2021.2.3,59.93367739299467,
16.0,16.8,1,0.75,Stimuli\ImageFiles-Set2\Objects\Object_Scissors_00001.png,0,0,0,9,9,9,,,,,,,,,,,,,16.01176519999899,0.011765199998990283,None,53.76232540000092,53.76232540000092,53.76232540000092,53.76232540000092,53.76232540000092,53.76232540000092,53.76232540000092,53.76232540000092,,002,P008,2025_Feb_01_1210,CategoryLocalizer,2021.2.3,59.93367739299467,
16.8,17.0,5,0.0,Stimuli\Blank.png,0,0,0,10,10,10,,,,,,,,,,,,,16.815246000000116,0.01524600000011489,None,54.57971700000053,54.57971700000053,54.57971700000053,54.57971700000053,54.57971700000053,54.57971700000053,54.57971700000053,54.57971700000053,,002,P008,2025_Feb_01_1210,CategoryLocalizer,2021.2.3,59.93367739299467,
17.0,17.8,1,0.75,Stimuli\ImageFiles-Set2\Objects\Object_Bowl_00001.png,0,0,0,11,11,11,,,,,,,,,,,,,17.03011510000033,0.03011510000033013,None,54.77989310000157,54.77989310000157,54.77989310000157,54.77989310000157,54.77989310000157,54.77989310000157,54.77989310000157,54.77989310000157,,002,P008,2025_Feb_01_1210,CategoryLocalizer,2021.2.3,59.93367739299467,
17.8,18.0,5,0.0,Stimuli\Blank.png,0,0,0,12,12,12,,,,,,,,,,,,,17.81560999999965,0.015609999999650626,None,55.58061960000123,55.58061960000123,55.58061960000123,55.58061960000123,55.58061960000123,55.58061960000123,55.58061960000123,55.58061960000123,,002,P008,2025_Feb_01_1210,CategoryLocalizer,2021.2.3,59.93367739299467,
18.0,18.8,1,0.75,Stimuli\ImageFiles-Set2\Objects\Object_WaterCooler_00001.png,0,0,0,13,13,13,,,,,,,,,,,,,18.01371139999901,0.01371139999901061,None,55.78078950000054,55.78078950000054,55.78078950000054,55.78078950000054,55.78078950000054,55.78078950000054,55.78078950000054,55.78078950000054,,002,P008,2025_Feb_01_1210,CategoryLocalizer,2021.2.3,59.93367739299467,
18.8,19.0,5,0.0,Stimuli\Blank.png,0,0,0,14,14,14,,,,,,,,,,,,,18.83117730000049,0.031177300000489794,None,56.58149150000099,56.58149150000099,56.58149150000099,56.58149150000099,56.58149150000099,56.58149150000099,56.58149150000099,56.58149150000099,,002,P008,2025_Feb_01_1210,CategoryLocalizer,2021.2.3,59.93367739299467,
19.0,19.8,1,0.75,Stimuli\ImageFiles-Set2\Objects\Object_Dumpster_00001.png,0,0,0,15,15,15,,,,,,,,,,,,,19.015374799999336,0.015374799999335664,None,56.781653000000006,56.781653000000006,56.781653000000006,56.781653000000006,56.781653000000006,56.781653000000006,56.781653000000006,56.781653000000006,,002,P008,2025_Feb_01_1210,CategoryLocalizer,2021.2.3,59.93367739299467,
19.8,20.0,5,0.0,Stimuli\Blank.png,0,0,0,16,16,16,,,,,,,,,,,,,19.815835100000186,0.015835100000185065,None,57.56569600000148,57.56569600000148,57.56569600000148,57.56569600000148,57.56569600000148,57.56569600000148,57.56569600000148,57.56569600000148,,002,P008,2025_Feb_01_1210,CategoryLocalizer,2021.2.3,59.93367739299467,
20.0,20.8,1,0.75,Stimuli\ImageFiles-Set2\Objects\Object_Pepper_00001.png,0,0,0,17,17,17,,,,,,,,,,,,,19.99925819999953,-0.0007418000004690839,None,57.74915080000028,57.74915080000028,57.74915080000028,57.74915080000028,57.74915080000028,57.74915080000028,57.74915080000028,57.74915080000028,,002,P008,2025_Feb_01_1210,CategoryLocalizer,2021.2.3,59.93367739299467,
20.8,21.0,5,0.0,Stimuli\Blank.png,0,0,0,18,18,18,,,,,,,,,,,,,20.79949459999989,-0.0005054000001116776,None,58.54992530000163,58.54992530000163,58.54992530000163,58.54992530000163,58.54992530000163,58.54992530000163,58.54992530000163,58.54992530000163,,002,P008,2025_Feb_01_1210,CategoryLocalizer,2021.2.3,59.93367739299467,
21.0,21.8,1,0.75,Stimuli\ImageFiles-Set2\Objects\Object_Microphone_00001.png,0,0,0,19,19,19,,,,,,,,,,,,,21.000456800000393,0.00045680000039283186,None,58.76675100000102,58.76675100000102,58.76675100000102,58.76675100000102,58.76675100000102,58.76675100000102,58.76675100000102,58.76675100000102,,002,P008,2025_Feb_01_1210,CategoryLocalizer,2021.2.3,59.93367739299467,
21.8,22.0,5,0.0,Stimuli\Blank.png,0,0,0,20,20,20,,,,,,,,,,,,,21.817835100000593,0.01783510000059252,None,59.567463400000634,59.567463400000634,59.567463400000634,59.567463400000634,59.567463400000634,59.567463400000634,59.567463400000634,59.567463400000634,,002,P008,2025_Feb_01_1210,CategoryLocalizer,2021.2.3,59.93367739299467,
22.0,22.8,1,0.75,Stimuli\ImageFiles-Set2\Objects\Object_Boot_00001.png,1,1,0,21,21,21,,,,,,,,,,,,,22.000988199999483,0.0009881999994831858,None,59.750958900000114,59.750958900000114,59.750958900000114,59.750958900000114,59.750958900000114,59.750958900000114,59.750958900000114,59.750958900000114,,002,P008,2025_Feb_01_1210,CategoryLocalizer,2021.2.3,59.93367739299467,
22.8,23.0,5,0.0,Stimuli\Blank.png,0,0,0,22,22,22,,,,,,,,,,,,,22.801890200000344,0.001890200000342901,None,60.55178360000173,60.55178360000173,60.55178360000173,60.55178360000173,60.55178360000173,60.55178360000173,60.55178360000173,60.55178360000173,,002,P008,2025_Feb_01_1210,CategoryLocalizer,2021.2.3,59.93367739299467,
23.0,23.8,1,0.75,Stimuli\ImageFiles-Set2\Objects\Object_Noodle_00001.png,0,0,0,23,23,23,,,,,,,,,,,,,23.001497199998994,0.0014971999989938922,None,60.75196800000049,60.75196800000049,60.75196800000049,60.75196800000049,60.75196800000049,60.75196800000049,60.75196800000049,60.75196800000049,,002,P008,2025_Feb_01_1210,CategoryLocalizer,2021.2.3,59.93367739299467,
23.8,24.0,5,0.0,Stimuli\Blank.png,0,0,0,24,24,24,,,,,,,,,,,,,23.802695200000016,0.002695200000015774,None,61.55254810000042,61.55254810000042,61.55254810000042,61.55254810000042,61.55254810000042,61.55254810000042,61.55254810000042,61.55254810000042,,002,P008,2025_Feb_01_1210,CategoryLocalizer,2021.2.3,59.93367739299467,
24.0,24.8,1,0.75,Stimuli\ImageFiles-Set2\Objects\Object_Noodle_00001.png,0,0,0,25,25,25,,,,,,,,,,,,,24.002214599999206,0.002214599999206257,2,61.75272420000147,61.75272420000147,61.75272420000147,61.75272420000147,61.75272420000147,61.75272420000147,61.75272420000147,61.75272420000147,0.31107950000114215,002,P008,2025_Feb_01_1210,CategoryLocalizer,2021.2.3,59.93367739299467,
24.8,25.0,5,0.0,Stimuli\Blank.png,0,0,0,26,26,26,,,,,,,,,,,,,24.80383400000028,0.003834000000278337,None,62.55345580000176,62.55345580000176,62.55345580000176,62.55345580000176,62.55345580000176,62.55345580000176,62.55345580000176,62.55345580000176,,002,P008,2025_Feb_01_1210,CategoryLocalizer,2021.2.3,59.93367739299467,
25.0,25.8,1,0.75,Stimuli\ImageFiles-Set2\Objects\Object_Plate_00001.png,0,0,0,27,27,27,,,,,,,,,,,,,25.005065400000603,0.005065400000603404,None,62.77029770000081,62.77029770000081,62.77029770000081,62.77029770000081,62.77029770000081,62.77029770000081,62.77029770000081,62.77029770000081,,002,P008,2025_Feb_01_1210,CategoryLocalizer,2021.2.3,59.93367739299467,
25.8,26.0,5,0.0,Stimuli\Blank.png,0,0,0,28,28,28,,,,,,,,,,,,,25.821159699999043,0.021159699999042658,None,63.571013600001606,63.571013600001606,63.571013600001606,63.571013600001606,63.571013600001606,63.571013600001606,63.571013600001606,63.571013600001606,,002,P008,2025_Feb_01_1210,CategoryLocalizer,2021.2.3,59.93367739299467,
26.0,26.8,1,0.75,Stimuli\ImageFiles-Set2\Objects\Object_Mug_00001.png,0,0,0,29,29,29,,,,,,,,,,,,,26.004546899999696,0.004546899999695597,None,63.771216500001174,63.771216500001174,63.771216500001174,63.771216500001174,63.771216500001174,63.771216500001174,63.771216500001174,63.771216500001174,,002,P008,2025_Feb_01_1210,CategoryLocalizer,2021.2.3,59.93367739299467,
26.8,27.0,5,0.0,Stimuli\Blank.png,0,0,0,30,30,30,,,,,,,,,,,,,26.82249629999933,0.022496299999328784,None,64.57188900000074,64.57188900000074,64.57188900000074,64.57188900000074,64.57188900000074,64.57188900000074,64.57188900000074,64.57188900000074,,002,P008,2025_Feb_01_1210,CategoryLocalizer,2021.2.3,59.93367739299467,
27.0,27.8,1,0.75,Stimuli\ImageFiles-Set2\Objects\Object_Car_00001.png,0,0,0,31,31,31,,,,,,,,,,,,,27.006853999999294,0.006853999999293592,None,64.77207480000106,64.77207480000106,64.77207480000106,64.77207480000106,64.77207480000106,64.77207480000106,64.77207480000106,64.77207480000106,,002,P008,2025_Feb_01_1210,CategoryLocalizer,2021.2.3,59.93367739299467,
27.8,28.0,5,0.0,Stimuli\Blank.png,0,0,0,32,32,32,,,,,,,,,,,,,27.82368040000074,0.0236804000007389,None,65.57278870000118,65.57278870000118,65.57278870000118,65.57278870000118,65.57278870000118,65.57278870000118,65.57278870000118,65.57278870000118,,002,P008,2025_Feb_01_1210,CategoryLocalizer,2021.2.3,59.93367739299467,
28.0,28.8,2,0.75,Stimuli\ImageFiles-Set2\Bodies\Bodies_Punching_00002.png,0,0,0,33,33,33,,,,,,,,,,,,,28.006841200000054,0.0068412000000535045,None,65.77297670000007,65.77297670000007,65.77297670000007,65.77297670000007,65.77297670000007,65.77297670000007,65.77297670000007,65.77297670000007,,002,P008,2025_Feb_01_1210,CategoryLocalizer,2021.2.3,59.93367739299467,
28.8,29.0,5,0.0,Stimuli\Blank.png,0,0,0,34,34,34,,,,,,,,,,,,,28.825057500000185,0.025057500000183808,None,66.59036230000129,66.59036230000129,66.59036230000129,66.59036230000129,66.59036230000129,66.59036230000129,66.59036230000129,66.59036230000129,,002,P008,2025_Feb_01_1210,CategoryLocalizer,2021.2.3,59.93367739299467,
29.0,29.8,2,0.75,Stimuli\ImageFiles-Set2\Bodies\Bodies_Running_00001.png,0,0,0,35,35,35,,,,,,,,,,,,,29.026051700000608,0.026051700000607525,None,66.79051760000038,66.79051760000038,66.79051760000038,66.79051760000038,66.79051760000038,66.79051760000038,66.79051760000038,66.79051760000038,,002,P008,2025_Feb_01_1210,CategoryLocalizer,2021.2.3,59.93367739299467,
29.8,30.0,5,0.0,Stimuli\Blank.png,0,0,0,36,36,36,,,,,,,,,,,,,29.82475610000074,0.024756100000740133,None,67.57459800000106,67.57459800000106,67.57459800000106,67.57459800000106,67.57459800000106,67.57459800000106,67.57459800000106,67.57459800000106,,002,P008,2025_Feb_01_1210,CategoryLocalizer,2021.2.3,59.93367739299467,
30.0,30.8,2,0.75,Stimuli\ImageFiles-Set2\Bodies\Bodies_PushUp_00001.png,0,0,0,37,37,37,,,,,,,,,,,,,30.010219800000414,0.01021980000041367,None,67.77472810000108,67.77472810000108,67.77472810000108,67.77472810000108,67.77472810000108,67.77472810000108,67.77472810000108,67.77472810000108,,002,P008,2025_Feb_01_1210,CategoryLocalizer,2021.2.3,59.93367739299467,
30.8,31.0,5,0.0,Stimuli\Blank.png,0,0,0,38,38,38,,,,,,,,,,,,,30.82544869999947,0.02544869999946897,None,68.57545600000049,68.57545600000049,68.57545600000049,68.57545600000049,68.57545600000049,68.57545600000049,68.57545600000049,68.57545600000049,,002,P008,2025_Feb_01_1210,CategoryLocalizer,2021.2.3,59.93367739299467,
31.0,31.8,2,0.75,Stimuli\ImageFiles-Set2\Bodies\Bodies_Kneeling_00004.png,0,0,0,39,39,39,,,,,,,,,,,,,31.01043419999951,0.010434199999508564,None,68.7756326000017,68.7756326000017,68.7756326000017,68.7756326000017,68.7756326000017,68.7756326000017,68.7756326000017,68.7756326000017,,002,P008,2025_Feb_01_1210,CategoryLocalizer,2021.2.3,59.93367739299467,
31.8,32.0,5,0.0,Stimuli\Blank.png,0,0,0,40,40,40,,,,,,,,,,,,,31.826172499999302,0.02617249999930138,None,69.57631700000093,69.57631700000093,69.57631700000093,69.57631700000093,69.57631700000093,69.57631700000093,69.57631700000093,69.57631700000093,,002,P008,2025_Feb_01_1210,CategoryLocalizer,2021.2.3,59.93367739299467,
32.0,32.8,2,0.75,Stimuli\ImageFiles-Set2\Bodies\Bodies_Running_00005.png,0,0,0,41,41,41,,,,,,,,,,,,,32.0099539999992,0.00995399999919755,None,69.7765130000007,69.7765130000007,69.7765130000007,69.7765130000007,69.7765130000007,69.7765130000007,69.7765130000007,69.7765130000007,,002,P008,2025_Feb_01_1210,CategoryLocalizer,2021.2.3,59.93367739299467,
32.8,33.0,5,0.0,Stimuli\Blank.png,0,0,0,42,42,42,,,,,,,,,,,,,32.82730950000041,0.027309500000413323,None,70.57719820000057,70.57719820000057,70.57719820000057,70.57719820000057,70.57719820000057,70.57719820000057,70.57719820000057,70.57719820000057,,002,P008,2025_Feb_01_1210,CategoryLocalizer,2021.2.3,59.93367739299467,
33.0,33.8,2,0.75,Stimuli\ImageFiles-Set2\Bodies\Bodies_Waving_00002.png,0,0,0,43,43,43,,,,,,,,,,,,,33.01141219999954,0.011412199999540462,None,70.77735270000085,70.77735270000085,70.77735270000085,70.77735270000085,70.77735270000085,70.77735270000085,70.77735270000085,70.77735270000085,,002,P008,2025_Feb_01_1210,CategoryLocalizer,2021.2.3,59.93367739299467,
33.8,34.0,5,0.0,Stimuli\Blank.png,0,0,0,44,44,44,,,,,,,,,,,,,33.830133899999055,0.03013389999905769,None,71.59475080000084,71.59475080000084,71.59475080000084,71.59475080000084,71.59475080000084,71.59475080000084,71.59475080000084,71.59475080000084,,002,P008,2025_Feb_01_1210,CategoryLocalizer,2021.2.3,59.93367739299467,
34.0,34.8,2,0.75,Stimuli\ImageFiles-Set2\Bodies\Bodies_Kneeling_00002.png,0,0,0,45,45,45,,,,,,,,,,,,,34.02880499999992,0.028804999999920256,None,71.7949445000013,71.7949445000013,71.7949445000013,71.7949445000013,71.7949445000013,71.7949445000013,71.7949445000013,71.7949445000013,,002,P008,2025_Feb_01_1210,CategoryLocalizer,2021.2.3,59.93367739299467,
34.8,35.0,5,0.0,Stimuli\Blank.png,0,0,0,46,46,46,,,,,,,,,,,,,34.830278100000214,0.030278100000217023,None,72.59565630000179,72.59565630000179,72.59565630000179,72.59565630000179,72.59565630000179,72.59565630000179,72.59565630000179,72.59565630000179,,002,P008,2025_Feb_01_1210,CategoryLocalizer,2021.2.3,59.93367739299467,
35.0,35.8,2,0.75,Stimuli\ImageFiles-Set2\Bodies\Bodies_Kicking_00006.png,0,0,0,47,47,47,,,,,,,,,,,,,35.029375599999184,0.029375599999184487,None,72.77915140000005,72.77915140000005,72.77915140000005,72.77915140000005,72.77915140000005,72.77915140000005,72.77915140000005,72.77915140000005,,002,P008,2025_Feb_01_1210,CategoryLocalizer,2021.2.3,59.93367739299467,
35.8,36.0,5,0.0,Stimuli\Blank.png,0,0,0,48,48,48,,,,,,,,,,,,,35.81520710000041,0.015207100000409923,None,73.5798575000008,73.5798575000008,73.5798575000008,73.5798575000008,73.5798575000008,73.5798575000008,73.5798575000008,73.5798575000008,,002,P008,2025_Feb_01_1210,CategoryLocalizer,2021.2.3,59.93367739299467,
36.0,36.8,2,0.75,Stimuli\ImageFiles-Set2\Bodies\Bodies_Kneeling_00006.png,0,0,0,49,49,49,,,,,,,,,,,,,36.03007919999982,0.03007919999981823,None,73.78002930000002,73.78002930000002,73.78002930000002,73.78002930000002,73.78002930000002,73.78002930000002,73.78002930000002,73.78002930000002,,002,P008,2025_Feb_01_1210,CategoryLocalizer,2021.2.3,59.93367739299467,
36.8,37.0,5,0.0,Stimuli\Blank.png,0,0,0,50,50,50,,,,,,,,,,,,,36.81728760000078,0.017287600000784664,None,74.58075270000154,74.58075270000154,74.58075270000154,74.58075270000154,74.58075270000154,74.58075270000154,74.58075270000154,74.58075270000154,,002,P008,2025_Feb_01_1210,CategoryLocalizer,2021.2.3,59.93367739299467,
37.0,37.8,2,0.75,Stimuli\ImageFiles-Set2\Bodies\Bodies_SittingFloor_00004.png,0,0,0,51,51,51,,,,,,,,,,,,,37.01609230000031,0.01609230000030948,None,74.78094820000115,74.78094820000115,74.78094820000115,74.78094820000115,74.78094820000115,74.78094820000115,74.78094820000115,74.78094820000115,,002,P008,2025_Feb_01_1210,CategoryLocalizer,2021.2.3,59.93367739299467,
37.8,38.0,5,0.0,Stimuli\Blank.png,0,0,0,52,52,52,,,,,,,,,,,,,37.81517460000032,0.015174600000321448,None,75.56495110000105,75.56495110000105,75.56495110000105,75.56495110000105,75.56495110000105,75.56495110000105,75.56495110000105,75.56495110000105,,002,P008,2025_Feb_01_1210,CategoryLocalizer,2021.2.3,59.93367739299467,
38.0,38.8,2,0.75,Stimuli\ImageFiles-Set2\Bodies\Bodies_SittingFloor_00004.png,1,1,0,53,53,53,,,,,,,,,,,,,38.01463859999967,0.014638599999670987,2,75.76512470000125,75.76512470000125,75.76512470000125,75.76512470000125,75.76512470000125,75.76512470000125,75.76512470000125,75.76512470000125,0.4751449999985198,002,P008,2025_Feb_01_1210,CategoryLocalizer,2021.2.3,59.93367739299467,
38.8,39.0,5,0.0,Stimuli\Blank.png,0,0,0,54,54,54,,,,,,,,,,,,,38.81544639999993,0.015446399999930804,None,76.56582740000158,76.56582740000158,76.56582740000158,76.56582740000158,76.56582740000158,76.56582740000158,76.56582740000158,76.56582740000158,,002,P008,2025_Feb_01_1210,CategoryLocalizer,2021.2.3,59.93367739299467,
39.0,39.8,2,0.75,Stimuli\ImageFiles-Set2\Bodies\Bodies_SittingChair_00002.png,0,0,0,55,55,55,,,,,,,,,,,,,39.000266299999566,0.0002662999995663995,None,76.76600000000144,76.76600000000144,76.76600000000144,76.76600000000144,76.76600000000144,76.76600000000144,76.76600000000144,76.76600000000144,,002,P008,2025_Feb_01_1210,CategoryLocalizer,2021.2.3,59.93367739299467,
39.8,40.0,5,0.0,Stimuli\Blank.png,0,0,0,56,56,56,,,,,,,,,,,,,39.81692920000023,0.016929200000234346,None,77.56671240000105,77.56671240000105,77.56671240000105,77.56671240000105,77.56671240000105,77.56671240000105,77.56671240000105,77.56671240000105,,002,P008,2025_Feb_01_1210,CategoryLocalizer,2021.2.3,59.93367739299467,
40.0,40.8,2,0.75,Stimuli\ImageFiles-Set2\Bodies\Bodies_PushUp_00003.png,0,0,0,57,57,57,,,,,,,,,,,,,40.000159900000654,0.0001599000006535789,None,77.75021540000125,77.75021540000125,77.75021540000125,77.75021540000125,77.75021540000125,77.75021540000125,77.75021540000125,77.75021540000125,,002,P008,2025_Feb_01_1210,CategoryLocalizer,2021.2.3,59.93367739299467,
40.8,41.0,5,0.0,Stimuli\Blank.png,0,0,0,58,58,58,,,,,,,,,,,,,40.801541499999075,0.0015414999990781553,None,78.55093790000137,78.55093790000137,78.55093790000137,78.55093790000137,78.55093790000137,78.55093790000137,78.55093790000137,78.55093790000137,,002,P008,2025_Feb_01_1210,CategoryLocalizer,2021.2.3,59.93367739299467,
41.0,41.8,2,0.75,Stimuli\ImageFiles-Set2\Bodies\Bodies_Falling_00003.png,0,0,0,59,59,59,,,,,,,,,,,,,41.0012499000004,0.0012499000004027039,None,78.75125280000066,78.75125280000066,78.75125280000066,78.75125280000066,78.75125280000066,78.75125280000066,78.75125280000066,78.75125280000066,,002,P008,2025_Feb_01_1210,CategoryLocalizer,2021.2.3,59.93367739299467,
41.8,42.0,5,0.0,Stimuli\Blank.png,0,0,0,60,60,60,,,,,,,,,,,,,41.80124969999997,0.001249699999974041,None,79.55180260000088,79.55180260000088,79.55180260000088,79.55180260000088,79.55180260000088,79.55180260000088,79.55180260000088,79.55180260000088,,002,P008,2025_Feb_01_1210,CategoryLocalizer,2021.2.3,59.93367739299467,
42.0,42.8,2,0.75,Stimuli\ImageFiles-Set2\Bodies\Bodies_Crawling_00007.png,0,0,0,61,61,61,,,,,,,,,,,,,42.002319799999896,0.002319799999895622,None,79.75197600000138,79.75197600000138,79.75197600000138,79.75197600000138,79.75197600000138,79.75197600000138,79.75197600000138,79.75197600000138,,002,P008,2025_Feb_01_1210,CategoryLocalizer,2021.2.3,59.93367739299467,
42.8,43.0,5,0.0,Stimuli\Blank.png,0,0,0,62,62,62,,,,,,,,,,,,,42.80331859999933,0.0033185999993321502,None,80.5526940000018,80.5526940000018,80.5526940000018,80.5526940000018,80.5526940000018,80.5526940000018,80.5526940000018,80.5526940000018,,002,P008,2025_Feb_01_1210,CategoryLocalizer,2021.2.3,59.93367739299467,
43.0,43.8,2,0.75,Stimuli\ImageFiles-Set2\Bodies\Bodies_CobraPose_00007.png,0,0,0,63,63,63,,,,,,,,,,,,,43.002461800000674,0.002461800000673975,None,80.75295390000065,80.75295390000065,80.75295390000065,80.75295390000065,80.75295390000065,80.75295390000065,80.75295390000065,80.75295390000065,,002,P008,2025_Feb_01_1210,CategoryLocalizer,2021.2.3,59.93367739299467,
43.8,44.0,5,0.0,Stimuli\Blank.png,0,0,0,64,64,64,,,,,,,,,,,,,43.80534509999961,0.005345099999615854,None,81.57026000000042,81.57026000000042,81.57026000000042,81.57026000000042,81.57026000000042,81.57026000000042,81.57026000000042,81.57026000000042,,002,P008,2025_Feb_01_1210,CategoryLocalizer,2021.2.3,59.93367739299467,
44.0,44.8,3,0.75,Stimuli\ImageFiles-Set2\Faces\Face_00028.png,0,0,0,65,65,65,,,,,,,,,,,,,44.02070789999925,0.020707899999251822,None,81.78711040000053,81.78711040000053,81.78711040000053,81.78711040000053,81.78711040000053,81.78711040000053,81.78711040000053,81.78711040000053,,002,P008,2025_Feb_01_1210,CategoryLocalizer,2021.2.3,59.93367739299467,
44.8,45.0,5,0.0,Stimuli\Blank.png,0,0,0,66,66,66,,,,,,,,,,,,,44.82132189999902,0.02132189999902323,None,82.57114380000166,82.57114380000166,82.57114380000166,82.57114380000166,82.57114380000166,82.57114380000166,82.57114380000166,82.57114380000166,,002,P008,2025_Feb_01_1210,CategoryLocalizer,2021.2.3,59.93367739299467,
45.0,45.8,3,0.75,Stimuli\ImageFiles-Set2\Faces\Face_00114.png,0,0,0,67,67,67,,,,,,,,,,,,,45.00409579999905,0.004095799999049632,None,82.75463920000038,82.75463920000038,82.75463920000038,82.75463920000038,82.75463920000038,82.75463920000038,82.75463920000038,82.75463920000038,,002,P008,2025_Feb_01_1210,CategoryLocalizer,2021.2.3,59.93367739299467,
45.8,46.0,5,0.0,Stimuli\Blank.png,0,0,0,68,68,68,,,,,,,,,,,,,45.80541869999979,0.00541869999979383,None,83.55537530000038,83.55537530000038,83.55537530000038,83.55537530000038,83.55537530000038,83.55537530000038,83.55537530000038,83.55537530000038,,002,P008,2025_Feb_01_1210,CategoryLocalizer,2021.2.3,59.93367739299467,
46.0,46.8,3,0.75,Stimuli\ImageFiles-Set2\Faces\Face_00046.png,0,0,0,69,69,69,,,,,,,,,,,,,46.00591109999914,0.005911099999138969,None,83.77220770000167,83.77220770000167,83.77220770000167,83.77220770000167,83.77220770000167,83.77220770000167,83.77220770000167,83.77220770000167,,002,P008,2025_Feb_01_1210,CategoryLocalizer,2021.2.3,59.93367739299467,
46.8,47.0,5,0.0,Stimuli\Blank.png,0,0,0,70,70,70,,,,,,,,,,,,,46.82362809999904,0.02362809999904414,None,84.57292120000056,84.57292120000056,84.57292120000056,84.57292120000056,84.57292120000056,84.57292120000056,84.57292120000056,84.57292120000056,,002,P008,2025_Feb_01_1210,CategoryLocalizer,2021.2.3,59.93367739299467,
47.0,47.8,3,0.75,Stimuli\ImageFiles-Set2\Faces\Face_00026.png,0,0,0,71,71,71,,,,,,,,,,,,,47.005809500000396,0.0058095000003959285,None,84.75640570000178,84.75640570000178,84.75640570000178,84.75640570000178,84.75640570000178,84.75640570000178,84.75640570000178,84.75640570000178,,002,P008,2025_Feb_01_1210,CategoryLocalizer,2021.2.3,59.93367739299467,
47.8,48.0,5,0.0,Stimuli\Blank.png,0,0,0,72,72,72,,,,,,,,,,,,,47.806606699999975,0.00660669999997765,None,85.55711630000042,85.55711630000042,85.55711630000042,85.55711630000042,85.55711630000042,85.55711630000042,85.55711630000042,85.55711630000042,,002,P008,2025_Feb_01_1210,CategoryLocalizer,2021.2.3,59.93367739299467,
48.0,48.8,3,0.75,Stimuli\ImageFiles-Set2\Faces\Face_00062.png,0,0,0,73,73,73,,,,,,,,,,,,,48.00716939999984,0.007169399999838788,None,85.77399100000002,85.77399100000002,85.77399100000002,85.77399100000002,85.77399100000002,85.77399100000002,85.77399100000002,85.77399100000002,,002,P008,2025_Feb_01_1210,CategoryLocalizer,2021.2.3,59.93367739299467,
48.8,49.0,5,0.0,Stimuli\Blank.png,0,0,0,74,74,74,,,,,,,,,,,,,48.82465179999963,0.024651799999631407,None,86.57468410000001,86.57468410000001,86.57468410000001,86.57468410000001,86.57468410000001,86.57468410000001,86.57468410000001,86.57468410000001,,002,P008,2025_Feb_01_1210,CategoryLocalizer,2021.2.3,59.93367739299467,
49.0,49.8,3,0.75,Stimuli\ImageFiles-Set2\Faces\Face_00062.png,1,1,0,75,75,75,,,,,,,,,,,,,49.01036270000077,0.01036270000076911,2,86.77486070000123,86.77486070000123,86.77486070000123,86.77486070000123,86.77486070000123,86.77486070000123,86.77486070000123,86.77486070000123,0.4553137000002607,002,P008,2025_Feb_01_1210,CategoryLocalizer,2021.2.3,59.93367739299467,
49.8,50.0,5,0.0,Stimuli\Blank.png,0,0,0,76,76,76,,,,,,,,,,,,,49.82610100000056,0.026101000000565477,None,87.57556390000173,87.57556390000173,87.57556390000173,87.57556390000173,87.57556390000173,87.57556390000173,87.57556390000173,87.57556390000173,,002,P008,2025_Feb_01_1210,CategoryLocalizer,2021.2.3,59.93367739299467,
50.0,50.8,3,0.75,Stimuli\ImageFiles-Set2\Faces\Face_00082.png,0,0,0,77,77,77,,,,,,,,,,,,,50.00910660000045,0.009106600000450271,None,87.75903540000036,87.75903540000036,87.75903540000036,87.75903540000036,87.75903540000036,87.75903540000036,87.75903540000036,87.75903540000036,,002,P008,2025_Feb_01_1210,CategoryLocalizer,2021.2.3,59.93367739299467,
50.8,51.0,5,0.0,Stimuli\Blank.png,0,0,0,78,78,78,,,,,,,,,,,,,50.811188499999844,0.011188499999846613,None,88.57650090000061,88.57650090000061,88.57650090000061,88.57650090000061,88.57650090000061,88.57650090000061,88.57650090000061,88.57650090000061,,002,P008,2025_Feb_01_1210,CategoryLocalizer,2021.2.3,59.93367739299467,
51.0,51.8,3,0.75,Stimuli\ImageFiles-Set2\Faces\Face_00038.png,0,0,0,79,79,79,,,,,,,,,,,,,51.02618330000041,0.02618330000041169,None,88.79333900000165,88.79333900000165,88.79333900000165,88.79333900000165,88.79333900000165,88.79333900000165,88.79333900000165,88.79333900000165,,002,P008,2025_Feb_01_1210,CategoryLocalizer,2021.2.3,59.93367739299467,
51.8,52.0,5,0.0,Stimuli\Blank.png,0,0,0,80,80,80,,,,,,,,,,,,,51.82789199999934,0.027891999999340555,None,89.57736990000012,89.57736990000012,89.57736990000012,89.57736990000012,89.57736990000012,89.57736990000012,89.57736990000012,89.57736990000012,,002,P008,2025_Feb_01_1210,CategoryLocalizer,2021.2.3,59.93367739299467,
52.0,52.8,3,0.75,Stimuli\ImageFiles-Set2\Faces\Face_00102.png,0,0,0,81,81,81,,,,,,,,,,,,,52.01020729999982,0.010207299999819952,None,89.76084490000176,89.76084490000176,89.76084490000176,89.76084490000176,89.76084490000176,89.76084490000176,89.76084490000176,89.76084490000176,,002,P008,2025_Feb_01_1210,CategoryLocalizer,2021.2.3,59.93367739299467,
52.8,53.0,5,0.0,Stimuli\Blank.png,0,0,0,82,82,82,,,,,,,,,,,,,52.81154989999959,0.01154989999959355,None,90.56153920000179,90.56153920000179,90.56153920000179,90.56153920000179,90.56153920000179,90.56153920000179,90.56153920000179,90.56153920000179,,002,P008,2025_Feb_01_1210,CategoryLocalizer,2021.2.3,59.93367739299467,
53.0,53.8,3,0.75,Stimuli\ImageFiles-Set2\Faces\Face_00112.png,0,0,0,83,83,83,,,,,,,,,,,,,53.0116268999991,0.011626899999100715,None,90.77842450000026,90.77842450000026,90.77842450000026,90.77842450000026,90.77842450000026,90.77842450000026,90.77842450000026,90.77842450000026,,002,P008,2025_Feb_01_1210,CategoryLocalizer,2021.2.3,59.93367739299467,
53.8,54.0,5,0.0,Stimuli\Blank.png,0,0,0,84,84,84,,,,,,,,,,,,,53.83056849999957,0.030568499999574783,None,91.59582070000033,91.59582070000033,91.59582070000033,91.59582070000033,91.59582070000033,91.59582070000033,91.59582070000033,91.59582070000033,,002,P008,2025_Feb_01_1210,CategoryLocalizer,2021.2.3,59.93367739299467,
54.0,54.8,3,0.75,Stimuli\ImageFiles-Set2\Faces\Face_00058.png,0,0,0,85,85,85,,,,,,,,,,,,,54.03151109999999,0.0315110999999888,None,91.79597230000036,91.79597230000036,91.79597230000036,91.79597230000036,91.79597230000036,91.79597230000036,91.79597230000036,91.79597230000036,,002,P008,2025_Feb_01_1210,CategoryLocalizer,2021.2.3,59.93367739299467,
54.8,55.0,5,0.0,Stimuli\Blank.png,0,0,0,86,86,86,,,,,,,,,,,,,54.830319200000304,0.030319200000306523,None,92.58000270000048,92.58000270000048,92.58000270000048,92.58000270000048,92.58000270000048,92.58000270000048,92.58000270000048,92.58000270000048,,002,P008,2025_Feb_01_1210,CategoryLocalizer,2021.2.3,59.93367739299467,
55.0,55.8,3,0.75,Stimuli\ImageFiles-Set2\Faces\Face_00072.png,0,0,0,87,87,87,,,,,,,,,,,,,55.01576589999968,0.015765899999678368,None,92.7801743,92.7801743,92.7801743,92.7801743,92.7801743,92.7801743,92.7801743,92.7801743,,002,P008,2025_Feb_01_1210,CategoryLocalizer,2021.2.3,59.93367739299467,
55.8,56.0,5,0.0,Stimuli\Blank.png,0,0,0,88,88,88,,,,,,,,,,,,,55.814781699999,0.014781699999005582,None,93.5642071000002,93.5642071000002,93.5642071000002,93.5642071000002,93.5642071000002,93.5642071000002,93.5642071000002,93.5642071000002,,002,P008,2025_Feb_01_1210,CategoryLocalizer,2021.2.3,59.93367739299467,
56.0,56.8,3,0.75,Stimuli\ImageFiles-Set2\Faces\Face_00002.png,1,1,0,89,89,89,,,,,,,,,,,,,56.015876800000115,0.0158768000001146,None,93.7810651000018,93.7810651000018,93.7810651000018,93.7810651000018,93.7810651000018,93.7810651000018,93.7810651000018,93.7810651000018,,002,P008,2025_Feb_01_1210,CategoryLocalizer,2021.2.3,59.93367739299467,
56.8,57.0,5,0.0,Stimuli\Blank.png,0,0,0,90,90,90,,,,,,,,,,,,,56.81499959999928,0.014999599999285351,None,94.56508060000124,94.56508060000124,94.56508060000124,94.56508060000124,94.56508060000124,94.56508060000124,94.56508060000124,94.56508060000124,,002,P008,2025_Feb_01_1210,CategoryLocalizer,2021.2.3,59.93367739299467,
57.0,57.8,3,0.75,Stimuli\ImageFiles-Set2\Faces\Face_00088.png,0,0,0,91,91,91,,,,,,,,,,,,,57.01493130000017,0.014931300000171177,None,94.76523740000084,94.76523740000084,94.76523740000084,94.76523740000084,94.76523740000084,94.76523740000084,94.76523740000084,94.76523740000084,,002,P008,2025_Feb_01_1210,CategoryLocalizer,2021.2.3,59.93367739299467,
57.8,58.0,5,0.0,Stimuli\Blank.png,0,0,0,92,92,92,,,,,,,,,,,,,57.800657600000704,0.000657600000707248,None,95.56598440000016,95.56598440000016,95.56598440000016,95.56598440000016,95.56598440000016,95.56598440000016,95.56598440000016,95.56598440000016,,002,P008,2025_Feb_01_1210,CategoryLocalizer,2021.2.3,59.93367739299467,
58.0,58.8,3,0.75,Stimuli\ImageFiles-Set2\Faces\Face_00088.png,0,0,0,93,93,93,,,,,,,,,,,,,58.01583609999943,0.015836099999432918,2,95.78286170000138,95.78286170000138,95.78286170000138,95.78286170000138,95.78286170000138,95.78286170000138,95.78286170000138,95.78286170000138,0.3788955999989412,002,P008,2025_Feb_01_1210,CategoryLocalizer,2021.2.3,59.93367739299467,
58.8,59.0,5,0.0,Stimuli\Blank.png,0,0,0,94,94,94,,,,,,,,,,,,,58.81632499999978,0.016324999999781653,None,96.56685460000153,96.56685460000153,96.56685460000153,96.56685460000153,96.56685460000153,96.56685460000153,96.56685460000153,96.56685460000153,,002,P008,2025_Feb_01_1210,CategoryLocalizer,2021.2.3,59.93367739299467,
59.0,59.8,3,0.75,Stimuli\ImageFiles-Set2\Faces\Face_00094.png,0,0,0,95,95,95,,,,,,,,,,,,,59.00067619999936,0.0006761999993614154,None,96.76702370000021,96.76702370000021,96.76702370000021,96.76702370000021,96.76702370000021,96.76702370000021,96.76702370000021,96.76702370000021,,002,P008,2025_Feb_01_1210,CategoryLocalizer,2021.2.3,59.93367739299467,
59.8,60.0,5,0.0,Stimuli\Blank.png,0,0,0,96,96,96,,,,,,,,,,,,,59.81779819999974,0.017798199999745634,None,97.56773450000037,97.56773450000037,97.56773450000037,97.56773450000037,97.56773450000037,97.56773450000037,97.56773450000037,97.56773450000037,,002,P008,2025_Feb_01_1210,CategoryLocalizer,2021.2.3,59.93367739299467,
60.0,60.8,4,0.75,Stimuli\ImageFiles-Set2\Scenes\Scenes_067.png,0,0,0,97,97,97,,,,,,,,,,,,,60.00100190000012,0.001001900000119349,None,97.75123350000104,97.75123350000104,97.75123350000104,97.75123350000104,97.75123350000104,97.75123350000104,97.75123350000104,97.75123350000104,,002,P008,2025_Feb_01_1210,CategoryLocalizer,2021.2.3,59.93367739299467,
60.8,61.0,5,0.0,Stimuli\Blank.png,0,0,0,98,98,98,,,,,,,,,,,,,60.80226699999912,0.0022669999991222767,None,98.55194960000154,98.55194960000154,98.55194960000154,98.55194960000154,98.55194960000154,98.55194960000154,98.55194960000154,98.55194960000154,,002,P008,2025_Feb_01_1210,CategoryLocalizer,2021.2.3,59.93367739299467,
61.0,61.8,4,0.75,Stimuli\ImageFiles-Set2\Scenes\Scenes_094.png,0,0,0,99,99,99,,,,,,,,,,,,,61.0026682000007,0.0026682000006985618,None,98.76880840000013,98.76880840000013,98.76880840000013,98.76880840000013,98.76880840000013,98.76880840000013,98.76880840000013,98.76880840000013,,002,P008,2025_Feb_01_1210,CategoryLocalizer,2021.2.3,59.93367739299467,
61.8,62.0,5,0.0,Stimuli\Blank.png,0,0,0,100,100,100,,,,,,,,,,,,,61.82071890000043,0.020718900000431972,None,99.56953670000075,99.56953670000075,99.56953670000075,99.56953670000075,99.56953670000075,99.56953670000075,99.56953670000075,99.56953670000075,,002,P008,2025_Feb_01_1210,CategoryLocalizer,2021.2.3,59.93367739299467,
62.0,62.8,4,0.75,Stimuli\ImageFiles-Set2\Scenes\Scenes_094.png,1,1,0,101,101,101,,,,,,,,,,,,,62.00316500000008,0.0031650000000809086,2,99.76968280000074,99.76968280000074,99.76968280000074,99.76968280000074,99.76968280000074,99.76968280000074,99.76968280000074,99.76968280000074,0.6431520000005548,002,P008,2025_Feb_01_1210,CategoryLocalizer,2021.2.3,59.93367739299467,
62.8,63.0,5,0.0,Stimuli\Blank.png,0,0,0,102,102,102,,,,,,,,,,,,,62.82012720000057,0.020127200000572998,None,100.57039310000073,100.57039310000073,100.57039310000073,100.57039310000073,100.57039310000073,100.57039310000073,100.57039310000073,100.57039310000073,,002,P008,2025_Feb_01_1210,CategoryLocalizer,2021.2.3,59.93367739299467,
63.0,63.8,4,0.75,Stimuli\ImageFiles-Set2\Scenes\Scenes_082.png,0,0,0,103,103,103,,,,,,,,,,,,,63.00524519999999,0.005245199999990291,None,100.77057360000072,100.77057360000072,100.77057360000072,100.77057360000072,100.77057360000072,100.77057360000072,100.77057360000072,100.77057360000072,,002,P008,2025_Feb_01_1210,CategoryLocalizer,2021.2.3,59.93367739299467,
63.8,64.0,5,0.0,Stimuli\Blank.png,0,0,0,104,104,104,,,,,,,,,,,,,63.82094479999978,0.02094479999978205,None,101.57128150000062,101.57128150000062,101.57128150000062,101.57128150000062,101.57128150000062,101.57128150000062,101.57128150000062,101.57128150000062,,002,P008,2025_Feb_01_1210,CategoryLocalizer,2021.2.3,59.93367739299467,
64.0,64.8,4,0.75,Stimuli\ImageFiles-Set2\Scenes\Scenes_104.png,0,0,0,105,105,105,,,,,,,,,,,,,64.0051827999996,0.005182799999602139,None,101.77145230000133,101.77145230000133,101.77145230000133,101.77145230000133,101.77145230000133,101.77145230000133,101.77145230000133,101.77145230000133,,002,P008,2025_Feb_01_1210,CategoryLocalizer,2021.2.3,59.93367739299467,
64.8,65.0,5,0.0,Stimuli\Blank.png,0,0,0,106,106,106,,,,,,,,,,,,,64.82197110000016,0.021971100000158117,None,102.5721605000017,102.5721605000017,102.5721605000017,102.5721605000017,102.5721605000017,102.5721605000017,102.5721605000017,102.5721605000017,,002,P008,2025_Feb_01_1210,CategoryLocalizer,2021.2.3,59.93367739299467,
65.0,65.8,4,0.75,Stimuli\ImageFiles-Set2\Scenes\Scenes_086.png,0,0,0,107,107,107,,,,,,,,,,,,,65.00628289999986,0.006282899999860092,None,102.77234220000173,102.77234220000173,102.77234220000173,102.77234220000173,102.77234220000173,102.77234220000173,102.77234220000173,102.77234220000173,,002,P008,2025_Feb_01_1210,CategoryLocalizer,2021.2.3,59.93367739299467,
65.8,66.0,5,0.0,Stimuli\Blank.png,0,0,0,108,108,108,,,,,,,,,,,,,65.82515109999986,0.025151099999860094,None,103.58973530000003,103.58973530000003,103.58973530000003,103.58973530000003,103.58973530000003,103.58973530000003,103.58973530000003,103.58973530000003,,002,P008,2025_Feb_01_1210,CategoryLocalizer,2021.2.3,59.93367739299467,
66.0,66.8,4,0.75,Stimuli\ImageFiles-Set2\Scenes\Scenes_116.png,0,0,0,109,109,109,,,,,,,,,,,,,66.02377829999932,0.02377829999932146,None,103.78990310000154,103.78990310000154,103.78990310000154,103.78990310000154,103.78990310000154,103.78990310000154,103.78990310000154,103.78990310000154,,002,P008,2025_Feb_01_1210,CategoryLocalizer,2021.2.3,59.93367739299467,
66.8,67.0,5,0.0,Stimuli\Blank.png,0,0,0,110,110,110,,,,,,,,,,,,,66.82545899999968,0.02545899999968526,None,104.59062520000043,104.59062520000043,104.59062520000043,104.59062520000043,104.59062520000043,104.59062520000043,104.59062520000043,104.59062520000043,,002,P008,2025_Feb_01_1210,CategoryLocalizer,2021.2.3,59.93367739299467,
67.0,67.8,4,0.75,Stimuli\ImageFiles-Set2\Scenes\Scenes_068.png,0,0,0,111,111,111,,,,,,,,,,,,,67.0261903999999,0.026190399999904912,None,104.79079610000008,104.79079610000008,104.79079610000008,104.79079610000008,104.79079610000008,104.79079610000008,104.79079610000008,104.79079610000008,,002,P008,2025_Feb_01_1210,CategoryLocalizer,2021.2.3,59.93367739299467,
67.8,68.0,5,0.0,Stimuli\Blank.png,0,0,0,112,112,112,,,,,,,,,,,,,67.82492520000051,0.024925200000510017,None,105.57483339999999,105.57483339999999,105.57483339999999,105.57483339999999,105.57483339999999,105.57483339999999,105.57483339999999,105.57483339999999,,002,P008,2025_Feb_01_1210,CategoryLocalizer,2021.2.3,59.93367739299467,
68.0,68.8,4,0.75,Stimuli\ImageFiles-Set2\Scenes\Scenes_091.png,0,0,0,113,113,113,,,,,,,,,,,,,68.00783480000064,0.007834800000637188,None,105.75831830000061,105.75831830000061,105.75831830000061,105.75831830000061,105.75831830000061,105.75831830000061,105.75831830000061,105.75831830000061,,002,P008,2025_Feb_01_1210,CategoryLocalizer,2021.2.3,59.93367739299467,
68.8,69.0,5,0.0,Stimuli\Blank.png,0,0,0,114,114,114,,,,,,,,,,,,,68.80904670000018,0.009046700000183705,None,106.55908110000018,106.55908110000018,106.55908110000018,106.55908110000018,106.55908110000018,106.55908110000018,106.55908110000018,106.55908110000018,,002,P008,2025_Feb_01_1210,CategoryLocalizer,2021.2.3,59.93367739299467,
69.0,69.8,4,0.75,Stimuli\ImageFiles-Set2\Scenes\Scenes_076.png,0,0,0,115,115,115,,,,,,,,,,,,,69.01051290000032,0.010512900000321679,None,106.77590520000012,106.77590520000012,106.77590520000012,106.77590520000012,106.77590520000012,106.77590520000012,106.77590520000012,106.77590520000012,,002,P008,2025_Feb_01_1210,CategoryLocalizer,2021.2.3,59.93367739299467,
69.8,70.0,5,0.0,Stimuli\Blank.png,0,0,0,116,116,116,,,,,,,,,,,,,69.82707929999924,0.027079299999243744,None,107.57658670000092,107.57658670000092,107.57658670000092,107.57658670000092,107.57658670000092,107.57658670000092,107.57658670000092,107.57658670000092,,002,P008,2025_Feb_01_1210,CategoryLocalizer,2021.2.3,59.93367739299467,
70.0,70.8,4,0.75,Stimuli\ImageFiles-Set2\Scenes\Scenes_110.png,1,1,0,117,117,117,,,,,,,,,,,,,70.01083259999905,0.010832599999048398,None,107.7767743000004,107.7767743000004,107.7767743000004,107.7767743000004,107.7767743000004,107.7767743000004,107.7767743000004,107.7767743000004,,002,P008,2025_Feb_01_1210,CategoryLocalizer,2021.2.3,59.93367739299467,
70.8,71.0,5,0.0,Stimuli\Blank.png,0,0,0,118,118,118,,,,,,,,,,,,,70.8279179000001,0.027917900000105078,None,108.57752710000022,108.57752710000022,108.57752710000022,108.57752710000022,108.57752710000022,108.57752710000022,108.57752710000022,108.57752710000022,,002,P008,2025_Feb_01_1210,CategoryLocalizer,2021.2.3,59.93367739299467,
71.0,71.8,4,0.75,Stimuli\ImageFiles-Set2\Scenes\Scenes_107.png,0,0,0,119,119,119,,,,,,,,,,,,,71.01129009999931,0.011290099999314407,None,108.77765080000063,108.77765080000063,108.77765080000063,108.77765080000063,108.77765080000063,108.77765080000063,108.77765080000063,108.77765080000063,,002,P008,2025_Feb_01_1210,CategoryLocalizer,2021.2.3,59.93367739299467,
71.8,72.0,5,0.0,Stimuli\Blank.png,0,0,0,120,120,120,,,,,,,,,,,,,71.82851560000017,0.028515600000176278,None,109.57837810000092,109.57837810000092,109.57837810000092,109.57837810000092,109.57837810000092,109.57837810000092,109.57837810000092,109.57837810000092,,002,P008,2025_Feb_01_1210,CategoryLocalizer,2021.2.3,59.93367739299467,
72.0,72.8,4,0.75,Stimuli\ImageFiles-Set2\Scenes\Scenes_107.png,0,0,0,121,121,121,,,,,,,,,,,,,72.01155199999994,0.011551999999937834,2,109.77853970000069,109.77853970000069,109.77853970000069,109.77853970000069,109.77853970000069,109.77853970000069,109.77853970000069,109.77853970000069,0.42155449999881967,002,P008,2025_Feb_01_1210,CategoryLocalizer,2021.2.3,59.93367739299467,
72.8,73.0,5,0.0,Stimuli\Blank.png,0,0,0,122,122,122,,,,,,,,,,,,,72.83131440000034,0.03131440000034047,None,110.5959354000006,110.5959354000006,110.5959354000006,110.5959354000006,110.5959354000006,110.5959354000006,110.5959354000006,110.5959354000006,,002,P008,2025_Feb_01_1210,CategoryLocalizer,2021.2.3,59.93367739299467,
73.0,73.8,4,0.75,Stimuli\ImageFiles-Set2\Scenes\Scenes_069.png,0,0,0,123,123,123,,,,,,,,,,,,,73.02976259999923,0.029762599999230588,None,110.7961051000002,110.7961051000002,110.7961051000002,110.7961051000002,110.7961051000002,110.7961051000002,110.7961051000002,110.7961051000002,,002,P008,2025_Feb_01_1210,CategoryLocalizer,2021.2.3,59.93367739299467,
73.8,74.0,5,0.0,Stimuli\Blank.png,0,0,0,124,124,124,,,,,,,,,,,,,73.82972730000074,0.02972730000074364,None,111.58012790000066,111.58012790000066,111.58012790000066,111.58012790000066,111.58012790000066,111.58012790000066,111.58012790000066,111.58012790000066,,002,P008,2025_Feb_01_1210,CategoryLocalizer,2021.2.3,59.93367739299467,
74.0,74.8,4,0.75,Stimuli\ImageFiles-Set2\Scenes\Scenes_113.png,0,0,0,125,125,125,,,,,,,,,,,,,74.01390189999984,0.013901899999837042,None,111.76363280000078,111.76363280000078,111.76363280000078,111.76363280000078,111.76363280000078,111.76363280000078,111.76363280000078,111.76363280000078,,002,P008,2025_Feb_01_1210,CategoryLocalizer,2021.2.3,59.93367739299467,
74.8,75.0,5,0.0,Stimuli\Blank.png,0,0,0,126,126,126,,,,,,,,,,,,,74.81557020000037,0.015570200000368573,None,112.56433740000102,112.56433740000102,112.56433740000102,112.56433740000102,112.56433740000102,112.56433740000102,112.56433740000102,112.56433740000102,,002,P008,2025_Feb_01_1210,CategoryLocalizer,2021.2.3,59.93367739299467,
75.0,75.8,4,0.75,Stimuli\ImageFiles-Set2\Scenes\Scenes_100.png,0,0,0,127,127,127,,,,,,,,,,,,,74.99827229999937,-0.001727700000628829,None,112.74783510000088,112.74783510000088,112.74783510000088,112.74783510000088,112.74783510000088,112.74783510000088,112.74783510000088,112.74783510000088,,002,P008,2025_Feb_01_1210,CategoryLocalizer,2021.2.3,59.93367739299467,
75.8,76.0,5,0.0,Stimuli\Blank.png,0,0,0,128,128,128,,,,,,,,,,,,,75.8000419,4.1899999999372994e-05,None,113.56524700000045,113.56524700000045,113.56524700000045,113.56524700000045,113.56524700000045,113.56524700000045,113.56524700000045,113.56524700000045,,002,P008,2025_Feb_01_1210,CategoryLocalizer,2021.2.3,59.93367739299467,
76.0,88.0,0,0.0,Stimuli\Blank.png,0,0,0,129,129,129,,,,,,,,,,,,,76.01540109999951,0.015401099999508006,None,113.76540700000078,113.76540700000078,113.76540700000078,113.76540700000078,113.76540700000078,113.76540700000078,113.76540700000078,113.76540700000078,,002,P008,2025_Feb_01_1210,CategoryLocalizer,2021.2.3,59.93367739299467,
88.0,88.8,3,0.75,Stimuli\ImageFiles-Set2\Faces\Face_00036.png,0,0,0,130,130,130,,,,,,,,,,,,,88.01064279999991,0.010642799999914132,None,125.77602720000141,125.77602720000141,125.77602720000141,125.77602720000141,125.77602720000141,125.77602720000141,125.77602720000141,125.77602720000141,,002,P008,2025_Feb_01_1210,CategoryLocalizer,2021.2.3,59.93367739299467,
88.8,89.0,5,0.0,Stimuli\Blank.png,0,0,0,131,131,131,,,,,,,,,,,,,88.82686210000065,0.02686210000065614,None,126.57672860000093,126.57672860000093,126.57672860000093,126.57672860000093,126.57672860000093,126.57672860000093,126.57672860000093,126.57672860000093,,002,P008,2025_Feb_01_1210,CategoryLocalizer,2021.2.3,59.93367739299467,
89.0,89.8,3,0.75,Stimuli\ImageFiles-Set2\Faces\Face_00104.png,0,0,0,132,132,132,,,,,,,,,,,,,89.00978159999977,0.009781599999769242,None,126.79360160000033,126.79360160000033,126.79360160000033,126.79360160000033,126.79360160000033,126.79360160000033,126.79360160000033,126.79360160000033,,002,P008,2025_Feb_01_1210,CategoryLocalizer,2021.2.3,59.93367739299467,
89.8,90.0,5,0.0,Stimuli\Blank.png,0,0,0,133,133,133,,,,,,,,,,,,,89.84435230000054,0.04435230000053991,None,127.59429570000066,127.59429570000066,127.59429570000066,127.59429570000066,127.59429570000066,127.59429570000066,127.59429570000066,127.59429570000066,,002,P008,2025_Feb_01_1210,CategoryLocalizer,2021.2.3,59.93367739299467,
90.0,90.8,3,0.75,Stimuli\ImageFiles-Set2\Faces\Face_00004.png,0,0,0,134,134,134,,,,,,,,,,,,,90.01102030000038,0.011020300000382122,None,127.77781090000099,127.77781090000099,127.77781090000099,127.77781090000099,127.77781090000099,127.77781090000099,127.77781090000099,127.77781090000099,,002,P008,2025_Feb_01_1210,CategoryLocalizer,2021.2.3,59.93367739299467,
90.8,91.0,5,0.0,Stimuli\Blank.png,0,0,0,135,135,135,,,,,,,,,,,,,90.82867799999985,0.028677999999857207,None,128.5785029000017,128.5785029000017,128.5785029000017,128.5785029000017,128.5785029000017,128.5785029000017,128.5785029000017,128.5785029000017,,002,P008,2025_Feb_01_1210,CategoryLocalizer,2021.2.3,59.93367739299467,
91.0,91.8,3,0.75,Stimuli\ImageFiles-Set2\Faces\Face_00076.png,0,0,0,136,136,136,,,,,,,,,,,,,91.01149470000018,0.011494700000184821,None,128.7620033000003,128.7620033000003,128.7620033000003,128.7620033000003,128.7620033000003,128.7620033000003,128.7620033000003,128.7620033000003,,002,P008,2025_Feb_01_1210,CategoryLocalizer,2021.2.3,59.93367739299467,
91.8,92.0,5,0.0,Stimuli\Blank.png,0,0,0,137,137,137,,,,,,,,,,,,,91.81293019999976,0.012930199999757974,None,129.56270340000083,129.56270340000083,129.56270340000083,129.56270340000083,129.56270340000083,129.56270340000083,129.56270340000083,129.56270340000083,,002,P008,2025_Feb_01_1210,CategoryLocalizer,2021.2.3,59.93367739299467,
92.0,92.8,3,0.75,Stimuli\ImageFiles-Set2\Faces\Face_00032.png,0,0,0,138,138,138,,,,,,,,,,,,,92.01263950000066,0.01263950000065961,None,129.76288530000056,129.76288530000056,129.76288530000056,129.76288530000056,129.76288530000056,129.76288530000056,129.76288530000056,129.76288530000056,,002,P008,2025_Feb_01_1210,CategoryLocalizer,2021.2.3,59.93367739299467,
92.8,93.0,5,0.0,Stimuli\Blank.png,0,0,0,139,139,139,,,,,,,,,,,,,92.81304769999952,0.013047699999518159,None,130.5635884000003,130.5635884000003,130.5635884000003,130.5635884000003,130.5635884000003,130.5635884000003,130.5635884000003,130.5635884000003,,002,P008,2025_Feb_01_1210,CategoryLocalizer,2021.2.3,59.93367739299467,
93.0,93.8,3,0.75,Stimuli\ImageFiles-Set2\Faces\Face_00056.png,0,0,0,140,140,140,,,,,,,,,,,,,93.01320699999997,0.013206999999965774,None,130.7637689000003,130.7637689000003,130.7637689000003,130.7637689000003,130.7637689000003,130.7637689000003,130.7637689000003,130.7637689000003,,002,P008,2025_Feb_01_1210,CategoryLocalizer,2021.2.3,59.93367739299467,
93.8,94.0,5,0.0,Stimuli\Blank.png,0,0,0,141,141,141,,,,,,,,,,,,,93.8149727,0.014972700000001282,None,131.56452340000033,131.56452340000033,131.56452340000033,131.56452340000033,131.56452340000033,131.56452340000033,131.56452340000033,131.56452340000033,,002,P008,2025_Feb_01_1210,CategoryLocalizer,2021.2.3,59.93367739299467,
94.0,94.8,3,0.75,Stimuli\ImageFiles-Set2\Faces\Face_00052.png,0,0,0,142,142,142,,,,,,,,,,,,,94.01499309999963,0.014993099999628612,None,131.7646523000003,131.7646523000003,131.7646523000003,131.7646523000003,131.7646523000003,131.7646523000003,131.7646523000003,131.7646523000003,,002,P008,2025_Feb_01_1210,CategoryLocalizer,2021.2.3,59.93367739299467,
94.8,95.0,5,0.0,Stimuli\Blank.png,0,0,0,143,143,143,,,,,,,,,,,,,94.8005434000006,0.00054340000060904,None,132.56536890000098,132.56536890000098,132.56536890000098,132.56536890000098,132.56536890000098,132.56536890000098,132.56536890000098,132.56536890000098,,002,P008,2025_Feb_01_1210,CategoryLocalizer,2021.2.3,59.93367739299467,
95.0,95.8,3,0.75,Stimuli\ImageFiles-Set2\Faces\Face_00110.png,0,0,0,144,144,144,,,,,,,,,,,,,95.01550639999914,0.01550639999913983,None,132.76551050000126,132.76551050000126,132.76551050000126,132.76551050000126,132.76551050000126,132.76551050000126,132.76551050000126,132.76551050000126,,002,P008,2025_Feb_01_1210,CategoryLocalizer,2021.2.3,59.93367739299467,
95.8,96.0,5,0.0,Stimuli\Blank.png,0,0,0,145,145,145,,,,,,,,,,,,,95.79983469999934,-0.0001653000006598404,None,133.54964110000037,133.54964110000037,133.54964110000037,133.54964110000037,133.54964110000037,133.54964110000037,133.54964110000037,133.54964110000037,,002,P008,2025_Feb_01_1210,CategoryLocalizer,2021.2.3,59.93367739299467,
96.0,96.8,3,0.75,Stimuli\ImageFiles-Set2\Faces\Face_00098.png,0,0,0,146,146,146,,,,,,,,,,,,,95.9993085999995,-0.0006914000005053822,None,133.74973930000124,133.74973930000124,133.74973930000124,133.74973930000124,133.74973930000124,133.74973930000124,133.74973930000124,133.74973930000124,,002,P008,2025_Feb_01_1210,CategoryLocalizer,2021.2.3,59.93367739299467,
96.8,97.0,5,0.0,Stimuli\Blank.png,0,0,0,147,147,147,,,,,,,,,,,,,96.80114019999928,0.0011401999992841638,None,134.55045450000034,134.55045450000034,134.55045450000034,134.55045450000034,134.55045450000034,134.55045450000034,134.55045450000034,134.55045450000034,,002,P008,2025_Feb_01_1210,CategoryLocalizer,2021.2.3,59.93367739299467,
97.0,97.8,3,0.75,Stimuli\ImageFiles-Set2\Faces\Face_00108.png,0,0,0,148,148,148,,,,,,,,,,,,,97.00126339999952,0.0012633999995159684,None,134.76730830000088,134.76730830000088,134.76730830000088,134.76730830000088,134.76730830000088,134.76730830000088,134.76730830000088,134.76730830000088,,002,P008,2025_Feb_01_1210,CategoryLocalizer,2021.2.3,59.93367739299467,
97.8,98.0,5,0.0,Stimuli\Blank.png,0,0,0,149,149,149,,,,,,,,,,,,,97.82026960000076,0.02026960000075917,None,135.58466930000031,135.58466930000031,135.58466930000031,135.58466930000031,135.58466930000031,135.58466930000031,135.58466930000031,135.58466930000031,,002,P008,2025_Feb_01_1210,CategoryLocalizer,2021.2.3,59.93367739299467,
98.0,98.8,3,0.75,Stimuli\ImageFiles-Set2\Faces\Face_00108.png,1,1,0,150,150,150,,,,,,,,,,,,,98.02020500000071,0.02020500000071479,2,135.78487880000102,135.78487880000102,135.78487880000102,135.78487880000102,135.78487880000102,135.78487880000102,135.78487880000102,135.78487880000102,0.6062385999994149,002,P008,2025_Feb_01_1210,CategoryLocalizer,2021.2.3,59.93367739299467,
98.8,99.0,5,0.0,Stimuli\Blank.png,0,0,0,151,151,151,,,,,,,,,,,,,98.82053509999969,0.020535099999690942,None,136.5855999000014,136.5855999000014,136.5855999000014,136.5855999000014,136.5855999000014,136.5855999000014,136.5855999000014,136.5855999000014,,002,P008,2025_Feb_01_1210,CategoryLocalizer,2021.2.3,59.93367739299467,
99.0,99.8,3,0.75,Stimuli\ImageFiles-Set2\Faces\Face_00034.png,0,0,0,152,152,152,,,,,,,,,,,,,99.0214675999996,0.021467599999596132,None,136.78576710000016,136.78576710000016,136.78576710000016,136.78576710000016,136.78576710000016,136.78576710000016,136.78576710000016,136.78576710000016,,002,P008,2025_Feb_01_1210,CategoryLocalizer,2021.2.3,59.93367739299467,
99.8,100.0,5,0.0,Stimuli\Blank.png,0,0,0,153,153,153,,,,,,,,,,,,,99.82100309999987,0.021003099999873598,None,137.569805000001,137.569805000001,137.569805000001,137.569805000001,137.569805000001,137.569805000001,137.569805000001,137.569805000001,,002,P008,2025_Feb_01_1210,CategoryLocalizer,2021.2.3,59.93367739299467,
100.0,100.8,3,0.75,Stimuli\ImageFiles-Set2\Faces\Face_00080.png,0,0,0,154,154,154,,,,,,,,,,,,,100.00350980000076,0.0035098000007565133,None,137.7699891000011,137.7699891000011,137.7699891000011,137.7699891000011,137.7699891000011,137.7699891000011,137.7699891000011,137.7699891000011,,002,P008,2025_Feb_01_1210,CategoryLocalizer,2021.2.3,59.93367739299467,
100.8,101.0,5,0.0,Stimuli\Blank.png,0,0,0,155,155,155,,,,,,,,,,,,,100.82090450000032,0.020904500000327175,None,138.57067090000055,138.57067090000055,138.57067090000055,138.57067090000055,138.57067090000055,138.57067090000055,138.57067090000055,138.57067090000055,,002,P008,2025_Feb_01_1210,CategoryLocalizer,2021.2.3,59.93367739299467,
101.0,101.8,3,0.75,Stimuli\ImageFiles-Set2\Faces\Face_00120.png,0,0,0,156,156,156,,,,,,,,,,,,,101.00612469999942,0.006124699999418226,None,138.77086530000088,138.77086530000088,138.77086530000088,138.77086530000088,138.77086530000088,138.77086530000088,138.77086530000088,138.77086530000088,,002,P008,2025_Feb_01_1210,CategoryLocalizer,2021.2.3,59.93367739299467,
101.8,102.0,5,0.0,Stimuli\Blank.png,0,0,0,157,157,157,,,,,,,,,,,,,101.8211439000006,0.021143900000609506,None,139.57155860000057,139.57155860000057,139.57155860000057,139.57155860000057,139.57155860000057,139.57155860000057,139.57155860000057,139.57155860000057,,002,P008,2025_Feb_01_1210,CategoryLocalizer,2021.2.3,59.93367739299467,
102.0,102.8,3,0.75,Stimuli\ImageFiles-Set2\Faces\Face_00096.png,0,0,0,158,158,158,,,,,,,,,,,,,102.00491409999995,0.0049140999999508495,None,139.75505010000052,139.75505010000052,139.75505010000052,139.75505010000052,139.75505010000052,139.75505010000052,139.75505010000052,139.75505010000052,,002,P008,2025_Feb_01_1210,CategoryLocalizer,2021.2.3,59.93367739299467,
102.8,103.0,5,0.0,Stimuli\Blank.png,0,0,0,159,159,159,,,,,,,,,,,,,102.80584599999929,0.005845999999294804,None,140.55577770000127,140.55577770000127,140.55577770000127,140.55577770000127,140.55577770000127,140.55577770000127,140.55577770000127,140.55577770000127,,002,P008,2025_Feb_01_1210,CategoryLocalizer,2021.2.3,59.93367739299467,
103.0,103.8,3,0.75,Stimuli\ImageFiles-Set2\Faces\Face_00070.png,0,0,0,160,160,160,,,,,,,,,,,,,103.00633460000063,0.006334600000627688,None,140.77261780000117,140.77261780000117,140.77261780000117,140.77261780000117,140.77261780000117,140.77261780000117,140.77261780000117,140.77261780000117,,002,P008,2025_Feb_01_1210,CategoryLocalizer,2021.2.3,59.93367739299467,
103.8,104.0,5,0.0,Stimuli\Blank.png,0,0,0,161,161,161,,,,,,,,,,,,,103.82559399999991,0.025593999999912853,None,141.5900169000015,141.5900169000015,141.5900169000015,141.5900169000015,141.5900169000015,141.5900169000015,141.5900169000015,141.5900169000015,,002,P008,2025_Feb_01_1210,CategoryLocalizer,2021.2.3,59.93367739299467,
104.0,104.8,1,0.75,Stimuli\ImageFiles-Set2\Objects\Object_Battery_00001.png,0,0,0,162,162,162,,,,,,,,,,,,,104.02298630000041,0.022986300000411575,None,141.77350170000136,141.77350170000136,141.77350170000136,141.77350170000136,141.77350170000136,141.77350170000136,141.77350170000136,141.77350170000136,,002,P008,2025_Feb_01_1210,CategoryLocalizer,2021.2.3,59.93367739299467,
104.8,105.0,5,0.0,Stimuli\Blank.png,0,0,0,163,163,163,,,,,,,,,,,,,104.8070915999997,0.007091599999696996,None,142.55753370000093,142.55753370000093,142.55753370000093,142.55753370000093,142.55753370000093,142.55753370000093,142.55753370000093,142.55753370000093,,002,P008,2025_Feb_01_1210,CategoryLocalizer,2021.2.3,59.93367739299467,
105.0,105.8,1,0.75,Stimuli\ImageFiles-Set2\Objects\Object_WashingMachine_00001.png,0,0,0,164,164,164,,,,,,,,,,,,,105.00801619999947,0.008016199999474338,None,142.75769720000062,142.75769720000062,142.75769720000062,142.75769720000062,142.75769720000062,142.75769720000062,142.75769720000062,142.75769720000062,,002,P008,2025_Feb_01_1210,CategoryLocalizer,2021.2.3,59.93367739299467,
105.8,106.0,5,0.0,Stimuli\Blank.png,0,0,0,165,165,165,,,,,,,,,,,,,105.80867749999925,0.008677499999251381,None,143.55842790000133,143.55842790000133,143.55842790000133,143.55842790000133,143.55842790000133,143.55842790000133,143.55842790000133,143.55842790000133,,002,P008,2025_Feb_01_1210,CategoryLocalizer,2021.2.3,59.93367739299467,
106.0,106.8,1,0.75,Stimuli\ImageFiles-Set2\Objects\Object_Bicycle_00001.png,0,0,0,166,166,166,,,,,,,,,,,,,106.0095483999994,0.009548399999403046,None,143.75860470000043,143.75860470000043,143.75860470000043,143.75860470000043,143.75860470000043,143.75860470000043,143.75860470000043,143.75860470000043,,002,P008,2025_Feb_01_1210,CategoryLocalizer,2021.2.3,59.93367739299467,
106.8,107.0,5,0.0,Stimuli\Blank.png,0,0,0,167,167,167,,,,,,,,,,,,,106.81147079999937,0.011470799999372616,None,144.57599260000097,144.57599260000097,144.57599260000097,144.57599260000097,144.57599260000097,144.57599260000097,144.57599260000097,144.57599260000097,,002,P008,2025_Feb_01_1210,CategoryLocalizer,2021.2.3,59.93367739299467,
107.0,107.8,1,0.75,Stimuli\ImageFiles-Set2\Objects\Object_Grill_00001.png,0,0,0,168,168,168,,,,,,,,,,,,,107.02631339999971,0.026313399999708054,None,144.79283850000138,144.79283850000138,144.79283850000138,144.79283850000138,144.79283850000138,144.79283850000138,144.79283850000138,144.79283850000138,,002,P008,2025_Feb_01_1210,CategoryLocalizer,2021.2.3,59.93367739299467,
107.8,108.0,5,0.0,Stimuli\Blank.png,0,0,0,169,169,169,,,,,,,,,,,,,107.82652339999913,0.026523399999135222,None,145.57686880000074,145.57686880000074,145.57686880000074,145.57686880000074,145.57686880000074,145.57686880000074,145.57686880000074,145.57686880000074,,002,P008,2025_Feb_01_1210,CategoryLocalizer,2021.2.3,59.93367739299467,
108.0,108.8,1,0.75,Stimuli\ImageFiles-Set2\Objects\Object_Tape_00001.png,0,0,0,170,170,170,,,,,,,,,,,,,108.01088410000011,0.010884100000112085,None,145.76037240000005,145.76037240000005,145.76037240000005,145.76037240000005,145.76037240000005,145.76037240000005,145.76037240000005,145.76037240000005,,002,P008,2025_Feb_01_1210,CategoryLocalizer,2021.2.3,59.93367739299467,
108.8,109.0,5,0.0,Stimuli\Blank.png,0,0,0,171,171,171,,,,,,,,,,,,,108.8116016999993,0.011601699999303605,None,146.56108640000093,146.56108640000093,146.56108640000093,146.56108640000093,146.56108640000093,146.56108640000093,146.56108640000093,146.56108640000093,,002,P008,2025_Feb_01_1210,CategoryLocalizer,2021.2.3,59.93367739299467,
109.0,109.8,1,0.75,Stimuli\ImageFiles-Set2\Objects\Object_Hook_00001.png,0,0,0,172,172,172,,,,,,,,,,,,,109.01181600000018,0.011816000000180793,None,146.77794540000104,146.77794540000104,146.77794540000104,146.77794540000104,146.77794540000104,146.77794540000104,146.77794540000104,146.77794540000104,,002,P008,2025_Feb_01_1210,CategoryLocalizer,2021.2.3,59.93367739299467,
109.8,110.0,5,0.0,Stimuli\Blank.png,0,0,0,173,173,173,,,,,,,,,,,,,109.82880999999907,0.02880999999906919,None,147.57865870000023,147.57865870000023,147.57865870000023,147.57865870000023,147.57865870000023,147.57865870000023,147.57865870000023,147.57865870000023,,002,P008,2025_Feb_01_1210,CategoryLocalizer,2021.2.3,59.93367739299467,
110.0,110.8,1,0.75,Stimuli\ImageFiles-Set2\Objects\Object_Hook_00001.png,1,1,0,174,174,174,,,,,,,,,,,,,110.01161999999931,0.011619999999311403,2,147.7621379000011,147.7621379000011,147.7621379000011,147.7621379000011,147.7621379000011,147.7621379000011,147.7621379000011,147.7621379000011,0.44186359999912384,002,P008,2025_Feb_01_1210,CategoryLocalizer,2021.2.3,59.93367739299467,
110.8,111.0,5,0.0,Stimuli\Blank.png,0,0,0,175,175,175,,,,,,,,,,,,,110.81262679999963,0.012626799999637228,None,148.56284830000004,148.56284830000004,148.56284830000004,148.56284830000004,148.56284830000004,148.56284830000004,148.56284830000004,148.56284830000004,,002,P008,2025_Feb_01_1210,CategoryLocalizer,2021.2.3,59.93367739299467,
111.0,111.8,1,0.75,Stimuli\ImageFiles-Set2\Objects\Object_Mailbox_00001.png,0,0,0,176,176,176,,,,,,,,,,,,,111.01248019999912,0.012480199999117758,None,148.7797380000011,148.7797380000011,148.7797380000011,148.7797380000011,148.7797380000011,148.7797380000011,148.7797380000011,148.7797380000011,,002,P008,2025_Feb_01_1210,CategoryLocalizer,2021.2.3,59.93367739299467,
111.8,112.0,5,0.0,Stimuli\Blank.png,0,0,0,177,177,177,,,,,,,,,,,,,111.83079390000057,0.03079390000057458,None,149.58042060000116,149.58042060000116,149.58042060000116,149.58042060000116,149.58042060000116,149.58042060000116,149.58042060000116,149.58042060000116,,002,P008,2025_Feb_01_1210,CategoryLocalizer,2021.2.3,59.93367739299467,
112.0,112.8,1,0.75,Stimuli\ImageFiles-Set2\Objects\Object_Keyboard_00001.png,0,0,0,178,178,178,,,,,,,,,,,,,112.0142407000003,0.014240700000300421,None,149.76390420000098,149.76390420000098,149.76390420000098,149.76390420000098,149.76390420000098,149.76390420000098,149.76390420000098,149.76390420000098,,002,P008,2025_Feb_01_1210,CategoryLocalizer,2021.2.3,59.93367739299467,
112.8,113.0,5,0.0,Stimuli\Blank.png,0,0,0,179,179,179,,,,,,,,,,,,,112.81514500000048,0.01514500000048713,None,150.56462600000123,150.56462600000123,150.56462600000123,150.56462600000123,150.56462600000123,150.56462600000123,150.56462600000123,150.56462600000123,,002,P008,2025_Feb_01_1210,CategoryLocalizer,2021.2.3,59.93367739299467,
113.0,113.8,1,0.75,Stimuli\ImageFiles-Set2\Objects\Object_Toast_00001.png,0,0,0,180,180,180,,,,,,,,,,,,,113.01513109999905,0.015131099999052822,None,150.78147460000037,150.78147460000037,150.78147460000037,150.78147460000037,150.78147460000037,150.78147460000037,150.78147460000037,150.78147460000037,,002,P008,2025_Feb_01_1210,CategoryLocalizer,2021.2.3,59.93367739299467,
113.8,114.0,5,0.0,Stimuli\Blank.png,0,0,0,181,181,181,,,,,,,,,,,,,113.81511399999908,0.015113999999087468,None,151.5655011000017,151.5655011000017,151.5655011000017,151.5655011000017,151.5655011000017,151.5655011000017,151.5655011000017,151.5655011000017,,002,P008,2025_Feb_01_1210,CategoryLocalizer,2021.2.3,59.93367739299467,
114.0,114.8,1,0.75,Stimuli\ImageFiles-Set2\Objects\Object_Pen_00001.png,0,0,0,182,182,182,,,,,,,,,,,,,114.01524539999991,0.015245399999912479,None,151.76567440000144,151.76567440000144,151.76567440000144,151.76567440000144,151.76567440000144,151.76567440000144,151.76567440000144,151.76567440000144,,002,P008,2025_Feb_01_1210,CategoryLocalizer,2021.2.3,59.93367739299467,
114.8,115.0,5,0.0,Stimuli\Blank.png,0,0,0,183,183,183,,,,,,,,,,,,,114.79988229999981,-0.0001177000001888473,None,152.5497043000014,152.5497043000014,152.5497043000014,152.5497043000014,152.5497043000014,152.5497043000014,152.5497043000014,152.5497043000014,,002,P008,2025_Feb_01_1210,CategoryLocalizer,2021.2.3,59.93367739299467,
115.0,115.8,1,0.75,Stimuli\ImageFiles-Set2\Objects\Object_Belt_00001.png,0,0,0,184,184,184,,,,,,,,,,,,,115.00027050000062,0.0002705000006244518,None,152.76656370000092,152.76656370000092,152.76656370000092,152.76656370000092,152.76656370000092,152.76656370000092,152.76656370000092,152.76656370000092,,002,P008,2025_Feb_01_1210,CategoryLocalizer,2021.2.3,59.93367739299467,
115.8,116.0,5,0.0,Stimuli\Blank.png,0,0,0,185,185,185,,,,,,,,,,,,,115.81751219999933,0.017512199999330846,None,153.56727450000108,153.56727450000108,153.56727450000108,153.56727450000108,153.56727450000108,153.56727450000108,153.56727450000108,153.56727450000108,,002,P008,2025_Feb_01_1210,CategoryLocalizer,2021.2.3,59.93367739299467,
116.0,116.8,1,0.75,Stimuli\ImageFiles-Set2\Objects\Object_Button1_00001.png,0,0,0,186,186,186,,,,,,,,,,,,,116.00074209999912,0.0007420999991154531,None,153.75076990000161,153.75076990000161,153.75076990000161,153.75076990000161,153.75076990000161,153.75076990000161,153.75076990000161,153.75076990000161,,002,P008,2025_Feb_01_1210,CategoryLocalizer,2021.2.3,59.93367739299467,
116.8,117.0,5,0.0,Stimuli\Blank.png,0,0,0,187,187,187,,,,,,,,,,,,,116.80104369999935,0.0010436999993572726,None,154.55147750000106,154.55147750000106,154.55147750000106,154.55147750000106,154.55147750000106,154.55147750000106,154.55147750000106,154.55147750000106,,002,P008,2025_Feb_01_1210,CategoryLocalizer,2021.2.3,59.93367739299467,
117.0,117.8,1,0.75,Stimuli\ImageFiles-Set2\Objects\Object_Jar_00001.png,1,1,0,188,188,188,,,,,,,,,,,,,117.00201349999952,0.002013499999520718,None,154.75164660000155,154.75164660000155,154.75164660000155,154.75164660000155,154.75164660000155,154.75164660000155,154.75164660000155,154.75164660000155,,002,P008,2025_Feb_01_1210,CategoryLocalizer,2021.2.3,59.93367739299467,
117.8,118.0,5,0.0,Stimuli\Blank.png,0,0,0,189,189,189,,,,,,,,,,,,,117.80254120000063,0.002541200000635513,None,155.55235490000086,155.55235490000086,155.55235490000086,155.55235490000086,155.55235490000086,155.55235490000086,155.55235490000086,155.55235490000086,,002,P008,2025_Feb_01_1210,CategoryLocalizer,2021.2.3,59.93367739299467,
118.0,118.8,1,0.75,Stimuli\ImageFiles-Set2\Objects\Object_Hamburger_00001.png,0,0,0,190,190,190,,,,,,,,,,,,,118.00260949999938,0.002609499999380205,None,155.7692257000017,155.7692257000017,155.7692257000017,155.7692257000017,155.7692257000017,155.7692257000017,155.7692257000017,155.7692257000017,,002,P008,2025_Feb_01_1210,CategoryLocalizer,2021.2.3,59.93367739299467,
118.8,119.0,5,0.0,Stimuli\Blank.png,0,0,0,191,191,191,,,,,,,,,,,,,118.82021669999995,0.020216699999949128,None,156.56992890000038,156.56992890000038,156.56992890000038,156.56992890000038,156.56992890000038,156.56992890000038,156.56992890000038,156.56992890000038,,002,P008,2025_Feb_01_1210,CategoryLocalizer,2021.2.3,59.93367739299467,
119.0,119.8,1,0.75,Stimuli\ImageFiles-Set2\Objects\Object_Hamburger_00001.png,0,0,0,192,192,192,,,,,,,,,,,,,119.00521459999982,0.0052145999998174375,2,156.77011140000104,156.77011140000104,156.77011140000104,156.77011140000104,156.77011140000104,156.77011140000104,156.77011140000104,156.77011140000104,0.43373050000082003,002,P008,2025_Feb_01_1210,CategoryLocalizer,2021.2.3,59.93367739299467,
119.8,120.0,5,0.0,Stimuli\Blank.png,0,0,0,193,193,193,,,,,,,,,,,,,119.82100919999903,0.021009199999028283,None,157.57081720000133,157.57081720000133,157.57081720000133,157.57081720000133,157.57081720000133,157.57081720000133,157.57081720000133,157.57081720000133,,002,P008,2025_Feb_01_1210,CategoryLocalizer,2021.2.3,59.93367739299467,
120.0,120.8,4,0.75,Stimuli\ImageFiles-Set2\Scenes\Scenes_117.png,0,0,0,194,194,194,,,,,,,,,,,,,120.00377060000028,0.0037706000002799556,None,157.7543052000001,157.7543052000001,157.7543052000001,157.7543052000001,157.7543052000001,157.7543052000001,157.7543052000001,157.7543052000001,,002,P008,2025_Feb_01_1210,CategoryLocalizer,2021.2.3,59.93367739299467,
120.8,121.0,5,0.0,Stimuli\Blank.png,0,0,0,195,195,195,,,,,,,,,,,,,120.80524069999956,0.005240699999561116,None,158.5550815000006,158.5550815000006,158.5550815000006,158.5550815000006,158.5550815000006,158.5550815000006,158.5550815000006,158.5550815000006,,002,P008,2025_Feb_01_1210,CategoryLocalizer,2021.2.3,59.93367739299467,
121.0,121.8,4,0.75,Stimuli\ImageFiles-Set2\Scenes\Scenes_109.png,0,0,0,196,196,196,,,,,,,,,,,,,121.00580500000069,0.005805000000691507,None,158.7718700000005,158.7718700000005,158.7718700000005,158.7718700000005,158.7718700000005,158.7718700000005,158.7718700000005,158.7718700000005,,002,P008,2025_Feb_01_1210,CategoryLocalizer,2021.2.3,59.93367739299467,
121.8,122.0,5,0.0,Stimuli\Blank.png,0,0,0,197,197,197,,,,,,,,,,,,,121.82288750000043,0.02288750000043649,None,159.57266360000176,159.57266360000176,159.57266360000176,159.57266360000176,159.57266360000176,159.57266360000176,159.57266360000176,159.57266360000176,,002,P008,2025_Feb_01_1210,CategoryLocalizer,2021.2.3,59.93367739299467,
122.0,122.8,4,0.75,Stimuli\ImageFiles-Set2\Scenes\Scenes_095.png,0,0,0,198,198,198,,,,,,,,,,,,,122.0069739999999,0.006973999999900116,None,159.75607490000039,159.75607490000039,159.75607490000039,159.75607490000039,159.75607490000039,159.75607490000039,159.75607490000039,159.75607490000039,,002,P008,2025_Feb_01_1210,CategoryLocalizer,2021.2.3,59.93367739299467,
122.8,123.0,5,0.0,Stimuli\Blank.png,0,0,0,199,199,199,,,,,,,,,,,,,122.80702439999914,0.007024399999139064,None,160.55678220000118,160.55678220000118,160.55678220000118,160.55678220000118,160.55678220000118,160.55678220000118,160.55678220000118,160.55678220000118,,002,P008,2025_Feb_01_1210,CategoryLocalizer,2021.2.3,59.93367739299467,
123.0,123.8,4,0.75,Stimuli\ImageFiles-Set2\Scenes\Scenes_106.png,0,0,0,200,200,200,,,,,,,,,,,,,123.00687590000052,0.006875900000522961,None,160.77364260000104,160.77364260000104,160.77364260000104,160.77364260000104,160.77364260000104,160.77364260000104,160.77364260000104,160.77364260000104,,002,P008,2025_Feb_01_1210,CategoryLocalizer,2021.2.3,59.93367739299467,
123.8,124.0,5,0.0,Stimuli\Blank.png,0,0,0,201,201,201,,,,,,,,,,,,,123.8262923000002,0.026292300000207547,None,161.5910440000007,161.5910440000007,161.5910440000007,161.5910440000007,161.5910440000007,161.5910440000007,161.5910440000007,161.5910440000007,,002,P008,2025_Feb_01_1210,CategoryLocalizer,2021.2.3,59.93367739299467,
124.0,124.8,4,0.75,Stimuli\ImageFiles-Set2\Scenes\Scenes_087.png,0,0,0,202,202,202,,,,,,,,,,,,,124.02411659999962,0.024116599999615573,None,161.77452560000165,161.77452560000165,161.77452560000165,161.77452560000165,161.77452560000165,161.77452560000165,161.77452560000165,161.77452560000165,,002,P008,2025_Feb_01_1210,CategoryLocalizer,2021.2.3,59.93367739299467,
124.8,125.0,5,0.0,Stimuli\Blank.png,0,0,0,203,203,203,,,,,,,,,,,,,124.80818659999932,0.00818659999931981,None,162.55862250000064,162.55862250000064,162.55862250000064,162.55862250000064,162.55862250000064,162.55862250000064,162.55862250000064,162.55862250000064,,002,P008,2025_Feb_01_1210,CategoryLocalizer,2021.2.3,59.93367739299467,
125.0,125.8,4,0.75,Stimuli\ImageFiles-Set2\Scenes\Scenes_070.png,0,0,0,204,204,204,,,,,,,,,,,,,125.01025029999983,0.010250299999825074,None,162.77542360000007,162.77542360000007,162.77542360000007,162.77542360000007,162.77542360000007,162.77542360000007,162.77542360000007,162.77542360000007,,002,P008,2025_Feb_01_1210,CategoryLocalizer,2021.2.3,59.93367739299467,
125.8,126.0,5,0.0,Stimuli\Blank.png,0,0,0,205,205,205,,,,,,,,,,,,,125.82637909999903,0.02637909999903343,None,163.5761192000009,163.5761192000009,163.5761192000009,163.5761192000009,163.5761192000009,163.5761192000009,163.5761192000009,163.5761192000009,,002,P008,2025_Feb_01_1210,CategoryLocalizer,2021.2.3,59.93367739299467,
126.0,126.8,4,0.75,Stimuli\ImageFiles-Set2\Scenes\Scenes_064.png,0,0,0,206,206,206,,,,,,,,,,,,,126.0095567999997,0.00955679999970016,None,163.7596207000006,163.7596207000006,163.7596207000006,163.7596207000006,163.7596207000006,163.7596207000006,163.7596207000006,163.7596207000006,,002,P008,2025_Feb_01_1210,CategoryLocalizer,2021.2.3,59.93367739299467,
126.8,127.0,5,0.0,Stimuli\Blank.png,0,0,0,207,207,207,,,,,,,,,,,,,126.81138160000046,0.011381600000461845,None,164.56033200000093,164.56033200000093,164.56033200000093,164.56033200000093,164.56033200000093,164.56033200000093,164.56033200000093,164.56033200000093,,002,P008,2025_Feb_01_1210,CategoryLocalizer,2021.2.3,59.93367739299467,
127.0,127.8,4,0.75,Stimuli\ImageFiles-Set2\Scenes\Scenes_115.png,0,0,0,208,208,208,,,,,,,,,,,,,127.01063219999924,0.010632199999236036,None,164.77717590000066,164.77717590000066,164.77717590000066,164.77717590000066,164.77717590000066,164.77717590000066,164.77717590000066,164.77717590000066,,002,P008,2025_Feb_01_1210,CategoryLocalizer,2021.2.3,59.93367739299467,
127.8,128.0,5,0.0,Stimuli\Blank.png,0,0,0,209,209,209,,,,,,,,,,,,,127.82762159999947,0.027621599999477553,None,165.57789140000023,165.57789140000023,165.57789140000023,165.57789140000023,165.57789140000023,165.57789140000023,165.57789140000023,165.57789140000023,,002,P008,2025_Feb_01_1210,CategoryLocalizer,2021.2.3,59.93367739299467,
128.0,128.8,4,0.75,Stimuli\ImageFiles-Set2\Scenes\Scenes_118.png,0,0,0,210,210,210,,,,,,,,,,,,,128.01151140000002,0.011511400000017602,None,165.76138470000114,165.76138470000114,165.76138470000114,165.76138470000114,165.76138470000114,165.76138470000114,165.76138470000114,165.76138470000114,,002,P008,2025_Feb_01_1210,CategoryLocalizer,2021.2.3,59.93367739299467,
128.8,129.0,5,0.0,Stimuli\Blank.png,0,0,0,211,211,211,,,,,,,,,,,,,128.81174420000025,0.011744200000237015,None,166.5620940000008,166.5620940000008,166.5620940000008,166.5620940000008,166.5620940000008,166.5620940000008,166.5620940000008,166.5620940000008,,002,P008,2025_Feb_01_1210,CategoryLocalizer,2021.2.3,59.93367739299467,
129.0,129.8,4,0.75,Stimuli\ImageFiles-Set2\Scenes\Scenes_080.png,0,0,0,212,212,212,,,,,,,,,,,,,129.01180139999997,0.011801399999967543,None,166.76227430000108,166.76227430000108,166.76227430000108,166.76227430000108,166.76227430000108,166.76227430000108,166.76227430000108,166.76227430000108,,002,P008,2025_Feb_01_1210,CategoryLocalizer,2021.2.3,59.93367739299467,
129.8,130.0,5,0.0,Stimuli\Blank.png,0,0,0,213,213,213,,,,,,,,,,,,,129.81257480000022,0.012574800000209052,None,167.56299110000145,167.56299110000145,167.56299110000145,167.56299110000145,167.56299110000145,167.56299110000145,167.56299110000145,167.56299110000145,,002,P008,2025_Feb_01_1210,CategoryLocalizer,2021.2.3,59.93367739299467,
130.0,130.8,4,0.75,Stimuli\ImageFiles-Set2\Scenes\Scenes_078.png,0,0,0,214,214,214,,,,,,,,,,,,,130.01284990000022,0.01284990000021935,None,167.76315480000085,167.76315480000085,167.76315480000085,167.76315480000085,167.76315480000085,167.76315480000085,167.76315480000085,167.76315480000085,,002,P008,2025_Feb_01_1210,CategoryLocalizer,2021.2.3,59.93367739299467,
130.8,131.0,5,0.0,Stimuli\Blank.png,0,0,0,215,215,215,,,,,,,,,,,,,130.8158715999998,0.015871599999798036,None,168.58056000000033,168.58056000000033,168.58056000000033,168.58056000000033,168.58056000000033,168.58056000000033,168.58056000000033,168.58056000000033,,002,P008,2025_Feb_01_1210,CategoryLocalizer,2021.2.3,59.93367739299467,
131.0,131.8,4,0.75,Stimuli\ImageFiles-Set2\Scenes\Scenes_090.png,0,0,0,216,216,216,,,,,,,,,,,,,131.01627609999923,0.01627609999923152,None,168.7807238000005,168.7807238000005,168.7807238000005,168.7807238000005,168.7807238000005,168.7807238000005,168.7807238000005,168.7807238000005,,002,P008,2025_Feb_01_1210,CategoryLocalizer,2021.2.3,59.93367739299467,
131.8,132.0,5,0.0,Stimuli\Blank.png,0,0,0,217,217,217,,,,,,,,,,,,,131.81505809999908,0.015058099999066599,None,169.5648222000018,169.5648222000018,169.5648222000018,169.5648222000018,169.5648222000018,169.5648222000018,169.5648222000018,169.5648222000018,,002,P008,2025_Feb_01_1210,CategoryLocalizer,2021.2.3,59.93367739299467,
132.0,132.8,4,0.75,Stimuli\ImageFiles-Set2\Scenes\Scenes_093.png,0,0,0,218,218,218,,,,,,,,,,,,,132.01450079999995,0.014500799999950686,None,169.76492060000055,169.76492060000055,169.76492060000055,169.76492060000055,169.76492060000055,169.76492060000055,169.76492060000055,169.76492060000055,,002,P008,2025_Feb_01_1210,CategoryLocalizer,2021.2.3,59.93367739299467,
132.8,133.0,5,0.0,Stimuli\Blank.png,0,0,0,219,219,219,,,,,,,,,,,,,132.81584119999934,0.015841199999329092,None,170.56564180000169,170.56564180000169,170.56564180000169,170.56564180000169,170.56564180000169,170.56564180000169,170.56564180000169,170.56564180000169,,002,P008,2025_Feb_01_1210,CategoryLocalizer,2021.2.3,59.93367739299467,
133.0,133.8,4,0.75,Stimuli\ImageFiles-Set2\Scenes\Scenes_093.png,1,1,0,220,220,220,,,,,,,,,,,,,133.00158120000015,0.0015812000001460547,2,170.76582690000032,170.76582690000032,170.76582690000032,170.76582690000032,170.76582690000032,170.76582690000032,170.76582690000032,170.76582690000032,0.5032957999992504,002,P008,2025_Feb_01_1210,CategoryLocalizer,2021.2.3,59.93367739299467,
133.8,134.0,5,0.0,Stimuli\Blank.png,0,0,0,221,221,221,,,,,,,,,,,,,133.81618510000044,0.01618510000042761,None,171.5665222000007,171.5665222000007,171.5665222000007,171.5665222000007,171.5665222000007,171.5665222000007,171.5665222000007,171.5665222000007,,002,P008,2025_Feb_01_1210,CategoryLocalizer,2021.2.3,59.93367739299467,
134.0,134.8,4,0.75,Stimuli\ImageFiles-Set2\Scenes\Scenes_065.png,0,0,0,222,222,222,,,,,,,,,,,,,133.99960499999906,-0.0003950000009353971,None,171.7500129,171.7500129,171.7500129,171.7500129,171.7500129,171.7500129,171.7500129,171.7500129,,002,P008,2025_Feb_01_1210,CategoryLocalizer,2021.2.3,59.93367739299467,
134.8,135.0,5,0.0,Stimuli\Blank.png,0,0,0,223,223,223,,,,,,,,,,,,,134.80108990000008,0.0010899000000677006,None,172.5507329000011,172.5507329000011,172.5507329000011,172.5507329000011,172.5507329000011,172.5507329000011,172.5507329000011,172.5507329000011,,002,P008,2025_Feb_01_1210,CategoryLocalizer,2021.2.3,59.93367739299467,
135.0,135.8,4,0.75,Stimuli\ImageFiles-Set2\Scenes\Scenes_120.png,0,0,0,224,224,224,,,,,,,,,,,,,135.00095630000033,0.0009563000003254274,None,172.7675919000012,172.7675919000012,172.7675919000012,172.7675919000012,172.7675919000012,172.7675919000012,172.7675919000012,172.7675919000012,,002,P008,2025_Feb_01_1210,CategoryLocalizer,2021.2.3,59.93367739299467,
135.8,136.0,5,0.0,Stimuli\Blank.png,0,0,0,225,225,225,,,,,,,,,,,,,135.8201938000002,0.020193800000186002,None,173.58499670000128,173.58499670000128,173.58499670000128,173.58499670000128,173.58499670000128,173.58499670000128,173.58499670000128,173.58499670000128,,002,P008,2025_Feb_01_1210,CategoryLocalizer,2021.2.3,59.93367739299467,
136.0,136.8,2,0.75,Stimuli\ImageFiles-Set2\Bodies\Bodies_Jumping_00005.png,0,0,0,226,226,226,,,,,,,,,,,,,136.02051629999914,0.020516299999144394,None,173.7851765000014,173.7851765000014,173.7851765000014,173.7851765000014,173.7851765000014,173.7851765000014,173.7851765000014,173.7851765000014,,002,P008,2025_Feb_01_1210,CategoryLocalizer,2021.2.3,59.93367739299467,
136.8,137.0,5,0.0,Stimuli\Blank.png,0,0,0,227,227,227,,,,,,,,,,,,,136.82050340000023,0.020503400000222882,None,174.58587920000173,174.58587920000173,174.58587920000173,174.58587920000173,174.58587920000173,174.58587920000173,174.58587920000173,174.58587920000173,,002,P008,2025_Feb_01_1210,CategoryLocalizer,2021.2.3,59.93367739299467,
137.0,137.8,2,0.75,Stimuli\ImageFiles-Set2\Bodies\Bodies_SittingStretch_00003.png,0,0,0,228,228,228,,,,,,,,,,,,,137.0212219999994,0.021221999999397667,None,174.786035000001,174.786035000001,174.786035000001,174.786035000001,174.786035000001,174.786035000001,174.786035000001,174.786035000001,,002,P008,2025_Feb_01_1210,CategoryLocalizer,2021.2.3,59.93367739299467,
137.8,138.0,5,0.0,Stimuli\Blank.png,0,0,0,229,229,229,,,,,,,,,,,,,137.81995629999983,0.019956299999819294,None,175.57006170000022,175.57006170000022,175.57006170000022,175.57006170000022,175.57006170000022,175.57006170000022,175.57006170000022,175.57006170000022,,002,P008,2025_Feb_01_1210,CategoryLocalizer,2021.2.3,59.93367739299467,
138.0,138.8,2,0.75,Stimuli\ImageFiles-Set2\Bodies\Bodies_Pushing_00006.png,0,0,0,230,230,230,,,,,,,,,,,,,138.00322290000076,0.003222900000764639,None,175.75362600000153,175.75362600000153,175.75362600000153,175.75362600000153,175.75362600000153,175.75362600000153,175.75362600000153,175.75362600000153,,002,P008,2025_Feb_01_1210,CategoryLocalizer,2021.2.3,59.93367739299467,
138.8,139.0,5,0.0,Stimuli\Blank.png,0,0,0,231,231,231,,,,,,,,,,,,,138.8064445,0.006444499999986419,None,176.57095410000147,176.57095410000147,176.57095410000147,176.57095410000147,176.57095410000147,176.57095410000147,176.57095410000147,176.57095410000147,,002,P008,2025_Feb_01_1210,CategoryLocalizer,2021.2.3,59.93367739299467,
139.0,139.8,2,0.75,Stimuli\ImageFiles-Set2\Bodies\Bodies_SittingChair_00006.png,0,0,0,232,232,232,,,,,,,,,,,,,139.0211746999994,0.021174699999392033,None,176.7878320000018,176.7878320000018,176.7878320000018,176.7878320000018,176.7878320000018,176.7878320000018,176.7878320000018,176.7878320000018,,002,P008,2025_Feb_01_1210,CategoryLocalizer,2021.2.3,59.93367739299467,
139.8,140.0,5,0.0,Stimuli\Blank.png,0,0,0,233,233,233,,,,,,,,,,,,,139.8213796,0.02137959999998884,None,177.57183130000158,177.57183130000158,177.57183130000158,177.57183130000158,177.57183130000158,177.57183130000158,177.57183130000158,177.57183130000158,,002,P008,2025_Feb_01_1210,CategoryLocalizer,2021.2.3,59.93367739299467,
140.0,140.8,2,0.75,Stimuli\ImageFiles-Set2\Bodies\Bodies_Hanging_00007.png,0,0,0,234,234,234,,,,,,,,,,,,,140.00479319999977,0.004793199999767239,None,177.75532470000144,177.75532470000144,177.75532470000144,177.75532470000144,177.75532470000144,177.75532470000144,177.75532470000144,177.75532470000144,,002,P008,2025_Feb_01_1210,CategoryLocalizer,2021.2.3,59.93367739299467,
140.8,141.0,5,0.0,Stimuli\Blank.png,0,0,0,235,235,235,,,,,,,,,,,,,140.80629509999926,0.006295099999249487,None,178.55605060000016,178.55605060000016,178.55605060000016,178.55605060000016,178.55605060000016,178.55605060000016,178.55605060000016,178.55605060000016,,002,P008,2025_Feb_01_1210,CategoryLocalizer,2021.2.3,59.93367739299467,
141.0,141.8,2,0.75,Stimuli\ImageFiles-Set2\Bodies\Bodies_Hanging_00005.png,0,0,0,236,236,236,,,,,,,,,,,,,141.00567109999974,0.005671099999744911,None,178.7562093000015,178.7562093000015,178.7562093000015,178.7562093000015,178.7562093000015,178.7562093000015,178.7562093000015,178.7562093000015,,002,P008,2025_Feb_01_1210,CategoryLocalizer,2021.2.3,59.93367739299467,
141.8,142.0,5,0.0,Stimuli\Blank.png,0,0,0,237,237,237,,,,,,,,,,,,,141.80644460000076,0.006444600000747869,None,179.55692360000103,179.55692360000103,179.55692360000103,179.55692360000103,179.55692360000103,179.55692360000103,179.55692360000103,179.55692360000103,,002,P008,2025_Feb_01_1210,CategoryLocalizer,2021.2.3,59.93367739299467,
142.0,142.8,2,0.75,Stimuli\ImageFiles-Set2\Bodies\Bodies_Standing_00006.png,0,0,0,238,238,238,,,,,,,,,,,,,142.00663170000007,0.00663170000007085,None,179.75709570000072,179.75709570000072,179.75709570000072,179.75709570000072,179.75709570000072,179.75709570000072,179.75709570000072,179.75709570000072,,002,P008,2025_Feb_01_1210,CategoryLocalizer,2021.2.3,59.93367739299467,
142.8,143.0,5,0.0,Stimuli\Blank.png,0,0,0,239,239,239,,,,,,,,,,,,,142.8072788999998,0.007278899999789701,None,180.5578082000011,180.5578082000011,180.5578082000011,180.5578082000011,180.5578082000011,180.5578082000011,180.5578082000011,180.5578082000011,,002,P008,2025_Feb_01_1210,CategoryLocalizer,2021.2.3,59.93367739299467,
143.0,143.8,2,0.75,Stimuli\ImageFiles-Set2\Bodies\Bodies_SittingFloor_00006.png,0,0,0,240,240,240,,,,,,,,,,,,,143.00808250000046,0.008082500000455184,None,180.75798790000044,180.75798790000044,180.75798790000044,180.75798790000044,180.75798790000044,180.75798790000044,180.75798790000044,180.75798790000044,,002,P008,2025_Feb_01_1210,CategoryLocalizer,2021.2.3,59.93367739299467,
143.8,144.0,5,0.0,Stimuli\Blank.png,0,0,0,241,241,241,,,,,,,,,,,,,143.80818460000046,0.008184600000447517,None,181.55876390000049,181.55876390000049,181.55876390000049,181.55876390000049,181.55876390000049,181.55876390000049,181.55876390000049,181.55876390000049,,002,P008,2025_Feb_01_1210,CategoryLocalizer,2021.2.3,59.93367739299467,
144.0,144.8,2,0.75,Stimuli\ImageFiles-Set2\Bodies\Bodies_Walking_00003.png,0,0,0,242,242,242,,,,,,,,,,,,,144.0107766000001,0.010776600000099279,None,181.7755629000003,181.7755629000003,181.7755629000003,181.7755629000003,181.7755629000003,181.7755629000003,181.7755629000003,181.7755629000003,,002,P008,2025_Feb_01_1210,CategoryLocalizer,2021.2.3,59.93367739299467,
144.8,145.0,5,0.0,Stimuli\Blank.png,0,0,0,243,243,243,,,,,,,,,,,,,144.8258165999996,0.025816599999586742,None,182.5762693000015,182.5762693000015,182.5762693000015,182.5762693000015,182.5762693000015,182.5762693000015,182.5762693000015,182.5762693000015,,002,P008,2025_Feb_01_1210,CategoryLocalizer,2021.2.3,59.93367739299467,
145.0,145.8,2,0.75,Stimuli\ImageFiles-Set2\Bodies\Bodies_Walking_00003.png,1,1,0,244,244,244,,,,,,,,,,,,,145.00982490000024,0.009824900000239722,2,182.75975760000074,182.75975760000074,182.75975760000074,182.75975760000074,182.75975760000074,182.75975760000074,182.75975760000074,182.75975760000074,0.5371629000001121,002,P008,2025_Feb_01_1210,CategoryLocalizer,2021.2.3,59.93367739299467,
145.8,146.0,5,0.0,Stimuli\Blank.png,0,0,0,245,245,245,,,,,,,,,,,,,145.8109256000007,0.010925600000689428,None,183.56061540000155,183.56061540000155,183.56061540000155,183.56061540000155,183.56061540000155,183.56061540000155,183.56061540000155,183.56061540000155,,002,P008,2025_Feb_01_1210,CategoryLocalizer,2021.2.3,59.93367739299467,
146.0,146.8,2,0.75,Stimuli\ImageFiles-Set2\Bodies\Bodies_SittingStretch_00006.png,0,0,0,246,246,246,,,,,,,,,,,,,146.01047309999922,0.010473099999217084,None,183.76063800000156,183.76063800000156,183.76063800000156,183.76063800000156,183.76063800000156,183.76063800000156,183.76063800000156,183.76063800000156,,002,P008,2025_Feb_01_1210,CategoryLocalizer,2021.2.3,59.93367739299467,
146.8,147.0,5,0.0,Stimuli\Blank.png,0,0,0,247,247,247,,,,,,,,,,,,,146.81136719999995,0.011367199999938293,None,184.5613583000013,184.5613583000013,184.5613583000013,184.5613583000013,184.5613583000013,184.5613583000013,184.5613583000013,184.5613583000013,,002,P008,2025_Feb_01_1210,CategoryLocalizer,2021.2.3,59.93367739299467,
147.0,147.8,2,0.75,Stimuli\ImageFiles-Set2\Bodies\Bodies_SittingChair_00004.png,0,0,0,248,248,248,,,,,,,,,,,,,147.01169710000067,0.011697100000674254,None,184.7782255000002,184.7782255000002,184.7782255000002,184.7782255000002,184.7782255000002,184.7782255000002,184.7782255000002,184.7782255000002,,002,P008,2025_Feb_01_1210,CategoryLocalizer,2021.2.3,59.93367739299467,
147.8,148.0,5,0.0,Stimuli\Blank.png,0,0,0,249,249,249,,,,,,,,,,,,,147.8301592000007,0.030159200000696273,None,185.59562670000014,185.59562670000014,185.59562670000014,185.59562670000014,185.59562670000014,185.59562670000014,185.59562670000014,185.59562670000014,,002,P008,2025_Feb_01_1210,CategoryLocalizer,2021.2.3,59.93367739299467,
148.0,148.8,2,0.75,Stimuli\ImageFiles-Set2\Bodies\Bodies_DownwardDog_00002.png,0,0,0,250,250,250,,,,,,,,,,,,,148.03122260000055,0.031222600000546663,None,185.79578110000148,185.79578110000148,185.79578110000148,185.79578110000148,185.79578110000148,185.79578110000148,185.79578110000148,185.79578110000148,,002,P008,2025_Feb_01_1210,CategoryLocalizer,2021.2.3,59.93367739299467,
148.8,149.0,5,0.0,Stimuli\Blank.png,0,0,0,251,251,251,,,,,,,,,,,,,148.83093949999966,0.03093949999964707,None,186.57979950000117,186.57979950000117,186.57979950000117,186.57979950000117,186.57979950000117,186.57979950000117,186.57979950000117,186.57979950000117,,002,P008,2025_Feb_01_1210,CategoryLocalizer,2021.2.3,59.93367739299467,
149.0,149.8,2,0.75,Stimuli\ImageFiles-Set2\Bodies\Bodies_Jumping_00001.png,0,0,0,252,252,252,,,,,,,,,,,,,149.01548249999905,0.01548249999905238,None,186.7799769000012,186.7799769000012,186.7799769000012,186.7799769000012,186.7799769000012,186.7799769000012,186.7799769000012,186.7799769000012,,002,P008,2025_Feb_01_1210,CategoryLocalizer,2021.2.3,59.93367739299467,
149.8,150.0,5,0.0,Stimuli\Blank.png,0,0,0,253,253,253,,,,,,,,,,,,,149.81533169999966,0.015331699999649118,None,187.58079010000074,187.58079010000074,187.58079010000074,187.58079010000074,187.58079010000074,187.58079010000074,187.58079010000074,187.58079010000074,,002,P008,2025_Feb_01_1210,CategoryLocalizer,2021.2.3,59.93367739299467,
150.0,150.8,2,0.75,Stimuli\ImageFiles-Set2\Bodies\Bodies_Crawling_00002.png,0,0,0,254,254,254,,,,,,,,,,,,,150.0303487000001,0.030348700000104145,None,187.78091720000157,187.78091720000157,187.78091720000157,187.78091720000157,187.78091720000157,187.78091720000157,187.78091720000157,187.78091720000157,,002,P008,2025_Feb_01_1210,CategoryLocalizer,2021.2.3,59.93367739299467,
150.8,151.0,5,0.0,Stimuli\Blank.png,0,0,0,255,255,255,,,,,,,,,,,,,150.81517770000028,0.015177700000265304,None,188.5649013000002,188.5649013000002,188.5649013000002,188.5649013000002,188.5649013000002,188.5649013000002,188.5649013000002,188.5649013000002,,002,P008,2025_Feb_01_1210,CategoryLocalizer,2021.2.3,59.93367739299467,
151.0,151.8,2,0.75,Stimuli\ImageFiles-Set2\Bodies\Bodies_QuadStretch_00006.png,0,0,0,256,256,256,,,,,,,,,,,,,151.01522879999902,0.015228799999022158,None,188.76507630000015,188.76507630000015,188.76507630000015,188.76507630000015,188.76507630000015,188.76507630000015,188.76507630000015,188.76507630000015,,002,P008,2025_Feb_01_1210,CategoryLocalizer,2021.2.3,59.93367739299467,
151.8,152.0,5,0.0,Stimuli\Blank.png,0,0,0,257,257,257,,,,,,,,,,,,,151.8006635999991,0.0006635999990862729,None,189.56581340000048,189.56581340000048,189.56581340000048,189.56581340000048,189.56581340000048,189.56581340000048,189.56581340000048,189.56581340000048,,002,P008,2025_Feb_01_1210,CategoryLocalizer,2021.2.3,59.93367739299467,
152.0,164.0,0,0.0,Stimuli\Blank.png,0,0,0,258,258,258,,,,,,,,,,,,,152.01549899999918,0.015498999999181251,None,189.76594490000025,189.76594490000025,189.76594490000025,189.76594490000025,189.76594490000025,189.76594490000025,189.76594490000025,189.76594490000025,,002,P008,2025_Feb_01_1210,CategoryLocalizer,2021.2.3,59.93367739299467,
164.0,164.8,4,0.75,Stimuli\ImageFiles-Set2\Scenes\Scenes_097.png,0,0,0,259,259,259,,,,,,,,,,,,,164.0100309999998,0.01003099999979895,None,201.75989430000118,201.75989430000118,201.75989430000118,201.75989430000118,201.75989430000118,201.75989430000118,201.75989430000118,201.75989430000118,,002,P008,2025_Feb_01_1210,CategoryLocalizer,2021.2.3,59.93367739299467,
164.8,165.0,5,0.0,Stimuli\Blank.png,0,0,0,260,260,260,,,,,,,,,,,,,164.81070750000072,0.01070750000070575,None,202.56060890000117,202.56060890000117,202.56060890000117,202.56060890000117,202.56060890000117,202.56060890000117,202.56060890000117,202.56060890000117,,002,P008,2025_Feb_01_1210,CategoryLocalizer,2021.2.3,59.93367739299467,
165.0,165.8,4,0.75,Stimuli\ImageFiles-Set2\Scenes\Scenes_096.png,0,0,0,261,261,261,,,,,,,,,,,,,165.01131010000063,0.011310100000628154,None,202.7774859000001,202.7774859000001,202.7774859000001,202.7774859000001,202.7774859000001,202.7774859000001,202.7774859000001,202.7774859000001,,002,P008,2025_Feb_01_1210,CategoryLocalizer,2021.2.3,59.93367739299467,
165.8,166.0,5,0.0,Stimuli\Blank.png,0,0,0,262,262,262,,,,,,,,,,,,,165.8283668999993,0.028366899999298312,None,203.57824270000128,203.57824270000128,203.57824270000128,203.57824270000128,203.57824270000128,203.57824270000128,203.57824270000128,203.57824270000128,,002,P008,2025_Feb_01_1210,CategoryLocalizer,2021.2.3,59.93367739299467,
166.0,166.8,4,0.75,Stimuli\ImageFiles-Set2\Scenes\Scenes_101.png,0,0,0,263,263,263,,,,,,,,,,,,,166.0117322999995,0.01173229999949399,None,203.7616665000005,203.7616665000005,203.7616665000005,203.7616665000005,203.7616665000005,203.7616665000005,203.7616665000005,203.7616665000005,,002,P008,2025_Feb_01_1210,CategoryLocalizer,2021.2.3,59.93367739299467,
166.8,167.0,5,0.0,Stimuli\Blank.png,0,0,0,264,264,264,,,,,,,,,,,,,166.81194759999926,0.011947599999245995,None,204.56236850000096,204.56236850000096,204.56236850000096,204.56236850000096,204.56236850000096,204.56236850000096,204.56236850000096,204.56236850000096,,002,P008,2025_Feb_01_1210,CategoryLocalizer,2021.2.3,59.93367739299467,
167.0,167.8,4,0.75,Stimuli\ImageFiles-Set2\Scenes\Scenes_061.png,0,0,0,265,265,265,,,,,,,,,,,,,167.01298599999973,0.012985999999727937,None,204.7625491000017,204.7625491000017,204.7625491000017,204.7625491000017,204.7625491000017,204.7625491000017,204.7625491000017,204.7625491000017,,002,P008,2025_Feb_01_1210,CategoryLocalizer,2021.2.3,59.93367739299467,
167.8,168.0,5,0.0,Stimuli\Blank.png,0,0,0,266,266,266,,,,,,,,,,,,,167.81269969999994,0.012699699999927816,None,205.56326160000026,205.56326160000026,205.56326160000026,205.56326160000026,205.56326160000026,205.56326160000026,205.56326160000026,205.56326160000026,,002,P008,2025_Feb_01_1210,CategoryLocalizer,2021.2.3,59.93367739299467,
168.0,168.8,4,0.75,Stimuli\ImageFiles-Set2\Scenes\Scenes_083.png,0,0,0,267,267,267,,,,,,,,,,,,,168.0137909999994,0.01379099999940081,None,205.78025460000026,205.78025460000026,205.78025460000026,205.78025460000026,205.78025460000026,205.78025460000026,205.78025460000026,205.78025460000026,,002,P008,2025_Feb_01_1210,CategoryLocalizer,2021.2.3,59.93367739299467,
168.8,169.0,5,0.0,Stimuli\Blank.png,0,0,0,268,268,268,,,,,,,,,,,,,168.83081029999994,0.030810299999927793,None,206.58082960000138,206.58082960000138,206.58082960000138,206.58082960000138,206.58082960000138,206.58082960000138,206.58082960000138,206.58082960000138,,002,P008,2025_Feb_01_1210,CategoryLocalizer,2021.2.3,59.93367739299467,
169.0,169.8,4,0.75,Stimuli\ImageFiles-Set2\Scenes\Scenes_083.png,1,1,0,269,269,269,,,,,,,,,,,,,169.01551049999944,0.015510499999436433,2,206.7810018,206.7810018,206.7810018,206.7810018,206.7810018,206.7810018,206.7810018,206.7810018,0.5869117000002007,002,P008,2025_Feb_01_1210,CategoryLocalizer,2021.2.3,59.93367739299467,
169.8,170.0,5,0.0,Stimuli\Blank.png,0,0,0,270,270,270,,,,,,,,,,,,,169.81512139999904,0.015121399999031837,None,207.56503260000136,207.56503260000136,207.56503260000136,207.56503260000136,207.56503260000136,207.56503260000136,207.56503260000136,207.56503260000136,,002,P008,2025_Feb_01_1210,CategoryLocalizer,2021.2.3,59.93367739299467,
170.0,170.8,4,0.75,Stimuli\ImageFiles-Set2\Scenes\Scenes_072.png,0,0,0,271,271,271,,,,,,,,,,,,,170.01532299999963,0.015322999999625608,None,207.78188770000088,207.78188770000088,207.78188770000088,207.78188770000088,207.78188770000088,207.78188770000088,207.78188770000088,207.78188770000088,,002,P008,2025_Feb_01_1210,CategoryLocalizer,2021.2.3,59.93367739299467,
170.8,171.0,5,0.0,Stimuli\Blank.png,0,0,0,272,272,272,,,,,,,,,,,,,170.81594880000011,0.015948800000103347,None,208.56594340000083,208.56594340000083,208.56594340000083,208.56594340000083,208.56594340000083,208.56594340000083,208.56594340000083,208.56594340000083,,002,P008,2025_Feb_01_1210,CategoryLocalizer,2021.2.3,59.93367739299467,
171.0,171.8,4,0.75,Stimuli\ImageFiles-Set2\Scenes\Scenes_112.png,0,0,0,273,273,273,,,,,,,,,,,,,171.00072929999988,0.0007292999998753658,None,208.7660902000007,208.7660902000007,208.7660902000007,208.7660902000007,208.7660902000007,208.7660902000007,208.7660902000007,208.7660902000007,,002,P008,2025_Feb_01_1210,CategoryLocalizer,2021.2.3,59.93367739299467,
171.8,172.0,5,0.0,Stimuli\Blank.png,0,0,0,274,274,274,,,,,,,,,,,,,171.8166196000002,0.016619600000183254,None,209.56681410000056,209.56681410000056,209.56681410000056,209.56681410000056,209.56681410000056,209.56681410000056,209.56681410000056,209.56681410000056,,002,P008,2025_Feb_01_1210,CategoryLocalizer,2021.2.3,59.93367739299467,
172.0,172.8,4,0.75,Stimuli\ImageFiles-Set2\Scenes\Scenes_081.png,1,1,0,275,275,275,,,,,,,,,,,,,172.00040509999963,0.0004050999996252358,None,209.76697870000135,209.76697870000135,209.76697870000135,209.76697870000135,209.76697870000135,209.76697870000135,209.76697870000135,209.76697870000135,,002,P008,2025_Feb_01_1210,CategoryLocalizer,2021.2.3,59.93367739299467,
172.8,173.0,5,0.0,Stimuli\Blank.png,0,0,0,276,276,276,,,,,,,,,,,,,172.81781279999996,0.017812799999944673,None,210.5676813000009,210.5676813000009,210.5676813000009,210.5676813000009,210.5676813000009,210.5676813000009,210.5676813000009,210.5676813000009,,002,P008,2025_Feb_01_1210,CategoryLocalizer,2021.2.3,59.93367739299467,
173.0,173.8,4,0.75,Stimuli\ImageFiles-Set2\Scenes\Scenes_098.png,0,0,0,277,277,277,,,,,,,,,,,,,173.00076230000013,0.0007623000001331093,None,210.7511744000003,210.7511744000003,210.7511744000003,210.7511744000003,210.7511744000003,210.7511744000003,210.7511744000003,210.7511744000003,,002,P008,2025_Feb_01_1210,CategoryLocalizer,2021.2.3,59.93367739299467,
173.8,174.0,5,0.0,Stimuli\Blank.png,0,0,0,278,278,278,,,,,,,,,,,,,173.80166009999994,0.001660099999924114,None,211.5518800000009,211.5518800000009,211.5518800000009,211.5518800000009,211.5518800000009,211.5518800000009,211.5518800000009,211.5518800000009,,002,P008,2025_Feb_01_1210,CategoryLocalizer,2021.2.3,59.93367739299467,
174.0,174.8,4,0.75,Stimuli\ImageFiles-Set2\Scenes\Scenes_098.png,0,0,0,279,279,279,,,,,,,,,,,,,174.0024725000003,0.0024725000002945308,2,211.75206030000118,211.75206030000118,211.75206030000118,211.75206030000118,211.75206030000118,211.75206030000118,211.75206030000118,211.75206030000118,0.46087900000020454,002,P008,2025_Feb_01_1210,CategoryLocalizer,2021.2.3,59.93367739299467,
174.8,175.0,5,0.0,Stimuli\Blank.png,0,0,0,280,280,280,,,,,,,,,,,,,174.80390439999974,0.003904399999726138,None,212.55278220000037,212.55278220000037,212.55278220000037,212.55278220000037,212.55278220000037,212.55278220000037,212.55278220000037,212.55278220000037,,002,P008,2025_Feb_01_1210,CategoryLocalizer,2021.2.3,59.93367739299467,
175.0,175.8,4,0.75,Stimuli\ImageFiles-Set2\Scenes\Scenes_063.png,0,0,0,281,281,281,,,,,,,,,,,,,175.00524869999936,0.005248699999356177,None,212.7696343000007,212.7696343000007,212.7696343000007,212.7696343000007,212.7696343000007,212.7696343000007,212.7696343000007,212.7696343000007,,002,P008,2025_Feb_01_1210,CategoryLocalizer,2021.2.3,59.93367739299467,
175.8,176.0,5,0.0,Stimuli\Blank.png,0,0,0,282,282,282,,,,,,,,,,,,,175.8198228000001,0.019822800000099505,None,213.57039270000132,213.57039270000132,213.57039270000132,213.57039270000132,213.57039270000132,213.57039270000132,213.57039270000132,213.57039270000132,,002,P008,2025_Feb_01_1210,CategoryLocalizer,2021.2.3,59.93367739299467,
176.0,176.8,4,0.75,Stimuli\ImageFiles-Set2\Scenes\Scenes_085.png,0,0,0,283,283,283,,,,,,,,,,,,,176.00550900000053,0.0055090000005293405,None,213.77051690000008,213.77051690000008,213.77051690000008,213.77051690000008,213.77051690000008,213.77051690000008,213.77051690000008,213.77051690000008,,002,P008,2025_Feb_01_1210,CategoryLocalizer,2021.2.3,59.93367739299467,
176.8,177.0,5,0.0,Stimuli\Blank.png,0,0,0,284,284,284,,,,,,,,,,,,,176.82127190000028,0.021271900000272126,None,214.5712325000004,214.5712325000004,214.5712325000004,214.5712325000004,214.5712325000004,214.5712325000004,214.5712325000004,214.5712325000004,,002,P008,2025_Feb_01_1210,CategoryLocalizer,2021.2.3,59.93367739299467,
177.0,177.8,4,0.75,Stimuli\ImageFiles-Set2\Scenes\Scenes_088.png,0,0,0,285,285,285,,,,,,,,,,,,,177.00475129999904,0.004751299999043113,None,214.77139830000124,214.77139830000124,214.77139830000124,214.77139830000124,214.77139830000124,214.77139830000124,214.77139830000124,214.77139830000124,,002,P008,2025_Feb_01_1210,CategoryLocalizer,2021.2.3,59.93367739299467,
