eventStartTime,eventEndTime,eventCond,imSize,imFile,repeatedImage,responseEvent,Events.thisRepN,Events.thisTrialN,Events.thisN,Events.thisIndex,Instructions.started,Instructions.stopped,participantReadyResponse.keys,participantReadyResponse.rt,participantReadyResponse.started,participantReadyResponse.stopped,startWaitforTrigger,triggerResponse.keys,triggerResponse.rt,triggerResponse.started,triggerResponse.stopped,globalTimer,actualStartTime,startTimingDiff,participantResponse.keys,participantResponse.started,participantResponse.stopped,image.started,image.stopped,fixationOutside.started,fixationOutside.stopped,fixationInside.started,fixationInside.stopped,participantResponse.rt,session,participant,date,expName,psychopyVersion,frameRate,
,,,,,,,,,,,9.479011499999615,None,2,9.583851499999582,9.479011499999615,None,,,,,,,,,,,,,,,,,,,001,P008,2025_Feb_01_1141,CategoryLocalizer,2021.2.3,59.94995377874185,
,,,,,,,,,,,,,,,,,19.06878130000041,5,14.375472600000649,19.08155860000079,None,,,,,,,,,,,,,,001,P008,2025_Feb_01_1141,CategoryLocalizer,2021.2.3,59.94995377874185,
0.0,12.0,0,0.0,Stimuli\Blank.png,0,0,0,0,0,0,,,,,,,,,,,,33.46316800000022,0.029137100000298233,0.029137100000298233,None,33.510896600000706,None,33.510896600000706,None,33.510896600000706,None,33.510896600000706,None,,001,P008,2025_Feb_01_1141,CategoryLocalizer,2021.2.3,59.94995377874185,
12.0,12.8,1,0.75,Stimuli\ImageFiles-Set1\Objects\Object_FileFolder_00001.png,0,0,0,1,1,1,,,,,,,,,,,,,12.016352900000129,0.01635290000012901,None,45.50484049999977,45.50484049999977,45.50484049999977,45.50484049999977,45.50484049999977,45.50484049999977,45.50484049999977,45.50484049999977,,001,P008,2025_Feb_01_1141,CategoryLocalizer,2021.2.3,59.94995377874185,
12.8,13.0,5,0.0,Stimuli\Blank.png,0,0,0,2,2,2,,,,,,,,,,,,,12.81097740000041,0.010977400000410142,None,46.288859300000695,46.288859300000695,46.288859300000695,46.288859300000695,46.288859300000695,46.288859300000695,46.288859300000695,46.288859300000695,,001,P008,2025_Feb_01_1141,CategoryLocalizer,2021.2.3,59.94995377874185,
13.0,13.8,1,0.75,Stimuli\ImageFiles-Set1\Objects\Object_Scale_00001.png,0,0,0,3,3,3,,,,,,,,,,,,,13.01367609999943,0.013676099999429425,None,46.50575060000119,46.50575060000119,46.50575060000119,46.50575060000119,46.50575060000119,46.50575060000119,46.50575060000119,46.50575060000119,,001,P008,2025_Feb_01_1141,CategoryLocalizer,2021.2.3,59.94995377874185,
13.8,14.0,5,0.0,Stimuli\Blank.png,0,0,0,4,4,4,,,,,,,,,,,,,13.828549399999247,0.028549399999246106,None,47.306425599999784,47.306425599999784,47.306425599999784,47.306425599999784,47.306425599999784,47.306425599999784,47.306425599999784,47.306425599999784,,001,P008,2025_Feb_01_1141,CategoryLocalizer,2021.2.3,59.94995377874185,
14.0,14.8,1,0.75,Stimuli\ImageFiles-Set1\Objects\Object_Scale_00001.png,1,1,0,5,5,5,,,,,,,,,,,,,14.012329099999988,0.012329099999988102,2,47.489918999999645,47.489918999999645,47.489918999999645,47.489918999999645,47.489918999999645,47.489918999999645,47.489918999999645,47.489918999999645,0.36022400000001653,001,P008,2025_Feb_01_1141,CategoryLocalizer,2021.2.3,59.94995377874185,
14.8,15.0,5,0.0,Stimuli\Blank.png,0,0,0,6,6,6,,,,,,,,,,,,,14.814058599999044,0.014058599999042798,None,48.290645799999766,48.290645799999766,48.290645799999766,48.290645799999766,48.290645799999766,48.290645799999766,48.290645799999766,48.290645799999766,,001,P008,2025_Feb_01_1141,CategoryLocalizer,2021.2.3,59.94995377874185,
15.0,15.8,1,0.75,Stimuli\ImageFiles-Set1\Objects\Object_Watch_00001.png,0,0,0,7,7,7,,,,,,,,,,,,,15.013522499999453,0.01352249999945343,None,48.50748820000081,48.50748820000081,48.50748820000081,48.50748820000081,48.50748820000081,48.50748820000081,48.50748820000081,48.50748820000081,,001,P008,2025_Feb_01_1141,CategoryLocalizer,2021.2.3,59.94995377874185,
15.8,16.0,5,0.0,Stimuli\Blank.png,0,0,0,8,8,8,,,,,,,,,,,,,15.83289220000006,0.032892200000059546,None,49.32489480000004,49.32489480000004,49.32489480000004,49.32489480000004,49.32489480000004,49.32489480000004,49.32489480000004,49.32489480000004,,001,P008,2025_Feb_01_1141,CategoryLocalizer,2021.2.3,59.94995377874185,
16.0,16.8,1,0.75,Stimuli\ImageFiles-Set1\Objects\Object_Box_00001.png,0,0,0,9,9,9,,,,,,,,,,,,,16.013861199999155,0.01386119999915536,None,49.50840530000096,49.50840530000096,49.50840530000096,49.50840530000096,49.50840530000096,49.50840530000096,49.50840530000096,49.50840530000096,,001,P008,2025_Feb_01_1141,CategoryLocalizer,2021.2.3,59.94995377874185,
16.8,17.0,5,0.0,Stimuli\Blank.png,0,0,0,10,10,10,,,,,,,,,,,,,16.83406979999927,0.03406979999926918,None,50.32578900000044,50.32578900000044,50.32578900000044,50.32578900000044,50.32578900000044,50.32578900000044,50.32578900000044,50.32578900000044,,001,P008,2025_Feb_01_1141,CategoryLocalizer,2021.2.3,59.94995377874185,
17.0,17.8,1,0.75,Stimuli\ImageFiles-Set1\Objects\Object_Brush_00001.png,0,0,0,11,11,11,,,,,,,,,,,,,17.01480359999914,0.014803599999140715,None,50.4925731000003,50.4925731000003,50.4925731000003,50.4925731000003,50.4925731000003,50.4925731000003,50.4925731000003,50.4925731000003,,001,P008,2025_Feb_01_1141,CategoryLocalizer,2021.2.3,59.94995377874185,
17.8,18.0,5,0.0,Stimuli\Blank.png,0,0,0,12,12,12,,,,,,,,,,,,,17.81542199999967,0.015421999999670533,None,51.293313500000295,51.293313500000295,51.293313500000295,51.293313500000295,51.293313500000295,51.293313500000295,51.293313500000295,51.293313500000295,,001,P008,2025_Feb_01_1141,CategoryLocalizer,2021.2.3,59.94995377874185,
18.0,18.8,1,0.75,Stimuli\ImageFiles-Set1\Objects\Object_Pot_00001.png,0,0,0,13,13,13,,,,,,,,,,,,,18.01638549999916,0.016385499999159947,None,51.49346409999998,51.49346409999998,51.49346409999998,51.49346409999998,51.49346409999998,51.49346409999998,51.49346409999998,51.49346409999998,,001,P008,2025_Feb_01_1141,CategoryLocalizer,2021.2.3,59.94995377874185,
18.8,19.0,5,0.0,Stimuli\Blank.png,0,0,0,14,14,14,,,,,,,,,,,,,18.800466000000597,0.00046600000059626723,None,52.277507500000866,52.277507500000866,52.277507500000866,52.277507500000866,52.277507500000866,52.277507500000866,52.277507500000866,52.277507500000866,,001,P008,2025_Feb_01_1141,CategoryLocalizer,2021.2.3,59.94995377874185,
19.0,19.8,1,0.75,Stimuli\ImageFiles-Set1\Objects\Object_Book_00001.png,0,0,0,15,15,15,,,,,,,,,,,,,18.999872000000323,-0.00012799999967683107,None,52.477665700000216,52.477665700000216,52.477665700000216,52.477665700000216,52.477665700000216,52.477665700000216,52.477665700000216,52.477665700000216,,001,P008,2025_Feb_01_1141,CategoryLocalizer,2021.2.3,59.94995377874185,
19.8,20.0,5,0.0,Stimuli\Blank.png,0,0,0,16,16,16,,,,,,,,,,,,,19.800446499999452,0.0004464999994517882,None,53.278344300000754,53.278344300000754,53.278344300000754,53.278344300000754,53.278344300000754,53.278344300000754,53.278344300000754,53.278344300000754,,001,P008,2025_Feb_01_1141,CategoryLocalizer,2021.2.3,59.94995377874185,
20.0,20.8,1,0.75,Stimuli\ImageFiles-Set1\Objects\Object_Whistle_00001.png,0,0,0,17,17,17,,,,,,,,,,,,,20.00299769999947,0.0029976999994687503,None,53.495233600000574,53.495233600000574,53.495233600000574,53.495233600000574,53.495233600000574,53.495233600000574,53.495233600000574,53.495233600000574,,001,P008,2025_Feb_01_1141,CategoryLocalizer,2021.2.3,59.94995377874185,
20.8,21.0,5,0.0,Stimuli\Blank.png,0,0,0,18,18,18,,,,,,,,,,,,,20.819097199999305,0.019097199999304593,None,54.295956699999806,54.295956699999806,54.295956699999806,54.295956699999806,54.295956699999806,54.295956699999806,54.295956699999806,54.295956699999806,,001,P008,2025_Feb_01_1141,CategoryLocalizer,2021.2.3,59.94995377874185,
21.0,21.8,1,0.75,Stimuli\ImageFiles-Set1\Objects\Object_Dice_00001.png,0,0,0,19,19,19,,,,,,,,,,,,,21.00343679999969,0.0034367999996902654,None,54.49612410000009,54.49612410000009,54.49612410000009,54.49612410000009,54.49612410000009,54.49612410000009,54.49612410000009,54.49612410000009,,001,P008,2025_Feb_01_1141,CategoryLocalizer,2021.2.3,59.94995377874185,
21.8,22.0,5,0.0,Stimuli\Blank.png,0,0,0,20,20,20,,,,,,,,,,,,,21.818906000000425,0.018906000000423973,None,55.29682429999957,55.29682429999957,55.29682429999957,55.29682429999957,55.29682429999957,55.29682429999957,55.29682429999957,55.29682429999957,,001,P008,2025_Feb_01_1141,CategoryLocalizer,2021.2.3,59.94995377874185,
22.0,22.8,1,0.75,Stimuli\ImageFiles-Set1\Objects\Object_Toilet_00001.png,0,0,0,21,21,21,,,,,,,,,,,,,22.003251599999203,0.003251599999202881,None,55.497000900000785,55.497000900000785,55.497000900000785,55.497000900000785,55.497000900000785,55.497000900000785,55.497000900000785,55.497000900000785,,001,P008,2025_Feb_01_1141,CategoryLocalizer,2021.2.3,59.94995377874185,
22.8,23.0,5,0.0,Stimuli\Blank.png,0,0,0,22,22,22,,,,,,,,,,,,,22.82022119999965,0.020221199999649997,None,56.29771020000044,56.29771020000044,56.29771020000044,56.29771020000044,56.29771020000044,56.29771020000044,56.29771020000044,56.29771020000044,,001,P008,2025_Feb_01_1141,CategoryLocalizer,2021.2.3,59.94995377874185,
23.0,23.8,1,0.75,Stimuli\ImageFiles-Set1\Objects\Object_ComputerMouse_00001.png,0,0,0,23,23,23,,,,,,,,,,,,,23.00409910000053,0.004099100000530598,None,56.497913700000936,56.497913700000936,56.497913700000936,56.497913700000936,56.497913700000936,56.497913700000936,56.497913700000936,56.497913700000936,,001,P008,2025_Feb_01_1141,CategoryLocalizer,2021.2.3,59.94995377874185,
23.8,24.0,5,0.0,Stimuli\Blank.png,0,0,0,24,24,24,,,,,,,,,,,,,23.82288359999984,0.022883599999840243,None,57.31529899999987,57.31529899999987,57.31529899999987,57.31529899999987,57.31529899999987,57.31529899999987,57.31529899999987,57.31529899999987,,001,P008,2025_Feb_01_1141,CategoryLocalizer,2021.2.3,59.94995377874185,
24.0,24.8,1,0.75,Stimuli\ImageFiles-Set1\Objects\Object_Gun_00001.png,0,0,0,25,25,25,,,,,,,,,,,,,24.021080500000608,0.02108050000060757,None,57.49884800000109,57.49884800000109,57.49884800000109,57.49884800000109,57.49884800000109,57.49884800000109,57.49884800000109,57.49884800000109,,001,P008,2025_Feb_01_1141,CategoryLocalizer,2021.2.3,59.94995377874185,
24.8,25.0,5,0.0,Stimuli\Blank.png,0,0,0,26,26,26,,,,,,,,,,,,,24.805139199999758,0.005139199999756983,None,58.2828513000004,58.2828513000004,58.2828513000004,58.2828513000004,58.2828513000004,58.2828513000004,58.2828513000004,58.2828513000004,,001,P008,2025_Feb_01_1141,CategoryLocalizer,2021.2.3,59.94995377874185,
25.0,25.8,1,0.75,Stimuli\ImageFiles-Set1\Objects\Object_Baseball_00001.png,0,0,0,27,27,27,,,,,,,,,,,,,25.005110199999763,0.005110199999762699,None,58.48297420000017,58.48297420000017,58.48297420000017,58.48297420000017,58.48297420000017,58.48297420000017,58.48297420000017,58.48297420000017,,001,P008,2025_Feb_01_1141,CategoryLocalizer,2021.2.3,59.94995377874185,
25.8,26.0,5,0.0,Stimuli\Blank.png,0,0,0,28,28,28,,,,,,,,,,,,,25.806514800000514,0.006514800000513077,None,59.28370180000093,59.28370180000093,59.28370180000093,59.28370180000093,59.28370180000093,59.28370180000093,59.28370180000093,59.28370180000093,,001,P008,2025_Feb_01_1141,CategoryLocalizer,2021.2.3,59.94995377874185,
26.0,26.8,1,0.75,Stimuli\ImageFiles-Set1\Objects\Object_Recliner_00001.png,0,0,0,29,29,29,,,,,,,,,,,,,26.00748089999979,0.007480899999791291,None,59.50062439999965,59.50062439999965,59.50062439999965,59.50062439999965,59.50062439999965,59.50062439999965,59.50062439999965,59.50062439999965,,001,P008,2025_Feb_01_1141,CategoryLocalizer,2021.2.3,59.94995377874185,
26.8,27.0,5,0.0,Stimuli\Blank.png,0,0,0,30,30,30,,,,,,,,,,,,,26.824260699999286,0.02426069999928515,None,60.301258499999676,60.301258499999676,60.301258499999676,60.301258499999676,60.301258499999676,60.301258499999676,60.301258499999676,60.301258499999676,,001,P008,2025_Feb_01_1141,CategoryLocalizer,2021.2.3,59.94995377874185,
27.0,27.8,1,0.75,Stimuli\ImageFiles-Set1\Objects\Object_Sock_00001.png,0,0,0,31,31,31,,,,,,,,,,,,,27.007900799999334,0.007900799999333685,None,60.484755600000426,60.484755600000426,60.484755600000426,60.484755600000426,60.484755600000426,60.484755600000426,60.484755600000426,60.484755600000426,,001,P008,2025_Feb_01_1141,CategoryLocalizer,2021.2.3,59.94995377874185,
27.8,28.0,5,0.0,Stimuli\Blank.png,0,0,0,32,32,32,,,,,,,,,,,,,27.80758959999912,0.007589599999118235,None,61.28550879999966,61.28550879999966,61.28550879999966,61.28550879999966,61.28550879999966,61.28550879999966,61.28550879999966,61.28550879999966,,001,P008,2025_Feb_01_1141,CategoryLocalizer,2021.2.3,59.94995377874185,
28.0,28.8,2,0.75,Stimuli\ImageFiles-Set1\Bodies\Bodies_Lunging_00003.png,0,0,0,33,33,33,,,,,,,,,,,,,28.00830970000061,0.008309700000609155,None,61.48563170000125,61.48563170000125,61.48563170000125,61.48563170000125,61.48563170000125,61.48563170000125,61.48563170000125,61.48563170000125,,001,P008,2025_Feb_01_1141,CategoryLocalizer,2021.2.3,59.94995377874185,
28.8,29.0,5,0.0,Stimuli\Blank.png,0,0,0,34,34,34,,,,,,,,,,,,,28.808540800000628,0.008540800000627513,None,62.28634200000124,62.28634200000124,62.28634200000124,62.28634200000124,62.28634200000124,62.28634200000124,62.28634200000124,62.28634200000124,,001,P008,2025_Feb_01_1141,CategoryLocalizer,2021.2.3,59.94995377874185,
29.0,29.8,2,0.75,Stimuli\ImageFiles-Set1\Bodies\Bodies_Punching_00001.png,0,0,0,35,35,35,,,,,,,,,,,,,29.00861520000035,0.008615200000349432,None,62.486520700000256,62.486520700000256,62.486520700000256,62.486520700000256,62.486520700000256,62.486520700000256,62.486520700000256,62.486520700000256,,001,P008,2025_Feb_01_1141,CategoryLocalizer,2021.2.3,59.94995377874185,
29.8,30.0,5,0.0,Stimuli\Blank.png,0,0,0,36,36,36,,,,,,,,,,,,,29.80948089999947,0.009480899999470438,None,63.28722320000088,63.28722320000088,63.28722320000088,63.28722320000088,63.28722320000088,63.28722320000088,63.28722320000088,63.28722320000088,,001,P008,2025_Feb_01_1141,CategoryLocalizer,2021.2.3,59.94995377874185,
30.0,30.8,2,0.75,Stimuli\ImageFiles-Set1\Bodies\Bodies_SittingFloor_00005.png,0,0,0,37,37,37,,,,,,,,,,,,,30.010168700000577,0.010168700000576791,None,63.48740010000074,63.48740010000074,63.48740010000074,63.48740010000074,63.48740010000074,63.48740010000074,63.48740010000074,63.48740010000074,,001,P008,2025_Feb_01_1141,CategoryLocalizer,2021.2.3,59.94995377874185,
30.8,31.0,5,0.0,Stimuli\Blank.png,0,0,0,38,38,38,,,,,,,,,,,,,30.811389000000418,0.011389000000416871,None,64.28813509999964,64.28813509999964,64.28813509999964,64.28813509999964,64.28813509999964,64.28813509999964,64.28813509999964,64.28813509999964,,001,P008,2025_Feb_01_1141,CategoryLocalizer,2021.2.3,59.94995377874185,
31.0,31.8,2,0.75,Stimuli\ImageFiles-Set1\Bodies\Bodies_SittingFloor_00005.png,1,1,0,39,39,39,,,,,,,,,,,,,31.011119099999632,0.011119099999632454,2,64.50496840000051,64.50496840000051,64.50496840000051,64.50496840000051,64.50496840000051,64.50496840000051,64.50496840000051,64.50496840000051,0.5460135999983322,001,P008,2025_Feb_01_1141,CategoryLocalizer,2021.2.3,59.94995377874185,
31.8,32.0,5,0.0,Stimuli\Blank.png,0,0,0,40,40,40,,,,,,,,,,,,,31.828967999999804,0.028967999999803595,None,65.30568540000058,65.30568540000058,65.30568540000058,65.30568540000058,65.30568540000058,65.30568540000058,65.30568540000058,65.30568540000058,,001,P008,2025_Feb_01_1141,CategoryLocalizer,2021.2.3,59.94995377874185,
32.0,32.8,2,0.75,Stimuli\ImageFiles-Set1\Bodies\Bodies_Kicking_00003.png,0,0,0,41,41,41,,,,,,,,,,,,,32.01129260000016,0.011292600000160746,None,65.4891719999996,65.4891719999996,65.4891719999996,65.4891719999996,65.4891719999996,65.4891719999996,65.4891719999996,65.4891719999996,,001,P008,2025_Feb_01_1141,CategoryLocalizer,2021.2.3,59.94995377874185,
32.8,33.0,5,0.0,Stimuli\Blank.png,0,0,0,42,42,42,,,,,,,,,,,,,32.81259610000052,0.012596100000521915,None,66.28988840000056,66.28988840000056,66.28988840000056,66.28988840000056,66.28988840000056,66.28988840000056,66.28988840000056,66.28988840000056,,001,P008,2025_Feb_01_1141,CategoryLocalizer,2021.2.3,59.94995377874185,
33.0,33.8,2,0.75,Stimuli\ImageFiles-Set1\Bodies\Bodies_Kicking_00007.png,0,0,0,43,43,43,,,,,,,,,,,,,33.01281639999979,0.012816399999792338,None,66.50674580000123,66.50674580000123,66.50674580000123,66.50674580000123,66.50674580000123,66.50674580000123,66.50674580000123,66.50674580000123,,001,P008,2025_Feb_01_1141,CategoryLocalizer,2021.2.3,59.94995377874185,
33.8,34.0,5,0.0,Stimuli\Blank.png,0,0,0,44,44,44,,,,,,,,,,,,,33.829672500000015,0.029672500000017976,None,67.30745690000003,67.30745690000003,67.30745690000003,67.30745690000003,67.30745690000003,67.30745690000003,67.30745690000003,67.30745690000003,,001,P008,2025_Feb_01_1141,CategoryLocalizer,2021.2.3,59.94995377874185,
34.0,34.8,2,0.75,Stimuli\ImageFiles-Set1\Bodies\Bodies_PushUp_00002.png,0,0,0,45,45,45,,,,,,,,,,,,,34.013783200000034,0.013783200000034412,None,67.49094200000036,67.49094200000036,67.49094200000036,67.49094200000036,67.49094200000036,67.49094200000036,67.49094200000036,67.49094200000036,,001,P008,2025_Feb_01_1141,CategoryLocalizer,2021.2.3,59.94995377874185,
34.8,35.0,5,0.0,Stimuli\Blank.png,0,0,0,46,46,46,,,,,,,,,,,,,34.813879199999064,0.013879199999067282,None,68.29164900000069,68.29164900000069,68.29164900000069,68.29164900000069,68.29164900000069,68.29164900000069,68.29164900000069,68.29164900000069,,001,P008,2025_Feb_01_1141,CategoryLocalizer,2021.2.3,59.94995377874185,
35.0,35.8,2,0.75,Stimuli\ImageFiles-Set1\Bodies\Bodies_CobraPose_00005.png,0,0,0,47,47,47,,,,,,,,,,,,,35.01434279999921,0.01434279999921273,None,68.49182930000097,68.49182930000097,68.49182930000097,68.49182930000097,68.49182930000097,68.49182930000097,68.49182930000097,68.49182930000097,,001,P008,2025_Feb_01_1141,CategoryLocalizer,2021.2.3,59.94995377874185,
35.8,36.0,5,0.0,Stimuli\Blank.png,0,0,0,48,48,48,,,,,,,,,,,,,35.81477610000002,0.014776100000020165,None,69.29255340000054,69.29255340000054,69.29255340000054,69.29255340000054,69.29255340000054,69.29255340000054,69.29255340000054,69.29255340000054,,001,P008,2025_Feb_01_1141,CategoryLocalizer,2021.2.3,59.94995377874185,
36.0,36.8,2,0.75,Stimuli\ImageFiles-Set1\Bodies\Bodies_Standing_00003.png,0,0,0,49,49,49,,,,,,,,,,,,,36.014866899999106,0.014866899999105954,None,69.4927330999999,69.4927330999999,69.4927330999999,69.4927330999999,69.4927330999999,69.4927330999999,69.4927330999999,69.4927330999999,,001,P008,2025_Feb_01_1141,CategoryLocalizer,2021.2.3,59.94995377874185,
36.8,37.0,5,0.0,Stimuli\Blank.png,0,0,0,50,50,50,,,,,,,,,,,,,36.82007259999955,0.020072599999551244,None,70.29342340000039,70.29342340000039,70.29342340000039,70.29342340000039,70.29342340000039,70.29342340000039,70.29342340000039,70.29342340000039,,001,P008,2025_Feb_01_1141,CategoryLocalizer,2021.2.3,59.94995377874185,
37.0,37.8,2,0.75,Stimuli\ImageFiles-Set1\Bodies\Bodies_QuadStretch_00005.png,0,0,0,51,51,51,,,,,,,,,,,,,36.9992299000005,-0.0007700999994995072,None,70.47692410000127,70.47692410000127,70.47692410000127,70.47692410000127,70.47692410000127,70.47692410000127,70.47692410000127,70.47692410000127,,001,P008,2025_Feb_01_1141,CategoryLocalizer,2021.2.3,59.94995377874185,
37.8,38.0,5,0.0,Stimuli\Blank.png,0,0,0,52,52,52,,,,,,,,,,,,,37.79987739999888,-0.00012260000112007674,None,71.2776343000005,71.2776343000005,71.2776343000005,71.2776343000005,71.2776343000005,71.2776343000005,71.2776343000005,71.2776343000005,,001,P008,2025_Feb_01_1141,CategoryLocalizer,2021.2.3,59.94995377874185,
38.0,38.8,2,0.75,Stimuli\ImageFiles-Set1\Bodies\Bodies_Hanging_00002.png,1,1,0,53,53,53,,,,,,,,,,,,,38.00020720000066,0.0002072000006592134,None,71.49448149999989,71.49448149999989,71.49448149999989,71.49448149999989,71.49448149999989,71.49448149999989,71.49448149999989,71.49448149999989,,001,P008,2025_Feb_01_1141,CategoryLocalizer,2021.2.3,59.94995377874185,
38.8,39.0,5,0.0,Stimuli\Blank.png,0,0,0,54,54,54,,,,,,,,,,,,,38.81787239999903,0.017872399999035338,None,72.29519000000073,72.29519000000073,72.29519000000073,72.29519000000073,72.29519000000073,72.29519000000073,72.29519000000073,72.29519000000073,,001,P008,2025_Feb_01_1141,CategoryLocalizer,2021.2.3,59.94995377874185,
39.0,39.8,2,0.75,Stimuli\ImageFiles-Set1\Bodies\Bodies_Punching_00003.png,0,0,0,55,55,55,,,,,,,,,,,,,39.002922199999375,0.0029221999993751524,None,72.49537059999966,72.49537059999966,72.49537059999966,72.49537059999966,72.49537059999966,72.49537059999966,72.49537059999966,72.49537059999966,,001,P008,2025_Feb_01_1141,CategoryLocalizer,2021.2.3,59.94995377874185,
39.8,40.0,5,0.0,Stimuli\Blank.png,0,0,0,56,56,56,,,,,,,,,,,,,39.81817690000025,0.01817690000025607,None,73.29607010000109,73.29607010000109,73.29607010000109,73.29607010000109,73.29607010000109,73.29607010000109,73.29607010000109,73.29607010000109,,001,P008,2025_Feb_01_1141,CategoryLocalizer,2021.2.3,59.94995377874185,
40.0,40.8,2,0.75,Stimuli\ImageFiles-Set1\Bodies\Bodies_Punching_00003.png,0,0,0,57,57,57,,,,,,,,,,,,,40.00189479999972,0.0018947999997180887,2,73.47953790000065,73.47953790000065,73.47953790000065,73.47953790000065,73.47953790000065,73.47953790000065,73.47953790000065,73.47953790000065,0.3664332000007562,001,P008,2025_Feb_01_1141,CategoryLocalizer,2021.2.3,59.94995377874185,
40.8,41.0,5,0.0,Stimuli\Blank.png,0,0,0,58,58,58,,,,,,,,,,,,,40.80305369999951,0.003053699999512105,None,74.28027939999993,74.28027939999993,74.28027939999993,74.28027939999993,74.28027939999993,74.28027939999993,74.28027939999993,74.28027939999993,,001,P008,2025_Feb_01_1141,CategoryLocalizer,2021.2.3,59.94995377874185,
41.0,41.8,2,0.75,Stimuli\ImageFiles-Set1\Bodies\Bodies_Crawling_00001.png,0,0,0,59,59,59,,,,,,,,,,,,,41.003568399999494,0.0035683999994944315,None,74.48046830000021,74.48046830000021,74.48046830000021,74.48046830000021,74.48046830000021,74.48046830000021,74.48046830000021,74.48046830000021,,001,P008,2025_Feb_01_1141,CategoryLocalizer,2021.2.3,59.94995377874185,
41.8,42.0,5,0.0,Stimuli\Blank.png,0,0,0,60,60,60,,,,,,,,,,,,,41.803852499999266,0.0038524999992688436,None,75.28117100000054,75.28117100000054,75.28117100000054,75.28117100000054,75.28117100000054,75.28117100000054,75.28117100000054,75.28117100000054,,001,P008,2025_Feb_01_1141,CategoryLocalizer,2021.2.3,59.94995377874185,
42.0,42.8,2,0.75,Stimuli\ImageFiles-Set1\Bodies\Bodies_Running_00006.png,0,0,0,61,61,61,,,,,,,,,,,,,42.00423629999932,0.004236299999320181,None,75.49802980000095,75.49802980000095,75.49802980000095,75.49802980000095,75.49802980000095,75.49802980000095,75.49802980000095,75.49802980000095,,001,P008,2025_Feb_01_1141,CategoryLocalizer,2021.2.3,59.94995377874185,
42.8,43.0,5,0.0,Stimuli\Blank.png,0,0,0,62,62,62,,,,,,,,,,,,,42.82104699999945,0.021046999999455807,None,76.29874449999988,76.29874449999988,76.29874449999988,76.29874449999988,76.29874449999988,76.29874449999988,76.29874449999988,76.29874449999988,,001,P008,2025_Feb_01_1141,CategoryLocalizer,2021.2.3,59.94995377874185,
43.0,43.8,2,0.75,Stimuli\ImageFiles-Set1\Bodies\Bodies_Falling_00004.png,0,0,0,63,63,63,,,,,,,,,,,,,43.005130100000315,0.005130100000314997,None,76.48225190000085,76.48225190000085,76.48225190000085,76.48225190000085,76.48225190000085,76.48225190000085,76.48225190000085,76.48225190000085,,001,P008,2025_Feb_01_1141,CategoryLocalizer,2021.2.3,59.94995377874185,
43.8,44.0,5,0.0,Stimuli\Blank.png,0,0,0,64,64,64,,,,,,,,,,,,,43.80556760000036,0.0055676000003614945,None,77.28294290000122,77.28294290000122,77.28294290000122,77.28294290000122,77.28294290000122,77.28294290000122,77.28294290000122,77.28294290000122,,001,P008,2025_Feb_01_1141,CategoryLocalizer,2021.2.3,59.94995377874185,
44.0,44.8,3,0.75,Stimuli\ImageFiles-Set1\Faces\Face_00093.png,0,0,0,65,65,65,,,,,,,,,,,,,44.00656979999985,0.006569799999851966,None,77.48372050000035,77.48372050000035,77.48372050000035,77.48372050000035,77.48372050000035,77.48372050000035,77.48372050000035,77.48372050000035,,001,P008,2025_Feb_01_1141,CategoryLocalizer,2021.2.3,59.94995377874185,
44.8,45.0,5,0.0,Stimuli\Blank.png,0,0,0,66,66,66,,,,,,,,,,,,,44.80659139999989,0.006591399999891223,None,78.28384780000124,78.28384780000124,78.28384780000124,78.28384780000124,78.28384780000124,78.28384780000124,78.28384780000124,78.28384780000124,,001,P008,2025_Feb_01_1141,CategoryLocalizer,2021.2.3,59.94995377874185,
45.0,45.8,3,0.75,Stimuli\ImageFiles-Set1\Faces\Face_00051.png,0,0,0,67,67,67,,,,,,,,,,,,,45.00625279999986,0.0062527999998565065,None,78.48407340000085,78.48407340000085,78.48407340000085,78.48407340000085,78.48407340000085,78.48407340000085,78.48407340000085,78.48407340000085,,001,P008,2025_Feb_01_1141,CategoryLocalizer,2021.2.3,59.94995377874185,
45.8,46.0,5,0.0,Stimuli\Blank.png,0,0,0,68,68,68,,,,,,,,,,,,,45.80745919999936,0.007459199999360067,None,79.2847185999999,79.2847185999999,79.2847185999999,79.2847185999999,79.2847185999999,79.2847185999999,79.2847185999999,79.2847185999999,,001,P008,2025_Feb_01_1141,CategoryLocalizer,2021.2.3,59.94995377874185,
46.0,46.8,3,0.75,Stimuli\ImageFiles-Set1\Faces\Face_00033.png,0,0,0,69,69,69,,,,,,,,,,,,,46.00700479999978,0.007004799999776878,None,79.48485230000006,79.48485230000006,79.48485230000006,79.48485230000006,79.48485230000006,79.48485230000006,79.48485230000006,79.48485230000006,,001,P008,2025_Feb_01_1141,CategoryLocalizer,2021.2.3,59.94995377874185,
46.8,47.0,5,0.0,Stimuli\Blank.png,0,0,0,70,70,70,,,,,,,,,,,,,46.807806200000414,0.007806200000416652,None,80.28559529999984,80.28559529999984,80.28559529999984,80.28559529999984,80.28559529999984,80.28559529999984,80.28559529999984,80.28559529999984,,001,P008,2025_Feb_01_1141,CategoryLocalizer,2021.2.3,59.94995377874185,
47.0,47.8,3,0.75,Stimuli\ImageFiles-Set1\Faces\Face_00045.png,0,0,0,71,71,71,,,,,,,,,,,,,47.0084683999994,0.0084683999994013,None,80.5024811000003,80.5024811000003,80.5024811000003,80.5024811000003,80.5024811000003,80.5024811000003,80.5024811000003,80.5024811000003,,001,P008,2025_Feb_01_1141,CategoryLocalizer,2021.2.3,59.94995377874185,
47.8,48.0,5,0.0,Stimuli\Blank.png,0,0,0,72,72,72,,,,,,,,,,,,,47.82803729999978,0.028037299999780885,None,81.31986230000075,81.31986230000075,81.31986230000075,81.31986230000075,81.31986230000075,81.31986230000075,81.31986230000075,81.31986230000075,,001,P008,2025_Feb_01_1141,CategoryLocalizer,2021.2.3,59.94995377874185,
48.0,48.8,3,0.75,Stimuli\ImageFiles-Set1\Faces\Face_00115.png,0,0,0,73,73,73,,,,,,,,,,,,,48.02555659999962,0.0255565999996179,None,81.50333669999964,81.50333669999964,81.50333669999964,81.50333669999964,81.50333669999964,81.50333669999964,81.50333669999964,81.50333669999964,,001,P008,2025_Feb_01_1141,CategoryLocalizer,2021.2.3,59.94995377874185,
48.8,49.0,5,0.0,Stimuli\Blank.png,0,0,0,74,74,74,,,,,,,,,,,,,48.810197799999514,0.010197799999517088,None,82.2873639999998,82.2873639999998,82.2873639999998,82.2873639999998,82.2873639999998,82.2873639999998,82.2873639999998,82.2873639999998,,001,P008,2025_Feb_01_1141,CategoryLocalizer,2021.2.3,59.94995377874185,
49.0,49.8,3,0.75,Stimuli\ImageFiles-Set1\Faces\Face_00049.png,0,0,0,75,75,75,,,,,,,,,,,,,49.0101539999996,0.010153999999602092,None,82.48754610000105,82.48754610000105,82.48754610000105,82.48754610000105,82.48754610000105,82.48754610000105,82.48754610000105,82.48754610000105,,001,P008,2025_Feb_01_1141,CategoryLocalizer,2021.2.3,59.94995377874185,
49.8,50.0,5,0.0,Stimuli\Blank.png,0,0,0,76,76,76,,,,,,,,,,,,,49.81117809999887,0.011178099998872426,None,83.2882623000005,83.2882623000005,83.2882623000005,83.2882623000005,83.2882623000005,83.2882623000005,83.2882623000005,83.2882623000005,,001,P008,2025_Feb_01_1141,CategoryLocalizer,2021.2.3,59.94995377874185,
50.0,50.8,3,0.75,Stimuli\ImageFiles-Set1\Faces\Face_00085.png,0,0,0,77,77,77,,,,,,,,,,,,,50.0110765999998,0.0110765999997966,None,83.48842710000099,83.48842710000099,83.48842710000099,83.48842710000099,83.48842710000099,83.48842710000099,83.48842710000099,83.48842710000099,,001,P008,2025_Feb_01_1141,CategoryLocalizer,2021.2.3,59.94995377874185,
50.8,51.0,5,0.0,Stimuli\Blank.png,0,0,0,78,78,78,,,,,,,,,,,,,50.813974299999245,0.013974299999247819,None,84.30583640000077,84.30583640000077,84.30583640000077,84.30583640000077,84.30583640000077,84.30583640000077,84.30583640000077,84.30583640000077,,001,P008,2025_Feb_01_1141,CategoryLocalizer,2021.2.3,59.94995377874185,
51.0,51.8,3,0.75,Stimuli\ImageFiles-Set1\Faces\Face_00103.png,0,0,0,79,79,79,,,,,,,,,,,,,51.02805640000042,0.02805640000042331,None,84.50599239999974,84.50599239999974,84.50599239999974,84.50599239999974,84.50599239999974,84.50599239999974,84.50599239999974,84.50599239999974,,001,P008,2025_Feb_01_1141,CategoryLocalizer,2021.2.3,59.94995377874185,
51.8,52.0,5,0.0,Stimuli\Blank.png,0,0,0,80,80,80,,,,,,,,,,,,,51.813012399999934,0.013012399999936974,None,85.2900198999996,85.2900198999996,85.2900198999996,85.2900198999996,85.2900198999996,85.2900198999996,85.2900198999996,85.2900198999996,,001,P008,2025_Feb_01_1141,CategoryLocalizer,2021.2.3,59.94995377874185,
52.0,52.8,3,0.75,Stimuli\ImageFiles-Set1\Faces\Face_00071.png,0,0,0,81,81,81,,,,,,,,,,,,,52.01307780000025,0.013077800000246498,None,85.5068908000012,85.5068908000012,85.5068908000012,85.5068908000012,85.5068908000012,85.5068908000012,85.5068908000012,85.5068908000012,,001,P008,2025_Feb_01_1141,CategoryLocalizer,2021.2.3,59.94995377874185,
52.8,53.0,5,0.0,Stimuli\Blank.png,0,0,0,82,82,82,,,,,,,,,,,,,52.83057069999995,0.030570699999955764,None,86.3075931000003,86.3075931000003,86.3075931000003,86.3075931000003,86.3075931000003,86.3075931000003,86.3075931000003,86.3075931000003,,001,P008,2025_Feb_01_1141,CategoryLocalizer,2021.2.3,59.94995377874185,
53.0,53.8,3,0.75,Stimuli\ImageFiles-Set1\Faces\Face_00024.png,0,0,0,83,83,83,,,,,,,,,,,,,53.01332569999977,0.013325699999768403,None,86.50778560000072,86.50778560000072,86.50778560000072,86.50778560000072,86.50778560000072,86.50778560000072,86.50778560000072,86.50778560000072,,001,P008,2025_Feb_01_1141,CategoryLocalizer,2021.2.3,59.94995377874185,
53.8,54.0,5,0.0,Stimuli\Blank.png,0,0,0,84,84,84,,,,,,,,,,,,,53.83314590000009,0.03314590000009332,None,87.32516430000032,87.32516430000032,87.32516430000032,87.32516430000032,87.32516430000032,87.32516430000032,87.32516430000032,87.32516430000032,,001,P008,2025_Feb_01_1141,CategoryLocalizer,2021.2.3,59.94995377874185,
54.0,54.8,3,0.75,Stimuli\ImageFiles-Set1\Faces\Face_00024.png,1,1,0,85,85,85,,,,,,,,,,,,,54.0142993999998,0.014299399999799789,2,87.49197149999964,87.49197149999964,87.49197149999964,87.49197149999964,87.49197149999964,87.49197149999964,87.49197149999964,87.49197149999964,0.5422832999993261,001,P008,2025_Feb_01_1141,CategoryLocalizer,2021.2.3,59.94995377874185,
54.8,55.0,5,0.0,Stimuli\Blank.png,0,0,0,86,86,86,,,,,,,,,,,,,54.81502739999996,0.015027399999965496,None,88.29265240000132,88.29265240000132,88.29265240000132,88.29265240000132,88.29265240000132,88.29265240000132,88.29265240000132,88.29265240000132,,001,P008,2025_Feb_01_1141,CategoryLocalizer,2021.2.3,59.94995377874185,
55.0,55.8,3,0.75,Stimuli\ImageFiles-Set1\Faces\Face_00029.png,0,0,0,87,87,87,,,,,,,,,,,,,55.01567350000005,0.01567350000004808,None,88.50954660000025,88.50954660000025,88.50954660000025,88.50954660000025,88.50954660000025,88.50954660000025,88.50954660000025,88.50954660000025,,001,P008,2025_Feb_01_1141,CategoryLocalizer,2021.2.3,59.94995377874185,
55.8,56.0,5,0.0,Stimuli\Blank.png,0,0,0,88,88,88,,,,,,,,,,,,,55.815656599999784,0.015656599999786636,None,89.29356089999965,89.29356089999965,89.29356089999965,89.29356089999965,89.29356089999965,89.29356089999965,89.29356089999965,89.29356089999965,,001,P008,2025_Feb_01_1141,CategoryLocalizer,2021.2.3,59.94995377874185,
56.0,56.8,3,0.75,Stimuli\ImageFiles-Set1\Faces\Face_00111.png,0,0,0,89,89,89,,,,,,,,,,,,,55.999365300000136,-0.0006346999998640968,None,89.49374420000095,89.49374420000095,89.49374420000095,89.49374420000095,89.49374420000095,89.49374420000095,89.49374420000095,89.49374420000095,,001,P008,2025_Feb_01_1141,CategoryLocalizer,2021.2.3,59.94995377874185,
56.8,57.0,5,0.0,Stimuli\Blank.png,0,0,0,90,90,90,,,,,,,,,,,,,56.81829300000027,0.0182930000002699,None,90.31112969999958,90.31112969999958,90.31112969999958,90.31112969999958,90.31112969999958,90.31112969999958,90.31112969999958,90.31112969999958,,001,P008,2025_Feb_01_1141,CategoryLocalizer,2021.2.3,59.94995377874185,
57.0,57.8,3,0.75,Stimuli\ImageFiles-Set1\Faces\Face_00083.png,0,0,0,91,91,91,,,,,,,,,,,,,57.01868470000045,0.018684700000449084,None,90.51130879999982,90.51130879999982,90.51130879999982,90.51130879999982,90.51130879999982,90.51130879999982,90.51130879999982,90.51130879999982,,001,P008,2025_Feb_01_1141,CategoryLocalizer,2021.2.3,59.94995377874185,
57.8,58.0,5,0.0,Stimuli\Blank.png,0,0,0,92,92,92,,,,,,,,,,,,,57.81796100000065,0.01796100000065337,None,91.29532769999969,91.29532769999969,91.29532769999969,91.29532769999969,91.29532769999969,91.29532769999969,91.29532769999969,91.29532769999969,,001,P008,2025_Feb_01_1141,CategoryLocalizer,2021.2.3,59.94995377874185,
58.0,58.8,3,0.75,Stimuli\ImageFiles-Set1\Faces\Face_00099.png,0,0,0,93,93,93,,,,,,,,,,,,,58.00309179999931,0.0030917999993107514,None,91.49551600000086,91.49551600000086,91.49551600000086,91.49551600000086,91.49551600000086,91.49551600000086,91.49551600000086,91.49551600000086,,001,P008,2025_Feb_01_1141,CategoryLocalizer,2021.2.3,59.94995377874185,
58.8,59.0,5,0.0,Stimuli\Blank.png,0,0,0,94,94,94,,,,,,,,,,,,,58.819034699999975,0.019034699999977533,None,92.29621709999992,92.29621709999992,92.29621709999992,92.29621709999992,92.29621709999992,92.29621709999992,92.29621709999992,92.29621709999992,,001,P008,2025_Feb_01_1141,CategoryLocalizer,2021.2.3,59.94995377874185,
59.0,59.8,3,0.75,Stimuli\ImageFiles-Set1\Faces\Face_00055.png,0,0,0,95,95,95,,,,,,,,,,,,,59.00255090000064,0.0025509000006422866,None,92.49639010000101,92.49639010000101,92.49639010000101,92.49639010000101,92.49639010000101,92.49639010000101,92.49639010000101,92.49639010000101,,001,P008,2025_Feb_01_1141,CategoryLocalizer,2021.2.3,59.94995377874185,
59.8,60.0,5,0.0,Stimuli\Blank.png,0,0,0,96,96,96,,,,,,,,,,,,,59.819301800000176,0.01930180000017856,None,93.29709820000062,93.29709820000062,93.29709820000062,93.29709820000062,93.29709820000062,93.29709820000062,93.29709820000062,93.29709820000062,,001,P008,2025_Feb_01_1141,CategoryLocalizer,2021.2.3,59.94995377874185,
60.0,60.8,4,0.75,Stimuli\ImageFiles-Set1\Scenes\Scenes_042.png,0,0,0,97,97,97,,,,,,,,,,,,,60.00379989999965,0.0037998999996489147,None,93.49728180000056,93.49728180000056,93.49728180000056,93.49728180000056,93.49728180000056,93.49728180000056,93.49728180000056,93.49728180000056,,001,P008,2025_Feb_01_1141,CategoryLocalizer,2021.2.3,59.94995377874185,
60.8,61.0,5,0.0,Stimuli\Blank.png,0,0,0,98,98,98,,,,,,,,,,,,,60.820752300000095,0.020752300000097534,None,94.29799029999958,94.29799029999958,94.29799029999958,94.29799029999958,94.29799029999958,94.29799029999958,94.29799029999958,94.29799029999958,,001,P008,2025_Feb_01_1141,CategoryLocalizer,2021.2.3,59.94995377874185,
61.0,61.8,4,0.75,Stimuli\ImageFiles-Set1\Scenes\Scenes_042.png,1,1,0,99,99,99,,,,,,,,,,,,,61.00433519999933,0.004335199999331962,2,94.4814793000005,94.4814793000005,94.4814793000005,94.4814793000005,94.4814793000005,94.4814793000005,94.4814793000005,94.4814793000005,0.6885019000001193,001,P008,2025_Feb_01_1141,CategoryLocalizer,2021.2.3,59.94995377874185,
61.8,62.0,5,0.0,Stimuli\Blank.png,0,0,0,100,100,100,,,,,,,,,,,,,61.80439440000009,0.0043944000000948336,None,95.28220030000011,95.28220030000011,95.28220030000011,95.28220030000011,95.28220030000011,95.28220030000011,95.28220030000011,95.28220030000011,,001,P008,2025_Feb_01_1141,CategoryLocalizer,2021.2.3,59.94995377874185,
62.0,62.8,4,0.75,Stimuli\ImageFiles-Set1\Scenes\Scenes_016.png,0,0,0,101,101,101,,,,,,,,,,,,,62.00474530000065,0.004745300000649877,None,95.48237719999997,95.48237719999997,95.48237719999997,95.48237719999997,95.48237719999997,95.48237719999997,95.48237719999997,95.48237719999997,,001,P008,2025_Feb_01_1141,CategoryLocalizer,2021.2.3,59.94995377874185,
62.8,63.0,5,0.0,Stimuli\Blank.png,0,0,0,102,102,102,,,,,,,,,,,,,62.80515220000052,0.005152200000523521,None,96.28307620000123,96.28307620000123,96.28307620000123,96.28307620000123,96.28307620000123,96.28307620000123,96.28307620000123,96.28307620000123,,001,P008,2025_Feb_01_1141,CategoryLocalizer,2021.2.3,59.94995377874185,
63.0,63.8,4,0.75,Stimuli\ImageFiles-Set1\Scenes\Scenes_011.png,0,0,0,103,103,103,,,,,,,,,,,,,63.00532509999903,0.005325099999026861,None,96.48324649999995,96.48324649999995,96.48324649999995,96.48324649999995,96.48324649999995,96.48324649999995,96.48324649999995,96.48324649999995,,001,P008,2025_Feb_01_1141,CategoryLocalizer,2021.2.3,59.94995377874185,
63.8,64.0,5,0.0,Stimuli\Blank.png,0,0,0,104,104,104,,,,,,,,,,,,,63.8074658000005,0.007465800000503009,None,97.284012600001,97.284012600001,97.284012600001,97.284012600001,97.284012600001,97.284012600001,97.284012600001,97.284012600001,,001,P008,2025_Feb_01_1141,CategoryLocalizer,2021.2.3,59.94995377874185,
64.0,64.8,4,0.75,Stimuli\ImageFiles-Set1\Scenes\Scenes_049.png,0,0,0,105,105,105,,,,,,,,,,,,,64.00633620000008,0.006336200000077952,None,97.4841350000006,97.4841350000006,97.4841350000006,97.4841350000006,97.4841350000006,97.4841350000006,97.4841350000006,97.4841350000006,,001,P008,2025_Feb_01_1141,CategoryLocalizer,2021.2.3,59.94995377874185,
64.8,65.0,5,0.0,Stimuli\Blank.png,0,0,0,106,106,106,,,,,,,,,,,,,64.80693780000001,0.006937800000017091,None,98.28489580000132,98.28489580000132,98.28489580000132,98.28489580000132,98.28489580000132,98.28489580000132,98.28489580000132,98.28489580000132,,001,P008,2025_Feb_01_1141,CategoryLocalizer,2021.2.3,59.94995377874185,
65.0,65.8,4,0.75,Stimuli\ImageFiles-Set1\Scenes\Scenes_018.png,0,0,0,107,107,107,,,,,,,,,,,,,65.00872130000062,0.008721300000615884,None,98.50170760000037,98.50170760000037,98.50170760000037,98.50170760000037,98.50170760000037,98.50170760000037,98.50170760000037,98.50170760000037,,001,P008,2025_Feb_01_1141,CategoryLocalizer,2021.2.3,59.94995377874185,
65.8,66.0,5,0.0,Stimuli\Blank.png,0,0,0,108,108,108,,,,,,,,,,,,,65.82499760000064,0.024997600000645548,None,99.3024105000004,99.3024105000004,99.3024105000004,99.3024105000004,99.3024105000004,99.3024105000004,99.3024105000004,99.3024105000004,,001,P008,2025_Feb_01_1141,CategoryLocalizer,2021.2.3,59.94995377874185,
66.0,66.8,4,0.75,Stimuli\ImageFiles-Set1\Scenes\Scenes_040.png,0,0,0,109,109,109,,,,,,,,,,,,,66.00804040000003,0.008040400000027148,None,99.48590719999993,99.48590719999993,99.48590719999993,99.48590719999993,99.48590719999993,99.48590719999993,99.48590719999993,99.48590719999993,,001,P008,2025_Feb_01_1141,CategoryLocalizer,2021.2.3,59.94995377874185,
66.8,67.0,5,0.0,Stimuli\Blank.png,0,0,0,110,110,110,,,,,,,,,,,,,66.80951139999888,0.009511399998885395,None,100.28661180000017,100.28661180000017,100.28661180000017,100.28661180000017,100.28661180000017,100.28661180000017,100.28661180000017,100.28661180000017,,001,P008,2025_Feb_01_1141,CategoryLocalizer,2021.2.3,59.94995377874185,
67.0,67.8,4,0.75,Stimuli\ImageFiles-Set1\Scenes\Scenes_035.png,0,0,0,111,111,111,,,,,,,,,,,,,67.00902180000048,0.009021800000482472,None,100.48676739999974,100.48676739999974,100.48676739999974,100.48676739999974,100.48676739999974,100.48676739999974,100.48676739999974,100.48676739999974,,001,P008,2025_Feb_01_1141,CategoryLocalizer,2021.2.3,59.94995377874185,
67.8,68.0,5,0.0,Stimuli\Blank.png,0,0,0,112,112,112,,,,,,,,,,,,,67.80958529999953,0.009585299999528729,None,101.28750460000083,101.28750460000083,101.28750460000083,101.28750460000083,101.28750460000083,101.28750460000083,101.28750460000083,101.28750460000083,,001,P008,2025_Feb_01_1141,CategoryLocalizer,2021.2.3,59.94995377874185,
68.0,68.8,4,0.75,Stimuli\ImageFiles-Set1\Scenes\Scenes_054.png,0,0,0,113,113,113,,,,,,,,,,,,,68.0107050000006,0.010705000000598375,None,101.4876791000006,101.4876791000006,101.4876791000006,101.4876791000006,101.4876791000006,101.4876791000006,101.4876791000006,101.4876791000006,,001,P008,2025_Feb_01_1141,CategoryLocalizer,2021.2.3,59.94995377874185,
68.8,69.0,5,0.0,Stimuli\Blank.png,0,0,0,114,114,114,,,,,,,,,,,,,68.81306620000032,0.013066200000324102,None,102.3050856000009,102.3050856000009,102.3050856000009,102.3050856000009,102.3050856000009,102.3050856000009,102.3050856000009,102.3050856000009,,001,P008,2025_Feb_01_1141,CategoryLocalizer,2021.2.3,59.94995377874185,
69.0,69.8,4,0.75,Stimuli\ImageFiles-Set1\Scenes\Scenes_010.png,0,0,0,115,115,115,,,,,,,,,,,,,69.02846599999975,0.028465999999752967,None,102.52193629999965,102.52193629999965,102.52193629999965,102.52193629999965,102.52193629999965,102.52193629999965,102.52193629999965,102.52193629999965,,001,P008,2025_Feb_01_1141,CategoryLocalizer,2021.2.3,59.94995377874185,
69.8,70.0,5,0.0,Stimuli\Blank.png,0,0,0,116,116,116,,,,,,,,,,,,,69.8287349000002,0.0287349000002024,None,103.30595160000121,103.30595160000121,103.30595160000121,103.30595160000121,103.30595160000121,103.30595160000121,103.30595160000121,103.30595160000121,,001,P008,2025_Feb_01_1141,CategoryLocalizer,2021.2.3,59.94995377874185,
70.0,70.8,4,0.75,Stimuli\ImageFiles-Set1\Scenes\Scenes_058.png,0,0,0,117,117,117,,,,,,,,,,,,,70.01206330000059,0.01206330000059097,None,103.48946460000116,103.48946460000116,103.48946460000116,103.48946460000116,103.48946460000116,103.48946460000116,103.48946460000116,103.48946460000116,,001,P008,2025_Feb_01_1141,CategoryLocalizer,2021.2.3,59.94995377874185,
70.8,71.0,5,0.0,Stimuli\Blank.png,0,0,0,118,118,118,,,,,,,,,,,,,70.81273370000054,0.012733700000538306,None,104.29016320000119,104.29016320000119,104.29016320000119,104.29016320000119,104.29016320000119,104.29016320000119,104.29016320000119,104.29016320000119,,001,P008,2025_Feb_01_1141,CategoryLocalizer,2021.2.3,59.94995377874185,
71.0,71.8,4,0.75,Stimuli\ImageFiles-Set1\Scenes\Scenes_019.png,0,0,0,119,119,119,,,,,,,,,,,,,71.01255990000027,0.012559900000269408,None,104.49033849999978,104.49033849999978,104.49033849999978,104.49033849999978,104.49033849999978,104.49033849999978,104.49033849999978,104.49033849999978,,001,P008,2025_Feb_01_1141,CategoryLocalizer,2021.2.3,59.94995377874185,
71.8,72.0,5,0.0,Stimuli\Blank.png,0,0,0,120,120,120,,,,,,,,,,,,,71.81391210000038,0.013912100000382566,None,105.29105040000104,105.29105040000104,105.29105040000104,105.29105040000104,105.29105040000104,105.29105040000104,105.29105040000104,105.29105040000104,,001,P008,2025_Feb_01_1141,CategoryLocalizer,2021.2.3,59.94995377874185,
72.0,72.8,4,0.75,Stimuli\ImageFiles-Set1\Scenes\Scenes_055.png,1,1,0,121,121,121,,,,,,,,,,,,,72.0138793999995,0.013879399999495945,None,105.50793880000128,105.50793880000128,105.50793880000128,105.50793880000128,105.50793880000128,105.50793880000128,105.50793880000128,105.50793880000128,,001,P008,2025_Feb_01_1141,CategoryLocalizer,2021.2.3,59.94995377874185,
72.8,73.0,5,0.0,Stimuli\Blank.png,0,0,0,122,122,122,,,,,,,,,,,,,72.83139309999933,0.031393099999334595,None,106.30862080000043,106.30862080000043,106.30862080000043,106.30862080000043,106.30862080000043,106.30862080000043,106.30862080000043,106.30862080000043,,001,P008,2025_Feb_01_1141,CategoryLocalizer,2021.2.3,59.94995377874185,
73.0,73.8,4,0.75,Stimuli\ImageFiles-Set1\Scenes\Scenes_009.png,0,0,0,123,123,123,,,,,,,,,,,,,73.01436060000015,0.014360600000145496,None,106.50879859999986,106.50879859999986,106.50879859999986,106.50879859999986,106.50879859999986,106.50879859999986,106.50879859999986,106.50879859999986,,001,P008,2025_Feb_01_1141,CategoryLocalizer,2021.2.3,59.94995377874185,
73.8,74.0,5,0.0,Stimuli\Blank.png,0,0,0,124,124,124,,,,,,,,,,,,,73.8332862999996,0.03328629999960242,None,107.3263035,107.3263035,107.3263035,107.3263035,107.3263035,107.3263035,107.3263035,107.3263035,,001,P008,2025_Feb_01_1141,CategoryLocalizer,2021.2.3,59.94995377874185,
74.0,74.8,4,0.75,Stimuli\ImageFiles-Set1\Scenes\Scenes_009.png,0,0,0,125,125,125,,,,,,,,,,,,,74.01549089999935,0.015490899999349494,2,107.49298790000103,107.49298790000103,107.49298790000103,107.49298790000103,107.49298790000103,107.49298790000103,107.49298790000103,107.49298790000103,0.45207529999970575,001,P008,2025_Feb_01_1141,CategoryLocalizer,2021.2.3,59.94995377874185,
74.8,75.0,5,0.0,Stimuli\Blank.png,0,0,0,126,126,126,,,,,,,,,,,,,74.7993850999992,-0.0006149000007980021,None,108.27701789999992,108.27701789999992,108.27701789999992,108.27701789999992,108.27701789999992,108.27701789999992,108.27701789999992,108.27701789999992,,001,P008,2025_Feb_01_1141,CategoryLocalizer,2021.2.3,59.94995377874185,
75.0,75.8,4,0.75,Stimuli\ImageFiles-Set1\Scenes\Scenes_025.png,0,0,0,127,127,127,,,,,,,,,,,,,75.0002917999991,0.00029179999910411425,None,108.47719710000092,108.47719710000092,108.47719710000092,108.47719710000092,108.47719710000092,108.47719710000092,108.47719710000092,108.47719710000092,,001,P008,2025_Feb_01_1141,CategoryLocalizer,2021.2.3,59.94995377874185,
75.8,76.0,5,0.0,Stimuli\Blank.png,0,0,0,128,128,128,,,,,,,,,,,,,75.80078580000009,0.0007858000000879883,None,109.27799170000071,109.27799170000071,109.27799170000071,109.27799170000071,109.27799170000071,109.27799170000071,109.27799170000071,109.27799170000071,,001,P008,2025_Feb_01_1141,CategoryLocalizer,2021.2.3,59.94995377874185,
76.0,88.0,0,0.0,Stimuli\Blank.png,0,0,0,129,129,129,,,,,,,,,,,,,76.00091000000066,0.0009100000006583286,None,109.47808210000039,109.47808210000039,109.47808210000039,109.47808210000039,109.47808210000039,109.47808210000039,109.47808210000039,109.47808210000039,,001,P008,2025_Feb_01_1141,CategoryLocalizer,2021.2.3,59.94995377874185,
88.0,88.8,3,0.75,Stimuli\ImageFiles-Set1\Faces\Face_00079.png,0,0,0,130,130,130,,,,,,,,,,,,,88.01120380000066,0.011203800000657793,None,121.48870060000081,121.48870060000081,121.48870060000081,121.48870060000081,121.48870060000081,121.48870060000081,121.48870060000081,121.48870060000081,,001,P008,2025_Feb_01_1141,CategoryLocalizer,2021.2.3,59.94995377874185,
88.8,89.0,5,0.0,Stimuli\Blank.png,0,0,0,131,131,131,,,,,,,,,,,,,88.81198760000007,0.01198760000006871,None,122.28945740000017,122.28945740000017,122.28945740000017,122.28945740000017,122.28945740000017,122.28945740000017,122.28945740000017,122.28945740000017,,001,P008,2025_Feb_01_1141,CategoryLocalizer,2021.2.3,59.94995377874185,
89.0,89.8,3,0.75,Stimuli\ImageFiles-Set1\Faces\Face_00039.png,0,0,0,132,132,132,,,,,,,,,,,,,89.01432579999891,0.01432579999891459,None,122.5062807000013,122.5062807000013,122.5062807000013,122.5062807000013,122.5062807000013,122.5062807000013,122.5062807000013,122.5062807000013,,001,P008,2025_Feb_01_1141,CategoryLocalizer,2021.2.3,59.94995377874185,
89.8,90.0,5,0.0,Stimuli\Blank.png,0,0,0,133,133,133,,,,,,,,,,,,,89.82931019999887,0.029310199998874964,None,123.3069828000007,123.3069828000007,123.3069828000007,123.3069828000007,123.3069828000007,123.3069828000007,123.3069828000007,123.3069828000007,,001,P008,2025_Feb_01_1141,CategoryLocalizer,2021.2.3,59.94995377874185,
90.0,90.8,3,0.75,Stimuli\ImageFiles-Set1\Faces\Face_00077.png,0,0,0,134,134,134,,,,,,,,,,,,,90.01310749999902,0.013107499999023275,None,123.49047299999984,123.49047299999984,123.49047299999984,123.49047299999984,123.49047299999984,123.49047299999984,123.49047299999984,123.49047299999984,,001,P008,2025_Feb_01_1141,CategoryLocalizer,2021.2.3,59.94995377874185,
90.8,91.0,5,0.0,Stimuli\Blank.png,0,0,0,135,135,135,,,,,,,,,,,,,90.8144529000001,0.01445290000010857,None,124.29118999999992,124.29118999999992,124.29118999999992,124.29118999999992,124.29118999999992,124.29118999999992,124.29118999999992,124.29118999999992,,001,P008,2025_Feb_01_1141,CategoryLocalizer,2021.2.3,59.94995377874185,
91.0,91.8,3,0.75,Stimuli\ImageFiles-Set1\Faces\Face_00097.png,0,0,0,136,136,136,,,,,,,,,,,,,91.01360260000001,0.013602600000012899,None,124.49135480000041,124.49135480000041,124.49135480000041,124.49135480000041,124.49135480000041,124.49135480000041,124.49135480000041,124.49135480000041,,001,P008,2025_Feb_01_1141,CategoryLocalizer,2021.2.3,59.94995377874185,
91.8,92.0,5,0.0,Stimuli\Blank.png,0,0,0,137,137,137,,,,,,,,,,,,,91.8151686000001,0.015168600000109222,None,125.29207040000074,125.29207040000074,125.29207040000074,125.29207040000074,125.29207040000074,125.29207040000074,125.29207040000074,125.29207040000074,,001,P008,2025_Feb_01_1141,CategoryLocalizer,2021.2.3,59.94995377874185,
92.0,92.8,3,0.75,Stimuli\ImageFiles-Set1\Faces\Face_00105.png,0,0,0,138,138,138,,,,,,,,,,,,,92.01516059999994,0.01516059999994468,None,125.50892720000047,125.50892720000047,125.50892720000047,125.50892720000047,125.50892720000047,125.50892720000047,125.50892720000047,125.50892720000047,,001,P008,2025_Feb_01_1141,CategoryLocalizer,2021.2.3,59.94995377874185,
92.8,93.0,5,0.0,Stimuli\Blank.png,0,0,0,139,139,139,,,,,,,,,,,,,92.81653890000052,0.01653890000052627,None,126.29296020000038,126.29296020000038,126.29296020000038,126.29296020000038,126.29296020000038,126.29296020000038,126.29296020000038,126.29296020000038,,001,P008,2025_Feb_01_1141,CategoryLocalizer,2021.2.3,59.94995377874185,
93.0,93.8,3,0.75,Stimuli\ImageFiles-Set1\Faces\Face_00089.png,0,0,0,140,140,140,,,,,,,,,,,,,93.0001188999995,0.00011889999950653873,None,126.49310520000108,126.49310520000108,126.49310520000108,126.49310520000108,126.49310520000108,126.49310520000108,126.49310520000108,126.49310520000108,,001,P008,2025_Feb_01_1141,CategoryLocalizer,2021.2.3,59.94995377874185,
93.8,94.0,5,0.0,Stimuli\Blank.png,0,0,0,141,141,141,,,,,,,,,,,,,93.81791039999916,0.01791039999916677,None,127.31054589999985,127.31054589999985,127.31054589999985,127.31054589999985,127.31054589999985,127.31054589999985,127.31054589999985,127.31054589999985,,001,P008,2025_Feb_01_1141,CategoryLocalizer,2021.2.3,59.94995377874185,
94.0,94.8,3,0.75,Stimuli\ImageFiles-Set1\Faces\Face_00087.png,0,0,0,142,142,142,,,,,,,,,,,,,94.01754830000027,0.01754830000027141,None,127.51069670000106,127.51069670000106,127.51069670000106,127.51069670000106,127.51069670000106,127.51069670000106,127.51069670000106,127.51069670000106,,001,P008,2025_Feb_01_1141,CategoryLocalizer,2021.2.3,59.94995377874185,
94.8,95.0,5,0.0,Stimuli\Blank.png,0,0,0,143,143,143,,,,,,,,,,,,,94.81925240000055,0.019252400000553394,None,128.31140940000114,128.31140940000114,128.31140940000114,128.31140940000114,128.31140940000114,128.31140940000114,128.31140940000114,128.31140940000114,,001,P008,2025_Feb_01_1141,CategoryLocalizer,2021.2.3,59.94995377874185,
95.0,95.8,3,0.75,Stimuli\ImageFiles-Set1\Faces\Face_00031.png,0,0,0,144,144,144,,,,,,,,,,,,,95.0180380999991,0.018038099999102997,None,128.49489900000117,128.49489900000117,128.49489900000117,128.49489900000117,128.49489900000117,128.49489900000117,128.49489900000117,128.49489900000117,,001,P008,2025_Feb_01_1141,CategoryLocalizer,2021.2.3,59.94995377874185,
95.8,96.0,5,0.0,Stimuli\Blank.png,0,0,0,145,145,145,,,,,,,,,,,,,95.80258030000005,0.0025803000000479415,None,129.27895010000066,129.27895010000066,129.27895010000066,129.27895010000066,129.27895010000066,129.27895010000066,129.27895010000066,129.27895010000066,,001,P008,2025_Feb_01_1141,CategoryLocalizer,2021.2.3,59.94995377874185,
96.0,96.8,3,0.75,Stimuli\ImageFiles-Set1\Faces\Face_00057.png,0,0,0,146,146,146,,,,,,,,,,,,,96.0041457999996,0.004145799999605515,None,129.49579489999996,129.49579489999996,129.49579489999996,129.49579489999996,129.49579489999996,129.49579489999996,129.49579489999996,129.49579489999996,,001,P008,2025_Feb_01_1141,CategoryLocalizer,2021.2.3,59.94995377874185,
96.8,97.0,5,0.0,Stimuli\Blank.png,0,0,0,147,147,147,,,,,,,,,,,,,96.81969410000056,0.019694100000563708,None,130.2964920000013,130.2964920000013,130.2964920000013,130.2964920000013,130.2964920000013,130.2964920000013,130.2964920000013,130.2964920000013,,001,P008,2025_Feb_01_1141,CategoryLocalizer,2021.2.3,59.94995377874185,
97.0,97.8,3,0.75,Stimuli\ImageFiles-Set1\Faces\Face_00081.png,0,0,0,148,148,148,,,,,,,,,,,,,97.00311990000046,0.003119900000456255,None,130.49668370000109,130.49668370000109,130.49668370000109,130.49668370000109,130.49668370000109,130.49668370000109,130.49668370000109,130.49668370000109,,001,P008,2025_Feb_01_1141,CategoryLocalizer,2021.2.3,59.94995377874185,
97.8,98.0,5,0.0,Stimuli\Blank.png,0,0,0,149,149,149,,,,,,,,,,,,,97.81946769999922,0.019467699999225374,None,131.29738999999972,131.29738999999972,131.29738999999972,131.29738999999972,131.29738999999972,131.29738999999972,131.29738999999972,131.29738999999972,,001,P008,2025_Feb_01_1141,CategoryLocalizer,2021.2.3,59.94995377874185,
98.0,98.8,3,0.75,Stimuli\ImageFiles-Set1\Faces\Face_00117.png,0,0,0,150,150,150,,,,,,,,,,,,,98.00377459999982,0.003774599999815109,None,131.49752230000013,131.49752230000013,131.49752230000013,131.49752230000013,131.49752230000013,131.49752230000013,131.49752230000013,131.49752230000013,,001,P008,2025_Feb_01_1141,CategoryLocalizer,2021.2.3,59.94995377874185,
98.8,99.0,5,0.0,Stimuli\Blank.png,0,0,0,151,151,151,,,,,,,,,,,,,98.82384020000063,0.02384020000063458,None,132.31498029999966,132.31498029999966,132.31498029999966,132.31498029999966,132.31498029999966,132.31498029999966,132.31498029999966,132.31498029999966,,001,P008,2025_Feb_01_1141,CategoryLocalizer,2021.2.3,59.94995377874185,
99.0,99.8,3,0.75,Stimuli\ImageFiles-Set1\Faces\Face_00037.png,0,0,0,152,152,152,,,,,,,,,,,,,99.02291929999956,0.022919299999557552,None,132.51512130000083,132.51512130000083,132.51512130000083,132.51512130000083,132.51512130000083,132.51512130000083,132.51512130000083,132.51512130000083,,001,P008,2025_Feb_01_1141,CategoryLocalizer,2021.2.3,59.94995377874185,
99.8,100.0,5,0.0,Stimuli\Blank.png,0,0,0,153,153,153,,,,,,,,,,,,,99.82196400000066,0.021964000000664896,None,133.29919259999951,133.29919259999951,133.29919259999951,133.29919259999951,133.29919259999951,133.29919259999951,133.29919259999951,133.29919259999951,,001,P008,2025_Feb_01_1141,CategoryLocalizer,2021.2.3,59.94995377874185,
100.0,100.8,3,0.75,Stimuli\ImageFiles-Set1\Faces\Face_00037.png,1,1,0,154,154,154,,,,,,,,,,,,,100.00546769999892,0.005467699998916942,2,133.48260300000038,133.48260300000038,133.48260300000038,133.48260300000038,133.48260300000038,133.48260300000038,133.48260300000038,133.48260300000038,0.4724504000005254,001,P008,2025_Feb_01_1141,CategoryLocalizer,2021.2.3,59.94995377874185,
100.8,101.0,5,0.0,Stimuli\Blank.png,0,0,0,155,155,155,,,,,,,,,,,,,100.80633350000062,0.006333500000621939,None,134.2833688999999,134.2833688999999,134.2833688999999,134.2833688999999,134.2833688999999,134.2833688999999,134.2833688999999,134.2833688999999,,001,P008,2025_Feb_01_1141,CategoryLocalizer,2021.2.3,59.94995377874185,
101.0,101.8,3,0.75,Stimuli\ImageFiles-Set1\Faces\Face_00020.png,0,0,0,156,156,156,,,,,,,,,,,,,101.00839769999948,0.008397699999477481,None,134.5002260000001,134.5002260000001,134.5002260000001,134.5002260000001,134.5002260000001,134.5002260000001,134.5002260000001,134.5002260000001,,001,P008,2025_Feb_01_1141,CategoryLocalizer,2021.2.3,59.94995377874185,
101.8,102.0,5,0.0,Stimuli\Blank.png,0,0,0,157,157,157,,,,,,,,,,,,,101.8240638999996,0.024063899999603677,None,135.30092700000023,135.30092700000023,135.30092700000023,135.30092700000023,135.30092700000023,135.30092700000023,135.30092700000023,135.30092700000023,,001,P008,2025_Feb_01_1141,CategoryLocalizer,2021.2.3,59.94995377874185,
102.0,102.8,3,0.75,Stimuli\ImageFiles-Set1\Faces\Face_00061.png,0,0,0,158,158,158,,,,,,,,,,,,,102.0069368000004,0.006936800000403309,None,135.4844202000004,135.4844202000004,135.4844202000004,135.4844202000004,135.4844202000004,135.4844202000004,135.4844202000004,135.4844202000004,,001,P008,2025_Feb_01_1141,CategoryLocalizer,2021.2.3,59.94995377874185,
102.8,103.0,5,0.0,Stimuli\Blank.png,0,0,0,159,159,159,,,,,,,,,,,,,102.80812490000062,0.008124900000623825,None,136.28512179999962,136.28512179999962,136.28512179999962,136.28512179999962,136.28512179999962,136.28512179999962,136.28512179999962,136.28512179999962,,001,P008,2025_Feb_01_1141,CategoryLocalizer,2021.2.3,59.94995377874185,
103.0,103.8,3,0.75,Stimuli\ImageFiles-Set1\Faces\Face_00027.png,0,0,0,160,160,160,,,,,,,,,,,,,103.00779709999915,0.007797099999152124,None,136.48529580000104,136.48529580000104,136.48529580000104,136.48529580000104,136.48529580000104,136.48529580000104,136.48529580000104,136.48529580000104,,001,P008,2025_Feb_01_1141,CategoryLocalizer,2021.2.3,59.94995377874185,
103.8,104.0,5,0.0,Stimuli\Blank.png,0,0,0,161,161,161,,,,,,,,,,,,,103.808713299999,0.008713299999001833,None,137.28601549999985,137.28601549999985,137.28601549999985,137.28601549999985,137.28601549999985,137.28601549999985,137.28601549999985,137.28601549999985,,001,P008,2025_Feb_01_1141,CategoryLocalizer,2021.2.3,59.94995377874185,
104.0,104.8,1,0.75,Stimuli\ImageFiles-Set1\Objects\Object_ShoppingCart_00001.png,0,0,0,162,162,162,,,,,,,,,,,,,104.00986069999999,0.009860699999990175,None,137.50286310000047,137.50286310000047,137.50286310000047,137.50286310000047,137.50286310000047,137.50286310000047,137.50286310000047,137.50286310000047,,001,P008,2025_Feb_01_1141,CategoryLocalizer,2021.2.3,59.94995377874185,
104.8,105.0,5,0.0,Stimuli\Blank.png,0,0,0,163,163,163,,,,,,,,,,,,,104.82577780000065,0.025777800000653883,None,138.30357550000008,138.30357550000008,138.30357550000008,138.30357550000008,138.30357550000008,138.30357550000008,138.30357550000008,138.30357550000008,,001,P008,2025_Feb_01_1141,CategoryLocalizer,2021.2.3,59.94995377874185,
105.0,105.8,1,0.75,Stimuli\ImageFiles-Set1\Objects\Object_Oven_00001.png,0,0,0,164,164,164,,,,,,,,,,,,,105.00914449999982,0.009144499999820255,None,138.4870633999999,138.4870633999999,138.4870633999999,138.4870633999999,138.4870633999999,138.4870633999999,138.4870633999999,138.4870633999999,,001,P008,2025_Feb_01_1141,CategoryLocalizer,2021.2.3,59.94995377874185,
105.8,106.0,5,0.0,Stimuli\Blank.png,0,0,0,165,165,165,,,,,,,,,,,,,105.81018059999951,0.010180599999515039,None,139.2877755999998,139.2877755999998,139.2877755999998,139.2877755999998,139.2877755999998,139.2877755999998,139.2877755999998,139.2877755999998,,001,P008,2025_Feb_01_1141,CategoryLocalizer,2021.2.3,59.94995377874185,
106.0,106.8,1,0.75,Stimuli\ImageFiles-Set1\Objects\Object_Tool_00001.png,0,0,0,166,166,166,,,,,,,,,,,,,106.01017349999893,0.010173499998927582,None,139.48795690000043,139.48795690000043,139.48795690000043,139.48795690000043,139.48795690000043,139.48795690000043,139.48795690000043,139.48795690000043,,001,P008,2025_Feb_01_1141,CategoryLocalizer,2021.2.3,59.94995377874185,
106.8,107.0,5,0.0,Stimuli\Blank.png,0,0,0,167,167,167,,,,,,,,,,,,,106.81171480000012,0.011714800000120817,None,140.28867910000008,140.28867910000008,140.28867910000008,140.28867910000008,140.28867910000008,140.28867910000008,140.28867910000008,140.28867910000008,,001,P008,2025_Feb_01_1141,CategoryLocalizer,2021.2.3,59.94995377874185,
107.0,107.8,1,0.75,Stimuli\ImageFiles-Set1\Objects\Object_Tool_00001.png,1,1,0,168,168,168,,,,,,,,,,,,,107.01338339999893,0.013383399998929235,2,140.50552679999964,140.50552679999964,140.50552679999964,140.50552679999964,140.50552679999964,140.50552679999964,140.50552679999964,140.50552679999964,0.3776990000005753,001,P008,2025_Feb_01_1141,CategoryLocalizer,2021.2.3,59.94995377874185,
107.8,108.0,5,0.0,Stimuli\Blank.png,0,0,0,169,169,169,,,,,,,,,,,,,107.82932359999904,0.02932359999904577,None,141.30624739999985,141.30624739999985,141.30624739999985,141.30624739999985,141.30624739999985,141.30624739999985,141.30624739999985,141.30624739999985,,001,P008,2025_Feb_01_1141,CategoryLocalizer,2021.2.3,59.94995377874185,
108.0,108.8,1,0.75,Stimuli\ImageFiles-Set1\Objects\Object_Locker_00001.png,0,0,0,170,170,170,,,,,,,,,,,,,108.0152992000003,0.015299200000299606,None,141.50643579999996,141.50643579999996,141.50643579999996,141.50643579999996,141.50643579999996,141.50643579999996,141.50643579999996,141.50643579999996,,001,P008,2025_Feb_01_1141,CategoryLocalizer,2021.2.3,59.94995377874185,
108.8,109.0,5,0.0,Stimuli\Blank.png,0,0,0,171,171,171,,,,,,,,,,,,,108.81265229999917,0.012652299999174943,None,142.29044450000038,142.29044450000038,142.29044450000038,142.29044450000038,142.29044450000038,142.29044450000038,142.29044450000038,142.29044450000038,,001,P008,2025_Feb_01_1141,CategoryLocalizer,2021.2.3,59.94995377874185,
109.0,109.8,1,0.75,Stimuli\ImageFiles-Set1\Objects\Object_Card_00001.png,0,0,0,172,172,172,,,,,,,,,,,,,109.01286649999929,0.012866499999290681,None,142.49057979999998,142.49057979999998,142.49057979999998,142.49057979999998,142.49057979999998,142.49057979999998,142.49057979999998,142.49057979999998,,001,P008,2025_Feb_01_1141,CategoryLocalizer,2021.2.3,59.94995377874185,
109.8,110.0,5,0.0,Stimuli\Blank.png,0,0,0,173,173,173,,,,,,,,,,,,,109.81405629999972,0.01405629999972291,None,143.29132709999976,143.29132709999976,143.29132709999976,143.29132709999976,143.29132709999976,143.29132709999976,143.29132709999976,143.29132709999976,,001,P008,2025_Feb_01_1141,CategoryLocalizer,2021.2.3,59.94995377874185,
110.0,110.8,1,0.75,Stimuli\ImageFiles-Set1\Objects\Object_Airplane_00001.png,0,0,0,174,174,174,,,,,,,,,,,,,110.01358049999908,0.01358049999907962,None,143.49150240000017,143.49150240000017,143.49150240000017,143.49150240000017,143.49150240000017,143.49150240000017,143.49150240000017,143.49150240000017,,001,P008,2025_Feb_01_1141,CategoryLocalizer,2021.2.3,59.94995377874185,
110.8,111.0,5,0.0,Stimuli\Blank.png,0,0,0,175,175,175,,,,,,,,,,,,,110.81427880000047,0.01427880000046855,None,144.29220069999974,144.29220069999974,144.29220069999974,144.29220069999974,144.29220069999974,144.29220069999974,144.29220069999974,144.29220069999974,,001,P008,2025_Feb_01_1141,CategoryLocalizer,2021.2.3,59.94995377874185,
111.0,111.8,1,0.75,Stimuli\ImageFiles-Set1\Objects\Object_Ring_00001.png,0,0,0,176,176,176,,,,,,,,,,,,,111.01460720000068,0.014607200000682496,None,144.4923869000013,144.4923869000013,144.4923869000013,144.4923869000013,144.4923869000013,144.4923869000013,144.4923869000013,144.4923869000013,,001,P008,2025_Feb_01_1141,CategoryLocalizer,2021.2.3,59.94995377874185,
111.8,112.0,5,0.0,Stimuli\Blank.png,0,0,0,177,177,177,,,,,,,,,,,,,111.81520230000024,0.015202300000240143,None,145.29309210000065,145.29309210000065,145.29309210000065,145.29309210000065,145.29309210000065,145.29309210000065,145.29309210000065,145.29309210000065,,001,P008,2025_Feb_01_1141,CategoryLocalizer,2021.2.3,59.94995377874185,
112.0,112.8,1,0.75,Stimuli\ImageFiles-Set1\Objects\Object_Screw_00001.png,0,0,0,178,178,178,,,,,,,,,,,,,112.01630300000033,0.016303000000334578,None,145.49326550000114,145.49326550000114,145.49326550000114,145.49326550000114,145.49326550000114,145.49326550000114,145.49326550000114,145.49326550000114,,001,P008,2025_Feb_01_1141,CategoryLocalizer,2021.2.3,59.94995377874185,
112.8,113.0,5,0.0,Stimuli\Blank.png,0,0,0,179,179,179,,,,,,,,,,,,,112.80039609999949,0.0003960999994916392,None,146.27731049999966,146.27731049999966,146.27731049999966,146.27731049999966,146.27731049999966,146.27731049999966,146.27731049999966,146.27731049999966,,001,P008,2025_Feb_01_1141,CategoryLocalizer,2021.2.3,59.94995377874185,
113.0,113.8,1,0.75,Stimuli\ImageFiles-Set1\Objects\Object_Door_00001.png,0,0,0,180,180,180,,,,,,,,,,,,,112.99957279999944,-0.00042720000055851415,None,146.47747530000015,146.47747530000015,146.47747530000015,146.47747530000015,146.47747530000015,146.47747530000015,146.47747530000015,146.47747530000015,,001,P008,2025_Feb_01_1141,CategoryLocalizer,2021.2.3,59.94995377874185,
113.8,114.0,5,0.0,Stimuli\Blank.png,0,0,0,181,181,181,,,,,,,,,,,,,113.80097290000049,0.0009729000004909949,None,147.27818079999997,147.27818079999997,147.27818079999997,147.27818079999997,147.27818079999997,147.27818079999997,147.27818079999997,147.27818079999997,,001,P008,2025_Feb_01_1141,CategoryLocalizer,2021.2.3,59.94995377874185,
114.0,114.8,1,0.75,Stimuli\ImageFiles-Set1\Objects\Object_Apple_00001.png,0,0,0,182,182,182,,,,,,,,,,,,,114.00299119999909,0.0029911999990872573,None,147.49503279999954,147.49503279999954,147.49503279999954,147.49503279999954,147.49503279999954,147.49503279999954,147.49503279999954,147.49503279999954,,001,P008,2025_Feb_01_1141,CategoryLocalizer,2021.2.3,59.94995377874185,
114.8,115.0,5,0.0,Stimuli\Blank.png,0,0,0,183,183,183,,,,,,,,,,,,,114.81843440000011,0.018434400000117535,None,148.29575339999974,148.29575339999974,148.29575339999974,148.29575339999974,148.29575339999974,148.29575339999974,148.29575339999974,148.29575339999974,,001,P008,2025_Feb_01_1141,CategoryLocalizer,2021.2.3,59.94995377874185,
115.0,115.8,1,0.75,Stimuli\ImageFiles-Set1\Objects\Object_Crib_00001.png,0,0,0,184,184,184,,,,,,,,,,,,,115.00413529999969,0.004135299999688868,None,148.49594720000096,148.49594720000096,148.49594720000096,148.49594720000096,148.49594720000096,148.49594720000096,148.49594720000096,148.49594720000096,,001,P008,2025_Feb_01_1141,CategoryLocalizer,2021.2.3,59.94995377874185,
115.8,116.0,5,0.0,Stimuli\Blank.png,0,0,0,185,185,185,,,,,,,,,,,,,115.81933310000022,0.01933310000022459,None,149.29663989999972,149.29663989999972,149.29663989999972,149.29663989999972,149.29663989999972,149.29663989999972,149.29663989999972,149.29663989999972,,001,P008,2025_Feb_01_1141,CategoryLocalizer,2021.2.3,59.94995377874185,
116.0,116.8,1,0.75,Stimuli\ImageFiles-Set1\Objects\Object_Pizza_00001.png,0,0,0,186,186,186,,,,,,,,,,,,,116.00300570000036,0.003005700000358047,None,149.49680629999966,149.49680629999966,149.49680629999966,149.49680629999966,149.49680629999966,149.49680629999966,149.49680629999966,149.49680629999966,,001,P008,2025_Feb_01_1141,CategoryLocalizer,2021.2.3,59.94995377874185,
116.8,117.0,5,0.0,Stimuli\Blank.png,0,0,0,187,187,187,,,,,,,,,,,,,116.8198726999999,0.01987269999990815,None,150.29755620000105,150.29755620000105,150.29755620000105,150.29755620000105,150.29755620000105,150.29755620000105,150.29755620000105,150.29755620000105,,001,P008,2025_Feb_01_1141,CategoryLocalizer,2021.2.3,59.94995377874185,
117.0,117.8,1,0.75,Stimuli\ImageFiles-Set1\Objects\Object_Nightstand_00001.png,0,0,0,188,188,188,,,,,,,,,,,,,117.00407149999955,0.004071499999554362,None,150.49771619999956,150.49771619999956,150.49771619999956,150.49771619999956,150.49771619999956,150.49771619999956,150.49771619999956,150.49771619999956,,001,P008,2025_Feb_01_1141,CategoryLocalizer,2021.2.3,59.94995377874185,
117.8,118.0,5,0.0,Stimuli\Blank.png,0,0,0,189,189,189,,,,,,,,,,,,,117.82321799999954,0.023217999999545214,None,151.31510850000086,151.31510850000086,151.31510850000086,151.31510850000086,151.31510850000086,151.31510850000086,151.31510850000086,151.31510850000086,,001,P008,2025_Feb_01_1141,CategoryLocalizer,2021.2.3,59.94995377874185,
118.0,118.8,1,0.75,Stimuli\ImageFiles-Set1\Objects\Object_GarbageCan_00001.png,0,0,0,190,190,190,,,,,,,,,,,,,118.0232675999996,0.023267599999599042,None,151.51526139999987,151.51526139999987,151.51526139999987,151.51526139999987,151.51526139999987,151.51526139999987,151.51526139999987,151.51526139999987,,001,P008,2025_Feb_01_1141,CategoryLocalizer,2021.2.3,59.94995377874185,
118.8,119.0,5,0.0,Stimuli\Blank.png,0,0,0,191,191,191,,,,,,,,,,,,,118.82413730000007,0.024137300000077744,None,152.31596610000088,152.31596610000088,152.31596610000088,152.31596610000088,152.31596610000088,152.31596610000088,152.31596610000088,152.31596610000088,,001,P008,2025_Feb_01_1141,CategoryLocalizer,2021.2.3,59.94995377874185,
119.0,119.8,1,0.75,Stimuli\ImageFiles-Set1\Objects\Object_Chest_00001.png,0,0,0,192,192,192,,,,,,,,,,,,,119.02401649999956,0.024016499999561347,None,152.51615579999998,152.51615579999998,152.51615579999998,152.51615579999998,152.51615579999998,152.51615579999998,152.51615579999998,152.51615579999998,,001,P008,2025_Feb_01_1141,CategoryLocalizer,2021.2.3,59.94995377874185,
119.8,120.0,5,0.0,Stimuli\Blank.png,0,0,0,193,193,193,,,,,,,,,,,,,119.82301460000053,0.023014600000536234,None,153.30016910000086,153.30016910000086,153.30016910000086,153.30016910000086,153.30016910000086,153.30016910000086,153.30016910000086,153.30016910000086,,001,P008,2025_Feb_01_1141,CategoryLocalizer,2021.2.3,59.94995377874185,
120.0,120.8,4,0.75,Stimuli\ImageFiles-Set1\Scenes\Scenes_017.png,0,0,0,194,194,194,,,,,,,,,,,,,120.00721499999963,0.00721499999963271,None,153.50035050000042,153.50035050000042,153.50035050000042,153.50035050000042,153.50035050000042,153.50035050000042,153.50035050000042,153.50035050000042,,001,P008,2025_Feb_01_1141,CategoryLocalizer,2021.2.3,59.94995377874185,
120.8,121.0,5,0.0,Stimuli\Blank.png,0,0,0,195,195,195,,,,,,,,,,,,,120.82408450000003,0.024084500000029152,None,154.30107070000122,154.30107070000122,154.30107070000122,154.30107070000122,154.30107070000122,154.30107070000122,154.30107070000122,154.30107070000122,,001,P008,2025_Feb_01_1141,CategoryLocalizer,2021.2.3,59.94995377874185,
121.0,121.8,4,0.75,Stimuli\ImageFiles-Set1\Scenes\Scenes_020.png,0,0,0,196,196,196,,,,,,,,,,,,,121.00922329999958,0.00922329999957583,None,154.50124060000053,154.50124060000053,154.50124060000053,154.50124060000053,154.50124060000053,154.50124060000053,154.50124060000053,154.50124060000053,,001,P008,2025_Feb_01_1141,CategoryLocalizer,2021.2.3,59.94995377874185,
121.8,122.0,5,0.0,Stimuli\Blank.png,0,0,0,197,197,197,,,,,,,,,,,,,121.82449950000046,0.024499500000459307,None,155.30193979999967,155.30193979999967,155.30193979999967,155.30193979999967,155.30193979999967,155.30193979999967,155.30193979999967,155.30193979999967,,001,P008,2025_Feb_01_1141,CategoryLocalizer,2021.2.3,59.94995377874185,
122.0,122.8,4,0.75,Stimuli\ImageFiles-Set1\Scenes\Scenes_021.png,0,0,0,198,198,198,,,,,,,,,,,,,122.0075756999995,0.007575699999506469,None,155.50216209999962,155.50216209999962,155.50216209999962,155.50216209999962,155.50216209999962,155.50216209999962,155.50216209999962,155.50216209999962,,001,P008,2025_Feb_01_1141,CategoryLocalizer,2021.2.3,59.94995377874185,
122.8,123.0,5,0.0,Stimuli\Blank.png,0,0,0,199,199,199,,,,,,,,,,,,,122.82565769999928,0.02565769999928591,None,156.3028548000002,156.3028548000002,156.3028548000002,156.3028548000002,156.3028548000002,156.3028548000002,156.3028548000002,156.3028548000002,,001,P008,2025_Feb_01_1141,CategoryLocalizer,2021.2.3,59.94995377874185,
123.0,123.8,4,0.75,Stimuli\ImageFiles-Set1\Scenes\Scenes_021.png,1,1,0,200,200,200,,,,,,,,,,,,,123.00920980000046,0.009209800000462565,2,156.4863218999999,156.4863218999999,156.4863218999999,156.4863218999999,156.4863218999999,156.4863218999999,156.4863218999999,156.4863218999999,0.6391450999999506,001,P008,2025_Feb_01_1141,CategoryLocalizer,2021.2.3,59.94995377874185,
123.8,124.0,5,0.0,Stimuli\Blank.png,0,0,0,201,201,201,,,,,,,,,,,,,123.80985479999981,0.009854799999814645,None,157.28702820000035,157.28702820000035,157.28702820000035,157.28702820000035,157.28702820000035,157.28702820000035,157.28702820000035,157.28702820000035,,001,P008,2025_Feb_01_1141,CategoryLocalizer,2021.2.3,59.94995377874185,
124.0,124.8,4,0.75,Stimuli\ImageFiles-Set1\Scenes\Scenes_012.png,0,0,0,202,202,202,,,,,,,,,,,,,124.01025490000029,0.010254900000290945,None,157.48722570000064,157.48722570000064,157.48722570000064,157.48722570000064,157.48722570000064,157.48722570000064,157.48722570000064,157.48722570000064,,001,P008,2025_Feb_01_1141,CategoryLocalizer,2021.2.3,59.94995377874185,
124.8,125.0,5,0.0,Stimuli\Blank.png,0,0,0,203,203,203,,,,,,,,,,,,,124.81093779999901,0.01093779999901301,None,158.2879200999996,158.2879200999996,158.2879200999996,158.2879200999996,158.2879200999996,158.2879200999996,158.2879200999996,158.2879200999996,,001,P008,2025_Feb_01_1141,CategoryLocalizer,2021.2.3,59.94995377874185,
125.0,125.8,4,0.75,Stimuli\ImageFiles-Set1\Scenes\Scenes_004.png,0,0,0,204,204,204,,,,,,,,,,,,,125.01029600000038,0.010296000000380445,None,158.4880888000007,158.4880888000007,158.4880888000007,158.4880888000007,158.4880888000007,158.4880888000007,158.4880888000007,158.4880888000007,,001,P008,2025_Feb_01_1141,CategoryLocalizer,2021.2.3,59.94995377874185,
125.8,126.0,5,0.0,Stimuli\Blank.png,0,0,0,205,205,205,,,,,,,,,,,,,125.81165409999994,0.011654099999944378,None,159.2888240000011,159.2888240000011,159.2888240000011,159.2888240000011,159.2888240000011,159.2888240000011,159.2888240000011,159.2888240000011,,001,P008,2025_Feb_01_1141,CategoryLocalizer,2021.2.3,59.94995377874185,
126.0,126.8,4,0.75,Stimuli\ImageFiles-Set1\Scenes\Scenes_001.png,0,0,0,206,206,206,,,,,,,,,,,,,126.0110392000006,0.011039200000595883,None,159.48898350000127,159.48898350000127,159.48898350000127,159.48898350000127,159.48898350000127,159.48898350000127,159.48898350000127,159.48898350000127,,001,P008,2025_Feb_01_1141,CategoryLocalizer,2021.2.3,59.94995377874185,
126.8,127.0,5,0.0,Stimuli\Blank.png,0,0,0,207,207,207,,,,,,,,,,,,,126.81351109999923,0.013511099999234943,None,160.30639580000025,160.30639580000025,160.30639580000025,160.30639580000025,160.30639580000025,160.30639580000025,160.30639580000025,160.30639580000025,,001,P008,2025_Feb_01_1141,CategoryLocalizer,2021.2.3,59.94995377874185,
127.0,127.8,4,0.75,Stimuli\ImageFiles-Set1\Scenes\Scenes_044.png,0,0,0,208,208,208,,,,,,,,,,,,,127.02911209999911,0.029112099999110796,None,160.52324670000053,160.52324670000053,160.52324670000053,160.52324670000053,160.52324670000053,160.52324670000053,160.52324670000053,160.52324670000053,,001,P008,2025_Feb_01_1141,CategoryLocalizer,2021.2.3,59.94995377874185,
127.8,128.0,5,0.0,Stimuli\Blank.png,0,0,0,209,209,209,,,,,,,,,,,,,127.8295137999994,0.029513799999406842,None,161.3072513999996,161.3072513999996,161.3072513999996,161.3072513999996,161.3072513999996,161.3072513999996,161.3072513999996,161.3072513999996,,001,P008,2025_Feb_01_1141,CategoryLocalizer,2021.2.3,59.94995377874185,
128.0,128.8,4,0.75,Stimuli\ImageFiles-Set1\Scenes\Scenes_038.png,0,0,0,210,210,210,,,,,,,,,,,,,128.0133919,0.0133918999999878,None,161.50747050000064,161.50747050000064,161.50747050000064,161.50747050000064,161.50747050000064,161.50747050000064,161.50747050000064,161.50747050000064,,001,P008,2025_Feb_01_1141,CategoryLocalizer,2021.2.3,59.94995377874185,
128.8,129.0,5,0.0,Stimuli\Blank.png,0,0,0,211,211,211,,,,,,,,,,,,,128.83037960000001,0.030379600000003393,None,162.30815190000067,162.30815190000067,162.30815190000067,162.30815190000067,162.30815190000067,162.30815190000067,162.30815190000067,162.30815190000067,,001,P008,2025_Feb_01_1141,CategoryLocalizer,2021.2.3,59.94995377874185,
129.0,129.8,4,0.75,Stimuli\ImageFiles-Set1\Scenes\Scenes_022.png,0,0,0,212,212,212,,,,,,,,,,,,,129.01376510000046,0.013765100000455277,None,162.50834190000023,162.50834190000023,162.50834190000023,162.50834190000023,162.50834190000023,162.50834190000023,162.50834190000023,162.50834190000023,,001,P008,2025_Feb_01_1141,CategoryLocalizer,2021.2.3,59.94995377874185,
129.8,130.0,5,0.0,Stimuli\Blank.png,0,0,0,213,213,213,,,,,,,,,,,,,129.83299230000011,0.032992300000103114,None,163.32573530000082,163.32573530000082,163.32573530000082,163.32573530000082,163.32573530000082,163.32573530000082,163.32573530000082,163.32573530000082,,001,P008,2025_Feb_01_1141,CategoryLocalizer,2021.2.3,59.94995377874185,
130.0,130.8,4,0.75,Stimuli\ImageFiles-Set1\Scenes\Scenes_048.png,0,0,0,214,214,214,,,,,,,,,,,,,130.01540740000019,0.01540740000018559,None,163.5092010999997,163.5092010999997,163.5092010999997,163.5092010999997,163.5092010999997,163.5092010999997,163.5092010999997,163.5092010999997,,001,P008,2025_Feb_01_1141,CategoryLocalizer,2021.2.3,59.94995377874185,
130.8,131.0,5,0.0,Stimuli\Blank.png,0,0,0,215,215,215,,,,,,,,,,,,,130.81531489999907,0.015314899999054887,None,164.29322800000045,164.29322800000045,164.29322800000045,164.29322800000045,164.29322800000045,164.29322800000045,164.29322800000045,164.29322800000045,,001,P008,2025_Feb_01_1141,CategoryLocalizer,2021.2.3,59.94995377874185,
131.0,131.8,4,0.75,Stimuli\ImageFiles-Set1\Scenes\Scenes_037.png,0,0,0,216,216,216,,,,,,,,,,,,,131.018501999999,0.01850199999898905,None,164.51009300000078,164.51009300000078,164.51009300000078,164.51009300000078,164.51009300000078,164.51009300000078,164.51009300000078,164.51009300000078,,001,P008,2025_Feb_01_1141,CategoryLocalizer,2021.2.3,59.94995377874185,
131.8,132.0,5,0.0,Stimuli\Blank.png,0,0,0,217,217,217,,,,,,,,,,,,,131.8181530999991,0.018153099999096867,None,165.31080350000047,165.31080350000047,165.31080350000047,165.31080350000047,165.31080350000047,165.31080350000047,165.31080350000047,165.31080350000047,,001,P008,2025_Feb_01_1141,CategoryLocalizer,2021.2.3,59.94995377874185,
132.0,132.8,4,0.75,Stimuli\ImageFiles-Set1\Scenes\Scenes_050.png,0,0,0,218,218,218,,,,,,,,,,,,,132.01639029999933,0.016390299999329727,None,165.4942931000005,165.4942931000005,165.4942931000005,165.4942931000005,165.4942931000005,165.4942931000005,165.4942931000005,165.4942931000005,,001,P008,2025_Feb_01_1141,CategoryLocalizer,2021.2.3,59.94995377874185,
132.8,133.0,5,0.0,Stimuli\Blank.png,0,0,0,219,219,219,,,,,,,,,,,,,132.8011422999989,0.0011422999988894844,None,166.27832760000092,166.27832760000092,166.27832760000092,166.27832760000092,166.27832760000092,166.27832760000092,166.27832760000092,166.27832760000092,,001,P008,2025_Feb_01_1141,CategoryLocalizer,2021.2.3,59.94995377874185,
133.0,133.8,4,0.75,Stimuli\ImageFiles-Set1\Scenes\Scenes_026.png,0,0,0,220,220,220,,,,,,,,,,,,,133.00311150000016,0.0031115000001591397,None,166.49518080000053,166.49518080000053,166.49518080000053,166.49518080000053,166.49518080000053,166.49518080000053,166.49518080000053,166.49518080000053,,001,P008,2025_Feb_01_1141,CategoryLocalizer,2021.2.3,59.94995377874185,
133.8,134.0,5,0.0,Stimuli\Blank.png,0,0,0,221,221,221,,,,,,,,,,,,,133.81908889999977,0.01908889999975827,None,167.2958940999997,167.2958940999997,167.2958940999997,167.2958940999997,167.2958940999997,167.2958940999997,167.2958940999997,167.2958940999997,,001,P008,2025_Feb_01_1141,CategoryLocalizer,2021.2.3,59.94995377874185,
134.0,134.8,4,0.75,Stimuli\ImageFiles-Set1\Scenes\Scenes_007.png,0,0,0,222,222,222,,,,,,,,,,,,,134.00417480000033,0.004174800000328105,None,167.49603150000075,167.49603150000075,167.49603150000075,167.49603150000075,167.49603150000075,167.49603150000075,167.49603150000075,167.49603150000075,,001,P008,2025_Feb_01_1141,CategoryLocalizer,2021.2.3,59.94995377874185,
134.8,135.0,5,0.0,Stimuli\Blank.png,0,0,0,223,223,223,,,,,,,,,,,,,134.81917609999982,0.019176099999810958,None,168.29693430000043,168.29693430000043,168.29693430000043,168.29693430000043,168.29693430000043,168.29693430000043,168.29693430000043,168.29693430000043,,001,P008,2025_Feb_01_1141,CategoryLocalizer,2021.2.3,59.94995377874185,
135.0,135.8,4,0.75,Stimuli\ImageFiles-Set1\Scenes\Scenes_003.png,0,0,0,224,224,224,,,,,,,,,,,,,135.00284909999937,0.0028490999993664445,None,168.49697899999956,168.49697899999956,168.49697899999956,168.49697899999956,168.49697899999956,168.49697899999956,168.49697899999956,168.49697899999956,,001,P008,2025_Feb_01_1141,CategoryLocalizer,2021.2.3,59.94995377874185,
135.8,136.0,5,0.0,Stimuli\Blank.png,0,0,0,225,225,225,,,,,,,,,,,,,135.8205436999997,0.020543699999677756,None,169.29767770000035,169.29767770000035,169.29767770000035,169.29767770000035,169.29767770000035,169.29767770000035,169.29767770000035,169.29767770000035,,001,P008,2025_Feb_01_1141,CategoryLocalizer,2021.2.3,59.94995377874185,
136.0,136.8,2,0.75,Stimuli\ImageFiles-Set1\Bodies\Bodies_Standing_00005.png,0,0,0,226,226,226,,,,,,,,,,,,,136.0039902999997,0.003990299999713898,None,169.4811146000011,169.4811146000011,169.4811146000011,169.4811146000011,169.4811146000011,169.4811146000011,169.4811146000011,169.4811146000011,,001,P008,2025_Feb_01_1141,CategoryLocalizer,2021.2.3,59.94995377874185,
136.8,137.0,5,0.0,Stimuli\Blank.png,0,0,0,227,227,227,,,,,,,,,,,,,136.8045189000004,0.004518900000391568,None,170.28185230000054,170.28185230000054,170.28185230000054,170.28185230000054,170.28185230000054,170.28185230000054,170.28185230000054,170.28185230000054,,001,P008,2025_Feb_01_1141,CategoryLocalizer,2021.2.3,59.94995377874185,
137.0,137.8,2,0.75,Stimuli\ImageFiles-Set1\Bodies\Bodies_DownwardDog_00006.png,0,0,0,228,228,228,,,,,,,,,,,,,137.0041184999991,0.004118499999094638,None,170.48203040000044,170.48203040000044,170.48203040000044,170.48203040000044,170.48203040000044,170.48203040000044,170.48203040000044,170.48203040000044,,001,P008,2025_Feb_01_1141,CategoryLocalizer,2021.2.3,59.94995377874185,
137.8,138.0,5,0.0,Stimuli\Blank.png,0,0,0,229,229,229,,,,,,,,,,,,,137.80545849999908,0.005458499999065225,None,171.28273720000107,171.28273720000107,171.28273720000107,171.28273720000107,171.28273720000107,171.28273720000107,171.28273720000107,171.28273720000107,,001,P008,2025_Feb_01_1141,CategoryLocalizer,2021.2.3,59.94995377874185,
138.0,138.8,2,0.75,Stimuli\ImageFiles-Set1\Bodies\Bodies_Falling_00006.png,0,0,0,230,230,230,,,,,,,,,,,,,138.00588860000062,0.0058886000006168615,None,171.48287970000092,171.48287970000092,171.48287970000092,171.48287970000092,171.48287970000092,171.48287970000092,171.48287970000092,171.48287970000092,,001,P008,2025_Feb_01_1141,CategoryLocalizer,2021.2.3,59.94995377874185,
138.8,139.0,5,0.0,Stimuli\Blank.png,0,0,0,231,231,231,,,,,,,,,,,,,138.80714249999983,0.0071424999998157546,None,172.28365420000046,172.28365420000046,172.28365420000046,172.28365420000046,172.28365420000046,172.28365420000046,172.28365420000046,172.28365420000046,,001,P008,2025_Feb_01_1141,CategoryLocalizer,2021.2.3,59.94995377874185,
139.0,139.8,2,0.75,Stimuli\ImageFiles-Set1\Bodies\Bodies_Punching_00006.png,0,0,0,232,232,232,,,,,,,,,,,,,139.00595539999995,0.005955399999947986,None,172.4839436000002,172.4839436000002,172.4839436000002,172.4839436000002,172.4839436000002,172.4839436000002,172.4839436000002,172.4839436000002,,001,P008,2025_Feb_01_1141,CategoryLocalizer,2021.2.3,59.94995377874185,
139.8,140.0,5,0.0,Stimuli\Blank.png,0,0,0,233,233,233,,,,,,,,,,,,,139.8090874999998,0.009087499999793636,None,173.30120850000094,173.30120850000094,173.30120850000094,173.30120850000094,173.30120850000094,173.30120850000094,173.30120850000094,173.30120850000094,,001,P008,2025_Feb_01_1141,CategoryLocalizer,2021.2.3,59.94995377874185,
140.0,140.8,2,0.75,Stimuli\ImageFiles-Set1\Bodies\Bodies_Waving_00001.png,0,0,0,234,234,234,,,,,,,,,,,,,140.02410059999966,0.02410059999965597,None,173.50137050000012,173.50137050000012,173.50137050000012,173.50137050000012,173.50137050000012,173.50137050000012,173.50137050000012,173.50137050000012,,001,P008,2025_Feb_01_1141,CategoryLocalizer,2021.2.3,59.94995377874185,
140.8,141.0,5,0.0,Stimuli\Blank.png,0,0,0,235,235,235,,,,,,,,,,,,,140.80796849999933,0.00796849999932192,None,174.28540109999994,174.28540109999994,174.28540109999994,174.28540109999994,174.28540109999994,174.28540109999994,174.28540109999994,174.28540109999994,,001,P008,2025_Feb_01_1141,CategoryLocalizer,2021.2.3,59.94995377874185,
141.0,141.8,2,0.75,Stimuli\ImageFiles-Set1\Bodies\Bodies_SittingChair_00007.png,0,0,0,236,236,236,,,,,,,,,,,,,141.0079934000005,0.007993400000486872,None,174.48557160000018,174.48557160000018,174.48557160000018,174.48557160000018,174.48557160000018,174.48557160000018,174.48557160000018,174.48557160000018,,001,P008,2025_Feb_01_1141,CategoryLocalizer,2021.2.3,59.94995377874185,
141.8,142.0,5,0.0,Stimuli\Blank.png,0,0,0,237,237,237,,,,,,,,,,,,,141.80835809999917,0.00835809999915682,None,175.2862782000011,175.2862782000011,175.2862782000011,175.2862782000011,175.2862782000011,175.2862782000011,175.2862782000011,175.2862782000011,,001,P008,2025_Feb_01_1141,CategoryLocalizer,2021.2.3,59.94995377874185,
142.0,142.8,2,0.75,Stimuli\ImageFiles-Set1\Bodies\Bodies_Walking_00006.png,0,0,0,238,238,238,,,,,,,,,,,,,142.00861009999971,0.008610099999714294,None,175.48645849999957,175.48645849999957,175.48645849999957,175.48645849999957,175.48645849999957,175.48645849999957,175.48645849999957,175.48645849999957,,001,P008,2025_Feb_01_1141,CategoryLocalizer,2021.2.3,59.94995377874185,
142.8,143.0,5,0.0,Stimuli\Blank.png,0,0,0,239,239,239,,,,,,,,,,,,,142.80938380000043,0.00938380000042116,None,176.28717230000075,176.28717230000075,176.28717230000075,176.28717230000075,176.28717230000075,176.28717230000075,176.28717230000075,176.28717230000075,,001,P008,2025_Feb_01_1141,CategoryLocalizer,2021.2.3,59.94995377874185,
143.0,143.8,2,0.75,Stimuli\ImageFiles-Set1\Bodies\Bodies_QuadStretch_00003.png,0,0,0,240,240,240,,,,,,,,,,,,,143.00945300000058,0.00945300000057614,None,176.48733960000027,176.48733960000027,176.48733960000027,176.48733960000027,176.48733960000027,176.48733960000027,176.48733960000027,176.48733960000027,,001,P008,2025_Feb_01_1141,CategoryLocalizer,2021.2.3,59.94995377874185,
143.8,144.0,5,0.0,Stimuli\Blank.png,0,0,0,241,241,241,,,,,,,,,,,,,143.81101970000054,0.01101970000053143,None,177.28814500000044,177.28814500000044,177.28814500000044,177.28814500000044,177.28814500000044,177.28814500000044,177.28814500000044,177.28814500000044,,001,P008,2025_Feb_01_1141,CategoryLocalizer,2021.2.3,59.94995377874185,
144.0,144.8,2,0.75,Stimuli\ImageFiles-Set1\Bodies\Bodies_Pushing_00005.png,0,0,0,242,242,242,,,,,,,,,,,,,144.010895899999,0.010895899999013636,None,177.50490610000088,177.50490610000088,177.50490610000088,177.50490610000088,177.50490610000088,177.50490610000088,177.50490610000088,177.50490610000088,,001,P008,2025_Feb_01_1141,CategoryLocalizer,2021.2.3,59.94995377874185,
144.8,145.0,5,0.0,Stimuli\Blank.png,0,0,0,243,243,243,,,,,,,,,,,,,144.82799820000037,0.027998200000354245,None,178.3056231999999,178.3056231999999,178.3056231999999,178.3056231999999,178.3056231999999,178.3056231999999,178.3056231999999,178.3056231999999,,001,P008,2025_Feb_01_1141,CategoryLocalizer,2021.2.3,59.94995377874185,
145.0,145.8,2,0.75,Stimuli\ImageFiles-Set1\Bodies\Bodies_Jumping_00004.png,0,0,0,244,244,244,,,,,,,,,,,,,145.0131597999989,0.0131597999989026,None,178.50579740000103,178.50579740000103,178.50579740000103,178.50579740000103,178.50579740000103,178.50579740000103,178.50579740000103,178.50579740000103,,001,P008,2025_Feb_01_1141,CategoryLocalizer,2021.2.3,59.94995377874185,
145.8,146.0,5,0.0,Stimuli\Blank.png,0,0,0,245,245,245,,,,,,,,,,,,,145.8293838999998,0.029383899999800178,None,179.3065134999997,179.3065134999997,179.3065134999997,179.3065134999997,179.3065134999997,179.3065134999997,179.3065134999997,179.3065134999997,,001,P008,2025_Feb_01_1141,CategoryLocalizer,2021.2.3,59.94995377874185,
146.0,146.8,2,0.75,Stimuli\ImageFiles-Set1\Bodies\Bodies_SittingChair_00005.png,0,0,0,246,246,246,,,,,,,,,,,,,146.0120891000006,0.012089100000594044,None,179.49000660000092,179.49000660000092,179.49000660000092,179.49000660000092,179.49000660000092,179.49000660000092,179.49000660000092,179.49000660000092,,001,P008,2025_Feb_01_1141,CategoryLocalizer,2021.2.3,59.94995377874185,
146.8,147.0,5,0.0,Stimuli\Blank.png,0,0,0,247,247,247,,,,,,,,,,,,,146.81380539999918,0.013805399999171186,None,180.29073009999956,180.29073009999956,180.29073009999956,180.29073009999956,180.29073009999956,180.29073009999956,180.29073009999956,180.29073009999956,,001,P008,2025_Feb_01_1141,CategoryLocalizer,2021.2.3,59.94995377874185,
147.0,147.8,2,0.75,Stimuli\ImageFiles-Set1\Bodies\Bodies_SittingChair_00005.png,1,1,0,248,248,248,,,,,,,,,,,,,147.01373020000028,0.013730200000281911,2,180.50756990000082,180.50756990000082,180.50756990000082,180.50756990000082,180.50756990000082,180.50756990000082,180.50756990000082,180.50756990000082,0.38152719999925466,001,P008,2025_Feb_01_1141,CategoryLocalizer,2021.2.3,59.94995377874185,
147.8,148.0,5,0.0,Stimuli\Blank.png,0,0,0,249,249,249,,,,,,,,,,,,,147.83116060000066,0.031160600000646355,None,181.30828760000077,181.30828760000077,181.30828760000077,181.30828760000077,181.30828760000077,181.30828760000077,181.30828760000077,181.30828760000077,,001,P008,2025_Feb_01_1141,CategoryLocalizer,2021.2.3,59.94995377874185,
148.0,148.8,2,0.75,Stimuli\ImageFiles-Set1\Bodies\Bodies_CobraPose_00001.png,0,0,0,250,250,250,,,,,,,,,,,,,148.0146781000003,0.014678100000310224,None,181.49176810000063,181.49176810000063,181.49176810000063,181.49176810000063,181.49176810000063,181.49176810000063,181.49176810000063,181.49176810000063,,001,P008,2025_Feb_01_1141,CategoryLocalizer,2021.2.3,59.94995377874185,
148.8,149.0,5,0.0,Stimuli\Blank.png,0,0,0,251,251,251,,,,,,,,,,,,,148.81457349999982,0.014573499999812611,None,182.29248110000117,182.29248110000117,182.29248110000117,182.29248110000117,182.29248110000117,182.29248110000117,182.29248110000117,182.29248110000117,,001,P008,2025_Feb_01_1141,CategoryLocalizer,2021.2.3,59.94995377874185,
149.0,149.8,2,0.75,Stimuli\ImageFiles-Set1\Bodies\Bodies_SittingStretch_00005.png,0,0,0,252,252,252,,,,,,,,,,,,,149.01533799999925,0.015337999999246676,None,182.50936120000006,182.50936120000006,182.50936120000006,182.50936120000006,182.50936120000006,182.50936120000006,182.50936120000006,182.50936120000006,,001,P008,2025_Feb_01_1141,CategoryLocalizer,2021.2.3,59.94995377874185,
149.8,150.0,5,0.0,Stimuli\Blank.png,0,0,0,253,253,253,,,,,,,,,,,,,149.8156727000005,0.015672700000493478,None,183.29336409999996,183.29336409999996,183.29336409999996,183.29336409999996,183.29336409999996,183.29336409999996,183.29336409999996,183.29336409999996,,001,P008,2025_Feb_01_1141,CategoryLocalizer,2021.2.3,59.94995377874185,
150.0,150.8,2,0.75,Stimuli\ImageFiles-Set1\Bodies\Bodies_Standing_00007.png,0,0,0,254,254,254,,,,,,,,,,,,,149.99909350000053,-0.0009064999994734535,None,183.47683210000105,183.47683210000105,183.47683210000105,183.47683210000105,183.47683210000105,183.47683210000105,183.47683210000105,183.47683210000105,,001,P008,2025_Feb_01_1141,CategoryLocalizer,2021.2.3,59.94995377874185,
150.8,151.0,5,0.0,Stimuli\Blank.png,0,0,0,255,255,255,,,,,,,,,,,,,150.79975790000026,-0.00024209999975255414,None,184.27758200000062,184.27758200000062,184.27758200000062,184.27758200000062,184.27758200000062,184.27758200000062,184.27758200000062,184.27758200000062,,001,P008,2025_Feb_01_1141,CategoryLocalizer,2021.2.3,59.94995377874185,
151.0,151.8,2,0.75,Stimuli\ImageFiles-Set1\Bodies\Bodies_Hanging_00006.png,0,0,0,256,256,256,,,,,,,,,,,,,150.99996509999983,-3.49000001733657e-05,None,184.47783320000053,184.47783320000053,184.47783320000053,184.47783320000053,184.47783320000053,184.47783320000053,184.47783320000053,184.47783320000053,,001,P008,2025_Feb_01_1141,CategoryLocalizer,2021.2.3,59.94995377874185,
151.8,152.0,5,0.0,Stimuli\Blank.png,0,0,0,257,257,257,,,,,,,,,,,,,151.80308820000027,0.0030882000002634413,None,185.29510330000085,185.29510330000085,185.29510330000085,185.29510330000085,185.29510330000085,185.29510330000085,185.29510330000085,185.29510330000085,,001,P008,2025_Feb_01_1141,CategoryLocalizer,2021.2.3,59.94995377874185,
152.0,164.0,0,0.0,Stimuli\Blank.png,0,0,0,258,258,258,,,,,,,,,,,,,152.01769409999906,0.01769409999906202,None,185.49531300000126,185.49531300000126,185.49531300000126,185.49531300000126,185.49531300000126,185.49531300000126,185.49531300000126,185.49531300000126,,001,P008,2025_Feb_01_1141,CategoryLocalizer,2021.2.3,59.94995377874185,
164.0,164.8,4,0.75,Stimuli\ImageFiles-Set1\Scenes\Scenes_008.png,0,0,0,259,259,259,,,,,,,,,,,,,164.0119438999991,0.011943899999096175,None,197.50595040000007,197.50595040000007,197.50595040000007,197.50595040000007,197.50595040000007,197.50595040000007,197.50595040000007,197.50595040000007,,001,P008,2025_Feb_01_1141,CategoryLocalizer,2021.2.3,59.94995377874185,
164.8,165.0,5,0.0,Stimuli\Blank.png,0,0,0,260,260,260,,,,,,,,,,,,,164.82883439999932,0.0288343999993117,None,198.30664609999985,198.30664609999985,198.30664609999985,198.30664609999985,198.30664609999985,198.30664609999985,198.30664609999985,198.30664609999985,,001,P008,2025_Feb_01_1141,CategoryLocalizer,2021.2.3,59.94995377874185,
165.0,165.8,4,0.75,Stimuli\ImageFiles-Set1\Scenes\Scenes_030.png,0,0,0,261,261,261,,,,,,,,,,,,,165.01376379999965,0.013763799999651383,None,198.5068239000011,198.5068239000011,198.5068239000011,198.5068239000011,198.5068239000011,198.5068239000011,198.5068239000011,198.5068239000011,,001,P008,2025_Feb_01_1141,CategoryLocalizer,2021.2.3,59.94995377874185,
165.8,166.0,5,0.0,Stimuli\Blank.png,0,0,0,262,262,262,,,,,,,,,,,,,165.82967169999938,0.02967169999936914,None,199.30752849999953,199.30752849999953,199.30752849999953,199.30752849999953,199.30752849999953,199.30752849999953,199.30752849999953,199.30752849999953,,001,P008,2025_Feb_01_1141,CategoryLocalizer,2021.2.3,59.94995377874185,
166.0,166.8,4,0.75,Stimuli\ImageFiles-Set1\Scenes\Scenes_060.png,0,0,0,263,263,263,,,,,,,,,,,,,166.0135434999993,0.013543499999286723,None,199.50770379999994,199.50770379999994,199.50770379999994,199.50770379999994,199.50770379999994,199.50770379999994,199.50770379999994,199.50770379999994,,001,P008,2025_Feb_01_1141,CategoryLocalizer,2021.2.3,59.94995377874185,
166.8,167.0,5,0.0,Stimuli\Blank.png,0,0,0,264,264,264,,,,,,,,,,,,,166.8317146999998,0.031714699999781715,None,200.30841560000044,200.30841560000044,200.30841560000044,200.30841560000044,200.30841560000044,200.30841560000044,200.30841560000044,200.30841560000044,,001,P008,2025_Feb_01_1141,CategoryLocalizer,2021.2.3,59.94995377874185,
167.0,167.8,4,0.75,Stimuli\ImageFiles-Set1\Scenes\Scenes_028.png,0,0,0,265,265,265,,,,,,,,,,,,,167.01475410000057,0.01475410000057309,None,200.49188230000073,200.49188230000073,200.49188230000073,200.49188230000073,200.49188230000073,200.49188230000073,200.49188230000073,200.49188230000073,,001,P008,2025_Feb_01_1141,CategoryLocalizer,2021.2.3,59.94995377874185,
167.8,168.0,5,0.0,Stimuli\Blank.png,0,0,0,266,266,266,,,,,,,,,,,,,167.81527259999893,0.015272599998922942,None,201.2926124000005,201.2926124000005,201.2926124000005,201.2926124000005,201.2926124000005,201.2926124000005,201.2926124000005,201.2926124000005,,001,P008,2025_Feb_01_1141,CategoryLocalizer,2021.2.3,59.94995377874185,
168.0,168.8,4,0.75,Stimuli\ImageFiles-Set1\Scenes\Scenes_057.png,0,0,0,267,267,267,,,,,,,,,,,,,168.01545819999956,0.01545819999955711,None,201.4927968000011,201.4927968000011,201.4927968000011,201.4927968000011,201.4927968000011,201.4927968000011,201.4927968000011,201.4927968000011,,001,P008,2025_Feb_01_1141,CategoryLocalizer,2021.2.3,59.94995377874185,
168.8,169.0,5,0.0,Stimuli\Blank.png,0,0,0,268,268,268,,,,,,,,,,,,,168.79901280000013,-0.0009871999998836145,None,202.2768253000013,202.2768253000013,202.2768253000013,202.2768253000013,202.2768253000013,202.2768253000013,202.2768253000013,202.2768253000013,,001,P008,2025_Feb_01_1141,CategoryLocalizer,2021.2.3,59.94995377874185,
169.0,169.8,4,0.75,Stimuli\ImageFiles-Set1\Scenes\Scenes_057.png,1,1,0,269,269,269,,,,,,,,,,,,,168.99919670000054,-0.00080329999946116,None,202.47699850000026,202.47699850000026,202.47699850000026,202.47699850000026,202.47699850000026,202.47699850000026,202.47699850000026,202.47699850000026,,001,P008,2025_Feb_01_1141,CategoryLocalizer,2021.2.3,59.94995377874185,
169.8,170.0,5,0.0,Stimuli\Blank.png,0,0,0,270,270,270,,,,,,,,,,,,,169.79990739999994,-9.260000007316194e-05,None,203.27770430000055,203.27770430000055,203.27770430000055,203.27770430000055,203.27770430000055,203.27770430000055,203.27770430000055,203.27770430000055,,001,P008,2025_Feb_01_1141,CategoryLocalizer,2021.2.3,59.94995377874185,
170.0,170.8,4,0.75,Stimuli\ImageFiles-Set1\Scenes\Scenes_023.png,0,0,0,271,271,271,,,,,,,,,,,,,170.00097079999978,0.0009707999997772276,None,203.47788650000075,203.47788650000075,203.47788650000075,203.47788650000075,203.47788650000075,203.47788650000075,203.47788650000075,203.47788650000075,,001,P008,2025_Feb_01_1141,CategoryLocalizer,2021.2.3,59.94995377874185,
170.8,171.0,5,0.0,Stimuli\Blank.png,0,0,0,272,272,272,,,,,,,,,,,,,170.8031706999991,0.0031706999990888107,None,204.29530090000117,204.29530090000117,204.29530090000117,204.29530090000117,204.29530090000117,204.29530090000117,204.29530090000117,204.29530090000117,,001,P008,2025_Feb_01_1141,CategoryLocalizer,2021.2.3,59.94995377874185,
171.0,171.8,4,0.75,Stimuli\ImageFiles-Set1\Scenes\Scenes_046.png,0,0,0,273,273,273,,,,,,,,,,,,,171.01860709999892,0.018607099998916965,None,204.51228489999994,204.51228489999994,204.51228489999994,204.51228489999994,204.51228489999994,204.51228489999994,204.51228489999994,204.51228489999994,,001,P008,2025_Feb_01_1141,CategoryLocalizer,2021.2.3,59.94995377874185,
171.8,172.0,5,0.0,Stimuli\Blank.png,0,0,0,274,274,274,,,,,,,,,,,,,171.81904339999892,0.019043399998906807,None,205.29616440000063,205.29616440000063,205.29616440000063,205.29616440000063,205.29616440000063,205.29616440000063,205.29616440000063,205.29616440000063,,001,P008,2025_Feb_01_1141,CategoryLocalizer,2021.2.3,59.94995377874185,
172.0,172.8,4,0.75,Stimuli\ImageFiles-Set1\Scenes\Scenes_024.png,0,0,0,275,275,275,,,,,,,,,,,,,172.0027874999996,0.002787499999612919,None,205.49633619999986,205.49633619999986,205.49633619999986,205.49633619999986,205.49633619999986,205.49633619999986,205.49633619999986,205.49633619999986,,001,P008,2025_Feb_01_1141,CategoryLocalizer,2021.2.3,59.94995377874185,
172.8,173.0,5,0.0,Stimuli\Blank.png,0,0,0,276,276,276,,,,,,,,,,,,,172.81994739999936,0.01994739999935291,None,206.29704110000057,206.29704110000057,206.29704110000057,206.29704110000057,206.29704110000057,206.29704110000057,206.29704110000057,206.29704110000057,,001,P008,2025_Feb_01_1141,CategoryLocalizer,2021.2.3,59.94995377874185,
173.0,173.8,4,0.75,Stimuli\ImageFiles-Set1\Scenes\Scenes_032.png,0,0,0,277,277,277,,,,,,,,,,,,,173.00325069999963,0.0032506999996257946,None,206.49722910000128,206.49722910000128,206.49722910000128,206.49722910000128,206.49722910000128,206.49722910000128,206.49722910000128,206.49722910000128,,001,P008,2025_Feb_01_1141,CategoryLocalizer,2021.2.3,59.94995377874185,
173.8,174.0,5,0.0,Stimuli\Blank.png,0,0,0,278,278,278,,,,,,,,,,,,,173.82017950000045,0.02017950000043811,None,207.2979266000002,207.2979266000002,207.2979266000002,207.2979266000002,207.2979266000002,207.2979266000002,207.2979266000002,207.2979266000002,,001,P008,2025_Feb_01_1141,CategoryLocalizer,2021.2.3,59.94995377874185,
174.0,174.8,4,0.75,Stimuli\ImageFiles-Set1\Scenes\Scenes_036.png,0,0,0,279,279,279,,,,,,,,,,,,,174.0036216999997,0.003621699999712291,None,207.4814251000007,207.4814251000007,207.4814251000007,207.4814251000007,207.4814251000007,207.4814251000007,207.4814251000007,207.4814251000007,,001,P008,2025_Feb_01_1141,CategoryLocalizer,2021.2.3,59.94995377874185,
174.8,175.0,5,0.0,Stimuli\Blank.png,0,0,0,280,280,280,,,,,,,,,,,,,174.80449839999892,0.004498399998908553,None,208.28213420000066,208.28213420000066,208.28213420000066,208.28213420000066,208.28213420000066,208.28213420000066,208.28213420000066,208.28213420000066,,001,P008,2025_Feb_01_1141,CategoryLocalizer,2021.2.3,59.94995377874185,
175.0,175.8,4,0.75,Stimuli\ImageFiles-Set1\Scenes\Scenes_013.png,0,0,0,281,281,281,,,,,,,,,,,,,175.0045680000003,0.00456800000029034,None,208.49900700000035,208.49900700000035,208.49900700000035,208.49900700000035,208.49900700000035,208.49900700000035,208.49900700000035,208.49900700000035,,001,P008,2025_Feb_01_1141,CategoryLocalizer,2021.2.3,59.94995377874185,
175.8,176.0,5,0.0,Stimuli\Blank.png,0,0,0,282,282,282,,,,,,,,,,,,,175.82461159999912,0.024611599999104783,None,209.31638139999995,209.31638139999995,209.31638139999995,209.31638139999995,209.31638139999995,209.31638139999995,209.31638139999995,209.31638139999995,,001,P008,2025_Feb_01_1141,CategoryLocalizer,2021.2.3,59.94995377874185,
176.0,176.8,4,0.75,Stimuli\ImageFiles-Set1\Scenes\Scenes_059.png,1,1,0,283,283,283,,,,,,,,,,,,,176.02301719999923,0.023017199999230797,None,209.51657429999977,209.51657429999977,209.51657429999977,209.51657429999977,209.51657429999977,209.51657429999977,209.51657429999977,209.51657429999977,,001,P008,2025_Feb_01_1141,CategoryLocalizer,2021.2.3,59.94995377874185,
176.8,177.0,5,0.0,Stimuli\Blank.png,0,0,0,284,284,284,,,,,,,,,,,,,176.82348830000046,0.023488300000451545,None,210.30058910000116,210.30058910000116,210.30058910000116,210.30058910000116,210.30058910000116,210.30058910000116,210.30058910000116,210.30058910000116,,001,P008,2025_Feb_01_1141,CategoryLocalizer,2021.2.3,59.94995377874185,
