eventStartTime,eventEndTime,eventCond,imSize,imFile,repeatedImage,responseEvent,Events.thisRepN,Events.thisTrialN,Events.thisN,Events.thisIndex,Instructions.started,Instructions.stopped,participantReadyResponse.keys,participantReadyResponse.rt,participantReadyResponse.started,participantReadyResponse.stopped,startWaitforTrigger,triggerResponse.keys,triggerResponse.rt,triggerResponse.started,triggerResponse.stopped,globalTimer,actualStartTime,startTimingDiff,participantResponse.keys,participantResponse.started,participantResponse.stopped,image.started,image.stopped,fixationOutside.started,fixationOutside.stopped,fixationInside.started,fixationInside.stopped,participantResponse.rt,session,participant,date,expName,psychopyVersion,frameRate,
,,,,,,,,,,,13.21268450000207,None,1,8.842046699999628,13.21268450000207,None,,,,,,,,,,,,,,,,,,,003,P009,2025_Feb_01_1428,CategoryLocalizer,2021.2.3,59.888810434119286,
,,,,,,,,,,,,,,,,,22.064632500001608,5,15.539833999999246,22.077642000000196,None,,,,,,,,,,,,,,003,P009,2025_Feb_01_1428,CategoryLocalizer,2021.2.3,59.888810434119286,
0.0,12.0,0,0.0,Stimuli\Blank.png,0,0,0,0,0,0,,,,,,,,,,,,37.62880280000172,0.057432599998719525,0.057432599998719525,None,37.70812660000229,None,37.70812660000229,None,37.70812660000229,None,37.70812660000229,None,,003,P009,2025_Feb_01_1428,CategoryLocalizer,2021.2.3,59.888810434119286,
12.0,12.8,1,0.75,Stimuli\ImageFiles-Set1\Objects\Object_Pizza_00001.png,0,0,0,1,1,1,,,,,,,,,,,,,12.010128099998838,0.01012809999883757,None,49.65202770000178,49.65202770000178,49.65202770000178,49.65202770000178,49.65202770000178,49.65202770000178,49.65202770000178,49.65202770000178,,003,P009,2025_Feb_01_1428,CategoryLocalizer,2021.2.3,59.888810434119286,
12.8,13.0,5,0.0,Stimuli\Blank.png,0,0,0,2,2,2,,,,,,,,,,,,,12.809815399999934,0.009815399999933305,None,50.45279860000301,50.45279860000301,50.45279860000301,50.45279860000301,50.45279860000301,50.45279860000301,50.45279860000301,50.45279860000301,,003,P009,2025_Feb_01_1428,CategoryLocalizer,2021.2.3,59.888810434119286,
13.0,13.8,1,0.75,Stimuli\ImageFiles-Set1\Objects\Object_Whistle_00001.png,0,0,0,3,3,3,,,,,,,,,,,,,13.011082299999543,0.011082299999543466,None,50.652919200001634,50.652919200001634,50.652919200001634,50.652919200001634,50.652919200001634,50.652919200001634,50.652919200001634,50.652919200001634,,003,P009,2025_Feb_01_1428,CategoryLocalizer,2021.2.3,59.888810434119286,
13.8,14.0,5,0.0,Stimuli\Blank.png,0,0,0,4,4,4,,,,,,,,,,,,,13.81074179999996,0.010741799999959056,None,51.45361800000319,51.45361800000319,51.45361800000319,51.45361800000319,51.45361800000319,51.45361800000319,51.45361800000319,51.45361800000319,,003,P009,2025_Feb_01_1428,CategoryLocalizer,2021.2.3,59.888810434119286,
14.0,14.8,1,0.75,Stimuli\ImageFiles-Set1\Objects\Object_Lipstick_00001.png,0,0,0,5,5,5,,,,,,,,,,,,,14.011058199997933,0.011058199997933116,None,51.653795700000046,51.653795700000046,51.653795700000046,51.653795700000046,51.653795700000046,51.653795700000046,51.653795700000046,51.653795700000046,,003,P009,2025_Feb_01_1428,CategoryLocalizer,2021.2.3,59.888810434119286,
14.8,15.0,5,0.0,Stimuli\Blank.png,0,0,0,6,6,6,,,,,,,,,,,,,14.81097139999838,0.010971399998378928,None,52.454501600001095,52.454501600001095,52.454501600001095,52.454501600001095,52.454501600001095,52.454501600001095,52.454501600001095,52.454501600001095,,003,P009,2025_Feb_01_1428,CategoryLocalizer,2021.2.3,59.888810434119286,
15.0,15.8,1,0.75,Stimuli\ImageFiles-Set1\Objects\Object_Matches_00001.png,0,0,0,7,7,7,,,,,,,,,,,,,15.011804499998107,0.011804499998106621,None,52.67201170000044,52.67201170000044,52.67201170000044,52.67201170000044,52.67201170000044,52.67201170000044,52.67201170000044,52.67201170000044,,003,P009,2025_Feb_01_1428,CategoryLocalizer,2021.2.3,59.888810434119286,
15.8,16.0,5,0.0,Stimuli\Blank.png,0,0,0,8,8,8,,,,,,,,,,,,,15.831207699997321,0.03120769999732076,None,53.48875940000289,53.48875940000289,53.48875940000289,53.48875940000289,53.48875940000289,53.48875940000289,53.48875940000289,53.48875940000289,,003,P009,2025_Feb_01_1428,CategoryLocalizer,2021.2.3,59.888810434119286,
16.0,16.8,1,0.75,Stimuli\ImageFiles-Set1\Objects\Object_Stroller_00001.png,0,0,0,9,9,9,,,,,,,,,,,,,16.03080769999724,0.03080769999723998,None,53.6889325000011,53.6889325000011,53.6889325000011,53.6889325000011,53.6889325000011,53.6889325000011,53.6889325000011,53.6889325000011,,003,P009,2025_Feb_01_1428,CategoryLocalizer,2021.2.3,59.888810434119286,
16.8,17.0,5,0.0,Stimuli\Blank.png,0,0,0,10,10,10,,,,,,,,,,,,,16.832216299997526,0.03221629999752551,None,54.48963410000215,54.48963410000215,54.48963410000215,54.48963410000215,54.48963410000215,54.48963410000215,54.48963410000215,54.48963410000215,,003,P009,2025_Feb_01_1428,CategoryLocalizer,2021.2.3,59.888810434119286,
17.0,17.8,1,0.75,Stimuli\ImageFiles-Set1\Objects\Object_Pencil_00001.png,0,0,0,11,11,11,,,,,,,,,,,,,17.012866799999756,0.01286679999975604,None,54.65645310000036,54.65645310000036,54.65645310000036,54.65645310000036,54.65645310000036,54.65645310000036,54.65645310000036,54.65645310000036,,003,P009,2025_Feb_01_1428,CategoryLocalizer,2021.2.3,59.888810434119286,
17.8,18.0,5,0.0,Stimuli\Blank.png,0,0,0,12,12,12,,,,,,,,,,,,,17.813801899999817,0.013801899999815959,None,55.45716070000344,55.45716070000344,55.45716070000344,55.45716070000344,55.45716070000344,55.45716070000344,55.45716070000344,55.45716070000344,,003,P009,2025_Feb_01_1428,CategoryLocalizer,2021.2.3,59.888810434119286,
18.0,18.8,1,0.75,Stimuli\ImageFiles-Set1\Objects\Object_Chest_00001.png,0,0,0,13,13,13,,,,,,,,,,,,,18.01474210000015,0.014742100000148639,None,55.67403259999992,55.67403259999992,55.67403259999992,55.67403259999992,55.67403259999992,55.67403259999992,55.67403259999992,55.67403259999992,,003,P009,2025_Feb_01_1428,CategoryLocalizer,2021.2.3,59.888810434119286,
18.8,19.0,5,0.0,Stimuli\Blank.png,0,0,0,14,14,14,,,,,,,,,,,,,18.83187199999884,0.03187199999883816,None,56.47472689999995,56.47472689999995,56.47472689999995,56.47472689999995,56.47472689999995,56.47472689999995,56.47472689999995,56.47472689999995,,003,P009,2025_Feb_01_1428,CategoryLocalizer,2021.2.3,59.888810434119286,
19.0,19.8,1,0.75,Stimuli\ImageFiles-Set1\Objects\Object_Screw_00001.png,0,0,0,15,15,15,,,,,,,,,,,,,19.017422299999453,0.01742229999945266,None,56.67492930000299,56.67492930000299,56.67492930000299,56.67492930000299,56.67492930000299,56.67492930000299,56.67492930000299,56.67492930000299,,003,P009,2025_Feb_01_1428,CategoryLocalizer,2021.2.3,59.888810434119286,
19.8,20.0,5,0.0,Stimuli\Blank.png,0,0,0,16,16,16,,,,,,,,,,,,,19.815985499997623,0.015985499997622554,None,57.45893060000162,57.45893060000162,57.45893060000162,57.45893060000162,57.45893060000162,57.45893060000162,57.45893060000162,57.45893060000162,,003,P009,2025_Feb_01_1428,CategoryLocalizer,2021.2.3,59.888810434119286,
20.0,20.8,1,0.75,Stimuli\ImageFiles-Set1\Objects\Object_Screw_00001.png,1,1,0,17,17,17,,,,,,,,,,,,,20.00081759999739,0.0008175999973900616,1,57.6591118000033,57.6591118000033,57.6591118000033,57.6591118000033,57.6591118000033,57.6591118000033,57.6591118000033,57.6591118000033,0.5303471000006539,003,P009,2025_Feb_01_1428,CategoryLocalizer,2021.2.3,59.888810434119286,
20.8,21.0,5,0.0,Stimuli\Blank.png,0,0,0,18,18,18,,,,,,,,,,,,,20.817281999999977,0.017281999999976705,None,58.459785800001555,58.459785800001555,58.459785800001555,58.459785800001555,58.459785800001555,58.459785800001555,58.459785800001555,58.459785800001555,,003,P009,2025_Feb_01_1428,CategoryLocalizer,2021.2.3,59.888810434119286,
21.0,21.8,1,0.75,Stimuli\ImageFiles-Set1\Objects\Object_Box_00001.png,0,0,0,19,19,19,,,,,,,,,,,,,21.000460999999632,0.00046099999963189475,None,58.643307000002096,58.643307000002096,58.643307000002096,58.643307000002096,58.643307000002096,58.643307000002096,58.643307000002096,58.643307000002096,,003,P009,2025_Feb_01_1428,CategoryLocalizer,2021.2.3,59.888810434119286,
21.8,22.0,5,0.0,Stimuli\Blank.png,0,0,0,20,20,20,,,,,,,,,,,,,21.80153099999734,0.0015309999973389665,None,59.4440244000034,59.4440244000034,59.4440244000034,59.4440244000034,59.4440244000034,59.4440244000034,59.4440244000034,59.4440244000034,,003,P009,2025_Feb_01_1428,CategoryLocalizer,2021.2.3,59.888810434119286,
22.0,22.8,1,0.75,Stimuli\ImageFiles-Set1\Objects\Object_Book_00001.png,0,0,0,21,21,21,,,,,,,,,,,,,22.00152689999959,0.0015268999995896593,None,59.64415600000211,59.64415600000211,59.64415600000211,59.64415600000211,59.64415600000211,59.64415600000211,59.64415600000211,59.64415600000211,,003,P009,2025_Feb_01_1428,CategoryLocalizer,2021.2.3,59.888810434119286,
22.8,23.0,5,0.0,Stimuli\Blank.png,0,0,0,22,22,22,,,,,,,,,,,,,22.802279999999882,0.00227999999988171,None,60.44487440000012,60.44487440000012,60.44487440000012,60.44487440000012,60.44487440000012,60.44487440000012,60.44487440000012,60.44487440000012,,003,P009,2025_Feb_01_1428,CategoryLocalizer,2021.2.3,59.888810434119286,
23.0,23.8,1,0.75,Stimuli\ImageFiles-Set1\Objects\Object_Motorcycle_00001.png,0,0,0,23,23,23,,,,,,,,,,,,,23.00228629999765,0.0022862999976496212,None,60.645079500001884,60.645079500001884,60.645079500001884,60.645079500001884,60.645079500001884,60.645079500001884,60.645079500001884,60.645079500001884,,003,P009,2025_Feb_01_1428,CategoryLocalizer,2021.2.3,59.888810434119286,
23.8,24.0,5,0.0,Stimuli\Blank.png,0,0,0,24,24,24,,,,,,,,,,,,,23.80290679999962,0.0029067999996179594,None,61.4457859000031,61.4457859000031,61.4457859000031,61.4457859000031,61.4457859000031,61.4457859000031,61.4457859000031,61.4457859000031,,003,P009,2025_Feb_01_1428,CategoryLocalizer,2021.2.3,59.888810434119286,
24.0,24.8,1,0.75,Stimuli\ImageFiles-Set1\Objects\Object_Shirt_00001.png,0,0,0,25,25,25,,,,,,,,,,,,,24.00260509999862,0.0026050999986182433,None,61.64597810000123,61.64597810000123,61.64597810000123,61.64597810000123,61.64597810000123,61.64597810000123,61.64597810000123,61.64597810000123,,003,P009,2025_Feb_01_1428,CategoryLocalizer,2021.2.3,59.888810434119286,
24.8,25.0,5,0.0,Stimuli\Blank.png,0,0,0,26,26,26,,,,,,,,,,,,,24.803104700000404,0.0031047000004029712,None,62.44667920000211,62.44667920000211,62.44667920000211,62.44667920000211,62.44667920000211,62.44667920000211,62.44667920000211,62.44667920000211,,003,P009,2025_Feb_01_1428,CategoryLocalizer,2021.2.3,59.888810434119286,
25.0,25.8,1,0.75,Stimuli\ImageFiles-Set1\Objects\Object_FileFolder_00001.png,0,0,0,27,27,27,,,,,,,,,,,,,25.006010199998855,0.0060101999988546595,None,62.663541100002476,62.663541100002476,62.663541100002476,62.663541100002476,62.663541100002476,62.663541100002476,62.663541100002476,62.663541100002476,,003,P009,2025_Feb_01_1428,CategoryLocalizer,2021.2.3,59.888810434119286,
25.8,26.0,5,0.0,Stimuli\Blank.png,0,0,0,28,28,28,,,,,,,,,,,,,25.821708699997544,0.02170869999754288,None,63.46426520000023,63.46426520000023,63.46426520000023,63.46426520000023,63.46426520000023,63.46426520000023,63.46426520000023,63.46426520000023,,003,P009,2025_Feb_01_1428,CategoryLocalizer,2021.2.3,59.888810434119286,
26.0,26.8,1,0.75,Stimuli\ImageFiles-Set1\Objects\Object_Bench_00001.png,0,0,0,29,29,29,,,,,,,,,,,,,26.005625699999655,0.005625699999654898,None,63.647742400000425,63.647742400000425,63.647742400000425,63.647742400000425,63.647742400000425,63.647742400000425,63.647742400000425,63.647742400000425,,003,P009,2025_Feb_01_1428,CategoryLocalizer,2021.2.3,59.888810434119286,
26.8,27.0,5,0.0,Stimuli\Blank.png,0,0,0,30,30,30,,,,,,,,,,,,,26.80490319999808,0.004903199998079089,None,64.44849350000004,64.44849350000004,64.44849350000004,64.44849350000004,64.44849350000004,64.44849350000004,64.44849350000004,64.44849350000004,,003,P009,2025_Feb_01_1428,CategoryLocalizer,2021.2.3,59.888810434119286,
27.0,27.8,1,0.75,Stimuli\ImageFiles-Set1\Objects\Object_PepperShaker_00001.png,0,0,0,31,31,31,,,,,,,,,,,,,27.006572700000106,0.006572700000106124,None,64.66531610000311,64.66531610000311,64.66531610000311,64.66531610000311,64.66531610000311,64.66531610000311,64.66531610000311,64.66531610000311,,003,P009,2025_Feb_01_1428,CategoryLocalizer,2021.2.3,59.888810434119286,
27.8,28.0,5,0.0,Stimuli\Blank.png,0,0,0,32,32,32,,,,,,,,,,,,,27.82318149999992,0.02318149999991803,None,65.46601030000238,65.46601030000238,65.46601030000238,65.46601030000238,65.46601030000238,65.46601030000238,65.46601030000238,65.46601030000238,,003,P009,2025_Feb_01_1428,CategoryLocalizer,2021.2.3,59.888810434119286,
28.0,28.8,2,0.75,Stimuli\ImageFiles-Set1\Bodies\Bodies_Standing_00001.png,0,0,0,33,33,33,,,,,,,,,,,,,28.00650979999773,0.006509799997729715,None,65.66620360000161,65.66620360000161,65.66620360000161,65.66620360000161,65.66620360000161,65.66620360000161,65.66620360000161,65.66620360000161,,003,P009,2025_Feb_01_1428,CategoryLocalizer,2021.2.3,59.888810434119286,
28.8,29.0,5,0.0,Stimuli\Blank.png,0,0,0,34,34,34,,,,,,,,,,,,,28.823334699998668,0.02333469999866722,None,66.46691550000105,66.46691550000105,66.46691550000105,66.46691550000105,66.46691550000105,66.46691550000105,66.46691550000105,66.46691550000105,,003,P009,2025_Feb_01_1428,CategoryLocalizer,2021.2.3,59.888810434119286,
29.0,29.8,2,0.75,Stimuli\ImageFiles-Set1\Bodies\Bodies_Punching_00003.png,0,0,0,35,35,35,,,,,,,,,,,,,29.006920399999217,0.006920399999216897,None,66.65039100000286,66.65039100000286,66.65039100000286,66.65039100000286,66.65039100000286,66.65039100000286,66.65039100000286,66.65039100000286,,003,P009,2025_Feb_01_1428,CategoryLocalizer,2021.2.3,59.888810434119286,
29.8,30.0,5,0.0,Stimuli\Blank.png,0,0,0,36,36,36,,,,,,,,,,,,,29.808336599999166,0.008336599999164918,None,67.45109850000154,67.45109850000154,67.45109850000154,67.45109850000154,67.45109850000154,67.45109850000154,67.45109850000154,67.45109850000154,,003,P009,2025_Feb_01_1428,CategoryLocalizer,2021.2.3,59.888810434119286,
30.0,30.8,2,0.75,Stimuli\ImageFiles-Set1\Bodies\Bodies_CobraPose_00003.png,0,0,0,37,37,37,,,,,,,,,,,,,30.008367200000066,0.008367200000066077,None,67.65128280000135,67.65128280000135,67.65128280000135,67.65128280000135,67.65128280000135,67.65128280000135,67.65128280000135,67.65128280000135,,003,P009,2025_Feb_01_1428,CategoryLocalizer,2021.2.3,59.888810434119286,
30.8,31.0,5,0.0,Stimuli\Blank.png,0,0,0,38,38,38,,,,,,,,,,,,,30.809328499999538,0.009328499999536888,None,68.45199780000257,68.45199780000257,68.45199780000257,68.45199780000257,68.45199780000257,68.45199780000257,68.45199780000257,68.45199780000257,,003,P009,2025_Feb_01_1428,CategoryLocalizer,2021.2.3,59.888810434119286,
31.0,31.8,2,0.75,Stimuli\ImageFiles-Set1\Bodies\Bodies_SittingFloor_00007.png,0,0,0,39,39,39,,,,,,,,,,,,,31.011232900000323,0.011232900000322843,None,68.66884380000192,68.66884380000192,68.66884380000192,68.66884380000192,68.66884380000192,68.66884380000192,68.66884380000192,68.66884380000192,,003,P009,2025_Feb_01_1428,CategoryLocalizer,2021.2.3,59.888810434119286,
31.8,32.0,5,0.0,Stimuli\Blank.png,0,0,0,40,40,40,,,,,,,,,,,,,31.827021799999784,0.02702179999978327,None,69.46956590000264,69.46956590000264,69.46956590000264,69.46956590000264,69.46956590000264,69.46956590000264,69.46956590000264,69.46956590000264,,003,P009,2025_Feb_01_1428,CategoryLocalizer,2021.2.3,59.888810434119286,
32.0,32.8,2,0.75,Stimuli\ImageFiles-Set1\Bodies\Bodies_Walking_00006.png,0,0,0,41,41,41,,,,,,,,,,,,,32.00991179999983,0.009911799999827053,None,69.65304930000275,69.65304930000275,69.65304930000275,69.65304930000275,69.65304930000275,69.65304930000275,69.65304930000275,69.65304930000275,,003,P009,2025_Feb_01_1428,CategoryLocalizer,2021.2.3,59.888810434119286,
32.8,33.0,5,0.0,Stimuli\Blank.png,0,0,0,42,42,42,,,,,,,,,,,,,32.81084170000031,0.010841700000312926,None,70.45377330000338,70.45377330000338,70.45377330000338,70.45377330000338,70.45377330000338,70.45377330000338,70.45377330000338,70.45377330000338,,003,P009,2025_Feb_01_1428,CategoryLocalizer,2021.2.3,59.888810434119286,
33.0,33.8,2,0.75,Stimuli\ImageFiles-Set1\Bodies\Bodies_Walking_00006.png,1,1,0,43,43,43,,,,,,,,,,,,,33.01109609999912,0.011096099999122089,1,70.6539456999999,70.6539456999999,70.6539456999999,70.6539456999999,70.6539456999999,70.6539456999999,70.6539456999999,70.6539456999999,0.4445111999993969,003,P009,2025_Feb_01_1428,CategoryLocalizer,2021.2.3,59.888810434119286,
33.8,34.0,5,0.0,Stimuli\Blank.png,0,0,0,44,44,44,,,,,,,,,,,,,33.81248879999839,0.012488799998394029,None,71.4546431000017,71.4546431000017,71.4546431000017,71.4546431000017,71.4546431000017,71.4546431000017,71.4546431000017,71.4546431000017,,003,P009,2025_Feb_01_1428,CategoryLocalizer,2021.2.3,59.888810434119286,
34.0,34.8,2,0.75,Stimuli\ImageFiles-Set1\Bodies\Bodies_QuadStretch_00001.png,0,0,0,45,45,45,,,,,,,,,,,,,34.01180799999929,0.011807999999291496,None,71.65482180000254,71.65482180000254,71.65482180000254,71.65482180000254,71.65482180000254,71.65482180000254,71.65482180000254,71.65482180000254,,003,P009,2025_Feb_01_1428,CategoryLocalizer,2021.2.3,59.888810434119286,
34.8,35.0,5,0.0,Stimuli\Blank.png,0,0,0,46,46,46,,,,,,,,,,,,,34.81197880000036,0.011978800000363776,None,72.45549180000307,72.45549180000307,72.45549180000307,72.45549180000307,72.45549180000307,72.45549180000307,72.45549180000307,72.45549180000307,,003,P009,2025_Feb_01_1428,CategoryLocalizer,2021.2.3,59.888810434119286,
35.0,35.8,2,0.75,Stimuli\ImageFiles-Set1\Bodies\Bodies_Crawling_00006.png,0,0,0,47,47,47,,,,,,,,,,,,,35.0126812999988,0.012681299998803297,None,72.67241640000066,72.67241640000066,72.67241640000066,72.67241640000066,72.67241640000066,72.67241640000066,72.67241640000066,72.67241640000066,,003,P009,2025_Feb_01_1428,CategoryLocalizer,2021.2.3,59.888810434119286,
35.8,36.0,5,0.0,Stimuli\Blank.png,0,0,0,48,48,48,,,,,,,,,,,,,35.83187909999833,0.03187909999833494,None,73.48978110000098,73.48978110000098,73.48978110000098,73.48978110000098,73.48978110000098,73.48978110000098,73.48978110000098,73.48978110000098,,003,P009,2025_Feb_01_1428,CategoryLocalizer,2021.2.3,59.888810434119286,
36.0,36.8,2,0.75,Stimuli\ImageFiles-Set1\Bodies\Bodies_Running_00006.png,0,0,0,49,49,49,,,,,,,,,,,,,36.03194000000076,0.03194000000075903,None,73.68995890000224,73.68995890000224,73.68995890000224,73.68995890000224,73.68995890000224,73.68995890000224,73.68995890000224,73.68995890000224,,003,P009,2025_Feb_01_1428,CategoryLocalizer,2021.2.3,59.888810434119286,
36.8,37.0,5,0.0,Stimuli\Blank.png,0,0,0,50,50,50,,,,,,,,,,,,,36.81795079999938,0.017950799999383094,None,74.47399090000181,74.47399090000181,74.47399090000181,74.47399090000181,74.47399090000181,74.47399090000181,74.47399090000181,74.47399090000181,,003,P009,2025_Feb_01_1428,CategoryLocalizer,2021.2.3,59.888810434119286,
37.0,37.8,2,0.75,Stimuli\ImageFiles-Set1\Bodies\Bodies_Waving_00005.png,0,0,0,51,51,51,,,,,,,,,,,,,37.015745900000184,0.01574590000018361,None,74.67417380000188,74.67417380000188,74.67417380000188,74.67417380000188,74.67417380000188,74.67417380000188,74.67417380000188,74.67417380000188,,003,P009,2025_Feb_01_1428,CategoryLocalizer,2021.2.3,59.888810434119286,
37.8,38.0,5,0.0,Stimuli\Blank.png,0,0,0,52,52,52,,,,,,,,,,,,,37.815283299998555,0.015283299998557709,None,75.4581947000006,75.4581947000006,75.4581947000006,75.4581947000006,75.4581947000006,75.4581947000006,75.4581947000006,75.4581947000006,,003,P009,2025_Feb_01_1428,CategoryLocalizer,2021.2.3,59.888810434119286,
38.0,38.8,2,0.75,Stimuli\ImageFiles-Set1\Bodies\Bodies_Waving_00003.png,0,0,0,53,53,53,,,,,,,,,,,,,38.014967699997214,0.014967699997214368,None,75.65836470000067,75.65836470000067,75.65836470000067,75.65836470000067,75.65836470000067,75.65836470000067,75.65836470000067,75.65836470000067,,003,P009,2025_Feb_01_1428,CategoryLocalizer,2021.2.3,59.888810434119286,
38.8,39.0,5,0.0,Stimuli\Blank.png,0,0,0,54,54,54,,,,,,,,,,,,,38.801075199997285,0.0010751999972882231,None,76.45908490000147,76.45908490000147,76.45908490000147,76.45908490000147,76.45908490000147,76.45908490000147,76.45908490000147,76.45908490000147,,003,P009,2025_Feb_01_1428,CategoryLocalizer,2021.2.3,59.888810434119286,
39.0,39.8,2,0.75,Stimuli\ImageFiles-Set1\Bodies\Bodies_Hanging_00006.png,1,1,0,55,55,55,,,,,,,,,,,,,39.016164599997865,0.01616459999786457,None,76.65928460000214,76.65928460000214,76.65928460000214,76.65928460000214,76.65928460000214,76.65928460000214,76.65928460000214,76.65928460000214,,003,P009,2025_Feb_01_1428,CategoryLocalizer,2021.2.3,59.888810434119286,
39.8,40.0,5,0.0,Stimuli\Blank.png,0,0,0,56,56,56,,,,,,,,,,,,,39.80036209999889,0.00036209999889535993,None,77.44328090000272,77.44328090000272,77.44328090000272,77.44328090000272,77.44328090000272,77.44328090000272,77.44328090000272,77.44328090000272,,003,P009,2025_Feb_01_1428,CategoryLocalizer,2021.2.3,59.888810434119286,
40.0,40.8,2,0.75,Stimuli\ImageFiles-Set1\Bodies\Bodies_DownwardDog_00003.png,0,0,0,57,57,57,,,,,,,,,,,,,39.99990009999965,-9.990000035031699e-05,None,77.64344510000228,77.64344510000228,77.64344510000228,77.64344510000228,77.64344510000228,77.64344510000228,77.64344510000228,77.64344510000228,,003,P009,2025_Feb_01_1428,CategoryLocalizer,2021.2.3,59.888810434119286,
40.8,41.0,5,0.0,Stimuli\Blank.png,0,0,0,58,58,58,,,,,,,,,,,,,40.800717399997666,0.0007173999976686218,None,78.44415760000265,78.44415760000265,78.44415760000265,78.44415760000265,78.44415760000265,78.44415760000265,78.44415760000265,78.44415760000265,,003,P009,2025_Feb_01_1428,CategoryLocalizer,2021.2.3,59.888810434119286,
41.0,41.8,2,0.75,Stimuli\ImageFiles-Set1\Bodies\Bodies_DownwardDog_00003.png,0,0,0,59,59,59,,,,,,,,,,,,,41.001677699998254,0.0016776999982539564,1,78.64433120000103,78.64433120000103,78.64433120000103,78.64433120000103,78.64433120000103,78.64433120000103,78.64433120000103,78.64433120000103,0.6145993999998609,003,P009,2025_Feb_01_1428,CategoryLocalizer,2021.2.3,59.888810434119286,
41.8,42.0,5,0.0,Stimuli\Blank.png,0,0,0,60,60,60,,,,,,,,,,,,,41.80167369999981,0.0016736999998130386,None,79.44504560000132,79.44504560000132,79.44504560000132,79.44504560000132,79.44504560000132,79.44504560000132,79.44504560000132,79.44504560000132,,003,P009,2025_Feb_01_1428,CategoryLocalizer,2021.2.3,59.888810434119286,
42.0,42.8,2,0.75,Stimuli\ImageFiles-Set1\Bodies\Bodies_Lunging_00003.png,0,0,0,61,61,61,,,,,,,,,,,,,42.00266179999744,0.0026617999974405393,None,79.64521740000055,79.64521740000055,79.64521740000055,79.64521740000055,79.64521740000055,79.64521740000055,79.64521740000055,79.64521740000055,,003,P009,2025_Feb_01_1428,CategoryLocalizer,2021.2.3,59.888810434119286,
42.8,43.0,5,0.0,Stimuli\Blank.png,0,0,0,62,62,62,,,,,,,,,,,,,42.80276500000036,0.002765000000366058,None,80.44593640000312,80.44593640000312,80.44593640000312,80.44593640000312,80.44593640000312,80.44593640000312,80.44593640000312,80.44593640000312,,003,P009,2025_Feb_01_1428,CategoryLocalizer,2021.2.3,59.888810434119286,
43.0,43.8,2,0.75,Stimuli\ImageFiles-Set1\Bodies\Bodies_Hanging_00002.png,0,0,0,63,63,63,,,,,,,,,,,,,43.00325349999912,0.003253499999118503,None,80.64618950000295,80.64618950000295,80.64618950000295,80.64618950000295,80.64618950000295,80.64618950000295,80.64618950000295,80.64618950000295,,003,P009,2025_Feb_01_1428,CategoryLocalizer,2021.2.3,59.888810434119286,
43.8,44.0,5,0.0,Stimuli\Blank.png,0,0,0,64,64,64,,,,,,,,,,,,,43.803269699998054,0.0032696999980572627,None,81.44682990000001,81.44682990000001,81.44682990000001,81.44682990000001,81.44682990000001,81.44682990000001,81.44682990000001,81.44682990000001,,003,P009,2025_Feb_01_1428,CategoryLocalizer,2021.2.3,59.888810434119286,
44.0,44.8,3,0.75,Stimuli\ImageFiles-Set1\Faces\Face_00119.png,0,0,0,65,65,65,,,,,,,,,,,,,44.003482000000076,0.0034820000000763685,None,81.64695420000135,81.64695420000135,81.64695420000135,81.64695420000135,81.64695420000135,81.64695420000135,81.64695420000135,81.64695420000135,,003,P009,2025_Feb_01_1428,CategoryLocalizer,2021.2.3,59.888810434119286,
44.8,45.0,5,0.0,Stimuli\Blank.png,0,0,0,66,66,66,,,,,,,,,,,,,44.80560029999833,0.00560029999833489,None,82.447711300003,82.447711300003,82.447711300003,82.447711300003,82.447711300003,82.447711300003,82.447711300003,82.447711300003,,003,P009,2025_Feb_01_1428,CategoryLocalizer,2021.2.3,59.888810434119286,
45.0,45.8,3,0.75,Stimuli\ImageFiles-Set1\Faces\Face_00119.png,1,1,0,67,67,67,,,,,,,,,,,,,45.00712769999882,0.007127699998818571,1,82.66457650000302,82.66457650000302,82.66457650000302,82.66457650000302,82.66457650000302,82.66457650000302,82.66457650000302,82.66457650000302,0.4111144000016793,003,P009,2025_Feb_01_1428,CategoryLocalizer,2021.2.3,59.888810434119286,
45.8,46.0,5,0.0,Stimuli\Blank.png,0,0,0,68,68,68,,,,,,,,,,,,,45.82189799999833,0.02189799999833042,None,83.46528690000196,83.46528690000196,83.46528690000196,83.46528690000196,83.46528690000196,83.46528690000196,83.46528690000196,83.46528690000196,,003,P009,2025_Feb_01_1428,CategoryLocalizer,2021.2.3,59.888810434119286,
46.0,46.8,3,0.75,Stimuli\ImageFiles-Set1\Faces\Face_00043.png,0,0,0,69,69,69,,,,,,,,,,,,,46.00550409999778,0.005504099997779122,None,83.648758000003,83.648758000003,83.648758000003,83.648758000003,83.648758000003,83.648758000003,83.648758000003,83.648758000003,,003,P009,2025_Feb_01_1428,CategoryLocalizer,2021.2.3,59.888810434119286,
46.8,47.0,5,0.0,Stimuli\Blank.png,0,0,0,70,70,70,,,,,,,,,,,,,46.806066099998134,0.006066099998136565,None,84.44946800000253,84.44946800000253,84.44946800000253,84.44946800000253,84.44946800000253,84.44946800000253,84.44946800000253,84.44946800000253,,003,P009,2025_Feb_01_1428,CategoryLocalizer,2021.2.3,59.888810434119286,
47.0,47.8,3,0.75,Stimuli\ImageFiles-Set1\Faces\Face_00035.png,0,0,0,71,71,71,,,,,,,,,,,,,47.00629629999821,0.006296299998211907,None,84.64967400000023,84.64967400000023,84.64967400000023,84.64967400000023,84.64967400000023,84.64967400000023,84.64967400000023,84.64967400000023,,003,P009,2025_Feb_01_1428,CategoryLocalizer,2021.2.3,59.888810434119286,
47.8,48.0,5,0.0,Stimuli\Blank.png,0,0,0,72,72,72,,,,,,,,,,,,,47.80704859999969,0.0070485999996918736,None,85.45036280000204,85.45036280000204,85.45036280000204,85.45036280000204,85.45036280000204,85.45036280000204,85.45036280000204,85.45036280000204,,003,P009,2025_Feb_01_1428,CategoryLocalizer,2021.2.3,59.888810434119286,
48.0,48.8,3,0.75,Stimuli\ImageFiles-Set1\Faces\Face_00115.png,0,0,0,73,73,73,,,,,,,,,,,,,48.007676599998376,0.007676599998376332,None,85.66721640000105,85.66721640000105,85.66721640000105,85.66721640000105,85.66721640000105,85.66721640000105,85.66721640000105,85.66721640000105,,003,P009,2025_Feb_01_1428,CategoryLocalizer,2021.2.3,59.888810434119286,
48.8,49.0,5,0.0,Stimuli\Blank.png,0,0,0,74,74,74,,,,,,,,,,,,,48.82668719999856,0.026687199998562505,None,86.485584500002,86.485584500002,86.485584500002,86.485584500002,86.485584500002,86.485584500002,86.485584500002,86.485584500002,,003,P009,2025_Feb_01_1428,CategoryLocalizer,2021.2.3,59.888810434119286,
49.0,49.8,3,0.75,Stimuli\ImageFiles-Set1\Faces\Face_00053.png,0,0,0,75,75,75,,,,,,,,,,,,,49.025741299999936,0.025741299999936018,None,86.68479560000196,86.68479560000196,86.68479560000196,86.68479560000196,86.68479560000196,86.68479560000196,86.68479560000196,86.68479560000196,,003,P009,2025_Feb_01_1428,CategoryLocalizer,2021.2.3,59.888810434119286,
49.8,50.0,5,0.0,Stimuli\Blank.png,0,0,0,76,76,76,,,,,,,,,,,,,49.82607889999781,0.02607889999781321,None,87.46891400000095,87.46891400000095,87.46891400000095,87.46891400000095,87.46891400000095,87.46891400000095,87.46891400000095,87.46891400000095,,003,P009,2025_Feb_01_1428,CategoryLocalizer,2021.2.3,59.888810434119286,
50.0,50.8,3,0.75,Stimuli\ImageFiles-Set1\Faces\Face_00093.png,0,0,0,77,77,77,,,,,,,,,,,,,50.010160499998165,0.010160499998164596,None,87.66898420000143,87.66898420000143,87.66898420000143,87.66898420000143,87.66898420000143,87.66898420000143,87.66898420000143,87.66898420000143,,003,P009,2025_Feb_01_1428,CategoryLocalizer,2021.2.3,59.888810434119286,
50.8,51.0,5,0.0,Stimuli\Blank.png,0,0,0,78,78,78,,,,,,,,,,,,,50.82695489999969,0.02695489999969425,None,88.46970580000198,88.46970580000198,88.46970580000198,88.46970580000198,88.46970580000198,88.46970580000198,88.46970580000198,88.46970580000198,,003,P009,2025_Feb_01_1428,CategoryLocalizer,2021.2.3,59.888810434119286,
51.0,51.8,3,0.75,Stimuli\ImageFiles-Set1\Faces\Face_00049.png,0,0,0,79,79,79,,,,,,,,,,,,,51.01046949999727,0.01046949999727076,None,88.67052510000212,88.67052510000212,88.67052510000212,88.67052510000212,88.67052510000212,88.67052510000212,88.67052510000212,88.67052510000212,,003,P009,2025_Feb_01_1428,CategoryLocalizer,2021.2.3,59.888810434119286,
51.8,52.0,5,0.0,Stimuli\Blank.png,0,0,0,80,80,80,,,,,,,,,,,,,51.82707680000021,0.027076800000216394,None,89.47059140000056,89.47059140000056,89.47059140000056,89.47059140000056,89.47059140000056,89.47059140000056,89.47059140000056,89.47059140000056,,003,P009,2025_Feb_01_1428,CategoryLocalizer,2021.2.3,59.888810434119286,
52.0,52.8,3,0.75,Stimuli\ImageFiles-Set1\Faces\Face_00055.png,0,0,0,81,81,81,,,,,,,,,,,,,52.011974199998804,0.01197419999880367,None,89.65407460000279,89.65407460000279,89.65407460000279,89.65407460000279,89.65407460000279,89.65407460000279,89.65407460000279,89.65407460000279,,003,P009,2025_Feb_01_1428,CategoryLocalizer,2021.2.3,59.888810434119286,
52.8,53.0,5,0.0,Stimuli\Blank.png,0,0,0,82,82,82,,,,,,,,,,,,,52.81186600000001,0.011866000000011923,None,90.4547874000018,90.4547874000018,90.4547874000018,90.4547874000018,90.4547874000018,90.4547874000018,90.4547874000018,90.4547874000018,,003,P009,2025_Feb_01_1428,CategoryLocalizer,2021.2.3,59.888810434119286,
53.0,53.8,3,0.75,Stimuli\ImageFiles-Set1\Faces\Face_00005.png,0,0,0,83,83,83,,,,,,,,,,,,,53.01155089999884,0.011550899998837849,None,90.67168870000023,90.67168870000023,90.67168870000023,90.67168870000023,90.67168870000023,90.67168870000023,90.67168870000023,90.67168870000023,,003,P009,2025_Feb_01_1428,CategoryLocalizer,2021.2.3,59.888810434119286,
53.8,54.0,5,0.0,Stimuli\Blank.png,0,0,0,84,84,84,,,,,,,,,,,,,53.83076029999938,0.03076029999938612,None,91.48903820000123,91.48903820000123,91.48903820000123,91.48903820000123,91.48903820000123,91.48903820000123,91.48903820000123,91.48903820000123,,003,P009,2025_Feb_01_1428,CategoryLocalizer,2021.2.3,59.888810434119286,
54.0,54.8,3,0.75,Stimuli\ImageFiles-Set1\Faces\Face_00016.png,1,1,0,85,85,85,,,,,,,,,,,,,54.02976589999889,0.029765899998892564,None,91.6892265000024,91.6892265000024,91.6892265000024,91.6892265000024,91.6892265000024,91.6892265000024,91.6892265000024,91.6892265000024,,003,P009,2025_Feb_01_1428,CategoryLocalizer,2021.2.3,59.888810434119286,
54.8,55.0,5,0.0,Stimuli\Blank.png,0,0,0,86,86,86,,,,,,,,,,,,,54.83093809999991,0.030938099999914925,None,92.4732468000002,92.4732468000002,92.4732468000002,92.4732468000002,92.4732468000002,92.4732468000002,92.4732468000002,92.4732468000002,,003,P009,2025_Feb_01_1428,CategoryLocalizer,2021.2.3,59.888810434119286,
55.0,55.8,3,0.75,Stimuli\ImageFiles-Set1\Faces\Face_00047.png,0,0,0,87,87,87,,,,,,,,,,,,,55.01316980000047,0.013169800000468967,None,92.65673250000327,92.65673250000327,92.65673250000327,92.65673250000327,92.65673250000327,92.65673250000327,92.65673250000327,92.65673250000327,,003,P009,2025_Feb_01_1428,CategoryLocalizer,2021.2.3,59.888810434119286,
55.8,56.0,5,0.0,Stimuli\Blank.png,0,0,0,88,88,88,,,,,,,,,,,,,55.81476549999934,0.014765499999342069,None,93.45743980000043,93.45743980000043,93.45743980000043,93.45743980000043,93.45743980000043,93.45743980000043,93.45743980000043,93.45743980000043,,003,P009,2025_Feb_01_1428,CategoryLocalizer,2021.2.3,59.888810434119286,
56.0,56.8,3,0.75,Stimuli\ImageFiles-Set1\Faces\Face_00047.png,0,0,0,89,89,89,,,,,,,,,,,,,56.015031899998576,0.015031899998575682,1,93.65761760000169,93.65761760000169,93.65761760000169,93.65761760000169,93.65761760000169,93.65761760000169,93.65761760000169,93.65761760000169,0.4049446999997599,003,P009,2025_Feb_01_1428,CategoryLocalizer,2021.2.3,59.888810434119286,
56.8,57.0,5,0.0,Stimuli\Blank.png,0,0,0,90,90,90,,,,,,,,,,,,,56.798939000000246,-0.0010609999997512887,None,94.4417158000033,94.4417158000033,94.4417158000033,94.4417158000033,94.4417158000033,94.4417158000033,94.4417158000033,94.4417158000033,,003,P009,2025_Feb_01_1428,CategoryLocalizer,2021.2.3,59.888810434119286,
57.0,57.8,3,0.75,Stimuli\ImageFiles-Set1\Faces\Face_00051.png,0,0,0,91,91,91,,,,,,,,,,,,,57.00115899999946,0.0011589999994612299,None,94.65850570000111,94.65850570000111,94.65850570000111,94.65850570000111,94.65850570000111,94.65850570000111,94.65850570000111,94.65850570000111,,003,P009,2025_Feb_01_1428,CategoryLocalizer,2021.2.3,59.888810434119286,
57.8,58.0,5,0.0,Stimuli\Blank.png,0,0,0,92,92,92,,,,,,,,,,,,,57.81680149999738,0.016801499997384894,None,95.45922900000005,95.45922900000005,95.45922900000005,95.45922900000005,95.45922900000005,95.45922900000005,95.45922900000005,95.45922900000005,,003,P009,2025_Feb_01_1428,CategoryLocalizer,2021.2.3,59.888810434119286,
58.0,58.8,3,0.75,Stimuli\ImageFiles-Set1\Faces\Face_00107.png,0,0,0,93,93,93,,,,,,,,,,,,,58.00109560000055,0.0010956000005535316,None,95.65936120000333,95.65936120000333,95.65936120000333,95.65936120000333,95.65936120000333,95.65936120000333,95.65936120000333,95.65936120000333,,003,P009,2025_Feb_01_1428,CategoryLocalizer,2021.2.3,59.888810434119286,
58.8,59.0,5,0.0,Stimuli\Blank.png,0,0,0,94,94,94,,,,,,,,,,,,,58.81684619999942,0.01684619999942072,None,96.46008490000168,96.46008490000168,96.46008490000168,96.46008490000168,96.46008490000168,96.46008490000168,96.46008490000168,96.46008490000168,,003,P009,2025_Feb_01_1428,CategoryLocalizer,2021.2.3,59.888810434119286,
59.0,59.8,3,0.75,Stimuli\ImageFiles-Set1\Faces\Face_00101.png,0,0,0,95,95,95,,,,,,,,,,,,,59.00068669999746,0.0006866999974590726,None,96.6602703000026,96.6602703000026,96.6602703000026,96.6602703000026,96.6602703000026,96.6602703000026,96.6602703000026,96.6602703000026,,003,P009,2025_Feb_01_1428,CategoryLocalizer,2021.2.3,59.888810434119286,
59.8,60.0,5,0.0,Stimuli\Blank.png,0,0,0,96,96,96,,,,,,,,,,,,,59.81759149999925,0.01759149999925569,None,97.46098740000161,97.46098740000161,97.46098740000161,97.46098740000161,97.46098740000161,97.46098740000161,97.46098740000161,97.46098740000161,,003,P009,2025_Feb_01_1428,CategoryLocalizer,2021.2.3,59.888810434119286,
60.0,60.8,4,0.75,Stimuli\ImageFiles-Set1\Scenes\Scenes_021.png,0,0,0,97,97,97,,,,,,,,,,,,,60.00173089999953,0.0017308999995293561,None,97.66112870000143,97.66112870000143,97.66112870000143,97.66112870000143,97.66112870000143,97.66112870000143,97.66112870000143,97.66112870000143,,003,P009,2025_Feb_01_1428,CategoryLocalizer,2021.2.3,59.888810434119286,
60.8,61.0,5,0.0,Stimuli\Blank.png,0,0,0,98,98,98,,,,,,,,,,,,,60.819370699999126,0.019370699999129215,None,98.46185310000146,98.46185310000146,98.46185310000146,98.46185310000146,98.46185310000146,98.46185310000146,98.46185310000146,98.46185310000146,,003,P009,2025_Feb_01_1428,CategoryLocalizer,2021.2.3,59.888810434119286,
61.0,61.8,4,0.75,Stimuli\ImageFiles-Set1\Scenes\Scenes_008.png,0,0,0,99,99,99,,,,,,,,,,,,,61.002556899999036,0.0025568999990355223,None,98.6620597000001,98.6620597000001,98.6620597000001,98.6620597000001,98.6620597000001,98.6620597000001,98.6620597000001,98.6620597000001,,003,P009,2025_Feb_01_1428,CategoryLocalizer,2021.2.3,59.888810434119286,
61.8,62.0,5,0.0,Stimuli\Blank.png,0,0,0,100,100,100,,,,,,,,,,,,,61.82106849999764,0.02106849999763938,None,99.47948220000035,99.47948220000035,99.47948220000035,99.47948220000035,99.47948220000035,99.47948220000035,99.47948220000035,99.47948220000035,,003,P009,2025_Feb_01_1428,CategoryLocalizer,2021.2.3,59.888810434119286,
62.0,62.8,4,0.75,Stimuli\ImageFiles-Set1\Scenes\Scenes_004.png,0,0,0,101,101,101,,,,,,,,,,,,,62.01960849999887,0.019608499998867046,None,99.66293030000088,99.66293030000088,99.66293030000088,99.66293030000088,99.66293030000088,99.66293030000088,99.66293030000088,99.66293030000088,,003,P009,2025_Feb_01_1428,CategoryLocalizer,2021.2.3,59.888810434119286,
62.8,63.0,5,0.0,Stimuli\Blank.png,0,0,0,102,102,102,,,,,,,,,,,,,62.80404500000077,0.0040450000007723474,None,100.44696760000079,100.44696760000079,100.44696760000079,100.44696760000079,100.44696760000079,100.44696760000079,100.44696760000079,100.44696760000079,,003,P009,2025_Feb_01_1428,CategoryLocalizer,2021.2.3,59.888810434119286,
63.0,63.8,4,0.75,Stimuli\ImageFiles-Set1\Scenes\Scenes_010.png,0,0,0,103,103,103,,,,,,,,,,,,,63.00432929999806,0.004329299998062197,None,100.66381180000099,100.66381180000099,100.66381180000099,100.66381180000099,100.66381180000099,100.66381180000099,100.66381180000099,100.66381180000099,,003,P009,2025_Feb_01_1428,CategoryLocalizer,2021.2.3,59.888810434119286,
63.8,64.0,5,0.0,Stimuli\Blank.png,0,0,0,104,104,104,,,,,,,,,,,,,63.82164069999999,0.021640699999991853,None,101.46454020000238,101.46454020000238,101.46454020000238,101.46454020000238,101.46454020000238,101.46454020000238,101.46454020000238,101.46454020000238,,003,P009,2025_Feb_01_1428,CategoryLocalizer,2021.2.3,59.888810434119286,
64.0,64.8,4,0.75,Stimuli\ImageFiles-Set1\Scenes\Scenes_027.png,0,0,0,105,105,105,,,,,,,,,,,,,64.0063811,0.006381099999998696,None,101.66470410000329,101.66470410000329,101.66470410000329,101.66470410000329,101.66470410000329,101.66470410000329,101.66470410000329,101.66470410000329,,003,P009,2025_Feb_01_1428,CategoryLocalizer,2021.2.3,59.888810434119286,
64.8,65.0,5,0.0,Stimuli\Blank.png,0,0,0,106,106,106,,,,,,,,,,,,,64.8218218999973,0.021821899997306105,None,102.46540900000036,102.46540900000036,102.46540900000036,102.46540900000036,102.46540900000036,102.46540900000036,102.46540900000036,102.46540900000036,,003,P009,2025_Feb_01_1428,CategoryLocalizer,2021.2.3,59.888810434119286,
65.0,65.8,4,0.75,Stimuli\ImageFiles-Set1\Scenes\Scenes_027.png,1,1,0,107,107,107,,,,,,,,,,,,,65.00543399999879,0.005433999998786021,1,102.64890020000166,102.64890020000166,102.64890020000166,102.64890020000166,102.64890020000166,102.64890020000166,102.64890020000166,102.64890020000166,0.4768223000028229,003,P009,2025_Feb_01_1428,CategoryLocalizer,2021.2.3,59.888810434119286,
65.8,66.0,5,0.0,Stimuli\Blank.png,0,0,0,108,108,108,,,,,,,,,,,,,65.80608149999898,0.006081499998984441,None,103.44962240000314,103.44962240000314,103.44962240000314,103.44962240000314,103.44962240000314,103.44962240000314,103.44962240000314,103.44962240000314,,003,P009,2025_Feb_01_1428,CategoryLocalizer,2021.2.3,59.888810434119286,
66.0,66.8,4,0.75,Stimuli\ImageFiles-Set1\Scenes\Scenes_017.png,0,0,0,109,109,109,,,,,,,,,,,,,66.0075383000003,0.007538300000305753,None,103.6664660000024,103.6664660000024,103.6664660000024,103.6664660000024,103.6664660000024,103.6664660000024,103.6664660000024,103.6664660000024,,003,P009,2025_Feb_01_1428,CategoryLocalizer,2021.2.3,59.888810434119286,
66.8,67.0,5,0.0,Stimuli\Blank.png,0,0,0,110,110,110,,,,,,,,,,,,,66.82364529999904,0.023645299999046188,None,104.46724190000168,104.46724190000168,104.46724190000168,104.46724190000168,104.46724190000168,104.46724190000168,104.46724190000168,104.46724190000168,,003,P009,2025_Feb_01_1428,CategoryLocalizer,2021.2.3,59.888810434119286,
67.0,67.8,4,0.75,Stimuli\ImageFiles-Set1\Scenes\Scenes_037.png,0,0,0,111,111,111,,,,,,,,,,,,,67.0070601999978,0.00706019999779528,None,104.66736980000132,104.66736980000132,104.66736980000132,104.66736980000132,104.66736980000132,104.66736980000132,104.66736980000132,104.66736980000132,,003,P009,2025_Feb_01_1428,CategoryLocalizer,2021.2.3,59.888810434119286,
67.8,68.0,5,0.0,Stimuli\Blank.png,0,0,0,112,112,112,,,,,,,,,,,,,67.82539579999866,0.025395799998662483,None,105.4682395000018,105.4682395000018,105.4682395000018,105.4682395000018,105.4682395000018,105.4682395000018,105.4682395000018,105.4682395000018,,003,P009,2025_Feb_01_1428,CategoryLocalizer,2021.2.3,59.888810434119286,
68.0,68.8,4,0.75,Stimuli\ImageFiles-Set1\Scenes\Scenes_033.png,1,1,0,113,113,113,,,,,,,,,,,,,68.00797949999833,0.00797949999832781,None,105.65157840000029,105.65157840000029,105.65157840000029,105.65157840000029,105.65157840000029,105.65157840000029,105.65157840000029,105.65157840000029,,003,P009,2025_Feb_01_1428,CategoryLocalizer,2021.2.3,59.888810434119286,
68.8,69.0,5,0.0,Stimuli\Blank.png,0,0,0,114,114,114,,,,,,,,,,,,,68.80933829999776,0.00933829999776492,None,106.45227800000066,106.45227800000066,106.45227800000066,106.45227800000066,106.45227800000066,106.45227800000066,106.45227800000066,106.45227800000066,,003,P009,2025_Feb_01_1428,CategoryLocalizer,2021.2.3,59.888810434119286,
69.0,69.8,4,0.75,Stimuli\ImageFiles-Set1\Scenes\Scenes_053.png,0,0,0,115,115,115,,,,,,,,,,,,,69.00902639999913,0.009026399999129353,None,106.65244220000022,106.65244220000022,106.65244220000022,106.65244220000022,106.65244220000022,106.65244220000022,106.65244220000022,106.65244220000022,,003,P009,2025_Feb_01_1428,CategoryLocalizer,2021.2.3,59.888810434119286,
69.8,70.0,5,0.0,Stimuli\Blank.png,0,0,0,116,116,116,,,,,,,,,,,,,69.8119721999974,0.011972199997401844,None,107.46984150000208,107.46984150000208,107.46984150000208,107.46984150000208,107.46984150000208,107.46984150000208,107.46984150000208,107.46984150000208,,003,P009,2025_Feb_01_1428,CategoryLocalizer,2021.2.3,59.888810434119286,
70.0,70.8,4,0.75,Stimuli\ImageFiles-Set1\Scenes\Scenes_053.png,0,0,0,117,117,117,,,,,,,,,,,,,70.02652419999868,0.026524199998675613,None,107.68671979999999,107.68671979999999,107.68671979999999,107.68671979999999,107.68671979999999,107.68671979999999,107.68671979999999,107.68671979999999,,003,P009,2025_Feb_01_1428,CategoryLocalizer,2021.2.3,59.888810434119286,
70.8,71.0,5,0.0,Stimuli\Blank.png,0,0,0,118,118,118,,,,,,,,,,,,,70.82728289999795,0.027282899997956633,None,108.4707217000032,108.4707217000032,108.4707217000032,108.4707217000032,108.4707217000032,108.4707217000032,108.4707217000032,108.4707217000032,,003,P009,2025_Feb_01_1428,CategoryLocalizer,2021.2.3,59.888810434119286,
71.0,71.8,4,0.75,Stimuli\ImageFiles-Set1\Scenes\Scenes_044.png,0,0,0,119,119,119,,,,,,,,,,,,,71.01164529999733,0.01164529999732622,None,108.67090210000242,108.67090210000242,108.67090210000242,108.67090210000242,108.67090210000242,108.67090210000242,108.67090210000242,108.67090210000242,,003,P009,2025_Feb_01_1428,CategoryLocalizer,2021.2.3,59.888810434119286,
71.8,72.0,5,0.0,Stimuli\Blank.png,0,0,0,120,120,120,,,,,,,,,,,,,71.82892440000069,0.028924400000690298,None,109.47167730000001,109.47167730000001,109.47167730000001,109.47167730000001,109.47167730000001,109.47167730000001,109.47167730000001,109.47167730000001,,003,P009,2025_Feb_01_1428,CategoryLocalizer,2021.2.3,59.888810434119286,
72.0,72.8,4,0.75,Stimuli\ImageFiles-Set1\Scenes\Scenes_015.png,0,0,0,121,121,121,,,,,,,,,,,,,72.0120124999994,0.012012499999400461,None,109.67180890000236,109.67180890000236,109.67180890000236,109.67180890000236,109.67180890000236,109.67180890000236,109.67180890000236,109.67180890000236,,003,P009,2025_Feb_01_1428,CategoryLocalizer,2021.2.3,59.888810434119286,
72.8,73.0,5,0.0,Stimuli\Blank.png,0,0,0,122,122,122,,,,,,,,,,,,,72.83095329999924,0.030953299999239903,None,110.4891841000026,110.4891841000026,110.4891841000026,110.4891841000026,110.4891841000026,110.4891841000026,110.4891841000026,110.4891841000026,,003,P009,2025_Feb_01_1428,CategoryLocalizer,2021.2.3,59.888810434119286,
73.0,73.8,4,0.75,Stimuli\ImageFiles-Set1\Scenes\Scenes_055.png,0,0,0,123,123,123,,,,,,,,,,,,,73.03143020000061,0.031430200000613695,None,110.68935830000191,110.68935830000191,110.68935830000191,110.68935830000191,110.68935830000191,110.68935830000191,110.68935830000191,110.68935830000191,,003,P009,2025_Feb_01_1428,CategoryLocalizer,2021.2.3,59.888810434119286,
73.8,74.0,5,0.0,Stimuli\Blank.png,0,0,0,124,124,124,,,,,,,,,,,,,73.83046439999816,0.030464399998166414,None,111.47338769999988,111.47338769999988,111.47338769999988,111.47338769999988,111.47338769999988,111.47338769999988,111.47338769999988,111.47338769999988,,003,P009,2025_Feb_01_1428,CategoryLocalizer,2021.2.3,59.888810434119286,
74.0,74.8,4,0.75,Stimuli\ImageFiles-Set1\Scenes\Scenes_040.png,0,0,0,125,125,125,,,,,,,,,,,,,74.01336359999914,0.013363599999138387,None,111.65686890000143,111.65686890000143,111.65686890000143,111.65686890000143,111.65686890000143,111.65686890000143,111.65686890000143,111.65686890000143,,003,P009,2025_Feb_01_1428,CategoryLocalizer,2021.2.3,59.888810434119286,
74.8,75.0,5,0.0,Stimuli\Blank.png,0,0,0,126,126,126,,,,,,,,,,,,,74.81577209999887,0.01577209999886975,None,112.47498560000167,112.47498560000167,112.47498560000167,112.47498560000167,112.47498560000167,112.47498560000167,112.47498560000167,112.47498560000167,,003,P009,2025_Feb_01_1428,CategoryLocalizer,2021.2.3,59.888810434119286,
75.0,75.8,4,0.75,Stimuli\ImageFiles-Set1\Scenes\Scenes_059.png,0,0,0,127,127,127,,,,,,,,,,,,,75.03103689999989,0.03103689999989001,None,112.67443410000124,112.67443410000124,112.67443410000124,112.67443410000124,112.67443410000124,112.67443410000124,112.67443410000124,112.67443410000124,,003,P009,2025_Feb_01_1428,CategoryLocalizer,2021.2.3,59.888810434119286,
75.8,76.0,5,0.0,Stimuli\Blank.png,0,0,0,128,128,128,,,,,,,,,,,,,75.81585599999744,0.015855999997441472,None,113.4584797000025,113.4584797000025,113.4584797000025,113.4584797000025,113.4584797000025,113.4584797000025,113.4584797000025,113.4584797000025,,003,P009,2025_Feb_01_1428,CategoryLocalizer,2021.2.3,59.888810434119286,
76.0,88.0,0,0.0,Stimuli\Blank.png,0,0,0,129,129,129,,,,,,,,,,,,,75.99918369999796,-0.0008163000020431355,None,113.64197380000041,113.64197380000041,113.64197380000041,113.64197380000041,113.64197380000041,113.64197380000041,113.64197380000041,113.64197380000041,,003,P009,2025_Feb_01_1428,CategoryLocalizer,2021.2.3,59.888810434119286,
88.0,88.8,3,0.75,Stimuli\ImageFiles-Set1\Faces\Face_00045.png,0,0,0,130,130,130,,,,,,,,,,,,,88.0099169999994,0.009916999999404652,None,125.66927030000079,125.66927030000079,125.66927030000079,125.66927030000079,125.66927030000079,125.66927030000079,125.66927030000079,125.66927030000079,,003,P009,2025_Feb_01_1428,CategoryLocalizer,2021.2.3,59.888810434119286,
88.8,89.0,5,0.0,Stimuli\Blank.png,0,0,0,131,131,131,,,,,,,,,,,,,88.82722199999989,0.027221999999895274,None,126.46998000000167,126.46998000000167,126.46998000000167,126.46998000000167,126.46998000000167,126.46998000000167,126.46998000000167,126.46998000000167,,003,P009,2025_Feb_01_1428,CategoryLocalizer,2021.2.3,59.888810434119286,
89.0,89.8,3,0.75,Stimuli\ImageFiles-Set1\Faces\Face_00117.png,0,0,0,132,132,132,,,,,,,,,,,,,89.01055830000041,0.010558300000411691,None,126.67015420000098,126.67015420000098,126.67015420000098,126.67015420000098,126.67015420000098,126.67015420000098,126.67015420000098,126.67015420000098,,003,P009,2025_Feb_01_1428,CategoryLocalizer,2021.2.3,59.888810434119286,
89.8,90.0,5,0.0,Stimuli\Blank.png,0,0,0,133,133,133,,,,,,,,,,,,,89.82827369999723,0.02827369999722862,None,127.470867,127.470867,127.470867,127.470867,127.470867,127.470867,127.470867,127.470867,,003,P009,2025_Feb_01_1428,CategoryLocalizer,2021.2.3,59.888810434119286,
90.0,90.8,3,0.75,Stimuli\ImageFiles-Set1\Faces\Face_00117.png,1,1,0,134,134,134,,,,,,,,,,,,,90.01207670000076,0.012076700000761775,1,127.67103960000168,127.67103960000168,127.67103960000168,127.67103960000168,127.67103960000168,127.67103960000168,127.67103960000168,127.67103960000168,0.46173579999958747,003,P009,2025_Feb_01_1428,CategoryLocalizer,2021.2.3,59.888810434119286,
90.8,91.0,5,0.0,Stimuli\Blank.png,0,0,0,135,135,135,,,,,,,,,,,,,90.8286741999982,0.028674199998206973,None,128.47175380000044,128.47175380000044,128.47175380000044,128.47175380000044,128.47175380000044,128.47175380000044,128.47175380000044,128.47175380000044,,003,P009,2025_Feb_01_1428,CategoryLocalizer,2021.2.3,59.888810434119286,
91.0,91.8,3,0.75,Stimuli\ImageFiles-Set1\Faces\Face_00025.png,0,0,0,136,136,136,,,,,,,,,,,,,91.01181999999972,0.011819999999715947,None,128.6719621000011,128.6719621000011,128.6719621000011,128.6719621000011,128.6719621000011,128.6719621000011,128.6719621000011,128.6719621000011,,003,P009,2025_Feb_01_1428,CategoryLocalizer,2021.2.3,59.888810434119286,
91.8,92.0,5,0.0,Stimuli\Blank.png,0,0,0,137,137,137,,,,,,,,,,,,,91.83102149999831,0.03102149999831738,None,129.4893469000017,129.4893469000017,129.4893469000017,129.4893469000017,129.4893469000017,129.4893469000017,129.4893469000017,129.4893469000017,,003,P009,2025_Feb_01_1428,CategoryLocalizer,2021.2.3,59.888810434119286,
92.0,92.8,3,0.75,Stimuli\ImageFiles-Set1\Faces\Face_00029.png,0,0,0,138,138,138,,,,,,,,,,,,,92.0312613999995,0.03126139999949373,None,129.68950130000303,129.68950130000303,129.68950130000303,129.68950130000303,129.68950130000303,129.68950130000303,129.68950130000303,129.68950130000303,,003,P009,2025_Feb_01_1428,CategoryLocalizer,2021.2.3,59.888810434119286,
92.8,93.0,5,0.0,Stimuli\Blank.png,0,0,0,139,139,139,,,,,,,,,,,,,92.83061239999734,0.030612399997338002,None,130.47353350000049,130.47353350000049,130.47353350000049,130.47353350000049,130.47353350000049,130.47353350000049,130.47353350000049,130.47353350000049,,003,P009,2025_Feb_01_1428,CategoryLocalizer,2021.2.3,59.888810434119286,
93.0,93.8,3,0.75,Stimuli\ImageFiles-Set1\Faces\Face_00087.png,0,0,0,140,140,140,,,,,,,,,,,,,93.01429369999823,0.014293699998233933,None,130.6570281000022,130.6570281000022,130.6570281000022,130.6570281000022,130.6570281000022,130.6570281000022,130.6570281000022,130.6570281000022,,003,P009,2025_Feb_01_1428,CategoryLocalizer,2021.2.3,59.888810434119286,
93.8,94.0,5,0.0,Stimuli\Blank.png,0,0,0,141,141,141,,,,,,,,,,,,,93.81691199999841,0.016911999998413307,None,131.47440920000008,131.47440920000008,131.47440920000008,131.47440920000008,131.47440920000008,131.47440920000008,131.47440920000008,131.47440920000008,,003,P009,2025_Feb_01_1428,CategoryLocalizer,2021.2.3,59.888810434119286,
94.0,94.8,3,0.75,Stimuli\ImageFiles-Set1\Faces\Face_00007.png,0,0,0,142,142,142,,,,,,,,,,,,,94.01521069999944,0.015210699999443023,None,131.65789940000104,131.65789940000104,131.65789940000104,131.65789940000104,131.65789940000104,131.65789940000104,131.65789940000104,131.65789940000104,,003,P009,2025_Feb_01_1428,CategoryLocalizer,2021.2.3,59.888810434119286,
94.8,95.0,5,0.0,Stimuli\Blank.png,0,0,0,143,143,143,,,,,,,,,,,,,94.79851739999867,-0.0014826000013243856,None,132.4419181000012,132.4419181000012,132.4419181000012,132.4419181000012,132.4419181000012,132.4419181000012,132.4419181000012,132.4419181000012,,003,P009,2025_Feb_01_1428,CategoryLocalizer,2021.2.3,59.888810434119286,
95.0,95.8,3,0.75,Stimuli\ImageFiles-Set1\Faces\Face_00077.png,0,0,0,144,144,144,,,,,,,,,,,,,95.01583559999926,0.01583559999926365,None,132.67545880000034,132.67545880000034,132.67545880000034,132.67545880000034,132.67545880000034,132.67545880000034,132.67545880000034,132.67545880000034,,003,P009,2025_Feb_01_1428,CategoryLocalizer,2021.2.3,59.888810434119286,
95.8,96.0,5,0.0,Stimuli\Blank.png,0,0,0,145,145,145,,,,,,,,,,,,,95.81607009999789,0.016070099997889997,None,133.45948560000033,133.45948560000033,133.45948560000033,133.45948560000033,133.45948560000033,133.45948560000033,133.45948560000033,133.45948560000033,,003,P009,2025_Feb_01_1428,CategoryLocalizer,2021.2.3,59.888810434119286,
96.0,96.8,3,0.75,Stimuli\ImageFiles-Set1\Faces\Face_00027.png,0,0,0,146,146,146,,,,,,,,,,,,,96.00197919999846,0.0019791999984590802,None,133.65964000000167,133.65964000000167,133.65964000000167,133.65964000000167,133.65964000000167,133.65964000000167,133.65964000000167,133.65964000000167,,003,P009,2025_Feb_01_1428,CategoryLocalizer,2021.2.3,59.888810434119286,
96.8,97.0,5,0.0,Stimuli\Blank.png,0,0,0,147,147,147,,,,,,,,,,,,,96.81752959999721,0.017529599997217815,None,134.46038210000188,134.46038210000188,134.46038210000188,134.46038210000188,134.46038210000188,134.46038210000188,134.46038210000188,134.46038210000188,,003,P009,2025_Feb_01_1428,CategoryLocalizer,2021.2.3,59.888810434119286,
97.0,97.8,3,0.75,Stimuli\ImageFiles-Set1\Faces\Face_00012.png,0,0,0,148,148,148,,,,,,,,,,,,,97.00138719999813,0.0013871999981347471,None,134.66054970000187,134.66054970000187,134.66054970000187,134.66054970000187,134.66054970000187,134.66054970000187,134.66054970000187,134.66054970000187,,003,P009,2025_Feb_01_1428,CategoryLocalizer,2021.2.3,59.888810434119286,
97.8,98.0,5,0.0,Stimuli\Blank.png,0,0,0,149,149,149,,,,,,,,,,,,,97.81765230000019,0.017652300000193577,None,135.46125290000055,135.46125290000055,135.46125290000055,135.46125290000055,135.46125290000055,135.46125290000055,135.46125290000055,135.46125290000055,,003,P009,2025_Feb_01_1428,CategoryLocalizer,2021.2.3,59.888810434119286,
98.0,98.8,3,0.75,Stimuli\ImageFiles-Set1\Faces\Face_00001.png,0,0,0,150,150,150,,,,,,,,,,,,,98.00184609999997,0.0018460999999660999,None,135.6614432000024,135.6614432000024,135.6614432000024,135.6614432000024,135.6614432000024,135.6614432000024,135.6614432000024,135.6614432000024,,003,P009,2025_Feb_01_1428,CategoryLocalizer,2021.2.3,59.888810434119286,
98.8,99.0,5,0.0,Stimuli\Blank.png,0,0,0,151,151,151,,,,,,,,,,,,,98.81935279999743,0.019352799997435,None,136.462161200001,136.462161200001,136.462161200001,136.462161200001,136.462161200001,136.462161200001,136.462161200001,136.462161200001,,003,P009,2025_Feb_01_1428,CategoryLocalizer,2021.2.3,59.888810434119286,
99.0,99.8,3,0.75,Stimuli\ImageFiles-Set1\Faces\Face_00089.png,0,0,0,152,152,152,,,,,,,,,,,,,99.00271480000083,0.002714800000831019,None,136.6622982000008,136.6622982000008,136.6622982000008,136.6622982000008,136.6622982000008,136.6622982000008,136.6622982000008,136.6622982000008,,003,P009,2025_Feb_01_1428,CategoryLocalizer,2021.2.3,59.888810434119286,
99.8,100.0,5,0.0,Stimuli\Blank.png,0,0,0,153,153,153,,,,,,,,,,,,,99.82132579999961,0.021325799999615924,None,137.46305360000042,137.46305360000042,137.46305360000042,137.46305360000042,137.46305360000042,137.46305360000042,137.46305360000042,137.46305360000042,,003,P009,2025_Feb_01_1428,CategoryLocalizer,2021.2.3,59.888810434119286,
100.0,100.8,3,0.75,Stimuli\ImageFiles-Set1\Faces\Face_00083.png,1,1,0,154,154,154,,,,,,,,,,,,,100.00305819999994,0.00305819999994128,None,137.64650440000332,137.64650440000332,137.64650440000332,137.64650440000332,137.64650440000332,137.64650440000332,137.64650440000332,137.64650440000332,,003,P009,2025_Feb_01_1428,CategoryLocalizer,2021.2.3,59.888810434119286,
100.8,101.0,5,0.0,Stimuli\Blank.png,0,0,0,155,155,155,,,,,,,,,,,,,100.80698370000027,0.006983700000276372,None,138.46392170000036,138.46392170000036,138.46392170000036,138.46392170000036,138.46392170000036,138.46392170000036,138.46392170000036,138.46392170000036,,003,P009,2025_Feb_01_1428,CategoryLocalizer,2021.2.3,59.888810434119286,
101.0,101.8,3,0.75,Stimuli\ImageFiles-Set1\Faces\Face_00057.png,0,0,0,156,156,156,,,,,,,,,,,,,101.02064400000017,0.020644000000174856,None,138.66410720000204,138.66410720000204,138.66410720000204,138.66410720000204,138.66410720000204,138.66410720000204,138.66410720000204,138.66410720000204,,003,P009,2025_Feb_01_1428,CategoryLocalizer,2021.2.3,59.888810434119286,
101.8,102.0,5,0.0,Stimuli\Blank.png,0,0,0,157,157,157,,,,,,,,,,,,,101.80741099999796,0.007410999997958356,None,139.46482860000106,139.46482860000106,139.46482860000106,139.46482860000106,139.46482860000106,139.46482860000106,139.46482860000106,139.46482860000106,,003,P009,2025_Feb_01_1428,CategoryLocalizer,2021.2.3,59.888810434119286,
102.0,102.8,3,0.75,Stimuli\ImageFiles-Set1\Faces\Face_00057.png,0,0,0,158,158,158,,,,,,,,,,,,,102.02142099999764,0.021420999997644685,1,139.68170510000346,139.68170510000346,139.68170510000346,139.68170510000346,139.68170510000346,139.68170510000346,139.68170510000346,139.68170510000346,0.3758454000017082,003,P009,2025_Feb_01_1428,CategoryLocalizer,2021.2.3,59.888810434119286,
102.8,103.0,5,0.0,Stimuli\Blank.png,0,0,0,159,159,159,,,,,,,,,,,,,102.8224487999978,0.022448799997803803,None,140.46569230000023,140.46569230000023,140.46569230000023,140.46569230000023,140.46569230000023,140.46569230000023,140.46569230000023,140.46569230000023,,003,P009,2025_Feb_01_1428,CategoryLocalizer,2021.2.3,59.888810434119286,
103.0,103.8,3,0.75,Stimuli\ImageFiles-Set1\Faces\Face_00014.png,0,0,0,160,160,160,,,,,,,,,,,,,103.00625930000024,0.0062593000002379995,None,140.64918770000077,140.64918770000077,140.64918770000077,140.64918770000077,140.64918770000077,140.64918770000077,140.64918770000077,140.64918770000077,,003,P009,2025_Feb_01_1428,CategoryLocalizer,2021.2.3,59.888810434119286,
103.8,104.0,5,0.0,Stimuli\Blank.png,0,0,0,161,161,161,,,,,,,,,,,,,103.80668589999914,0.006685899999141043,None,141.44990110000072,141.44990110000072,141.44990110000072,141.44990110000072,141.44990110000072,141.44990110000072,141.44990110000072,141.44990110000072,,003,P009,2025_Feb_01_1428,CategoryLocalizer,2021.2.3,59.888810434119286,
104.0,104.8,1,0.75,Stimuli\ImageFiles-Set1\Objects\Object_Key_00001.png,0,0,0,162,162,162,,,,,,,,,,,,,104.00718629999756,0.007186299997556489,None,141.6507182000023,141.6507182000023,141.6507182000023,141.6507182000023,141.6507182000023,141.6507182000023,141.6507182000023,141.6507182000023,,003,P009,2025_Feb_01_1428,CategoryLocalizer,2021.2.3,59.888810434119286,
104.8,105.0,5,0.0,Stimuli\Blank.png,0,0,0,163,163,163,,,,,,,,,,,,,104.80755259999933,0.007552599999328891,None,142.45078000000285,142.45078000000285,142.45078000000285,142.45078000000285,142.45078000000285,142.45078000000285,142.45078000000285,142.45078000000285,,003,P009,2025_Feb_01_1428,CategoryLocalizer,2021.2.3,59.888810434119286,
105.0,105.8,1,0.75,Stimuli\ImageFiles-Set1\Objects\Object_Toilet_00001.png,0,0,0,164,164,164,,,,,,,,,,,,,105.008615499999,0.008615499998995801,None,142.65100190000157,142.65100190000157,142.65100190000157,142.65100190000157,142.65100190000157,142.65100190000157,142.65100190000157,142.65100190000157,,003,P009,2025_Feb_01_1428,CategoryLocalizer,2021.2.3,59.888810434119286,
105.8,106.0,5,0.0,Stimuli\Blank.png,0,0,0,165,165,165,,,,,,,,,,,,,105.81094250000024,0.01094250000024033,None,143.46836919999987,143.46836919999987,143.46836919999987,143.46836919999987,143.46836919999987,143.46836919999987,143.46836919999987,143.46836919999987,,003,P009,2025_Feb_01_1428,CategoryLocalizer,2021.2.3,59.888810434119286,
106.0,106.8,1,0.75,Stimuli\ImageFiles-Set1\Objects\Object_TeaBag_00001.png,0,0,0,166,166,166,,,,,,,,,,,,,106.02619489999779,0.026194899997790344,None,143.68521529999998,143.68521529999998,143.68521529999998,143.68521529999998,143.68521529999998,143.68521529999998,143.68521529999998,143.68521529999998,,003,P009,2025_Feb_01_1428,CategoryLocalizer,2021.2.3,59.888810434119286,
106.8,107.0,5,0.0,Stimuli\Blank.png,0,0,0,167,167,167,,,,,,,,,,,,,106.82695269999749,0.026952699997494278,None,144.4702935000023,144.4702935000023,144.4702935000023,144.4702935000023,144.4702935000023,144.4702935000023,144.4702935000023,144.4702935000023,,003,P009,2025_Feb_01_1428,CategoryLocalizer,2021.2.3,59.888810434119286,
107.0,107.8,1,0.75,Stimuli\ImageFiles-Set1\Objects\Object_Stool_00001.png,0,0,0,168,168,168,,,,,,,,,,,,,107.0111442999987,0.01114429999870481,None,144.66942230000132,144.66942230000132,144.66942230000132,144.66942230000132,144.66942230000132,144.66942230000132,144.66942230000132,144.66942230000132,,003,P009,2025_Feb_01_1428,CategoryLocalizer,2021.2.3,59.888810434119286,
107.8,108.0,5,0.0,Stimuli\Blank.png,0,0,0,169,169,169,,,,,,,,,,,,,107.82655099999829,0.026550999998292468,None,145.47011680000287,145.47011680000287,145.47011680000287,145.47011680000287,145.47011680000287,145.47011680000287,145.47011680000287,145.47011680000287,,003,P009,2025_Feb_01_1428,CategoryLocalizer,2021.2.3,59.888810434119286,
108.0,108.8,1,0.75,Stimuli\ImageFiles-Set1\Objects\Object_Scale_00001.png,0,0,0,170,170,170,,,,,,,,,,,,,108.01025870000012,0.01025870000012219,None,145.6536096000018,145.6536096000018,145.6536096000018,145.6536096000018,145.6536096000018,145.6536096000018,145.6536096000018,145.6536096000018,,003,P009,2025_Feb_01_1428,CategoryLocalizer,2021.2.3,59.888810434119286,
108.8,109.0,5,0.0,Stimuli\Blank.png,0,0,0,171,171,171,,,,,,,,,,,,,108.8117405999983,0.011740599998304901,None,146.45433890000277,146.45433890000277,146.45433890000277,146.45433890000277,146.45433890000277,146.45433890000277,146.45433890000277,146.45433890000277,,003,P009,2025_Feb_01_1428,CategoryLocalizer,2021.2.3,59.888810434119286,
109.0,109.8,1,0.75,Stimuli\ImageFiles-Set1\Objects\Object_ComputerMouse_00001.png,0,0,0,172,172,172,,,,,,,,,,,,,109.0109334000008,0.01093340000079479,None,146.65517730000283,146.65517730000283,146.65517730000283,146.65517730000283,146.65517730000283,146.65517730000283,146.65517730000283,146.65517730000283,,003,P009,2025_Feb_01_1428,CategoryLocalizer,2021.2.3,59.888810434119286,
109.8,110.0,5,0.0,Stimuli\Blank.png,0,0,0,173,173,173,,,,,,,,,,,,,109.81189280000035,0.011892800000353532,None,147.45520340000076,147.45520340000076,147.45520340000076,147.45520340000076,147.45520340000076,147.45520340000076,147.45520340000076,147.45520340000076,,003,P009,2025_Feb_01_1428,CategoryLocalizer,2021.2.3,59.888810434119286,
110.0,110.8,1,0.75,Stimuli\ImageFiles-Set1\Objects\Object_Lamp_00001.png,0,0,0,174,174,174,,,,,,,,,,,,,110.01207169999907,0.012071699999069097,None,147.65540050000345,147.65540050000345,147.65540050000345,147.65540050000345,147.65540050000345,147.65540050000345,147.65540050000345,147.65540050000345,,003,P009,2025_Feb_01_1428,CategoryLocalizer,2021.2.3,59.888810434119286,
110.8,111.0,5,0.0,Stimuli\Blank.png,0,0,0,175,175,175,,,,,,,,,,,,,110.81276679999792,0.01276679999791952,None,148.45609190000323,148.45609190000323,148.45609190000323,148.45609190000323,148.45609190000323,148.45609190000323,148.45609190000323,148.45609190000323,,003,P009,2025_Feb_01_1428,CategoryLocalizer,2021.2.3,59.888810434119286,
111.0,111.8,1,0.75,Stimuli\ImageFiles-Set1\Objects\Object_Ring_00001.png,0,0,0,176,176,176,,,,,,,,,,,,,111.01285949999874,0.01285949999873992,None,148.65626350000093,148.65626350000093,148.65626350000093,148.65626350000093,148.65626350000093,148.65626350000093,148.65626350000093,148.65626350000093,,003,P009,2025_Feb_01_1428,CategoryLocalizer,2021.2.3,59.888810434119286,
111.8,112.0,5,0.0,Stimuli\Blank.png,0,0,0,177,177,177,,,,,,,,,,,,,111.816057,0.01605700000000354,None,149.47366230000262,149.47366230000262,149.47366230000262,149.47366230000262,149.47366230000262,149.47366230000262,149.47366230000262,149.47366230000262,,003,P009,2025_Feb_01_1428,CategoryLocalizer,2021.2.3,59.888810434119286,
112.0,112.8,1,0.75,Stimuli\ImageFiles-Set1\Objects\Object_Peanut_00001.png,0,0,0,178,178,178,,,,,,,,,,,,,112.0148268999983,0.01482689999829745,None,149.67385560000184,149.67385560000184,149.67385560000184,149.67385560000184,149.67385560000184,149.67385560000184,149.67385560000184,149.67385560000184,,003,P009,2025_Feb_01_1428,CategoryLocalizer,2021.2.3,59.888810434119286,
112.8,113.0,5,0.0,Stimuli\Blank.png,0,0,0,179,179,179,,,,,,,,,,,,,112.83157519999804,0.03157519999804492,None,150.4745451000017,150.4745451000017,150.4745451000017,150.4745451000017,150.4745451000017,150.4745451000017,150.4745451000017,150.4745451000017,,003,P009,2025_Feb_01_1428,CategoryLocalizer,2021.2.3,59.888810434119286,
113.0,113.8,1,0.75,Stimuli\ImageFiles-Set1\Objects\Object_ShoppingCart_00001.png,0,0,0,180,180,180,,,,,,,,,,,,,113.01683649999904,0.016836499999044463,None,150.67474500000026,150.67474500000026,150.67474500000026,150.67474500000026,150.67474500000026,150.67474500000026,150.67474500000026,150.67474500000026,,003,P009,2025_Feb_01_1428,CategoryLocalizer,2021.2.3,59.888810434119286,
113.8,114.0,5,0.0,Stimuli\Blank.png,0,0,0,181,181,181,,,,,,,,,,,,,113.81578829999853,0.01578829999853326,None,151.4587655000032,151.4587655000032,151.4587655000032,151.4587655000032,151.4587655000032,151.4587655000032,151.4587655000032,151.4587655000032,,003,P009,2025_Feb_01_1428,CategoryLocalizer,2021.2.3,59.888810434119286,
114.0,114.8,1,0.75,Stimuli\ImageFiles-Set1\Objects\Object_Crib_00001.png,0,0,0,182,182,182,,,,,,,,,,,,,113.99956159999783,-0.00043840000216732733,None,151.65950160000284,151.65950160000284,151.65950160000284,151.65950160000284,151.65950160000284,151.65950160000284,151.65950160000284,151.65950160000284,,003,P009,2025_Feb_01_1428,CategoryLocalizer,2021.2.3,59.888810434119286,
114.8,115.0,5,0.0,Stimuli\Blank.png,0,0,0,183,183,183,,,,,,,,,,,,,114.8167942,0.016794200000006754,None,152.4596397000023,152.4596397000023,152.4596397000023,152.4596397000023,152.4596397000023,152.4596397000023,152.4596397000023,152.4596397000023,,003,P009,2025_Feb_01_1428,CategoryLocalizer,2021.2.3,59.888810434119286,
115.0,115.8,1,0.75,Stimuli\ImageFiles-Set1\Objects\Object_Walnut_00001.png,0,0,0,184,184,184,,,,,,,,,,,,,115.00000689999797,6.899997970322147e-06,None,152.6431295000002,152.6431295000002,152.6431295000002,152.6431295000002,152.6431295000002,152.6431295000002,152.6431295000002,152.6431295000002,,003,P009,2025_Feb_01_1428,CategoryLocalizer,2021.2.3,59.888810434119286,
115.8,116.0,5,0.0,Stimuli\Blank.png,0,0,0,185,185,185,,,,,,,,,,,,,115.80101730000024,0.0010173000002424715,None,153.44383880000169,153.44383880000169,153.44383880000169,153.44383880000169,153.44383880000169,153.44383880000169,153.44383880000169,153.44383880000169,,003,P009,2025_Feb_01_1428,CategoryLocalizer,2021.2.3,59.888810434119286,
116.0,116.8,1,0.75,Stimuli\ImageFiles-Set1\Objects\Object_Canoe_00001.png,0,0,0,186,186,186,,,,,,,,,,,,,116.00124569999753,0.0012456999975256622,None,153.6440270000021,153.6440270000021,153.6440270000021,153.6440270000021,153.6440270000021,153.6440270000021,153.6440270000021,153.6440270000021,,003,P009,2025_Feb_01_1428,CategoryLocalizer,2021.2.3,59.888810434119286,
116.8,117.0,5,0.0,Stimuli\Blank.png,0,0,0,187,187,187,,,,,,,,,,,,,116.8019753999979,0.0019753999979030823,None,154.44472200000018,154.44472200000018,154.44472200000018,154.44472200000018,154.44472200000018,154.44472200000018,154.44472200000018,154.44472200000018,,003,P009,2025_Feb_01_1428,CategoryLocalizer,2021.2.3,59.888810434119286,
117.0,117.8,1,0.75,Stimuli\ImageFiles-Set1\Objects\Object_Canoe_00001.png,1,1,0,188,188,188,,,,,,,,,,,,,117.00180909999835,0.0018090999983542133,1,154.6449012000012,154.6449012000012,154.6449012000012,154.6449012000012,154.6449012000012,154.6449012000012,154.6449012000012,154.6449012000012,0.45477630000095814,003,P009,2025_Feb_01_1428,CategoryLocalizer,2021.2.3,59.888810434119286,
117.8,118.0,5,0.0,Stimuli\Blank.png,0,0,0,189,189,189,,,,,,,,,,,,,117.80217540000012,0.002175400000126615,None,155.44560340000317,155.44560340000317,155.44560340000317,155.44560340000317,155.44560340000317,155.44560340000317,155.44560340000317,155.44560340000317,,003,P009,2025_Feb_01_1428,CategoryLocalizer,2021.2.3,59.888810434119286,
118.0,118.8,1,0.75,Stimuli\ImageFiles-Set1\Objects\Object_Nightstand_00001.png,0,0,0,190,190,190,,,,,,,,,,,,,118.00312259999919,0.003122599999187514,None,155.64573910000036,155.64573910000036,155.64573910000036,155.64573910000036,155.64573910000036,155.64573910000036,155.64573910000036,155.64573910000036,,003,P009,2025_Feb_01_1428,CategoryLocalizer,2021.2.3,59.888810434119286,
118.8,119.0,5,0.0,Stimuli\Blank.png,0,0,0,191,191,191,,,,,,,,,,,,,118.80299989999912,0.0029998999991249775,None,156.4464908000009,156.4464908000009,156.4464908000009,156.4464908000009,156.4464908000009,156.4464908000009,156.4464908000009,156.4464908000009,,003,P009,2025_Feb_01_1428,CategoryLocalizer,2021.2.3,59.888810434119286,
119.0,119.8,1,0.75,Stimuli\ImageFiles-Set1\Objects\Object_Recliner_00001.png,0,0,0,192,192,192,,,,,,,,,,,,,119.00331589999769,0.0033158999976876657,None,156.66335280000203,156.66335280000203,156.66335280000203,156.66335280000203,156.66335280000203,156.66335280000203,156.66335280000203,156.66335280000203,,003,P009,2025_Feb_01_1428,CategoryLocalizer,2021.2.3,59.888810434119286,
119.8,120.0,5,0.0,Stimuli\Blank.png,0,0,0,193,193,193,,,,,,,,,,,,,119.82082939999964,0.020829399999641396,None,157.4640603000007,157.4640603000007,157.4640603000007,157.4640603000007,157.4640603000007,157.4640603000007,157.4640603000007,157.4640603000007,,003,P009,2025_Feb_01_1428,CategoryLocalizer,2021.2.3,59.888810434119286,
120.0,120.8,4,0.75,Stimuli\ImageFiles-Set1\Scenes\Scenes_022.png,0,0,0,194,194,194,,,,,,,,,,,,,120.00407020000057,0.004070200000569457,None,157.64756940000007,157.64756940000007,157.64756940000007,157.64756940000007,157.64756940000007,157.64756940000007,157.64756940000007,157.64756940000007,,003,P009,2025_Feb_01_1428,CategoryLocalizer,2021.2.3,59.888810434119286,
120.8,121.0,5,0.0,Stimuli\Blank.png,0,0,0,195,195,195,,,,,,,,,,,,,120.80591389999972,0.005913899999725913,None,158.44827010000154,158.44827010000154,158.44827010000154,158.44827010000154,158.44827010000154,158.44827010000154,158.44827010000154,158.44827010000154,,003,P009,2025_Feb_01_1428,CategoryLocalizer,2021.2.3,59.888810434119286,
121.0,121.8,4,0.75,Stimuli\ImageFiles-Set1\Scenes\Scenes_026.png,0,0,0,196,196,196,,,,,,,,,,,,,121.00566249999974,0.005662499999743886,None,158.66512870000224,158.66512870000224,158.66512870000224,158.66512870000224,158.66512870000224,158.66512870000224,158.66512870000224,158.66512870000224,,003,P009,2025_Feb_01_1428,CategoryLocalizer,2021.2.3,59.888810434119286,
121.8,122.0,5,0.0,Stimuli\Blank.png,0,0,0,197,197,197,,,,,,,,,,,,,121.82269950000045,0.022699500000456396,None,159.46582900000067,159.46582900000067,159.46582900000067,159.46582900000067,159.46582900000067,159.46582900000067,159.46582900000067,159.46582900000067,,003,P009,2025_Feb_01_1428,CategoryLocalizer,2021.2.3,59.888810434119286,
122.0,122.8,4,0.75,Stimuli\ImageFiles-Set1\Scenes\Scenes_019.png,0,0,0,198,198,198,,,,,,,,,,,,,122.00679499999751,0.006794999997509876,None,159.66601110000192,159.66601110000192,159.66601110000192,159.66601110000192,159.66601110000192,159.66601110000192,159.66601110000192,159.66601110000192,,003,P009,2025_Feb_01_1428,CategoryLocalizer,2021.2.3,59.888810434119286,
122.8,123.0,5,0.0,Stimuli\Blank.png,0,0,0,199,199,199,,,,,,,,,,,,,122.82389630000034,0.02389630000034515,None,160.46789130000252,160.46789130000252,160.46789130000252,160.46789130000252,160.46789130000252,160.46789130000252,160.46789130000252,160.46789130000252,,003,P009,2025_Feb_01_1428,CategoryLocalizer,2021.2.3,59.888810434119286,
123.0,123.8,4,0.75,Stimuli\ImageFiles-Set1\Scenes\Scenes_019.png,1,1,0,200,200,200,,,,,,,,,,,,,123.00737759999902,0.007377599999017548,1,160.6668909,160.6668909,160.6668909,160.6668909,160.6668909,160.6668909,160.6668909,160.6668909,0.4556723999994574,003,P009,2025_Feb_01_1428,CategoryLocalizer,2021.2.3,59.888810434119286,
123.8,124.0,5,0.0,Stimuli\Blank.png,0,0,0,201,201,201,,,,,,,,,,,,,123.82733729999745,0.02733729999745549,None,161.48430000000008,161.48430000000008,161.48430000000008,161.48430000000008,161.48430000000008,161.48430000000008,161.48430000000008,161.48430000000008,,003,P009,2025_Feb_01_1428,CategoryLocalizer,2021.2.3,59.888810434119286,
124.0,124.8,4,0.75,Stimuli\ImageFiles-Set1\Scenes\Scenes_031.png,0,0,0,202,202,202,,,,,,,,,,,,,124.02706910000052,0.02706910000051721,None,161.68445970000175,161.68445970000175,161.68445970000175,161.68445970000175,161.68445970000175,161.68445970000175,161.68445970000175,161.68445970000175,,003,P009,2025_Feb_01_1428,CategoryLocalizer,2021.2.3,59.888810434119286,
124.8,125.0,5,0.0,Stimuli\Blank.png,0,0,0,203,203,203,,,,,,,,,,,,,124.8257741999987,0.02577419999870756,None,162.46849710000242,162.46849710000242,162.46849710000242,162.46849710000242,162.46849710000242,162.46849710000242,162.46849710000242,162.46849710000242,,003,P009,2025_Feb_01_1428,CategoryLocalizer,2021.2.3,59.888810434119286,
125.0,125.8,4,0.75,Stimuli\ImageFiles-Set1\Scenes\Scenes_009.png,0,0,0,204,204,204,,,,,,,,,,,,,125.00859629999832,0.008596299998316681,None,162.6519580000022,162.6519580000022,162.6519580000022,162.6519580000022,162.6519580000022,162.6519580000022,162.6519580000022,162.6519580000022,,003,P009,2025_Feb_01_1428,CategoryLocalizer,2021.2.3,59.888810434119286,
125.8,126.0,5,0.0,Stimuli\Blank.png,0,0,0,205,205,205,,,,,,,,,,,,,125.8100142000003,0.010014200000298956,None,163.45274570000038,163.45274570000038,163.45274570000038,163.45274570000038,163.45274570000038,163.45274570000038,163.45274570000038,163.45274570000038,,003,P009,2025_Feb_01_1428,CategoryLocalizer,2021.2.3,59.888810434119286,
126.0,126.8,4,0.75,Stimuli\ImageFiles-Set1\Scenes\Scenes_013.png,0,0,0,206,206,206,,,,,,,,,,,,,126.01005539999824,0.01005539999823668,None,163.66955280000184,163.66955280000184,163.66955280000184,163.66955280000184,163.66955280000184,163.66955280000184,163.66955280000184,163.66955280000184,,003,P009,2025_Feb_01_1428,CategoryLocalizer,2021.2.3,59.888810434119286,
126.8,127.0,5,0.0,Stimuli\Blank.png,0,0,0,207,207,207,,,,,,,,,,,,,126.82730979999906,0.027309799999059692,None,164.47025320000103,164.47025320000103,164.47025320000103,164.47025320000103,164.47025320000103,164.47025320000103,164.47025320000103,164.47025320000103,,003,P009,2025_Feb_01_1428,CategoryLocalizer,2021.2.3,59.888810434119286,
127.0,127.8,4,0.75,Stimuli\ImageFiles-Set1\Scenes\Scenes_025.png,0,0,0,208,208,208,,,,,,,,,,,,,127.01090109999859,0.010901099998591235,None,164.67045130000042,164.67045130000042,164.67045130000042,164.67045130000042,164.67045130000042,164.67045130000042,164.67045130000042,164.67045130000042,,003,P009,2025_Feb_01_1428,CategoryLocalizer,2021.2.3,59.888810434119286,
127.8,128.0,5,0.0,Stimuli\Blank.png,0,0,0,209,209,209,,,,,,,,,,,,,127.82838020000054,0.028380200000540867,None,165.47149720000016,165.47149720000016,165.47149720000016,165.47149720000016,165.47149720000016,165.47149720000016,165.47149720000016,165.47149720000016,,003,P009,2025_Feb_01_1428,CategoryLocalizer,2021.2.3,59.888810434119286,
128.0,128.8,4,0.75,Stimuli\ImageFiles-Set1\Scenes\Scenes_034.png,0,0,0,210,210,210,,,,,,,,,,,,,128.0110762999975,0.011076299997512251,None,165.65463750000345,165.65463750000345,165.65463750000345,165.65463750000345,165.65463750000345,165.65463750000345,165.65463750000345,165.65463750000345,,003,P009,2025_Feb_01_1428,CategoryLocalizer,2021.2.3,59.888810434119286,
128.8,129.0,5,0.0,Stimuli\Blank.png,0,0,0,211,211,211,,,,,,,,,,,,,128.81177689999822,0.01177689999821041,None,166.45534260000204,166.45534260000204,166.45534260000204,166.45534260000204,166.45534260000204,166.45534260000204,166.45534260000204,166.45534260000204,,003,P009,2025_Feb_01_1428,CategoryLocalizer,2021.2.3,59.888810434119286,
129.0,129.8,4,0.75,Stimuli\ImageFiles-Set1\Scenes\Scenes_020.png,0,0,0,212,212,212,,,,,,,,,,,,,129.0120809,0.012080900000000838,None,166.67220290000114,166.67220290000114,166.67220290000114,166.67220290000114,166.67220290000114,166.67220290000114,166.67220290000114,166.67220290000114,,003,P009,2025_Feb_01_1428,CategoryLocalizer,2021.2.3,59.888810434119286,
129.8,130.0,5,0.0,Stimuli\Blank.png,0,0,0,213,213,213,,,,,,,,,,,,,129.8312334000002,0.031233400000189704,None,167.4896086000008,167.4896086000008,167.4896086000008,167.4896086000008,167.4896086000008,167.4896086000008,167.4896086000008,167.4896086000008,,003,P009,2025_Feb_01_1428,CategoryLocalizer,2021.2.3,59.888810434119286,
130.0,130.8,4,0.75,Stimuli\ImageFiles-Set1\Scenes\Scenes_029.png,0,0,0,214,214,214,,,,,,,,,,,,,130.03204259999984,0.032042599999840604,None,167.69016610000108,167.69016610000108,167.69016610000108,167.69016610000108,167.69016610000108,167.69016610000108,167.69016610000108,167.69016610000108,,003,P009,2025_Feb_01_1428,CategoryLocalizer,2021.2.3,59.888810434119286,
130.8,131.0,5,0.0,Stimuli\Blank.png,0,0,0,215,215,215,,,,,,,,,,,,,130.8135689999981,0.013568999998085474,None,168.45712080000158,168.45712080000158,168.45712080000158,168.45712080000158,168.45712080000158,168.45712080000158,168.45712080000158,168.45712080000158,,003,P009,2025_Feb_01_1428,CategoryLocalizer,2021.2.3,59.888810434119286,
131.0,131.8,4,0.75,Stimuli\ImageFiles-Set1\Scenes\Scenes_038.png,0,0,0,216,216,216,,,,,,,,,,,,,131.01442639999732,0.014426399997319095,None,168.67397610000262,168.67397610000262,168.67397610000262,168.67397610000262,168.67397610000262,168.67397610000262,168.67397610000262,168.67397610000262,,003,P009,2025_Feb_01_1428,CategoryLocalizer,2021.2.3,59.888810434119286,
131.8,132.0,5,0.0,Stimuli\Blank.png,0,0,0,217,217,217,,,,,,,,,,,,,131.8317293,0.031729299999994964,None,169.4746847000024,169.4746847000024,169.4746847000024,169.4746847000024,169.4746847000024,169.4746847000024,169.4746847000024,169.4746847000024,,003,P009,2025_Feb_01_1428,CategoryLocalizer,2021.2.3,59.888810434119286,
132.0,132.8,4,0.75,Stimuli\ImageFiles-Set1\Scenes\Scenes_051.png,0,0,0,218,218,218,,,,,,,,,,,,,132.01552889999948,0.015528899999480927,None,169.65817900000184,169.65817900000184,169.65817900000184,169.65817900000184,169.65817900000184,169.65817900000184,169.65817900000184,169.65817900000184,,003,P009,2025_Feb_01_1428,CategoryLocalizer,2021.2.3,59.888810434119286,
132.8,133.0,5,0.0,Stimuli\Blank.png,0,0,0,219,219,219,,,,,,,,,,,,,132.80123829999866,0.0012382999986471077,None,170.45888880000348,170.45888880000348,170.45888880000348,170.45888880000348,170.45888880000348,170.45888880000348,170.45888880000348,170.45888880000348,,003,P009,2025_Feb_01_1428,CategoryLocalizer,2021.2.3,59.888810434119286,
133.0,133.8,4,0.75,Stimuli\ImageFiles-Set1\Scenes\Scenes_057.png,0,0,0,220,220,220,,,,,,,,,,,,,133.01545369999803,0.015453699998033699,1,170.65908000000127,170.65908000000127,170.65908000000127,170.65908000000127,170.65908000000127,170.65908000000127,170.65908000000127,170.65908000000127,0.4955176000003121,003,P009,2025_Feb_01_1428,CategoryLocalizer,2021.2.3,59.888810434119286,
133.8,134.0,5,0.0,Stimuli\Blank.png,0,0,0,221,221,221,,,,,,,,,,,,,133.80195959999764,0.001959599997633177,None,171.45981240000037,171.45981240000037,171.45981240000037,171.45981240000037,171.45981240000037,171.45981240000037,171.45981240000037,171.45981240000037,,003,P009,2025_Feb_01_1428,CategoryLocalizer,2021.2.3,59.888810434119286,
134.0,134.8,4,0.75,Stimuli\ImageFiles-Set1\Scenes\Scenes_056.png,0,0,0,222,222,222,,,,,,,,,,,,,134.01632609999797,0.016326099997968413,None,171.67664030000014,171.67664030000014,171.67664030000014,171.67664030000014,171.67664030000014,171.67664030000014,171.67664030000014,171.67664030000014,,003,P009,2025_Feb_01_1428,CategoryLocalizer,2021.2.3,59.888810434119286,
134.8,135.0,5,0.0,Stimuli\Blank.png,0,0,0,223,223,223,,,,,,,,,,,,,134.81708459999936,0.017084599999350303,None,172.46065290000115,172.46065290000115,172.46065290000115,172.46065290000115,172.46065290000115,172.46065290000115,172.46065290000115,172.46065290000115,,003,P009,2025_Feb_01_1428,CategoryLocalizer,2021.2.3,59.888810434119286,
135.0,135.8,4,0.75,Stimuli\ImageFiles-Set1\Scenes\Scenes_016.png,0,0,0,224,224,224,,,,,,,,,,,,,135.0018995999999,0.0018995999998878688,None,172.66132500000094,172.66132500000094,172.66132500000094,172.66132500000094,172.66132500000094,172.66132500000094,172.66132500000094,172.66132500000094,,003,P009,2025_Feb_01_1428,CategoryLocalizer,2021.2.3,59.888810434119286,
135.8,136.0,5,0.0,Stimuli\Blank.png,0,0,0,225,225,225,,,,,,,,,,,,,135.81812569999965,0.01812569999964353,None,173.46154170000227,173.46154170000227,173.46154170000227,173.46154170000227,173.46154170000227,173.46154170000227,173.46154170000227,173.46154170000227,,003,P009,2025_Feb_01_1428,CategoryLocalizer,2021.2.3,59.888810434119286,
136.0,136.8,2,0.75,Stimuli\ImageFiles-Set1\Bodies\Bodies_Pushing_00005.png,0,0,0,226,226,226,,,,,,,,,,,,,136.00242049999724,0.0024204999972425867,None,173.66174339999998,173.66174339999998,173.66174339999998,173.66174339999998,173.66174339999998,173.66174339999998,173.66174339999998,173.66174339999998,,003,P009,2025_Feb_01_1428,CategoryLocalizer,2021.2.3,59.888810434119286,
136.8,137.0,5,0.0,Stimuli\Blank.png,0,0,0,227,227,227,,,,,,,,,,,,,136.8188771999994,0.018877199999394634,None,174.46241180000288,174.46241180000288,174.46241180000288,174.46241180000288,174.46241180000288,174.46241180000288,174.46241180000288,174.46241180000288,,003,P009,2025_Feb_01_1428,CategoryLocalizer,2021.2.3,59.888810434119286,
137.0,137.8,2,0.75,Stimuli\ImageFiles-Set1\Bodies\Bodies_Standing_00003.png,0,0,0,228,228,228,,,,,,,,,,,,,137.00238779999927,0.002387799999269191,None,174.64592679999987,174.64592679999987,174.64592679999987,174.64592679999987,174.64592679999987,174.64592679999987,174.64592679999987,174.64592679999987,,003,P009,2025_Feb_01_1428,CategoryLocalizer,2021.2.3,59.888810434119286,
137.8,138.0,5,0.0,Stimuli\Blank.png,0,0,0,229,229,229,,,,,,,,,,,,,137.80329639999763,0.0032963999976232117,None,175.4466323000015,175.4466323000015,175.4466323000015,175.4466323000015,175.4466323000015,175.4466323000015,175.4466323000015,175.4466323000015,,003,P009,2025_Feb_01_1428,CategoryLocalizer,2021.2.3,59.888810434119286,
138.0,138.8,2,0.75,Stimuli\ImageFiles-Set1\Bodies\Bodies_PushUp_00004.png,0,0,0,230,230,230,,,,,,,,,,,,,138.00339489999897,0.003394899998966139,None,175.64678220000133,175.64678220000133,175.64678220000133,175.64678220000133,175.64678220000133,175.64678220000133,175.64678220000133,175.64678220000133,,003,P009,2025_Feb_01_1428,CategoryLocalizer,2021.2.3,59.888810434119286,
138.8,139.0,5,0.0,Stimuli\Blank.png,0,0,0,231,231,231,,,,,,,,,,,,,138.80462569999872,0.004625699998712207,None,176.4475194000006,176.4475194000006,176.4475194000006,176.4475194000006,176.4475194000006,176.4475194000006,176.4475194000006,176.4475194000006,,003,P009,2025_Feb_01_1428,CategoryLocalizer,2021.2.3,59.888810434119286,
139.0,139.8,2,0.75,Stimuli\ImageFiles-Set1\Bodies\Bodies_Waving_00007.png,0,0,0,232,232,232,,,,,,,,,,,,,139.0059908000003,0.005990800000290619,None,176.6643855000002,176.6643855000002,176.6643855000002,176.6643855000002,176.6643855000002,176.6643855000002,176.6643855000002,176.6643855000002,,003,P009,2025_Feb_01_1428,CategoryLocalizer,2021.2.3,59.888810434119286,
139.8,140.0,5,0.0,Stimuli\Blank.png,0,0,0,233,233,233,,,,,,,,,,,,,139.82252449999942,0.02252449999940609,None,177.4650322000016,177.4650322000016,177.4650322000016,177.4650322000016,177.4650322000016,177.4650322000016,177.4650322000016,177.4650322000016,,003,P009,2025_Feb_01_1428,CategoryLocalizer,2021.2.3,59.888810434119286,
140.0,140.8,2,0.75,Stimuli\ImageFiles-Set1\Bodies\Bodies_Waving_00007.png,1,1,0,234,234,234,,,,,,,,,,,,,140.00539859999844,0.0053985999984433874,None,177.64857460000349,177.64857460000349,177.64857460000349,177.64857460000349,177.64857460000349,177.64857460000349,177.64857460000349,177.64857460000349,,003,P009,2025_Feb_01_1428,CategoryLocalizer,2021.2.3,59.888810434119286,
140.8,141.0,5,0.0,Stimuli\Blank.png,0,0,0,235,235,235,,,,,,,,,,,,,140.8071104999981,0.007110499998077557,None,178.44929120000234,178.44929120000234,178.44929120000234,178.44929120000234,178.44929120000234,178.44929120000234,178.44929120000234,178.44929120000234,,003,P009,2025_Feb_01_1428,CategoryLocalizer,2021.2.3,59.888810434119286,
141.0,141.8,2,0.75,Stimuli\ImageFiles-Set1\Bodies\Bodies_DownwardDog_00006.png,0,0,0,236,236,236,,,,,,,,,,,,,141.0066044999985,0.006604499998502433,None,178.64946310000232,178.64946310000232,178.64946310000232,178.64946310000232,178.64946310000232,178.64946310000232,178.64946310000232,178.64946310000232,,003,P009,2025_Feb_01_1428,CategoryLocalizer,2021.2.3,59.888810434119286,
141.8,142.0,5,0.0,Stimuli\Blank.png,0,0,0,237,237,237,,,,,,,,,,,,,141.80761490000077,0.007614900000760372,None,179.45021830000042,179.45021830000042,179.45021830000042,179.45021830000042,179.45021830000042,179.45021830000042,179.45021830000042,179.45021830000042,,003,P009,2025_Feb_01_1428,CategoryLocalizer,2021.2.3,59.888810434119286,
142.0,142.8,2,0.75,Stimuli\ImageFiles-Set1\Bodies\Bodies_Standing_00007.png,0,0,0,238,238,238,,,,,,,,,,,,,142.0067940000008,0.006794000000809319,None,179.6503883000005,179.6503883000005,179.6503883000005,179.6503883000005,179.6503883000005,179.6503883000005,179.6503883000005,179.6503883000005,,003,P009,2025_Feb_01_1428,CategoryLocalizer,2021.2.3,59.888810434119286,
142.8,143.0,5,0.0,Stimuli\Blank.png,0,0,0,239,239,239,,,,,,,,,,,,,142.8081448999983,0.008144899998285382,None,180.4510620000001,180.4510620000001,180.4510620000001,180.4510620000001,180.4510620000001,180.4510620000001,180.4510620000001,180.4510620000001,,003,P009,2025_Feb_01_1428,CategoryLocalizer,2021.2.3,59.888810434119286,
143.0,143.8,2,0.75,Stimuli\ImageFiles-Set1\Bodies\Bodies_Kicking_00003.png,0,0,0,240,240,240,,,,,,,,,,,,,143.00841030000083,0.008410300000832649,None,180.65123570000287,180.65123570000287,180.65123570000287,180.65123570000287,180.65123570000287,180.65123570000287,180.65123570000287,180.65123570000287,,003,P009,2025_Feb_01_1428,CategoryLocalizer,2021.2.3,59.888810434119286,
143.8,144.0,5,0.0,Stimuli\Blank.png,0,0,0,241,241,241,,,,,,,,,,,,,143.80855499999961,0.008554999999603297,None,181.45192300000053,181.45192300000053,181.45192300000053,181.45192300000053,181.45192300000053,181.45192300000053,181.45192300000053,181.45192300000053,,003,P009,2025_Feb_01_1428,CategoryLocalizer,2021.2.3,59.888810434119286,
144.0,144.8,2,0.75,Stimuli\ImageFiles-Set1\Bodies\Bodies_CobraPose_00001.png,0,0,0,242,242,242,,,,,,,,,,,,,144.00856519999797,0.00856519999797456,None,181.65212570000222,181.65212570000222,181.65212570000222,181.65212570000222,181.65212570000222,181.65212570000222,181.65212570000222,181.65212570000222,,003,P009,2025_Feb_01_1428,CategoryLocalizer,2021.2.3,59.888810434119286,
144.8,145.0,5,0.0,Stimuli\Blank.png,0,0,0,243,243,243,,,,,,,,,,,,,144.80985729999884,0.009857299998827784,None,182.452873000002,182.452873000002,182.452873000002,182.452873000002,182.452873000002,182.452873000002,182.452873000002,182.452873000002,,003,P009,2025_Feb_01_1428,CategoryLocalizer,2021.2.3,59.888810434119286,
145.0,145.8,2,0.75,Stimuli\ImageFiles-Set1\Bodies\Bodies_Kicking_00005.png,0,0,0,244,244,244,,,,,,,,,,,,,145.01128679999965,0.01128679999965243,None,182.6696875000016,182.6696875000016,182.6696875000016,182.6696875000016,182.6696875000016,182.6696875000016,182.6696875000016,182.6696875000016,,003,P009,2025_Feb_01_1428,CategoryLocalizer,2021.2.3,59.888810434119286,
145.8,146.0,5,0.0,Stimuli\Blank.png,0,0,0,245,245,245,,,,,,,,,,,,,145.82764440000028,0.027644400000269798,None,183.47039860000223,183.47039860000223,183.47039860000223,183.47039860000223,183.47039860000223,183.47039860000223,183.47039860000223,183.47039860000223,,003,P009,2025_Feb_01_1428,CategoryLocalizer,2021.2.3,59.888810434119286,
146.0,146.8,2,0.75,Stimuli\ImageFiles-Set1\Bodies\Bodies_Lunging_00001.png,0,0,0,246,246,246,,,,,,,,,,,,,146.01118519999727,0.011185199997271411,None,183.65392130000328,183.65392130000328,183.65392130000328,183.65392130000328,183.65392130000328,183.65392130000328,183.65392130000328,183.65392130000328,,003,P009,2025_Feb_01_1428,CategoryLocalizer,2021.2.3,59.888810434119286,
146.8,147.0,5,0.0,Stimuli\Blank.png,0,0,0,247,247,247,,,,,,,,,,,,,146.81209579999995,0.012095799999940482,None,184.45461570000043,184.45461570000043,184.45461570000043,184.45461570000043,184.45461570000043,184.45461570000043,184.45461570000043,184.45461570000043,,003,P009,2025_Feb_01_1428,CategoryLocalizer,2021.2.3,59.888810434119286,
147.0,147.8,2,0.75,Stimuli\ImageFiles-Set1\Bodies\Bodies_QuadStretch_00005.png,0,0,0,248,248,248,,,,,,,,,,,,,147.01193359999888,0.011933599998883437,None,184.6547825000016,184.6547825000016,184.6547825000016,184.6547825000016,184.6547825000016,184.6547825000016,184.6547825000016,184.6547825000016,,003,P009,2025_Feb_01_1428,CategoryLocalizer,2021.2.3,59.888810434119286,
147.8,148.0,5,0.0,Stimuli\Blank.png,0,0,0,249,249,249,,,,,,,,,,,,,147.8127889999996,0.012788999999600037,None,185.45548690000214,185.45548690000214,185.45548690000214,185.45548690000214,185.45548690000214,185.45548690000214,185.45548690000214,185.45548690000214,,003,P009,2025_Feb_01_1428,CategoryLocalizer,2021.2.3,59.888810434119286,
148.0,148.8,2,0.75,Stimuli\ImageFiles-Set1\Bodies\Bodies_DownwardDog_00007.png,0,0,0,250,250,250,,,,,,,,,,,,,148.01265489999787,0.012654899997869506,None,185.6556565000028,185.6556565000028,185.6556565000028,185.6556565000028,185.6556565000028,185.6556565000028,185.6556565000028,185.6556565000028,,003,P009,2025_Feb_01_1428,CategoryLocalizer,2021.2.3,59.888810434119286,
148.8,149.0,5,0.0,Stimuli\Blank.png,0,0,0,251,251,251,,,,,,,,,,,,,148.81308669999999,0.013086699999973916,None,186.4564210000026,186.4564210000026,186.4564210000026,186.4564210000026,186.4564210000026,186.4564210000026,186.4564210000026,186.4564210000026,,003,P009,2025_Feb_01_1428,CategoryLocalizer,2021.2.3,59.888810434119286,
149.0,149.8,2,0.75,Stimuli\ImageFiles-Set1\Bodies\Bodies_Punching_00006.png,0,0,0,252,252,252,,,,,,,,,,,,,149.01298870000028,0.012988700000278186,None,186.65654600000198,186.65654600000198,186.65654600000198,186.65654600000198,186.65654600000198,186.65654600000198,186.65654600000198,186.65654600000198,,003,P009,2025_Feb_01_1428,CategoryLocalizer,2021.2.3,59.888810434119286,
149.8,150.0,5,0.0,Stimuli\Blank.png,0,0,0,253,253,253,,,,,,,,,,,,,149.8158994999976,0.01589949999760165,None,187.45728750000126,187.45728750000126,187.45728750000126,187.45728750000126,187.45728750000126,187.45728750000126,187.45728750000126,187.45728750000126,,003,P009,2025_Feb_01_1428,CategoryLocalizer,2021.2.3,59.888810434119286,
150.0,150.8,2,0.75,Stimuli\ImageFiles-Set1\Bodies\Bodies_Kneeling_00005.png,0,0,0,254,254,254,,,,,,,,,,,,,149.9980011000007,-0.0019988999993074685,None,187.65745600000082,187.65745600000082,187.65745600000082,187.65745600000082,187.65745600000082,187.65745600000082,187.65745600000082,187.65745600000082,,003,P009,2025_Feb_01_1428,CategoryLocalizer,2021.2.3,59.888810434119286,
150.8,151.0,5,0.0,Stimuli\Blank.png,0,0,0,255,255,255,,,,,,,,,,,,,150.83180150000044,0.031801500000426586,None,188.47482380000292,188.47482380000292,188.47482380000292,188.47482380000292,188.47482380000292,188.47482380000292,188.47482380000292,188.47482380000292,,003,P009,2025_Feb_01_1428,CategoryLocalizer,2021.2.3,59.888810434119286,
151.0,151.8,2,0.75,Stimuli\ImageFiles-Set1\Bodies\Bodies_Crawling_00001.png,0,0,0,256,256,256,,,,,,,,,,,,,151.0153989999999,0.015398999999888474,None,188.65832850000152,188.65832850000152,188.65832850000152,188.65832850000152,188.65832850000152,188.65832850000152,188.65832850000152,188.65832850000152,,003,P009,2025_Feb_01_1428,CategoryLocalizer,2021.2.3,59.888810434119286,
151.8,152.0,5,0.0,Stimuli\Blank.png,0,0,0,257,257,257,,,,,,,,,,,,,151.80102310000075,0.0010231000007365765,None,189.45904970000265,189.45904970000265,189.45904970000265,189.45904970000265,189.45904970000265,189.45904970000265,189.45904970000265,189.45904970000265,,003,P009,2025_Feb_01_1428,CategoryLocalizer,2021.2.3,59.888810434119286,
152.0,164.0,0,0.0,Stimuli\Blank.png,0,0,0,258,258,258,,,,,,,,,,,,,152.0157803000002,0.015780300000187708,None,189.65920050000204,189.65920050000204,189.65920050000204,189.65920050000204,189.65920050000204,189.65920050000204,189.65920050000204,189.65920050000204,,003,P009,2025_Feb_01_1428,CategoryLocalizer,2021.2.3,59.888810434119286,
164.0,164.8,4,0.75,Stimuli\ImageFiles-Set1\Scenes\Scenes_023.png,0,0,0,259,259,259,,,,,,,,,,,,,164.01134280000042,0.011342800000420539,None,201.66985980000027,201.66985980000027,201.66985980000027,201.66985980000027,201.66985980000027,201.66985980000027,201.66985980000027,201.66985980000027,,003,P009,2025_Feb_01_1428,CategoryLocalizer,2021.2.3,59.888810434119286,
164.8,165.0,5,0.0,Stimuli\Blank.png,0,0,0,260,260,260,,,,,,,,,,,,,164.82707709999886,0.027077099998848553,None,202.47153230000185,202.47153230000185,202.47153230000185,202.47153230000185,202.47153230000185,202.47153230000185,202.47153230000185,202.47153230000185,,003,P009,2025_Feb_01_1428,CategoryLocalizer,2021.2.3,59.888810434119286,
165.0,165.8,4,0.75,Stimuli\ImageFiles-Set1\Scenes\Scenes_023.png,1,1,0,261,261,261,,,,,,,,,,,,,165.01088030000028,0.01088030000028084,1,202.65402710000126,202.65402710000126,202.65402710000126,202.65402710000126,202.65402710000126,202.65402710000126,202.65402710000126,202.65402710000126,0.5105771999988065,003,P009,2025_Feb_01_1428,CategoryLocalizer,2021.2.3,59.888810434119286,
165.8,166.0,5,0.0,Stimuli\Blank.png,0,0,0,262,262,262,,,,,,,,,,,,,165.811974799999,0.011974799998995422,None,203.45475360000273,203.45475360000273,203.45475360000273,203.45475360000273,203.45475360000273,203.45475360000273,203.45475360000273,203.45475360000273,,003,P009,2025_Feb_01_1428,CategoryLocalizer,2021.2.3,59.888810434119286,
166.0,166.8,4,0.75,Stimuli\ImageFiles-Set1\Scenes\Scenes_046.png,0,0,0,263,263,263,,,,,,,,,,,,,166.01234660000046,0.01234660000045551,None,203.67160160000276,203.67160160000276,203.67160160000276,203.67160160000276,203.67160160000276,203.67160160000276,203.67160160000276,203.67160160000276,,003,P009,2025_Feb_01_1428,CategoryLocalizer,2021.2.3,59.888810434119286,
166.8,167.0,5,0.0,Stimuli\Blank.png,0,0,0,264,264,264,,,,,,,,,,,,,166.82960479999747,0.029604799997457576,None,204.4723193000027,204.4723193000027,204.4723193000027,204.4723193000027,204.4723193000027,204.4723193000027,204.4723193000027,204.4723193000027,,003,P009,2025_Feb_01_1428,CategoryLocalizer,2021.2.3,59.888810434119286,
167.0,167.8,4,0.75,Stimuli\ImageFiles-Set1\Scenes\Scenes_043.png,0,0,0,265,265,265,,,,,,,,,,,,,167.0132726999982,0.013272699998196913,None,204.67318920000253,204.67318920000253,204.67318920000253,204.67318920000253,204.67318920000253,204.67318920000253,204.67318920000253,204.67318920000253,,003,P009,2025_Feb_01_1428,CategoryLocalizer,2021.2.3,59.888810434119286,
167.8,168.0,5,0.0,Stimuli\Blank.png,0,0,0,266,266,266,,,,,,,,,,,,,167.83145850000074,0.03145850000072414,None,205.4898839000016,205.4898839000016,205.4898839000016,205.4898839000016,205.4898839000016,205.4898839000016,205.4898839000016,205.4898839000016,,003,P009,2025_Feb_01_1428,CategoryLocalizer,2021.2.3,59.888810434119286,
168.0,168.8,4,0.75,Stimuli\ImageFiles-Set1\Scenes\Scenes_014.png,0,0,0,267,267,267,,,,,,,,,,,,,168.03062139999747,0.0306213999974716,None,205.690046300002,205.690046300002,205.690046300002,205.690046300002,205.690046300002,205.690046300002,205.690046300002,205.690046300002,,003,P009,2025_Feb_01_1428,CategoryLocalizer,2021.2.3,59.888810434119286,
168.8,169.0,5,0.0,Stimuli\Blank.png,0,0,0,268,268,268,,,,,,,,,,,,,168.83057039999767,0.030570399997657205,None,206.4741348000025,206.4741348000025,206.4741348000025,206.4741348000025,206.4741348000025,206.4741348000025,206.4741348000025,206.4741348000025,,003,P009,2025_Feb_01_1428,CategoryLocalizer,2021.2.3,59.888810434119286,
169.0,169.8,4,0.75,Stimuli\ImageFiles-Set1\Scenes\Scenes_049.png,0,0,0,269,269,269,,,,,,,,,,,,,169.01590899999792,0.015908999997918727,None,206.6742544000008,206.6742544000008,206.6742544000008,206.6742544000008,206.6742544000008,206.6742544000008,206.6742544000008,206.6742544000008,,003,P009,2025_Feb_01_1428,CategoryLocalizer,2021.2.3,59.888810434119286,
169.8,170.0,5,0.0,Stimuli\Blank.png,0,0,0,270,270,270,,,,,,,,,,,,,169.81714009999996,0.017140099999949143,None,207.47499250000328,207.47499250000328,207.47499250000328,207.47499250000328,207.47499250000328,207.47499250000328,207.47499250000328,207.47499250000328,,003,P009,2025_Feb_01_1428,CategoryLocalizer,2021.2.3,59.888810434119286,
170.0,170.8,4,0.75,Stimuli\ImageFiles-Set1\Scenes\Scenes_039.png,0,0,0,271,271,271,,,,,,,,,,,,,170.01494420000017,0.014944200000172714,None,207.65845660000195,207.65845660000195,207.65845660000195,207.65845660000195,207.65845660000195,207.65845660000195,207.65845660000195,207.65845660000195,,003,P009,2025_Feb_01_1428,CategoryLocalizer,2021.2.3,59.888810434119286,
170.8,171.0,5,0.0,Stimuli\Blank.png,0,0,0,272,272,272,,,,,,,,,,,,,170.79958139999871,-0.00041860000129645414,None,208.44252480000068,208.44252480000068,208.44252480000068,208.44252480000068,208.44252480000068,208.44252480000068,208.44252480000068,208.44252480000068,,003,P009,2025_Feb_01_1428,CategoryLocalizer,2021.2.3,59.888810434119286,
171.0,171.8,4,0.75,Stimuli\ImageFiles-Set1\Scenes\Scenes_035.png,0,0,0,273,273,273,,,,,,,,,,,,,171.00105839999742,0.0010583999974187464,None,208.65934610000113,208.65934610000113,208.65934610000113,208.65934610000113,208.65934610000113,208.65934610000113,208.65934610000113,208.65934610000113,,003,P009,2025_Feb_01_1428,CategoryLocalizer,2021.2.3,59.888810434119286,
171.8,172.0,5,0.0,Stimuli\Blank.png,0,0,0,274,274,274,,,,,,,,,,,,,171.81741239999974,0.017412399999727768,None,209.46007060000193,209.46007060000193,209.46007060000193,209.46007060000193,209.46007060000193,209.46007060000193,209.46007060000193,209.46007060000193,,003,P009,2025_Feb_01_1428,CategoryLocalizer,2021.2.3,59.888810434119286,
172.0,172.8,4,0.75,Stimuli\ImageFiles-Set1\Scenes\Scenes_002.png,0,0,0,275,275,275,,,,,,,,,,,,,172.0012586999983,0.0012586999982886482,None,209.660787300003,209.660787300003,209.660787300003,209.660787300003,209.660787300003,209.660787300003,209.660787300003,209.660787300003,,003,P009,2025_Feb_01_1428,CategoryLocalizer,2021.2.3,59.888810434119286,
172.8,173.0,5,0.0,Stimuli\Blank.png,0,0,0,276,276,276,,,,,,,,,,,,,172.8175463999978,0.017546399997797835,None,210.46094750000339,210.46094750000339,210.46094750000339,210.46094750000339,210.46094750000339,210.46094750000339,210.46094750000339,210.46094750000339,,003,P009,2025_Feb_01_1428,CategoryLocalizer,2021.2.3,59.888810434119286,
173.0,173.8,4,0.75,Stimuli\ImageFiles-Set1\Scenes\Scenes_011.png,0,0,0,277,277,277,,,,,,,,,,,,,173.00197969999863,0.001979699998628348,None,210.66112080000312,210.66112080000312,210.66112080000312,210.66112080000312,210.66112080000312,210.66112080000312,210.66112080000312,210.66112080000312,,003,P009,2025_Feb_01_1428,CategoryLocalizer,2021.2.3,59.888810434119286,
173.8,174.0,5,0.0,Stimuli\Blank.png,0,0,0,278,278,278,,,,,,,,,,,,,173.8184039000007,0.01840390000069192,None,211.46182520000002,211.46182520000002,211.46182520000002,211.46182520000002,211.46182520000002,211.46182520000002,211.46182520000002,211.46182520000002,,003,P009,2025_Feb_01_1428,CategoryLocalizer,2021.2.3,59.888810434119286,
174.0,174.8,4,0.75,Stimuli\ImageFiles-Set1\Scenes\Scenes_018.png,0,0,0,279,279,279,,,,,,,,,,,,,174.00196320000032,0.0019632000003184658,None,211.66200550000212,211.66200550000212,211.66200550000212,211.66200550000212,211.66200550000212,211.66200550000212,211.66200550000212,211.66200550000212,,003,P009,2025_Feb_01_1428,CategoryLocalizer,2021.2.3,59.888810434119286,
174.8,175.0,5,0.0,Stimuli\Blank.png,0,0,0,280,280,280,,,,,,,,,,,,,174.81982749999952,0.019827499999507836,None,212.4627212000014,212.4627212000014,212.4627212000014,212.4627212000014,212.4627212000014,212.4627212000014,212.4627212000014,212.4627212000014,,003,P009,2025_Feb_01_1428,CategoryLocalizer,2021.2.3,59.888810434119286,
175.0,175.8,4,0.75,Stimuli\ImageFiles-Set1\Scenes\Scenes_024.png,0,0,0,281,281,281,,,,,,,,,,,,,175.0027958999999,0.0027958999999100342,None,212.64619750000202,212.64619750000202,212.64619750000202,212.64619750000202,212.64619750000202,212.64619750000202,212.64619750000202,212.64619750000202,,003,P009,2025_Feb_01_1428,CategoryLocalizer,2021.2.3,59.888810434119286,
175.8,176.0,5,0.0,Stimuli\Blank.png,0,0,0,282,282,282,,,,,,,,,,,,,175.80639619999783,0.00639619999782326,None,213.46360000000277,213.46360000000277,213.46360000000277,213.46360000000277,213.46360000000277,213.46360000000277,213.46360000000277,213.46360000000277,,003,P009,2025_Feb_01_1428,CategoryLocalizer,2021.2.3,59.888810434119286,
176.0,176.8,4,0.75,Stimuli\ImageFiles-Set1\Scenes\Scenes_052.png,1,1,0,283,283,283,,,,,,,,,,,,,176.02102670000022,0.021026700000220444,None,213.66377790000115,213.66377790000115,213.66377790000115,213.66377790000115,213.66377790000115,213.66377790000115,213.66377790000115,213.66377790000115,,003,P009,2025_Feb_01_1428,CategoryLocalizer,2021.2.3,59.888810434119286,
176.8,177.0,5,0.0,Stimuli\Blank.png,0,0,0,284,284,284,,,,,,,,,,,,,176.8060635999973,0.006063599997276015,None,214.46449300000313,214.46449300000313,214.46449300000313,214.46449300000313,214.46449300000313,214.46449300000313,214.46449300000313,214.46449300000313,,003,P009,2025_Feb_01_1428,CategoryLocalizer,2021.2.3,59.888810434119286,
