eventStartTime,eventEndTime,eventCond,imSize,imFile,repeatedImage,responseEvent,Events.thisRepN,Events.thisTrialN,Events.thisN,Events.thisIndex,Instructions.started,Instructions.stopped,participantReadyResponse.keys,participantReadyResponse.rt,participantReadyResponse.started,participantReadyResponse.stopped,startWaitforTrigger,triggerResponse.keys,triggerResponse.rt,triggerResponse.started,triggerResponse.stopped,globalTimer,actualStartTime,startTimingDiff,participantResponse.keys,participantResponse.started,participantResponse.stopped,image.started,image.stopped,fixationOutside.started,fixationOutside.stopped,fixationInside.started,fixationInside.stopped,participantResponse.rt,session,participant,date,expName,psychopyVersion,frameRate,
,,,,,,,,,,,12.665697500000533,None,1,9.248717900001793,12.665697500000533,None,,,,,,,,,,,,,,,,,,,002,P009,2025_Feb_01_1400,CategoryLocalizer,2021.2.3,59.943018166569075,
,,,,,,,,,,,,,,,,,21.92944500000158,5,13.80867009999929,21.942742200000794,None,,,,,,,,,,,,,,002,P009,2025_Feb_01_1400,CategoryLocalizer,2021.2.3,59.943018166569075,
0.0,12.0,0,0.0,Stimuli\Blank.png,0,0,0,0,0,0,,,,,,,,,,,,35.758454800001346,0.05979990000196267,0.05979990000196267,None,35.83836220000012,None,35.83836220000012,None,35.83836220000012,None,35.83836220000012,None,,002,P009,2025_Feb_01_1400,CategoryLocalizer,2021.2.3,59.943018166569075,
12.0,12.8,1,0.75,Stimuli\ImageFiles-Set2\Objects\Object_Bowl_00001.png,0,0,0,1,1,1,,,,,,,,,,,,,12.010086500002217,0.01008650000221678,None,47.78226060000088,47.78226060000088,47.78226060000088,47.78226060000088,47.78226060000088,47.78226060000088,47.78226060000088,47.78226060000088,,002,P009,2025_Feb_01_1400,CategoryLocalizer,2021.2.3,59.943018166569075,
12.8,13.0,5,0.0,Stimuli\Blank.png,0,0,0,2,2,2,,,,,,,,,,,,,12.809782000000268,0.009782000000267743,None,48.58297730000049,48.58297730000049,48.58297730000049,48.58297730000049,48.58297730000049,48.58297730000049,48.58297730000049,48.58297730000049,,002,P009,2025_Feb_01_1400,CategoryLocalizer,2021.2.3,59.943018166569075,
13.0,13.8,1,0.75,Stimuli\ImageFiles-Set2\Objects\Object_ArmChair_00001.png,0,0,0,3,3,3,,,,,,,,,,,,,13.010816900001373,0.010816900001373142,None,48.7998305000001,48.7998305000001,48.7998305000001,48.7998305000001,48.7998305000001,48.7998305000001,48.7998305000001,48.7998305000001,,002,P009,2025_Feb_01_1400,CategoryLocalizer,2021.2.3,59.943018166569075,
13.8,14.0,5,0.0,Stimuli\Blank.png,0,0,0,4,4,4,,,,,,,,,,,,,13.82738690000042,0.02738690000041899,None,49.600547100002586,49.600547100002586,49.600547100002586,49.600547100002586,49.600547100002586,49.600547100002586,49.600547100002586,49.600547100002586,,002,P009,2025_Feb_01_1400,CategoryLocalizer,2021.2.3,59.943018166569075,
14.0,14.8,1,0.75,Stimuli\ImageFiles-Set2\Objects\Object_Pin_00001.png,0,0,0,5,5,5,,,,,,,,,,,,,14.011317299999064,0.011317299999063835,None,49.78402869999991,49.78402869999991,49.78402869999991,49.78402869999991,49.78402869999991,49.78402869999991,49.78402869999991,49.78402869999991,,002,P009,2025_Feb_01_1400,CategoryLocalizer,2021.2.3,59.943018166569075,
14.8,15.0,5,0.0,Stimuli\Blank.png,0,0,0,6,6,6,,,,,,,,,,,,,14.81240660000185,0.012406600001849455,None,50.58474860000206,50.58474860000206,50.58474860000206,50.58474860000206,50.58474860000206,50.58474860000206,50.58474860000206,50.58474860000206,,002,P009,2025_Feb_01_1400,CategoryLocalizer,2021.2.3,59.943018166569075,
15.0,15.8,1,0.75,Stimuli\ImageFiles-Set2\Objects\Object_Wheelchair_00001.png,0,0,0,7,7,7,,,,,,,,,,,,,15.01184750000175,0.011847500001749722,None,50.80161439999938,50.80161439999938,50.80161439999938,50.80161439999938,50.80161439999938,50.80161439999938,50.80161439999938,50.80161439999938,,002,P009,2025_Feb_01_1400,CategoryLocalizer,2021.2.3,59.943018166569075,
15.8,16.0,5,0.0,Stimuli\Blank.png,0,0,0,8,8,8,,,,,,,,,,,,,15.82988259999911,0.029882599999108805,None,51.6023153999995,51.6023153999995,51.6023153999995,51.6023153999995,51.6023153999995,51.6023153999995,51.6023153999995,51.6023153999995,,002,P009,2025_Feb_01_1400,CategoryLocalizer,2021.2.3,59.943018166569075,
16.0,16.8,1,0.75,Stimuli\ImageFiles-Set2\Objects\Object_Lawnmower_00001.png,0,0,0,9,9,9,,,,,,,,,,,,,16.01496110000153,0.014961100001528393,None,51.8024903000005,51.8024903000005,51.8024903000005,51.8024903000005,51.8024903000005,51.8024903000005,51.8024903000005,51.8024903000005,,002,P009,2025_Feb_01_1400,CategoryLocalizer,2021.2.3,59.943018166569075,
16.8,17.0,5,0.0,Stimuli\Blank.png,0,0,0,10,10,10,,,,,,,,,,,,,16.829990199999884,0.02999019999988306,None,52.60320580000189,52.60320580000189,52.60320580000189,52.60320580000189,52.60320580000189,52.60320580000189,52.60320580000189,52.60320580000189,,002,P009,2025_Feb_01_1400,CategoryLocalizer,2021.2.3,59.943018166569075,
17.0,17.8,1,0.75,Stimuli\ImageFiles-Set2\Objects\Object_Plate_00001.png,0,0,0,11,11,11,,,,,,,,,,,,,17.01441530000011,0.01441530000010971,None,52.78669340000124,52.78669340000124,52.78669340000124,52.78669340000124,52.78669340000124,52.78669340000124,52.78669340000124,52.78669340000124,,002,P009,2025_Feb_01_1400,CategoryLocalizer,2021.2.3,59.943018166569075,
17.8,18.0,5,0.0,Stimuli\Blank.png,0,0,0,12,12,12,,,,,,,,,,,,,17.815512500001205,0.015512500001204188,None,53.60409609999988,53.60409609999988,53.60409609999988,53.60409609999988,53.60409609999988,53.60409609999988,53.60409609999988,53.60409609999988,,002,P009,2025_Feb_01_1400,CategoryLocalizer,2021.2.3,59.943018166569075,
18.0,18.8,1,0.75,Stimuli\ImageFiles-Set2\Objects\Object_Strawberry_00001.png,0,0,0,13,13,13,,,,,,,,,,,,,18.031097700000828,0.0310977000008279,None,53.82096889999957,53.82096889999957,53.82096889999957,53.82096889999957,53.82096889999957,53.82096889999957,53.82096889999957,53.82096889999957,,002,P009,2025_Feb_01_1400,CategoryLocalizer,2021.2.3,59.943018166569075,
18.8,19.0,5,0.0,Stimuli\Blank.png,0,0,0,14,14,14,,,,,,,,,,,,,18.831958900002064,0.03195890000206347,None,54.604973500001506,54.604973500001506,54.604973500001506,54.604973500001506,54.604973500001506,54.604973500001506,54.604973500001506,54.604973500001506,,002,P009,2025_Feb_01_1400,CategoryLocalizer,2021.2.3,59.943018166569075,
19.0,19.8,1,0.75,Stimuli\ImageFiles-Set2\Objects\Object_Grill_00001.png,0,0,0,15,15,15,,,,,,,,,,,,,19.000394300001062,0.00039430000106221996,None,54.77177710000251,54.77177710000251,54.77177710000251,54.77177710000251,54.77177710000251,54.77177710000251,54.77177710000251,54.77177710000251,,002,P009,2025_Feb_01_1400,CategoryLocalizer,2021.2.3,59.943018166569075,
19.8,20.0,5,0.0,Stimuli\Blank.png,0,0,0,16,16,16,,,,,,,,,,,,,19.80016610000166,0.0001661000016603964,None,55.572489599999244,55.572489599999244,55.572489599999244,55.572489599999244,55.572489599999244,55.572489599999244,55.572489599999244,55.572489599999244,,002,P009,2025_Feb_01_1400,CategoryLocalizer,2021.2.3,59.943018166569075,
20.0,20.8,1,0.75,Stimuli\ImageFiles-Set2\Objects\Object_Jar_00001.png,0,0,0,17,17,17,,,,,,,,,,,,,19.99960590000046,-0.0003940999995393213,None,55.77262580000024,55.77262580000024,55.77262580000024,55.77262580000024,55.77262580000024,55.77262580000024,55.77262580000024,55.77262580000024,,002,P009,2025_Feb_01_1400,CategoryLocalizer,2021.2.3,59.943018166569075,
20.8,21.0,5,0.0,Stimuli\Blank.png,0,0,0,18,18,18,,,,,,,,,,,,,20.80105360000016,0.0010536000001586387,None,56.57337240000197,56.57337240000197,56.57337240000197,56.57337240000197,56.57337240000197,56.57337240000197,56.57337240000197,56.57337240000197,,002,P009,2025_Feb_01_1400,CategoryLocalizer,2021.2.3,59.943018166569075,
21.0,21.8,1,0.75,Stimuli\ImageFiles-Set2\Objects\Object_Dishwasher_00001.png,0,0,0,19,19,19,,,,,,,,,,,,,21.00045780000073,0.0004578000007313676,None,56.773550000001705,56.773550000001705,56.773550000001705,56.773550000001705,56.773550000001705,56.773550000001705,56.773550000001705,56.773550000001705,,002,P009,2025_Feb_01_1400,CategoryLocalizer,2021.2.3,59.943018166569075,
21.8,22.0,5,0.0,Stimuli\Blank.png,0,0,0,20,20,20,,,,,,,,,,,,,21.801761099999567,0.0017610999995660848,None,57.57439180000074,57.57439180000074,57.57439180000074,57.57439180000074,57.57439180000074,57.57439180000074,57.57439180000074,57.57439180000074,,002,P009,2025_Feb_01_1400,CategoryLocalizer,2021.2.3,59.943018166569075,
22.0,22.8,1,0.75,Stimuli\ImageFiles-Set2\Objects\Object_Mailbox_00001.png,0,0,0,21,21,21,,,,,,,,,,,,,22.001415599999746,0.0014155999997456092,None,57.774482400000124,57.774482400000124,57.774482400000124,57.774482400000124,57.774482400000124,57.774482400000124,57.774482400000124,57.774482400000124,,002,P009,2025_Feb_01_1400,CategoryLocalizer,2021.2.3,59.943018166569075,
22.8,23.0,5,0.0,Stimuli\Blank.png,0,0,0,22,22,22,,,,,,,,,,,,,22.801958700001705,0.0019587000017047274,None,58.57514330000049,58.57514330000049,58.57514330000049,58.57514330000049,58.57514330000049,58.57514330000049,58.57514330000049,58.57514330000049,,002,P009,2025_Feb_01_1400,CategoryLocalizer,2021.2.3,59.943018166569075,
23.0,23.8,1,0.75,Stimuli\ImageFiles-Set2\Objects\Object_Mailbox_00001.png,1,1,0,23,23,23,,,,,,,,,,,,,23.004838400000153,0.004838400000153342,1,58.79200210000272,58.79200210000272,58.79200210000272,58.79200210000272,58.79200210000272,58.79200210000272,58.79200210000272,58.79200210000272,0.6470731999979762,002,P009,2025_Feb_01_1400,CategoryLocalizer,2021.2.3,59.943018166569075,
23.8,24.0,5,0.0,Stimuli\Blank.png,0,0,0,24,24,24,,,,,,,,,,,,,23.821482300001662,0.021482300001661514,None,59.59279850000166,59.59279850000166,59.59279850000166,59.59279850000166,59.59279850000166,59.59279850000166,59.59279850000166,59.59279850000166,,002,P009,2025_Feb_01_1400,CategoryLocalizer,2021.2.3,59.943018166569075,
24.0,24.8,1,0.75,Stimuli\ImageFiles-Set2\Objects\Object_Ladder_00001.png,0,0,0,25,25,25,,,,,,,,,,,,,24.00298649999968,0.0029864999996789265,None,59.77627489999941,59.77627489999941,59.77627489999941,59.77627489999941,59.77627489999941,59.77627489999941,59.77627489999941,59.77627489999941,,002,P009,2025_Feb_01_1400,CategoryLocalizer,2021.2.3,59.943018166569075,
24.8,25.0,5,0.0,Stimuli\Blank.png,0,0,0,26,26,26,,,,,,,,,,,,,24.805488800000603,0.005488800000602367,None,60.59362820000024,60.59362820000024,60.59362820000024,60.59362820000024,60.59362820000024,60.59362820000024,60.59362820000024,60.59362820000024,,002,P009,2025_Feb_01_1400,CategoryLocalizer,2021.2.3,59.943018166569075,
25.0,25.8,1,0.75,Stimuli\ImageFiles-Set2\Objects\Object_Glass_00001.png,0,0,0,27,27,27,,,,,,,,,,,,,25.02116659999956,0.021166599999560276,None,60.79377179999938,60.79377179999938,60.79377179999938,60.79377179999938,60.79377179999938,60.79377179999938,60.79377179999938,60.79377179999938,,002,P009,2025_Feb_01_1400,CategoryLocalizer,2021.2.3,59.943018166569075,
25.8,26.0,5,0.0,Stimuli\Blank.png,0,0,0,28,28,28,,,,,,,,,,,,,25.805685400002403,0.005685400002402474,None,61.57780130000174,61.57780130000174,61.57780130000174,61.57780130000174,61.57780130000174,61.57780130000174,61.57780130000174,61.57780130000174,,002,P009,2025_Feb_01_1400,CategoryLocalizer,2021.2.3,59.943018166569075,
26.0,26.8,1,0.75,Stimuli\ImageFiles-Set2\Objects\Object_Hamburger_00001.png,0,0,0,29,29,29,,,,,,,,,,,,,26.00526770000215,0.005267700002150377,None,61.77798579999944,61.77798579999944,61.77798579999944,61.77798579999944,61.77798579999944,61.77798579999944,61.77798579999944,61.77798579999944,,002,P009,2025_Feb_01_1400,CategoryLocalizer,2021.2.3,59.943018166569075,
26.8,27.0,5,0.0,Stimuli\Blank.png,0,0,0,30,30,30,,,,,,,,,,,,,26.80623800000103,0.006238000001030031,None,62.578675400000066,62.578675400000066,62.578675400000066,62.578675400000066,62.578675400000066,62.578675400000066,62.578675400000066,62.578675400000066,,002,P009,2025_Feb_01_1400,CategoryLocalizer,2021.2.3,59.943018166569075,
27.0,27.8,1,0.75,Stimuli\ImageFiles-Set2\Objects\Object_Fork_00001.png,0,0,0,31,31,31,,,,,,,,,,,,,27.005873500002053,0.0058735000020533334,None,62.778868900000816,62.778868900000816,62.778868900000816,62.778868900000816,62.778868900000816,62.778868900000816,62.778868900000816,62.778868900000816,,002,P009,2025_Feb_01_1400,CategoryLocalizer,2021.2.3,59.943018166569075,
27.8,28.0,5,0.0,Stimuli\Blank.png,0,0,0,32,32,32,,,,,,,,,,,,,27.80650489999971,0.006504899999708158,None,63.579566200001864,63.579566200001864,63.579566200001864,63.579566200001864,63.579566200001864,63.579566200001864,63.579566200001864,63.579566200001864,,002,P009,2025_Feb_01_1400,CategoryLocalizer,2021.2.3,59.943018166569075,
28.0,28.8,2,0.75,Stimuli\ImageFiles-Set2\Bodies\Bodies_SittingChair_00006.png,0,0,0,33,33,33,,,,,,,,,,,,,28.00719989999925,0.007199899999250192,None,63.79641880000054,63.79641880000054,63.79641880000054,63.79641880000054,63.79641880000054,63.79641880000054,63.79641880000054,63.79641880000054,,002,P009,2025_Feb_01_1400,CategoryLocalizer,2021.2.3,59.943018166569075,
28.8,29.0,5,0.0,Stimuli\Blank.png,0,0,0,34,34,34,,,,,,,,,,,,,28.824508100002276,0.024508100002275768,None,64.59714069999973,64.59714069999973,64.59714069999973,64.59714069999973,64.59714069999973,64.59714069999973,64.59714069999973,64.59714069999973,,002,P009,2025_Feb_01_1400,CategoryLocalizer,2021.2.3,59.943018166569075,
29.0,29.8,2,0.75,Stimuli\ImageFiles-Set2\Bodies\Bodies_Punching_00005.png,0,0,0,35,35,35,,,,,,,,,,,,,29.008192600002076,0.008192600002075778,None,64.7806488999995,64.7806488999995,64.7806488999995,64.7806488999995,64.7806488999995,64.7806488999995,64.7806488999995,64.7806488999995,,002,P009,2025_Feb_01_1400,CategoryLocalizer,2021.2.3,59.943018166569075,
29.8,30.0,5,0.0,Stimuli\Blank.png,0,0,0,36,36,36,,,,,,,,,,,,,29.811025700000755,0.011025700000754313,None,65.59802630000195,65.59802630000195,65.59802630000195,65.59802630000195,65.59802630000195,65.59802630000195,65.59802630000195,65.59802630000195,,002,P009,2025_Feb_01_1400,CategoryLocalizer,2021.2.3,59.943018166569075,
30.0,30.8,2,0.75,Stimuli\ImageFiles-Set2\Bodies\Bodies_Waving_00006.png,0,0,0,37,37,37,,,,,,,,,,,,,30.025669300001027,0.025669300001027295,None,65.79820680000194,65.79820680000194,65.79820680000194,65.79820680000194,65.79820680000194,65.79820680000194,65.79820680000194,65.79820680000194,,002,P009,2025_Feb_01_1400,CategoryLocalizer,2021.2.3,59.943018166569075,
30.8,31.0,5,0.0,Stimuli\Blank.png,0,0,0,38,38,38,,,,,,,,,,,,,30.8097325000017,0.009732500001700117,None,66.58222680000108,66.58222680000108,66.58222680000108,66.58222680000108,66.58222680000108,66.58222680000108,66.58222680000108,66.58222680000108,,002,P009,2025_Feb_01_1400,CategoryLocalizer,2021.2.3,59.943018166569075,
31.0,31.8,2,0.75,Stimuli\ImageFiles-Set2\Bodies\Bodies_Waving_00006.png,1,1,0,39,39,39,,,,,,,,,,,,,31.009969999999157,0.009969999999157153,1,66.78244730000006,66.78244730000006,66.78244730000006,66.78244730000006,66.78244730000006,66.78244730000006,66.78244730000006,66.78244730000006,0.38965119999920717,002,P009,2025_Feb_01_1400,CategoryLocalizer,2021.2.3,59.943018166569075,
31.8,32.0,5,0.0,Stimuli\Blank.png,0,0,0,40,40,40,,,,,,,,,,,,,31.811446399999113,0.011446399999112344,None,67.58310899999924,67.58310899999924,67.58310899999924,67.58310899999924,67.58310899999924,67.58310899999924,67.58310899999924,67.58310899999924,,002,P009,2025_Feb_01_1400,CategoryLocalizer,2021.2.3,59.943018166569075,
32.0,32.8,2,0.75,Stimuli\ImageFiles-Set2\Bodies\Bodies_Kneeling_00006.png,0,0,0,41,41,41,,,,,,,,,,,,,32.010680800001865,0.010680800001864554,None,67.79996559999927,67.79996559999927,67.79996559999927,67.79996559999927,67.79996559999927,67.79996559999927,67.79996559999927,67.79996559999927,,002,P009,2025_Feb_01_1400,CategoryLocalizer,2021.2.3,59.943018166569075,
32.8,33.0,5,0.0,Stimuli\Blank.png,0,0,0,42,42,42,,,,,,,,,,,,,32.83014910000202,0.030149100002020646,None,68.61740030000146,68.61740030000146,68.61740030000146,68.61740030000146,68.61740030000146,68.61740030000146,68.61740030000146,68.61740030000146,,002,P009,2025_Feb_01_1400,CategoryLocalizer,2021.2.3,59.943018166569075,
33.0,33.8,2,0.75,Stimuli\ImageFiles-Set2\Bodies\Bodies_Running_00007.png,0,0,0,43,43,43,,,,,,,,,,,,,33.02980949999983,0.029809499999828404,None,68.81754949999959,68.81754949999959,68.81754949999959,68.81754949999959,68.81754949999959,68.81754949999959,68.81754949999959,68.81754949999959,,002,P009,2025_Feb_01_1400,CategoryLocalizer,2021.2.3,59.943018166569075,
33.8,34.0,5,0.0,Stimuli\Blank.png,0,0,0,44,44,44,,,,,,,,,,,,,33.830158000000665,0.03015800000066804,None,69.6182652000025,69.6182652000025,69.6182652000025,69.6182652000025,69.6182652000025,69.6182652000025,69.6182652000025,69.6182652000025,,002,P009,2025_Feb_01_1400,CategoryLocalizer,2021.2.3,59.943018166569075,
34.0,34.8,2,0.75,Stimuli\ImageFiles-Set2\Bodies\Bodies_Running_00005.png,0,0,0,45,45,45,,,,,,,,,,,,,34.03095179999946,0.030951799999456853,None,69.81842660000257,69.81842660000257,69.81842660000257,69.81842660000257,69.81842660000257,69.81842660000257,69.81842660000257,69.81842660000257,,002,P009,2025_Feb_01_1400,CategoryLocalizer,2021.2.3,59.943018166569075,
34.8,35.0,5,0.0,Stimuli\Blank.png,0,0,0,46,46,46,,,,,,,,,,,,,34.8300550999993,0.030055099999302115,None,70.60244960000273,70.60244960000273,70.60244960000273,70.60244960000273,70.60244960000273,70.60244960000273,70.60244960000273,70.60244960000273,,002,P009,2025_Feb_01_1400,CategoryLocalizer,2021.2.3,59.943018166569075,
35.0,35.8,2,0.75,Stimuli\ImageFiles-Set2\Bodies\Bodies_SittingFloor_00006.png,0,0,0,47,47,47,,,,,,,,,,,,,35.01341730000058,0.013417300000583054,None,70.80319249999957,70.80319249999957,70.80319249999957,70.80319249999957,70.80319249999957,70.80319249999957,70.80319249999957,70.80319249999957,,002,P009,2025_Feb_01_1400,CategoryLocalizer,2021.2.3,59.943018166569075,
35.8,36.0,5,0.0,Stimuli\Blank.png,0,0,0,48,48,48,,,,,,,,,,,,,35.83067909999954,0.030679099999545656,None,71.60333080000055,71.60333080000055,71.60333080000055,71.60333080000055,71.60333080000055,71.60333080000055,71.60333080000055,71.60333080000055,,002,P009,2025_Feb_01_1400,CategoryLocalizer,2021.2.3,59.943018166569075,
36.0,36.8,2,0.75,Stimuli\ImageFiles-Set2\Bodies\Bodies_Running_00002.png,0,0,0,49,49,49,,,,,,,,,,,,,36.014090900000156,0.01409090000015567,None,71.78682480000134,71.78682480000134,71.78682480000134,71.78682480000134,71.78682480000134,71.78682480000134,71.78682480000134,71.78682480000134,,002,P009,2025_Feb_01_1400,CategoryLocalizer,2021.2.3,59.943018166569075,
36.8,37.0,5,0.0,Stimuli\Blank.png,0,0,0,50,50,50,,,,,,,,,,,,,36.8149044999991,0.014904499999104814,None,72.58754590000171,72.58754590000171,72.58754590000171,72.58754590000171,72.58754590000171,72.58754590000171,72.58754590000171,72.58754590000171,,002,P009,2025_Feb_01_1400,CategoryLocalizer,2021.2.3,59.943018166569075,
37.0,37.8,2,0.75,Stimuli\ImageFiles-Set2\Bodies\Bodies_SittingStretch_00006.png,0,0,0,51,51,51,,,,,,,,,,,,,37.01602520000233,0.016025200002331985,None,72.7877195000001,72.7877195000001,72.7877195000001,72.7877195000001,72.7877195000001,72.7877195000001,72.7877195000001,72.7877195000001,,002,P009,2025_Feb_01_1400,CategoryLocalizer,2021.2.3,59.943018166569075,
37.8,38.0,5,0.0,Stimuli\Blank.png,0,0,0,52,52,52,,,,,,,,,,,,,37.80059120000078,0.0005912000007839424,None,73.57174529999975,73.57174529999975,73.57174529999975,73.57174529999975,73.57174529999975,73.57174529999975,73.57174529999975,73.57174529999975,,002,P009,2025_Feb_01_1400,CategoryLocalizer,2021.2.3,59.943018166569075,
38.0,38.8,2,0.75,Stimuli\ImageFiles-Set2\Bodies\Bodies_Pushing_00002.png,1,1,0,53,53,53,,,,,,,,,,,,,37.999433700002555,-0.0005662999974447303,None,73.77187970000159,73.77187970000159,73.77187970000159,73.77187970000159,73.77187970000159,73.77187970000159,73.77187970000159,73.77187970000159,,002,P009,2025_Feb_01_1400,CategoryLocalizer,2021.2.3,59.943018166569075,
38.8,39.0,5,0.0,Stimuli\Blank.png,0,0,0,54,54,54,,,,,,,,,,,,,38.80083890000242,0.0008389000024209281,None,74.57262800000171,74.57262800000171,74.57262800000171,74.57262800000171,74.57262800000171,74.57262800000171,74.57262800000171,74.57262800000171,,002,P009,2025_Feb_01_1400,CategoryLocalizer,2021.2.3,59.943018166569075,
39.0,39.8,2,0.75,Stimuli\ImageFiles-Set2\Bodies\Bodies_Jumping_00007.png,0,0,0,55,55,55,,,,,,,,,,,,,38.99960619999911,-0.0003938000008929521,None,74.77279800000179,74.77279800000179,74.77279800000179,74.77279800000179,74.77279800000179,74.77279800000179,74.77279800000179,74.77279800000179,,002,P009,2025_Feb_01_1400,CategoryLocalizer,2021.2.3,59.943018166569075,
39.8,40.0,5,0.0,Stimuli\Blank.png,0,0,0,56,56,56,,,,,,,,,,,,,39.80111620000025,0.0011162000002542527,None,75.57351059999928,75.57351059999928,75.57351059999928,75.57351059999928,75.57351059999928,75.57351059999928,75.57351059999928,75.57351059999928,,002,P009,2025_Feb_01_1400,CategoryLocalizer,2021.2.3,59.943018166569075,
40.0,40.8,2,0.75,Stimuli\ImageFiles-Set2\Bodies\Bodies_Jumping_00007.png,0,0,0,57,57,57,,,,,,,,,,,,,40.00131659999897,0.0013165999989723787,1,75.774712800001,75.774712800001,75.774712800001,75.774712800001,75.774712800001,75.774712800001,75.774712800001,75.774712800001,0.457418999998481,002,P009,2025_Feb_01_1400,CategoryLocalizer,2021.2.3,59.943018166569075,
40.8,41.0,5,0.0,Stimuli\Blank.png,0,0,0,58,58,58,,,,,,,,,,,,,40.80205330000172,0.002053300001719549,None,76.57438980000006,76.57438980000006,76.57438980000006,76.57438980000006,76.57438980000006,76.57438980000006,76.57438980000006,76.57438980000006,,002,P009,2025_Feb_01_1400,CategoryLocalizer,2021.2.3,59.943018166569075,
41.0,41.8,2,0.75,Stimuli\ImageFiles-Set2\Bodies\Bodies_Kneeling_00001.png,0,0,0,59,59,59,,,,,,,,,,,,,41.00221130000136,0.00221130000136327,None,76.77457100000174,76.77457100000174,76.77457100000174,76.77457100000174,76.77457100000174,76.77457100000174,76.77457100000174,76.77457100000174,,002,P009,2025_Feb_01_1400,CategoryLocalizer,2021.2.3,59.943018166569075,
41.8,42.0,5,0.0,Stimuli\Blank.png,0,0,0,60,60,60,,,,,,,,,,,,,41.802828700001555,0.0028287000015581043,None,77.57528430000093,77.57528430000093,77.57528430000093,77.57528430000093,77.57528430000093,77.57528430000093,77.57528430000093,77.57528430000093,,002,P009,2025_Feb_01_1400,CategoryLocalizer,2021.2.3,59.943018166569075,
42.0,42.8,2,0.75,Stimuli\ImageFiles-Set2\Bodies\Bodies_Kicking_00004.png,0,0,0,61,61,61,,,,,,,,,,,,,42.00307090000206,0.003070900002057897,None,77.79214160000265,77.79214160000265,77.79214160000265,77.79214160000265,77.79214160000265,77.79214160000265,77.79214160000265,77.79214160000265,,002,P009,2025_Feb_01_1400,CategoryLocalizer,2021.2.3,59.943018166569075,
42.8,43.0,5,0.0,Stimuli\Blank.png,0,0,0,62,62,62,,,,,,,,,,,,,42.82077520000166,0.02077520000166544,None,78.59284269999989,78.59284269999989,78.59284269999989,78.59284269999989,78.59284269999989,78.59284269999989,78.59284269999989,78.59284269999989,,002,P009,2025_Feb_01_1400,CategoryLocalizer,2021.2.3,59.943018166569075,
43.0,43.8,2,0.75,Stimuli\ImageFiles-Set2\Bodies\Bodies_Falling_00005.png,0,0,0,63,63,63,,,,,,,,,,,,,43.00511810000171,0.005118100001709536,None,78.793031600002,78.793031600002,78.793031600002,78.793031600002,78.793031600002,78.793031600002,78.793031600002,78.793031600002,,002,P009,2025_Feb_01_1400,CategoryLocalizer,2021.2.3,59.943018166569075,
43.8,44.0,5,0.0,Stimuli\Blank.png,0,0,0,64,64,64,,,,,,,,,,,,,43.82115070000145,0.021150700001456357,None,79.59373020000203,79.59373020000203,79.59373020000203,79.59373020000203,79.59373020000203,79.59373020000203,79.59373020000203,79.59373020000203,,002,P009,2025_Feb_01_1400,CategoryLocalizer,2021.2.3,59.943018166569075,
44.0,44.8,3,0.75,Stimuli\ImageFiles-Set2\Faces\Face_00080.png,0,0,0,65,65,65,,,,,,,,,,,,,44.00474140000006,0.004741400000057183,None,79.79390129999956,79.79390129999956,79.79390129999956,79.79390129999956,79.79390129999956,79.79390129999956,79.79390129999956,79.79390129999956,,002,P009,2025_Feb_01_1400,CategoryLocalizer,2021.2.3,59.943018166569075,
44.8,45.0,5,0.0,Stimuli\Blank.png,0,0,0,66,66,66,,,,,,,,,,,,,44.821479700000054,0.021479700000057278,None,80.59461480000027,80.59461480000027,80.59461480000027,80.59461480000027,80.59461480000027,80.59461480000027,80.59461480000027,80.59461480000027,,002,P009,2025_Feb_01_1400,CategoryLocalizer,2021.2.3,59.943018166569075,
45.0,45.8,3,0.75,Stimuli\ImageFiles-Set2\Faces\Face_00096.png,0,0,0,67,67,67,,,,,,,,,,,,,45.005845300001965,0.00584530000196537,None,80.79538740000135,80.79538740000135,80.79538740000135,80.79538740000135,80.79538740000135,80.79538740000135,80.79538740000135,80.79538740000135,,002,P009,2025_Feb_01_1400,CategoryLocalizer,2021.2.3,59.943018166569075,
45.8,46.0,5,0.0,Stimuli\Blank.png,0,0,0,68,68,68,,,,,,,,,,,,,45.82230080000227,0.022300800002270194,None,81.59549750000224,81.59549750000224,81.59549750000224,81.59549750000224,81.59549750000224,81.59549750000224,81.59549750000224,81.59549750000224,,002,P009,2025_Feb_01_1400,CategoryLocalizer,2021.2.3,59.943018166569075,
46.0,46.8,3,0.75,Stimuli\ImageFiles-Set2\Faces\Face_00038.png,0,0,0,69,69,69,,,,,,,,,,,,,46.00583750000078,0.005837500000779983,None,81.79564790000222,81.79564790000222,81.79564790000222,81.79564790000222,81.79564790000222,81.79564790000222,81.79564790000222,81.79564790000222,,002,P009,2025_Feb_01_1400,CategoryLocalizer,2021.2.3,59.943018166569075,
46.8,47.0,5,0.0,Stimuli\Blank.png,0,0,0,70,70,70,,,,,,,,,,,,,46.82403440000053,0.02403440000053081,None,82.59638149999955,82.59638149999955,82.59638149999955,82.59638149999955,82.59638149999955,82.59638149999955,82.59638149999955,82.59638149999955,,002,P009,2025_Feb_01_1400,CategoryLocalizer,2021.2.3,59.943018166569075,
47.0,47.8,3,0.75,Stimuli\ImageFiles-Set2\Faces\Face_00034.png,0,0,0,71,71,71,,,,,,,,,,,,,47.00790179999967,0.007901799999672221,None,82.77996590000112,82.77996590000112,82.77996590000112,82.77996590000112,82.77996590000112,82.77996590000112,82.77996590000112,82.77996590000112,,002,P009,2025_Feb_01_1400,CategoryLocalizer,2021.2.3,59.943018166569075,
47.8,48.0,5,0.0,Stimuli\Blank.png,0,0,0,72,72,72,,,,,,,,,,,,,47.809834700001375,0.009834700001377428,None,83.59727679999924,83.59727679999924,83.59727679999924,83.59727679999924,83.59727679999924,83.59727679999924,83.59727679999924,83.59727679999924,,002,P009,2025_Feb_01_1400,CategoryLocalizer,2021.2.3,59.943018166569075,
48.0,48.8,3,0.75,Stimuli\ImageFiles-Set2\Faces\Face_00032.png,0,0,0,73,73,73,,,,,,,,,,,,,48.02498299999934,0.024982999999338062,None,83.79744550000032,83.79744550000032,83.79744550000032,83.79744550000032,83.79744550000032,83.79744550000032,83.79744550000032,83.79744550000032,,002,P009,2025_Feb_01_1400,CategoryLocalizer,2021.2.3,59.943018166569075,
48.8,49.0,5,0.0,Stimuli\Blank.png,0,0,0,74,74,74,,,,,,,,,,,,,48.81100829999923,0.011008299999232918,None,84.5981638000012,84.5981638000012,84.5981638000012,84.5981638000012,84.5981638000012,84.5981638000012,84.5981638000012,84.5981638000012,,002,P009,2025_Feb_01_1400,CategoryLocalizer,2021.2.3,59.943018166569075,
49.0,49.8,3,0.75,Stimuli\ImageFiles-Set2\Faces\Face_00032.png,1,1,0,75,75,75,,,,,,,,,,,,,49.02585420000105,0.02585420000104932,1,84.81501360000038,84.81501360000038,84.81501360000038,84.81501360000038,84.81501360000038,84.81501360000038,84.81501360000038,84.81501360000038,0.5140840000021853,002,P009,2025_Feb_01_1400,CategoryLocalizer,2021.2.3,59.943018166569075,
49.8,50.0,5,0.0,Stimuli\Blank.png,0,0,0,76,76,76,,,,,,,,,,,,,49.82606809999925,0.026068099999250194,None,85.59904370000004,85.59904370000004,85.59904370000004,85.59904370000004,85.59904370000004,85.59904370000004,85.59904370000004,85.59904370000004,,002,P009,2025_Feb_01_1400,CategoryLocalizer,2021.2.3,59.943018166569075,
50.0,50.8,3,0.75,Stimuli\ImageFiles-Set2\Faces\Face_00040.png,0,0,0,77,77,77,,,,,,,,,,,,,50.00956210000004,0.009562100000039209,None,85.78253980000227,85.78253980000227,85.78253980000227,85.78253980000227,85.78253980000227,85.78253980000227,85.78253980000227,85.78253980000227,,002,P009,2025_Feb_01_1400,CategoryLocalizer,2021.2.3,59.943018166569075,
50.8,51.0,5,0.0,Stimuli\Blank.png,0,0,0,78,78,78,,,,,,,,,,,,,50.81097339999906,0.010973399999059552,None,86.58326800000214,86.58326800000214,86.58326800000214,86.58326800000214,86.58326800000214,86.58326800000214,86.58326800000214,86.58326800000214,,002,P009,2025_Feb_01_1400,CategoryLocalizer,2021.2.3,59.943018166569075,
51.0,51.8,3,0.75,Stimuli\ImageFiles-Set2\Faces\Face_00042.png,0,0,0,79,79,79,,,,,,,,,,,,,51.010855500000616,0.010855500000616303,None,86.7834369000011,86.7834369000011,86.7834369000011,86.7834369000011,86.7834369000011,86.7834369000011,86.7834369000011,86.7834369000011,,002,P009,2025_Feb_01_1400,CategoryLocalizer,2021.2.3,59.943018166569075,
51.8,52.0,5,0.0,Stimuli\Blank.png,0,0,0,80,80,80,,,,,,,,,,,,,51.811684100001,0.011684100001005504,None,87.58411120000164,87.58411120000164,87.58411120000164,87.58411120000164,87.58411120000164,87.58411120000164,87.58411120000164,87.58411120000164,,002,P009,2025_Feb_01_1400,CategoryLocalizer,2021.2.3,59.943018166569075,
52.0,52.8,3,0.75,Stimuli\ImageFiles-Set2\Faces\Face_00019.png,0,0,0,81,81,81,,,,,,,,,,,,,52.012000000002445,0.012000000002444722,None,87.80098780000117,87.80098780000117,87.80098780000117,87.80098780000117,87.80098780000117,87.80098780000117,87.80098780000117,87.80098780000117,,002,P009,2025_Feb_01_1400,CategoryLocalizer,2021.2.3,59.943018166569075,
52.8,53.0,5,0.0,Stimuli\Blank.png,0,0,0,82,82,82,,,,,,,,,,,,,52.83104090000052,0.0310409000005194,None,88.61840270000175,88.61840270000175,88.61840270000175,88.61840270000175,88.61840270000175,88.61840270000175,88.61840270000175,88.61840270000175,,002,P009,2025_Feb_01_1400,CategoryLocalizer,2021.2.3,59.943018166569075,
53.0,53.8,3,0.75,Stimuli\ImageFiles-Set2\Faces\Face_00058.png,1,1,0,83,83,83,,,,,,,,,,,,,53.03091090000089,0.03091090000089025,None,88.81855429999996,88.81855429999996,88.81855429999996,88.81855429999996,88.81855429999996,88.81855429999996,88.81855429999996,88.81855429999996,,002,P009,2025_Feb_01_1400,CategoryLocalizer,2021.2.3,59.943018166569075,
53.8,54.0,5,0.0,Stimuli\Blank.png,0,0,0,84,84,84,,,,,,,,,,,,,53.82951410000169,0.02951410000169119,None,89.60258489999978,89.60258489999978,89.60258489999978,89.60258489999978,89.60258489999978,89.60258489999978,89.60258489999978,89.60258489999978,,002,P009,2025_Feb_01_1400,CategoryLocalizer,2021.2.3,59.943018166569075,
54.0,54.8,3,0.75,Stimuli\ImageFiles-Set2\Faces\Face_00048.png,0,0,0,85,85,85,,,,,,,,,,,,,54.01367670000036,0.013676700000360142,None,89.78607670000201,89.78607670000201,89.78607670000201,89.78607670000201,89.78607670000201,89.78607670000201,89.78607670000201,89.78607670000201,,002,P009,2025_Feb_01_1400,CategoryLocalizer,2021.2.3,59.943018166569075,
54.8,55.0,5,0.0,Stimuli\Blank.png,0,0,0,86,86,86,,,,,,,,,,,,,54.81595509999897,0.015955099998976152,None,90.60347150000234,90.60347150000234,90.60347150000234,90.60347150000234,90.60347150000234,90.60347150000234,90.60347150000234,90.60347150000234,,002,P009,2025_Feb_01_1400,CategoryLocalizer,2021.2.3,59.943018166569075,
55.0,55.8,3,0.75,Stimuli\ImageFiles-Set2\Faces\Face_00048.png,0,0,0,87,87,87,,,,,,,,,,,,,55.01403439999922,0.014034399999218294,1,90.78696200000195,90.78696200000195,90.78696200000195,90.78696200000195,90.78696200000195,90.78696200000195,90.78696200000195,90.78696200000195,0.4022919000017282,002,P009,2025_Feb_01_1400,CategoryLocalizer,2021.2.3,59.943018166569075,
55.8,56.0,5,0.0,Stimuli\Blank.png,0,0,0,88,88,88,,,,,,,,,,,,,55.81460810000135,0.014608100001353819,None,91.5876769000024,91.5876769000024,91.5876769000024,91.5876769000024,91.5876769000024,91.5876769000024,91.5876769000024,91.5876769000024,,002,P009,2025_Feb_01_1400,CategoryLocalizer,2021.2.3,59.943018166569075,
56.0,56.8,3,0.75,Stimuli\ImageFiles-Set2\Faces\Face_00100.png,0,0,0,89,89,89,,,,,,,,,,,,,56.015413299999636,0.015413299999636365,None,91.78784830000222,91.78784830000222,91.78784830000222,91.78784830000222,91.78784830000222,91.78784830000222,91.78784830000222,91.78784830000222,,002,P009,2025_Feb_01_1400,CategoryLocalizer,2021.2.3,59.943018166569075,
56.8,57.0,5,0.0,Stimuli\Blank.png,0,0,0,90,90,90,,,,,,,,,,,,,56.79950739999913,-0.0004926000008680376,None,92.5718889000018,92.5718889000018,92.5718889000018,92.5718889000018,92.5718889000018,92.5718889000018,92.5718889000018,92.5718889000018,,002,P009,2025_Feb_01_1400,CategoryLocalizer,2021.2.3,59.943018166569075,
57.0,57.8,3,0.75,Stimuli\ImageFiles-Set2\Faces\Face_00086.png,0,0,0,91,91,91,,,,,,,,,,,,,56.99950209999952,-0.000497900000482332,None,92.78873250000106,92.78873250000106,92.78873250000106,92.78873250000106,92.78873250000106,92.78873250000106,92.78873250000106,92.78873250000106,,002,P009,2025_Feb_01_1400,CategoryLocalizer,2021.2.3,59.943018166569075,
57.8,58.0,5,0.0,Stimuli\Blank.png,0,0,0,92,92,92,,,,,,,,,,,,,57.81695550000222,0.016955500002225676,None,93.58944220000194,93.58944220000194,93.58944220000194,93.58944220000194,93.58944220000194,93.58944220000194,93.58944220000194,93.58944220000194,,002,P009,2025_Feb_01_1400,CategoryLocalizer,2021.2.3,59.943018166569075,
58.0,58.8,3,0.75,Stimuli\ImageFiles-Set2\Faces\Face_00102.png,0,0,0,93,93,93,,,,,,,,,,,,,58.000232099999266,0.00023209999926621094,None,93.77290490000087,93.77290490000087,93.77290490000087,93.77290490000087,93.77290490000087,93.77290490000087,93.77290490000087,93.77290490000087,,002,P009,2025_Feb_01_1400,CategoryLocalizer,2021.2.3,59.943018166569075,
58.8,59.0,5,0.0,Stimuli\Blank.png,0,0,0,94,94,94,,,,,,,,,,,,,58.8014989000003,0.001498900000299841,None,94.57461470000271,94.57461470000271,94.57461470000271,94.57461470000271,94.57461470000271,94.57461470000271,94.57461470000271,94.57461470000271,,002,P009,2025_Feb_01_1400,CategoryLocalizer,2021.2.3,59.943018166569075,
59.0,59.8,3,0.75,Stimuli\ImageFiles-Set2\Faces\Face_00060.png,0,0,0,95,95,95,,,,,,,,,,,,,59.0006214999994,0.0006214999993972015,None,94.79050769999958,94.79050769999958,94.79050769999958,94.79050769999958,94.79050769999958,94.79050769999958,94.79050769999958,94.79050769999958,,002,P009,2025_Feb_01_1400,CategoryLocalizer,2021.2.3,59.943018166569075,
59.8,60.0,5,0.0,Stimuli\Blank.png,0,0,0,96,96,96,,,,,,,,,,,,,59.82086479999998,0.02086479999998403,None,95.60789900000236,95.60789900000236,95.60789900000236,95.60789900000236,95.60789900000236,95.60789900000236,95.60789900000236,95.60789900000236,,002,P009,2025_Feb_01_1400,CategoryLocalizer,2021.2.3,59.943018166569075,
60.0,60.8,4,0.75,Stimuli\ImageFiles-Set2\Scenes\Scenes_120.png,0,0,0,97,97,97,,,,,,,,,,,,,60.020019100000354,0.02001910000035423,None,95.80810530000235,95.80810530000235,95.80810530000235,95.80810530000235,95.80810530000235,95.80810530000235,95.80810530000235,95.80810530000235,,002,P009,2025_Feb_01_1400,CategoryLocalizer,2021.2.3,59.943018166569075,
60.8,61.0,5,0.0,Stimuli\Blank.png,0,0,0,98,98,98,,,,,,,,,,,,,60.82011749999947,0.02011749999947199,None,96.59210130000065,96.59210130000065,96.59210130000065,96.59210130000065,96.59210130000065,96.59210130000065,96.59210130000065,96.59210130000065,,002,P009,2025_Feb_01_1400,CategoryLocalizer,2021.2.3,59.943018166569075,
61.0,61.8,4,0.75,Stimuli\ImageFiles-Set2\Scenes\Scenes_101.png,0,0,0,99,99,99,,,,,,,,,,,,,61.00249570000233,0.002495700002327794,None,96.77607770000031,96.77607770000031,96.77607770000031,96.77607770000031,96.77607770000031,96.77607770000031,96.77607770000031,96.77607770000031,,002,P009,2025_Feb_01_1400,CategoryLocalizer,2021.2.3,59.943018166569075,
61.8,62.0,5,0.0,Stimuli\Blank.png,0,0,0,100,100,100,,,,,,,,,,,,,61.80505769999945,0.005057699999454712,None,97.59300160000203,97.59300160000203,97.59300160000203,97.59300160000203,97.59300160000203,97.59300160000203,97.59300160000203,97.59300160000203,,002,P009,2025_Feb_01_1400,CategoryLocalizer,2021.2.3,59.943018166569075,
62.0,62.8,4,0.75,Stimuli\ImageFiles-Set2\Scenes\Scenes_086.png,0,0,0,101,101,101,,,,,,,,,,,,,62.01997530000153,0.01997530000153347,None,97.79315900000074,97.79315900000074,97.79315900000074,97.79315900000074,97.79315900000074,97.79315900000074,97.79315900000074,97.79315900000074,,002,P009,2025_Feb_01_1400,CategoryLocalizer,2021.2.3,59.943018166569075,
62.8,63.0,5,0.0,Stimuli\Blank.png,0,0,0,102,102,102,,,,,,,,,,,,,62.80476030000136,0.004760300001365181,None,98.5771902000015,98.5771902000015,98.5771902000015,98.5771902000015,98.5771902000015,98.5771902000015,98.5771902000015,98.5771902000015,,002,P009,2025_Feb_01_1400,CategoryLocalizer,2021.2.3,59.943018166569075,
63.0,63.8,4,0.75,Stimuli\ImageFiles-Set2\Scenes\Scenes_099.png,0,0,0,103,103,103,,,,,,,,,,,,,63.00477049999972,0.004770499999722233,None,98.79405100000076,98.79405100000076,98.79405100000076,98.79405100000076,98.79405100000076,98.79405100000076,98.79405100000076,98.79405100000076,,002,P009,2025_Feb_01_1400,CategoryLocalizer,2021.2.3,59.943018166569075,
63.8,64.0,5,0.0,Stimuli\Blank.png,0,0,0,104,104,104,,,,,,,,,,,,,63.82170640000186,0.02170640000186097,None,99.59473430000071,99.59473430000071,99.59473430000071,99.59473430000071,99.59473430000071,99.59473430000071,99.59473430000071,99.59473430000071,,002,P009,2025_Feb_01_1400,CategoryLocalizer,2021.2.3,59.943018166569075,
64.0,64.8,4,0.75,Stimuli\ImageFiles-Set2\Scenes\Scenes_092.png,0,0,0,105,105,105,,,,,,,,,,,,,64.00568330000169,0.00568330000169226,None,99.79493619999994,99.79493619999994,99.79493619999994,99.79493619999994,99.79493619999994,99.79493619999994,99.79493619999994,99.79493619999994,,002,P009,2025_Feb_01_1400,CategoryLocalizer,2021.2.3,59.943018166569075,
64.8,65.0,5,0.0,Stimuli\Blank.png,0,0,0,106,106,106,,,,,,,,,,,,,64.82244060000085,0.022440600000848576,None,100.59564479999972,100.59564479999972,100.59564479999972,100.59564479999972,100.59564479999972,100.59564479999972,100.59564479999972,100.59564479999972,,002,P009,2025_Feb_01_1400,CategoryLocalizer,2021.2.3,59.943018166569075,
65.0,65.8,4,0.75,Stimuli\ImageFiles-Set2\Scenes\Scenes_092.png,1,1,0,107,107,107,,,,,,,,,,,,,65.00593450000088,0.005934500000876142,1,100.7958338999997,100.7958338999997,100.7958338999997,100.7958338999997,100.7958338999997,100.7958338999997,100.7958338999997,100.7958338999997,0.4255370999999286,002,P009,2025_Feb_01_1400,CategoryLocalizer,2021.2.3,59.943018166569075,
65.8,66.0,5,0.0,Stimuli\Blank.png,0,0,0,108,108,108,,,,,,,,,,,,,65.8241866999997,0.02418669999970291,None,101.59655510000084,101.59655510000084,101.59655510000084,101.59655510000084,101.59655510000084,101.59655510000084,101.59655510000084,101.59655510000084,,002,P009,2025_Feb_01_1400,CategoryLocalizer,2021.2.3,59.943018166569075,
66.0,66.8,4,0.75,Stimuli\ImageFiles-Set2\Scenes\Scenes_106.png,0,0,0,109,109,109,,,,,,,,,,,,,66.00737200000003,0.007372000000032131,None,101.78001770000265,101.78001770000265,101.78001770000265,101.78001770000265,101.78001770000265,101.78001770000265,101.78001770000265,101.78001770000265,,002,P009,2025_Feb_01_1400,CategoryLocalizer,2021.2.3,59.943018166569075,
66.8,67.0,5,0.0,Stimuli\Blank.png,0,0,0,110,110,110,,,,,,,,,,,,,66.8075202,0.007520200000001864,None,102.58073190000141,102.58073190000141,102.58073190000141,102.58073190000141,102.58073190000141,102.58073190000141,102.58073190000141,102.58073190000141,,002,P009,2025_Feb_01_1400,CategoryLocalizer,2021.2.3,59.943018166569075,
67.0,67.8,4,0.75,Stimuli\ImageFiles-Set2\Scenes\Scenes_096.png,0,0,0,111,111,111,,,,,,,,,,,,,67.00968199999988,0.009681999999884283,None,102.79758700000093,102.79758700000093,102.79758700000093,102.79758700000093,102.79758700000093,102.79758700000093,102.79758700000093,102.79758700000093,,002,P009,2025_Feb_01_1400,CategoryLocalizer,2021.2.3,59.943018166569075,
67.8,68.0,5,0.0,Stimuli\Blank.png,0,0,0,112,112,112,,,,,,,,,,,,,67.82568829999946,0.025688299999458764,None,103.59830879999936,103.59830879999936,103.59830879999936,103.59830879999936,103.59830879999936,103.59830879999936,103.59830879999936,103.59830879999936,,002,P009,2025_Feb_01_1400,CategoryLocalizer,2021.2.3,59.943018166569075,
68.0,68.8,4,0.75,Stimuli\ImageFiles-Set2\Scenes\Scenes_078.png,0,0,0,113,113,113,,,,,,,,,,,,,68.01090939999995,0.01090939999994589,None,103.7984761000007,103.7984761000007,103.7984761000007,103.7984761000007,103.7984761000007,103.7984761000007,103.7984761000007,103.7984761000007,,002,P009,2025_Feb_01_1400,CategoryLocalizer,2021.2.3,59.943018166569075,
68.8,69.0,5,0.0,Stimuli\Blank.png,0,0,0,114,114,114,,,,,,,,,,,,,68.82595009999932,0.02595009999932074,None,104.59917730000234,104.59917730000234,104.59917730000234,104.59917730000234,104.59917730000234,104.59917730000234,104.59917730000234,104.59917730000234,,002,P009,2025_Feb_01_1400,CategoryLocalizer,2021.2.3,59.943018166569075,
69.0,69.8,4,0.75,Stimuli\ImageFiles-Set2\Scenes\Scenes_064.png,0,0,0,115,115,115,,,,,,,,,,,,,69.01065700000254,0.010657000002538553,None,104.79937630000131,104.79937630000131,104.79937630000131,104.79937630000131,104.79937630000131,104.79937630000131,104.79937630000131,104.79937630000131,,002,P009,2025_Feb_01_1400,CategoryLocalizer,2021.2.3,59.943018166569075,
69.8,70.0,5,0.0,Stimuli\Blank.png,0,0,0,116,116,116,,,,,,,,,,,,,69.82686739999917,0.0268673999991762,None,105.6000703000027,105.6000703000027,105.6000703000027,105.6000703000027,105.6000703000027,105.6000703000027,105.6000703000027,105.6000703000027,,002,P009,2025_Feb_01_1400,CategoryLocalizer,2021.2.3,59.943018166569075,
70.0,70.8,4,0.75,Stimuli\ImageFiles-Set2\Scenes\Scenes_105.png,0,0,0,117,117,117,,,,,,,,,,,,,70.01138709999941,0.011387099999410566,None,105.80024400000184,105.80024400000184,105.80024400000184,105.80024400000184,105.80024400000184,105.80024400000184,105.80024400000184,105.80024400000184,,002,P009,2025_Feb_01_1400,CategoryLocalizer,2021.2.3,59.943018166569075,
70.8,71.0,5,0.0,Stimuli\Blank.png,0,0,0,118,118,118,,,,,,,,,,,,,70.82844680000198,0.02844680000198707,None,106.60093530000086,106.60093530000086,106.60093530000086,106.60093530000086,106.60093530000086,106.60093530000086,106.60093530000086,106.60093530000086,,002,P009,2025_Feb_01_1400,CategoryLocalizer,2021.2.3,59.943018166569075,
71.0,71.8,4,0.75,Stimuli\ImageFiles-Set2\Scenes\Scenes_061.png,1,1,0,119,119,119,,,,,,,,,,,,,71.01206860000093,0.012068600000930019,None,106.7844365000019,106.7844365000019,106.7844365000019,106.7844365000019,106.7844365000019,106.7844365000019,106.7844365000019,106.7844365000019,,002,P009,2025_Feb_01_1400,CategoryLocalizer,2021.2.3,59.943018166569075,
71.8,72.0,5,0.0,Stimuli\Blank.png,0,0,0,120,120,120,,,,,,,,,,,,,71.81321670000034,0.01321670000034203,None,107.5851705999994,107.5851705999994,107.5851705999994,107.5851705999994,107.5851705999994,107.5851705999994,107.5851705999994,107.5851705999994,,002,P009,2025_Feb_01_1400,CategoryLocalizer,2021.2.3,59.943018166569075,
72.0,72.8,4,0.75,Stimuli\ImageFiles-Set2\Scenes\Scenes_077.png,0,0,0,121,121,121,,,,,,,,,,,,,72.01319130000047,0.013191300000471529,None,107.78533959999913,107.78533959999913,107.78533959999913,107.78533959999913,107.78533959999913,107.78533959999913,107.78533959999913,107.78533959999913,,002,P009,2025_Feb_01_1400,CategoryLocalizer,2021.2.3,59.943018166569075,
72.8,73.0,5,0.0,Stimuli\Blank.png,0,0,0,122,122,122,,,,,,,,,,,,,72.81478010000137,0.014780100001374308,None,108.60272810000242,108.60272810000242,108.60272810000242,108.60272810000242,108.60272810000242,108.60272810000242,108.60272810000242,108.60272810000242,,002,P009,2025_Feb_01_1400,CategoryLocalizer,2021.2.3,59.943018166569075,
73.0,73.8,4,0.75,Stimuli\ImageFiles-Set2\Scenes\Scenes_077.png,0,0,0,123,123,123,,,,,,,,,,,,,73.030356700001,0.030356700000993442,1,108.81957500000135,108.81957500000135,108.81957500000135,108.81957500000135,108.81957500000135,108.81957500000135,108.81957500000135,108.81957500000135,0.4496631999973033,002,P009,2025_Feb_01_1400,CategoryLocalizer,2021.2.3,59.943018166569075,
73.8,74.0,5,0.0,Stimuli\Blank.png,0,0,0,124,124,124,,,,,,,,,,,,,73.83058109999911,0.03058109999911096,None,109.6035843000027,109.6035843000027,109.6035843000027,109.6035843000027,109.6035843000027,109.6035843000027,109.6035843000027,109.6035843000027,,002,P009,2025_Feb_01_1400,CategoryLocalizer,2021.2.3,59.943018166569075,
74.0,74.8,4,0.75,Stimuli\ImageFiles-Set2\Scenes\Scenes_067.png,0,0,0,125,125,125,,,,,,,,,,,,,74.01400999999896,0.014009999998961575,None,109.78710850000061,109.78710850000061,109.78710850000061,109.78710850000061,109.78710850000061,109.78710850000061,109.78710850000061,109.78710850000061,,002,P009,2025_Feb_01_1400,CategoryLocalizer,2021.2.3,59.943018166569075,
74.8,75.0,5,0.0,Stimuli\Blank.png,0,0,0,126,126,126,,,,,,,,,,,,,74.81541420000212,0.015414200002126677,None,110.5878143000009,110.5878143000009,110.5878143000009,110.5878143000009,110.5878143000009,110.5878143000009,110.5878143000009,110.5878143000009,,002,P009,2025_Feb_01_1400,CategoryLocalizer,2021.2.3,59.943018166569075,
75.0,75.8,4,0.75,Stimuli\ImageFiles-Set2\Scenes\Scenes_068.png,0,0,0,127,127,127,,,,,,,,,,,,,75.01553350000177,0.015533500001765788,None,110.78799020000224,110.78799020000224,110.78799020000224,110.78799020000224,110.78799020000224,110.78799020000224,110.78799020000224,110.78799020000224,,002,P009,2025_Feb_01_1400,CategoryLocalizer,2021.2.3,59.943018166569075,
75.8,76.0,5,0.0,Stimuli\Blank.png,0,0,0,128,128,128,,,,,,,,,,,,,75.79938269999911,-0.0006173000008828922,None,111.57202220000181,111.57202220000181,111.57202220000181,111.57202220000181,111.57202220000181,111.57202220000181,111.57202220000181,111.57202220000181,,002,P009,2025_Feb_01_1400,CategoryLocalizer,2021.2.3,59.943018166569075,
76.0,88.0,0,0.0,Stimuli\Blank.png,0,0,0,129,129,129,,,,,,,,,,,,,75.99971030000233,-0.0002896999976655934,None,111.77214269999968,111.77214269999968,111.77214269999968,111.77214269999968,111.77214269999968,111.77214269999968,111.77214269999968,111.77214269999968,,002,P009,2025_Feb_01_1400,CategoryLocalizer,2021.2.3,59.943018166569075,
88.0,88.8,3,0.75,Stimuli\ImageFiles-Set2\Faces\Face_00082.png,0,0,0,130,130,130,,,,,,,,,,,,,88.01021939999919,0.010219399999186862,None,123.78281770000103,123.78281770000103,123.78281770000103,123.78281770000103,123.78281770000103,123.78281770000103,123.78281770000103,123.78281770000103,,002,P009,2025_Feb_01_1400,CategoryLocalizer,2021.2.3,59.943018166569075,
88.8,89.0,5,0.0,Stimuli\Blank.png,0,0,0,131,131,131,,,,,,,,,,,,,88.81100250000236,0.01100250000236258,None,124.58351849999963,124.58351849999963,124.58351849999963,124.58351849999963,124.58351849999963,124.58351849999963,124.58351849999963,124.58351849999963,,002,P009,2025_Feb_01_1400,CategoryLocalizer,2021.2.3,59.943018166569075,
89.0,89.8,3,0.75,Stimuli\ImageFiles-Set2\Faces\Face_00002.png,0,0,0,132,132,132,,,,,,,,,,,,,89.0106123000005,0.010612300000502728,None,124.80041320000237,124.80041320000237,124.80041320000237,124.80041320000237,124.80041320000237,124.80041320000237,124.80041320000237,124.80041320000237,,002,P009,2025_Feb_01_1400,CategoryLocalizer,2021.2.3,59.943018166569075,
89.8,90.0,5,0.0,Stimuli\Blank.png,0,0,0,133,133,133,,,,,,,,,,,,,89.8291984000025,0.029198400002499625,None,125.6011075000024,125.6011075000024,125.6011075000024,125.6011075000024,125.6011075000024,125.6011075000024,125.6011075000024,125.6011075000024,,002,P009,2025_Feb_01_1400,CategoryLocalizer,2021.2.3,59.943018166569075,
90.0,90.8,3,0.75,Stimuli\ImageFiles-Set2\Faces\Face_00052.png,0,0,0,134,134,134,,,,,,,,,,,,,90.01151250000112,0.011512500001117587,None,125.80130149999968,125.80130149999968,125.80130149999968,125.80130149999968,125.80130149999968,125.80130149999968,125.80130149999968,125.80130149999968,,002,P009,2025_Feb_01_1400,CategoryLocalizer,2021.2.3,59.943018166569075,
90.8,91.0,5,0.0,Stimuli\Blank.png,0,0,0,135,135,135,,,,,,,,,,,,,90.82940120000058,0.029401200000577887,None,126.60198379999929,126.60198379999929,126.60198379999929,126.60198379999929,126.60198379999929,126.60198379999929,126.60198379999929,126.60198379999929,,002,P009,2025_Feb_01_1400,CategoryLocalizer,2021.2.3,59.943018166569075,
91.0,91.8,3,0.75,Stimuli\ImageFiles-Set2\Faces\Face_00074.png,0,0,0,136,136,136,,,,,,,,,,,,,91.0134175000021,0.013417500002105953,None,126.8021531000013,126.8021531000013,126.8021531000013,126.8021531000013,126.8021531000013,126.8021531000013,126.8021531000013,126.8021531000013,,002,P009,2025_Feb_01_1400,CategoryLocalizer,2021.2.3,59.943018166569075,
91.8,92.0,5,0.0,Stimuli\Blank.png,0,0,0,137,137,137,,,,,,,,,,,,,91.83028810000178,0.03028810000178339,None,127.60288280000168,127.60288280000168,127.60288280000168,127.60288280000168,127.60288280000168,127.60288280000168,127.60288280000168,127.60288280000168,,002,P009,2025_Feb_01_1400,CategoryLocalizer,2021.2.3,59.943018166569075,
92.0,92.8,3,0.75,Stimuli\ImageFiles-Set2\Faces\Face_00046.png,0,0,0,138,138,138,,,,,,,,,,,,,92.01435879999917,0.014358799999172334,None,127.78636109999934,127.78636109999934,127.78636109999934,127.78636109999934,127.78636109999934,127.78636109999934,127.78636109999934,127.78636109999934,,002,P009,2025_Feb_01_1400,CategoryLocalizer,2021.2.3,59.943018166569075,
92.8,93.0,5,0.0,Stimuli\Blank.png,0,0,0,139,139,139,,,,,,,,,,,,,92.81445670000176,0.014456700001758804,None,128.58706990000064,128.58706990000064,128.58706990000064,128.58706990000064,128.58706990000064,128.58706990000064,128.58706990000064,128.58706990000064,,002,P009,2025_Feb_01_1400,CategoryLocalizer,2021.2.3,59.943018166569075,
93.0,93.8,3,0.75,Stimuli\ImageFiles-Set2\Faces\Face_00062.png,0,0,0,140,140,140,,,,,,,,,,,,,93.01526970000123,0.015269700001226738,None,128.80393910000203,128.80393910000203,128.80393910000203,128.80393910000203,128.80393910000203,128.80393910000203,128.80393910000203,128.80393910000203,,002,P009,2025_Feb_01_1400,CategoryLocalizer,2021.2.3,59.943018166569075,
93.8,94.0,5,0.0,Stimuli\Blank.png,0,0,0,141,141,141,,,,,,,,,,,,,93.81641709999894,0.016417099998946583,None,129.58797210000193,129.58797210000193,129.58797210000193,129.58797210000193,129.58797210000193,129.58797210000193,129.58797210000193,129.58797210000193,,002,P009,2025_Feb_01_1400,CategoryLocalizer,2021.2.3,59.943018166569075,
94.0,94.8,3,0.75,Stimuli\ImageFiles-Set2\Faces\Face_00072.png,0,0,0,142,142,142,,,,,,,,,,,,,94.00040210000225,0.00040210000224760734,None,129.78813210000226,129.78813210000226,129.78813210000226,129.78813210000226,129.78813210000226,129.78813210000226,129.78813210000226,129.78813210000226,,002,P009,2025_Feb_01_1400,CategoryLocalizer,2021.2.3,59.943018166569075,
94.8,95.0,5,0.0,Stimuli\Blank.png,0,0,0,143,143,143,,,,,,,,,,,,,94.81573360000039,0.015733600000388037,None,130.58884079999916,130.58884079999916,130.58884079999916,130.58884079999916,130.58884079999916,130.58884079999916,130.58884079999916,130.58884079999916,,002,P009,2025_Feb_01_1400,CategoryLocalizer,2021.2.3,59.943018166569075,
95.0,95.8,3,0.75,Stimuli\ImageFiles-Set2\Faces\Face_00078.png,0,0,0,144,144,144,,,,,,,,,,,,,95.00042419999954,0.0004241999995429069,None,130.78901060000135,130.78901060000135,130.78901060000135,130.78901060000135,130.78901060000135,130.78901060000135,130.78901060000135,130.78901060000135,,002,P009,2025_Feb_01_1400,CategoryLocalizer,2021.2.3,59.943018166569075,
95.8,96.0,5,0.0,Stimuli\Blank.png,0,0,0,145,145,145,,,,,,,,,,,,,95.81730529999913,0.01730529999913699,None,131.58972020000147,131.58972020000147,131.58972020000147,131.58972020000147,131.58972020000147,131.58972020000147,131.58972020000147,131.58972020000147,,002,P009,2025_Feb_01_1400,CategoryLocalizer,2021.2.3,59.943018166569075,
96.0,96.8,3,0.75,Stimuli\ImageFiles-Set2\Faces\Face_00078.png,1,1,0,146,146,146,,,,,,,,,,,,,96.0006753000016,0.0006753000016033184,1,131.7899075000023,131.7899075000023,131.7899075000023,131.7899075000023,131.7899075000023,131.7899075000023,131.7899075000023,131.7899075000023,0.3875225000010687,002,P009,2025_Feb_01_1400,CategoryLocalizer,2021.2.3,59.943018166569075,
96.8,97.0,5,0.0,Stimuli\Blank.png,0,0,0,147,147,147,,,,,,,,,,,,,96.82115880000129,0.021158800001288114,None,132.6073017000017,132.6073017000017,132.6073017000017,132.6073017000017,132.6073017000017,132.6073017000017,132.6073017000017,132.6073017000017,,002,P009,2025_Feb_01_1400,CategoryLocalizer,2021.2.3,59.943018166569075,
97.0,97.8,3,0.75,Stimuli\ImageFiles-Set2\Faces\Face_00068.png,0,0,0,148,148,148,,,,,,,,,,,,,97.01781820000178,0.017818200001784135,None,132.79078049999953,132.79078049999953,132.79078049999953,132.79078049999953,132.79078049999953,132.79078049999953,132.79078049999953,132.79078049999953,,002,P009,2025_Feb_01_1400,CategoryLocalizer,2021.2.3,59.943018166569075,
97.8,98.0,5,0.0,Stimuli\Blank.png,0,0,0,149,149,149,,,,,,,,,,,,,97.80172900000252,0.0017290000025269592,None,133.57480919999944,133.57480919999944,133.57480919999944,133.57480919999944,133.57480919999944,133.57480919999944,133.57480919999944,133.57480919999944,,002,P009,2025_Feb_01_1400,CategoryLocalizer,2021.2.3,59.943018166569075,
98.0,98.8,3,0.75,Stimuli\ImageFiles-Set2\Faces\Face_00110.png,0,0,0,150,150,150,,,,,,,,,,,,,98.00196470000083,0.0019647000008262694,None,133.77495190000263,133.77495190000263,133.77495190000263,133.77495190000263,133.77495190000263,133.77495190000263,133.77495190000263,133.77495190000263,,002,P009,2025_Feb_01_1400,CategoryLocalizer,2021.2.3,59.943018166569075,
98.8,99.0,5,0.0,Stimuli\Blank.png,0,0,0,151,151,151,,,,,,,,,,,,,98.80257110000093,0.002571100000935189,None,134.57569630000216,134.57569630000216,134.57569630000216,134.57569630000216,134.57569630000216,134.57569630000216,134.57569630000216,134.57569630000216,,002,P009,2025_Feb_01_1400,CategoryLocalizer,2021.2.3,59.943018166569075,
99.0,99.8,3,0.75,Stimuli\ImageFiles-Set2\Faces\Face_00094.png,0,0,0,152,152,152,,,,,,,,,,,,,99.00481290000243,0.004812900002434617,None,134.7925619000016,134.7925619000016,134.7925619000016,134.7925619000016,134.7925619000016,134.7925619000016,134.7925619000016,134.7925619000016,,002,P009,2025_Feb_01_1400,CategoryLocalizer,2021.2.3,59.943018166569075,
99.8,100.0,5,0.0,Stimuli\Blank.png,0,0,0,153,153,153,,,,,,,,,,,,,99.82022019999931,0.020220199999315014,None,135.59326829999918,135.59326829999918,135.59326829999918,135.59326829999918,135.59326829999918,135.59326829999918,135.59326829999918,135.59326829999918,,002,P009,2025_Feb_01_1400,CategoryLocalizer,2021.2.3,59.943018166569075,
100.0,100.8,3,0.75,Stimuli\ImageFiles-Set2\Faces\Face_00118.png,0,0,0,154,154,154,,,,,,,,,,,,,100.00479579999956,0.0047957999995560385,None,135.79344180000044,135.79344180000044,135.79344180000044,135.79344180000044,135.79344180000044,135.79344180000044,135.79344180000044,135.79344180000044,,002,P009,2025_Feb_01_1400,CategoryLocalizer,2021.2.3,59.943018166569075,
100.8,101.0,5,0.0,Stimuli\Blank.png,0,0,0,155,155,155,,,,,,,,,,,,,100.82189490000019,0.021894900000191342,None,136.59503450000193,136.59503450000193,136.59503450000193,136.59503450000193,136.59503450000193,136.59503450000193,136.59503450000193,136.59503450000193,,002,P009,2025_Feb_01_1400,CategoryLocalizer,2021.2.3,59.943018166569075,
101.0,101.8,3,0.75,Stimuli\ImageFiles-Set2\Faces\Face_00023.png,0,0,0,156,156,156,,,,,,,,,,,,,101.00584170000002,0.0058417000000190455,None,136.7943191000013,136.7943191000013,136.7943191000013,136.7943191000013,136.7943191000013,136.7943191000013,136.7943191000013,136.7943191000013,,002,P009,2025_Feb_01_1400,CategoryLocalizer,2021.2.3,59.943018166569075,
101.8,102.0,5,0.0,Stimuli\Blank.png,0,0,0,157,157,157,,,,,,,,,,,,,101.82245189999958,0.02245189999958086,None,137.59500560000015,137.59500560000015,137.59500560000015,137.59500560000015,137.59500560000015,137.59500560000015,137.59500560000015,137.59500560000015,,002,P009,2025_Feb_01_1400,CategoryLocalizer,2021.2.3,59.943018166569075,
102.0,102.8,3,0.75,Stimuli\ImageFiles-Set2\Faces\Face_00092.png,0,0,0,158,158,158,,,,,,,,,,,,,102.00650329999917,0.006503299999167211,None,137.79520400000183,137.79520400000183,137.79520400000183,137.79520400000183,137.79520400000183,137.79520400000183,137.79520400000183,137.79520400000183,,002,P009,2025_Feb_01_1400,CategoryLocalizer,2021.2.3,59.943018166569075,
102.8,103.0,5,0.0,Stimuli\Blank.png,0,0,0,159,159,159,,,,,,,,,,,,,102.82273089999944,0.022730899999444887,None,138.59592460000204,138.59592460000204,138.59592460000204,138.59592460000204,138.59592460000204,138.59592460000204,138.59592460000204,138.59592460000204,,002,P009,2025_Feb_01_1400,CategoryLocalizer,2021.2.3,59.943018166569075,
103.0,103.8,3,0.75,Stimuli\ImageFiles-Set2\Faces\Face_00084.png,0,0,0,160,160,160,,,,,,,,,,,,,103.00688190000074,0.006881900000735186,None,138.7794185999992,138.7794185999992,138.7794185999992,138.7794185999992,138.7794185999992,138.7794185999992,138.7794185999992,138.7794185999992,,002,P009,2025_Feb_01_1400,CategoryLocalizer,2021.2.3,59.943018166569075,
103.8,104.0,5,0.0,Stimuli\Blank.png,0,0,0,161,161,161,,,,,,,,,,,,,103.80746179999915,0.007461799999148866,None,139.5801391999994,139.5801391999994,139.5801391999994,139.5801391999994,139.5801391999994,139.5801391999994,139.5801391999994,139.5801391999994,,002,P009,2025_Feb_01_1400,CategoryLocalizer,2021.2.3,59.943018166569075,
104.0,104.8,1,0.75,Stimuli\ImageFiles-Set2\Objects\Object_Desk_00001.png,0,0,0,162,162,162,,,,,,,,,,,,,104.00719460000255,0.007194600002549123,None,139.78030480000234,139.78030480000234,139.78030480000234,139.78030480000234,139.78030480000234,139.78030480000234,139.78030480000234,139.78030480000234,,002,P009,2025_Feb_01_1400,CategoryLocalizer,2021.2.3,59.943018166569075,
104.8,105.0,5,0.0,Stimuli\Blank.png,0,0,0,163,163,163,,,,,,,,,,,,,104.81064960000003,0.01064960000003623,None,140.5977101999997,140.5977101999997,140.5977101999997,140.5977101999997,140.5977101999997,140.5977101999997,140.5977101999997,140.5977101999997,,002,P009,2025_Feb_01_1400,CategoryLocalizer,2021.2.3,59.943018166569075,
105.0,105.8,1,0.75,Stimuli\ImageFiles-Set2\Objects\Object_Ambulance_00001.png,0,0,0,164,164,164,,,,,,,,,,,,,105.02592240000013,0.0259224000001268,None,140.81455840000126,140.81455840000126,140.81455840000126,140.81455840000126,140.81455840000126,140.81455840000126,140.81455840000126,140.81455840000126,,002,P009,2025_Feb_01_1400,CategoryLocalizer,2021.2.3,59.943018166569075,
105.8,106.0,5,0.0,Stimuli\Blank.png,0,0,0,165,165,165,,,,,,,,,,,,,105.82596589999957,0.025965899999576436,None,141.59857230000125,141.59857230000125,141.59857230000125,141.59857230000125,141.59857230000125,141.59857230000125,141.59857230000125,141.59857230000125,,002,P009,2025_Feb_01_1400,CategoryLocalizer,2021.2.3,59.943018166569075,
106.0,106.8,1,0.75,Stimuli\ImageFiles-Set2\Objects\Object_Button1_00001.png,0,0,0,166,166,166,,,,,,,,,,,,,106.01033050000115,0.010330500001145992,None,141.79874560000098,141.79874560000098,141.79874560000098,141.79874560000098,141.79874560000098,141.79874560000098,141.79874560000098,141.79874560000098,,002,P009,2025_Feb_01_1400,CategoryLocalizer,2021.2.3,59.943018166569075,
106.8,107.0,5,0.0,Stimuli\Blank.png,0,0,0,167,167,167,,,,,,,,,,,,,106.82620790000146,0.026207900001466555,None,142.5994552000011,142.5994552000011,142.5994552000011,142.5994552000011,142.5994552000011,142.5994552000011,142.5994552000011,142.5994552000011,,002,P009,2025_Feb_01_1400,CategoryLocalizer,2021.2.3,59.943018166569075,
107.0,107.8,1,0.75,Stimuli\ImageFiles-Set2\Objects\Object_Paper_00001.png,0,0,0,168,168,168,,,,,,,,,,,,,107.00989900000059,0.009899000000586966,None,142.78295960000105,142.78295960000105,142.78295960000105,142.78295960000105,142.78295960000105,142.78295960000105,142.78295960000105,142.78295960000105,,002,P009,2025_Feb_01_1400,CategoryLocalizer,2021.2.3,59.943018166569075,
107.8,108.0,5,0.0,Stimuli\Blank.png,0,0,0,169,169,169,,,,,,,,,,,,,107.81042159999924,0.010421599999247633,None,143.5836659000015,143.5836659000015,143.5836659000015,143.5836659000015,143.5836659000015,143.5836659000015,143.5836659000015,143.5836659000015,,002,P009,2025_Feb_01_1400,CategoryLocalizer,2021.2.3,59.943018166569075,
108.0,108.8,1,0.75,Stimuli\ImageFiles-Set2\Objects\Object_Noodle_00001.png,0,0,0,170,170,170,,,,,,,,,,,,,108.01139880000119,0.011398800001188647,None,143.80054970000128,143.80054970000128,143.80054970000128,143.80054970000128,143.80054970000128,143.80054970000128,143.80054970000128,143.80054970000128,,002,P009,2025_Feb_01_1400,CategoryLocalizer,2021.2.3,59.943018166569075,
108.8,109.0,5,0.0,Stimuli\Blank.png,0,0,0,171,171,171,,,,,,,,,,,,,108.83004500000243,0.030045000002431266,None,144.61792770000102,144.61792770000102,144.61792770000102,144.61792770000102,144.61792770000102,144.61792770000102,144.61792770000102,144.61792770000102,,002,P009,2025_Feb_01_1400,CategoryLocalizer,2021.2.3,59.943018166569075,
109.0,109.8,1,0.75,Stimuli\ImageFiles-Set2\Objects\Object_Razor_00001.png,0,0,0,172,172,172,,,,,,,,,,,,,109.03092649999962,0.030926499999623047,None,144.8180934000011,144.8180934000011,144.8180934000011,144.8180934000011,144.8180934000011,144.8180934000011,144.8180934000011,144.8180934000011,,002,P009,2025_Feb_01_1400,CategoryLocalizer,2021.2.3,59.943018166569075,
109.8,110.0,5,0.0,Stimuli\Blank.png,0,0,0,173,173,173,,,,,,,,,,,,,109.8298489000008,0.029848900000800427,None,145.60212450000108,145.60212450000108,145.60212450000108,145.60212450000108,145.60212450000108,145.60212450000108,145.60212450000108,145.60212450000108,,002,P009,2025_Feb_01_1400,CategoryLocalizer,2021.2.3,59.943018166569075,
110.0,110.8,1,0.75,Stimuli\ImageFiles-Set2\Objects\Object_Razor_00001.png,1,1,0,174,174,174,,,,,,,,,,,,,110.0124950999998,0.012495099999796366,1,145.7856184000011,145.7856184000011,145.7856184000011,145.7856184000011,145.7856184000011,145.7856184000011,145.7856184000011,145.7856184000011,0.3796589000012318,002,P009,2025_Feb_01_1400,CategoryLocalizer,2021.2.3,59.943018166569075,
110.8,111.0,5,0.0,Stimuli\Blank.png,0,0,0,175,175,175,,,,,,,,,,,,,110.81417220000003,0.01417220000003283,None,146.58636300000217,146.58636300000217,146.58636300000217,146.58636300000217,146.58636300000217,146.58636300000217,146.58636300000217,146.58636300000217,,002,P009,2025_Feb_01_1400,CategoryLocalizer,2021.2.3,59.943018166569075,
111.0,111.8,1,0.75,Stimuli\ImageFiles-Set2\Objects\Object_Coffee_00001.png,0,0,0,176,176,176,,,,,,,,,,,,,111.01420480000161,0.01420480000160751,None,146.78647030000138,146.78647030000138,146.78647030000138,146.78647030000138,146.78647030000138,146.78647030000138,146.78647030000138,146.78647030000138,,002,P009,2025_Feb_01_1400,CategoryLocalizer,2021.2.3,59.943018166569075,
111.8,112.0,5,0.0,Stimuli\Blank.png,0,0,0,177,177,177,,,,,,,,,,,,,111.81460109999898,0.014601099998984068,None,147.58721409999998,147.58721409999998,147.58721409999998,147.58721409999998,147.58721409999998,147.58721409999998,147.58721409999998,147.58721409999998,,002,P009,2025_Feb_01_1400,CategoryLocalizer,2021.2.3,59.943018166569075,
112.0,112.8,1,0.75,Stimuli\ImageFiles-Set2\Objects\Object_Switch_00001.png,0,0,0,178,178,178,,,,,,,,,,,,,112.01560959999915,0.015609599999152124,None,147.78730560000258,147.78730560000258,147.78730560000258,147.78730560000258,147.78730560000258,147.78730560000258,147.78730560000258,147.78730560000258,,002,P009,2025_Feb_01_1400,CategoryLocalizer,2021.2.3,59.943018166569075,
112.8,113.0,5,0.0,Stimuli\Blank.png,0,0,0,179,179,179,,,,,,,,,,,,,112.79993689999901,-6.31000009860827e-05,None,148.58809309999924,148.58809309999924,148.58809309999924,148.58809309999924,148.58809309999924,148.58809309999924,148.58809309999924,148.58809309999924,,002,P009,2025_Feb_01_1400,CategoryLocalizer,2021.2.3,59.943018166569075,
113.0,113.8,1,0.75,Stimuli\ImageFiles-Set2\Objects\Object_Scissors_00001.png,0,0,0,180,180,180,,,,,,,,,,,,,113.01652610000019,0.016526100000191946,None,148.80598129999998,148.80598129999998,148.80598129999998,148.80598129999998,148.80598129999998,148.80598129999998,148.80598129999998,148.80598129999998,,002,P009,2025_Feb_01_1400,CategoryLocalizer,2021.2.3,59.943018166569075,
113.8,114.0,5,0.0,Stimuli\Blank.png,0,0,0,181,181,181,,,,,,,,,,,,,113.81588960000227,0.015889600002267912,None,149.5889728000002,149.5889728000002,149.5889728000002,149.5889728000002,149.5889728000002,149.5889728000002,149.5889728000002,149.5889728000002,,002,P009,2025_Feb_01_1400,CategoryLocalizer,2021.2.3,59.943018166569075,
114.0,114.8,1,0.75,Stimuli\ImageFiles-Set2\Objects\Object_Shovel_00001.png,0,0,0,182,182,182,,,,,,,,,,,,,113.99967040000047,-0.0003295999995316379,None,149.77243549999912,149.77243549999912,149.77243549999912,149.77243549999912,149.77243549999912,149.77243549999912,149.77243549999912,149.77243549999912,,002,P009,2025_Feb_01_1400,CategoryLocalizer,2021.2.3,59.943018166569075,
114.8,115.0,5,0.0,Stimuli\Blank.png,0,0,0,183,183,183,,,,,,,,,,,,,114.80002790000071,2.7900000716840623e-05,None,150.57318569999916,150.57318569999916,150.57318569999916,150.57318569999916,150.57318569999916,150.57318569999916,150.57318569999916,150.57318569999916,,002,P009,2025_Feb_01_1400,CategoryLocalizer,2021.2.3,59.943018166569075,
115.0,115.8,1,0.75,Stimuli\ImageFiles-Set2\Objects\Object_Walker_00001.png,1,1,0,184,184,184,,,,,,,,,,,,,115.00089800000205,0.0008980000020528678,None,150.77336389999982,150.77336389999982,150.77336389999982,150.77336389999982,150.77336389999982,150.77336389999982,150.77336389999982,150.77336389999982,,002,P009,2025_Feb_01_1400,CategoryLocalizer,2021.2.3,59.943018166569075,
115.8,116.0,5,0.0,Stimuli\Blank.png,0,0,0,185,185,185,,,,,,,,,,,,,115.80099530000007,0.0009953000000706425,None,151.57406170000104,151.57406170000104,151.57406170000104,151.57406170000104,151.57406170000104,151.57406170000104,151.57406170000104,151.57406170000104,,002,P009,2025_Feb_01_1400,CategoryLocalizer,2021.2.3,59.943018166569075,
116.0,116.8,1,0.75,Stimuli\ImageFiles-Set2\Objects\Object_Sandal_00001.png,0,0,0,186,186,186,,,,,,,,,,,,,116.00110090000089,0.0011009000008925796,None,151.77426550000018,151.77426550000018,151.77426550000018,151.77426550000018,151.77426550000018,151.77426550000018,151.77426550000018,151.77426550000018,,002,P009,2025_Feb_01_1400,CategoryLocalizer,2021.2.3,59.943018166569075,
116.8,117.0,5,0.0,Stimuli\Blank.png,0,0,0,187,187,187,,,,,,,,,,,,,116.80499459999919,0.004994599999193383,None,152.59167290000187,152.59167290000187,152.59167290000187,152.59167290000187,152.59167290000187,152.59167290000187,152.59167290000187,152.59167290000187,,002,P009,2025_Feb_01_1400,CategoryLocalizer,2021.2.3,59.943018166569075,
117.0,117.8,1,0.75,Stimuli\ImageFiles-Set2\Objects\Object_Sandal_00001.png,0,0,0,188,188,188,,,,,,,,,,,,,117.02037620000192,0.020376200001919642,1,152.80849900000248,152.80849900000248,152.80849900000248,152.80849900000248,152.80849900000248,152.80849900000248,152.80849900000248,152.80849900000248,0.5060438000000431,002,P009,2025_Feb_01_1400,CategoryLocalizer,2021.2.3,59.943018166569075,
117.8,118.0,5,0.0,Stimuli\Blank.png,0,0,0,189,189,189,,,,,,,,,,,,,117.81962389999899,0.01962389999899017,None,153.59252480000214,153.59252480000214,153.59252480000214,153.59252480000214,153.59252480000214,153.59252480000214,153.59252480000214,153.59252480000214,,002,P009,2025_Feb_01_1400,CategoryLocalizer,2021.2.3,59.943018166569075,
118.0,118.8,1,0.75,Stimuli\ImageFiles-Set2\Objects\Object_Barrel_00001.png,0,0,0,190,190,190,,,,,,,,,,,,,118.00440140000137,0.004401400001370348,None,153.79268869999942,153.79268869999942,153.79268869999942,153.79268869999942,153.79268869999942,153.79268869999942,153.79268869999942,153.79268869999942,,002,P009,2025_Feb_01_1400,CategoryLocalizer,2021.2.3,59.943018166569075,
118.8,119.0,5,0.0,Stimuli\Blank.png,0,0,0,191,191,191,,,,,,,,,,,,,118.82087300000057,0.020873000000577235,None,154.59340599999996,154.59340599999996,154.59340599999996,154.59340599999996,154.59340599999996,154.59340599999996,154.59340599999996,154.59340599999996,,002,P009,2025_Feb_01_1400,CategoryLocalizer,2021.2.3,59.943018166569075,
119.0,119.8,1,0.75,Stimuli\ImageFiles-Set2\Objects\Object_Tomato_00001.png,0,0,0,192,192,192,,,,,,,,,,,,,119.00381510000079,0.0038151000007928815,None,154.77691440000126,154.77691440000126,154.77691440000126,154.77691440000126,154.77691440000126,154.77691440000126,154.77691440000126,154.77691440000126,,002,P009,2025_Feb_01_1400,CategoryLocalizer,2021.2.3,59.943018166569075,
119.8,120.0,5,0.0,Stimuli\Blank.png,0,0,0,193,193,193,,,,,,,,,,,,,119.80452040000091,0.0045204000009135825,None,155.5776076000002,155.5776076000002,155.5776076000002,155.5776076000002,155.5776076000002,155.5776076000002,155.5776076000002,155.5776076000002,,002,P009,2025_Feb_01_1400,CategoryLocalizer,2021.2.3,59.943018166569075,
120.0,120.8,4,0.75,Stimuli\ImageFiles-Set2\Scenes\Scenes_118.png,0,0,0,194,194,194,,,,,,,,,,,,,120.00491949999923,0.004919499999232357,None,155.77779020000162,155.77779020000162,155.77779020000162,155.77779020000162,155.77779020000162,155.77779020000162,155.77779020000162,155.77779020000162,,002,P009,2025_Feb_01_1400,CategoryLocalizer,2021.2.3,59.943018166569075,
120.8,121.0,5,0.0,Stimuli\Blank.png,0,0,0,195,195,195,,,,,,,,,,,,,120.80547410000145,0.005474100001450211,None,156.57846040000004,156.57846040000004,156.57846040000004,156.57846040000004,156.57846040000004,156.57846040000004,156.57846040000004,156.57846040000004,,002,P009,2025_Feb_01_1400,CategoryLocalizer,2021.2.3,59.943018166569075,
121.0,121.8,4,0.75,Stimuli\ImageFiles-Set2\Scenes\Scenes_090.png,0,0,0,196,196,196,,,,,,,,,,,,,121.0055355000004,0.005535500000405591,None,156.77866659999927,156.77866659999927,156.77866659999927,156.77866659999927,156.77866659999927,156.77866659999927,156.77866659999927,156.77866659999927,,002,P009,2025_Feb_01_1400,CategoryLocalizer,2021.2.3,59.943018166569075,
121.8,122.0,5,0.0,Stimuli\Blank.png,0,0,0,197,197,197,,,,,,,,,,,,,121.80681760000152,0.006817600001525648,None,157.57937800000218,157.57937800000218,157.57937800000218,157.57937800000218,157.57937800000218,157.57937800000218,157.57937800000218,157.57937800000218,,002,P009,2025_Feb_01_1400,CategoryLocalizer,2021.2.3,59.943018166569075,
122.0,122.8,4,0.75,Stimuli\ImageFiles-Set2\Scenes\Scenes_074.png,0,0,0,198,198,198,,,,,,,,,,,,,122.00716850000026,0.007168500000261702,None,157.77955790000124,157.77955790000124,157.77955790000124,157.77955790000124,157.77955790000124,157.77955790000124,157.77955790000124,157.77955790000124,,002,P009,2025_Feb_01_1400,CategoryLocalizer,2021.2.3,59.943018166569075,
122.8,123.0,5,0.0,Stimuli\Blank.png,0,0,0,199,199,199,,,,,,,,,,,,,122.80733560000226,0.0073356000022641865,None,158.58029270000043,158.58029270000043,158.58029270000043,158.58029270000043,158.58029270000043,158.58029270000043,158.58029270000043,158.58029270000043,,002,P009,2025_Feb_01_1400,CategoryLocalizer,2021.2.3,59.943018166569075,
123.0,123.8,4,0.75,Stimuli\ImageFiles-Set2\Scenes\Scenes_069.png,0,0,0,200,200,200,,,,,,,,,,,,,123.0099689000017,0.009968900001695147,None,158.79712479999944,158.79712479999944,158.79712479999944,158.79712479999944,158.79712479999944,158.79712479999944,158.79712479999944,158.79712479999944,,002,P009,2025_Feb_01_1400,CategoryLocalizer,2021.2.3,59.943018166569075,
123.8,124.0,5,0.0,Stimuli\Blank.png,0,0,0,201,201,201,,,,,,,,,,,,,123.82620010000028,0.026200100000281168,None,159.5978361000016,159.5978361000016,159.5978361000016,159.5978361000016,159.5978361000016,159.5978361000016,159.5978361000016,159.5978361000016,,002,P009,2025_Feb_01_1400,CategoryLocalizer,2021.2.3,59.943018166569075,
124.0,124.8,4,0.75,Stimuli\ImageFiles-Set2\Scenes\Scenes_116.png,0,0,0,202,202,202,,,,,,,,,,,,,124.0100960000018,0.010096000001794891,None,159.79853290000028,159.79853290000028,159.79853290000028,159.79853290000028,159.79853290000028,159.79853290000028,159.79853290000028,159.79853290000028,,002,P009,2025_Feb_01_1400,CategoryLocalizer,2021.2.3,59.943018166569075,
124.8,125.0,5,0.0,Stimuli\Blank.png,0,0,0,203,203,203,,,,,,,,,,,,,124.82658670000092,0.02658670000091945,None,160.59871170000042,160.59871170000042,160.59871170000042,160.59871170000042,160.59871170000042,160.59871170000042,160.59871170000042,160.59871170000042,,002,P009,2025_Feb_01_1400,CategoryLocalizer,2021.2.3,59.943018166569075,
125.0,125.8,4,0.75,Stimuli\ImageFiles-Set2\Scenes\Scenes_080.png,0,0,0,204,204,204,,,,,,,,,,,,,125.00974150000184,0.009741500001837267,None,160.79889170000024,160.79889170000024,160.79889170000024,160.79889170000024,160.79889170000024,160.79889170000024,160.79889170000024,160.79889170000024,,002,P009,2025_Feb_01_1400,CategoryLocalizer,2021.2.3,59.943018166569075,
125.8,126.0,5,0.0,Stimuli\Blank.png,0,0,0,205,205,205,,,,,,,,,,,,,125.82735460000185,0.027354600001856966,None,161.59960789999968,161.59960789999968,161.59960789999968,161.59960789999968,161.59960789999968,161.59960789999968,161.59960789999968,161.59960789999968,,002,P009,2025_Feb_01_1400,CategoryLocalizer,2021.2.3,59.943018166569075,
126.0,126.8,4,0.75,Stimuli\ImageFiles-Set2\Scenes\Scenes_097.png,0,0,0,206,206,206,,,,,,,,,,,,,126.01006160000179,0.010061600001790794,None,161.78310690000217,161.78310690000217,161.78310690000217,161.78310690000217,161.78310690000217,161.78310690000217,161.78310690000217,161.78310690000217,,002,P009,2025_Feb_01_1400,CategoryLocalizer,2021.2.3,59.943018166569075,
126.8,127.0,5,0.0,Stimuli\Blank.png,0,0,0,207,207,207,,,,,,,,,,,,,126.81170310000016,0.011703100000161726,None,162.58380460000262,162.58380460000262,162.58380460000262,162.58380460000262,162.58380460000262,162.58380460000262,162.58380460000262,162.58380460000262,,002,P009,2025_Feb_01_1400,CategoryLocalizer,2021.2.3,59.943018166569075,
127.0,127.8,4,0.75,Stimuli\ImageFiles-Set2\Scenes\Scenes_097.png,1,1,0,208,208,208,,,,,,,,,,,,,127.01158460000079,0.01158460000078776,1,162.7839793000021,162.7839793000021,162.7839793000021,162.7839793000021,162.7839793000021,162.7839793000021,162.7839793000021,162.7839793000021,0.4113625999998476,002,P009,2025_Feb_01_1400,CategoryLocalizer,2021.2.3,59.943018166569075,
127.8,128.0,5,0.0,Stimuli\Blank.png,0,0,0,209,209,209,,,,,,,,,,,,,127.811944699999,0.011944699999006048,None,163.58468920000087,163.58468920000087,163.58468920000087,163.58468920000087,163.58468920000087,163.58468920000087,163.58468920000087,163.58468920000087,,002,P009,2025_Feb_01_1400,CategoryLocalizer,2021.2.3,59.943018166569075,
128.0,128.8,4,0.75,Stimuli\ImageFiles-Set2\Scenes\Scenes_095.png,0,0,0,210,210,210,,,,,,,,,,,,,128.01232789999995,0.012327899999945657,None,163.78486650000195,163.78486650000195,163.78486650000195,163.78486650000195,163.78486650000195,163.78486650000195,163.78486650000195,163.78486650000195,,002,P009,2025_Feb_01_1400,CategoryLocalizer,2021.2.3,59.943018166569075,
128.8,129.0,5,0.0,Stimuli\Blank.png,0,0,0,211,211,211,,,,,,,,,,,,,128.8132258000005,0.013225800000498111,None,164.5855862999997,164.5855862999997,164.5855862999997,164.5855862999997,164.5855862999997,164.5855862999997,164.5855862999997,164.5855862999997,,002,P009,2025_Feb_01_1400,CategoryLocalizer,2021.2.3,59.943018166569075,
129.0,129.8,4,0.75,Stimuli\ImageFiles-Set2\Scenes\Scenes_093.png,0,0,0,212,212,212,,,,,,,,,,,,,129.01347929999974,0.013479299999744399,None,164.8024503000015,164.8024503000015,164.8024503000015,164.8024503000015,164.8024503000015,164.8024503000015,164.8024503000015,164.8024503000015,,002,P009,2025_Feb_01_1400,CategoryLocalizer,2021.2.3,59.943018166569075,
129.8,130.0,5,0.0,Stimuli\Blank.png,0,0,0,213,213,213,,,,,,,,,,,,,129.83067900000242,0.030679000002407975,None,165.60313270000188,165.60313270000188,165.60313270000188,165.60313270000188,165.60313270000188,165.60313270000188,165.60313270000188,165.60313270000188,,002,P009,2025_Feb_01_1400,CategoryLocalizer,2021.2.3,59.943018166569075,
130.0,130.8,4,0.75,Stimuli\ImageFiles-Set2\Scenes\Scenes_087.png,0,0,0,214,214,214,,,,,,,,,,,,,130.0151560000013,0.015156000001297798,None,165.8033213000017,165.8033213000017,165.8033213000017,165.8033213000017,165.8033213000017,165.8033213000017,165.8033213000017,165.8033213000017,,002,P009,2025_Feb_01_1400,CategoryLocalizer,2021.2.3,59.943018166569075,
130.8,131.0,5,0.0,Stimuli\Blank.png,0,0,0,215,215,215,,,,,,,,,,,,,130.81506480000098,0.01506480000097099,None,166.58739250000144,166.58739250000144,166.58739250000144,166.58739250000144,166.58739250000144,166.58739250000144,166.58739250000144,166.58739250000144,,002,P009,2025_Feb_01_1400,CategoryLocalizer,2021.2.3,59.943018166569075,
131.0,131.8,4,0.75,Stimuli\ImageFiles-Set2\Scenes\Scenes_111.png,0,0,0,216,216,216,,,,,,,,,,,,,131.0143339999995,0.014333999999507796,None,166.78751209999973,166.78751209999973,166.78751209999973,166.78751209999973,166.78751209999973,166.78751209999973,166.78751209999973,166.78751209999973,,002,P009,2025_Feb_01_1400,CategoryLocalizer,2021.2.3,59.943018166569075,
131.8,132.0,5,0.0,Stimuli\Blank.png,0,0,0,217,217,217,,,,,,,,,,,,,131.81647040000098,0.01647040000096922,None,167.58823739999934,167.58823739999934,167.58823739999934,167.58823739999934,167.58823739999934,167.58823739999934,167.58823739999934,167.58823739999934,,002,P009,2025_Feb_01_1400,CategoryLocalizer,2021.2.3,59.943018166569075,
132.0,132.8,4,0.75,Stimuli\ImageFiles-Set2\Scenes\Scenes_072.png,0,0,0,218,218,218,,,,,,,,,,,,,132.00106310000047,0.001063100000465056,None,167.78840040000068,167.78840040000068,167.78840040000068,167.78840040000068,167.78840040000068,167.78840040000068,167.78840040000068,167.78840040000068,,002,P009,2025_Feb_01_1400,CategoryLocalizer,2021.2.3,59.943018166569075,
132.8,133.0,5,0.0,Stimuli\Blank.png,0,0,0,219,219,219,,,,,,,,,,,,,132.81634530000156,0.016345300001546548,None,168.58911620000072,168.58911620000072,168.58911620000072,168.58911620000072,168.58911620000072,168.58911620000072,168.58911620000072,168.58911620000072,,002,P009,2025_Feb_01_1400,CategoryLocalizer,2021.2.3,59.943018166569075,
133.0,133.8,4,0.75,Stimuli\ImageFiles-Set2\Scenes\Scenes_065.png,0,0,0,220,220,220,,,,,,,,,,,,,132.99945310000112,-0.00054689999888069,None,168.7726012000021,168.7726012000021,168.7726012000021,168.7726012000021,168.7726012000021,168.7726012000021,168.7726012000021,168.7726012000021,,002,P009,2025_Feb_01_1400,CategoryLocalizer,2021.2.3,59.943018166569075,
133.8,134.0,5,0.0,Stimuli\Blank.png,0,0,0,221,221,221,,,,,,,,,,,,,133.80130180000197,0.0013018000019542342,None,169.5733285999995,169.5733285999995,169.5733285999995,169.5733285999995,169.5733285999995,169.5733285999995,169.5733285999995,169.5733285999995,,002,P009,2025_Feb_01_1400,CategoryLocalizer,2021.2.3,59.943018166569075,
134.0,134.8,4,0.75,Stimuli\ImageFiles-Set2\Scenes\Scenes_102.png,0,0,0,222,222,222,,,,,,,,,,,,,134.0028065000006,0.00280650000058813,None,169.79017609999937,169.79017609999937,169.79017609999937,169.79017609999937,169.79017609999937,169.79017609999937,169.79017609999937,169.79017609999937,,002,P009,2025_Feb_01_1400,CategoryLocalizer,2021.2.3,59.943018166569075,
134.8,135.0,5,0.0,Stimuli\Blank.png,0,0,0,223,223,223,,,,,,,,,,,,,134.81788779999988,0.017887799999869003,None,170.59088239999983,170.59088239999983,170.59088239999983,170.59088239999983,170.59088239999983,170.59088239999983,170.59088239999983,170.59088239999983,,002,P009,2025_Feb_01_1400,CategoryLocalizer,2021.2.3,59.943018166569075,
135.0,135.8,4,0.75,Stimuli\ImageFiles-Set2\Scenes\Scenes_066.png,0,0,0,224,224,224,,,,,,,,,,,,,135.00145460000203,0.0014546000020345673,None,170.7744195000014,170.7744195000014,170.7744195000014,170.7744195000014,170.7744195000014,170.7744195000014,170.7744195000014,170.7744195000014,,002,P009,2025_Feb_01_1400,CategoryLocalizer,2021.2.3,59.943018166569075,
135.8,136.0,5,0.0,Stimuli\Blank.png,0,0,0,225,225,225,,,,,,,,,,,,,135.80302870000014,0.0030287000001294473,None,171.57510710000133,171.57510710000133,171.57510710000133,171.57510710000133,171.57510710000133,171.57510710000133,171.57510710000133,171.57510710000133,,002,P009,2025_Feb_01_1400,CategoryLocalizer,2021.2.3,59.943018166569075,
136.0,136.8,2,0.75,Stimuli\ImageFiles-Set2\Bodies\Bodies_SittingChair_00004.png,0,0,0,226,226,226,,,,,,,,,,,,,136.00208120000025,0.002081200000247918,None,171.79194590000043,171.79194590000043,171.79194590000043,171.79194590000043,171.79194590000043,171.79194590000043,171.79194590000043,171.79194590000043,,002,P009,2025_Feb_01_1400,CategoryLocalizer,2021.2.3,59.943018166569075,
136.8,137.0,5,0.0,Stimuli\Blank.png,0,0,0,227,227,227,,,,,,,,,,,,,136.82077449999997,0.020774499999959062,None,172.5926627000008,172.5926627000008,172.5926627000008,172.5926627000008,172.5926627000008,172.5926627000008,172.5926627000008,172.5926627000008,,002,P009,2025_Feb_01_1400,CategoryLocalizer,2021.2.3,59.943018166569075,
137.0,137.8,2,0.75,Stimuli\ImageFiles-Set2\Bodies\Bodies_DownwardDog_00004.png,0,0,0,228,228,228,,,,,,,,,,,,,137.0028839000006,0.0028839000005973503,None,172.7761986000005,172.7761986000005,172.7761986000005,172.7761986000005,172.7761986000005,172.7761986000005,172.7761986000005,172.7761986000005,,002,P009,2025_Feb_01_1400,CategoryLocalizer,2021.2.3,59.943018166569075,
137.8,138.0,5,0.0,Stimuli\Blank.png,0,0,0,229,229,229,,,,,,,,,,,,,137.80493860000206,0.004938600002049043,None,173.57687240000087,173.57687240000087,173.57687240000087,173.57687240000087,173.57687240000087,173.57687240000087,173.57687240000087,173.57687240000087,,002,P009,2025_Feb_01_1400,CategoryLocalizer,2021.2.3,59.943018166569075,
138.0,138.8,2,0.75,Stimuli\ImageFiles-Set2\Bodies\Bodies_Standing_00004.png,0,0,0,230,230,230,,,,,,,,,,,,,138.00442900000053,0.004429000000527594,None,173.7770421000023,173.7770421000023,173.7770421000023,173.7770421000023,173.7770421000023,173.7770421000023,173.7770421000023,173.7770421000023,,002,P009,2025_Feb_01_1400,CategoryLocalizer,2021.2.3,59.943018166569075,
138.8,139.0,5,0.0,Stimuli\Blank.png,0,0,0,231,231,231,,,,,,,,,,,,,138.8051411000015,0.005141100001480936,None,174.57775480000055,174.57775480000055,174.57775480000055,174.57775480000055,174.57775480000055,174.57775480000055,174.57775480000055,174.57775480000055,,002,P009,2025_Feb_01_1400,CategoryLocalizer,2021.2.3,59.943018166569075,
139.0,139.8,2,0.75,Stimuli\ImageFiles-Set2\Bodies\Bodies_Lunging_00006.png,0,0,0,232,232,232,,,,,,,,,,,,,139.005529500002,0.005529500002012355,None,174.77791730000172,174.77791730000172,174.77791730000172,174.77791730000172,174.77791730000172,174.77791730000172,174.77791730000172,174.77791730000172,,002,P009,2025_Feb_01_1400,CategoryLocalizer,2021.2.3,59.943018166569075,
139.8,140.0,5,0.0,Stimuli\Blank.png,0,0,0,233,233,233,,,,,,,,,,,,,139.80662890000167,0.006628900001658167,None,175.59529210000255,175.59529210000255,175.59529210000255,175.59529210000255,175.59529210000255,175.59529210000255,175.59529210000255,175.59529210000255,,002,P009,2025_Feb_01_1400,CategoryLocalizer,2021.2.3,59.943018166569075,
140.0,140.8,2,0.75,Stimuli\ImageFiles-Set2\Bodies\Bodies_Hanging_00001.png,0,0,0,234,234,234,,,,,,,,,,,,,140.02368950000164,0.023689500001637498,None,175.7954877000011,175.7954877000011,175.7954877000011,175.7954877000011,175.7954877000011,175.7954877000011,175.7954877000011,175.7954877000011,,002,P009,2025_Feb_01_1400,CategoryLocalizer,2021.2.3,59.943018166569075,
140.8,141.0,5,0.0,Stimuli\Blank.png,0,0,0,235,235,235,,,,,,,,,,,,,140.80647450000106,0.006474500001047545,None,176.5795106000005,176.5795106000005,176.5795106000005,176.5795106000005,176.5795106000005,176.5795106000005,176.5795106000005,176.5795106000005,,002,P009,2025_Feb_01_1400,CategoryLocalizer,2021.2.3,59.943018166569075,
141.0,141.8,2,0.75,Stimuli\ImageFiles-Set2\Bodies\Bodies_SittingFloor_00004.png,0,0,0,236,236,236,,,,,,,,,,,,,141.00657069999943,0.006570699999429053,None,176.7963931000013,176.7963931000013,176.7963931000013,176.7963931000013,176.7963931000013,176.7963931000013,176.7963931000013,176.7963931000013,,002,P009,2025_Feb_01_1400,CategoryLocalizer,2021.2.3,59.943018166569075,
141.8,142.0,5,0.0,Stimuli\Blank.png,0,0,0,237,237,237,,,,,,,,,,,,,141.82459500000186,0.02459500000185244,None,177.59708800000226,177.59708800000226,177.59708800000226,177.59708800000226,177.59708800000226,177.59708800000226,177.59708800000226,177.59708800000226,,002,P009,2025_Feb_01_1400,CategoryLocalizer,2021.2.3,59.943018166569075,
142.0,142.8,2,0.75,Stimuli\ImageFiles-Set2\Bodies\Bodies_Running_00001.png,0,0,0,238,238,238,,,,,,,,,,,,,142.01075710000077,0.01075710000077379,None,177.79728389999946,177.79728389999946,177.79728389999946,177.79728389999946,177.79728389999946,177.79728389999946,177.79728389999946,177.79728389999946,,002,P009,2025_Feb_01_1400,CategoryLocalizer,2021.2.3,59.943018166569075,
142.8,143.0,5,0.0,Stimuli\Blank.png,0,0,0,239,239,239,,,,,,,,,,,,,142.8260690999996,0.02606909999957452,None,178.59797350000008,178.59797350000008,178.59797350000008,178.59797350000008,178.59797350000008,178.59797350000008,178.59797350000008,178.59797350000008,,002,P009,2025_Feb_01_1400,CategoryLocalizer,2021.2.3,59.943018166569075,
143.0,143.8,2,0.75,Stimuli\ImageFiles-Set2\Bodies\Bodies_Running_00001.png,1,1,0,240,240,240,,,,,,,,,,,,,143.01016399999935,0.010163999999349471,1,178.79815020000024,178.79815020000024,178.79815020000024,178.79815020000024,178.79815020000024,178.79815020000024,178.79815020000024,178.79815020000024,0.35402719999910914,002,P009,2025_Feb_01_1400,CategoryLocalizer,2021.2.3,59.943018166569075,
143.8,144.0,5,0.0,Stimuli\Blank.png,0,0,0,241,241,241,,,,,,,,,,,,,143.82585670000117,0.025856700001156696,None,179.59886220000044,179.59886220000044,179.59886220000044,179.59886220000044,179.59886220000044,179.59886220000044,179.59886220000044,179.59886220000044,,002,P009,2025_Feb_01_1400,CategoryLocalizer,2021.2.3,59.943018166569075,
144.0,144.8,2,0.75,Stimuli\ImageFiles-Set2\Bodies\Bodies_Jumping_00001.png,0,0,0,242,242,242,,,,,,,,,,,,,144.01009500000146,0.010095000001456356,None,179.7823438000014,179.7823438000014,179.7823438000014,179.7823438000014,179.7823438000014,179.7823438000014,179.7823438000014,179.7823438000014,,002,P009,2025_Feb_01_1400,CategoryLocalizer,2021.2.3,59.943018166569075,
144.8,145.0,5,0.0,Stimuli\Blank.png,0,0,0,243,243,243,,,,,,,,,,,,,144.8103923000017,0.010392300001683452,None,180.583060500001,180.583060500001,180.583060500001,180.583060500001,180.583060500001,180.583060500001,180.583060500001,180.583060500001,,002,P009,2025_Feb_01_1400,CategoryLocalizer,2021.2.3,59.943018166569075,
145.0,145.8,2,0.75,Stimuli\ImageFiles-Set2\Bodies\Bodies_Waving_00002.png,0,0,0,244,244,244,,,,,,,,,,,,,145.01119019999896,0.01119019999896409,None,180.80077000000165,180.80077000000165,180.80077000000165,180.80077000000165,180.80077000000165,180.80077000000165,180.80077000000165,180.80077000000165,,002,P009,2025_Feb_01_1400,CategoryLocalizer,2021.2.3,59.943018166569075,
145.8,146.0,5,0.0,Stimuli\Blank.png,0,0,0,245,245,245,,,,,,,,,,,,,145.8275348999996,0.02753489999957992,None,181.60062690000268,181.60062690000268,181.60062690000268,181.60062690000268,181.60062690000268,181.60062690000268,181.60062690000268,181.60062690000268,,002,P009,2025_Feb_01_1400,CategoryLocalizer,2021.2.3,59.943018166569075,
146.0,146.8,2,0.75,Stimuli\ImageFiles-Set2\Bodies\Bodies_Crawling_00002.png,0,0,0,246,246,246,,,,,,,,,,,,,146.0109592000008,0.010959200000797864,None,181.78412160000153,181.78412160000153,181.78412160000153,181.78412160000153,181.78412160000153,181.78412160000153,181.78412160000153,181.78412160000153,,002,P009,2025_Feb_01_1400,CategoryLocalizer,2021.2.3,59.943018166569075,
146.8,147.0,5,0.0,Stimuli\Blank.png,0,0,0,247,247,247,,,,,,,,,,,,,146.81223189999946,0.01223189999944907,None,182.5848251000025,182.5848251000025,182.5848251000025,182.5848251000025,182.5848251000025,182.5848251000025,182.5848251000025,182.5848251000025,,002,P009,2025_Feb_01_1400,CategoryLocalizer,2021.2.3,59.943018166569075,
147.0,147.8,2,0.75,Stimuli\ImageFiles-Set2\Bodies\Bodies_PushUp_00003.png,0,0,0,248,248,248,,,,,,,,,,,,,147.01192230000015,0.011922300000151154,None,182.78508710000096,182.78508710000096,182.78508710000096,182.78508710000096,182.78508710000096,182.78508710000096,182.78508710000096,182.78508710000096,,002,P009,2025_Feb_01_1400,CategoryLocalizer,2021.2.3,59.943018166569075,
147.8,148.0,5,0.0,Stimuli\Blank.png,0,0,0,249,249,249,,,,,,,,,,,,,147.8137428000009,0.013742800000898114,None,183.58577929999956,183.58577929999956,183.58577929999956,183.58577929999956,183.58577929999956,183.58577929999956,183.58577929999956,183.58577929999956,,002,P009,2025_Feb_01_1400,CategoryLocalizer,2021.2.3,59.943018166569075,
148.0,148.8,2,0.75,Stimuli\ImageFiles-Set2\Bodies\Bodies_Walking_00007.png,0,0,0,250,250,250,,,,,,,,,,,,,148.01287290000255,0.012872900002548704,None,183.80261260000043,183.80261260000043,183.80261260000043,183.80261260000043,183.80261260000043,183.80261260000043,183.80261260000043,183.80261260000043,,002,P009,2025_Feb_01_1400,CategoryLocalizer,2021.2.3,59.943018166569075,
148.8,149.0,5,0.0,Stimuli\Blank.png,0,0,0,251,251,251,,,,,,,,,,,,,148.8307816000015,0.03078160000148955,None,184.60342579999997,184.60342579999997,184.60342579999997,184.60342579999997,184.60342579999997,184.60342579999997,184.60342579999997,184.60342579999997,,002,P009,2025_Feb_01_1400,CategoryLocalizer,2021.2.3,59.943018166569075,
149.0,149.8,2,0.75,Stimuli\ImageFiles-Set2\Bodies\Bodies_Falling_00001.png,0,0,0,252,252,252,,,,,,,,,,,,,149.01549100000193,0.015491000001929933,None,184.80346970000028,184.80346970000028,184.80346970000028,184.80346970000028,184.80346970000028,184.80346970000028,184.80346970000028,184.80346970000028,,002,P009,2025_Feb_01_1400,CategoryLocalizer,2021.2.3,59.943018166569075,
149.8,150.0,5,0.0,Stimuli\Blank.png,0,0,0,253,253,253,,,,,,,,,,,,,149.81469310000102,0.014693100001011317,None,185.58748760000162,185.58748760000162,185.58748760000162,185.58748760000162,185.58748760000162,185.58748760000162,185.58748760000162,185.58748760000162,,002,P009,2025_Feb_01_1400,CategoryLocalizer,2021.2.3,59.943018166569075,
150.0,150.8,2,0.75,Stimuli\ImageFiles-Set2\Bodies\Bodies_PushUp_00006.png,0,0,0,254,254,254,,,,,,,,,,,,,150.016886100002,0.016886100002011517,None,185.80435389999911,185.80435389999911,185.80435389999911,185.80435389999911,185.80435389999911,185.80435389999911,185.80435389999911,185.80435389999911,,002,P009,2025_Feb_01_1400,CategoryLocalizer,2021.2.3,59.943018166569075,
150.8,151.0,5,0.0,Stimuli\Blank.png,0,0,0,255,255,255,,,,,,,,,,,,,150.81578079999963,0.01578079999961801,None,186.58837960000164,186.58837960000164,186.58837960000164,186.58837960000164,186.58837960000164,186.58837960000164,186.58837960000164,186.58837960000164,,002,P009,2025_Feb_01_1400,CategoryLocalizer,2021.2.3,59.943018166569075,
151.0,151.8,2,0.75,Stimuli\ImageFiles-Set2\Bodies\Bodies_QuadStretch_00006.png,0,0,0,256,256,256,,,,,,,,,,,,,151.0005521000021,0.0005521000020962674,None,186.7885427000001,186.7885427000001,186.7885427000001,186.7885427000001,186.7885427000001,186.7885427000001,186.7885427000001,186.7885427000001,,002,P009,2025_Feb_01_1400,CategoryLocalizer,2021.2.3,59.943018166569075,
151.8,152.0,5,0.0,Stimuli\Blank.png,0,0,0,257,257,257,,,,,,,,,,,,,151.81609939999908,0.016099399999063735,None,187.58925050000107,187.58925050000107,187.58925050000107,187.58925050000107,187.58925050000107,187.58925050000107,187.58925050000107,187.58925050000107,,002,P009,2025_Feb_01_1400,CategoryLocalizer,2021.2.3,59.943018166569075,
152.0,164.0,0,0.0,Stimuli\Blank.png,0,0,0,258,258,258,,,,,,,,,,,,,151.9996510000019,-0.00034899999809567817,None,187.77271640000254,187.77271640000254,187.77271640000254,187.77271640000254,187.77271640000254,187.77271640000254,187.77271640000254,187.77271640000254,,002,P009,2025_Feb_01_1400,CategoryLocalizer,2021.2.3,59.943018166569075,
164.0,164.8,4,0.75,Stimuli\ImageFiles-Set2\Scenes\Scenes_082.png,0,0,0,259,259,259,,,,,,,,,,,,,164.01057869999931,0.010578699999314267,None,199.8000792999992,199.8000792999992,199.8000792999992,199.8000792999992,199.8000792999992,199.8000792999992,199.8000792999992,199.8000792999992,,002,P009,2025_Feb_01_1400,CategoryLocalizer,2021.2.3,59.943018166569075,
164.8,165.0,5,0.0,Stimuli\Blank.png,0,0,0,260,260,260,,,,,,,,,,,,,164.8302076,0.030207599999982904,None,200.6174506999996,200.6174506999996,200.6174506999996,200.6174506999996,200.6174506999996,200.6174506999996,200.6174506999996,200.6174506999996,,002,P009,2025_Feb_01_1400,CategoryLocalizer,2021.2.3,59.943018166569075,
165.0,165.8,4,0.75,Stimuli\ImageFiles-Set2\Scenes\Scenes_115.png,0,0,0,261,261,261,,,,,,,,,,,,,165.02800710000156,0.028007100001559593,None,200.80094570000074,200.80094570000074,200.80094570000074,200.80094570000074,200.80094570000074,200.80094570000074,200.80094570000074,200.80094570000074,,002,P009,2025_Feb_01_1400,CategoryLocalizer,2021.2.3,59.943018166569075,
165.8,166.0,5,0.0,Stimuli\Blank.png,0,0,0,262,262,262,,,,,,,,,,,,,165.81176250000135,0.011762500001339049,None,201.58496530000048,201.58496530000048,201.58496530000048,201.58496530000048,201.58496530000048,201.58496530000048,201.58496530000048,201.58496530000048,,002,P009,2025_Feb_01_1400,CategoryLocalizer,2021.2.3,59.943018166569075,
166.0,166.8,4,0.75,Stimuli\ImageFiles-Set2\Scenes\Scenes_108.png,0,0,0,263,263,263,,,,,,,,,,,,,166.0123547000003,0.012354700000287266,None,201.78515139999945,201.78515139999945,201.78515139999945,201.78515139999945,201.78515139999945,201.78515139999945,201.78515139999945,201.78515139999945,,002,P009,2025_Feb_01_1400,CategoryLocalizer,2021.2.3,59.943018166569075,
166.8,167.0,5,0.0,Stimuli\Blank.png,0,0,0,264,264,264,,,,,,,,,,,,,166.8144902999993,0.014490299999295075,None,202.5861991999991,202.5861991999991,202.5861991999991,202.5861991999991,202.5861991999991,202.5861991999991,202.5861991999991,202.5861991999991,,002,P009,2025_Feb_01_1400,CategoryLocalizer,2021.2.3,59.943018166569075,
167.0,167.8,4,0.75,Stimuli\ImageFiles-Set2\Scenes\Scenes_088.png,0,0,0,265,265,265,,,,,,,,,,,,,167.01602600000115,0.016026000001147622,None,202.80279630000223,202.80279630000223,202.80279630000223,202.80279630000223,202.80279630000223,202.80279630000223,202.80279630000223,202.80279630000223,,002,P009,2025_Feb_01_1400,CategoryLocalizer,2021.2.3,59.943018166569075,
167.8,168.0,5,0.0,Stimuli\Blank.png,0,0,0,266,266,266,,,,,,,,,,,,,167.81557740000062,0.015577400000609032,None,203.60344240000268,203.60344240000268,203.60344240000268,203.60344240000268,203.60344240000268,203.60344240000268,203.60344240000268,203.60344240000268,,002,P009,2025_Feb_01_1400,CategoryLocalizer,2021.2.3,59.943018166569075,
168.0,168.8,4,0.75,Stimuli\ImageFiles-Set2\Scenes\Scenes_071.png,0,0,0,267,267,267,,,,,,,,,,,,,168.01413650000177,0.014136500001768582,None,203.8036185000019,203.8036185000019,203.8036185000019,203.8036185000019,203.8036185000019,203.8036185000019,203.8036185000019,203.8036185000019,,002,P009,2025_Feb_01_1400,CategoryLocalizer,2021.2.3,59.943018166569075,
168.8,169.0,5,0.0,Stimuli\Blank.png,0,0,0,268,268,268,,,,,,,,,,,,,168.83183049999934,0.031830499999330186,None,204.60517640000035,204.60517640000035,204.60517640000035,204.60517640000035,204.60517640000035,204.60517640000035,204.60517640000035,204.60517640000035,,002,P009,2025_Feb_01_1400,CategoryLocalizer,2021.2.3,59.943018166569075,
169.0,169.8,4,0.75,Stimuli\ImageFiles-Set2\Scenes\Scenes_094.png,0,0,0,269,269,269,,,,,,,,,,,,,169.01479100000142,0.014791000001423527,None,204.78779660000146,204.78779660000146,204.78779660000146,204.78779660000146,204.78779660000146,204.78779660000146,204.78779660000146,204.78779660000146,,002,P009,2025_Feb_01_1400,CategoryLocalizer,2021.2.3,59.943018166569075,
169.8,170.0,5,0.0,Stimuli\Blank.png,0,0,0,270,270,270,,,,,,,,,,,,,169.8158930999998,0.015893099999800597,None,205.5884972999993,205.5884972999993,205.5884972999993,205.5884972999993,205.5884972999993,205.5884972999993,205.5884972999993,205.5884972999993,,002,P009,2025_Feb_01_1400,CategoryLocalizer,2021.2.3,59.943018166569075,
170.0,170.8,4,0.75,Stimuli\ImageFiles-Set2\Scenes\Scenes_094.png,1,1,0,271,271,271,,,,,,,,,,,,,170.000549700002,0.0005497000020113774,None,205.78868580000199,205.78868580000199,205.78868580000199,205.78868580000199,205.78868580000199,205.78868580000199,205.78868580000199,205.78868580000199,,002,P009,2025_Feb_01_1400,CategoryLocalizer,2021.2.3,59.943018166569075,
170.8,171.0,5,0.0,Stimuli\Blank.png,0,0,0,272,272,272,,,,,,,,,,,,,170.81616270000086,0.016162700000847963,None,206.58938870000202,206.58938870000202,206.58938870000202,206.58938870000202,206.58938870000202,206.58938870000202,206.58938870000202,206.58938870000202,,002,P009,2025_Feb_01_1400,CategoryLocalizer,2021.2.3,59.943018166569075,
171.0,171.8,4,0.75,Stimuli\ImageFiles-Set2\Scenes\Scenes_103.png,0,0,0,273,273,273,,,,,,,,,,,,,171.00057270000252,0.0005727000025217421,None,206.7895688000026,206.7895688000026,206.7895688000026,206.7895688000026,206.7895688000026,206.7895688000026,206.7895688000026,206.7895688000026,,002,P009,2025_Feb_01_1400,CategoryLocalizer,2021.2.3,59.943018166569075,
171.8,172.0,5,0.0,Stimuli\Blank.png,0,0,0,274,274,274,,,,,,,,,,,,,171.8171708000009,0.017170800000883446,None,207.5902810000007,207.5902810000007,207.5902810000007,207.5902810000007,207.5902810000007,207.5902810000007,207.5902810000007,207.5902810000007,,002,P009,2025_Feb_01_1400,CategoryLocalizer,2021.2.3,59.943018166569075,
172.0,172.8,4,0.75,Stimuli\ImageFiles-Set2\Scenes\Scenes_070.png,0,0,0,275,275,275,,,,,,,,,,,,,172.00075619999916,0.0007561999991594348,None,207.7737675999997,207.7737675999997,207.7737675999997,207.7737675999997,207.7737675999997,207.7737675999997,207.7737675999997,207.7737675999997,,002,P009,2025_Feb_01_1400,CategoryLocalizer,2021.2.3,59.943018166569075,
172.8,173.0,5,0.0,Stimuli\Blank.png,0,0,0,276,276,276,,,,,,,,,,,,,172.80189670000254,0.0018967000025327252,None,208.5744790000026,208.5744790000026,208.5744790000026,208.5744790000026,208.5744790000026,208.5744790000026,208.5744790000026,208.5744790000026,,002,P009,2025_Feb_01_1400,CategoryLocalizer,2021.2.3,59.943018166569075,
173.0,173.8,4,0.75,Stimuli\ImageFiles-Set2\Scenes\Scenes_063.png,0,0,0,277,277,277,,,,,,,,,,,,,173.0014097000021,0.0014097000021138228,None,208.7746494000021,208.7746494000021,208.7746494000021,208.7746494000021,208.7746494000021,208.7746494000021,208.7746494000021,208.7746494000021,,002,P009,2025_Feb_01_1400,CategoryLocalizer,2021.2.3,59.943018166569075,
173.8,174.0,5,0.0,Stimuli\Blank.png,0,0,0,278,278,278,,,,,,,,,,,,,173.8034716000002,0.0034716000001822067,None,209.57538230000137,209.57538230000137,209.57538230000137,209.57538230000137,209.57538230000137,209.57538230000137,209.57538230000137,209.57538230000137,,002,P009,2025_Feb_01_1400,CategoryLocalizer,2021.2.3,59.943018166569075,
174.0,174.8,4,0.75,Stimuli\ImageFiles-Set2\Scenes\Scenes_110.png,0,0,0,279,279,279,,,,,,,,,,,,,174.00243659999978,0.0024365999997826293,None,209.77553830000033,209.77553830000033,209.77553830000033,209.77553830000033,209.77553830000033,209.77553830000033,209.77553830000033,209.77553830000033,,002,P009,2025_Feb_01_1400,CategoryLocalizer,2021.2.3,59.943018166569075,
174.8,175.0,5,0.0,Stimuli\Blank.png,0,0,0,280,280,280,,,,,,,,,,,,,174.80476249999992,0.004762499999912961,None,210.59291210000083,210.59291210000083,210.59291210000083,210.59291210000083,210.59291210000083,210.59291210000083,210.59291210000083,210.59291210000083,,002,P009,2025_Feb_01_1400,CategoryLocalizer,2021.2.3,59.943018166569075,
175.0,175.8,4,0.75,Stimuli\ImageFiles-Set2\Scenes\Scenes_073.png,0,0,0,281,281,281,,,,,,,,,,,,,175.02081050000197,0.020810500001971377,None,210.793104700002,210.793104700002,210.793104700002,210.793104700002,210.793104700002,210.793104700002,210.793104700002,210.793104700002,,002,P009,2025_Feb_01_1400,CategoryLocalizer,2021.2.3,59.943018166569075,
175.8,176.0,5,0.0,Stimuli\Blank.png,0,0,0,282,282,282,,,,,,,,,,,,,175.80472030000237,0.004720300002361455,None,211.57714839999971,211.57714839999971,211.57714839999971,211.57714839999971,211.57714839999971,211.57714839999971,211.57714839999971,211.57714839999971,,002,P009,2025_Feb_01_1400,CategoryLocalizer,2021.2.3,59.943018166569075,
176.0,176.8,4,0.75,Stimuli\ImageFiles-Set2\Scenes\Scenes_107.png,0,0,0,283,283,283,,,,,,,,,,,,,176.00479339999947,0.0047933999994711485,None,211.79448630000115,211.79448630000115,211.79448630000115,211.79448630000115,211.79448630000115,211.79448630000115,211.79448630000115,211.79448630000115,,002,P009,2025_Feb_01_1400,CategoryLocalizer,2021.2.3,59.943018166569075,
176.8,177.0,5,0.0,Stimuli\Blank.png,0,0,0,284,284,284,,,,,,,,,,,,,176.82154939999964,0.02154939999962835,None,212.59470890000011,212.59470890000011,212.59470890000011,212.59470890000011,212.59470890000011,212.59470890000011,212.59470890000011,212.59470890000011,,002,P009,2025_Feb_01_1400,CategoryLocalizer,2021.2.3,59.943018166569075,
