eventStartTime,eventEndTime,eventCond,imSize,imFile,repeatedImage,responseEvent,Events.thisRepN,Events.thisTrialN,Events.thisN,Events.thisIndex,Instructions.started,Instructions.stopped,participantReadyResponse.keys,participantReadyResponse.rt,participantReadyResponse.started,participantReadyResponse.stopped,startWaitforTrigger,triggerResponse.keys,triggerResponse.rt,triggerResponse.started,triggerResponse.stopped,globalTimer,actualStartTime,startTimingDiff,participantResponse.keys,participantResponse.started,participantResponse.stopped,image.started,image.stopped,fixationOutside.started,fixationOutside.stopped,fixationInside.started,fixationInside.stopped,participantResponse.rt,session,participant,date,expName,psychopyVersion,frameRate,
,,,,,,,,,,,9.534053400002449,None,1,11.332913900001586,9.534053400002449,None,,,,,,,,,,,,,,,,,,,001,P009,2025_Feb_01_1332,CategoryLocalizer,2021.2.3,59.95947938459813,
,,,,,,,,,,,,,,,,,20.885151000002224,5,13.358632799998304,20.898321300002863,None,,,,,,,,,,,,,,001,P009,2025_Feb_01_1332,CategoryLocalizer,2021.2.3,59.95947938459813,
0.0,12.0,0,0.0,Stimuli\Blank.png,0,0,0,0,0,0,,,,,,,,,,,,34.26359880000018,0.0517628000015975,0.0517628000015975,None,34.32682950000162,None,34.32682950000162,None,34.32682950000162,None,34.32682950000162,None,,001,P009,2025_Feb_01_1332,CategoryLocalizer,2021.2.3,59.95947938459813,
12.0,12.8,1,0.75,Stimuli\ImageFiles-Set1\Objects\Object_FileFolder_00001.png,0,0,0,1,1,1,,,,,,,,,,,,,12.010923400001047,0.010923400001047412,None,46.28741940000327,46.28741940000327,46.28741940000327,46.28741940000327,46.28741940000327,46.28741940000327,46.28741940000327,46.28741940000327,,001,P009,2025_Feb_01_1332,CategoryLocalizer,2021.2.3,59.95947938459813,
12.8,13.0,5,0.0,Stimuli\Blank.png,0,0,0,2,2,2,,,,,,,,,,,,,12.809850699999515,0.00985069999951449,None,47.088121700002375,47.088121700002375,47.088121700002375,47.088121700002375,47.088121700002375,47.088121700002375,47.088121700002375,47.088121700002375,,001,P009,2025_Feb_01_1332,CategoryLocalizer,2021.2.3,59.95947938459813,
13.0,13.8,1,0.75,Stimuli\ImageFiles-Set1\Objects\Object_TeaBag_00001.png,0,0,0,3,3,3,,,,,,,,,,,,,13.01278420000017,0.012784200000169221,None,47.30498129999978,47.30498129999978,47.30498129999978,47.30498129999978,47.30498129999978,47.30498129999978,47.30498129999978,47.30498129999978,,001,P009,2025_Feb_01_1332,CategoryLocalizer,2021.2.3,59.95947938459813,
13.8,14.0,5,0.0,Stimuli\Blank.png,0,0,0,4,4,4,,,,,,,,,,,,,13.8285692999998,0.028569299999798403,None,48.10569320000286,48.10569320000286,48.10569320000286,48.10569320000286,48.10569320000286,48.10569320000286,48.10569320000286,48.10569320000286,,001,P009,2025_Feb_01_1332,CategoryLocalizer,2021.2.3,59.95947938459813,
14.0,14.8,1,0.75,Stimuli\ImageFiles-Set1\Objects\Object_Recliner_00001.png,0,0,0,5,5,5,,,,,,,,,,,,,14.011428500001784,0.011428500001784414,None,48.305865400001494,48.305865400001494,48.305865400001494,48.305865400001494,48.305865400001494,48.305865400001494,48.305865400001494,48.305865400001494,,001,P009,2025_Feb_01_1332,CategoryLocalizer,2021.2.3,59.95947938459813,
14.8,15.0,5,0.0,Stimuli\Blank.png,0,0,0,6,6,6,,,,,,,,,,,,,14.82893360000162,0.028933600001618487,None,49.1065628000033,49.1065628000033,49.1065628000033,49.1065628000033,49.1065628000033,49.1065628000033,49.1065628000033,49.1065628000033,,001,P009,2025_Feb_01_1332,CategoryLocalizer,2021.2.3,59.95947938459813,
15.0,15.8,1,0.75,Stimuli\ImageFiles-Set1\Objects\Object_Gun_00001.png,0,0,0,7,7,7,,,,,,,,,,,,,15.012359800002741,0.012359800002741395,None,49.290076000001136,49.290076000001136,49.290076000001136,49.290076000001136,49.290076000001136,49.290076000001136,49.290076000001136,49.290076000001136,,001,P009,2025_Feb_01_1332,CategoryLocalizer,2021.2.3,59.95947938459813,
15.8,16.0,5,0.0,Stimuli\Blank.png,0,0,0,8,8,8,,,,,,,,,,,,,15.81256570000187,0.012565700001868407,None,50.09077000000252,50.09077000000252,50.09077000000252,50.09077000000252,50.09077000000252,50.09077000000252,50.09077000000252,50.09077000000252,,001,P009,2025_Feb_01_1332,CategoryLocalizer,2021.2.3,59.95947938459813,
16.0,16.8,1,0.75,Stimuli\ImageFiles-Set1\Objects\Object_Ring_00001.png,0,0,0,9,9,9,,,,,,,,,,,,,16.012909600001876,0.012909600001876242,None,50.2909522000009,50.2909522000009,50.2909522000009,50.2909522000009,50.2909522000009,50.2909522000009,50.2909522000009,50.2909522000009,,001,P009,2025_Feb_01_1332,CategoryLocalizer,2021.2.3,59.95947938459813,
16.8,17.0,5,0.0,Stimuli\Blank.png,0,0,0,10,10,10,,,,,,,,,,,,,16.81340850000197,0.013408500001968804,None,51.091664200001105,51.091664200001105,51.091664200001105,51.091664200001105,51.091664200001105,51.091664200001105,51.091664200001105,51.091664200001105,,001,P009,2025_Feb_01_1332,CategoryLocalizer,2021.2.3,59.95947938459813,
17.0,17.8,1,0.75,Stimuli\ImageFiles-Set1\Objects\Object_Banana_00001.png,0,0,0,11,11,11,,,,,,,,,,,,,17.01360150000255,0.013601500002550893,None,51.29183290000219,51.29183290000219,51.29183290000219,51.29183290000219,51.29183290000219,51.29183290000219,51.29183290000219,51.29183290000219,,001,P009,2025_Feb_01_1332,CategoryLocalizer,2021.2.3,59.95947938459813,
17.8,18.0,5,0.0,Stimuli\Blank.png,0,0,0,12,12,12,,,,,,,,,,,,,17.814874700001383,0.014874700001382024,None,52.09254360000341,52.09254360000341,52.09254360000341,52.09254360000341,52.09254360000341,52.09254360000341,52.09254360000341,52.09254360000341,,001,P009,2025_Feb_01_1332,CategoryLocalizer,2021.2.3,59.95947938459813,
18.0,18.8,1,0.75,Stimuli\ImageFiles-Set1\Objects\Object_Key_00001.png,0,0,0,13,13,13,,,,,,,,,,,,,18.01811980000275,0.018119800002750708,None,52.30941690000327,52.30941690000327,52.30941690000327,52.30941690000327,52.30941690000327,52.30941690000327,52.30941690000327,52.30941690000327,,001,P009,2025_Feb_01_1332,CategoryLocalizer,2021.2.3,59.95947938459813,
18.8,19.0,5,0.0,Stimuli\Blank.png,0,0,0,14,14,14,,,,,,,,,,,,,18.817621600002894,0.0176216000028937,None,53.11008490000313,53.11008490000313,53.11008490000313,53.11008490000313,53.11008490000313,53.11008490000313,53.11008490000313,53.11008490000313,,001,P009,2025_Feb_01_1332,CategoryLocalizer,2021.2.3,59.95947938459813,
19.0,19.8,1,0.75,Stimuli\ImageFiles-Set1\Objects\Object_Scale_00001.png,0,0,0,15,15,15,,,,,,,,,,,,,19.015928000000713,0.015928000000712927,None,53.310306300001685,53.310306300001685,53.310306300001685,53.310306300001685,53.310306300001685,53.310306300001685,53.310306300001685,53.310306300001685,,001,P009,2025_Feb_01_1332,CategoryLocalizer,2021.2.3,59.95947938459813,
19.8,20.0,5,0.0,Stimuli\Blank.png,0,0,0,16,16,16,,,,,,,,,,,,,19.81841490000079,0.018414900000788492,None,54.11102180000307,54.11102180000307,54.11102180000307,54.11102180000307,54.11102180000307,54.11102180000307,54.11102180000307,54.11102180000307,,001,P009,2025_Feb_01_1332,CategoryLocalizer,2021.2.3,59.95947938459813,
20.0,20.8,1,0.75,Stimuli\ImageFiles-Set1\Objects\Object_Lamp_00001.png,0,0,0,17,17,17,,,,,,,,,,,,,20.018768199999613,0.01876819999961299,None,54.31117980000272,54.31117980000272,54.31117980000272,54.31117980000272,54.31117980000272,54.31117980000272,54.31117980000272,54.31117980000272,,001,P009,2025_Feb_01_1332,CategoryLocalizer,2021.2.3,59.95947938459813,
20.8,21.0,5,0.0,Stimuli\Blank.png,0,0,0,18,18,18,,,,,,,,,,,,,20.817072400001052,0.01707240000105159,None,55.09519730000102,55.09519730000102,55.09519730000102,55.09519730000102,55.09519730000102,55.09519730000102,55.09519730000102,55.09519730000102,,001,P009,2025_Feb_01_1332,CategoryLocalizer,2021.2.3,59.95947938459813,
21.0,21.8,1,0.75,Stimuli\ImageFiles-Set1\Objects\Object_Apple_00001.png,0,0,0,19,19,19,,,,,,,,,,,,,21.001051999999618,0.001051999999617692,None,55.29538190000312,55.29538190000312,55.29538190000312,55.29538190000312,55.29538190000312,55.29538190000312,55.29538190000312,55.29538190000312,,001,P009,2025_Feb_01_1332,CategoryLocalizer,2021.2.3,59.95947938459813,
21.8,22.0,5,0.0,Stimuli\Blank.png,0,0,0,20,20,20,,,,,,,,,,,,,21.818384400001378,0.018384400001377088,None,56.096091100000194,56.096091100000194,56.096091100000194,56.096091100000194,56.096091100000194,56.096091100000194,56.096091100000194,56.096091100000194,,001,P009,2025_Feb_01_1332,CategoryLocalizer,2021.2.3,59.95947938459813,
22.0,22.8,1,0.75,Stimuli\ImageFiles-Set1\Objects\Object_Apple_00001.png,1,1,0,21,21,21,,,,,,,,,,,,,22.00339460000032,0.0033946000003197696,1,56.296261100000265,56.296261100000265,56.296261100000265,56.296261100000265,56.296261100000265,56.296261100000265,56.296261100000265,56.296261100000265,0.49469260000114446,001,P009,2025_Feb_01_1332,CategoryLocalizer,2021.2.3,59.95947938459813,
22.8,23.0,5,0.0,Stimuli\Blank.png,0,0,0,22,22,22,,,,,,,,,,,,,22.819469500002015,0.019469500002013973,None,57.09696800000165,57.09696800000165,57.09696800000165,57.09696800000165,57.09696800000165,57.09696800000165,57.09696800000165,57.09696800000165,,001,P009,2025_Feb_01_1332,CategoryLocalizer,2021.2.3,59.95947938459813,
23.0,23.8,1,0.75,Stimuli\ImageFiles-Set1\Objects\Object_GarbageCan_00001.png,0,0,0,23,23,23,,,,,,,,,,,,,23.003385200001503,0.003385200001503108,None,57.28046370000084,57.28046370000084,57.28046370000084,57.28046370000084,57.28046370000084,57.28046370000084,57.28046370000084,57.28046370000084,,001,P009,2025_Feb_01_1332,CategoryLocalizer,2021.2.3,59.95947938459813,
23.8,24.0,5,0.0,Stimuli\Blank.png,0,0,0,24,24,24,,,,,,,,,,,,,23.802914600000804,0.002914600000803347,None,58.081181800000195,58.081181800000195,58.081181800000195,58.081181800000195,58.081181800000195,58.081181800000195,58.081181800000195,58.081181800000195,,001,P009,2025_Feb_01_1332,CategoryLocalizer,2021.2.3,59.95947938459813,
24.0,24.8,1,0.75,Stimuli\ImageFiles-Set1\Objects\Object_Canoe_00001.png,0,0,0,25,25,25,,,,,,,,,,,,,24.00314050000088,0.0031405000008817296,None,58.281322500002716,58.281322500002716,58.281322500002716,58.281322500002716,58.281322500002716,58.281322500002716,58.281322500002716,58.281322500002716,,001,P009,2025_Feb_01_1332,CategoryLocalizer,2021.2.3,59.95947938459813,
24.8,25.0,5,0.0,Stimuli\Blank.png,0,0,0,26,26,26,,,,,,,,,,,,,24.80385849999948,0.003858499999477516,None,59.08205850000013,59.08205850000013,59.08205850000013,59.08205850000013,59.08205850000013,59.08205850000013,59.08205850000013,59.08205850000013,,001,P009,2025_Feb_01_1332,CategoryLocalizer,2021.2.3,59.95947938459813,
25.0,25.8,1,0.75,Stimuli\ImageFiles-Set1\Objects\Object_Shirt_00001.png,0,0,0,27,27,27,,,,,,,,,,,,,25.004051200001413,0.0040512000014132354,None,59.28224450000198,59.28224450000198,59.28224450000198,59.28224450000198,59.28224450000198,59.28224450000198,59.28224450000198,59.28224450000198,,001,P009,2025_Feb_01_1332,CategoryLocalizer,2021.2.3,59.95947938459813,
25.8,26.0,5,0.0,Stimuli\Blank.png,0,0,0,28,28,28,,,,,,,,,,,,,25.805310499999905,0.0053104999999042946,None,60.08296010000049,60.08296010000049,60.08296010000049,60.08296010000049,60.08296010000049,60.08296010000049,60.08296010000049,60.08296010000049,,001,P009,2025_Feb_01_1332,CategoryLocalizer,2021.2.3,59.95947938459813,
26.0,26.8,1,0.75,Stimuli\ImageFiles-Set1\Objects\Object_Book_00001.png,0,0,0,29,29,29,,,,,,,,,,,,,26.004779900002177,0.004779900002176873,None,60.299781800000346,60.299781800000346,60.299781800000346,60.299781800000346,60.299781800000346,60.299781800000346,60.299781800000346,60.299781800000346,,001,P009,2025_Feb_01_1332,CategoryLocalizer,2021.2.3,59.95947938459813,
26.8,27.0,5,0.0,Stimuli\Blank.png,0,0,0,30,30,30,,,,,,,,,,,,,26.822151500000473,0.02215150000047217,None,61.10052020000148,61.10052020000148,61.10052020000148,61.10052020000148,61.10052020000148,61.10052020000148,61.10052020000148,61.10052020000148,,001,P009,2025_Feb_01_1332,CategoryLocalizer,2021.2.3,59.95947938459813,
27.0,27.8,1,0.75,Stimuli\ImageFiles-Set1\Objects\Object_Football_00001.png,0,0,0,31,31,31,,,,,,,,,,,,,27.0085911999995,0.008591199999500532,None,61.30069430000003,61.30069430000003,61.30069430000003,61.30069430000003,61.30069430000003,61.30069430000003,61.30069430000003,61.30069430000003,,001,P009,2025_Feb_01_1332,CategoryLocalizer,2021.2.3,59.95947938459813,
27.8,28.0,5,0.0,Stimuli\Blank.png,0,0,0,32,32,32,,,,,,,,,,,,,27.824363600000652,0.024363600000651076,None,62.118119800001296,62.118119800001296,62.118119800001296,62.118119800001296,62.118119800001296,62.118119800001296,62.118119800001296,62.118119800001296,,001,P009,2025_Feb_01_1332,CategoryLocalizer,2021.2.3,59.95947938459813,
28.0,28.8,2,0.75,Stimuli\ImageFiles-Set1\Bodies\Bodies_Kicking_00007.png,0,0,0,33,33,33,,,,,,,,,,,,,28.02343810000093,0.023438100000930717,None,62.301579500002845,62.301579500002845,62.301579500002845,62.301579500002845,62.301579500002845,62.301579500002845,62.301579500002845,62.301579500002845,,001,P009,2025_Feb_01_1332,CategoryLocalizer,2021.2.3,59.95947938459813,
28.8,29.0,5,0.0,Stimuli\Blank.png,0,0,0,34,34,34,,,,,,,,,,,,,28.807465500001854,0.007465500001853087,None,63.0856042000014,63.0856042000014,63.0856042000014,63.0856042000014,63.0856042000014,63.0856042000014,63.0856042000014,63.0856042000014,,001,P009,2025_Feb_01_1332,CategoryLocalizer,2021.2.3,59.95947938459813,
29.0,29.8,2,0.75,Stimuli\ImageFiles-Set1\Bodies\Bodies_Waving_00005.png,0,0,0,35,35,35,,,,,,,,,,,,,29.007480000000214,0.007480000000214204,None,63.28578810000181,63.28578810000181,63.28578810000181,63.28578810000181,63.28578810000181,63.28578810000181,63.28578810000181,63.28578810000181,,001,P009,2025_Feb_01_1332,CategoryLocalizer,2021.2.3,59.95947938459813,
29.8,30.0,5,0.0,Stimuli\Blank.png,0,0,0,36,36,36,,,,,,,,,,,,,29.808877600000415,0.008877600000413821,None,64.08648610000091,64.08648610000091,64.08648610000091,64.08648610000091,64.08648610000091,64.08648610000091,64.08648610000091,64.08648610000091,,001,P009,2025_Feb_01_1332,CategoryLocalizer,2021.2.3,59.95947938459813,
30.0,30.8,2,0.75,Stimuli\ImageFiles-Set1\Bodies\Bodies_Kicking_00005.png,0,0,0,37,37,37,,,,,,,,,,,,,30.00964279999971,0.009642799999710405,None,64.30339250000179,64.30339250000179,64.30339250000179,64.30339250000179,64.30339250000179,64.30339250000179,64.30339250000179,64.30339250000179,,001,P009,2025_Feb_01_1332,CategoryLocalizer,2021.2.3,59.95947938459813,
30.8,31.0,5,0.0,Stimuli\Blank.png,0,0,0,38,38,38,,,,,,,,,,,,,30.82765819999986,0.02765819999985908,None,65.12074660000144,65.12074660000144,65.12074660000144,65.12074660000144,65.12074660000144,65.12074660000144,65.12074660000144,65.12074660000144,,001,P009,2025_Feb_01_1332,CategoryLocalizer,2021.2.3,59.95947938459813,
31.0,31.8,2,0.75,Stimuli\ImageFiles-Set1\Bodies\Bodies_Standing_00001.png,0,0,0,39,39,39,,,,,,,,,,,,,31.027300199999445,0.027300199999444885,None,65.30424760000096,65.30424760000096,65.30424760000096,65.30424760000096,65.30424760000096,65.30424760000096,65.30424760000096,65.30424760000096,,001,P009,2025_Feb_01_1332,CategoryLocalizer,2021.2.3,59.95947938459813,
31.8,32.0,5,0.0,Stimuli\Blank.png,0,0,0,40,40,40,,,,,,,,,,,,,31.810459600001195,0.010459600001194502,None,66.08826030000273,66.08826030000273,66.08826030000273,66.08826030000273,66.08826030000273,66.08826030000273,66.08826030000273,66.08826030000273,,001,P009,2025_Feb_01_1332,CategoryLocalizer,2021.2.3,59.95947938459813,
32.0,32.8,2,0.75,Stimuli\ImageFiles-Set1\Bodies\Bodies_Crawling_00001.png,0,0,0,41,41,41,,,,,,,,,,,,,32.01105640000242,0.011056400002416922,None,66.28850280000188,66.28850280000188,66.28850280000188,66.28850280000188,66.28850280000188,66.28850280000188,66.28850280000188,66.28850280000188,,001,P009,2025_Feb_01_1332,CategoryLocalizer,2021.2.3,59.95947938459813,
32.8,33.0,5,0.0,Stimuli\Blank.png,0,0,0,42,42,42,,,,,,,,,,,,,32.81381440000041,0.01381440000041323,None,67.10584139999992,67.10584139999992,67.10584139999992,67.10584139999992,67.10584139999992,67.10584139999992,67.10584139999992,67.10584139999992,,001,P009,2025_Feb_01_1332,CategoryLocalizer,2021.2.3,59.95947938459813,
33.0,33.8,2,0.75,Stimuli\ImageFiles-Set1\Bodies\Bodies_DownwardDog_00005.png,0,0,0,43,43,43,,,,,,,,,,,,,33.02866610000274,0.02866610000273795,None,67.32263160000002,67.32263160000002,67.32263160000002,67.32263160000002,67.32263160000002,67.32263160000002,67.32263160000002,67.32263160000002,,001,P009,2025_Feb_01_1332,CategoryLocalizer,2021.2.3,59.95947938459813,
33.8,34.0,5,0.0,Stimuli\Blank.png,0,0,0,44,44,44,,,,,,,,,,,,,33.82906340000045,0.029063400000453044,None,68.10670960000061,68.10670960000061,68.10670960000061,68.10670960000061,68.10670960000061,68.10670960000061,68.10670960000061,68.10670960000061,,001,P009,2025_Feb_01_1332,CategoryLocalizer,2021.2.3,59.95947938459813,
34.0,34.8,2,0.75,Stimuli\ImageFiles-Set1\Bodies\Bodies_Walking_00006.png,0,0,0,45,45,45,,,,,,,,,,,,,34.01237630000105,0.012376300001051277,None,68.29021340000327,68.29021340000327,68.29021340000327,68.29021340000327,68.29021340000327,68.29021340000327,68.29021340000327,68.29021340000327,,001,P009,2025_Feb_01_1332,CategoryLocalizer,2021.2.3,59.95947938459813,
34.8,35.0,5,0.0,Stimuli\Blank.png,0,0,0,46,46,46,,,,,,,,,,,,,34.81354000000283,0.013540000002834063,None,69.09092620000229,69.09092620000229,69.09092620000229,69.09092620000229,69.09092620000229,69.09092620000229,69.09092620000229,69.09092620000229,,001,P009,2025_Feb_01_1332,CategoryLocalizer,2021.2.3,59.95947938459813,
35.0,35.8,2,0.75,Stimuli\ImageFiles-Set1\Bodies\Bodies_Kneeling_00007.png,0,0,0,47,47,47,,,,,,,,,,,,,35.01430760000221,0.014307600002211984,None,69.30778060000011,69.30778060000011,69.30778060000011,69.30778060000011,69.30778060000011,69.30778060000011,69.30778060000011,69.30778060000011,,001,P009,2025_Feb_01_1332,CategoryLocalizer,2021.2.3,59.95947938459813,
35.8,36.0,5,0.0,Stimuli\Blank.png,0,0,0,48,48,48,,,,,,,,,,,,,35.83029400000305,0.030294000003053156,None,70.10848370000167,70.10848370000167,70.10848370000167,70.10848370000167,70.10848370000167,70.10848370000167,70.10848370000167,70.10848370000167,,001,P009,2025_Feb_01_1332,CategoryLocalizer,2021.2.3,59.95947938459813,
36.0,36.8,2,0.75,Stimuli\ImageFiles-Set1\Bodies\Bodies_CobraPose_00003.png,0,0,0,49,49,49,,,,,,,,,,,,,36.01465450000251,0.01465450000250712,None,70.29198160000306,70.29198160000306,70.29198160000306,70.29198160000306,70.29198160000306,70.29198160000306,70.29198160000306,70.29198160000306,,001,P009,2025_Feb_01_1332,CategoryLocalizer,2021.2.3,59.95947938459813,
36.8,37.0,5,0.0,Stimuli\Blank.png,0,0,0,50,50,50,,,,,,,,,,,,,36.814503200002946,0.014503200002948802,None,71.09380109999984,71.09380109999984,71.09380109999984,71.09380109999984,71.09380109999984,71.09380109999984,71.09380109999984,71.09380109999984,,001,P009,2025_Feb_01_1332,CategoryLocalizer,2021.2.3,59.95947938459813,
37.0,37.8,2,0.75,Stimuli\ImageFiles-Set1\Bodies\Bodies_CobraPose_00003.png,1,1,0,51,51,51,,,,,,,,,,,,,37.014686500002426,0.014686500002426328,1,71.29287430000113,71.29287430000113,71.29287430000113,71.29287430000113,71.29287430000113,71.29287430000113,71.29287430000113,71.29287430000113,0.5363830999995116,001,P009,2025_Feb_01_1332,CategoryLocalizer,2021.2.3,59.95947938459813,
37.8,38.0,5,0.0,Stimuli\Blank.png,0,0,0,52,52,52,,,,,,,,,,,,,37.81523720000041,0.015237200000413509,None,72.09356790000311,72.09356790000311,72.09356790000311,72.09356790000311,72.09356790000311,72.09356790000311,72.09356790000311,72.09356790000311,,001,P009,2025_Feb_01_1332,CategoryLocalizer,2021.2.3,59.95947938459813,
38.0,38.8,2,0.75,Stimuli\ImageFiles-Set1\Bodies\Bodies_DownwardDog_00001.png,0,0,0,53,53,53,,,,,,,,,,,,,38.01811170000292,0.01811170000291895,None,72.31043510000018,72.31043510000018,72.31043510000018,72.31043510000018,72.31043510000018,72.31043510000018,72.31043510000018,72.31043510000018,,001,P009,2025_Feb_01_1332,CategoryLocalizer,2021.2.3,59.95947938459813,
38.8,39.0,5,0.0,Stimuli\Blank.png,0,0,0,54,54,54,,,,,,,,,,,,,38.81669320000219,0.01669320000219443,None,73.0945126000006,73.0945126000006,73.0945126000006,73.0945126000006,73.0945126000006,73.0945126000006,73.0945126000006,73.0945126000006,,001,P009,2025_Feb_01_1332,CategoryLocalizer,2021.2.3,59.95947938459813,
39.0,39.8,2,0.75,Stimuli\ImageFiles-Set1\Bodies\Bodies_Pushing_00003.png,0,0,0,55,55,55,,,,,,,,,,,,,38.999805400002515,-0.00019459999748505652,None,73.27795180000248,73.27795180000248,73.27795180000248,73.27795180000248,73.27795180000248,73.27795180000248,73.27795180000248,73.27795180000248,,001,P009,2025_Feb_01_1332,CategoryLocalizer,2021.2.3,59.95947938459813,
39.8,40.0,5,0.0,Stimuli\Blank.png,0,0,0,56,56,56,,,,,,,,,,,,,39.80105370000092,0.0010537000009236408,None,74.07867530000294,74.07867530000294,74.07867530000294,74.07867530000294,74.07867530000294,74.07867530000294,74.07867530000294,74.07867530000294,,001,P009,2025_Feb_01_1332,CategoryLocalizer,2021.2.3,59.95947938459813,
40.0,40.8,2,0.75,Stimuli\ImageFiles-Set1\Bodies\Bodies_CobraPose_00005.png,0,0,0,57,57,57,,,,,,,,,,,,,40.00251879999996,0.0025187999999616295,None,74.29552030000195,74.29552030000195,74.29552030000195,74.29552030000195,74.29552030000195,74.29552030000195,74.29552030000195,74.29552030000195,,001,P009,2025_Feb_01_1332,CategoryLocalizer,2021.2.3,59.95947938459813,
40.8,41.0,5,0.0,Stimuli\Blank.png,0,0,0,58,58,58,,,,,,,,,,,,,40.81923470000038,0.019234700000382077,None,75.09621430000334,75.09621430000334,75.09621430000334,75.09621430000334,75.09621430000334,75.09621430000334,75.09621430000334,75.09621430000334,,001,P009,2025_Feb_01_1332,CategoryLocalizer,2021.2.3,59.95947938459813,
41.0,41.8,2,0.75,Stimuli\ImageFiles-Set1\Bodies\Bodies_Lunging_00003.png,0,0,0,59,59,59,,,,,,,,,,,,,41.001888900002086,0.0018889000020863023,None,75.27969660000235,75.27969660000235,75.27969660000235,75.27969660000235,75.27969660000235,75.27969660000235,75.27969660000235,75.27969660000235,,001,P009,2025_Feb_01_1332,CategoryLocalizer,2021.2.3,59.95947938459813,
41.8,42.0,5,0.0,Stimuli\Blank.png,0,0,0,60,60,60,,,,,,,,,,,,,41.80364940000072,0.0036494000007252225,None,76.08044060000248,76.08044060000248,76.08044060000248,76.08044060000248,76.08044060000248,76.08044060000248,76.08044060000248,76.08044060000248,,001,P009,2025_Feb_01_1332,CategoryLocalizer,2021.2.3,59.95947938459813,
42.0,42.8,2,0.75,Stimuli\ImageFiles-Set1\Bodies\Bodies_Waving_00007.png,0,0,0,61,61,61,,,,,,,,,,,,,42.00264740000057,0.002647400000569178,None,76.28057230000195,76.28057230000195,76.28057230000195,76.28057230000195,76.28057230000195,76.28057230000195,76.28057230000195,76.28057230000195,,001,P009,2025_Feb_01_1332,CategoryLocalizer,2021.2.3,59.95947938459813,
42.8,43.0,5,0.0,Stimuli\Blank.png,0,0,0,62,62,62,,,,,,,,,,,,,42.80416890000197,0.004168900001971565,None,77.0813218000003,77.0813218000003,77.0813218000003,77.0813218000003,77.0813218000003,77.0813218000003,77.0813218000003,77.0813218000003,,001,P009,2025_Feb_01_1332,CategoryLocalizer,2021.2.3,59.95947938459813,
43.0,43.8,2,0.75,Stimuli\ImageFiles-Set1\Bodies\Bodies_DownwardDog_00003.png,0,0,0,63,63,63,,,,,,,,,,,,,43.00327820000166,0.0032782000016595703,None,77.28150740000274,77.28150740000274,77.28150740000274,77.28150740000274,77.28150740000274,77.28150740000274,77.28150740000274,77.28150740000274,,001,P009,2025_Feb_01_1332,CategoryLocalizer,2021.2.3,59.95947938459813,
43.8,44.0,5,0.0,Stimuli\Blank.png,0,0,0,64,64,64,,,,,,,,,,,,,43.803888200000074,0.0038882000000768357,None,78.082202900001,78.082202900001,78.082202900001,78.082202900001,78.082202900001,78.082202900001,78.082202900001,78.082202900001,,001,P009,2025_Feb_01_1332,CategoryLocalizer,2021.2.3,59.95947938459813,
44.0,44.8,3,0.75,Stimuli\ImageFiles-Set1\Faces\Face_00039.png,0,0,0,65,65,65,,,,,,,,,,,,,44.00402380000014,0.004023800000140909,None,78.28234430000157,78.28234430000157,78.28234430000157,78.28234430000157,78.28234430000157,78.28234430000157,78.28234430000157,78.28234430000157,,001,P009,2025_Feb_01_1332,CategoryLocalizer,2021.2.3,59.95947938459813,
44.8,45.0,5,0.0,Stimuli\Blank.png,0,0,0,66,66,66,,,,,,,,,,,,,44.804858800001966,0.0048588000019691435,None,79.08308650000254,79.08308650000254,79.08308650000254,79.08308650000254,79.08308650000254,79.08308650000254,79.08308650000254,79.08308650000254,,001,P009,2025_Feb_01_1332,CategoryLocalizer,2021.2.3,59.95947938459813,
45.0,45.8,3,0.75,Stimuli\ImageFiles-Set1\Faces\Face_00051.png,0,0,0,67,67,67,,,,,,,,,,,,,45.00501509999958,0.005015099999582162,None,79.28326490000109,79.28326490000109,79.28326490000109,79.28326490000109,79.28326490000109,79.28326490000109,79.28326490000109,79.28326490000109,,001,P009,2025_Feb_01_1332,CategoryLocalizer,2021.2.3,59.95947938459813,
45.8,46.0,5,0.0,Stimuli\Blank.png,0,0,0,68,68,68,,,,,,,,,,,,,45.80561959999977,0.00561959999977546,None,80.08398290000332,80.08398290000332,80.08398290000332,80.08398290000332,80.08398290000332,80.08398290000332,80.08398290000332,80.08398290000332,,001,P009,2025_Feb_01_1332,CategoryLocalizer,2021.2.3,59.95947938459813,
46.0,46.8,3,0.75,Stimuli\ImageFiles-Set1\Faces\Face_00031.png,0,0,0,69,69,69,,,,,,,,,,,,,46.00619390000065,0.00619390000065323,None,80.28415390000009,80.28415390000009,80.28415390000009,80.28415390000009,80.28415390000009,80.28415390000009,80.28415390000009,80.28415390000009,,001,P009,2025_Feb_01_1332,CategoryLocalizer,2021.2.3,59.95947938459813,
46.8,47.0,5,0.0,Stimuli\Blank.png,0,0,0,70,70,70,,,,,,,,,,,,,46.80741839999973,0.007418399999735925,None,81.08487470000182,81.08487470000182,81.08487470000182,81.08487470000182,81.08487470000182,81.08487470000182,81.08487470000182,81.08487470000182,,001,P009,2025_Feb_01_1332,CategoryLocalizer,2021.2.3,59.95947938459813,
47.0,47.8,3,0.75,Stimuli\ImageFiles-Set1\Faces\Face_00065.png,0,0,0,71,71,71,,,,,,,,,,,,,47.007394700001896,0.007394700001896126,None,81.30171130000235,81.30171130000235,81.30171130000235,81.30171130000235,81.30171130000235,81.30171130000235,81.30171130000235,81.30171130000235,,001,P009,2025_Feb_01_1332,CategoryLocalizer,2021.2.3,59.95947938459813,
47.8,48.0,5,0.0,Stimuli\Blank.png,0,0,0,72,72,72,,,,,,,,,,,,,47.82408630000282,0.024086300002821304,None,82.10243360000095,82.10243360000095,82.10243360000095,82.10243360000095,82.10243360000095,82.10243360000095,82.10243360000095,82.10243360000095,,001,P009,2025_Feb_01_1332,CategoryLocalizer,2021.2.3,59.95947938459813,
48.0,48.8,3,0.75,Stimuli\ImageFiles-Set1\Faces\Face_00053.png,0,0,0,73,73,73,,,,,,,,,,,,,48.008927400001994,0.008927400001994101,None,82.30260249999992,82.30260249999992,82.30260249999992,82.30260249999992,82.30260249999992,82.30260249999992,82.30260249999992,82.30260249999992,,001,P009,2025_Feb_01_1332,CategoryLocalizer,2021.2.3,59.95947938459813,
48.8,49.0,5,0.0,Stimuli\Blank.png,0,0,0,74,74,74,,,,,,,,,,,,,48.825020800002676,0.02502080000267881,None,83.1032825000002,83.1032825000002,83.1032825000002,83.1032825000002,83.1032825000002,83.1032825000002,83.1032825000002,83.1032825000002,,001,P009,2025_Feb_01_1332,CategoryLocalizer,2021.2.3,59.95947938459813,
49.0,49.8,3,0.75,Stimuli\ImageFiles-Set1\Faces\Face_00053.png,1,1,0,75,75,75,,,,,,,,,,,,,49.00917960000152,0.009179600001516519,1,83.28681540000252,83.28681540000252,83.28681540000252,83.28681540000252,83.28681540000252,83.28681540000252,83.28681540000252,83.28681540000252,0.332130299997516,001,P009,2025_Feb_01_1332,CategoryLocalizer,2021.2.3,59.95947938459813,
49.8,50.0,5,0.0,Stimuli\Blank.png,0,0,0,76,76,76,,,,,,,,,,,,,49.809429900000396,0.009429900000398561,None,84.08752380000078,84.08752380000078,84.08752380000078,84.08752380000078,84.08752380000078,84.08752380000078,84.08752380000078,84.08752380000078,,001,P009,2025_Feb_01_1332,CategoryLocalizer,2021.2.3,59.95947938459813,
50.0,50.8,3,0.75,Stimuli\ImageFiles-Set1\Faces\Face_00111.png,0,0,0,77,77,77,,,,,,,,,,,,,50.00945630000206,0.009456300002057105,None,84.30439550000301,84.30439550000301,84.30439550000301,84.30439550000301,84.30439550000301,84.30439550000301,84.30439550000301,84.30439550000301,,001,P009,2025_Feb_01_1332,CategoryLocalizer,2021.2.3,59.95947938459813,
50.8,51.0,5,0.0,Stimuli\Blank.png,0,0,0,78,78,78,,,,,,,,,,,,,50.82742470000085,0.027424700000850066,None,85.10509100000127,85.10509100000127,85.10509100000127,85.10509100000127,85.10509100000127,85.10509100000127,85.10509100000127,85.10509100000127,,001,P009,2025_Feb_01_1332,CategoryLocalizer,2021.2.3,59.95947938459813,
51.0,51.8,3,0.75,Stimuli\ImageFiles-Set1\Faces\Face_00027.png,0,0,0,79,79,79,,,,,,,,,,,,,51.01290929999959,0.012909299999591894,None,85.30527480000092,85.30527480000092,85.30527480000092,85.30527480000092,85.30527480000092,85.30527480000092,85.30527480000092,85.30527480000092,,001,P009,2025_Feb_01_1332,CategoryLocalizer,2021.2.3,59.95947938459813,
51.8,52.0,5,0.0,Stimuli\Blank.png,0,0,0,80,80,80,,,,,,,,,,,,,51.82853100000284,0.028531000002843143,None,86.10601360000146,86.10601360000146,86.10601360000146,86.10601360000146,86.10601360000146,86.10601360000146,86.10601360000146,86.10601360000146,,001,P009,2025_Feb_01_1332,CategoryLocalizer,2021.2.3,59.95947938459813,
52.0,52.8,3,0.75,Stimuli\ImageFiles-Set1\Faces\Face_00029.png,0,0,0,81,81,81,,,,,,,,,,,,,52.01295680000112,0.012956800001120428,None,86.30615519999992,86.30615519999992,86.30615519999992,86.30615519999992,86.30615519999992,86.30615519999992,86.30615519999992,86.30615519999992,,001,P009,2025_Feb_01_1332,CategoryLocalizer,2021.2.3,59.95947938459813,
52.8,53.0,5,0.0,Stimuli\Blank.png,0,0,0,82,82,82,,,,,,,,,,,,,52.829140000001644,0.029140000001646627,None,87.10685250000097,87.10685250000097,87.10685250000097,87.10685250000097,87.10685250000097,87.10685250000097,87.10685250000097,87.10685250000097,,001,P009,2025_Feb_01_1332,CategoryLocalizer,2021.2.3,59.95947938459813,
53.0,53.8,3,0.75,Stimuli\ImageFiles-Set1\Faces\Face_00073.png,0,0,0,83,83,83,,,,,,,,,,,,,53.012126100002206,0.01212610000220593,None,87.2903479000015,87.2903479000015,87.2903479000015,87.2903479000015,87.2903479000015,87.2903479000015,87.2903479000015,87.2903479000015,,001,P009,2025_Feb_01_1332,CategoryLocalizer,2021.2.3,59.95947938459813,
53.8,54.0,5,0.0,Stimuli\Blank.png,0,0,0,84,84,84,,,,,,,,,,,,,53.81330910000179,0.013309100001791307,None,88.09106200000315,88.09106200000315,88.09106200000315,88.09106200000315,88.09106200000315,88.09106200000315,88.09106200000315,88.09106200000315,,001,P009,2025_Feb_01_1332,CategoryLocalizer,2021.2.3,59.95947938459813,
54.0,54.8,3,0.75,Stimuli\ImageFiles-Set1\Faces\Face_00045.png,0,0,0,85,85,85,,,,,,,,,,,,,54.0129545000018,0.012954500001796987,None,88.29124670000238,88.29124670000238,88.29124670000238,88.29124670000238,88.29124670000238,88.29124670000238,88.29124670000238,88.29124670000238,,001,P009,2025_Feb_01_1332,CategoryLocalizer,2021.2.3,59.95947938459813,
54.8,55.0,5,0.0,Stimuli\Blank.png,0,0,0,86,86,86,,,,,,,,,,,,,54.81370740000057,0.013707400000569692,None,89.09193530000266,89.09193530000266,89.09193530000266,89.09193530000266,89.09193530000266,89.09193530000266,89.09193530000266,89.09193530000266,,001,P009,2025_Feb_01_1332,CategoryLocalizer,2021.2.3,59.95947938459813,
55.0,55.8,3,0.75,Stimuli\ImageFiles-Set1\Faces\Face_00083.png,0,0,0,87,87,87,,,,,,,,,,,,,55.013788100000966,0.013788100000965642,None,89.30883499999982,89.30883499999982,89.30883499999982,89.30883499999982,89.30883499999982,89.30883499999982,89.30883499999982,89.30883499999982,,001,P009,2025_Feb_01_1332,CategoryLocalizer,2021.2.3,59.95947938459813,
55.8,56.0,5,0.0,Stimuli\Blank.png,0,0,0,88,88,88,,,,,,,,,,,,,55.83305300000211,0.03305300000211275,None,90.12621240000226,90.12621240000226,90.12621240000226,90.12621240000226,90.12621240000226,90.12621240000226,90.12621240000226,90.12621240000226,,001,P009,2025_Feb_01_1332,CategoryLocalizer,2021.2.3,59.95947938459813,
56.0,56.8,3,0.75,Stimuli\ImageFiles-Set1\Faces\Face_00105.png,0,0,0,89,89,89,,,,,,,,,,,,,56.01476990000083,0.014769900000828784,None,90.30968960000246,90.30968960000246,90.30968960000246,90.30968960000246,90.30968960000246,90.30968960000246,90.30968960000246,90.30968960000246,,001,P009,2025_Feb_01_1332,CategoryLocalizer,2021.2.3,59.95947938459813,
56.8,57.0,5,0.0,Stimuli\Blank.png,0,0,0,90,90,90,,,,,,,,,,,,,56.832175700001244,0.03217570000124681,None,91.11044820000097,91.11044820000097,91.11044820000097,91.11044820000097,91.11044820000097,91.11044820000097,91.11044820000097,91.11044820000097,,001,P009,2025_Feb_01_1332,CategoryLocalizer,2021.2.3,59.95947938459813,
57.0,57.8,3,0.75,Stimuli\ImageFiles-Set1\Faces\Face_00012.png,0,0,0,91,91,91,,,,,,,,,,,,,57.01745440000013,0.01745440000013332,None,91.3105856000002,91.3105856000002,91.3105856000002,91.3105856000002,91.3105856000002,91.3105856000002,91.3105856000002,91.3105856000002,,001,P009,2025_Feb_01_1332,CategoryLocalizer,2021.2.3,59.95947938459813,
57.8,58.0,5,0.0,Stimuli\Blank.png,0,0,0,92,92,92,,,,,,,,,,,,,57.81758710000213,0.017587100002131706,None,92.09460650000256,92.09460650000256,92.09460650000256,92.09460650000256,92.09460650000256,92.09460650000256,92.09460650000256,92.09460650000256,,001,P009,2025_Feb_01_1332,CategoryLocalizer,2021.2.3,59.95947938459813,
58.0,58.8,3,0.75,Stimuli\ImageFiles-Set1\Faces\Face_00049.png,0,0,0,93,93,93,,,,,,,,,,,,,58.00050879999981,0.0005087999998067971,None,92.27811070000098,92.27811070000098,92.27811070000098,92.27811070000098,92.27811070000098,92.27811070000098,92.27811070000098,92.27811070000098,,001,P009,2025_Feb_01_1332,CategoryLocalizer,2021.2.3,59.95947938459813,
58.8,59.0,5,0.0,Stimuli\Blank.png,0,0,0,94,94,94,,,,,,,,,,,,,58.80278180000096,0.0027818000009602883,None,93.09546290000071,93.09546290000071,93.09546290000071,93.09546290000071,93.09546290000071,93.09546290000071,93.09546290000071,93.09546290000071,,001,P009,2025_Feb_01_1332,CategoryLocalizer,2021.2.3,59.95947938459813,
59.0,59.8,3,0.75,Stimuli\ImageFiles-Set1\Faces\Face_00025.png,0,0,0,95,95,95,,,,,,,,,,,,,59.01828690000184,0.018286900001839967,None,93.31235950000337,93.31235950000337,93.31235950000337,93.31235950000337,93.31235950000337,93.31235950000337,93.31235950000337,93.31235950000337,,001,P009,2025_Feb_01_1332,CategoryLocalizer,2021.2.3,59.95947938459813,
59.8,60.0,5,0.0,Stimuli\Blank.png,0,0,0,96,96,96,,,,,,,,,,,,,59.81828260000111,0.0182826000011147,None,94.09637300000031,94.09637300000031,94.09637300000031,94.09637300000031,94.09637300000031,94.09637300000031,94.09637300000031,94.09637300000031,,001,P009,2025_Feb_01_1332,CategoryLocalizer,2021.2.3,59.95947938459813,
60.0,60.8,4,0.75,Stimuli\ImageFiles-Set1\Scenes\Scenes_031.png,0,0,0,97,97,97,,,,,,,,,,,,,60.00213630000144,0.00213630000143894,None,94.29717660000097,94.29717660000097,94.29717660000097,94.29717660000097,94.29717660000097,94.29717660000097,94.29717660000097,94.29717660000097,,001,P009,2025_Feb_01_1332,CategoryLocalizer,2021.2.3,59.95947938459813,
60.8,61.0,5,0.0,Stimuli\Blank.png,0,0,0,98,98,98,,,,,,,,,,,,,60.8196323000011,0.019632300001106273,None,95.09723870000016,95.09723870000016,95.09723870000016,95.09723870000016,95.09723870000016,95.09723870000016,95.09723870000016,95.09723870000016,,001,P009,2025_Feb_01_1332,CategoryLocalizer,2021.2.3,59.95947938459813,
61.0,61.8,4,0.75,Stimuli\ImageFiles-Set1\Scenes\Scenes_050.png,0,0,0,99,99,99,,,,,,,,,,,,,61.003117700001894,0.0031177000018942636,None,95.29745050000201,95.29745050000201,95.29745050000201,95.29745050000201,95.29745050000201,95.29745050000201,95.29745050000201,95.29745050000201,,001,P009,2025_Feb_01_1332,CategoryLocalizer,2021.2.3,59.95947938459813,
61.8,62.0,5,0.0,Stimuli\Blank.png,0,0,0,100,100,100,,,,,,,,,,,,,61.82257630000095,0.022576300000949345,None,96.11483650000082,96.11483650000082,96.11483650000082,96.11483650000082,96.11483650000082,96.11483650000082,96.11483650000082,96.11483650000082,,001,P009,2025_Feb_01_1332,CategoryLocalizer,2021.2.3,59.95947938459813,
62.0,62.8,4,0.75,Stimuli\ImageFiles-Set1\Scenes\Scenes_023.png,0,0,0,101,101,101,,,,,,,,,,,,,62.02095660000123,0.020956600001227343,None,96.29832200000237,96.29832200000237,96.29832200000237,96.29832200000237,96.29832200000237,96.29832200000237,96.29832200000237,96.29832200000237,,001,P009,2025_Feb_01_1332,CategoryLocalizer,2021.2.3,59.95947938459813,
62.8,63.0,5,0.0,Stimuli\Blank.png,0,0,0,102,102,102,,,,,,,,,,,,,62.804786700002296,0.004786700002298971,None,97.08234559999983,97.08234559999983,97.08234559999983,97.08234559999983,97.08234559999983,97.08234559999983,97.08234559999983,97.08234559999983,,001,P009,2025_Feb_01_1332,CategoryLocalizer,2021.2.3,59.95947938459813,
63.0,63.8,4,0.75,Stimuli\ImageFiles-Set1\Scenes\Scenes_018.png,0,0,0,103,103,103,,,,,,,,,,,,,63.004285700000764,0.0042857000007643364,None,97.29922400000214,97.29922400000214,97.29922400000214,97.29922400000214,97.29922400000214,97.29922400000214,97.29922400000214,97.29922400000214,,001,P009,2025_Feb_01_1332,CategoryLocalizer,2021.2.3,59.95947938459813,
63.8,64.0,5,0.0,Stimuli\Blank.png,0,0,0,104,104,104,,,,,,,,,,,,,63.82313930000237,0.023139300002370078,None,98.09992760000023,98.09992760000023,98.09992760000023,98.09992760000023,98.09992760000023,98.09992760000023,98.09992760000023,98.09992760000023,,001,P009,2025_Feb_01_1332,CategoryLocalizer,2021.2.3,59.95947938459813,
64.0,64.8,4,0.75,Stimuli\ImageFiles-Set1\Scenes\Scenes_038.png,0,0,0,105,105,105,,,,,,,,,,,,,64.00756499999989,0.007564999999885913,None,98.3001213000025,98.3001213000025,98.3001213000025,98.3001213000025,98.3001213000025,98.3001213000025,98.3001213000025,98.3001213000025,,001,P009,2025_Feb_01_1332,CategoryLocalizer,2021.2.3,59.95947938459813,
64.8,65.0,5,0.0,Stimuli\Blank.png,0,0,0,106,106,106,,,,,,,,,,,,,64.82318660000237,0.023186600002375712,None,99.10080540000126,99.10080540000126,99.10080540000126,99.10080540000126,99.10080540000126,99.10080540000126,99.10080540000126,99.10080540000126,,001,P009,2025_Feb_01_1332,CategoryLocalizer,2021.2.3,59.95947938459813,
65.0,65.8,4,0.75,Stimuli\ImageFiles-Set1\Scenes\Scenes_056.png,0,0,0,107,107,107,,,,,,,,,,,,,65.00877070000206,0.008770700002060039,None,99.3016048999998,99.3016048999998,99.3016048999998,99.3016048999998,99.3016048999998,99.3016048999998,99.3016048999998,99.3016048999998,,001,P009,2025_Feb_01_1332,CategoryLocalizer,2021.2.3,59.95947938459813,
65.8,66.0,5,0.0,Stimuli\Blank.png,0,0,0,108,108,108,,,,,,,,,,,,,65.82368730000235,0.023687300002350753,None,100.1016879000017,100.1016879000017,100.1016879000017,100.1016879000017,100.1016879000017,100.1016879000017,100.1016879000017,100.1016879000017,,001,P009,2025_Feb_01_1332,CategoryLocalizer,2021.2.3,59.95947938459813,
66.0,66.8,4,0.75,Stimuli\ImageFiles-Set1\Scenes\Scenes_012.png,0,0,0,109,109,109,,,,,,,,,,,,,66.00723170000128,0.00723170000128448,None,100.30186780000076,100.30186780000076,100.30186780000076,100.30186780000076,100.30186780000076,100.30186780000076,100.30186780000076,100.30186780000076,,001,P009,2025_Feb_01_1332,CategoryLocalizer,2021.2.3,59.95947938459813,
66.8,67.0,5,0.0,Stimuli\Blank.png,0,0,0,110,110,110,,,,,,,,,,,,,66.82434050000302,0.024340500003020793,None,101.10257249999995,101.10257249999995,101.10257249999995,101.10257249999995,101.10257249999995,101.10257249999995,101.10257249999995,101.10257249999995,,001,P009,2025_Feb_01_1332,CategoryLocalizer,2021.2.3,59.95947938459813,
67.0,67.8,4,0.75,Stimuli\ImageFiles-Set1\Scenes\Scenes_039.png,0,0,0,111,111,111,,,,,,,,,,,,,67.0078711999995,0.007871199999499368,None,101.28606720000244,101.28606720000244,101.28606720000244,101.28606720000244,101.28606720000244,101.28606720000244,101.28606720000244,101.28606720000244,,001,P009,2025_Feb_01_1332,CategoryLocalizer,2021.2.3,59.95947938459813,
67.8,68.0,5,0.0,Stimuli\Blank.png,0,0,0,112,112,112,,,,,,,,,,,,,67.80945110000175,0.009451100001754753,None,102.08677900000112,102.08677900000112,102.08677900000112,102.08677900000112,102.08677900000112,102.08677900000112,102.08677900000112,102.08677900000112,,001,P009,2025_Feb_01_1332,CategoryLocalizer,2021.2.3,59.95947938459813,
68.0,68.8,4,0.75,Stimuli\ImageFiles-Set1\Scenes\Scenes_048.png,0,0,0,113,113,113,,,,,,,,,,,,,68.00885090000156,0.008850900001561968,None,102.28695420000076,102.28695420000076,102.28695420000076,102.28695420000076,102.28695420000076,102.28695420000076,102.28695420000076,102.28695420000076,,001,P009,2025_Feb_01_1332,CategoryLocalizer,2021.2.3,59.95947938459813,
68.8,69.0,5,0.0,Stimuli\Blank.png,0,0,0,114,114,114,,,,,,,,,,,,,68.80935250000039,0.009352500000389341,None,103.08765870000207,103.08765870000207,103.08765870000207,103.08765870000207,103.08765870000207,103.08765870000207,103.08765870000207,103.08765870000207,,001,P009,2025_Feb_01_1332,CategoryLocalizer,2021.2.3,59.95947938459813,
69.0,69.8,4,0.75,Stimuli\ImageFiles-Set1\Scenes\Scenes_045.png,0,0,0,115,115,115,,,,,,,,,,,,,69.00969009999972,0.00969009999971604,None,103.30452690000311,103.30452690000311,103.30452690000311,103.30452690000311,103.30452690000311,103.30452690000311,103.30452690000311,103.30452690000311,,001,P009,2025_Feb_01_1332,CategoryLocalizer,2021.2.3,59.95947938459813,
69.8,70.0,5,0.0,Stimuli\Blank.png,0,0,0,116,116,116,,,,,,,,,,,,,69.82853220000106,0.0285322000010666,None,104.10539650000283,104.10539650000283,104.10539650000283,104.10539650000283,104.10539650000283,104.10539650000283,104.10539650000283,104.10539650000283,,001,P009,2025_Feb_01_1332,CategoryLocalizer,2021.2.3,59.95947938459813,
70.0,70.8,4,0.75,Stimuli\ImageFiles-Set1\Scenes\Scenes_022.png,0,0,0,117,117,117,,,,,,,,,,,,,70.01058280000143,0.01058280000142986,None,104.28867470000114,104.28867470000114,104.28867470000114,104.28867470000114,104.28867470000114,104.28867470000114,104.28867470000114,104.28867470000114,,001,P009,2025_Feb_01_1332,CategoryLocalizer,2021.2.3,59.95947938459813,
70.8,71.0,5,0.0,Stimuli\Blank.png,0,0,0,118,118,118,,,,,,,,,,,,,70.81282439999995,0.012824399999956881,None,105.10612190000029,105.10612190000029,105.10612190000029,105.10612190000029,105.10612190000029,105.10612190000029,105.10612190000029,105.10612190000029,,001,P009,2025_Feb_01_1332,CategoryLocalizer,2021.2.3,59.95947938459813,
71.0,71.8,4,0.75,Stimuli\ImageFiles-Set1\Scenes\Scenes_022.png,1,1,0,119,119,119,,,,,,,,,,,,,71.02882090000276,0.02882090000275639,1,105.30628480000087,105.30628480000087,105.30628480000087,105.30628480000087,105.30628480000087,105.30628480000087,105.30628480000087,105.30628480000087,0.5156940000015311,001,P009,2025_Feb_01_1332,CategoryLocalizer,2021.2.3,59.95947938459813,
71.8,72.0,5,0.0,Stimuli\Blank.png,0,0,0,120,120,120,,,,,,,,,,,,,71.81263010000112,0.012630100001118194,None,106.09031289999984,106.09031289999984,106.09031289999984,106.09031289999984,106.09031289999984,106.09031289999984,106.09031289999984,106.09031289999984,,001,P009,2025_Feb_01_1332,CategoryLocalizer,2021.2.3,59.95947938459813,
72.0,72.8,4,0.75,Stimuli\ImageFiles-Set1\Scenes\Scenes_019.png,0,0,0,121,121,121,,,,,,,,,,,,,72.01216730000306,0.01216730000305688,None,106.30720650000148,106.30720650000148,106.30720650000148,106.30720650000148,106.30720650000148,106.30720650000148,106.30720650000148,106.30720650000148,,001,P009,2025_Feb_01_1332,CategoryLocalizer,2021.2.3,59.95947938459813,
72.8,73.0,5,0.0,Stimuli\Blank.png,0,0,0,122,122,122,,,,,,,,,,,,,72.8297885000029,0.029788500002908336,None,107.10787220000202,107.10787220000202,107.10787220000202,107.10787220000202,107.10787220000202,107.10787220000202,107.10787220000202,107.10787220000202,,001,P009,2025_Feb_01_1332,CategoryLocalizer,2021.2.3,59.95947938459813,
73.0,73.8,4,0.75,Stimuli\ImageFiles-Set1\Scenes\Scenes_004.png,0,0,0,123,123,123,,,,,,,,,,,,,73.01318100000208,0.01318100000207778,None,107.29137740000078,107.29137740000078,107.29137740000078,107.29137740000078,107.29137740000078,107.29137740000078,107.29137740000078,107.29137740000078,,001,P009,2025_Feb_01_1332,CategoryLocalizer,2021.2.3,59.95947938459813,
73.8,74.0,5,0.0,Stimuli\Blank.png,0,0,0,124,124,124,,,,,,,,,,,,,73.81447990000015,0.014479900000154089,None,108.0920823000015,108.0920823000015,108.0920823000015,108.0920823000015,108.0920823000015,108.0920823000015,108.0920823000015,108.0920823000015,,001,P009,2025_Feb_01_1332,CategoryLocalizer,2021.2.3,59.95947938459813,
74.0,74.8,4,0.75,Stimuli\ImageFiles-Set1\Scenes\Scenes_026.png,0,0,0,125,125,125,,,,,,,,,,,,,74.01453089999995,0.014530899999954272,None,108.292263000003,108.292263000003,108.292263000003,108.292263000003,108.292263000003,108.292263000003,108.292263000003,108.292263000003,,001,P009,2025_Feb_01_1332,CategoryLocalizer,2021.2.3,59.95947938459813,
74.8,75.0,5,0.0,Stimuli\Blank.png,0,0,0,126,126,126,,,,,,,,,,,,,74.81781820000106,0.01781820000105938,None,109.10968060000232,109.10968060000232,109.10968060000232,109.10968060000232,109.10968060000232,109.10968060000232,109.10968060000232,109.10968060000232,,001,P009,2025_Feb_01_1332,CategoryLocalizer,2021.2.3,59.95947938459813,
75.0,75.8,4,0.75,Stimuli\ImageFiles-Set1\Scenes\Scenes_051.png,0,0,0,127,127,127,,,,,,,,,,,,,75.01573290000306,0.015732900003058603,None,109.30982970000332,109.30982970000332,109.30982970000332,109.30982970000332,109.30982970000332,109.30982970000332,109.30982970000332,109.30982970000332,,001,P009,2025_Feb_01_1332,CategoryLocalizer,2021.2.3,59.95947938459813,
75.8,76.0,5,0.0,Stimuli\Blank.png,0,0,0,128,128,128,,,,,,,,,,,,,75.8187125000004,0.018712500000404475,None,110.1105561000004,110.1105561000004,110.1105561000004,110.1105561000004,110.1105561000004,110.1105561000004,110.1105561000004,110.1105561000004,,001,P009,2025_Feb_01_1332,CategoryLocalizer,2021.2.3,59.95947938459813,
76.0,88.0,0,0.0,Stimuli\Blank.png,0,0,0,129,129,129,,,,,,,,,,,,,76.0165756000024,0.01657560000239755,None,110.2940402000022,110.2940402000022,110.2940402000022,110.2940402000022,110.2940402000022,110.2940402000022,110.2940402000022,110.2940402000022,,001,P009,2025_Feb_01_1332,CategoryLocalizer,2021.2.3,59.95947938459813,
88.0,88.8,3,0.75,Stimuli\ImageFiles-Set1\Faces\Face_00041.png,0,0,0,130,130,130,,,,,,,,,,,,,88.0098104000026,0.009810400002606912,None,122.30476620000263,122.30476620000263,122.30476620000263,122.30476620000263,122.30476620000263,122.30476620000263,122.30476620000263,122.30476620000263,,001,P009,2025_Feb_01_1332,CategoryLocalizer,2021.2.3,59.95947938459813,
88.8,89.0,5,0.0,Stimuli\Blank.png,0,0,0,131,131,131,,,,,,,,,,,,,88.82774250000148,0.027742500001480153,None,123.10551610000039,123.10551610000039,123.10551610000039,123.10551610000039,123.10551610000039,123.10551610000039,123.10551610000039,123.10551610000039,,001,P009,2025_Feb_01_1332,CategoryLocalizer,2021.2.3,59.95947938459813,
89.0,89.8,3,0.75,Stimuli\ImageFiles-Set1\Faces\Face_00033.png,0,0,0,132,132,132,,,,,,,,,,,,,89.01251620000039,0.012516200000391109,None,123.30555980000281,123.30555980000281,123.30555980000281,123.30555980000281,123.30555980000281,123.30555980000281,123.30555980000281,123.30555980000281,,001,P009,2025_Feb_01_1332,CategoryLocalizer,2021.2.3,59.95947938459813,
89.8,90.0,5,0.0,Stimuli\Blank.png,0,0,0,133,133,133,,,,,,,,,,,,,89.82866860000286,0.028668600002859534,None,124.10625330000039,124.10625330000039,124.10625330000039,124.10625330000039,124.10625330000039,124.10625330000039,124.10625330000039,124.10625330000039,,001,P009,2025_Feb_01_1332,CategoryLocalizer,2021.2.3,59.95947938459813,
90.0,90.8,3,0.75,Stimuli\ImageFiles-Set1\Faces\Face_00107.png,0,0,0,134,134,134,,,,,,,,,,,,,90.01284769999984,0.012847699999838369,None,124.28974040000321,124.28974040000321,124.28974040000321,124.28974040000321,124.28974040000321,124.28974040000321,124.28974040000321,124.28974040000321,,001,P009,2025_Feb_01_1332,CategoryLocalizer,2021.2.3,59.95947938459813,
90.8,91.0,5,0.0,Stimuli\Blank.png,0,0,0,135,135,135,,,,,,,,,,,,,90.81220990000293,0.01220990000292943,None,125.09049820000291,125.09049820000291,125.09049820000291,125.09049820000291,125.09049820000291,125.09049820000291,125.09049820000291,125.09049820000291,,001,P009,2025_Feb_01_1332,CategoryLocalizer,2021.2.3,59.95947938459813,
91.0,91.8,3,0.75,Stimuli\ImageFiles-Set1\Faces\Face_00107.png,1,1,0,136,136,136,,,,,,,,,,,,,91.01352070000212,0.013520700002118247,1,125.30782370000088,125.30782370000088,125.30782370000088,125.30782370000088,125.30782370000088,125.30782370000088,125.30782370000088,125.30782370000088,0.5232307000005676,001,P009,2025_Feb_01_1332,CategoryLocalizer,2021.2.3,59.95947938459813,
91.8,92.0,5,0.0,Stimuli\Blank.png,0,0,0,137,137,137,,,,,,,,,,,,,91.83017850000033,0.030178500000332065,None,126.10802049999984,126.10802049999984,126.10802049999984,126.10802049999984,126.10802049999984,126.10802049999984,126.10802049999984,126.10802049999984,,001,P009,2025_Feb_01_1332,CategoryLocalizer,2021.2.3,59.95947938459813,
92.0,92.8,3,0.75,Stimuli\ImageFiles-Set1\Faces\Face_00113.png,0,0,0,138,138,138,,,,,,,,,,,,,92.01329650000116,0.013296500001160894,None,126.30820510000194,126.30820510000194,126.30820510000194,126.30820510000194,126.30820510000194,126.30820510000194,126.30820510000194,126.30820510000194,,001,P009,2025_Feb_01_1332,CategoryLocalizer,2021.2.3,59.95947938459813,
92.8,93.0,5,0.0,Stimuli\Blank.png,0,0,0,139,139,139,,,,,,,,,,,,,92.83256650000112,0.032566500001124155,None,127.12560030000168,127.12560030000168,127.12560030000168,127.12560030000168,127.12560030000168,127.12560030000168,127.12560030000168,127.12560030000168,,001,P009,2025_Feb_01_1332,CategoryLocalizer,2021.2.3,59.95947938459813,
93.0,93.8,3,0.75,Stimuli\ImageFiles-Set1\Faces\Face_00077.png,0,0,0,140,140,140,,,,,,,,,,,,,93.01418800000101,0.014188000001013279,None,127.29240410000057,127.29240410000057,127.29240410000057,127.29240410000057,127.29240410000057,127.29240410000057,127.29240410000057,127.29240410000057,,001,P009,2025_Feb_01_1332,CategoryLocalizer,2021.2.3,59.95947938459813,
93.8,94.0,5,0.0,Stimuli\Blank.png,0,0,0,141,141,141,,,,,,,,,,,,,93.81584049999947,0.015840499999470126,None,128.09402610000325,128.09402610000325,128.09402610000325,128.09402610000325,128.09402610000325,128.09402610000325,128.09402610000325,128.09402610000325,,001,P009,2025_Feb_01_1332,CategoryLocalizer,2021.2.3,59.95947938459813,
94.0,94.8,3,0.75,Stimuli\ImageFiles-Set1\Faces\Face_00009.png,0,0,0,142,142,142,,,,,,,,,,,,,94.01621440000235,0.016214400002354523,None,128.31000900000072,128.31000900000072,128.31000900000072,128.31000900000072,128.31000900000072,128.31000900000072,128.31000900000072,128.31000900000072,,001,P009,2025_Feb_01_1332,CategoryLocalizer,2021.2.3,59.95947938459813,
94.8,95.0,5,0.0,Stimuli\Blank.png,0,0,0,143,143,143,,,,,,,,,,,,,94.83309270000245,0.0330927000024559,None,129.11070710000058,129.11070710000058,129.11070710000058,129.11070710000058,129.11070710000058,129.11070710000058,129.11070710000058,129.11070710000058,,001,P009,2025_Feb_01_1332,CategoryLocalizer,2021.2.3,59.95947938459813,
95.0,95.8,3,0.75,Stimuli\ImageFiles-Set1\Faces\Face_00115.png,0,0,0,144,144,144,,,,,,,,,,,,,94.99956320000274,-0.00043679999726009555,None,129.27748450000217,129.27748450000217,129.27748450000217,129.27748450000217,129.27748450000217,129.27748450000217,129.27748450000217,129.27748450000217,,001,P009,2025_Feb_01_1332,CategoryLocalizer,2021.2.3,59.95947938459813,
95.8,96.0,5,0.0,Stimuli\Blank.png,0,0,0,145,145,145,,,,,,,,,,,,,95.79989100000239,-0.0001089999976073841,None,130.0782057000033,130.0782057000033,130.0782057000033,130.0782057000033,130.0782057000033,130.0782057000033,130.0782057000033,130.0782057000033,,001,P009,2025_Feb_01_1332,CategoryLocalizer,2021.2.3,59.95947938459813,
96.0,96.8,3,0.75,Stimuli\ImageFiles-Set1\Faces\Face_00035.png,0,0,0,146,146,146,,,,,,,,,,,,,96.00083040000027,0.0008304000002681278,None,130.2783679000022,130.2783679000022,130.2783679000022,130.2783679000022,130.2783679000022,130.2783679000022,130.2783679000022,130.2783679000022,,001,P009,2025_Feb_01_1332,CategoryLocalizer,2021.2.3,59.95947938459813,
96.8,97.0,5,0.0,Stimuli\Blank.png,0,0,0,147,147,147,,,,,,,,,,,,,96.80264400000306,0.002644000003058977,None,131.0957703000022,131.0957703000022,131.0957703000022,131.0957703000022,131.0957703000022,131.0957703000022,131.0957703000022,131.0957703000022,,001,P009,2025_Feb_01_1332,CategoryLocalizer,2021.2.3,59.95947938459813,
97.0,97.8,3,0.75,Stimuli\ImageFiles-Set1\Faces\Face_00103.png,1,1,0,148,148,148,,,,,,,,,,,,,97.01821790000031,0.018217900000308873,None,131.29597110000032,131.29597110000032,131.29597110000032,131.29597110000032,131.29597110000032,131.29597110000032,131.29597110000032,131.29597110000032,,001,P009,2025_Feb_01_1332,CategoryLocalizer,2021.2.3,59.95947938459813,
97.8,98.0,5,0.0,Stimuli\Blank.png,0,0,0,149,149,149,,,,,,,,,,,,,97.80251130000033,0.0025113000003358366,None,132.07997220000107,132.07997220000107,132.07997220000107,132.07997220000107,132.07997220000107,132.07997220000107,132.07997220000107,132.07997220000107,,001,P009,2025_Feb_01_1332,CategoryLocalizer,2021.2.3,59.95947938459813,
98.0,98.8,3,0.75,Stimuli\ImageFiles-Set1\Faces\Face_00081.png,0,0,0,150,150,150,,,,,,,,,,,,,98.00288890000229,0.002888900002290029,None,132.2968271000027,132.2968271000027,132.2968271000027,132.2968271000027,132.2968271000027,132.2968271000027,132.2968271000027,132.2968271000027,,001,P009,2025_Feb_01_1332,CategoryLocalizer,2021.2.3,59.95947938459813,
98.8,99.0,5,0.0,Stimuli\Blank.png,0,0,0,151,151,151,,,,,,,,,,,,,98.81934900000124,0.019349000001241734,None,133.09753900000214,133.09753900000214,133.09753900000214,133.09753900000214,133.09753900000214,133.09753900000214,133.09753900000214,133.09753900000214,,001,P009,2025_Feb_01_1332,CategoryLocalizer,2021.2.3,59.95947938459813,
99.0,99.8,3,0.75,Stimuli\ImageFiles-Set1\Faces\Face_00081.png,0,0,0,152,152,152,,,,,,,,,,,,,99.00428290000127,0.004282900001271628,1,133.29773670000213,133.29773670000213,133.29773670000213,133.29773670000213,133.29773670000213,133.29773670000213,133.29773670000213,133.29773670000213,0.4944629999990866,001,P009,2025_Feb_01_1332,CategoryLocalizer,2021.2.3,59.95947938459813,
99.8,100.0,5,0.0,Stimuli\Blank.png,0,0,0,153,153,153,,,,,,,,,,,,,99.8226906000018,0.022690600001809003,None,134.1151361000011,134.1151361000011,134.1151361000011,134.1151361000011,134.1151361000011,134.1151361000011,134.1151361000011,134.1151361000011,,001,P009,2025_Feb_01_1332,CategoryLocalizer,2021.2.3,59.95947938459813,
100.0,100.8,3,0.75,Stimuli\ImageFiles-Set1\Faces\Face_00022.png,0,0,0,154,154,154,,,,,,,,,,,,,100.02253810000184,0.022538100001838757,None,134.31528640000033,134.31528640000033,134.31528640000033,134.31528640000033,134.31528640000033,134.31528640000033,134.31528640000033,134.31528640000033,,001,P009,2025_Feb_01_1332,CategoryLocalizer,2021.2.3,59.95947938459813,
100.8,101.0,5,0.0,Stimuli\Blank.png,0,0,0,155,155,155,,,,,,,,,,,,,100.82373430000007,0.02373430000007204,None,135.11600620000172,135.11600620000172,135.11600620000172,135.11600620000172,135.11600620000172,135.11600620000172,135.11600620000172,135.11600620000172,,001,P009,2025_Feb_01_1332,CategoryLocalizer,2021.2.3,59.95947938459813,
101.0,101.8,3,0.75,Stimuli\ImageFiles-Set1\Faces\Face_00085.png,0,0,0,156,156,156,,,,,,,,,,,,,101.02134550000119,0.021345500001189066,None,135.29948660000082,135.29948660000082,135.29948660000082,135.29948660000082,135.29948660000082,135.29948660000082,135.29948660000082,135.29948660000082,,001,P009,2025_Feb_01_1332,CategoryLocalizer,2021.2.3,59.95947938459813,
101.8,102.0,5,0.0,Stimuli\Blank.png,0,0,0,157,157,157,,,,,,,,,,,,,101.8061594000028,0.006159400002800908,None,136.08352800000284,136.08352800000284,136.08352800000284,136.08352800000284,136.08352800000284,136.08352800000284,136.08352800000284,136.08352800000284,,001,P009,2025_Feb_01_1332,CategoryLocalizer,2021.2.3,59.95947938459813,
102.0,102.8,3,0.75,Stimuli\ImageFiles-Set1\Faces\Face_00093.png,0,0,0,158,158,158,,,,,,,,,,,,,102.00794460000179,0.007944600001792423,None,136.3004045000016,136.3004045000016,136.3004045000016,136.3004045000016,136.3004045000016,136.3004045000016,136.3004045000016,136.3004045000016,,001,P009,2025_Feb_01_1332,CategoryLocalizer,2021.2.3,59.95947938459813,
102.8,103.0,5,0.0,Stimuli\Blank.png,0,0,0,159,159,159,,,,,,,,,,,,,102.82340140000088,0.023401400000878425,None,137.10108550000223,137.10108550000223,137.10108550000223,137.10108550000223,137.10108550000223,137.10108550000223,137.10108550000223,137.10108550000223,,001,P009,2025_Feb_01_1332,CategoryLocalizer,2021.2.3,59.95947938459813,
103.0,103.8,3,0.75,Stimuli\ImageFiles-Set1\Faces\Face_00069.png,0,0,0,160,160,160,,,,,,,,,,,,,103.00728449999951,0.0072844999995140824,None,137.3012499000033,137.3012499000033,137.3012499000033,137.3012499000033,137.3012499000033,137.3012499000033,137.3012499000033,137.3012499000033,,001,P009,2025_Feb_01_1332,CategoryLocalizer,2021.2.3,59.95947938459813,
103.8,104.0,5,0.0,Stimuli\Blank.png,0,0,0,161,161,161,,,,,,,,,,,,,103.82434650000141,0.02434650000141403,None,138.1019653000003,138.1019653000003,138.1019653000003,138.1019653000003,138.1019653000003,138.1019653000003,138.1019653000003,138.1019653000003,,001,P009,2025_Feb_01_1332,CategoryLocalizer,2021.2.3,59.95947938459813,
104.0,104.8,1,0.75,Stimuli\ImageFiles-Set1\Objects\Object_Door_00001.png,0,0,0,162,162,162,,,,,,,,,,,,,104.00836830000117,0.008368300001166062,None,138.3021613000019,138.3021613000019,138.3021613000019,138.3021613000019,138.3021613000019,138.3021613000019,138.3021613000019,138.3021613000019,,001,P009,2025_Feb_01_1332,CategoryLocalizer,2021.2.3,59.95947938459813,
104.8,105.0,5,0.0,Stimuli\Blank.png,0,0,0,163,163,163,,,,,,,,,,,,,104.82471040000019,0.024710400000188315,None,139.10284310000134,139.10284310000134,139.10284310000134,139.10284310000134,139.10284310000134,139.10284310000134,139.10284310000134,139.10284310000134,,001,P009,2025_Feb_01_1332,CategoryLocalizer,2021.2.3,59.95947938459813,
105.0,105.8,1,0.75,Stimuli\ImageFiles-Set1\Objects\Object_Bed_00001.png,0,0,0,164,164,164,,,,,,,,,,,,,105.00820039999962,0.008200399999623187,None,139.28634090000196,139.28634090000196,139.28634090000196,139.28634090000196,139.28634090000196,139.28634090000196,139.28634090000196,139.28634090000196,,001,P009,2025_Feb_01_1332,CategoryLocalizer,2021.2.3,59.95947938459813,
105.8,106.0,5,0.0,Stimuli\Blank.png,0,0,0,165,165,165,,,,,,,,,,,,,105.80944640000234,0.009446400002346422,None,140.08705470000132,140.08705470000132,140.08705470000132,140.08705470000132,140.08705470000132,140.08705470000132,140.08705470000132,140.08705470000132,,001,P009,2025_Feb_01_1332,CategoryLocalizer,2021.2.3,59.95947938459813,
106.0,106.8,1,0.75,Stimuli\ImageFiles-Set1\Objects\Object_Bed_00001.png,1,1,0,166,166,166,,,,,,,,,,,,,106.01070130000153,0.01070130000152858,1,140.2876913,140.2876913,140.2876913,140.2876913,140.2876913,140.2876913,140.2876913,140.2876913,0.3933366000019305,001,P009,2025_Feb_01_1332,CategoryLocalizer,2021.2.3,59.95947938459813,
106.8,107.0,5,0.0,Stimuli\Blank.png,0,0,0,167,167,167,,,,,,,,,,,,,106.81006510000225,0.010065100002250915,None,141.1046234000023,141.1046234000023,141.1046234000023,141.1046234000023,141.1046234000023,141.1046234000023,141.1046234000023,141.1046234000023,,001,P009,2025_Feb_01_1332,CategoryLocalizer,2021.2.3,59.95947938459813,
107.0,107.8,1,0.75,Stimuli\ImageFiles-Set1\Objects\Object_Dryer_00001.png,0,0,0,168,168,168,,,,,,,,,,,,,107.02725080000164,0.02725080000163871,None,141.32150040000124,141.32150040000124,141.32150040000124,141.32150040000124,141.32150040000124,141.32150040000124,141.32150040000124,141.32150040000124,,001,P009,2025_Feb_01_1332,CategoryLocalizer,2021.2.3,59.95947938459813,
107.8,108.0,5,0.0,Stimuli\Blank.png,0,0,0,169,169,169,,,,,,,,,,,,,107.82741440000245,0.02741440000245632,None,142.10550850000072,142.10550850000072,142.10550850000072,142.10550850000072,142.10550850000072,142.10550850000072,142.10550850000072,142.10550850000072,,001,P009,2025_Feb_01_1332,CategoryLocalizer,2021.2.3,59.95947938459813,
108.0,108.8,1,0.75,Stimuli\ImageFiles-Set1\Objects\Object_ComputerMouse_00001.png,0,0,0,170,170,170,,,,,,,,,,,,,108.01295570000002,0.012955700000020443,None,142.30568490000223,142.30568490000223,142.30568490000223,142.30568490000223,142.30568490000223,142.30568490000223,142.30568490000223,142.30568490000223,,001,P009,2025_Feb_01_1332,CategoryLocalizer,2021.2.3,59.95947938459813,
108.8,109.0,5,0.0,Stimuli\Blank.png,0,0,0,171,171,171,,,,,,,,,,,,,108.82819820000077,0.028198200000773,None,143.10638980000294,143.10638980000294,143.10638980000294,143.10638980000294,143.10638980000294,143.10638980000294,143.10638980000294,143.10638980000294,,001,P009,2025_Feb_01_1332,CategoryLocalizer,2021.2.3,59.95947938459813,
109.0,109.8,1,0.75,Stimuli\ImageFiles-Set1\Objects\Object_Boat_00001.png,0,0,0,172,172,172,,,,,,,,,,,,,109.01216779999959,0.01216779999958817,None,143.28989600000205,143.28989600000205,143.28989600000205,143.28989600000205,143.28989600000205,143.28989600000205,143.28989600000205,143.28989600000205,,001,P009,2025_Feb_01_1332,CategoryLocalizer,2021.2.3,59.95947938459813,
109.8,110.0,5,0.0,Stimuli\Blank.png,0,0,0,173,173,173,,,,,,,,,,,,,109.81363890000284,0.013638900002845844,None,144.0905982000004,144.0905982000004,144.0905982000004,144.0905982000004,144.0905982000004,144.0905982000004,144.0905982000004,144.0905982000004,,001,P009,2025_Feb_01_1332,CategoryLocalizer,2021.2.3,59.95947938459813,
110.0,110.8,1,0.75,Stimuli\ImageFiles-Set1\Objects\Object_Oven_00001.png,0,0,0,174,174,174,,,,,,,,,,,,,110.0135732000017,0.01357320000170148,None,144.29076740000164,144.29076740000164,144.29076740000164,144.29076740000164,144.29076740000164,144.29076740000164,144.29076740000164,144.29076740000164,,001,P009,2025_Feb_01_1332,CategoryLocalizer,2021.2.3,59.95947938459813,
110.8,111.0,5,0.0,Stimuli\Blank.png,0,0,0,175,175,175,,,,,,,,,,,,,110.81373010000243,0.013730100002433687,None,145.09149220000108,145.09149220000108,145.09149220000108,145.09149220000108,145.09149220000108,145.09149220000108,145.09149220000108,145.09149220000108,,001,P009,2025_Feb_01_1332,CategoryLocalizer,2021.2.3,59.95947938459813,
111.0,111.8,1,0.75,Stimuli\ImageFiles-Set1\Objects\Object_Chest_00001.png,0,0,0,176,176,176,,,,,,,,,,,,,111.0142405000006,0.014240500000596512,None,145.29164880000098,145.29164880000098,145.29164880000098,145.29164880000098,145.29164880000098,145.29164880000098,145.29164880000098,145.29164880000098,,001,P009,2025_Feb_01_1332,CategoryLocalizer,2021.2.3,59.95947938459813,
111.8,112.0,5,0.0,Stimuli\Blank.png,0,0,0,177,177,177,,,,,,,,,,,,,111.81400460000077,0.014004600000774303,None,146.09236010000313,146.09236010000313,146.09236010000313,146.09236010000313,146.09236010000313,146.09236010000313,146.09236010000313,146.09236010000313,,001,P009,2025_Feb_01_1332,CategoryLocalizer,2021.2.3,59.95947938459813,
112.0,112.8,1,0.75,Stimuli\ImageFiles-Set1\Objects\Object_Pipe_00001.png,0,0,0,178,178,178,,,,,,,,,,,,,112.01432980000027,0.014329800000268733,None,146.29254060000312,146.29254060000312,146.29254060000312,146.29254060000312,146.29254060000312,146.29254060000312,146.29254060000312,146.29254060000312,,001,P009,2025_Feb_01_1332,CategoryLocalizer,2021.2.3,59.95947938459813,
112.8,113.0,5,0.0,Stimuli\Blank.png,0,0,0,179,179,179,,,,,,,,,,,,,112.81564480000088,0.015644800000885084,None,147.0932599000007,147.0932599000007,147.0932599000007,147.0932599000007,147.0932599000007,147.0932599000007,147.0932599000007,147.0932599000007,,001,P009,2025_Feb_01_1332,CategoryLocalizer,2021.2.3,59.95947938459813,
113.0,113.8,1,0.75,Stimuli\ImageFiles-Set1\Objects\Object_Tool_00001.png,0,0,0,180,180,180,,,,,,,,,,,,,112.99863720000212,-0.001362799997878028,None,147.29346500000247,147.29346500000247,147.29346500000247,147.29346500000247,147.29346500000247,147.29346500000247,147.29346500000247,147.29346500000247,,001,P009,2025_Feb_01_1332,CategoryLocalizer,2021.2.3,59.95947938459813,
113.8,114.0,5,0.0,Stimuli\Blank.png,0,0,0,181,181,181,,,,,,,,,,,,,113.81803600000057,0.0180360000005777,None,148.11078630000338,148.11078630000338,148.11078630000338,148.11078630000338,148.11078630000338,148.11078630000338,148.11078630000338,148.11078630000338,,001,P009,2025_Feb_01_1332,CategoryLocalizer,2021.2.3,59.95947938459813,
114.0,114.8,1,0.75,Stimuli\ImageFiles-Set1\Objects\Object_Matches_00001.png,0,0,0,182,182,182,,,,,,,,,,,,,114.01745620000293,0.01745620000292547,None,148.29431790000308,148.29431790000308,148.29431790000308,148.29431790000308,148.29431790000308,148.29431790000308,148.29431790000308,148.29431790000308,,001,P009,2025_Feb_01_1332,CategoryLocalizer,2021.2.3,59.95947938459813,
114.8,115.0,5,0.0,Stimuli\Blank.png,0,0,0,183,183,183,,,,,,,,,,,,,114.80251510000016,0.002515100000167081,None,149.09504860000015,149.09504860000015,149.09504860000015,149.09504860000015,149.09504860000015,149.09504860000015,149.09504860000015,149.09504860000015,,001,P009,2025_Feb_01_1332,CategoryLocalizer,2021.2.3,59.95947938459813,
115.0,115.8,1,0.75,Stimuli\ImageFiles-Set1\Objects\Object_Pillow_00001.png,0,0,0,184,184,184,,,,,,,,,,,,,115.01753989999997,0.017539899999974295,None,149.29520570000022,149.29520570000022,149.29520570000022,149.29520570000022,149.29520570000022,149.29520570000022,149.29520570000022,149.29520570000022,,001,P009,2025_Feb_01_1332,CategoryLocalizer,2021.2.3,59.95947938459813,
115.8,116.0,5,0.0,Stimuli\Blank.png,0,0,0,185,185,185,,,,,,,,,,,,,115.80267699999968,0.002676999999678742,None,150.0959247000028,150.0959247000028,150.0959247000028,150.0959247000028,150.0959247000028,150.0959247000028,150.0959247000028,150.0959247000028,,001,P009,2025_Feb_01_1332,CategoryLocalizer,2021.2.3,59.95947938459813,
116.0,116.8,1,0.75,Stimuli\ImageFiles-Set1\Objects\Object_Box_00001.png,0,0,0,186,186,186,,,,,,,,,,,,,116.01845630000025,0.018456300000252668,None,150.29607860000033,150.29607860000033,150.29607860000033,150.29607860000033,150.29607860000033,150.29607860000033,150.29607860000033,150.29607860000033,,001,P009,2025_Feb_01_1332,CategoryLocalizer,2021.2.3,59.95947938459813,
116.8,117.0,5,0.0,Stimuli\Blank.png,0,0,0,187,187,187,,,,,,,,,,,,,116.80246100000295,0.0024610000029525736,None,151.0801257000021,151.0801257000021,151.0801257000021,151.0801257000021,151.0801257000021,151.0801257000021,151.0801257000021,151.0801257000021,,001,P009,2025_Feb_01_1332,CategoryLocalizer,2021.2.3,59.95947938459813,
117.0,117.8,1,0.75,Stimuli\ImageFiles-Set1\Objects\Object_Lipstick_00001.png,1,1,0,188,188,188,,,,,,,,,,,,,117.00235389999943,0.0023538999994343612,None,151.2802819000026,151.2802819000026,151.2802819000026,151.2802819000026,151.2802819000026,151.2802819000026,151.2802819000026,151.2802819000026,,001,P009,2025_Feb_01_1332,CategoryLocalizer,2021.2.3,59.95947938459813,
117.8,118.0,5,0.0,Stimuli\Blank.png,0,0,0,189,189,189,,,,,,,,,,,,,117.80337220000001,0.0033722000000153685,None,152.08099810000203,152.08099810000203,152.08099810000203,152.08099810000203,152.08099810000203,152.08099810000203,152.08099810000203,152.08099810000203,,001,P009,2025_Feb_01_1332,CategoryLocalizer,2021.2.3,59.95947938459813,
118.0,118.8,1,0.75,Stimuli\ImageFiles-Set1\Objects\Object_Pot_00001.png,0,0,0,190,190,190,,,,,,,,,,,,,118.00498290000178,0.0049829000017780345,None,152.29785540000012,152.29785540000012,152.29785540000012,152.29785540000012,152.29785540000012,152.29785540000012,152.29785540000012,152.29785540000012,,001,P009,2025_Feb_01_1332,CategoryLocalizer,2021.2.3,59.95947938459813,
118.8,119.0,5,0.0,Stimuli\Blank.png,0,0,0,191,191,191,,,,,,,,,,,,,118.82253789999959,0.022537899999591104,None,153.11525000000256,153.11525000000256,153.11525000000256,153.11525000000256,153.11525000000256,153.11525000000256,153.11525000000256,153.11525000000256,,001,P009,2025_Feb_01_1332,CategoryLocalizer,2021.2.3,59.95947938459813,
119.0,119.8,1,0.75,Stimuli\ImageFiles-Set1\Objects\Object_Pot_00001.png,0,0,0,192,192,192,,,,,,,,,,,,,119.0203653000026,0.020365300002595177,1,153.29880790000243,153.29880790000243,153.29880790000243,153.29880790000243,153.29880790000243,153.29880790000243,153.29880790000243,153.29880790000243,0.5463544000012917,001,P009,2025_Feb_01_1332,CategoryLocalizer,2021.2.3,59.95947938459813,
119.8,120.0,5,0.0,Stimuli\Blank.png,0,0,0,193,193,193,,,,,,,,,,,,,119.80462320000152,0.0046232000015180574,None,154.08278000000064,154.08278000000064,154.08278000000064,154.08278000000064,154.08278000000064,154.08278000000064,154.08278000000064,154.08278000000064,,001,P009,2025_Feb_01_1332,CategoryLocalizer,2021.2.3,59.95947938459813,
120.0,120.8,4,0.75,Stimuli\ImageFiles-Set1\Scenes\Scenes_002.png,0,0,0,194,194,194,,,,,,,,,,,,,120.00557860000117,0.005578600001172163,None,154.2829148000019,154.2829148000019,154.2829148000019,154.2829148000019,154.2829148000019,154.2829148000019,154.2829148000019,154.2829148000019,,001,P009,2025_Feb_01_1332,CategoryLocalizer,2021.2.3,59.95947938459813,
120.8,121.0,5,0.0,Stimuli\Blank.png,0,0,0,195,195,195,,,,,,,,,,,,,120.80532440000025,0.00532440000024792,None,155.08365080000294,155.08365080000294,155.08365080000294,155.08365080000294,155.08365080000294,155.08365080000294,155.08365080000294,155.08365080000294,,001,P009,2025_Feb_01_1332,CategoryLocalizer,2021.2.3,59.95947938459813,
121.0,121.8,4,0.75,Stimuli\ImageFiles-Set1\Scenes\Scenes_027.png,0,0,0,196,196,196,,,,,,,,,,,,,121.00761580000108,0.007615800001076423,None,155.30052090000027,155.30052090000027,155.30052090000027,155.30052090000027,155.30052090000027,155.30052090000027,155.30052090000027,155.30052090000027,,001,P009,2025_Feb_01_1332,CategoryLocalizer,2021.2.3,59.95947938459813,
121.8,122.0,5,0.0,Stimuli\Blank.png,0,0,0,197,197,197,,,,,,,,,,,,,121.82343960000071,0.023439600000713767,None,156.10122070000216,156.10122070000216,156.10122070000216,156.10122070000216,156.10122070000216,156.10122070000216,156.10122070000216,156.10122070000216,,001,P009,2025_Feb_01_1332,CategoryLocalizer,2021.2.3,59.95947938459813,
122.0,122.8,4,0.75,Stimuli\ImageFiles-Set1\Scenes\Scenes_027.png,1,1,0,198,198,198,,,,,,,,,,,,,122.00732160000189,0.007321600001887418,1,156.28471400000126,156.28471400000126,156.28471400000126,156.28471400000126,156.28471400000126,156.28471400000126,156.28471400000126,156.28471400000126,0.4283605000018724,001,P009,2025_Feb_01_1332,CategoryLocalizer,2021.2.3,59.95947938459813,
122.8,123.0,5,0.0,Stimuli\Blank.png,0,0,0,199,199,199,,,,,,,,,,,,,122.80757480000102,0.007574800001023618,None,157.08542860000307,157.08542860000307,157.08542860000307,157.08542860000307,157.08542860000307,157.08542860000307,157.08542860000307,157.08542860000307,,001,P009,2025_Feb_01_1332,CategoryLocalizer,2021.2.3,59.95947938459813,
123.0,123.8,4,0.75,Stimuli\ImageFiles-Set1\Scenes\Scenes_011.png,0,0,0,200,200,200,,,,,,,,,,,,,123.00852780000059,0.008527800000592833,None,157.30225490000157,157.30225490000157,157.30225490000157,157.30225490000157,157.30225490000157,157.30225490000157,157.30225490000157,157.30225490000157,,001,P009,2025_Feb_01_1332,CategoryLocalizer,2021.2.3,59.95947938459813,
123.8,124.0,5,0.0,Stimuli\Blank.png,0,0,0,201,201,201,,,,,,,,,,,,,123.82474540000112,0.02474540000112313,None,158.1029896,158.1029896,158.1029896,158.1029896,158.1029896,158.1029896,158.1029896,158.1029896,,001,P009,2025_Feb_01_1332,CategoryLocalizer,2021.2.3,59.95947938459813,
124.0,124.8,4,0.75,Stimuli\ImageFiles-Set1\Scenes\Scenes_035.png,0,0,0,202,202,202,,,,,,,,,,,,,124.00878500000181,0.00878500000180793,None,158.2864580000023,158.2864580000023,158.2864580000023,158.2864580000023,158.2864580000023,158.2864580000023,158.2864580000023,158.2864580000023,,001,P009,2025_Feb_01_1332,CategoryLocalizer,2021.2.3,59.95947938459813,
124.8,125.0,5,0.0,Stimuli\Blank.png,0,0,0,203,203,203,,,,,,,,,,,,,124.81012120000014,0.010121200000142494,None,159.0871812000005,159.0871812000005,159.0871812000005,159.0871812000005,159.0871812000005,159.0871812000005,159.0871812000005,159.0871812000005,,001,P009,2025_Feb_01_1332,CategoryLocalizer,2021.2.3,59.95947938459813,
125.0,125.8,4,0.75,Stimuli\ImageFiles-Set1\Scenes\Scenes_033.png,0,0,0,204,204,204,,,,,,,,,,,,,125.00918770000135,0.009187700001348276,None,159.2873701000026,159.2873701000026,159.2873701000026,159.2873701000026,159.2873701000026,159.2873701000026,159.2873701000026,159.2873701000026,,001,P009,2025_Feb_01_1332,CategoryLocalizer,2021.2.3,59.95947938459813,
125.8,126.0,5,0.0,Stimuli\Blank.png,0,0,0,205,205,205,,,,,,,,,,,,,125.81125679999968,0.01125679999968554,None,160.08808440000212,160.08808440000212,160.08808440000212,160.08808440000212,160.08808440000212,160.08808440000212,160.08808440000212,160.08808440000212,,001,P009,2025_Feb_01_1332,CategoryLocalizer,2021.2.3,59.95947938459813,
126.0,126.8,4,0.75,Stimuli\ImageFiles-Set1\Scenes\Scenes_025.png,0,0,0,206,206,206,,,,,,,,,,,,,126.00991520000025,0.00991520000025048,None,160.28822390000278,160.28822390000278,160.28822390000278,160.28822390000278,160.28822390000278,160.28822390000278,160.28822390000278,160.28822390000278,,001,P009,2025_Feb_01_1332,CategoryLocalizer,2021.2.3,59.95947938459813,
126.8,127.0,5,0.0,Stimuli\Blank.png,0,0,0,207,207,207,,,,,,,,,,,,,126.81292560000293,0.012925600002930082,None,161.10566430000108,161.10566430000108,161.10566430000108,161.10566430000108,161.10566430000108,161.10566430000108,161.10566430000108,161.10566430000108,,001,P009,2025_Feb_01_1332,CategoryLocalizer,2021.2.3,59.95947938459813,
127.0,127.8,4,0.75,Stimuli\ImageFiles-Set1\Scenes\Scenes_049.png,0,0,0,208,208,208,,,,,,,,,,,,,127.02868410000156,0.028684100001555635,None,161.32249960000263,161.32249960000263,161.32249960000263,161.32249960000263,161.32249960000263,161.32249960000263,161.32249960000263,161.32249960000263,,001,P009,2025_Feb_01_1332,CategoryLocalizer,2021.2.3,59.95947938459813,
127.8,128.0,5,0.0,Stimuli\Blank.png,0,0,0,209,209,209,,,,,,,,,,,,,127.82843530000173,0.02843530000173189,None,162.10653030000321,162.10653030000321,162.10653030000321,162.10653030000321,162.10653030000321,162.10653030000321,162.10653030000321,162.10653030000321,,001,P009,2025_Feb_01_1332,CategoryLocalizer,2021.2.3,59.95947938459813,
128.0,128.8,4,0.75,Stimuli\ImageFiles-Set1\Scenes\Scenes_007.png,0,0,0,210,210,210,,,,,,,,,,,,,128.01234750000003,0.012347500000032596,None,162.29002430000037,162.29002430000037,162.29002430000037,162.29002430000037,162.29002430000037,162.29002430000037,162.29002430000037,162.29002430000037,,001,P009,2025_Feb_01_1332,CategoryLocalizer,2021.2.3,59.95947938459813,
128.8,129.0,5,0.0,Stimuli\Blank.png,0,0,0,211,211,211,,,,,,,,,,,,,128.81295760000285,0.012957600002835079,None,163.09074370000235,163.09074370000235,163.09074370000235,163.09074370000235,163.09074370000235,163.09074370000235,163.09074370000235,163.09074370000235,,001,P009,2025_Feb_01_1332,CategoryLocalizer,2021.2.3,59.95947938459813,
129.0,129.8,4,0.75,Stimuli\ImageFiles-Set1\Scenes\Scenes_054.png,0,0,0,212,212,212,,,,,,,,,,,,,129.0129620000007,0.012962000000698026,None,163.29091150000022,163.29091150000022,163.29091150000022,163.29091150000022,163.29091150000022,163.29091150000022,163.29091150000022,163.29091150000022,,001,P009,2025_Feb_01_1332,CategoryLocalizer,2021.2.3,59.95947938459813,
129.8,130.0,5,0.0,Stimuli\Blank.png,0,0,0,213,213,213,,,,,,,,,,,,,129.81498890000148,0.014988900001469574,None,164.09199660000013,164.09199660000013,164.09199660000013,164.09199660000013,164.09199660000013,164.09199660000013,164.09199660000013,164.09199660000013,,001,P009,2025_Feb_01_1332,CategoryLocalizer,2021.2.3,59.95947938459813,
130.0,130.8,4,0.75,Stimuli\ImageFiles-Set1\Scenes\Scenes_053.png,0,0,0,214,214,214,,,,,,,,,,,,,130.01346920000287,0.01346920000287355,None,164.29179700000168,164.29179700000168,164.29179700000168,164.29179700000168,164.29179700000168,164.29179700000168,164.29179700000168,164.29179700000168,,001,P009,2025_Feb_01_1332,CategoryLocalizer,2021.2.3,59.95947938459813,
130.8,131.0,5,0.0,Stimuli\Blank.png,0,0,0,215,215,215,,,,,,,,,,,,,130.81427460000123,0.014274600001215276,None,165.09260340000037,165.09260340000037,165.09260340000037,165.09260340000037,165.09260340000037,165.09260340000037,165.09260340000037,165.09260340000037,,001,P009,2025_Feb_01_1332,CategoryLocalizer,2021.2.3,59.95947938459813,
131.0,131.8,4,0.75,Stimuli\ImageFiles-Set1\Scenes\Scenes_005.png,0,0,0,216,216,216,,,,,,,,,,,,,131.01504310000018,0.015043100000184495,None,165.29267850000178,165.29267850000178,165.29267850000178,165.29267850000178,165.29267850000178,165.29267850000178,165.29267850000178,165.29267850000178,,001,P009,2025_Feb_01_1332,CategoryLocalizer,2021.2.3,59.95947938459813,
131.8,132.0,5,0.0,Stimuli\Blank.png,0,0,0,217,217,217,,,,,,,,,,,,,131.7991710000024,-0.0008289999976227591,None,166.0767130000022,166.0767130000022,166.0767130000022,166.0767130000022,166.0767130000022,166.0767130000022,166.0767130000022,166.0767130000022,,001,P009,2025_Feb_01_1332,CategoryLocalizer,2021.2.3,59.95947938459813,
132.0,132.8,4,0.75,Stimuli\ImageFiles-Set1\Scenes\Scenes_052.png,0,0,0,218,218,218,,,,,,,,,,,,,131.99942300000112,-0.0005769999988842756,1,166.29423860000315,166.29423860000315,166.29423860000315,166.29423860000315,166.29423860000315,166.29423860000315,166.29423860000315,166.29423860000315,0.5678726999976789,001,P009,2025_Feb_01_1332,CategoryLocalizer,2021.2.3,59.95947938459813,
132.8,133.0,5,0.0,Stimuli\Blank.png,0,0,0,219,219,219,,,,,,,,,,,,,132.81921330000114,0.019213300001126754,None,167.11097090000112,167.11097090000112,167.11097090000112,167.11097090000112,167.11097090000112,167.11097090000112,167.11097090000112,167.11097090000112,,001,P009,2025_Feb_01_1332,CategoryLocalizer,2021.2.3,59.95947938459813,
133.0,133.8,4,0.75,Stimuli\ImageFiles-Set1\Scenes\Scenes_030.png,0,0,0,220,220,220,,,,,,,,,,,,,133.01789890000146,0.01789890000145533,None,167.31113410000034,167.31113410000034,167.31113410000034,167.31113410000034,167.31113410000034,167.31113410000034,167.31113410000034,167.31113410000034,,001,P009,2025_Feb_01_1332,CategoryLocalizer,2021.2.3,59.95947938459813,
133.8,134.0,5,0.0,Stimuli\Blank.png,0,0,0,221,221,221,,,,,,,,,,,,,133.81745220000084,0.017452200000832363,None,168.09516500000245,168.09516500000245,168.09516500000245,168.09516500000245,168.09516500000245,168.09516500000245,168.09516500000245,168.09516500000245,,001,P009,2025_Feb_01_1332,CategoryLocalizer,2021.2.3,59.95947938459813,
134.0,134.8,4,0.75,Stimuli\ImageFiles-Set1\Scenes\Scenes_016.png,0,0,0,222,222,222,,,,,,,,,,,,,134.00349710000228,0.0034971000022778753,None,168.29531210000277,168.29531210000277,168.29531210000277,168.29531210000277,168.29531210000277,168.29531210000277,168.29531210000277,168.29531210000277,,001,P009,2025_Feb_01_1332,CategoryLocalizer,2021.2.3,59.95947938459813,
134.8,135.0,5,0.0,Stimuli\Blank.png,0,0,0,223,223,223,,,,,,,,,,,,,134.8184137999997,0.01841379999967785,None,169.09605920000104,169.09605920000104,169.09605920000104,169.09605920000104,169.09605920000104,169.09605920000104,169.09605920000104,169.09605920000104,,001,P009,2025_Feb_01_1332,CategoryLocalizer,2021.2.3,59.95947938459813,
135.0,135.8,4,0.75,Stimuli\ImageFiles-Set1\Scenes\Scenes_032.png,0,0,0,224,224,224,,,,,,,,,,,,,135.00366280000162,0.0036628000016207807,None,169.29622310000195,169.29622310000195,169.29622310000195,169.29622310000195,169.29622310000195,169.29622310000195,169.29622310000195,169.29622310000195,,001,P009,2025_Feb_01_1332,CategoryLocalizer,2021.2.3,59.95947938459813,
135.8,136.0,5,0.0,Stimuli\Blank.png,0,0,0,225,225,225,,,,,,,,,,,,,135.81933209999988,0.019332099999871843,None,170.09692800000266,170.09692800000266,170.09692800000266,170.09692800000266,170.09692800000266,170.09692800000266,170.09692800000266,170.09692800000266,,001,P009,2025_Feb_01_1332,CategoryLocalizer,2021.2.3,59.95947938459813,
136.0,136.8,2,0.75,Stimuli\ImageFiles-Set1\Bodies\Bodies_Walking_00004.png,0,0,0,226,226,226,,,,,,,,,,,,,136.00350000000253,0.0035000000025320332,None,170.29711130000214,170.29711130000214,170.29711130000214,170.29711130000214,170.29711130000214,170.29711130000214,170.29711130000214,170.29711130000214,,001,P009,2025_Feb_01_1332,CategoryLocalizer,2021.2.3,59.95947938459813,
136.8,137.0,5,0.0,Stimuli\Blank.png,0,0,0,227,227,227,,,,,,,,,,,,,136.81946869999956,0.0194686999995497,None,171.0978341000009,171.0978341000009,171.0978341000009,171.0978341000009,171.0978341000009,171.0978341000009,171.0978341000009,171.0978341000009,,001,P009,2025_Feb_01_1332,CategoryLocalizer,2021.2.3,59.95947938459813,
137.0,137.8,2,0.75,Stimuli\ImageFiles-Set1\Bodies\Bodies_Lunging_00001.png,0,0,0,228,228,228,,,,,,,,,,,,,137.00377990000197,0.0037799000019731466,None,171.298688400002,171.298688400002,171.298688400002,171.298688400002,171.298688400002,171.298688400002,171.298688400002,171.298688400002,,001,P009,2025_Feb_01_1332,CategoryLocalizer,2021.2.3,59.95947938459813,
137.8,138.0,5,0.0,Stimuli\Blank.png,0,0,0,229,229,229,,,,,,,,,,,,,137.82259610000256,0.022596100002544972,None,172.11543500000334,172.11543500000334,172.11543500000334,172.11543500000334,172.11543500000334,172.11543500000334,172.11543500000334,172.11543500000334,,001,P009,2025_Feb_01_1332,CategoryLocalizer,2021.2.3,59.95947938459813,
138.0,138.8,2,0.75,Stimuli\ImageFiles-Set1\Bodies\Bodies_Lunging_00001.png,1,1,0,230,230,230,,,,,,,,,,,,,138.02098540000225,0.020985400002246024,1,172.29887920000328,172.29887920000328,172.29887920000328,172.29887920000328,172.29887920000328,172.29887920000328,172.29887920000328,172.29887920000328,0.48950089999925694,001,P009,2025_Feb_01_1332,CategoryLocalizer,2021.2.3,59.95947938459813,
138.8,139.0,5,0.0,Stimuli\Blank.png,0,0,0,231,231,231,,,,,,,,,,,,,138.80468230000042,0.004682300000411033,None,173.08290630000192,173.08290630000192,173.08290630000192,173.08290630000192,173.08290630000192,173.08290630000192,173.08290630000192,173.08290630000192,,001,P009,2025_Feb_01_1332,CategoryLocalizer,2021.2.3,59.95947938459813,
139.0,139.8,2,0.75,Stimuli\ImageFiles-Set1\Bodies\Bodies_Falling_00006.png,0,0,0,232,232,232,,,,,,,,,,,,,139.00567070000034,0.005670700000337092,None,173.2830963000015,173.2830963000015,173.2830963000015,173.2830963000015,173.2830963000015,173.2830963000015,173.2830963000015,173.2830963000015,,001,P009,2025_Feb_01_1332,CategoryLocalizer,2021.2.3,59.95947938459813,
139.8,140.0,5,0.0,Stimuli\Blank.png,0,0,0,233,233,233,,,,,,,,,,,,,139.80539510000017,0.005395100000157527,None,174.0837868000017,174.0837868000017,174.0837868000017,174.0837868000017,174.0837868000017,174.0837868000017,174.0837868000017,174.0837868000017,,001,P009,2025_Feb_01_1332,CategoryLocalizer,2021.2.3,59.95947938459813,
140.0,140.8,2,0.75,Stimuli\ImageFiles-Set1\Bodies\Bodies_Jumping_00006.png,0,0,0,234,234,234,,,,,,,,,,,,,140.00633930000186,0.006339300001855008,None,174.2839724000005,174.2839724000005,174.2839724000005,174.2839724000005,174.2839724000005,174.2839724000005,174.2839724000005,174.2839724000005,,001,P009,2025_Feb_01_1332,CategoryLocalizer,2021.2.3,59.95947938459813,
140.8,141.0,5,0.0,Stimuli\Blank.png,0,0,0,235,235,235,,,,,,,,,,,,,140.80829900000026,0.008299000000249634,None,175.1013622999999,175.1013622999999,175.1013622999999,175.1013622999999,175.1013622999999,175.1013622999999,175.1013622999999,175.1013622999999,,001,P009,2025_Feb_01_1332,CategoryLocalizer,2021.2.3,59.95947938459813,
141.0,141.8,2,0.75,Stimuli\ImageFiles-Set1\Bodies\Bodies_SittingFloor_00005.png,0,0,0,236,236,236,,,,,,,,,,,,,141.02401060000193,0.02401060000192956,None,175.30153530000098,175.30153530000098,175.30153530000098,175.30153530000098,175.30153530000098,175.30153530000098,175.30153530000098,175.30153530000098,,001,P009,2025_Feb_01_1332,CategoryLocalizer,2021.2.3,59.95947938459813,
141.8,142.0,5,0.0,Stimuli\Blank.png,0,0,0,237,237,237,,,,,,,,,,,,,141.80792620000284,0.007926200002827954,None,176.08555970000089,176.08555970000089,176.08555970000089,176.08555970000089,176.08555970000089,176.08555970000089,176.08555970000089,176.08555970000089,,001,P009,2025_Feb_01_1332,CategoryLocalizer,2021.2.3,59.95947938459813,
142.0,142.8,2,0.75,Stimuli\ImageFiles-Set1\Bodies\Bodies_Kneeling_00003.png,0,0,0,238,238,238,,,,,,,,,,,,,142.00893690000157,0.008936900001572212,None,176.28569590000188,176.28569590000188,176.28569590000188,176.28569590000188,176.28569590000188,176.28569590000188,176.28569590000188,176.28569590000188,,001,P009,2025_Feb_01_1332,CategoryLocalizer,2021.2.3,59.95947938459813,
142.8,143.0,5,0.0,Stimuli\Blank.png,0,0,0,239,239,239,,,,,,,,,,,,,142.8087693000016,0.00876930000157472,None,177.08645750000142,177.08645750000142,177.08645750000142,177.08645750000142,177.08645750000142,177.08645750000142,177.08645750000142,177.08645750000142,,001,P009,2025_Feb_01_1332,CategoryLocalizer,2021.2.3,59.95947938459813,
143.0,143.8,2,0.75,Stimuli\ImageFiles-Set1\Bodies\Bodies_SittingStretch_00005.png,0,0,0,240,240,240,,,,,,,,,,,,,143.00911480000286,0.009114800002862466,None,177.2866240000003,177.2866240000003,177.2866240000003,177.2866240000003,177.2866240000003,177.2866240000003,177.2866240000003,177.2866240000003,,001,P009,2025_Feb_01_1332,CategoryLocalizer,2021.2.3,59.95947938459813,
143.8,144.0,5,0.0,Stimuli\Blank.png,0,0,0,241,241,241,,,,,,,,,,,,,143.8092241000013,0.00922410000129048,None,178.08735370000068,178.08735370000068,178.08735370000068,178.08735370000068,178.08735370000068,178.08735370000068,178.08735370000068,178.08735370000068,,001,P009,2025_Feb_01_1332,CategoryLocalizer,2021.2.3,59.95947938459813,
144.0,144.8,2,0.75,Stimuli\ImageFiles-Set1\Bodies\Bodies_Crawling_00006.png,0,0,0,242,242,242,,,,,,,,,,,,,144.01019250000172,0.010192500001721783,None,178.28750780000337,178.28750780000337,178.28750780000337,178.28750780000337,178.28750780000337,178.28750780000337,178.28750780000337,178.28750780000337,,001,P009,2025_Feb_01_1332,CategoryLocalizer,2021.2.3,59.95947938459813,
144.8,145.0,5,0.0,Stimuli\Blank.png,0,0,0,243,243,243,,,,,,,,,,,,,144.8126725000002,0.012672500000178388,None,179.10491110000294,179.10491110000294,179.10491110000294,179.10491110000294,179.10491110000294,179.10491110000294,179.10491110000294,179.10491110000294,,001,P009,2025_Feb_01_1332,CategoryLocalizer,2021.2.3,59.95947938459813,
145.0,145.8,2,0.75,Stimuli\ImageFiles-Set1\Bodies\Bodies_SittingChair_00001.png,1,1,0,244,244,244,,,,,,,,,,,,,145.0273976999997,0.027397699999710312,None,179.305078100002,179.305078100002,179.305078100002,179.305078100002,179.305078100002,179.305078100002,179.305078100002,179.305078100002,,001,P009,2025_Feb_01_1332,CategoryLocalizer,2021.2.3,59.95947938459813,
145.8,146.0,5,0.0,Stimuli\Blank.png,0,0,0,245,245,245,,,,,,,,,,,,,145.81227260000014,0.012272600000130751,None,180.08910380000088,180.08910380000088,180.08910380000088,180.08910380000088,180.08910380000088,180.08910380000088,180.08910380000088,180.08910380000088,,001,P009,2025_Feb_01_1332,CategoryLocalizer,2021.2.3,59.95947938459813,
146.0,146.8,2,0.75,Stimuli\ImageFiles-Set1\Bodies\Bodies_Hanging_00006.png,0,0,0,246,246,246,,,,,,,,,,,,,146.0110050000003,0.011005000000295695,None,180.28927730000214,180.28927730000214,180.28927730000214,180.28927730000214,180.28927730000214,180.28927730000214,180.28927730000214,180.28927730000214,,001,P009,2025_Feb_01_1332,CategoryLocalizer,2021.2.3,59.95947938459813,
146.8,147.0,5,0.0,Stimuli\Blank.png,0,0,0,247,247,247,,,,,,,,,,,,,146.81235370000286,0.012353700002847745,None,181.08998150000116,181.08998150000116,181.08998150000116,181.08998150000116,181.08998150000116,181.08998150000116,181.08998150000116,181.08998150000116,,001,P009,2025_Feb_01_1332,CategoryLocalizer,2021.2.3,59.95947938459813,
147.0,147.8,2,0.75,Stimuli\ImageFiles-Set1\Bodies\Bodies_Hanging_00006.png,0,0,0,248,248,248,,,,,,,,,,,,,147.01246680000258,0.012466800002584932,1,181.29013880000275,181.29013880000275,181.29013880000275,181.29013880000275,181.29013880000275,181.29013880000275,181.29013880000275,181.29013880000275,0.3899431000027107,001,P009,2025_Feb_01_1332,CategoryLocalizer,2021.2.3,59.95947938459813,
147.8,148.0,5,0.0,Stimuli\Blank.png,0,0,0,249,249,249,,,,,,,,,,,,,147.81288260000292,0.012882600002910749,None,182.09087080000245,182.09087080000245,182.09087080000245,182.09087080000245,182.09087080000245,182.09087080000245,182.09087080000245,182.09087080000245,,001,P009,2025_Feb_01_1332,CategoryLocalizer,2021.2.3,59.95947938459813,
148.0,148.8,2,0.75,Stimuli\ImageFiles-Set1\Bodies\Bodies_QuadStretch_00001.png,0,0,0,250,250,250,,,,,,,,,,,,,148.0127489000006,0.012748900000588037,None,182.2910488000016,182.2910488000016,182.2910488000016,182.2910488000016,182.2910488000016,182.2910488000016,182.2910488000016,182.2910488000016,,001,P009,2025_Feb_01_1332,CategoryLocalizer,2021.2.3,59.95947938459813,
148.8,149.0,5,0.0,Stimuli\Blank.png,0,0,0,251,251,251,,,,,,,,,,,,,148.81340450000062,0.013404500000604003,None,183.09176020000086,183.09176020000086,183.09176020000086,183.09176020000086,183.09176020000086,183.09176020000086,183.09176020000086,183.09176020000086,,001,P009,2025_Feb_01_1332,CategoryLocalizer,2021.2.3,59.95947938459813,
149.0,149.8,2,0.75,Stimuli\ImageFiles-Set1\Bodies\Bodies_Punching_00006.png,0,0,0,252,252,252,,,,,,,,,,,,,149.01360060000297,0.013600600002973806,None,183.29193590000068,183.29193590000068,183.29193590000068,183.29193590000068,183.29193590000068,183.29193590000068,183.29193590000068,183.29193590000068,,001,P009,2025_Feb_01_1332,CategoryLocalizer,2021.2.3,59.95947938459813,
149.8,150.0,5,0.0,Stimuli\Blank.png,0,0,0,253,253,253,,,,,,,,,,,,,149.81515840000066,0.015158400000643724,None,184.09264299999995,184.09264299999995,184.09264299999995,184.09264299999995,184.09264299999995,184.09264299999995,184.09264299999995,184.09264299999995,,001,P009,2025_Feb_01_1332,CategoryLocalizer,2021.2.3,59.95947938459813,
150.0,150.8,2,0.75,Stimuli\ImageFiles-Set1\Bodies\Bodies_Waving_00003.png,0,0,0,254,254,254,,,,,,,,,,,,,150.01450079999995,0.014500799999950686,None,184.30952160000015,184.30952160000015,184.30952160000015,184.30952160000015,184.30952160000015,184.30952160000015,184.30952160000015,184.30952160000015,,001,P009,2025_Feb_01_1332,CategoryLocalizer,2021.2.3,59.95947938459813,
150.8,151.0,5,0.0,Stimuli\Blank.png,0,0,0,255,255,255,,,,,,,,,,,,,150.8325979000001,0.032597900000098434,None,185.11021790000086,185.11021790000086,185.11021790000086,185.11021790000086,185.11021790000086,185.11021790000086,185.11021790000086,185.11021790000086,,001,P009,2025_Feb_01_1332,CategoryLocalizer,2021.2.3,59.95947938459813,
151.0,151.8,2,0.75,Stimuli\ImageFiles-Set1\Bodies\Bodies_Hanging_00002.png,0,0,0,256,256,256,,,,,,,,,,,,,150.9994031999995,-0.0005968000004941132,None,185.27702730000237,185.27702730000237,185.27702730000237,185.27702730000237,185.27702730000237,185.27702730000237,185.27702730000237,185.27702730000237,,001,P009,2025_Feb_01_1332,CategoryLocalizer,2021.2.3,59.95947938459813,
151.8,152.0,5,0.0,Stimuli\Blank.png,0,0,0,257,257,257,,,,,,,,,,,,,151.8001507000008,0.0001507000008018622,None,186.07773430000088,186.07773430000088,186.07773430000088,186.07773430000088,186.07773430000088,186.07773430000088,186.07773430000088,186.07773430000088,,001,P009,2025_Feb_01_1332,CategoryLocalizer,2021.2.3,59.95947938459813,
152.0,164.0,0,0.0,Stimuli\Blank.png,0,0,0,258,258,258,,,,,,,,,,,,,151.99974450000082,-0.00025549999918439426,1,186.2779085000002,186.2779085000002,186.2779085000002,186.2779085000002,186.2779085000002,186.2779085000002,186.2779085000002,186.2779085000002,0.4651384000026155,001,P009,2025_Feb_01_1332,CategoryLocalizer,2021.2.3,59.95947938459813,
164.0,164.8,4,0.75,Stimuli\ImageFiles-Set1\Scenes\Scenes_059.png,0,0,0,259,259,259,,,,,,,,,,,,,164.0129835000007,0.012983500000700587,None,198.305225600001,198.305225600001,198.305225600001,198.305225600001,198.305225600001,198.305225600001,198.305225600001,198.305225600001,,001,P009,2025_Feb_01_1332,CategoryLocalizer,2021.2.3,59.95947938459813,
164.8,165.0,5,0.0,Stimuli\Blank.png,0,0,0,260,260,260,,,,,,,,,,,,,164.82854560000123,0.028545600001223193,None,199.10595020000255,199.10595020000255,199.10595020000255,199.10595020000255,199.10595020000255,199.10595020000255,199.10595020000255,199.10595020000255,,001,P009,2025_Feb_01_1332,CategoryLocalizer,2021.2.3,59.95947938459813,
165.0,165.8,4,0.75,Stimuli\ImageFiles-Set1\Scenes\Scenes_059.png,1,1,0,261,261,261,,,,,,,,,,,,,165.01295720000053,0.012957200000528246,1,199.30611150000186,199.30611150000186,199.30611150000186,199.30611150000186,199.30611150000186,199.30611150000186,199.30611150000186,199.30611150000186,0.4449528000004648,001,P009,2025_Feb_01_1332,CategoryLocalizer,2021.2.3,59.95947938459813,
165.8,166.0,5,0.0,Stimuli\Blank.png,0,0,0,262,262,262,,,,,,,,,,,,,165.82987240000148,0.02987240000146585,None,200.1068047000008,200.1068047000008,200.1068047000008,200.1068047000008,200.1068047000008,200.1068047000008,200.1068047000008,200.1068047000008,,001,P009,2025_Feb_01_1332,CategoryLocalizer,2021.2.3,59.95947938459813,
166.0,166.8,4,0.75,Stimuli\ImageFiles-Set1\Scenes\Scenes_029.png,0,0,0,263,263,263,,,,,,,,,,,,,166.0127033000026,0.012703300002613105,None,200.30699380000078,200.30699380000078,200.30699380000078,200.30699380000078,200.30699380000078,200.30699380000078,200.30699380000078,200.30699380000078,,001,P009,2025_Feb_01_1332,CategoryLocalizer,2021.2.3,59.95947938459813,
166.8,167.0,5,0.0,Stimuli\Blank.png,0,0,0,264,264,264,,,,,,,,,,,,,166.82950260000143,0.029502600001421797,None,201.1076893999998,201.1076893999998,201.1076893999998,201.1076893999998,201.1076893999998,201.1076893999998,201.1076893999998,201.1076893999998,,001,P009,2025_Feb_01_1332,CategoryLocalizer,2021.2.3,59.95947938459813,
167.0,167.8,4,0.75,Stimuli\ImageFiles-Set1\Scenes\Scenes_040.png,0,0,0,265,265,265,,,,,,,,,,,,,167.0136046000007,0.01360460000068997,None,201.30787810000038,201.30787810000038,201.30787810000038,201.30787810000038,201.30787810000038,201.30787810000038,201.30787810000038,201.30787810000038,,001,P009,2025_Feb_01_1332,CategoryLocalizer,2021.2.3,59.95947938459813,
167.8,168.0,5,0.0,Stimuli\Blank.png,0,0,0,266,266,266,,,,,,,,,,,,,167.8312001000013,0.03120010000128559,None,202.10859120000168,202.10859120000168,202.10859120000168,202.10859120000168,202.10859120000168,202.10859120000168,202.10859120000168,202.10859120000168,,001,P009,2025_Feb_01_1332,CategoryLocalizer,2021.2.3,59.95947938459813,
168.0,168.8,4,0.75,Stimuli\ImageFiles-Set1\Scenes\Scenes_009.png,0,0,0,267,267,267,,,,,,,,,,,,,168.01378150000164,0.013781500001641689,None,202.30927900000097,202.30927900000097,202.30927900000097,202.30927900000097,202.30927900000097,202.30927900000097,202.30927900000097,202.30927900000097,,001,P009,2025_Feb_01_1332,CategoryLocalizer,2021.2.3,59.95947938459813,
168.8,169.0,5,0.0,Stimuli\Blank.png,0,0,0,268,268,268,,,,,,,,,,,,,168.83391660000052,0.033916600000509334,None,203.12616250000065,203.12616250000065,203.12616250000065,203.12616250000065,203.12616250000065,203.12616250000065,203.12616250000065,203.12616250000065,,001,P009,2025_Feb_01_1332,CategoryLocalizer,2021.2.3,59.95947938459813,
169.0,169.8,4,0.75,Stimuli\ImageFiles-Set1\Scenes\Scenes_036.png,0,0,0,269,269,269,,,,,,,,,,,,,169.01465250000183,0.014652500001830049,None,203.29296539999996,203.29296539999996,203.29296539999996,203.29296539999996,203.29296539999996,203.29296539999996,203.29296539999996,203.29296539999996,,001,P009,2025_Feb_01_1332,CategoryLocalizer,2021.2.3,59.95947938459813,
169.8,170.0,5,0.0,Stimuli\Blank.png,0,0,0,270,270,270,,,,,,,,,,,,,169.81603090000135,0.016030900001339887,None,204.09368030000041,204.09368030000041,204.09368030000041,204.09368030000041,204.09368030000041,204.09368030000041,204.09368030000041,204.09368030000041,,001,P009,2025_Feb_01_1332,CategoryLocalizer,2021.2.3,59.95947938459813,
170.0,170.8,4,0.75,Stimuli\ImageFiles-Set1\Scenes\Scenes_058.png,0,0,0,271,271,271,,,,,,,,,,,,,169.9988727000018,-0.0011272999981883913,None,204.2771672000017,204.2771672000017,204.2771672000017,204.2771672000017,204.2771672000017,204.2771672000017,204.2771672000017,204.2771672000017,,001,P009,2025_Feb_01_1332,CategoryLocalizer,2021.2.3,59.95947938459813,
170.8,171.0,5,0.0,Stimuli\Blank.png,0,0,0,272,272,272,,,,,,,,,,,,,170.8003086000026,0.000308600002597359,None,205.0789986000018,205.0789986000018,205.0789986000018,205.0789986000018,205.0789986000018,205.0789986000018,205.0789986000018,205.0789986000018,,001,P009,2025_Feb_01_1332,CategoryLocalizer,2021.2.3,59.95947938459813,
171.0,171.8,4,0.75,Stimuli\ImageFiles-Set1\Scenes\Scenes_015.png,0,0,0,273,273,273,,,,,,,,,,,,,170.99973540000065,-0.0002645999993546866,None,205.2780496000014,205.2780496000014,205.2780496000014,205.2780496000014,205.2780496000014,205.2780496000014,205.2780496000014,205.2780496000014,,001,P009,2025_Feb_01_1332,CategoryLocalizer,2021.2.3,59.95947938459813,
171.8,172.0,5,0.0,Stimuli\Blank.png,0,0,0,274,274,274,,,,,,,,,,,,,171.80316250000033,0.0031625000003145942,None,206.09547210000164,206.09547210000164,206.09547210000164,206.09547210000164,206.09547210000164,206.09547210000164,206.09547210000164,206.09547210000164,,001,P009,2025_Feb_01_1332,CategoryLocalizer,2021.2.3,59.95947938459813,
172.0,172.8,4,0.75,Stimuli\ImageFiles-Set1\Scenes\Scenes_001.png,1,1,0,275,275,275,,,,,,,,,,,,,172.01860060000035,0.01860060000035446,None,206.3123028000009,206.3123028000009,206.3123028000009,206.3123028000009,206.3123028000009,206.3123028000009,206.3123028000009,206.3123028000009,,001,P009,2025_Feb_01_1332,CategoryLocalizer,2021.2.3,59.95947938459813,
172.8,173.0,5,0.0,Stimuli\Blank.png,0,0,0,276,276,276,,,,,,,,,,,,,172.82022069999948,0.02022069999947007,None,207.11303780000162,207.11303780000162,207.11303780000162,207.11303780000162,207.11303780000162,207.11303780000162,207.11303780000162,207.11303780000162,,001,P009,2025_Feb_01_1332,CategoryLocalizer,2021.2.3,59.95947938459813,
173.0,173.8,4,0.75,Stimuli\ImageFiles-Set1\Scenes\Scenes_020.png,0,0,0,277,277,277,,,,,,,,,,,,,173.01889930000107,0.018899300001066877,None,207.31318810000084,207.31318810000084,207.31318810000084,207.31318810000084,207.31318810000084,207.31318810000084,207.31318810000084,207.31318810000084,,001,P009,2025_Feb_01_1332,CategoryLocalizer,2021.2.3,59.95947938459813,
173.8,174.0,5,0.0,Stimuli\Blank.png,0,0,0,278,278,278,,,,,,,,,,,,,173.81888450000042,0.018884500000410753,None,208.09721080000236,208.09721080000236,208.09721080000236,208.09721080000236,208.09721080000236,208.09721080000236,208.09721080000236,208.09721080000236,,001,P009,2025_Feb_01_1332,CategoryLocalizer,2021.2.3,59.95947938459813,
174.0,174.8,4,0.75,Stimuli\ImageFiles-Set1\Scenes\Scenes_020.png,0,0,0,279,279,279,,,,,,,,,,,,,174.00375650000205,0.0037565000020549633,1,208.29738220000218,208.29738220000218,208.29738220000218,208.29738220000218,208.29738220000218,208.29738220000218,208.29738220000218,208.29738220000218,0.44174849999762955,001,P009,2025_Feb_01_1332,CategoryLocalizer,2021.2.3,59.95947938459813,
174.8,175.0,5,0.0,Stimuli\Blank.png,0,0,0,280,280,280,,,,,,,,,,,,,174.81994060000216,0.019940600002144038,None,209.09810050000306,209.09810050000306,209.09810050000306,209.09810050000306,209.09810050000306,209.09810050000306,209.09810050000306,209.09810050000306,,001,P009,2025_Feb_01_1332,CategoryLocalizer,2021.2.3,59.95947938459813,
175.0,175.8,4,0.75,Stimuli\ImageFiles-Set1\Scenes\Scenes_060.png,0,0,0,281,281,281,,,,,,,,,,,,,175.00431910000043,0.0043191000004298985,None,209.29827260000093,209.29827260000093,209.29827260000093,209.29827260000093,209.29827260000093,209.29827260000093,209.29827260000093,209.29827260000093,,001,P009,2025_Feb_01_1332,CategoryLocalizer,2021.2.3,59.95947938459813,
175.8,176.0,5,0.0,Stimuli\Blank.png,0,0,0,282,282,282,,,,,,,,,,,,,175.8207919000015,0.02079190000148401,None,210.09897710000223,210.09897710000223,210.09897710000223,210.09897710000223,210.09897710000223,210.09897710000223,210.09897710000223,210.09897710000223,,001,P009,2025_Feb_01_1332,CategoryLocalizer,2021.2.3,59.95947938459813,
176.0,176.8,4,0.75,Stimuli\ImageFiles-Set1\Scenes\Scenes_013.png,0,0,0,283,283,283,,,,,,,,,,,,,176.00521610000214,0.0052161000021442305,None,210.2825279000026,210.2825279000026,210.2825279000026,210.2825279000026,210.2825279000026,210.2825279000026,210.2825279000026,210.2825279000026,,001,P009,2025_Feb_01_1332,CategoryLocalizer,2021.2.3,59.95947938459813,
176.8,177.0,5,0.0,Stimuli\Blank.png,0,0,0,284,284,284,,,,,,,,,,,,,176.8078925000009,0.007892500000878044,None,211.09987290000208,211.09987290000208,211.09987290000208,211.09987290000208,211.09987290000208,211.09987290000208,211.09987290000208,211.09987290000208,,001,P009,2025_Feb_01_1332,CategoryLocalizer,2021.2.3,59.95947938459813,
177.0,177.8,4,0.75,Stimuli\ImageFiles-Set1\Scenes\Scenes_003.png,0,0,0,285,285,285,,,,,,,,,,,,,177.022447000003,0.022447000003012363,None,211.3167635000027,211.3167635000027,211.3167635000027,211.3167635000027,211.3167635000027,211.3167635000027,211.3167635000027,211.3167635000027,,001,P009,2025_Feb_01_1332,CategoryLocalizer,2021.2.3,59.95947938459813,
