eventStartTime,eventEndTime,eventCond,imSize,imFile,repeatedImage,responseEvent,Events.thisRepN,Events.thisTrialN,Events.thisN,Events.thisIndex,Instructions.started,Instructions.stopped,participantReadyResponse.keys,participantReadyResponse.rt,participantReadyResponse.started,participantReadyResponse.stopped,startWaitforTrigger,triggerResponse.keys,triggerResponse.rt,triggerResponse.started,triggerResponse.stopped,globalTimer,actualStartTime,startTimingDiff,participantResponse.keys,participantResponse.started,participantResponse.stopped,image.started,image.stopped,fixationOutside.started,fixationOutside.stopped,fixationInside.started,fixationInside.stopped,participantResponse.rt,session,participant,date,expName,psychopyVersion,frameRate,
,,,,,,,,,,,12.709006300003239,None,1,9.571826400002465,12.709006300003239,None,,,,,,,,,,,,,,,,,,,002,P010,2025_Feb_01_1548,CategoryLocalizer,2021.2.3,59.94150907535615,
,,,,,,,,,,,,,,,,,22.28814070000226,5,13.841518799999903,22.30025100000057,None,,,,,,,,,,,,,,002,P010,2025_Feb_01_1548,CategoryLocalizer,2021.2.3,59.94150907535615,
0.0,12.0,0,0.0,Stimuli\Blank.png,0,0,0,0,0,0,,,,,,,,,,,,36.148790800001734,0.03080720000070869,0.03080720000070869,None,36.19585569999981,None,36.19585569999981,None,36.19585569999981,None,36.19585569999981,None,,002,P010,2025_Feb_01_1548,CategoryLocalizer,2021.2.3,59.94150907535615,
12.0,12.8,1,0.75,Stimuli\ImageFiles-Set2\Objects\Object_Fork_00001.png,0,0,0,1,1,1,,,,,,,,,,,,,12.010924700000032,0.010924700000032317,None,48.189829000002646,48.189829000002646,48.189829000002646,48.189829000002646,48.189829000002646,48.189829000002646,48.189829000002646,48.189829000002646,,002,P010,2025_Feb_01_1548,CategoryLocalizer,2021.2.3,59.94150907535615,
12.8,13.0,5,0.0,Stimuli\Blank.png,0,0,0,2,2,2,,,,,,,,,,,,,12.828726700001425,0.028726700001424632,None,49.00721170000179,49.00721170000179,49.00721170000179,49.00721170000179,49.00721170000179,49.00721170000179,49.00721170000179,49.00721170000179,,002,P010,2025_Feb_01_1548,CategoryLocalizer,2021.2.3,59.94150907535615,
13.0,13.8,1,0.75,Stimuli\ImageFiles-Set2\Objects\Object_Flashlight_00001.png,0,0,0,3,3,3,,,,,,,,,,,,,13.027482199999213,0.027482199999212753,None,49.19068830000106,49.19068830000106,49.19068830000106,49.19068830000106,49.19068830000106,49.19068830000106,49.19068830000106,49.19068830000106,,002,P010,2025_Feb_01_1548,CategoryLocalizer,2021.2.3,59.94150907535615,
13.8,14.0,5,0.0,Stimuli\Blank.png,0,0,0,4,4,4,,,,,,,,,,,,,13.813852600000246,0.013852600000245019,None,49.99140420000185,49.99140420000185,49.99140420000185,49.99140420000185,49.99140420000185,49.99140420000185,49.99140420000185,49.99140420000185,,002,P010,2025_Feb_01_1548,CategoryLocalizer,2021.2.3,59.94150907535615,
14.0,14.8,1,0.75,Stimuli\ImageFiles-Set2\Objects\Object_Switch_00001.png,0,0,0,5,5,5,,,,,,,,,,,,,14.028770699998859,0.028770699998858618,None,50.191568400001415,50.191568400001415,50.191568400001415,50.191568400001415,50.191568400001415,50.191568400001415,50.191568400001415,50.191568400001415,,002,P010,2025_Feb_01_1548,CategoryLocalizer,2021.2.3,59.94150907535615,
14.8,15.0,5,0.0,Stimuli\Blank.png,0,0,0,6,6,6,,,,,,,,,,,,,14.813272999999754,0.013272999999752955,None,50.97560120000344,50.97560120000344,50.97560120000344,50.97560120000344,50.97560120000344,50.97560120000344,50.97560120000344,50.97560120000344,,002,P010,2025_Feb_01_1548,CategoryLocalizer,2021.2.3,59.94150907535615,
15.0,15.8,1,0.75,Stimuli\ImageFiles-Set2\Objects\Object_Button1_00001.png,0,0,0,7,7,7,,,,,,,,,,,,,15.013175899999624,0.013175899999623653,None,51.19244680000338,51.19244680000338,51.19244680000338,51.19244680000338,51.19244680000338,51.19244680000338,51.19244680000338,51.19244680000338,,002,P010,2025_Feb_01_1548,CategoryLocalizer,2021.2.3,59.94150907535615,
15.8,16.0,5,0.0,Stimuli\Blank.png,0,0,0,8,8,8,,,,,,,,,,,,,15.830407900000864,0.030407900000863464,None,51.99316120000003,51.99316120000003,51.99316120000003,51.99316120000003,51.99316120000003,51.99316120000003,51.99316120000003,51.99316120000003,,002,P010,2025_Feb_01_1548,CategoryLocalizer,2021.2.3,59.94150907535615,
16.0,16.8,1,0.75,Stimuli\ImageFiles-Set2\Objects\Object_Barrel_00001.png,0,0,0,9,9,9,,,,,,,,,,,,,16.013167299999623,0.013167299999622628,None,52.19336040000053,52.19336040000053,52.19336040000053,52.19336040000053,52.19336040000053,52.19336040000053,52.19336040000053,52.19336040000053,,002,P010,2025_Feb_01_1548,CategoryLocalizer,2021.2.3,59.94150907535615,
16.8,17.0,5,0.0,Stimuli\Blank.png,0,0,0,10,10,10,,,,,,,,,,,,,16.831001700000343,0.03100170000034197,None,52.99404649999997,52.99404649999997,52.99404649999997,52.99404649999997,52.99404649999997,52.99404649999997,52.99404649999997,52.99404649999997,,002,P010,2025_Feb_01_1548,CategoryLocalizer,2021.2.3,59.94150907535615,
17.0,17.8,1,0.75,Stimuli\ImageFiles-Set2\Objects\Object_Shovel_00001.png,0,0,0,11,11,11,,,,,,,,,,,,,17.01478860000134,0.014788600001338637,None,53.17754640000203,53.17754640000203,53.17754640000203,53.17754640000203,53.17754640000203,53.17754640000203,53.17754640000203,53.17754640000203,,002,P010,2025_Feb_01_1548,CategoryLocalizer,2021.2.3,59.94150907535615,
17.8,18.0,5,0.0,Stimuli\Blank.png,0,0,0,12,12,12,,,,,,,,,,,,,17.814790299999004,0.014790299999003054,None,53.9782535000013,53.9782535000013,53.9782535000013,53.9782535000013,53.9782535000013,53.9782535000013,53.9782535000013,53.9782535000013,,002,P010,2025_Feb_01_1548,CategoryLocalizer,2021.2.3,59.94150907535615,
18.0,18.8,1,0.75,Stimuli\ImageFiles-Set2\Objects\Object_Strawberry_00001.png,0,0,0,13,13,13,,,,,,,,,,,,,18.015109500000108,0.0151095000001078,None,54.17843340000036,54.17843340000036,54.17843340000036,54.17843340000036,54.17843340000036,54.17843340000036,54.17843340000036,54.17843340000036,,002,P010,2025_Feb_01_1548,CategoryLocalizer,2021.2.3,59.94150907535615,
18.8,19.0,5,0.0,Stimuli\Blank.png,0,0,0,14,14,14,,,,,,,,,,,,,18.799048400000174,-0.0009515999998264135,None,54.96246640000027,54.96246640000027,54.96246640000027,54.96246640000027,54.96246640000027,54.96246640000027,54.96246640000027,54.96246640000027,,002,P010,2025_Feb_01_1548,CategoryLocalizer,2021.2.3,59.94150907535615,
19.0,19.8,1,0.75,Stimuli\ImageFiles-Set2\Objects\Object_Strawberry_00001.png,1,1,0,15,15,15,,,,,,,,,,,,,18.999333200001274,-0.0006667999987257645,1,55.179328900001565,55.179328900001565,55.179328900001565,55.179328900001565,55.179328900001565,55.179328900001565,55.179328900001565,55.179328900001565,0.41042899999956717,002,P010,2025_Feb_01_1548,CategoryLocalizer,2021.2.3,59.94150907535615,
19.8,20.0,5,0.0,Stimuli\Blank.png,0,0,0,16,16,16,,,,,,,,,,,,,19.81723630000124,0.017236300001240323,None,55.980075999999826,55.980075999999826,55.980075999999826,55.980075999999826,55.980075999999826,55.980075999999826,55.980075999999826,55.980075999999826,,002,P010,2025_Feb_01_1548,CategoryLocalizer,2021.2.3,59.94150907535615,
20.0,20.8,1,0.75,Stimuli\ImageFiles-Set2\Objects\Object_Scissors_00001.png,0,0,0,17,17,17,,,,,,,,,,,,,20.00043089999963,0.00043089999962830916,None,56.18019390000336,56.18019390000336,56.18019390000336,56.18019390000336,56.18019390000336,56.18019390000336,56.18019390000336,56.18019390000336,,002,P010,2025_Feb_01_1548,CategoryLocalizer,2021.2.3,59.94150907535615,
20.8,21.0,5,0.0,Stimuli\Blank.png,0,0,0,18,18,18,,,,,,,,,,,,,20.81813770000008,0.018137700000078638,None,56.98091150000255,56.98091150000255,56.98091150000255,56.98091150000255,56.98091150000255,56.98091150000255,56.98091150000255,56.98091150000255,,002,P010,2025_Feb_01_1548,CategoryLocalizer,2021.2.3,59.94150907535615,
21.0,21.8,1,0.75,Stimuli\ImageFiles-Set2\Objects\Object_Glass_00001.png,0,0,0,19,19,19,,,,,,,,,,,,,21.00091969999994,0.0009196999999403488,None,57.164470400002756,57.164470400002756,57.164470400002756,57.164470400002756,57.164470400002756,57.164470400002756,57.164470400002756,57.164470400002756,,002,P010,2025_Feb_01_1548,CategoryLocalizer,2021.2.3,59.94150907535615,
21.8,22.0,5,0.0,Stimuli\Blank.png,0,0,0,20,20,20,,,,,,,,,,,,,21.80346080000163,0.003460800001629849,None,57.981822900001134,57.981822900001134,57.981822900001134,57.981822900001134,57.981822900001134,57.981822900001134,57.981822900001134,57.981822900001134,,002,P010,2025_Feb_01_1548,CategoryLocalizer,2021.2.3,59.94150907535615,
22.0,22.8,1,0.75,Stimuli\ImageFiles-Set2\Objects\Object_Shelves_00001.png,0,0,0,21,21,21,,,,,,,,,,,,,22.019011299998965,0.019011299998965114,None,58.18197130000044,58.18197130000044,58.18197130000044,58.18197130000044,58.18197130000044,58.18197130000044,58.18197130000044,58.18197130000044,,002,P010,2025_Feb_01_1548,CategoryLocalizer,2021.2.3,59.94150907535615,
22.8,23.0,5,0.0,Stimuli\Blank.png,0,0,0,22,22,22,,,,,,,,,,,,,22.80311730000176,0.0031173000017581387,None,58.966006700000435,58.966006700000435,58.966006700000435,58.966006700000435,58.966006700000435,58.966006700000435,58.966006700000435,58.966006700000435,,002,P010,2025_Feb_01_1548,CategoryLocalizer,2021.2.3,59.94150907535615,
23.0,23.8,1,0.75,Stimuli\ImageFiles-Set2\Objects\Object_Noodle_00001.png,0,0,0,23,23,23,,,,,,,,,,,,,23.00272219999897,0.002722199998970609,None,59.16617330000008,59.16617330000008,59.16617330000008,59.16617330000008,59.16617330000008,59.16617330000008,59.16617330000008,59.16617330000008,,002,P010,2025_Feb_01_1548,CategoryLocalizer,2021.2.3,59.94150907535615,
23.8,24.0,5,0.0,Stimuli\Blank.png,0,0,0,24,24,24,,,,,,,,,,,,,23.80413419999968,0.004134199999679566,None,59.96699780000199,59.96699780000199,59.96699780000199,59.96699780000199,59.96699780000199,59.96699780000199,59.96699780000199,59.96699780000199,,002,P010,2025_Feb_01_1548,CategoryLocalizer,2021.2.3,59.94150907535615,
24.0,24.8,1,0.75,Stimuli\ImageFiles-Set2\Objects\Object_Dumpster_00001.png,0,0,0,25,25,25,,,,,,,,,,,,,24.00428440000178,0.0042844000017794315,None,60.18374030000268,60.18374030000268,60.18374030000268,60.18374030000268,60.18374030000268,60.18374030000268,60.18374030000268,60.18374030000268,,002,P010,2025_Feb_01_1548,CategoryLocalizer,2021.2.3,59.94150907535615,
24.8,25.0,5,0.0,Stimuli\Blank.png,0,0,0,26,26,26,,,,,,,,,,,,,24.82167499999923,0.02167499999923095,None,60.984459600000264,60.984459600000264,60.984459600000264,60.984459600000264,60.984459600000264,60.984459600000264,60.984459600000264,60.984459600000264,,002,P010,2025_Feb_01_1548,CategoryLocalizer,2021.2.3,59.94150907535615,
25.0,25.8,1,0.75,Stimuli\ImageFiles-Set2\Objects\Object_Microphone_00001.png,0,0,0,27,27,27,,,,,,,,,,,,,25.004562400001305,0.004562400001304923,None,61.168009600001824,61.168009600001824,61.168009600001824,61.168009600001824,61.168009600001824,61.168009600001824,61.168009600001824,61.168009600001824,,002,P010,2025_Feb_01_1548,CategoryLocalizer,2021.2.3,59.94150907535615,
25.8,26.0,5,0.0,Stimuli\Blank.png,0,0,0,28,28,28,,,,,,,,,,,,,25.805820400000812,0.005820400000811077,None,61.968660100003035,61.968660100003035,61.968660100003035,61.968660100003035,61.968660100003035,61.968660100003035,61.968660100003035,61.968660100003035,,002,P010,2025_Feb_01_1548,CategoryLocalizer,2021.2.3,59.94150907535615,
26.0,26.8,1,0.75,Stimuli\ImageFiles-Set2\Objects\Object_Pen_00001.png,0,0,0,29,29,29,,,,,,,,,,,,,26.005317200000718,0.005317200000718003,None,62.18548450000162,62.18548450000162,62.18548450000162,62.18548450000162,62.18548450000162,62.18548450000162,62.18548450000162,62.18548450000162,,002,P010,2025_Feb_01_1548,CategoryLocalizer,2021.2.3,59.94150907535615,
26.8,27.0,5,0.0,Stimuli\Blank.png,0,0,0,30,30,30,,,,,,,,,,,,,26.82367610000074,0.023676100000738387,None,62.986222200001066,62.986222200001066,62.986222200001066,62.986222200001066,62.986222200001066,62.986222200001066,62.986222200001066,62.986222200001066,,002,P010,2025_Feb_01_1548,CategoryLocalizer,2021.2.3,59.94150907535615,
27.0,27.8,1,0.75,Stimuli\ImageFiles-Set2\Objects\Object_Car_00001.png,0,0,0,31,31,31,,,,,,,,,,,,,27.006165499999042,0.0061654999990423676,None,63.169716500000504,63.169716500000504,63.169716500000504,63.169716500000504,63.169716500000504,63.169716500000504,63.169716500000504,63.169716500000504,,002,P010,2025_Feb_01_1548,CategoryLocalizer,2021.2.3,59.94150907535615,
27.8,28.0,5,0.0,Stimuli\Blank.png,0,0,0,32,32,32,,,,,,,,,,,,,27.807571400000597,0.00757140000059664,None,63.97043029999986,63.97043029999986,63.97043029999986,63.97043029999986,63.97043029999986,63.97043029999986,63.97043029999986,63.97043029999986,,002,P010,2025_Feb_01_1548,CategoryLocalizer,2021.2.3,59.94150907535615,
28.0,28.8,2,0.75,Stimuli\ImageFiles-Set2\Bodies\Bodies_SittingChair_00004.png,0,0,0,33,33,33,,,,,,,,,,,,,28.00761710000006,0.007617100000061328,None,64.17059950000112,64.17059950000112,64.17059950000112,64.17059950000112,64.17059950000112,64.17059950000112,64.17059950000112,64.17059950000112,,002,P010,2025_Feb_01_1548,CategoryLocalizer,2021.2.3,59.94150907535615,
28.8,29.0,5,0.0,Stimuli\Blank.png,0,0,0,34,34,34,,,,,,,,,,,,,28.80864400000064,0.008644000000639807,None,64.97131420000005,64.97131420000005,64.97131420000005,64.97131420000005,64.97131420000005,64.97131420000005,64.97131420000005,64.97131420000005,,002,P010,2025_Feb_01_1548,CategoryLocalizer,2021.2.3,59.94150907535615,
29.0,29.8,2,0.75,Stimuli\ImageFiles-Set2\Bodies\Bodies_Jumping_00003.png,0,0,0,35,35,35,,,,,,,,,,,,,29.008994700001494,0.008994700001494493,None,65.18818079999983,65.18818079999983,65.18818079999983,65.18818079999983,65.18818079999983,65.18818079999983,65.18818079999983,65.18818079999983,,002,P010,2025_Feb_01_1548,CategoryLocalizer,2021.2.3,59.94150907535615,
29.8,30.0,5,0.0,Stimuli\Blank.png,0,0,0,36,36,36,,,,,,,,,,,,,29.82601799999975,0.026017999999748298,None,65.98887990000003,65.98887990000003,65.98887990000003,65.98887990000003,65.98887990000003,65.98887990000003,65.98887990000003,65.98887990000003,,002,P010,2025_Feb_01_1548,CategoryLocalizer,2021.2.3,59.94150907535615,
30.0,30.8,2,0.75,Stimuli\ImageFiles-Set2\Bodies\Bodies_Jumping_00003.png,1,1,0,37,37,37,,,,,,,,,,,,,30.00930249999874,0.009302499998739222,1,66.17237840000234,66.17237840000234,66.17237840000234,66.17237840000234,66.17237840000234,66.17237840000234,66.17237840000234,66.17237840000234,0.505664500000421,002,P010,2025_Feb_01_1548,CategoryLocalizer,2021.2.3,59.94150907535615,
30.8,31.0,5,0.0,Stimuli\Blank.png,0,0,0,38,38,38,,,,,,,,,,,,,30.809608700001263,0.00960870000126235,None,66.97307850000288,66.97307850000288,66.97307850000288,66.97307850000288,66.97307850000288,66.97307850000288,66.97307850000288,66.97307850000288,,002,P010,2025_Feb_01_1548,CategoryLocalizer,2021.2.3,59.94150907535615,
31.0,31.8,2,0.75,Stimuli\ImageFiles-Set2\Bodies\Bodies_Hanging_00007.png,0,0,0,39,39,39,,,,,,,,,,,,,31.01036550000208,0.010365500002080807,None,67.17325560000245,67.17325560000245,67.17325560000245,67.17325560000245,67.17325560000245,67.17325560000245,67.17325560000245,67.17325560000245,,002,P010,2025_Feb_01_1548,CategoryLocalizer,2021.2.3,59.94150907535615,
31.8,32.0,5,0.0,Stimuli\Blank.png,0,0,0,40,40,40,,,,,,,,,,,,,31.810408699999243,0.010408699999242543,None,67.9739679000013,67.9739679000013,67.9739679000013,67.9739679000013,67.9739679000013,67.9739679000013,67.9739679000013,67.9739679000013,,002,P010,2025_Feb_01_1548,CategoryLocalizer,2021.2.3,59.94150907535615,
32.0,32.8,2,0.75,Stimuli\ImageFiles-Set2\Bodies\Bodies_Kicking_00001.png,0,0,0,41,41,41,,,,,,,,,,,,,32.01210899999933,0.012108999999327352,None,68.19082620000336,68.19082620000336,68.19082620000336,68.19082620000336,68.19082620000336,68.19082620000336,68.19082620000336,68.19082620000336,,002,P010,2025_Feb_01_1548,CategoryLocalizer,2021.2.3,59.94150907535615,
32.8,33.0,5,0.0,Stimuli\Blank.png,0,0,0,42,42,42,,,,,,,,,,,,,32.82935369999905,0.029353699999049354,None,68.99154890000136,68.99154890000136,68.99154890000136,68.99154890000136,68.99154890000136,68.99154890000136,68.99154890000136,68.99154890000136,,002,P010,2025_Feb_01_1548,CategoryLocalizer,2021.2.3,59.94150907535615,
33.0,33.8,2,0.75,Stimuli\ImageFiles-Set2\Bodies\Bodies_Falling_00005.png,0,0,0,43,43,43,,,,,,,,,,,,,33.013391799999226,0.01339179999922635,None,69.19175580000228,69.19175580000228,69.19175580000228,69.19175580000228,69.19175580000228,69.19175580000228,69.19175580000228,69.19175580000228,,002,P010,2025_Feb_01_1548,CategoryLocalizer,2021.2.3,59.94150907535615,
33.8,34.0,5,0.0,Stimuli\Blank.png,0,0,0,44,44,44,,,,,,,,,,,,,33.829336999999214,0.029336999999216573,None,69.9924196000029,69.9924196000029,69.9924196000029,69.9924196000029,69.9924196000029,69.9924196000029,69.9924196000029,69.9924196000029,,002,P010,2025_Feb_01_1548,CategoryLocalizer,2021.2.3,59.94150907535615,
34.0,34.8,2,0.75,Stimuli\ImageFiles-Set2\Bodies\Bodies_Walking_00005.png,0,0,0,45,45,45,,,,,,,,,,,,,34.01341329999923,0.013413299999228911,None,70.17592630000217,70.17592630000217,70.17592630000217,70.17592630000217,70.17592630000217,70.17592630000217,70.17592630000217,70.17592630000217,,002,P010,2025_Feb_01_1548,CategoryLocalizer,2021.2.3,59.94150907535615,
34.8,35.0,5,0.0,Stimuli\Blank.png,0,0,0,46,46,46,,,,,,,,,,,,,34.81391090000034,0.01391090000034012,None,70.97662740000305,70.97662740000305,70.97662740000305,70.97662740000305,70.97662740000305,70.97662740000305,70.97662740000305,70.97662740000305,,002,P010,2025_Feb_01_1548,CategoryLocalizer,2021.2.3,59.94150907535615,
35.0,35.8,2,0.75,Stimuli\ImageFiles-Set2\Bodies\Bodies_SittingFloor_00001.png,0,0,0,47,47,47,,,,,,,,,,,,,35.01484619999974,0.014846199999738019,None,71.19347350000317,71.19347350000317,71.19347350000317,71.19347350000317,71.19347350000317,71.19347350000317,71.19347350000317,71.19347350000317,,002,P010,2025_Feb_01_1548,CategoryLocalizer,2021.2.3,59.94150907535615,
35.8,36.0,5,0.0,Stimuli\Blank.png,0,0,0,48,48,48,,,,,,,,,,,,,35.83141090000208,0.03141090000208635,None,71.99420530000134,71.99420530000134,71.99420530000134,71.99420530000134,71.99420530000134,71.99420530000134,71.99420530000134,71.99420530000134,,002,P010,2025_Feb_01_1548,CategoryLocalizer,2021.2.3,59.94150907535615,
36.0,36.8,2,0.75,Stimuli\ImageFiles-Set2\Bodies\Bodies_SittingFloor_00004.png,0,0,0,49,49,49,,,,,,,,,,,,,36.01440820000062,0.014408200000616489,None,72.19437010000183,72.19437010000183,72.19437010000183,72.19437010000183,72.19437010000183,72.19437010000183,72.19437010000183,72.19437010000183,,002,P010,2025_Feb_01_1548,CategoryLocalizer,2021.2.3,59.94150907535615,
36.8,37.0,5,0.0,Stimuli\Blank.png,0,0,0,50,50,50,,,,,,,,,,,,,36.83454619999975,0.0345461999997525,None,73.01176560000022,73.01176560000022,73.01176560000022,73.01176560000022,73.01176560000022,73.01176560000022,73.01176560000022,73.01176560000022,,002,P010,2025_Feb_01_1548,CategoryLocalizer,2021.2.3,59.94150907535615,
37.0,37.8,2,0.75,Stimuli\ImageFiles-Set2\Bodies\Bodies_SittingStretch_00001.png,0,0,0,51,51,51,,,,,,,,,,,,,37.01581720000104,0.015817200001038145,None,73.17856590000156,73.17856590000156,73.17856590000156,73.17856590000156,73.17856590000156,73.17856590000156,73.17856590000156,73.17856590000156,,002,P010,2025_Feb_01_1548,CategoryLocalizer,2021.2.3,59.94150907535615,
37.8,38.0,5,0.0,Stimuli\Blank.png,0,0,0,52,52,52,,,,,,,,,,,,,37.799842100001115,-0.00015789999888227157,None,73.96259700000155,73.96259700000155,73.96259700000155,73.96259700000155,73.96259700000155,73.96259700000155,73.96259700000155,73.96259700000155,,002,P010,2025_Feb_01_1548,CategoryLocalizer,2021.2.3,59.94150907535615,
38.0,38.8,2,0.75,Stimuli\ImageFiles-Set2\Bodies\Bodies_Crawling_00002.png,0,0,0,53,53,53,,,,,,,,,,,,,37.99998140000025,-1.8599999748403206e-05,None,74.16273630000069,74.16273630000069,74.16273630000069,74.16273630000069,74.16273630000069,74.16273630000069,74.16273630000069,74.16273630000069,,002,P010,2025_Feb_01_1548,CategoryLocalizer,2021.2.3,59.94150907535615,
38.8,39.0,5,0.0,Stimuli\Blank.png,0,0,0,54,54,54,,,,,,,,,,,,,38.80078779999894,0.0007877999989460704,None,74.96357360000184,74.96357360000184,74.96357360000184,74.96357360000184,74.96357360000184,74.96357360000184,74.96357360000184,74.96357360000184,,002,P010,2025_Feb_01_1548,CategoryLocalizer,2021.2.3,59.94150907535615,
39.0,39.8,2,0.75,Stimuli\ImageFiles-Set2\Bodies\Bodies_Kicking_00006.png,1,1,0,55,55,55,,,,,,,,,,,,,39.000899099999515,0.0008990999995148741,None,75.16375400000106,75.16375400000106,75.16375400000106,75.16375400000106,75.16375400000106,75.16375400000106,75.16375400000106,75.16375400000106,,002,P010,2025_Feb_01_1548,CategoryLocalizer,2021.2.3,59.94150907535615,
39.8,40.0,5,0.0,Stimuli\Blank.png,0,0,0,56,56,56,,,,,,,,,,,,,39.80161450000014,0.0016145000001444032,None,75.96438110000236,75.96438110000236,75.96438110000236,75.96438110000236,75.96438110000236,75.96438110000236,75.96438110000236,75.96438110000236,,002,P010,2025_Feb_01_1548,CategoryLocalizer,2021.2.3,59.94150907535615,
40.0,40.8,2,0.75,Stimuli\ImageFiles-Set2\Bodies\Bodies_Punching_00002.png,0,0,0,57,57,57,,,,,,,,,,,,,40.001712600002065,0.001712600002065301,None,76.18123170000035,76.18123170000035,76.18123170000035,76.18123170000035,76.18123170000035,76.18123170000035,76.18123170000035,76.18123170000035,,002,P010,2025_Feb_01_1548,CategoryLocalizer,2021.2.3,59.94150907535615,
40.8,41.0,5,0.0,Stimuli\Blank.png,0,0,0,58,58,58,,,,,,,,,,,,,40.81910000000062,0.019100000000619843,None,76.98193110000284,76.98193110000284,76.98193110000284,76.98193110000284,76.98193110000284,76.98193110000284,76.98193110000284,76.98193110000284,,002,P010,2025_Feb_01_1548,CategoryLocalizer,2021.2.3,59.94150907535615,
41.0,41.8,2,0.75,Stimuli\ImageFiles-Set2\Bodies\Bodies_Punching_00002.png,0,0,0,59,59,59,,,,,,,,,,,,,41.00365199999942,0.003651999999419786,1,77.1821125000024,77.1821125000024,77.1821125000024,77.1821125000024,77.1821125000024,77.1821125000024,77.1821125000024,77.1821125000024,0.5400704000021506,002,P010,2025_Feb_01_1548,CategoryLocalizer,2021.2.3,59.94150907535615,
41.8,42.0,5,0.0,Stimuli\Blank.png,0,0,0,60,60,60,,,,,,,,,,,,,41.8196280000011,0.01962800000110576,None,77.98303010000018,77.98303010000018,77.98303010000018,77.98303010000018,77.98303010000018,77.98303010000018,77.98303010000018,77.98303010000018,,002,P010,2025_Feb_01_1548,CategoryLocalizer,2021.2.3,59.94150907535615,
42.0,42.8,2,0.75,Stimuli\ImageFiles-Set2\Bodies\Bodies_Waving_00004.png,0,0,0,61,61,61,,,,,,,,,,,,,42.002952599999844,0.0029525999998440966,None,78.16636780000044,78.16636780000044,78.16636780000044,78.16636780000044,78.16636780000044,78.16636780000044,78.16636780000044,78.16636780000044,,002,P010,2025_Feb_01_1548,CategoryLocalizer,2021.2.3,59.94150907535615,
42.8,43.0,5,0.0,Stimuli\Blank.png,0,0,0,62,62,62,,,,,,,,,,,,,42.80418479999935,0.00418479999935073,None,78.9670208000025,78.9670208000025,78.9670208000025,78.9670208000025,78.9670208000025,78.9670208000025,78.9670208000025,78.9670208000025,,002,P010,2025_Feb_01_1548,CategoryLocalizer,2021.2.3,59.94150907535615,
43.0,43.8,2,0.75,Stimuli\ImageFiles-Set2\Bodies\Bodies_Falling_00001.png,0,0,0,63,63,63,,,,,,,,,,,,,43.00379840000096,0.0037984000009601004,None,79.16720310000164,79.16720310000164,79.16720310000164,79.16720310000164,79.16720310000164,79.16720310000164,79.16720310000164,79.16720310000164,,002,P010,2025_Feb_01_1548,CategoryLocalizer,2021.2.3,59.94150907535615,
43.8,44.0,5,0.0,Stimuli\Blank.png,0,0,0,64,64,64,,,,,,,,,,,,,43.804367299999285,0.004367299999287866,None,79.96791320000193,79.96791320000193,79.96791320000193,79.96791320000193,79.96791320000193,79.96791320000193,79.96791320000193,79.96791320000193,,002,P010,2025_Feb_01_1548,CategoryLocalizer,2021.2.3,59.94150907535615,
44.0,44.8,3,0.75,Stimuli\ImageFiles-Set2\Faces\Face_00032.png,0,0,0,65,65,65,,,,,,,,,,,,,44.005269600002066,0.005269600002065999,None,80.16804010000124,80.16804010000124,80.16804010000124,80.16804010000124,80.16804010000124,80.16804010000124,80.16804010000124,80.16804010000124,,002,P010,2025_Feb_01_1548,CategoryLocalizer,2021.2.3,59.94150907535615,
44.8,45.0,5,0.0,Stimuli\Blank.png,0,0,0,66,66,66,,,,,,,,,,,,,44.80804429999989,0.008044299999895088,None,80.98546330000318,80.98546330000318,80.98546330000318,80.98546330000318,80.98546330000318,80.98546330000318,80.98546330000318,80.98546330000318,,002,P010,2025_Feb_01_1548,CategoryLocalizer,2021.2.3,59.94150907535615,
45.0,45.8,3,0.75,Stimuli\ImageFiles-Set2\Faces\Face_00080.png,0,0,0,67,67,67,,,,,,,,,,,,,45.022283700000116,0.02228370000011637,None,81.18569390000266,81.18569390000266,81.18569390000266,81.18569390000266,81.18569390000266,81.18569390000266,81.18569390000266,81.18569390000266,,002,P010,2025_Feb_01_1548,CategoryLocalizer,2021.2.3,59.94150907535615,
45.8,46.0,5,0.0,Stimuli\Blank.png,0,0,0,68,68,68,,,,,,,,,,,,,45.80806909999956,0.008069099999559626,None,81.98639000000185,81.98639000000185,81.98639000000185,81.98639000000185,81.98639000000185,81.98639000000185,81.98639000000185,81.98639000000185,,002,P010,2025_Feb_01_1548,CategoryLocalizer,2021.2.3,59.94150907535615,
46.0,46.8,3,0.75,Stimuli\ImageFiles-Set2\Faces\Face_00002.png,0,0,0,69,69,69,,,,,,,,,,,,,46.0234844000006,0.023484400000597816,None,82.18653930000073,82.18653930000073,82.18653930000073,82.18653930000073,82.18653930000073,82.18653930000073,82.18653930000073,82.18653930000073,,002,P010,2025_Feb_01_1548,CategoryLocalizer,2021.2.3,59.94150907535615,
46.8,47.0,5,0.0,Stimuli\Blank.png,0,0,0,70,70,70,,,,,,,,,,,,,46.8079547999987,0.007954799998699968,None,82.97057050000149,82.97057050000149,82.97057050000149,82.97057050000149,82.97057050000149,82.97057050000149,82.97057050000149,82.97057050000149,,002,P010,2025_Feb_01_1548,CategoryLocalizer,2021.2.3,59.94150907535615,
47.0,47.8,3,0.75,Stimuli\ImageFiles-Set2\Faces\Face_00010.png,0,0,0,71,71,71,,,,,,,,,,,,,47.00776659999974,0.00776659999974072,None,83.18742230000134,83.18742230000134,83.18742230000134,83.18742230000134,83.18742230000134,83.18742230000134,83.18742230000134,83.18742230000134,,002,P010,2025_Feb_01_1548,CategoryLocalizer,2021.2.3,59.94150907535615,
47.8,48.0,5,0.0,Stimuli\Blank.png,0,0,0,72,72,72,,,,,,,,,,,,,47.824572600002284,0.024572600002287004,None,83.98813120000341,83.98813120000341,83.98813120000341,83.98813120000341,83.98813120000341,83.98813120000341,83.98813120000341,83.98813120000341,,002,P010,2025_Feb_01_1548,CategoryLocalizer,2021.2.3,59.94150907535615,
48.0,48.8,3,0.75,Stimuli\ImageFiles-Set2\Faces\Face_00094.png,0,0,0,73,73,73,,,,,,,,,,,,,48.008881500001735,0.008881500001734821,None,84.17162420000022,84.17162420000022,84.17162420000022,84.17162420000022,84.17162420000022,84.17162420000022,84.17162420000022,84.17162420000022,,002,P010,2025_Feb_01_1548,CategoryLocalizer,2021.2.3,59.94150907535615,
48.8,49.0,5,0.0,Stimuli\Blank.png,0,0,0,74,74,74,,,,,,,,,,,,,48.80903070000204,0.00903070000204309,None,84.97233940000297,84.97233940000297,84.97233940000297,84.97233940000297,84.97233940000297,84.97233940000297,84.97233940000297,84.97233940000297,,002,P010,2025_Feb_01_1548,CategoryLocalizer,2021.2.3,59.94150907535615,
49.0,49.8,3,0.75,Stimuli\ImageFiles-Set2\Faces\Face_00094.png,1,1,0,75,75,75,,,,,,,,,,,,,49.0097405000015,0.00974050000149873,1,85.18919290000122,85.18919290000122,85.18919290000122,85.18919290000122,85.18919290000122,85.18919290000122,85.18919290000122,85.18919290000122,0.671882499998901,002,P010,2025_Feb_01_1548,CategoryLocalizer,2021.2.3,59.94150907535615,
49.8,50.0,5,0.0,Stimuli\Blank.png,0,0,0,76,76,76,,,,,,,,,,,,,49.828358700000535,0.028358700000538306,None,86.00659480000104,86.00659480000104,86.00659480000104,86.00659480000104,86.00659480000104,86.00659480000104,86.00659480000104,86.00659480000104,,002,P010,2025_Feb_01_1548,CategoryLocalizer,2021.2.3,59.94150907535615,
50.0,50.8,3,0.75,Stimuli\ImageFiles-Set2\Faces\Face_00098.png,0,0,0,77,77,77,,,,,,,,,,,,,50.02783470000213,0.027834700002131285,None,86.1901405000026,86.1901405000026,86.1901405000026,86.1901405000026,86.1901405000026,86.1901405000026,86.1901405000026,86.1901405000026,,002,P010,2025_Feb_01_1548,CategoryLocalizer,2021.2.3,59.94150907535615,
50.8,51.0,5,0.0,Stimuli\Blank.png,0,0,0,78,78,78,,,,,,,,,,,,,50.81057670000155,0.010576700001550421,None,86.97410720000335,86.97410720000335,86.97410720000335,86.97410720000335,86.97410720000335,86.97410720000335,86.97410720000335,86.97410720000335,,002,P010,2025_Feb_01_1548,CategoryLocalizer,2021.2.3,59.94150907535615,
51.0,51.8,3,0.75,Stimuli\ImageFiles-Set2\Faces\Face_00050.png,0,0,0,79,79,79,,,,,,,,,,,,,51.01079580000078,0.0107958000007784,None,87.1742817000013,87.1742817000013,87.1742817000013,87.1742817000013,87.1742817000013,87.1742817000013,87.1742817000013,87.1742817000013,,002,P010,2025_Feb_01_1548,CategoryLocalizer,2021.2.3,59.94150907535615,
51.8,52.0,5,0.0,Stimuli\Blank.png,0,0,0,80,80,80,,,,,,,,,,,,,51.81263640000179,0.012636400001795778,None,87.97500110000328,87.97500110000328,87.97500110000328,87.97500110000328,87.97500110000328,87.97500110000328,87.97500110000328,87.97500110000328,,002,P010,2025_Feb_01_1548,CategoryLocalizer,2021.2.3,59.94150907535615,
52.0,52.8,3,0.75,Stimuli\ImageFiles-Set2\Faces\Face_00088.png,1,1,0,81,81,81,,,,,,,,,,,,,52.01433199999883,0.014331999998830725,None,88.19186360000094,88.19186360000094,88.19186360000094,88.19186360000094,88.19186360000094,88.19186360000094,88.19186360000094,88.19186360000094,,002,P010,2025_Feb_01_1548,CategoryLocalizer,2021.2.3,59.94150907535615,
52.8,53.0,5,0.0,Stimuli\Blank.png,0,0,0,82,82,82,,,,,,,,,,,,,52.8291633000008,0.02916330000080336,None,88.99256340000284,88.99256340000284,88.99256340000284,88.99256340000284,88.99256340000284,88.99256340000284,88.99256340000284,88.99256340000284,,002,P010,2025_Feb_01_1548,CategoryLocalizer,2021.2.3,59.94150907535615,
53.0,53.8,3,0.75,Stimuli\ImageFiles-Set2\Faces\Face_00021.png,0,0,0,83,83,83,,,,,,,,,,,,,53.01388330000191,0.013883300001907628,None,89.19272520000231,89.19272520000231,89.19272520000231,89.19272520000231,89.19272520000231,89.19272520000231,89.19272520000231,89.19272520000231,,002,P010,2025_Feb_01_1548,CategoryLocalizer,2021.2.3,59.94150907535615,
53.8,54.0,5,0.0,Stimuli\Blank.png,0,0,0,84,84,84,,,,,,,,,,,,,53.83057720000215,0.030577200002156246,None,89.993437000001,89.993437000001,89.993437000001,89.993437000001,89.993437000001,89.993437000001,89.993437000001,89.993437000001,,002,P010,2025_Feb_01_1548,CategoryLocalizer,2021.2.3,59.94150907535615,
54.0,54.8,3,0.75,Stimuli\ImageFiles-Set2\Faces\Face_00021.png,0,0,0,85,85,85,,,,,,,,,,,,,54.01378180000029,0.013781800000288058,1,90.17693700000018,90.17693700000018,90.17693700000018,90.17693700000018,90.17693700000018,90.17693700000018,90.17693700000018,90.17693700000018,0.487818800000241,002,P010,2025_Feb_01_1548,CategoryLocalizer,2021.2.3,59.94150907535615,
54.8,55.0,5,0.0,Stimuli\Blank.png,0,0,0,86,86,86,,,,,,,,,,,,,54.814758900000015,0.014758900000018116,None,90.97765130000334,90.97765130000334,90.97765130000334,90.97765130000334,90.97765130000334,90.97765130000334,90.97765130000334,90.97765130000334,,002,P010,2025_Feb_01_1548,CategoryLocalizer,2021.2.3,59.94150907535615,
55.0,55.8,3,0.75,Stimuli\ImageFiles-Set2\Faces\Face_00038.png,0,0,0,87,87,87,,,,,,,,,,,,,55.01441759999943,0.01441759999943315,None,91.19451610000033,91.19451610000033,91.19451610000033,91.19451610000033,91.19451610000033,91.19451610000033,91.19451610000033,91.19451610000033,,002,P010,2025_Feb_01_1548,CategoryLocalizer,2021.2.3,59.94150907535615,
55.8,56.0,5,0.0,Stimuli\Blank.png,0,0,0,88,88,88,,,,,,,,,,,,,55.83418299999903,0.034182999999032404,None,92.01190520000091,92.01190520000091,92.01190520000091,92.01190520000091,92.01190520000091,92.01190520000091,92.01190520000091,92.01190520000091,,002,P010,2025_Feb_01_1548,CategoryLocalizer,2021.2.3,59.94150907535615,
56.0,56.8,3,0.75,Stimuli\ImageFiles-Set2\Faces\Face_00096.png,0,0,0,89,89,89,,,,,,,,,,,,,56.01526390000072,0.015263900000718422,None,92.17871280000327,92.17871280000327,92.17871280000327,92.17871280000327,92.17871280000327,92.17871280000327,92.17871280000327,92.17871280000327,,002,P010,2025_Feb_01_1548,CategoryLocalizer,2021.2.3,59.94150907535615,
56.8,57.0,5,0.0,Stimuli\Blank.png,0,0,0,90,90,90,,,,,,,,,,,,,56.79935779999869,-0.0006422000013088791,None,92.96274290000292,92.96274290000292,92.96274290000292,92.96274290000292,92.96274290000292,92.96274290000292,92.96274290000292,92.96274290000292,,002,P010,2025_Feb_01_1548,CategoryLocalizer,2021.2.3,59.94150907535615,
57.0,57.8,3,0.75,Stimuli\ImageFiles-Set2\Faces\Face_00082.png,0,0,0,91,91,91,,,,,,,,,,,,,56.99938219999967,-0.0006178000003274065,None,93.17961389999982,93.17961389999982,93.17961389999982,93.17961389999982,93.17961389999982,93.17961389999982,93.17961389999982,93.17961389999982,,002,P010,2025_Feb_01_1548,CategoryLocalizer,2021.2.3,59.94150907535615,
57.8,58.0,5,0.0,Stimuli\Blank.png,0,0,0,92,92,92,,,,,,,,,,,,,57.81924499999877,0.019244999998775825,None,93.99700900000244,93.99700900000244,93.99700900000244,93.99700900000244,93.99700900000244,93.99700900000244,93.99700900000244,93.99700900000244,,002,P010,2025_Feb_01_1548,CategoryLocalizer,2021.2.3,59.94150907535615,
58.0,58.8,3,0.75,Stimuli\ImageFiles-Set2\Faces\Face_00106.png,0,0,0,93,93,93,,,,,,,,,,,,,58.017571399999724,0.017571399999724235,None,94.18048900000213,94.18048900000213,94.18048900000213,94.18048900000213,94.18048900000213,94.18048900000213,94.18048900000213,94.18048900000213,,002,P010,2025_Feb_01_1548,CategoryLocalizer,2021.2.3,59.94150907535615,
58.8,59.0,5,0.0,Stimuli\Blank.png,0,0,0,94,94,94,,,,,,,,,,,,,58.80176080000092,0.0017608000009232683,None,94.96451880000313,94.96451880000313,94.96451880000313,94.96451880000313,94.96451880000313,94.96451880000313,94.96451880000313,94.96451880000313,,002,P010,2025_Feb_01_1548,CategoryLocalizer,2021.2.3,59.94150907535615,
59.0,59.8,3,0.75,Stimuli\ImageFiles-Set2\Faces\Face_00015.png,0,0,0,95,95,95,,,,,,,,,,,,,59.0035953000006,0.00359530000059749,None,95.18136650000088,95.18136650000088,95.18136650000088,95.18136650000088,95.18136650000088,95.18136650000088,95.18136650000088,95.18136650000088,,002,P010,2025_Feb_01_1548,CategoryLocalizer,2021.2.3,59.94150907535615,
59.8,60.0,5,0.0,Stimuli\Blank.png,0,0,0,96,96,96,,,,,,,,,,,,,59.819964999998774,0.01996499999877699,None,95.98255730000164,95.98255730000164,95.98255730000164,95.98255730000164,95.98255730000164,95.98255730000164,95.98255730000164,95.98255730000164,,002,P010,2025_Feb_01_1548,CategoryLocalizer,2021.2.3,59.94150907535615,
60.0,60.8,4,0.75,Stimuli\ImageFiles-Set2\Scenes\Scenes_096.png,0,0,0,97,97,97,,,,,,,,,,,,,60.00287970000136,0.0028797000013582874,None,96.18232020000141,96.18232020000141,96.18232020000141,96.18232020000141,96.18232020000141,96.18232020000141,96.18232020000141,96.18232020000141,,002,P010,2025_Feb_01_1548,CategoryLocalizer,2021.2.3,59.94150907535615,
60.8,61.0,5,0.0,Stimuli\Blank.png,0,0,0,98,98,98,,,,,,,,,,,,,60.819547999999486,0.019547999999488752,None,96.9829626000028,96.9829626000028,96.9829626000028,96.9829626000028,96.9829626000028,96.9829626000028,96.9829626000028,96.9829626000028,,002,P010,2025_Feb_01_1548,CategoryLocalizer,2021.2.3,59.94150907535615,
61.0,61.8,4,0.75,Stimuli\ImageFiles-Set2\Scenes\Scenes_081.png,0,0,0,99,99,99,,,,,,,,,,,,,61.00414770000134,0.004147700001340127,None,97.18313490000219,97.18313490000219,97.18313490000219,97.18313490000219,97.18313490000219,97.18313490000219,97.18313490000219,97.18313490000219,,002,P010,2025_Feb_01_1548,CategoryLocalizer,2021.2.3,59.94150907535615,
61.8,62.0,5,0.0,Stimuli\Blank.png,0,0,0,100,100,100,,,,,,,,,,,,,61.820456500001455,0.020456500001458267,None,97.98384580000129,97.98384580000129,97.98384580000129,97.98384580000129,97.98384580000129,97.98384580000129,97.98384580000129,97.98384580000129,,002,P010,2025_Feb_01_1548,CategoryLocalizer,2021.2.3,59.94150907535615,
62.0,62.8,4,0.75,Stimuli\ImageFiles-Set2\Scenes\Scenes_082.png,0,0,0,101,101,101,,,,,,,,,,,,,62.00390479999987,0.003904799999872921,None,98.18401940000331,98.18401940000331,98.18401940000331,98.18401940000331,98.18401940000331,98.18401940000331,98.18401940000331,98.18401940000331,,002,P010,2025_Feb_01_1548,CategoryLocalizer,2021.2.3,59.94150907535615,
62.8,63.0,5,0.0,Stimuli\Blank.png,0,0,0,102,102,102,,,,,,,,,,,,,62.823151399999915,0.023151399999918,None,99.00145770000017,99.00145770000017,99.00145770000017,99.00145770000017,99.00145770000017,99.00145770000017,99.00145770000017,99.00145770000017,,002,P010,2025_Feb_01_1548,CategoryLocalizer,2021.2.3,59.94150907535615,
63.0,63.8,4,0.75,Stimuli\ImageFiles-Set2\Scenes\Scenes_111.png,0,0,0,103,103,103,,,,,,,,,,,,,63.02333340000041,0.02333340000041062,None,99.20159330000024,99.20159330000024,99.20159330000024,99.20159330000024,99.20159330000024,99.20159330000024,99.20159330000024,99.20159330000024,,002,P010,2025_Feb_01_1548,CategoryLocalizer,2021.2.3,59.94150907535615,
63.8,64.0,5,0.0,Stimuli\Blank.png,0,0,0,104,104,104,,,,,,,,,,,,,63.82265410000036,0.022654100000366384,None,99.98562200000015,99.98562200000015,99.98562200000015,99.98562200000015,99.98562200000015,99.98562200000015,99.98562200000015,99.98562200000015,,002,P010,2025_Feb_01_1548,CategoryLocalizer,2021.2.3,59.94150907535615,
64.0,64.8,4,0.75,Stimuli\ImageFiles-Set2\Scenes\Scenes_064.png,0,0,0,105,105,105,,,,,,,,,,,,,64.00560830000177,0.00560830000176793,None,100.16910840000128,100.16910840000128,100.16910840000128,100.16910840000128,100.16910840000128,100.16910840000128,100.16910840000128,100.16910840000128,,002,P010,2025_Feb_01_1548,CategoryLocalizer,2021.2.3,59.94150907535615,
64.8,65.0,5,0.0,Stimuli\Blank.png,0,0,0,106,106,106,,,,,,,,,,,,,64.80826109999907,0.008261099999074872,None,100.98651430000245,100.98651430000245,100.98651430000245,100.98651430000245,100.98651430000245,100.98651430000245,100.98651430000245,100.98651430000245,,002,P010,2025_Feb_01_1548,CategoryLocalizer,2021.2.3,59.94150907535615,
65.0,65.8,4,0.75,Stimuli\ImageFiles-Set2\Scenes\Scenes_064.png,1,1,0,107,107,107,,,,,,,,,,,,,65.02330470000015,0.02330470000015339,None,101.18667040000219,101.18667040000219,101.18667040000219,101.18667040000219,101.18667040000219,101.18667040000219,101.18667040000219,101.18667040000219,,002,P010,2025_Feb_01_1548,CategoryLocalizer,2021.2.3,59.94150907535615,
65.8,66.0,5,0.0,Stimuli\Blank.png,0,0,0,108,108,108,,,,,,,,,,,,,65.80780719999893,0.007807199998936198,None,101.97071060000235,101.97071060000235,101.97071060000235,101.97071060000235,101.97071060000235,101.97071060000235,101.97071060000235,101.97071060000235,,002,P010,2025_Feb_01_1548,CategoryLocalizer,2021.2.3,59.94150907535615,
66.0,66.8,4,0.75,Stimuli\ImageFiles-Set2\Scenes\Scenes_062.png,0,0,0,109,109,109,,,,,,,,,,,,,66.00818509999954,0.00818509999953676,None,102.17083900000216,102.17083900000216,102.17083900000216,102.17083900000216,102.17083900000216,102.17083900000216,102.17083900000216,102.17083900000216,,002,P010,2025_Feb_01_1548,CategoryLocalizer,2021.2.3,59.94150907535615,
66.8,67.0,5,0.0,Stimuli\Blank.png,0,0,0,110,110,110,,,,,,,,,,,,,66.80864479999946,0.008644799999458996,None,102.97159100000135,102.97159100000135,102.97159100000135,102.97159100000135,102.97159100000135,102.97159100000135,102.97159100000135,102.97159100000135,,002,P010,2025_Feb_01_1548,CategoryLocalizer,2021.2.3,59.94150907535615,
67.0,67.8,4,0.75,Stimuli\ImageFiles-Set2\Scenes\Scenes_101.png,0,0,0,111,111,111,,,,,,,,,,,,,67.00877590000164,0.008775900001637638,None,103.18844150000223,103.18844150000223,103.18844150000223,103.18844150000223,103.18844150000223,103.18844150000223,103.18844150000223,103.18844150000223,,002,P010,2025_Feb_01_1548,CategoryLocalizer,2021.2.3,59.94150907535615,
67.8,68.0,5,0.0,Stimuli\Blank.png,0,0,0,112,112,112,,,,,,,,,,,,,67.82836769999994,0.02836769999994715,None,104.00584540000273,104.00584540000273,104.00584540000273,104.00584540000273,104.00584540000273,104.00584540000273,104.00584540000273,104.00584540000273,,002,P010,2025_Feb_01_1548,CategoryLocalizer,2021.2.3,59.94150907535615,
68.0,68.8,4,0.75,Stimuli\ImageFiles-Set2\Scenes\Scenes_089.png,0,0,0,113,113,113,,,,,,,,,,,,,68.02828650000083,0.028286500000831438,None,104.20602560000043,104.20602560000043,104.20602560000043,104.20602560000043,104.20602560000043,104.20602560000043,104.20602560000043,104.20602560000043,,002,P010,2025_Feb_01_1548,CategoryLocalizer,2021.2.3,59.94150907535615,
68.8,69.0,5,0.0,Stimuli\Blank.png,0,0,0,114,114,114,,,,,,,,,,,,,68.82829670000137,0.028296700001376962,None,105.0067334000014,105.0067334000014,105.0067334000014,105.0067334000014,105.0067334000014,105.0067334000014,105.0067334000014,105.0067334000014,,002,P010,2025_Feb_01_1548,CategoryLocalizer,2021.2.3,59.94150907535615,
69.0,69.8,4,0.75,Stimuli\ImageFiles-Set2\Scenes\Scenes_072.png,0,0,0,115,115,115,,,,,,,,,,,,,69.02956040000208,0.029560400002083043,None,105.20692510000299,105.20692510000299,105.20692510000299,105.20692510000299,105.20692510000299,105.20692510000299,105.20692510000299,105.20692510000299,,002,P010,2025_Feb_01_1548,CategoryLocalizer,2021.2.3,59.94150907535615,
69.8,70.0,5,0.0,Stimuli\Blank.png,0,0,0,116,116,116,,,,,,,,,,,,,69.82805290000033,0.02805290000033267,None,105.99093330000323,105.99093330000323,105.99093330000323,105.99093330000323,105.99093330000323,105.99093330000323,105.99093330000323,105.99093330000323,,002,P010,2025_Feb_01_1548,CategoryLocalizer,2021.2.3,59.94150907535615,
70.0,70.8,4,0.75,Stimuli\ImageFiles-Set2\Scenes\Scenes_077.png,0,0,0,117,117,117,,,,,,,,,,,,,70.01104309999937,0.011043099999369588,None,106.17441800000233,106.17441800000233,106.17441800000233,106.17441800000233,106.17441800000233,106.17441800000233,106.17441800000233,106.17441800000233,,002,P010,2025_Feb_01_1548,CategoryLocalizer,2021.2.3,59.94150907535615,
70.8,71.0,5,0.0,Stimuli\Blank.png,0,0,0,118,118,118,,,,,,,,,,,,,70.81336310000188,0.013363100001882344,None,106.97519530000136,106.97519530000136,106.97519530000136,106.97519530000136,106.97519530000136,106.97519530000136,106.97519530000136,106.97519530000136,,002,P010,2025_Feb_01_1548,CategoryLocalizer,2021.2.3,59.94150907535615,
71.0,71.8,4,0.75,Stimuli\ImageFiles-Set2\Scenes\Scenes_100.png,0,0,0,119,119,119,,,,,,,,,,,,,71.01270160000058,0.012701600000582403,None,107.19199260000096,107.19199260000096,107.19199260000096,107.19199260000096,107.19199260000096,107.19199260000096,107.19199260000096,107.19199260000096,,002,P010,2025_Feb_01_1548,CategoryLocalizer,2021.2.3,59.94150907535615,
71.8,72.0,5,0.0,Stimuli\Blank.png,0,0,0,120,120,120,,,,,,,,,,,,,71.82978780000121,0.02978780000121617,None,107.99269490000006,107.99269490000006,107.99269490000006,107.99269490000006,107.99269490000006,107.99269490000006,107.99269490000006,107.99269490000006,,002,P010,2025_Feb_01_1548,CategoryLocalizer,2021.2.3,59.94150907535615,
72.0,72.8,4,0.75,Stimuli\ImageFiles-Set2\Scenes\Scenes_073.png,1,1,0,121,121,121,,,,,,,,,,,,,72.01303320000079,0.013033200000791112,None,108.19289180000123,108.19289180000123,108.19289180000123,108.19289180000123,108.19289180000123,108.19289180000123,108.19289180000123,108.19289180000123,,002,P010,2025_Feb_01_1548,CategoryLocalizer,2021.2.3,59.94150907535615,
72.8,73.0,5,0.0,Stimuli\Blank.png,0,0,0,122,122,122,,,,,,,,,,,,,72.8307539999987,0.030753999998708537,None,108.99358870000287,108.99358870000287,108.99358870000287,108.99358870000287,108.99358870000287,108.99358870000287,108.99358870000287,108.99358870000287,,002,P010,2025_Feb_01_1548,CategoryLocalizer,2021.2.3,59.94150907535615,
73.0,73.8,4,0.75,Stimuli\ImageFiles-Set2\Scenes\Scenes_065.png,0,0,0,123,123,123,,,,,,,,,,,,,73.01413959999991,0.01413959999990766,None,109.19377220000024,109.19377220000024,109.19377220000024,109.19377220000024,109.19377220000024,109.19377220000024,109.19377220000024,109.19377220000024,,002,P010,2025_Feb_01_1548,CategoryLocalizer,2021.2.3,59.94150907535615,
73.8,74.0,5,0.0,Stimuli\Blank.png,0,0,0,124,124,124,,,,,,,,,,,,,73.83324170000196,0.033241700001966024,None,110.01115240000217,110.01115240000217,110.01115240000217,110.01115240000217,110.01115240000217,110.01115240000217,110.01115240000217,110.01115240000217,,002,P010,2025_Feb_01_1548,CategoryLocalizer,2021.2.3,59.94150907535615,
74.0,74.8,4,0.75,Stimuli\ImageFiles-Set2\Scenes\Scenes_065.png,0,0,0,125,125,125,,,,,,,,,,,,,74.01447370000096,0.014473700000962708,1,110.17796750000343,110.17796750000343,110.17796750000343,110.17796750000343,110.17796750000343,110.17796750000343,110.17796750000343,110.17796750000343,0.385859400001209,002,P010,2025_Feb_01_1548,CategoryLocalizer,2021.2.3,59.94150907535615,
74.8,75.0,5,0.0,Stimuli\Blank.png,0,0,0,126,126,126,,,,,,,,,,,,,74.81529880000016,0.015298800000167034,None,110.9786763000011,110.9786763000011,110.9786763000011,110.9786763000011,110.9786763000011,110.9786763000011,110.9786763000011,110.9786763000011,,002,P010,2025_Feb_01_1548,CategoryLocalizer,2021.2.3,59.94150907535615,
75.0,75.8,4,0.75,Stimuli\ImageFiles-Set2\Scenes\Scenes_117.png,0,0,0,127,127,127,,,,,,,,,,,,,75.01598430000013,0.015984300000127405,None,111.17885680000109,111.17885680000109,111.17885680000109,111.17885680000109,111.17885680000109,111.17885680000109,111.17885680000109,111.17885680000109,,002,P010,2025_Feb_01_1548,CategoryLocalizer,2021.2.3,59.94150907535615,
75.8,76.0,5,0.0,Stimuli\Blank.png,0,0,0,128,128,128,,,,,,,,,,,,,75.7993834000008,-0.0006165999991907256,None,111.96287230000235,111.96287230000235,111.96287230000235,111.96287230000235,111.96287230000235,111.96287230000235,111.96287230000235,111.96287230000235,,002,P010,2025_Feb_01_1548,CategoryLocalizer,2021.2.3,59.94150907535615,
76.0,88.0,0,0.0,Stimuli\Blank.png,0,0,0,129,129,129,,,,,,,,,,,,,76.00016730000061,0.00016730000061215833,None,112.16305190000276,112.16305190000276,112.16305190000276,112.16305190000276,112.16305190000276,112.16305190000276,112.16305190000276,112.16305190000276,,002,P010,2025_Feb_01_1548,CategoryLocalizer,2021.2.3,59.94150907535615,
88.0,88.8,3,0.75,Stimuli\ImageFiles-Set2\Faces\Face_00028.png,0,0,0,130,130,130,,,,,,,,,,,,,88.01085270000112,0.010852700001123594,None,124.17367120000199,124.17367120000199,124.17367120000199,124.17367120000199,124.17367120000199,124.17367120000199,124.17367120000199,124.17367120000199,,002,P010,2025_Feb_01_1548,CategoryLocalizer,2021.2.3,59.94150907535615,
88.8,89.0,5,0.0,Stimuli\Blank.png,0,0,0,131,131,131,,,,,,,,,,,,,88.81156940000074,0.011569400000738028,None,124.97439940000186,124.97439940000186,124.97439940000186,124.97439940000186,124.97439940000186,124.97439940000186,124.97439940000186,124.97439940000186,,002,P010,2025_Feb_01_1548,CategoryLocalizer,2021.2.3,59.94150907535615,
89.0,89.8,3,0.75,Stimuli\ImageFiles-Set2\Faces\Face_00030.png,0,0,0,132,132,132,,,,,,,,,,,,,89.01171840000097,0.011718400000972906,None,125.19129100000282,125.19129100000282,125.19129100000282,125.19129100000282,125.19129100000282,125.19129100000282,125.19129100000282,125.19129100000282,,002,P010,2025_Feb_01_1548,CategoryLocalizer,2021.2.3,59.94150907535615,
89.8,90.0,5,0.0,Stimuli\Blank.png,0,0,0,133,133,133,,,,,,,,,,,,,89.82855650000056,0.02855650000056187,None,125.99194650000209,125.99194650000209,125.99194650000209,125.99194650000209,125.99194650000209,125.99194650000209,125.99194650000209,125.99194650000209,,002,P010,2025_Feb_01_1548,CategoryLocalizer,2021.2.3,59.94150907535615,
90.0,90.8,3,0.75,Stimuli\ImageFiles-Set2\Faces\Face_00120.png,0,0,0,134,134,134,,,,,,,,,,,,,90.01193620000049,0.011936200000491226,None,126.17544530000305,126.17544530000305,126.17544530000305,126.17544530000305,126.17544530000305,126.17544530000305,126.17544530000305,126.17544530000305,,002,P010,2025_Feb_01_1548,CategoryLocalizer,2021.2.3,59.94150907535615,
90.8,91.0,5,0.0,Stimuli\Blank.png,0,0,0,135,135,135,,,,,,,,,,,,,90.81274269999994,0.012742699999947149,None,126.9761268000002,126.9761268000002,126.9761268000002,126.9761268000002,126.9761268000002,126.9761268000002,126.9761268000002,126.9761268000002,,002,P010,2025_Feb_01_1548,CategoryLocalizer,2021.2.3,59.94150907535615,
91.0,91.8,3,0.75,Stimuli\ImageFiles-Set2\Faces\Face_00090.png,0,0,0,136,136,136,,,,,,,,,,,,,91.01317070000005,0.013170700000046054,None,127.19303610000134,127.19303610000134,127.19303610000134,127.19303610000134,127.19303610000134,127.19303610000134,127.19303610000134,127.19303610000134,,002,P010,2025_Feb_01_1548,CategoryLocalizer,2021.2.3,59.94150907535615,
91.8,92.0,5,0.0,Stimuli\Blank.png,0,0,0,137,137,137,,,,,,,,,,,,,91.83035250000103,0.030352500001029625,None,127.99372159999984,127.99372159999984,127.99372159999984,127.99372159999984,127.99372159999984,127.99372159999984,127.99372159999984,127.99372159999984,,002,P010,2025_Feb_01_1548,CategoryLocalizer,2021.2.3,59.94150907535615,
92.0,92.8,3,0.75,Stimuli\ImageFiles-Set2\Faces\Face_00058.png,0,0,0,138,138,138,,,,,,,,,,,,,92.0141266999999,0.014126699999906123,None,128.17721549999987,128.17721549999987,128.17721549999987,128.17721549999987,128.17721549999987,128.17721549999987,128.17721549999987,128.17721549999987,,002,P010,2025_Feb_01_1548,CategoryLocalizer,2021.2.3,59.94150907535615,
92.8,93.0,5,0.0,Stimuli\Blank.png,0,0,0,139,139,139,,,,,,,,,,,,,92.81508830000166,0.015088300001664834,None,128.9779294,128.9779294,128.9779294,128.9779294,128.9779294,128.9779294,128.9779294,128.9779294,,002,P010,2025_Feb_01_1548,CategoryLocalizer,2021.2.3,59.94150907535615,
93.0,93.8,3,0.75,Stimuli\ImageFiles-Set2\Faces\Face_00058.png,1,1,0,140,140,140,,,,,,,,,,,,,93.0154008999998,0.015400899999804096,1,129.17809770000167,129.17809770000167,129.17809770000167,129.17809770000167,129.17809770000167,129.17809770000167,129.17809770000167,129.17809770000167,0.3836760000012873,002,P010,2025_Feb_01_1548,CategoryLocalizer,2021.2.3,59.94150907535615,
93.8,94.0,5,0.0,Stimuli\Blank.png,0,0,0,141,141,141,,,,,,,,,,,,,93.7999192999996,-8.070000039595016e-05,None,129.9621345000014,129.9621345000014,129.9621345000014,129.9621345000014,129.9621345000014,129.9621345000014,129.9621345000014,129.9621345000014,,002,P010,2025_Feb_01_1548,CategoryLocalizer,2021.2.3,59.94150907535615,
94.0,94.8,3,0.75,Stimuli\ImageFiles-Set2\Faces\Face_00118.png,0,0,0,142,142,142,,,,,,,,,,,,,93.99937890000001,-0.0006210999999893829,None,130.17898340000102,130.17898340000102,130.17898340000102,130.17898340000102,130.17898340000102,130.17898340000102,130.17898340000102,130.17898340000102,,002,P010,2025_Feb_01_1548,CategoryLocalizer,2021.2.3,59.94150907535615,
94.8,95.0,5,0.0,Stimuli\Blank.png,0,0,0,143,143,143,,,,,,,,,,,,,94.81615990000137,0.016159900001369465,None,130.97976560000097,130.97976560000097,130.97976560000097,130.97976560000097,130.97976560000097,130.97976560000097,130.97976560000097,130.97976560000097,,002,P010,2025_Feb_01_1548,CategoryLocalizer,2021.2.3,59.94150907535615,
95.0,95.8,3,0.75,Stimuli\ImageFiles-Set2\Faces\Face_00048.png,0,0,0,144,144,144,,,,,,,,,,,,,95.00036700000055,0.00036700000055134296,None,131.17988850000256,131.17988850000256,131.17988850000256,131.17988850000256,131.17988850000256,131.17988850000256,131.17988850000256,131.17988850000256,,002,P010,2025_Feb_01_1548,CategoryLocalizer,2021.2.3,59.94150907535615,
95.8,96.0,5,0.0,Stimuli\Blank.png,0,0,0,145,145,145,,,,,,,,,,,,,95.817922000002,0.017922000002002392,None,131.9805833999999,131.9805833999999,131.9805833999999,131.9805833999999,131.9805833999999,131.9805833999999,131.9805833999999,131.9805833999999,,002,P010,2025_Feb_01_1548,CategoryLocalizer,2021.2.3,59.94150907535615,
96.0,96.8,3,0.75,Stimuli\ImageFiles-Set2\Faces\Face_00092.png,0,0,0,146,146,146,,,,,,,,,,,,,96.0004923000015,0.0004923000014969148,None,132.1807734000031,132.1807734000031,132.1807734000031,132.1807734000031,132.1807734000031,132.1807734000031,132.1807734000031,132.1807734000031,,002,P010,2025_Feb_01_1548,CategoryLocalizer,2021.2.3,59.94150907535615,
96.8,97.0,5,0.0,Stimuli\Blank.png,0,0,0,147,147,147,,,,,,,,,,,,,96.81883229999949,0.0188322999994881,None,132.98147190000236,132.98147190000236,132.98147190000236,132.98147190000236,132.98147190000236,132.98147190000236,132.98147190000236,132.98147190000236,,002,P010,2025_Feb_01_1548,CategoryLocalizer,2021.2.3,59.94150907535615,
97.0,97.8,3,0.75,Stimuli\ImageFiles-Set2\Faces\Face_00008.png,0,0,0,148,148,148,,,,,,,,,,,,,97.0033016999987,0.003301699998701224,None,133.18161750000218,133.18161750000218,133.18161750000218,133.18161750000218,133.18161750000218,133.18161750000218,133.18161750000218,133.18161750000218,,002,P010,2025_Feb_01_1548,CategoryLocalizer,2021.2.3,59.94150907535615,
97.8,98.0,5,0.0,Stimuli\Blank.png,0,0,0,149,149,149,,,,,,,,,,,,,97.81894590000229,0.01894590000229357,None,133.9823569,133.9823569,133.9823569,133.9823569,133.9823569,133.9823569,133.9823569,133.9823569,,002,P010,2025_Feb_01_1548,CategoryLocalizer,2021.2.3,59.94150907535615,
98.0,98.8,3,0.75,Stimuli\ImageFiles-Set2\Faces\Face_00060.png,0,0,0,150,150,150,,,,,,,,,,,,,98.00302469999951,0.0030246999995142687,None,134.18249780000042,134.18249780000042,134.18249780000042,134.18249780000042,134.18249780000042,134.18249780000042,134.18249780000042,134.18249780000042,,002,P010,2025_Feb_01_1548,CategoryLocalizer,2021.2.3,59.94150907535615,
98.8,99.0,5,0.0,Stimuli\Blank.png,0,0,0,151,151,151,,,,,,,,,,,,,98.82059949999893,0.020599499998937176,None,134.98323920000257,134.98323920000257,134.98323920000257,134.98323920000257,134.98323920000257,134.98323920000257,134.98323920000257,134.98323920000257,,002,P010,2025_Feb_01_1548,CategoryLocalizer,2021.2.3,59.94150907535615,
99.0,99.8,3,0.75,Stimuli\ImageFiles-Set2\Faces\Face_00004.png,0,0,0,152,152,152,,,,,,,,,,,,,99.00441470000078,0.004414700000779703,None,135.1834093000034,135.1834093000034,135.1834093000034,135.1834093000034,135.1834093000034,135.1834093000034,135.1834093000034,135.1834093000034,,002,P010,2025_Feb_01_1548,CategoryLocalizer,2021.2.3,59.94150907535615,
99.8,100.0,5,0.0,Stimuli\Blank.png,0,0,0,153,153,153,,,,,,,,,,,,,99.82058049999978,0.020580499999780955,None,135.9841183000026,135.9841183000026,135.9841183000026,135.9841183000026,135.9841183000026,135.9841183000026,135.9841183000026,135.9841183000026,,002,P010,2025_Feb_01_1548,CategoryLocalizer,2021.2.3,59.94150907535615,
100.0,100.8,3,0.75,Stimuli\ImageFiles-Set2\Faces\Face_00013.png,0,0,0,154,154,154,,,,,,,,,,,,,100.00448490000053,0.004484900000534253,None,136.16760280000017,136.16760280000017,136.16760280000017,136.16760280000017,136.16760280000017,136.16760280000017,136.16760280000017,136.16760280000017,,002,P010,2025_Feb_01_1548,CategoryLocalizer,2021.2.3,59.94150907535615,
100.8,101.0,5,0.0,Stimuli\Blank.png,0,0,0,155,155,155,,,,,,,,,,,,,100.80562869999994,0.005628699999945752,None,136.9683361000025,136.9683361000025,136.9683361000025,136.9683361000025,136.9683361000025,136.9683361000025,136.9683361000025,136.9683361000025,,002,P010,2025_Feb_01_1548,CategoryLocalizer,2021.2.3,59.94150907535615,
101.0,101.8,3,0.75,Stimuli\ImageFiles-Set2\Faces\Face_00023.png,0,0,0,156,156,156,,,,,,,,,,,,,101.005774199999,0.005774199998995755,None,137.1685021000012,137.1685021000012,137.1685021000012,137.1685021000012,137.1685021000012,137.1685021000012,137.1685021000012,137.1685021000012,,002,P010,2025_Feb_01_1548,CategoryLocalizer,2021.2.3,59.94150907535615,
101.8,102.0,5,0.0,Stimuli\Blank.png,0,0,0,157,157,157,,,,,,,,,,,,,101.80668190000142,0.006681900001424879,None,137.96922460000133,137.96922460000133,137.96922460000133,137.96922460000133,137.96922460000133,137.96922460000133,137.96922460000133,137.96922460000133,,002,P010,2025_Feb_01_1548,CategoryLocalizer,2021.2.3,59.94150907535615,
102.0,102.8,3,0.75,Stimuli\ImageFiles-Set2\Faces\Face_00072.png,0,0,0,158,158,158,,,,,,,,,,,,,102.00671430000148,0.0067143000014766585,None,138.16938550000123,138.16938550000123,138.16938550000123,138.16938550000123,138.16938550000123,138.16938550000123,138.16938550000123,138.16938550000123,,002,P010,2025_Feb_01_1548,CategoryLocalizer,2021.2.3,59.94150907535615,
102.8,103.0,5,0.0,Stimuli\Blank.png,0,0,0,159,159,159,,,,,,,,,,,,,102.80866030000107,0.008660300001068322,None,138.98685060000207,138.98685060000207,138.98685060000207,138.98685060000207,138.98685060000207,138.98685060000207,138.98685060000207,138.98685060000207,,002,P010,2025_Feb_01_1548,CategoryLocalizer,2021.2.3,59.94150907535615,
103.0,103.8,3,0.75,Stimuli\ImageFiles-Set2\Faces\Face_00019.png,0,0,0,160,160,160,,,,,,,,,,,,,103.023984200001,0.02398420000099577,None,139.2036318999999,139.2036318999999,139.2036318999999,139.2036318999999,139.2036318999999,139.2036318999999,139.2036318999999,139.2036318999999,,002,P010,2025_Feb_01_1548,CategoryLocalizer,2021.2.3,59.94150907535615,
103.8,104.0,5,0.0,Stimuli\Blank.png,0,0,0,161,161,161,,,,,,,,,,,,,103.82424170000013,0.024241700000132482,None,139.98766299999988,139.98766299999988,139.98766299999988,139.98766299999988,139.98766299999988,139.98766299999988,139.98766299999988,139.98766299999988,,002,P010,2025_Feb_01_1548,CategoryLocalizer,2021.2.3,59.94150907535615,
104.0,104.8,1,0.75,Stimuli\ImageFiles-Set2\Objects\Object_Couch_00001.png,0,0,0,162,162,162,,,,,,,,,,,,,104.00768489999973,0.0076848999997309875,None,140.17115530000228,140.17115530000228,140.17115530000228,140.17115530000228,140.17115530000228,140.17115530000228,140.17115530000228,140.17115530000228,,002,P010,2025_Feb_01_1548,CategoryLocalizer,2021.2.3,59.94150907535615,
104.8,105.0,5,0.0,Stimuli\Blank.png,0,0,0,163,163,163,,,,,,,,,,,,,104.80903599999874,0.00903599999874416,None,140.9718728000007,140.9718728000007,140.9718728000007,140.9718728000007,140.9718728000007,140.9718728000007,140.9718728000007,140.9718728000007,,002,P010,2025_Feb_01_1548,CategoryLocalizer,2021.2.3,59.94150907535615,
105.0,105.8,1,0.75,Stimuli\ImageFiles-Set2\Objects\Object_Couch_00001.png,1,1,0,164,164,164,,,,,,,,,,,,,105.00942940000095,0.009429400000954047,1,141.17204160000256,141.17204160000256,141.17204160000256,141.17204160000256,141.17204160000256,141.17204160000256,141.17204160000256,141.17204160000256,0.3508886999989045,002,P010,2025_Feb_01_1548,CategoryLocalizer,2021.2.3,59.94150907535615,
105.8,106.0,5,0.0,Stimuli\Blank.png,0,0,0,165,165,165,,,,,,,,,,,,,105.80934709999929,0.009347099999288844,None,141.97275830000217,141.97275830000217,141.97275830000217,141.97275830000217,141.97275830000217,141.97275830000217,141.97275830000217,141.97275830000217,,002,P010,2025_Feb_01_1548,CategoryLocalizer,2021.2.3,59.94150907535615,
106.0,106.8,1,0.75,Stimuli\ImageFiles-Set2\Objects\Object_Refrigerator_00001.png,0,0,0,166,166,166,,,,,,,,,,,,,106.00942690000011,0.009426900000107707,None,142.17292369999996,142.17292369999996,142.17292369999996,142.17292369999996,142.17292369999996,142.17292369999996,142.17292369999996,142.17292369999996,,002,P010,2025_Feb_01_1548,CategoryLocalizer,2021.2.3,59.94150907535615,
106.8,107.0,5,0.0,Stimuli\Blank.png,0,0,0,167,167,167,,,,,,,,,,,,,106.81029200000194,0.010292000001939527,None,142.97363560000304,142.97363560000304,142.97363560000304,142.97363560000304,142.97363560000304,142.97363560000304,142.97363560000304,142.97363560000304,,002,P010,2025_Feb_01_1548,CategoryLocalizer,2021.2.3,59.94150907535615,
107.0,107.8,1,0.75,Stimuli\ImageFiles-Set2\Objects\Object_Boot_00001.png,0,0,0,168,168,168,,,,,,,,,,,,,107.01105359999929,0.011053599999286234,None,143.17380980000235,143.17380980000235,143.17380980000235,143.17380980000235,143.17380980000235,143.17380980000235,143.17380980000235,143.17380980000235,,002,P010,2025_Feb_01_1548,CategoryLocalizer,2021.2.3,59.94150907535615,
107.8,108.0,5,0.0,Stimuli\Blank.png,0,0,0,169,169,169,,,,,,,,,,,,,107.8109781000021,0.010978100002105862,None,143.9745186,143.9745186,143.9745186,143.9745186,143.9745186,143.9745186,143.9745186,143.9745186,,002,P010,2025_Feb_01_1548,CategoryLocalizer,2021.2.3,59.94150907535615,
108.0,108.8,1,0.75,Stimuli\ImageFiles-Set2\Objects\Object_Razor_00001.png,0,0,0,170,170,170,,,,,,,,,,,,,108.01219960000162,0.012199600001622457,None,144.17470420000245,144.17470420000245,144.17470420000245,144.17470420000245,144.17470420000245,144.17470420000245,144.17470420000245,144.17470420000245,,002,P010,2025_Feb_01_1548,CategoryLocalizer,2021.2.3,59.94150907535615,
108.8,109.0,5,0.0,Stimuli\Blank.png,0,0,0,171,171,171,,,,,,,,,,,,,108.81230140000116,0.012301400001163643,None,144.97540710000249,144.97540710000249,144.97540710000249,144.97540710000249,144.97540710000249,144.97540710000249,144.97540710000249,144.97540710000249,,002,P010,2025_Feb_01_1548,CategoryLocalizer,2021.2.3,59.94150907535615,
109.0,109.8,1,0.75,Stimuli\ImageFiles-Set2\Objects\Object_Truck_00001.png,0,0,0,172,172,172,,,,,,,,,,,,,109.01203840000016,0.012038400000164984,None,145.17558850000205,145.17558850000205,145.17558850000205,145.17558850000205,145.17558850000205,145.17558850000205,145.17558850000205,145.17558850000205,,002,P010,2025_Feb_01_1548,CategoryLocalizer,2021.2.3,59.94150907535615,
109.8,110.0,5,0.0,Stimuli\Blank.png,0,0,0,173,173,173,,,,,,,,,,,,,109.81339310000112,0.01339310000112448,None,145.97629460000098,145.97629460000098,145.97629460000098,145.97629460000098,145.97629460000098,145.97629460000098,145.97629460000098,145.97629460000098,,002,P010,2025_Feb_01_1548,CategoryLocalizer,2021.2.3,59.94150907535615,
110.0,110.8,1,0.75,Stimuli\ImageFiles-Set2\Objects\Object_Belt_00001.png,0,0,0,174,174,174,,,,,,,,,,,,,110.01293440000154,0.01293440000154078,None,146.17647090000173,146.17647090000173,146.17647090000173,146.17647090000173,146.17647090000173,146.17647090000173,146.17647090000173,146.17647090000173,,002,P010,2025_Feb_01_1548,CategoryLocalizer,2021.2.3,59.94150907535615,
110.8,111.0,5,0.0,Stimuli\Blank.png,0,0,0,175,175,175,,,,,,,,,,,,,110.81422400000156,0.014224000001561876,None,146.9771733000016,146.9771733000016,146.9771733000016,146.9771733000016,146.9771733000016,146.9771733000016,146.9771733000016,146.9771733000016,,002,P010,2025_Feb_01_1548,CategoryLocalizer,2021.2.3,59.94150907535615,
111.0,111.8,1,0.75,Stimuli\ImageFiles-Set2\Objects\Object_Sandal_00001.png,0,0,0,176,176,176,,,,,,,,,,,,,111.0138575000019,0.013857500001904555,None,147.17735450000328,147.17735450000328,147.17735450000328,147.17735450000328,147.17735450000328,147.17735450000328,147.17735450000328,147.17735450000328,,002,P010,2025_Feb_01_1548,CategoryLocalizer,2021.2.3,59.94150907535615,
111.8,112.0,5,0.0,Stimuli\Blank.png,0,0,0,177,177,177,,,,,,,,,,,,,111.81465870000102,0.01465870000102143,None,147.97806070000297,147.97806070000297,147.97806070000297,147.97806070000297,147.97806070000297,147.97806070000297,147.97806070000297,147.97806070000297,,002,P010,2025_Feb_01_1548,CategoryLocalizer,2021.2.3,59.94150907535615,
112.0,112.8,1,0.75,Stimuli\ImageFiles-Set2\Objects\Object_Keyboard_00001.png,0,0,0,178,178,178,,,,,,,,,,,,,112.01472940000167,0.014729400001670001,None,148.1782407999999,148.1782407999999,148.1782407999999,148.1782407999999,148.1782407999999,148.1782407999999,148.1782407999999,148.1782407999999,,002,P010,2025_Feb_01_1548,CategoryLocalizer,2021.2.3,59.94150907535615,
112.8,113.0,5,0.0,Stimuli\Blank.png,0,0,0,179,179,179,,,,,,,,,,,,,112.81572600000072,0.01572600000072555,None,148.97894860000088,148.97894860000088,148.97894860000088,148.97894860000088,148.97894860000088,148.97894860000088,148.97894860000088,148.97894860000088,,002,P010,2025_Feb_01_1548,CategoryLocalizer,2021.2.3,59.94150907535615,
113.0,113.8,1,0.75,Stimuli\ImageFiles-Set2\Objects\Object_Brick_00001.png,0,0,0,180,180,180,,,,,,,,,,,,,112.99987060000058,-0.00012939999942318536,None,149.16241770000124,149.16241770000124,149.16241770000124,149.16241770000124,149.16241770000124,149.16241770000124,149.16241770000124,149.16241770000124,,002,P010,2025_Feb_01_1548,CategoryLocalizer,2021.2.3,59.94150907535615,
113.8,114.0,5,0.0,Stimuli\Blank.png,0,0,0,181,181,181,,,,,,,,,,,,,113.80030729999999,0.00030729999998868607,None,149.96315570000297,149.96315570000297,149.96315570000297,149.96315570000297,149.96315570000297,149.96315570000297,149.96315570000297,149.96315570000297,,002,P010,2025_Feb_01_1548,CategoryLocalizer,2021.2.3,59.94150907535615,
114.0,114.8,1,0.75,Stimuli\ImageFiles-Set2\Objects\Object_Tape_00001.png,1,1,0,182,182,182,,,,,,,,,,,,,114.00072240000009,0.0007224000000860542,None,150.18000350000148,150.18000350000148,150.18000350000148,150.18000350000148,150.18000350000148,150.18000350000148,150.18000350000148,150.18000350000148,,002,P010,2025_Feb_01_1548,CategoryLocalizer,2021.2.3,59.94150907535615,
114.8,115.0,5,0.0,Stimuli\Blank.png,0,0,0,183,183,183,,,,,,,,,,,,,114.81781290000072,0.017812900000720333,None,150.9807191,150.9807191,150.9807191,150.9807191,150.9807191,150.9807191,150.9807191,150.9807191,,002,P010,2025_Feb_01_1548,CategoryLocalizer,2021.2.3,59.94150907535615,
115.0,115.8,1,0.75,Stimuli\ImageFiles-Set2\Objects\Object_WaterCooler_00001.png,0,0,0,184,184,184,,,,,,,,,,,,,115.00313660000029,0.003136600000289036,None,151.1809030000004,151.1809030000004,151.1809030000004,151.1809030000004,151.1809030000004,151.1809030000004,151.1809030000004,151.1809030000004,,002,P010,2025_Feb_01_1548,CategoryLocalizer,2021.2.3,59.94150907535615,
115.8,116.0,5,0.0,Stimuli\Blank.png,0,0,0,185,185,185,,,,,,,,,,,,,115.81904679999934,0.019046799999344444,None,151.98160590000043,151.98160590000043,151.98160590000043,151.98160590000043,151.98160590000043,151.98160590000043,151.98160590000043,151.98160590000043,,002,P010,2025_Feb_01_1548,CategoryLocalizer,2021.2.3,59.94150907535615,
116.0,116.8,1,0.75,Stimuli\ImageFiles-Set2\Objects\Object_WaterCooler_00001.png,0,0,0,186,186,186,,,,,,,,,,,,,116.00366320000103,0.0036632000010285992,1,152.18179900000177,152.18179900000177,152.18179900000177,152.18179900000177,152.18179900000177,152.18179900000177,152.18179900000177,152.18179900000177,0.3390197000007902,002,P010,2025_Feb_01_1548,CategoryLocalizer,2021.2.3,59.94150907535615,
116.8,117.0,5,0.0,Stimuli\Blank.png,0,0,0,187,187,187,,,,,,,,,,,,,116.81924020000224,0.019240200002244023,None,152.98245940000197,152.98245940000197,152.98245940000197,152.98245940000197,152.98245940000197,152.98245940000197,152.98245940000197,152.98245940000197,,002,P010,2025_Feb_01_1548,CategoryLocalizer,2021.2.3,59.94150907535615,
117.0,117.8,1,0.75,Stimuli\ImageFiles-Set2\Objects\Object_Coffee_00001.png,0,0,0,188,188,188,,,,,,,,,,,,,117.00315330000012,0.003153300000121817,None,153.1659858000021,153.1659858000021,153.1659858000021,153.1659858000021,153.1659858000021,153.1659858000021,153.1659858000021,153.1659858000021,,002,P010,2025_Feb_01_1548,CategoryLocalizer,2021.2.3,59.94150907535615,
117.8,118.0,5,0.0,Stimuli\Blank.png,0,0,0,189,189,189,,,,,,,,,,,,,117.80438539999886,0.004385399998867001,None,153.9667014000006,153.9667014000006,153.9667014000006,153.9667014000006,153.9667014000006,153.9667014000006,153.9667014000006,153.9667014000006,,002,P010,2025_Feb_01_1548,CategoryLocalizer,2021.2.3,59.94150907535615,
118.0,118.8,1,0.75,Stimuli\ImageFiles-Set2\Objects\Object_Desk_00001.png,0,0,0,190,190,190,,,,,,,,,,,,,118.00462229999903,0.004622299999027746,None,154.18357330000072,154.18357330000072,154.18357330000072,154.18357330000072,154.18357330000072,154.18357330000072,154.18357330000072,154.18357330000072,,002,P010,2025_Feb_01_1548,CategoryLocalizer,2021.2.3,59.94150907535615,
118.8,119.0,5,0.0,Stimuli\Blank.png,0,0,0,191,191,191,,,,,,,,,,,,,118.82145690000107,0.021456900001069812,None,154.98427500000253,154.98427500000253,154.98427500000253,154.98427500000253,154.98427500000253,154.98427500000253,154.98427500000253,154.98427500000253,,002,P010,2025_Feb_01_1548,CategoryLocalizer,2021.2.3,59.94150907535615,
119.0,119.8,1,0.75,Stimuli\ImageFiles-Set2\Objects\Object_Hamburger_00001.png,0,0,0,192,192,192,,,,,,,,,,,,,119.00420899999881,0.004208999998809304,None,155.16775250000137,155.16775250000137,155.16775250000137,155.16775250000137,155.16775250000137,155.16775250000137,155.16775250000137,155.16775250000137,,002,P010,2025_Feb_01_1548,CategoryLocalizer,2021.2.3,59.94150907535615,
119.8,120.0,5,0.0,Stimuli\Blank.png,0,0,0,193,193,193,,,,,,,,,,,,,119.80545030000212,0.005450300002124209,None,155.9684718000026,155.9684718000026,155.9684718000026,155.9684718000026,155.9684718000026,155.9684718000026,155.9684718000026,155.9684718000026,,002,P010,2025_Feb_01_1548,CategoryLocalizer,2021.2.3,59.94150907535615,
120.0,120.8,4,0.75,Stimuli\ImageFiles-Set2\Scenes\Scenes_071.png,0,0,0,194,194,194,,,,,,,,,,,,,120.00567810000211,0.005678100002114661,None,156.18531950000033,156.18531950000033,156.18531950000033,156.18531950000033,156.18531950000033,156.18531950000033,156.18531950000033,156.18531950000033,,002,P010,2025_Feb_01_1548,CategoryLocalizer,2021.2.3,59.94150907535615,
120.8,121.0,5,0.0,Stimuli\Blank.png,0,0,0,195,195,195,,,,,,,,,,,,,120.82322800000111,0.02322800000111158,None,156.98604180000257,156.98604180000257,156.98604180000257,156.98604180000257,156.98604180000257,156.98604180000257,156.98604180000257,156.98604180000257,,002,P010,2025_Feb_01_1548,CategoryLocalizer,2021.2.3,59.94150907535615,
121.0,121.8,4,0.75,Stimuli\ImageFiles-Set2\Scenes\Scenes_083.png,0,0,0,196,196,196,,,,,,,,,,,,,121.00879569999961,0.008795699999609496,None,157.18621610000264,157.18621610000264,157.18621610000264,157.18621610000264,157.18621610000264,157.18621610000264,157.18621610000264,157.18621610000264,,002,P010,2025_Feb_01_1548,CategoryLocalizer,2021.2.3,59.94150907535615,
121.8,122.0,5,0.0,Stimuli\Blank.png,0,0,0,197,197,197,,,,,,,,,,,,,121.82407160000002,0.024071600000027615,None,157.9869187000004,157.9869187000004,157.9869187000004,157.9869187000004,157.9869187000004,157.9869187000004,157.9869187000004,157.9869187000004,,002,P010,2025_Feb_01_1548,CategoryLocalizer,2021.2.3,59.94150907535615,
122.0,122.8,4,0.75,Stimuli\ImageFiles-Set2\Scenes\Scenes_116.png,0,0,0,198,198,198,,,,,,,,,,,,,122.00938560000213,0.009385600002133287,None,158.18710640000063,158.18710640000063,158.18710640000063,158.18710640000063,158.18710640000063,158.18710640000063,158.18710640000063,158.18710640000063,,002,P010,2025_Feb_01_1548,CategoryLocalizer,2021.2.3,59.94150907535615,
122.8,123.0,5,0.0,Stimuli\Blank.png,0,0,0,199,199,199,,,,,,,,,,,,,122.82438900000125,0.024389000001249883,None,158.98780150000312,158.98780150000312,158.98780150000312,158.98780150000312,158.98780150000312,158.98780150000312,158.98780150000312,158.98780150000312,,002,P010,2025_Feb_01_1548,CategoryLocalizer,2021.2.3,59.94150907535615,
123.0,123.8,4,0.75,Stimuli\ImageFiles-Set2\Scenes\Scenes_069.png,0,0,0,200,200,200,,,,,,,,,,,,,123.00776279999991,0.0077627999999094754,None,159.17129690000002,159.17129690000002,159.17129690000002,159.17129690000002,159.17129690000002,159.17129690000002,159.17129690000002,159.17129690000002,,002,P010,2025_Feb_01_1548,CategoryLocalizer,2021.2.3,59.94150907535615,
123.8,124.0,5,0.0,Stimuli\Blank.png,0,0,0,201,201,201,,,,,,,,,,,,,123.80909339999926,0.009093399999258622,None,159.9720109000009,159.9720109000009,159.9720109000009,159.9720109000009,159.9720109000009,159.9720109000009,159.9720109000009,159.9720109000009,,002,P010,2025_Feb_01_1548,CategoryLocalizer,2021.2.3,59.94150907535615,
124.0,124.8,4,0.75,Stimuli\ImageFiles-Set2\Scenes\Scenes_069.png,1,1,0,202,202,202,,,,,,,,,,,,,124.00856829999975,0.008568299999751616,1,160.18889260000287,160.18889260000287,160.18889260000287,160.18889260000287,160.18889260000287,160.18889260000287,160.18889260000287,160.18889260000287,0.42325290000007953,002,P010,2025_Feb_01_1548,CategoryLocalizer,2021.2.3,59.94150907535615,
124.8,125.0,5,0.0,Stimuli\Blank.png,0,0,0,203,203,203,,,,,,,,,,,,,124.8271644000015,0.027164400001495892,None,160.98958029999994,160.98958029999994,160.98958029999994,160.98958029999994,160.98958029999994,160.98958029999994,160.98958029999994,160.98958029999994,,002,P010,2025_Feb_01_1548,CategoryLocalizer,2021.2.3,59.94150907535615,
125.0,125.8,4,0.75,Stimuli\ImageFiles-Set2\Scenes\Scenes_104.png,0,0,0,204,204,204,,,,,,,,,,,,,125.00960040000064,0.009600400000636,None,161.17308700000285,161.17308700000285,161.17308700000285,161.17308700000285,161.17308700000285,161.17308700000285,161.17308700000285,161.17308700000285,,002,P010,2025_Feb_01_1548,CategoryLocalizer,2021.2.3,59.94150907535615,
125.8,126.0,5,0.0,Stimuli\Blank.png,0,0,0,205,205,205,,,,,,,,,,,,,125.81030019999889,0.010300199998894755,None,161.97377590000178,161.97377590000178,161.97377590000178,161.97377590000178,161.97377590000178,161.97377590000178,161.97377590000178,161.97377590000178,,002,P010,2025_Feb_01_1548,CategoryLocalizer,2021.2.3,59.94150907535615,
126.0,126.8,4,0.75,Stimuli\ImageFiles-Set2\Scenes\Scenes_115.png,0,0,0,206,206,206,,,,,,,,,,,,,126.01191100000142,0.01191100000141887,None,162.19063690000257,162.19063690000257,162.19063690000257,162.19063690000257,162.19063690000257,162.19063690000257,162.19063690000257,162.19063690000257,,002,P010,2025_Feb_01_1548,CategoryLocalizer,2021.2.3,59.94150907535615,
126.8,127.0,5,0.0,Stimuli\Blank.png,0,0,0,207,207,207,,,,,,,,,,,,,126.82857510000031,0.028575100000310272,None,162.99135100000058,162.99135100000058,162.99135100000058,162.99135100000058,162.99135100000058,162.99135100000058,162.99135100000058,162.99135100000058,,002,P010,2025_Feb_01_1548,CategoryLocalizer,2021.2.3,59.94150907535615,
127.0,127.8,4,0.75,Stimuli\ImageFiles-Set2\Scenes\Scenes_084.png,0,0,0,208,208,208,,,,,,,,,,,,,127.01342940000177,0.013429400001768954,None,163.19152480000048,163.19152480000048,163.19152480000048,163.19152480000048,163.19152480000048,163.19152480000048,163.19152480000048,163.19152480000048,,002,P010,2025_Feb_01_1548,CategoryLocalizer,2021.2.3,59.94150907535615,
127.8,128.0,5,0.0,Stimuli\Blank.png,0,0,0,209,209,209,,,,,,,,,,,,,127.82875490000151,0.028754900001516148,None,163.9922312000017,163.9922312000017,163.9922312000017,163.9922312000017,163.9922312000017,163.9922312000017,163.9922312000017,163.9922312000017,,002,P010,2025_Feb_01_1548,CategoryLocalizer,2021.2.3,59.94150907535615,
128.0,128.8,4,0.75,Stimuli\ImageFiles-Set2\Scenes\Scenes_093.png,0,0,0,210,210,210,,,,,,,,,,,,,128.01229859999876,0.012298599998757709,None,164.17572330000257,164.17572330000257,164.17572330000257,164.17572330000257,164.17572330000257,164.17572330000257,164.17572330000257,164.17572330000257,,002,P010,2025_Feb_01_1548,CategoryLocalizer,2021.2.3,59.94150907535615,
128.8,129.0,5,0.0,Stimuli\Blank.png,0,0,0,211,211,211,,,,,,,,,,,,,128.81313650000084,0.01313650000082589,None,164.97643450000032,164.97643450000032,164.97643450000032,164.97643450000032,164.97643450000032,164.97643450000032,164.97643450000032,164.97643450000032,,002,P010,2025_Feb_01_1548,CategoryLocalizer,2021.2.3,59.94150907535615,
129.0,129.8,4,0.75,Stimuli\ImageFiles-Set2\Scenes\Scenes_088.png,0,0,0,212,212,212,,,,,,,,,,,,,129.0132263000014,0.013226300001406344,None,165.1766106000032,165.1766106000032,165.1766106000032,165.1766106000032,165.1766106000032,165.1766106000032,165.1766106000032,165.1766106000032,,002,P010,2025_Feb_01_1548,CategoryLocalizer,2021.2.3,59.94150907535615,
129.8,130.0,5,0.0,Stimuli\Blank.png,0,0,0,213,213,213,,,,,,,,,,,,,129.81458170000042,0.014581700000405817,None,165.97731660000136,165.97731660000136,165.97731660000136,165.97731660000136,165.97731660000136,165.97731660000136,165.97731660000136,165.97731660000136,,002,P010,2025_Feb_01_1548,CategoryLocalizer,2021.2.3,59.94150907535615,
130.0,130.8,4,0.75,Stimuli\ImageFiles-Set2\Scenes\Scenes_078.png,0,0,0,214,214,214,,,,,,,,,,,,,130.01419960000203,0.01419960000202991,None,166.19419449999987,166.19419449999987,166.19419449999987,166.19419449999987,166.19419449999987,166.19419449999987,166.19419449999987,166.19419449999987,,002,P010,2025_Feb_01_1548,CategoryLocalizer,2021.2.3,59.94150907535615,
130.8,131.0,5,0.0,Stimuli\Blank.png,0,0,0,215,215,215,,,,,,,,,,,,,130.83311820000017,0.033118200000160414,None,167.0116104000008,167.0116104000008,167.0116104000008,167.0116104000008,167.0116104000008,167.0116104000008,167.0116104000008,167.0116104000008,,002,P010,2025_Feb_01_1548,CategoryLocalizer,2021.2.3,59.94150907535615,
131.0,131.8,4,0.75,Stimuli\ImageFiles-Set2\Scenes\Scenes_119.png,1,1,0,216,216,216,,,,,,,,,,,,,131.0156457000012,0.015645700001186924,None,167.17838120000306,167.17838120000306,167.17838120000306,167.17838120000306,167.17838120000306,167.17838120000306,167.17838120000306,167.17838120000306,,002,P010,2025_Feb_01_1548,CategoryLocalizer,2021.2.3,59.94150907535615,
131.8,132.0,5,0.0,Stimuli\Blank.png,0,0,0,217,217,217,,,,,,,,,,,,,131.79889750000075,-0.0011024999992628182,None,167.96240370000305,167.96240370000305,167.96240370000305,167.96240370000305,167.96240370000305,167.96240370000305,167.96240370000305,167.96240370000305,,002,P010,2025_Feb_01_1548,CategoryLocalizer,2021.2.3,59.94150907535615,
132.0,132.8,4,0.75,Stimuli\ImageFiles-Set2\Scenes\Scenes_114.png,0,0,0,218,218,218,,,,,,,,,,,,,131.99946519999867,-0.0005348000013327692,None,168.1625462000011,168.1625462000011,168.1625462000011,168.1625462000011,168.1625462000011,168.1625462000011,168.1625462000011,168.1625462000011,,002,P010,2025_Feb_01_1548,CategoryLocalizer,2021.2.3,59.94150907535615,
132.8,133.0,5,0.0,Stimuli\Blank.png,0,0,0,219,219,219,,,,,,,,,,,,,132.80088189999879,0.0008818999987738607,None,168.96329860000333,168.96329860000333,168.96329860000333,168.96329860000333,168.96329860000333,168.96329860000333,168.96329860000333,168.96329860000333,,002,P010,2025_Feb_01_1548,CategoryLocalizer,2021.2.3,59.94150907535615,
133.0,133.8,4,0.75,Stimuli\ImageFiles-Set2\Scenes\Scenes_114.png,0,0,0,220,220,220,,,,,,,,,,,,,133.00018880000061,0.00018880000061471947,None,169.1634632000023,169.1634632000023,169.1634632000023,169.1634632000023,169.1634632000023,169.1634632000023,169.1634632000023,169.1634632000023,,002,P010,2025_Feb_01_1548,CategoryLocalizer,2021.2.3,59.94150907535615,
133.8,134.0,5,0.0,Stimuli\Blank.png,0,0,0,221,221,221,,,,,,,,,,,,,133.8007964999997,0.0007964999996943334,None,169.96417629999996,169.96417629999996,169.96417629999996,169.96417629999996,169.96417629999996,169.96417629999996,169.96417629999996,169.96417629999996,,002,P010,2025_Feb_01_1548,CategoryLocalizer,2021.2.3,59.94150907535615,
134.0,134.8,4,0.75,Stimuli\ImageFiles-Set2\Scenes\Scenes_106.png,0,0,0,222,222,222,,,,,,,,,,,,,134.00100630000088,0.0010063000008813106,None,170.16431680000096,170.16431680000096,170.16431680000096,170.16431680000096,170.16431680000096,170.16431680000096,170.16431680000096,170.16431680000096,,002,P010,2025_Feb_01_1548,CategoryLocalizer,2021.2.3,59.94150907535615,
134.8,135.0,5,0.0,Stimuli\Blank.png,0,0,0,223,223,223,,,,,,,,,,,,,134.8033961000001,0.003396100000088609,None,170.98174770000333,170.98174770000333,170.98174770000333,170.98174770000333,170.98174770000333,170.98174770000333,170.98174770000333,170.98174770000333,,002,P010,2025_Feb_01_1548,CategoryLocalizer,2021.2.3,59.94150907535615,
135.0,135.8,4,0.75,Stimuli\ImageFiles-Set2\Scenes\Scenes_098.png,0,0,0,224,224,224,,,,,,,,,,,,,135.0194878000002,0.019487800000206335,None,171.19859780000115,171.19859780000115,171.19859780000115,171.19859780000115,171.19859780000115,171.19859780000115,171.19859780000115,171.19859780000115,,002,P010,2025_Feb_01_1548,CategoryLocalizer,2021.2.3,59.94150907535615,
135.8,136.0,5,0.0,Stimuli\Blank.png,0,0,0,225,225,225,,,,,,,,,,,,,135.8192139999992,0.019213999999180942,None,171.98262220000106,171.98262220000106,171.98262220000106,171.98262220000106,171.98262220000106,171.98262220000106,171.98262220000106,171.98262220000106,,002,P010,2025_Feb_01_1548,CategoryLocalizer,2021.2.3,59.94150907535615,
136.0,136.8,2,0.75,Stimuli\ImageFiles-Set2\Bodies\Bodies_Waving_00006.png,0,0,0,226,226,226,,,,,,,,,,,,,136.0030267000002,0.0030267000001913402,None,172.16609130000143,172.16609130000143,172.16609130000143,172.16609130000143,172.16609130000143,172.16609130000143,172.16609130000143,172.16609130000143,,002,P010,2025_Feb_01_1548,CategoryLocalizer,2021.2.3,59.94150907535615,
136.8,137.0,5,0.0,Stimuli\Blank.png,0,0,0,227,227,227,,,,,,,,,,,,,136.8039159,0.0039158999999813204,None,172.9668464000024,172.9668464000024,172.9668464000024,172.9668464000024,172.9668464000024,172.9668464000024,172.9668464000024,172.9668464000024,,002,P010,2025_Feb_01_1548,CategoryLocalizer,2021.2.3,59.94150907535615,
137.0,137.8,2,0.75,Stimuli\ImageFiles-Set2\Bodies\Bodies_Standing_00004.png,0,0,0,228,228,228,,,,,,,,,,,,,137.00410430000193,0.004104300001927186,None,173.18370590000268,173.18370590000268,173.18370590000268,173.18370590000268,173.18370590000268,173.18370590000268,173.18370590000268,173.18370590000268,,002,P010,2025_Feb_01_1548,CategoryLocalizer,2021.2.3,59.94150907535615,
137.8,138.0,5,0.0,Stimuli\Blank.png,0,0,0,229,229,229,,,,,,,,,,,,,137.8209010999999,0.02090109999988954,None,173.98442849999992,173.98442849999992,173.98442849999992,173.98442849999992,173.98442849999992,173.98442849999992,173.98442849999992,173.98442849999992,,002,P010,2025_Feb_01_1548,CategoryLocalizer,2021.2.3,59.94150907535615,
138.0,138.8,2,0.75,Stimuli\ImageFiles-Set2\Bodies\Bodies_Pushing_00004.png,0,0,0,230,230,230,,,,,,,,,,,,,138.00553600000057,0.005536000000574859,None,174.18458400000236,174.18458400000236,174.18458400000236,174.18458400000236,174.18458400000236,174.18458400000236,174.18458400000236,174.18458400000236,,002,P010,2025_Feb_01_1548,CategoryLocalizer,2021.2.3,59.94150907535615,
138.8,139.0,5,0.0,Stimuli\Blank.png,0,0,0,231,231,231,,,,,,,,,,,,,138.8238119000016,0.023811900001589947,None,175.00196860000142,175.00196860000142,175.00196860000142,175.00196860000142,175.00196860000142,175.00196860000142,175.00196860000142,175.00196860000142,,002,P010,2025_Feb_01_1548,CategoryLocalizer,2021.2.3,59.94150907535615,
139.0,139.8,2,0.75,Stimuli\ImageFiles-Set2\Bodies\Bodies_Kicking_00004.png,0,0,0,232,232,232,,,,,,,,,,,,,139.0221863000006,0.02218630000061239,None,175.18546010000136,175.18546010000136,175.18546010000136,175.18546010000136,175.18546010000136,175.18546010000136,175.18546010000136,175.18546010000136,,002,P010,2025_Feb_01_1548,CategoryLocalizer,2021.2.3,59.94150907535615,
139.8,140.0,5,0.0,Stimuli\Blank.png,0,0,0,233,233,233,,,,,,,,,,,,,139.80677130000186,0.006771300001844338,None,175.96949860000313,175.96949860000313,175.96949860000313,175.96949860000313,175.96949860000313,175.96949860000313,175.96949860000313,175.96949860000313,,002,P010,2025_Feb_01_1548,CategoryLocalizer,2021.2.3,59.94150907535615,
140.0,140.8,2,0.75,Stimuli\ImageFiles-Set2\Bodies\Bodies_DownwardDog_00004.png,0,0,0,234,234,234,,,,,,,,,,,,,140.00653389999934,0.006533899999340065,None,176.16971670000203,176.16971670000203,176.16971670000203,176.16971670000203,176.16971670000203,176.16971670000203,176.16971670000203,176.16971670000203,,002,P010,2025_Feb_01_1548,CategoryLocalizer,2021.2.3,59.94150907535615,
140.8,141.0,5,0.0,Stimuli\Blank.png,0,0,0,235,235,235,,,,,,,,,,,,,140.8093676999997,0.009367699999700108,None,176.9870652000027,176.9870652000027,176.9870652000027,176.9870652000027,176.9870652000027,176.9870652000027,176.9870652000027,176.9870652000027,,002,P010,2025_Feb_01_1548,CategoryLocalizer,2021.2.3,59.94150907535615,
141.0,141.8,2,0.75,Stimuli\ImageFiles-Set2\Bodies\Bodies_Standing_00006.png,0,0,0,236,236,236,,,,,,,,,,,,,141.02500399999917,0.025003999999171356,None,177.2039063000011,177.2039063000011,177.2039063000011,177.2039063000011,177.2039063000011,177.2039063000011,177.2039063000011,177.2039063000011,,002,P010,2025_Feb_01_1548,CategoryLocalizer,2021.2.3,59.94150907535615,
141.8,142.0,5,0.0,Stimuli\Blank.png,0,0,0,237,237,237,,,,,,,,,,,,,141.82517860000007,0.02517860000006067,None,177.98793990000195,177.98793990000195,177.98793990000195,177.98793990000195,177.98793990000195,177.98793990000195,177.98793990000195,177.98793990000195,,002,P010,2025_Feb_01_1548,CategoryLocalizer,2021.2.3,59.94150907535615,
142.0,142.8,2,0.75,Stimuli\ImageFiles-Set2\Bodies\Bodies_Hanging_00005.png,0,0,0,238,238,238,,,,,,,,,,,,,142.00811809999868,0.008118099998682737,None,178.1714430000029,178.1714430000029,178.1714430000029,178.1714430000029,178.1714430000029,178.1714430000029,178.1714430000029,178.1714430000029,,002,P010,2025_Feb_01_1548,CategoryLocalizer,2021.2.3,59.94150907535615,
142.8,143.0,5,0.0,Stimuli\Blank.png,0,0,0,239,239,239,,,,,,,,,,,,,142.80987000000096,0.009870000000944401,None,178.97215530000176,178.97215530000176,178.97215530000176,178.97215530000176,178.97215530000176,178.97215530000176,178.97215530000176,178.97215530000176,,002,P010,2025_Feb_01_1548,CategoryLocalizer,2021.2.3,59.94150907535615,
143.0,143.8,2,0.75,Stimuli\ImageFiles-Set2\Bodies\Bodies_Hanging_00001.png,0,0,0,240,240,240,,,,,,,,,,,,,143.00892219999878,0.008922199998778524,None,179.1723204000009,179.1723204000009,179.1723204000009,179.1723204000009,179.1723204000009,179.1723204000009,179.1723204000009,179.1723204000009,,002,P010,2025_Feb_01_1548,CategoryLocalizer,2021.2.3,59.94150907535615,
143.8,144.0,5,0.0,Stimuli\Blank.png,0,0,0,241,241,241,,,,,,,,,,,,,143.80965560000186,0.009655600001849507,None,179.97304500000246,179.97304500000246,179.97304500000246,179.97304500000246,179.97304500000246,179.97304500000246,179.97304500000246,179.97304500000246,,002,P010,2025_Feb_01_1548,CategoryLocalizer,2021.2.3,59.94150907535615,
144.0,144.8,2,0.75,Stimuli\ImageFiles-Set2\Bodies\Bodies_Pushing_00002.png,0,0,0,242,242,242,,,,,,,,,,,,,144.00974060000226,0.00974060000226018,None,180.17320800000016,180.17320800000016,180.17320800000016,180.17320800000016,180.17320800000016,180.17320800000016,180.17320800000016,180.17320800000016,,002,P010,2025_Feb_01_1548,CategoryLocalizer,2021.2.3,59.94150907535615,
144.8,145.0,5,0.0,Stimuli\Blank.png,0,0,0,243,243,243,,,,,,,,,,,,,144.81063519999952,0.010635199999512679,None,180.9739081000007,180.9739081000007,180.9739081000007,180.9739081000007,180.9739081000007,180.9739081000007,180.9739081000007,180.9739081000007,,002,P010,2025_Feb_01_1548,CategoryLocalizer,2021.2.3,59.94150907535615,
145.0,145.8,2,0.75,Stimuli\ImageFiles-Set2\Bodies\Bodies_Crawling_00004.png,0,0,0,244,244,244,,,,,,,,,,,,,145.0106874000012,0.010687400001188507,None,181.17418309999994,181.17418309999994,181.17418309999994,181.17418309999994,181.17418309999994,181.17418309999994,181.17418309999994,181.17418309999994,,002,P010,2025_Feb_01_1548,CategoryLocalizer,2021.2.3,59.94150907535615,
145.8,146.0,5,0.0,Stimuli\Blank.png,0,0,0,245,245,245,,,,,,,,,,,,,145.81125149999934,0.011251499999332282,None,181.9747997000013,181.9747997000013,181.9747997000013,181.9747997000013,181.9747997000013,181.9747997000013,181.9747997000013,181.9747997000013,,002,P010,2025_Feb_01_1548,CategoryLocalizer,2021.2.3,59.94150907535615,
146.0,146.8,2,0.75,Stimuli\ImageFiles-Set2\Bodies\Bodies_Running_00004.png,0,0,0,246,246,246,,,,,,,,,,,,,146.0120962000001,0.012096200000087265,None,182.17497450000155,182.17497450000155,182.17497450000155,182.17497450000155,182.17497450000155,182.17497450000155,182.17497450000155,182.17497450000155,,002,P010,2025_Feb_01_1548,CategoryLocalizer,2021.2.3,59.94150907535615,
146.8,147.0,5,0.0,Stimuli\Blank.png,0,0,0,247,247,247,,,,,,,,,,,,,146.8131605999988,0.013160599998798261,None,182.97569590000057,182.97569590000057,182.97569590000057,182.97569590000057,182.97569590000057,182.97569590000057,182.97569590000057,182.97569590000057,,002,P010,2025_Feb_01_1548,CategoryLocalizer,2021.2.3,59.94150907535615,
147.0,147.8,2,0.75,Stimuli\ImageFiles-Set2\Bodies\Bodies_Running_00004.png,1,1,0,248,248,248,,,,,,,,,,,,,147.01325870000073,0.01325870000073337,1,183.17586700000174,183.17586700000174,183.17586700000174,183.17586700000174,183.17586700000174,183.17586700000174,183.17586700000174,183.17586700000174,0.6530522000030032,002,P010,2025_Feb_01_1548,CategoryLocalizer,2021.2.3,59.94150907535615,
147.8,148.0,5,0.0,Stimuli\Blank.png,0,0,0,249,249,249,,,,,,,,,,,,,147.81310460000168,0.013104600001668132,None,183.9765690000022,183.9765690000022,183.9765690000022,183.9765690000022,183.9765690000022,183.9765690000022,183.9765690000022,183.9765690000022,,002,P010,2025_Feb_01_1548,CategoryLocalizer,2021.2.3,59.94150907535615,
148.0,148.8,2,0.75,Stimuli\ImageFiles-Set2\Bodies\Bodies_SittingStretch_00003.png,0,0,0,250,250,250,,,,,,,,,,,,,148.0132682000003,0.01326820000031148,None,184.17675120000058,184.17675120000058,184.17675120000058,184.17675120000058,184.17675120000058,184.17675120000058,184.17675120000058,184.17675120000058,,002,P010,2025_Feb_01_1548,CategoryLocalizer,2021.2.3,59.94150907535615,
148.8,149.0,5,0.0,Stimuli\Blank.png,0,0,0,251,251,251,,,,,,,,,,,,,148.81472810000196,0.014728100001946132,None,184.97745470000154,184.97745470000154,184.97745470000154,184.97745470000154,184.97745470000154,184.97745470000154,184.97745470000154,184.97745470000154,,002,P010,2025_Feb_01_1548,CategoryLocalizer,2021.2.3,59.94150907535615,
149.0,149.8,2,0.75,Stimuli\ImageFiles-Set2\Bodies\Bodies_Running_00002.png,0,0,0,252,252,252,,,,,,,,,,,,,149.01487540000016,0.014875400000164518,None,185.1776318000011,185.1776318000011,185.1776318000011,185.1776318000011,185.1776318000011,185.1776318000011,185.1776318000011,185.1776318000011,,002,P010,2025_Feb_01_1548,CategoryLocalizer,2021.2.3,59.94150907535615,
149.8,150.0,5,0.0,Stimuli\Blank.png,0,0,0,253,253,253,,,,,,,,,,,,,149.8150429999987,0.015042999998684081,None,185.97834130000047,185.97834130000047,185.97834130000047,185.97834130000047,185.97834130000047,185.97834130000047,185.97834130000047,185.97834130000047,,002,P010,2025_Feb_01_1548,CategoryLocalizer,2021.2.3,59.94150907535615,
150.0,150.8,2,0.75,Stimuli\ImageFiles-Set2\Bodies\Bodies_Running_00007.png,0,0,0,254,254,254,,,,,,,,,,,,,150.0158467000001,0.015846700000111014,None,186.17860960000326,186.17860960000326,186.17860960000326,186.17860960000326,186.17860960000326,186.17860960000326,186.17860960000326,186.17860960000326,,002,P010,2025_Feb_01_1548,CategoryLocalizer,2021.2.3,59.94150907535615,
150.8,151.0,5,0.0,Stimuli\Blank.png,0,0,0,255,255,255,,,,,,,,,,,,,150.7991081,-0.0008918999999991684,None,186.96260470000198,186.96260470000198,186.96260470000198,186.96260470000198,186.96260470000198,186.96260470000198,186.96260470000198,186.96260470000198,,002,P010,2025_Feb_01_1548,CategoryLocalizer,2021.2.3,59.94150907535615,
151.0,151.8,2,0.75,Stimuli\ImageFiles-Set2\Bodies\Bodies_DownwardDog_00002.png,0,0,0,256,256,256,,,,,,,,,,,,,150.99936000000162,-0.0006399999983841553,None,187.16272260000187,187.16272260000187,187.16272260000187,187.16272260000187,187.16272260000187,187.16272260000187,187.16272260000187,187.16272260000187,,002,P010,2025_Feb_01_1548,CategoryLocalizer,2021.2.3,59.94150907535615,
151.8,152.0,5,0.0,Stimuli\Blank.png,0,0,0,257,257,257,,,,,,,,,,,,,151.80062230000112,0.0006223000011118529,None,187.96343909999996,187.96343909999996,187.96343909999996,187.96343909999996,187.96343909999996,187.96343909999996,187.96343909999996,187.96343909999996,,002,P010,2025_Feb_01_1548,CategoryLocalizer,2021.2.3,59.94150907535615,
152.0,164.0,0,0.0,Stimuli\Blank.png,0,0,0,258,258,258,,,,,,,,,,,,,152.00034589999996,0.00034589999995660037,None,188.1635877000008,188.1635877000008,188.1635877000008,188.1635877000008,188.1635877000008,188.1635877000008,188.1635877000008,188.1635877000008,,002,P010,2025_Feb_01_1548,CategoryLocalizer,2021.2.3,59.94150907535615,
164.0,164.8,4,0.75,Stimuli\ImageFiles-Set2\Scenes\Scenes_091.png,0,0,0,259,259,259,,,,,,,,,,,,,164.01080690000163,0.010806900001625763,None,200.1742395000001,200.1742395000001,200.1742395000001,200.1742395000001,200.1742395000001,200.1742395000001,200.1742395000001,200.1742395000001,,002,P010,2025_Feb_01_1548,CategoryLocalizer,2021.2.3,59.94150907535615,
164.8,165.0,5,0.0,Stimuli\Blank.png,0,0,0,260,260,260,,,,,,,,,,,,,164.81418739999935,0.014187399999343597,None,200.9916348000006,200.9916348000006,200.9916348000006,200.9916348000006,200.9916348000006,200.9916348000006,200.9916348000006,200.9916348000006,,002,P010,2025_Feb_01_1548,CategoryLocalizer,2021.2.3,59.94150907535615,
165.0,165.8,4,0.75,Stimuli\ImageFiles-Set2\Scenes\Scenes_103.png,0,0,0,261,261,261,,,,,,,,,,,,,165.02842460000102,0.028424600001017097,None,201.19180010000127,201.19180010000127,201.19180010000127,201.19180010000127,201.19180010000127,201.19180010000127,201.19180010000127,201.19180010000127,,002,P010,2025_Feb_01_1548,CategoryLocalizer,2021.2.3,59.94150907535615,
165.8,166.0,5,0.0,Stimuli\Blank.png,0,0,0,262,262,262,,,,,,,,,,,,,165.81296940000175,0.01296940000173663,None,201.97582300000067,201.97582300000067,201.97582300000067,201.97582300000067,201.97582300000067,201.97582300000067,201.97582300000067,201.97582300000067,,002,P010,2025_Feb_01_1548,CategoryLocalizer,2021.2.3,59.94150907535615,
166.0,166.8,4,0.75,Stimuli\ImageFiles-Set2\Scenes\Scenes_105.png,0,0,0,263,263,263,,,,,,,,,,,,,166.01294340000095,0.012943400000949623,None,202.1926775000029,202.1926775000029,202.1926775000029,202.1926775000029,202.1926775000029,202.1926775000029,202.1926775000029,202.1926775000029,,002,P010,2025_Feb_01_1548,CategoryLocalizer,2021.2.3,59.94150907535615,
166.8,167.0,5,0.0,Stimuli\Blank.png,0,0,0,264,264,264,,,,,,,,,,,,,166.83068690000073,0.030686900000716832,None,202.9933942000025,202.9933942000025,202.9933942000025,202.9933942000025,202.9933942000025,202.9933942000025,202.9933942000025,202.9933942000025,,002,P010,2025_Feb_01_1548,CategoryLocalizer,2021.2.3,59.94150907535615,
167.0,167.8,4,0.75,Stimuli\ImageFiles-Set2\Scenes\Scenes_090.png,0,0,0,265,265,265,,,,,,,,,,,,,167.01420860000144,0.014208600001438754,None,203.1935654000008,203.1935654000008,203.1935654000008,203.1935654000008,203.1935654000008,203.1935654000008,203.1935654000008,203.1935654000008,,002,P010,2025_Feb_01_1548,CategoryLocalizer,2021.2.3,59.94150907535615,
167.8,168.0,5,0.0,Stimuli\Blank.png,0,0,0,266,266,266,,,,,,,,,,,,,167.83119090000037,0.03119090000035385,None,203.9942824000027,203.9942824000027,203.9942824000027,203.9942824000027,203.9942824000027,203.9942824000027,203.9942824000027,203.9942824000027,,002,P010,2025_Feb_01_1548,CategoryLocalizer,2021.2.3,59.94150907535615,
168.0,168.8,4,0.75,Stimuli\ImageFiles-Set2\Scenes\Scenes_109.png,0,0,0,267,267,267,,,,,,,,,,,,,168.0144435000002,0.014443500000197673,None,204.17777600000045,204.17777600000045,204.17777600000045,204.17777600000045,204.17777600000045,204.17777600000045,204.17777600000045,204.17777600000045,,002,P010,2025_Feb_01_1548,CategoryLocalizer,2021.2.3,59.94150907535615,
168.8,169.0,5,0.0,Stimuli\Blank.png,0,0,0,268,268,268,,,,,,,,,,,,,168.81590639999922,0.015906399999209953,None,204.9785969000004,204.9785969000004,204.9785969000004,204.9785969000004,204.9785969000004,204.9785969000004,204.9785969000004,204.9785969000004,,002,P010,2025_Feb_01_1548,CategoryLocalizer,2021.2.3,59.94150907535615,
169.0,169.8,4,0.75,Stimuli\ImageFiles-Set2\Scenes\Scenes_118.png,0,0,0,269,269,269,,,,,,,,,,,,,168.99905330000183,-0.0009466999981668778,None,205.1786785000004,205.1786785000004,205.1786785000004,205.1786785000004,205.1786785000004,205.1786785000004,205.1786785000004,205.1786785000004,,002,P010,2025_Feb_01_1548,CategoryLocalizer,2021.2.3,59.94150907535615,
169.8,170.0,5,0.0,Stimuli\Blank.png,0,0,0,270,270,270,,,,,,,,,,,,,169.81704710000122,0.017047100001207127,None,205.97937840000304,205.97937840000304,205.97937840000304,205.97937840000304,205.97937840000304,205.97937840000304,205.97937840000304,205.97937840000304,,002,P010,2025_Feb_01_1548,CategoryLocalizer,2021.2.3,59.94150907535615,
170.0,170.8,4,0.75,Stimuli\ImageFiles-Set2\Scenes\Scenes_079.png,0,0,0,271,271,271,,,,,,,,,,,,,169.99941070000204,-0.000589299997955095,None,206.17956070000218,206.17956070000218,206.17956070000218,206.17956070000218,206.17956070000218,206.17956070000218,206.17956070000218,206.17956070000218,,002,P010,2025_Feb_01_1548,CategoryLocalizer,2021.2.3,59.94150907535615,
170.8,171.0,5,0.0,Stimuli\Blank.png,0,0,0,272,272,272,,,,,,,,,,,,,170.8185865000014,0.018586500001390505,None,206.99693090000073,206.99693090000073,206.99693090000073,206.99693090000073,206.99693090000073,206.99693090000073,206.99693090000073,206.99693090000073,,002,P010,2025_Feb_01_1548,CategoryLocalizer,2021.2.3,59.94150907535615,
171.0,171.8,4,0.75,Stimuli\ImageFiles-Set2\Scenes\Scenes_097.png,0,0,0,273,273,273,,,,,,,,,,,,,171.01700830000118,0.017008300001180032,None,207.18043200000102,207.18043200000102,207.18043200000102,207.18043200000102,207.18043200000102,207.18043200000102,207.18043200000102,207.18043200000102,,002,P010,2025_Feb_01_1548,CategoryLocalizer,2021.2.3,59.94150907535615,
171.8,172.0,5,0.0,Stimuli\Blank.png,0,0,0,274,274,274,,,,,,,,,,,,,171.80357849999928,0.003578499999264295,None,207.98115959999996,207.98115959999996,207.98115959999996,207.98115959999996,207.98115959999996,207.98115959999996,207.98115959999996,207.98115959999996,,002,P010,2025_Feb_01_1548,CategoryLocalizer,2021.2.3,59.94150907535615,
172.0,172.8,4,0.75,Stimuli\ImageFiles-Set2\Scenes\Scenes_120.png,0,0,0,275,275,275,,,,,,,,,,,,,172.01810100000148,0.018101000001479406,None,208.18131370000265,208.18131370000265,208.18131370000265,208.18131370000265,208.18131370000265,208.18131370000265,208.18131370000265,208.18131370000265,,002,P010,2025_Feb_01_1548,CategoryLocalizer,2021.2.3,59.94150907535615,
172.8,173.0,5,0.0,Stimuli\Blank.png,0,0,0,276,276,276,,,,,,,,,,,,,172.80348140000206,0.0034814000020446656,None,208.9820252999998,208.9820252999998,208.9820252999998,208.9820252999998,208.9820252999998,208.9820252999998,208.9820252999998,208.9820252999998,,002,P010,2025_Feb_01_1548,CategoryLocalizer,2021.2.3,59.94150907535615,
173.0,173.8,4,0.75,Stimuli\ImageFiles-Set2\Scenes\Scenes_120.png,1,1,0,277,277,277,,,,,,,,,,,,,173.01926639999874,0.01926639999874169,1,209.19891629999984,209.19891629999984,209.19891629999984,209.19891629999984,209.19891629999984,209.19891629999984,209.19891629999984,209.19891629999984,0.48827109999911045,002,P010,2025_Feb_01_1548,CategoryLocalizer,2021.2.3,59.94150907535615,
173.8,174.0,5,0.0,Stimuli\Blank.png,0,0,0,278,278,278,,,,,,,,,,,,,173.81955720000042,0.019557200000406283,None,209.98292490000313,209.98292490000313,209.98292490000313,209.98292490000313,209.98292490000313,209.98292490000313,209.98292490000313,209.98292490000313,,002,P010,2025_Feb_01_1548,CategoryLocalizer,2021.2.3,59.94150907535615,
174.0,174.8,4,0.75,Stimuli\ImageFiles-Set2\Scenes\Scenes_066.png,0,0,0,279,279,279,,,,,,,,,,,,,174.0044498999996,0.004449899999599438,None,210.18307750000167,210.18307750000167,210.18307750000167,210.18307750000167,210.18307750000167,210.18307750000167,210.18307750000167,210.18307750000167,,002,P010,2025_Feb_01_1548,CategoryLocalizer,2021.2.3,59.94150907535615,
174.8,175.0,5,0.0,Stimuli\Blank.png,0,0,0,280,280,280,,,,,,,,,,,,,174.8210727000005,0.02107270000050221,None,210.98379080000086,210.98379080000086,210.98379080000086,210.98379080000086,210.98379080000086,210.98379080000086,210.98379080000086,210.98379080000086,,002,P010,2025_Feb_01_1548,CategoryLocalizer,2021.2.3,59.94150907535615,
175.0,175.8,4,0.75,Stimuli\ImageFiles-Set2\Scenes\Scenes_086.png,0,0,0,281,281,281,,,,,,,,,,,,,175.00436980000086,0.004369800000858959,None,211.18404470000314,211.18404470000314,211.18404470000314,211.18404470000314,211.18404470000314,211.18404470000314,211.18404470000314,211.18404470000314,,002,P010,2025_Feb_01_1548,CategoryLocalizer,2021.2.3,59.94150907535615,
175.8,176.0,5,0.0,Stimuli\Blank.png,0,0,0,282,282,282,,,,,,,,,,,,,175.8232343000018,0.023234300001774955,None,212.0013936000032,212.0013936000032,212.0013936000032,212.0013936000032,212.0013936000032,212.0013936000032,212.0013936000032,212.0013936000032,,002,P010,2025_Feb_01_1548,CategoryLocalizer,2021.2.3,59.94150907535615,
176.0,176.8,4,0.75,Stimuli\ImageFiles-Set2\Scenes\Scenes_087.png,0,0,0,283,283,283,,,,,,,,,,,,,176.02392809999947,0.023928099999466212,None,212.2015446000005,212.2015446000005,212.2015446000005,212.2015446000005,212.2015446000005,212.2015446000005,212.2015446000005,212.2015446000005,,002,P010,2025_Feb_01_1548,CategoryLocalizer,2021.2.3,59.94150907535615,
176.8,177.0,5,0.0,Stimuli\Blank.png,0,0,0,284,284,284,,,,,,,,,,,,,176.82429400000183,0.024294000001816585,None,213.00224940000044,213.00224940000044,213.00224940000044,213.00224940000044,213.00224940000044,213.00224940000044,213.00224940000044,213.00224940000044,,002,P010,2025_Feb_01_1548,CategoryLocalizer,2021.2.3,59.94150907535615,
177.0,177.8,4,0.75,Stimuli\ImageFiles-Set2\Scenes\Scenes_068.png,0,0,0,285,285,285,,,,,,,,,,,,,177.02308489999996,0.023084899999957997,None,213.20241600000008,213.20241600000008,213.20241600000008,213.20241600000008,213.20241600000008,213.20241600000008,213.20241600000008,213.20241600000008,,002,P010,2025_Feb_01_1548,CategoryLocalizer,2021.2.3,59.94150907535615,
