eventStartTime,eventEndTime,eventCond,imSize,imFile,repeatedImage,responseEvent,Events.thisRepN,Events.thisTrialN,Events.thisN,Events.thisIndex,Instructions.started,Instructions.stopped,participantReadyResponse.keys,participantReadyResponse.rt,participantReadyResponse.started,participantReadyResponse.stopped,startWaitforTrigger,triggerResponse.keys,triggerResponse.rt,triggerResponse.started,triggerResponse.stopped,globalTimer,actualStartTime,startTimingDiff,participantResponse.keys,participantResponse.started,participantResponse.stopped,image.started,image.stopped,fixationOutside.started,fixationOutside.stopped,fixationInside.started,fixationInside.stopped,participantResponse.rt,session,participant,date,expName,psychopyVersion,frameRate,
,,,,,,,,,,,11.991483199999493,None,1,10.458828099999664,11.991483199999493,None,,,,,,,,,,,,,,,,,,,003,P010,2025_Feb_01_1616,CategoryLocalizer,2021.2.3,59.950421002930376,
,,,,,,,,,,,,,,,,,22.45678979999866,5,14.476210700002412,22.47001150000142,None,,,,,,,,,,,,,,003,P010,2025_Feb_01_1616,CategoryLocalizer,2021.2.3,59.950421002930376,
0.0,12.0,0,0.0,Stimuli\Blank.png,0,0,0,0,0,0,,,,,,,,,,,,36.95360559999972,0.05842629999824567,0.05842629999824567,None,37.03293150000172,None,37.03293150000172,None,37.03293150000172,None,37.03293150000172,None,,003,P010,2025_Feb_01_1616,CategoryLocalizer,2021.2.3,59.950421002930376,
12.0,12.8,1,0.75,Stimuli\ImageFiles-Set1\Objects\Object_Walnut_00001.png,0,0,0,1,1,1,,,,,,,,,,,,,12.010092900000018,0.010092900000017835,None,48.9769598999992,48.9769598999992,48.9769598999992,48.9769598999992,48.9769598999992,48.9769598999992,48.9769598999992,48.9769598999992,,003,P010,2025_Feb_01_1616,CategoryLocalizer,2021.2.3,59.950421002930376,
12.8,13.0,5,0.0,Stimuli\Blank.png,0,0,0,2,2,2,,,,,,,,,,,,,12.812068499999441,0.012068499999440263,None,49.79437600000165,49.79437600000165,49.79437600000165,49.79437600000165,49.79437600000165,49.79437600000165,49.79437600000165,49.79437600000165,,003,P010,2025_Feb_01_1616,CategoryLocalizer,2021.2.3,59.950421002930376,
13.0,13.8,1,0.75,Stimuli\ImageFiles-Set1\Objects\Object_GarbageCan_00001.png,0,0,0,3,3,3,,,,,,,,,,,,,13.02682189999905,0.026821899999049492,None,49.99453170000197,49.99453170000197,49.99453170000197,49.99453170000197,49.99453170000197,49.99453170000197,49.99453170000197,49.99453170000197,,003,P010,2025_Feb_01_1616,CategoryLocalizer,2021.2.3,59.950421002930376,
13.8,14.0,5,0.0,Stimuli\Blank.png,0,0,0,4,4,4,,,,,,,,,,,,,13.813012799997523,0.01301279999752225,None,50.7952417000015,50.7952417000015,50.7952417000015,50.7952417000015,50.7952417000015,50.7952417000015,50.7952417000015,50.7952417000015,,003,P010,2025_Feb_01_1616,CategoryLocalizer,2021.2.3,59.950421002930376,
14.0,14.8,1,0.75,Stimuli\ImageFiles-Set1\Objects\Object_Screw_00001.png,0,0,0,5,5,5,,,,,,,,,,,,,14.027104900000268,0.027104900000267662,None,50.995412100000976,50.995412100000976,50.995412100000976,50.995412100000976,50.995412100000976,50.995412100000976,50.995412100000976,50.995412100000976,,003,P010,2025_Feb_01_1616,CategoryLocalizer,2021.2.3,59.950421002930376,
14.8,15.0,5,0.0,Stimuli\Blank.png,0,0,0,6,6,6,,,,,,,,,,,,,14.811698699999397,0.011698699999396212,None,51.779448199999024,51.779448199999024,51.779448199999024,51.779448199999024,51.779448199999024,51.779448199999024,51.779448199999024,51.779448199999024,,003,P010,2025_Feb_01_1616,CategoryLocalizer,2021.2.3,59.950421002930376,
15.0,15.8,1,0.75,Stimuli\ImageFiles-Set1\Objects\Object_ShoppingCart_00001.png,0,0,0,7,7,7,,,,,,,,,,,,,15.01139669999975,0.011396699999750126,None,51.97961470000155,51.97961470000155,51.97961470000155,51.97961470000155,51.97961470000155,51.97961470000155,51.97961470000155,51.97961470000155,,003,P010,2025_Feb_01_1616,CategoryLocalizer,2021.2.3,59.950421002930376,
15.8,16.0,5,0.0,Stimuli\Blank.png,0,0,0,8,8,8,,,,,,,,,,,,,15.812800799998513,0.012800799998512247,None,52.78033150000192,52.78033150000192,52.78033150000192,52.78033150000192,52.78033150000192,52.78033150000192,52.78033150000192,52.78033150000192,,003,P010,2025_Feb_01_1616,CategoryLocalizer,2021.2.3,59.950421002930376,
16.0,16.8,1,0.75,Stimuli\ImageFiles-Set1\Objects\Object_Peanut_00001.png,0,0,0,9,9,9,,,,,,,,,,,,,16.0128337999995,0.012833799999498297,None,52.980508000000555,52.980508000000555,52.980508000000555,52.980508000000555,52.980508000000555,52.980508000000555,52.980508000000555,52.980508000000555,,003,P010,2025_Feb_01_1616,CategoryLocalizer,2021.2.3,59.950421002930376,
16.8,17.0,5,0.0,Stimuli\Blank.png,0,0,0,10,10,10,,,,,,,,,,,,,16.812902899997425,0.012902899997424555,None,53.781209699998726,53.781209699998726,53.781209699998726,53.781209699998726,53.781209699998726,53.781209699998726,53.781209699998726,53.781209699998726,,003,P010,2025_Feb_01_1616,CategoryLocalizer,2021.2.3,59.950421002930376,
17.0,17.8,1,0.75,Stimuli\ImageFiles-Set1\Objects\Object_Airplane_00001.png,0,0,0,11,11,11,,,,,,,,,,,,,17.013020200000028,0.013020200000028126,None,53.9813882999988,53.9813882999988,53.9813882999988,53.9813882999988,53.9813882999988,53.9813882999988,53.9813882999988,53.9813882999988,,003,P010,2025_Feb_01_1616,CategoryLocalizer,2021.2.3,59.950421002930376,
17.8,18.0,5,0.0,Stimuli\Blank.png,0,0,0,12,12,12,,,,,,,,,,,,,17.813928199997463,0.013928199997462087,None,54.78209419999985,54.78209419999985,54.78209419999985,54.78209419999985,54.78209419999985,54.78209419999985,54.78209419999985,54.78209419999985,,003,P010,2025_Feb_01_1616,CategoryLocalizer,2021.2.3,59.950421002930376,
18.0,18.8,1,0.75,Stimuli\ImageFiles-Set1\Objects\Object_Gun_00001.png,0,0,0,13,13,13,,,,,,,,,,,,,18.014352299996972,0.014352299996971851,None,54.982281699998566,54.982281699998566,54.982281699998566,54.982281699998566,54.982281699998566,54.982281699998566,54.982281699998566,54.982281699998566,,003,P010,2025_Feb_01_1616,CategoryLocalizer,2021.2.3,59.950421002930376,
18.8,19.0,5,0.0,Stimuli\Blank.png,0,0,0,14,14,14,,,,,,,,,,,,,18.814555299999483,0.014555299999482685,None,55.78298780000114,55.78298780000114,55.78298780000114,55.78298780000114,55.78298780000114,55.78298780000114,55.78298780000114,55.78298780000114,,003,P010,2025_Feb_01_1616,CategoryLocalizer,2021.2.3,59.950421002930376,
19.0,19.8,1,0.75,Stimuli\ImageFiles-Set1\Objects\Object_Toilet_00001.png,0,0,0,15,15,15,,,,,,,,,,,,,19.01802730000054,0.01802730000053998,None,55.99987279999914,55.99987279999914,55.99987279999914,55.99987279999914,55.99987279999914,55.99987279999914,55.99987279999914,55.99987279999914,,003,P010,2025_Feb_01_1616,CategoryLocalizer,2021.2.3,59.950421002930376,
19.8,20.0,5,0.0,Stimuli\Blank.png,0,0,0,16,16,16,,,,,,,,,,,,,19.81785469999886,0.017854699998860468,None,56.80055939999875,56.80055939999875,56.80055939999875,56.80055939999875,56.80055939999875,56.80055939999875,56.80055939999875,56.80055939999875,,003,P010,2025_Feb_01_1616,CategoryLocalizer,2021.2.3,59.950421002930376,
20.0,20.8,1,0.75,Stimuli\ImageFiles-Set1\Objects\Object_Bench_00001.png,0,0,0,17,17,17,,,,,,,,,,,,,20.016433199998573,0.0164331999985734,None,56.98404780000055,56.98404780000055,56.98404780000055,56.98404780000055,56.98404780000055,56.98404780000055,56.98404780000055,56.98404780000055,,003,P010,2025_Feb_01_1616,CategoryLocalizer,2021.2.3,59.950421002930376,
20.8,21.0,5,0.0,Stimuli\Blank.png,0,0,0,18,18,18,,,,,,,,,,,,,20.800397499999235,0.0003974999992344408,None,57.76810589999877,57.76810589999877,57.76810589999877,57.76810589999877,57.76810589999877,57.76810589999877,57.76810589999877,57.76810589999877,,003,P010,2025_Feb_01_1616,CategoryLocalizer,2021.2.3,59.950421002930376,
21.0,21.8,1,0.75,Stimuli\ImageFiles-Set1\Objects\Object_Card_00001.png,0,0,0,19,19,19,,,,,,,,,,,,,21.00219769999967,0.0021976999996695668,None,57.984959000001254,57.984959000001254,57.984959000001254,57.984959000001254,57.984959000001254,57.984959000001254,57.984959000001254,57.984959000001254,,003,P010,2025_Feb_01_1616,CategoryLocalizer,2021.2.3,59.950421002930376,
21.8,22.0,5,0.0,Stimuli\Blank.png,0,0,0,20,20,20,,,,,,,,,,,,,21.81782860000021,0.017828600000211026,None,58.78564449999976,58.78564449999976,58.78564449999976,58.78564449999976,58.78564449999976,58.78564449999976,58.78564449999976,58.78564449999976,,003,P010,2025_Feb_01_1616,CategoryLocalizer,2021.2.3,59.950421002930376,
22.0,22.8,1,0.75,Stimuli\ImageFiles-Set1\Objects\Object_Pipe_00001.png,0,0,0,21,21,21,,,,,,,,,,,,,22.00167849999707,0.0016784999970695935,None,58.969815699998435,58.969815699998435,58.969815699998435,58.969815699998435,58.969815699998435,58.969815699998435,58.969815699998435,58.969815699998435,,003,P010,2025_Feb_01_1616,CategoryLocalizer,2021.2.3,59.950421002930376,
22.8,23.0,5,0.0,Stimuli\Blank.png,0,0,0,22,22,22,,,,,,,,,,,,,22.802091699999437,0.0020916999994362584,None,59.76985010000135,59.76985010000135,59.76985010000135,59.76985010000135,59.76985010000135,59.76985010000135,59.76985010000135,59.76985010000135,,003,P010,2025_Feb_01_1616,CategoryLocalizer,2021.2.3,59.950421002930376,
23.0,23.8,1,0.75,Stimuli\ImageFiles-Set1\Objects\Object_Dice_00001.png,0,0,0,23,23,23,,,,,,,,,,,,,23.00289200000043,0.002892000000429107,None,59.98669950000112,59.98669950000112,59.98669950000112,59.98669950000112,59.98669950000112,59.98669950000112,59.98669950000112,59.98669950000112,,003,P010,2025_Feb_01_1616,CategoryLocalizer,2021.2.3,59.950421002930376,
23.8,24.0,5,0.0,Stimuli\Blank.png,0,0,0,24,24,24,,,,,,,,,,,,,23.821831199998996,0.021831199998995743,None,60.80412019999858,60.80412019999858,60.80412019999858,60.80412019999858,60.80412019999858,60.80412019999858,60.80412019999858,60.80412019999858,,003,P010,2025_Feb_01_1616,CategoryLocalizer,2021.2.3,59.950421002930376,
24.0,24.8,1,0.75,Stimuli\ImageFiles-Set1\Objects\Object_Dice_00001.png,1,1,0,25,25,25,,,,,,,,,,,,,24.019900499999494,0.01990049999949406,1,60.987588299998606,60.987588299998606,60.987588299998606,60.987588299998606,60.987588299998606,60.987588299998606,60.987588299998606,60.987588299998606,0.4446943000002648,003,P010,2025_Feb_01_1616,CategoryLocalizer,2021.2.3,59.950421002930376,
24.8,25.0,5,0.0,Stimuli\Blank.png,0,0,0,26,26,26,,,,,,,,,,,,,24.803364399998827,0.0033643999988264284,None,61.77161200000046,61.77161200000046,61.77161200000046,61.77161200000046,61.77161200000046,61.77161200000046,61.77161200000046,61.77161200000046,,003,P010,2025_Feb_01_1616,CategoryLocalizer,2021.2.3,59.950421002930376,
25.0,25.8,1,0.75,Stimuli\ImageFiles-Set1\Objects\Object_Boat_00001.png,0,0,0,27,27,27,,,,,,,,,,,,,25.004564499999105,0.004564499999105465,None,61.98849690000134,61.98849690000134,61.98849690000134,61.98849690000134,61.98849690000134,61.98849690000134,61.98849690000134,61.98849690000134,,003,P010,2025_Feb_01_1616,CategoryLocalizer,2021.2.3,59.950421002930376,
25.8,26.0,5,0.0,Stimuli\Blank.png,0,0,0,28,28,28,,,,,,,,,,,,,25.8215246999971,0.02152469999709794,None,62.789190999999846,62.789190999999846,62.789190999999846,62.789190999999846,62.789190999999846,62.789190999999846,62.789190999999846,62.789190999999846,,003,P010,2025_Feb_01_1616,CategoryLocalizer,2021.2.3,59.950421002930376,
26.0,26.8,1,0.75,Stimuli\ImageFiles-Set1\Objects\Object_Recliner_00001.png,0,0,0,29,29,29,,,,,,,,,,,,,26.005532699997275,0.005532699997274904,None,62.98935780000102,62.98935780000102,62.98935780000102,62.98935780000102,62.98935780000102,62.98935780000102,62.98935780000102,62.98935780000102,,003,P010,2025_Feb_01_1616,CategoryLocalizer,2021.2.3,59.950421002930376,
26.8,27.0,5,0.0,Stimuli\Blank.png,0,0,0,30,30,30,,,,,,,,,,,,,26.822451299998647,0.02245129999864659,None,63.790080200000375,63.790080200000375,63.790080200000375,63.790080200000375,63.790080200000375,63.790080200000375,63.790080200000375,63.790080200000375,,003,P010,2025_Feb_01_1616,CategoryLocalizer,2021.2.3,59.950421002930376,
27.0,27.8,1,0.75,Stimuli\ImageFiles-Set1\Objects\Object_Banana_00001.png,0,0,0,31,31,31,,,,,,,,,,,,,27.00624819999939,0.006248199999390636,None,63.97356690000015,63.97356690000015,63.97356690000015,63.97356690000015,63.97356690000015,63.97356690000015,63.97356690000015,63.97356690000015,,003,P010,2025_Feb_01_1616,CategoryLocalizer,2021.2.3,59.950421002930376,
27.8,28.0,5,0.0,Stimuli\Blank.png,0,0,0,32,32,32,,,,,,,,,,,,,27.805907899997692,0.005907899997691146,None,64.77431710000019,64.77431710000019,64.77431710000019,64.77431710000019,64.77431710000019,64.77431710000019,64.77431710000019,64.77431710000019,,003,P010,2025_Feb_01_1616,CategoryLocalizer,2021.2.3,59.950421002930376,
28.0,28.8,2,0.75,Stimuli\ImageFiles-Set1\Bodies\Bodies_DownwardDog_00007.png,0,0,0,33,33,33,,,,,,,,,,,,,28.006479699997726,0.006479699997726129,None,64.97444929999983,64.97444929999983,64.97444929999983,64.97444929999983,64.97444929999983,64.97444929999983,64.97444929999983,64.97444929999983,,003,P010,2025_Feb_01_1616,CategoryLocalizer,2021.2.3,59.950421002930376,
28.8,29.0,5,0.0,Stimuli\Blank.png,0,0,0,34,34,34,,,,,,,,,,,,,28.807930099999794,0.007930099999793327,None,65.77516209999885,65.77516209999885,65.77516209999885,65.77516209999885,65.77516209999885,65.77516209999885,65.77516209999885,65.77516209999885,,003,P010,2025_Feb_01_1616,CategoryLocalizer,2021.2.3,59.950421002930376,
29.0,29.8,2,0.75,Stimuli\ImageFiles-Set1\Bodies\Bodies_Walking_00006.png,0,0,0,35,35,35,,,,,,,,,,,,,29.007844299998396,0.007844299998396309,None,65.992035700001,65.992035700001,65.992035700001,65.992035700001,65.992035700001,65.992035700001,65.992035700001,65.992035700001,,003,P010,2025_Feb_01_1616,CategoryLocalizer,2021.2.3,59.950421002930376,
29.8,30.0,5,0.0,Stimuli\Blank.png,0,0,0,36,36,36,,,,,,,,,,,,,29.82523399999991,0.02523399999990872,None,66.79273770000145,66.79273770000145,66.79273770000145,66.79273770000145,66.79273770000145,66.79273770000145,66.79273770000145,66.79273770000145,,003,P010,2025_Feb_01_1616,CategoryLocalizer,2021.2.3,59.950421002930376,
30.0,30.8,2,0.75,Stimuli\ImageFiles-Set1\Bodies\Bodies_DownwardDog_00006.png,0,0,0,37,37,37,,,,,,,,,,,,,30.0082685999987,0.008268599998700665,None,66.97622000000047,66.97622000000047,66.97622000000047,66.97622000000047,66.97622000000047,66.97622000000047,66.97622000000047,66.97622000000047,,003,P010,2025_Feb_01_1616,CategoryLocalizer,2021.2.3,59.950421002930376,
30.8,31.0,5,0.0,Stimuli\Blank.png,0,0,0,38,38,38,,,,,,,,,,,,,30.809387999997853,0.009387999997851892,None,67.77701359999992,67.77701359999992,67.77701359999992,67.77701359999992,67.77701359999992,67.77701359999992,67.77701359999992,67.77701359999992,,003,P010,2025_Feb_01_1616,CategoryLocalizer,2021.2.3,59.950421002930376,
31.0,31.8,2,0.75,Stimuli\ImageFiles-Set1\Bodies\Bodies_Kicking_00005.png,0,0,0,39,39,39,,,,,,,,,,,,,31.008808899998257,0.008808899998257402,None,67.97710799999913,67.97710799999913,67.97710799999913,67.97710799999913,67.97710799999913,67.97710799999913,67.97710799999913,67.97710799999913,,003,P010,2025_Feb_01_1616,CategoryLocalizer,2021.2.3,59.950421002930376,
31.8,32.0,5,0.0,Stimuli\Blank.png,0,0,0,40,40,40,,,,,,,,,,,,,31.80956320000041,0.009563200000410887,None,68.77781680000044,68.77781680000044,68.77781680000044,68.77781680000044,68.77781680000044,68.77781680000044,68.77781680000044,68.77781680000044,,003,P010,2025_Feb_01_1616,CategoryLocalizer,2021.2.3,59.950421002930376,
32.0,32.8,2,0.75,Stimuli\ImageFiles-Set1\Bodies\Bodies_SittingChair_00007.png,0,0,0,41,41,41,,,,,,,,,,,,,32.01095489999716,0.010954899997159373,None,68.99467000000004,68.99467000000004,68.99467000000004,68.99467000000004,68.99467000000004,68.99467000000004,68.99467000000004,68.99467000000004,,003,P010,2025_Feb_01_1616,CategoryLocalizer,2021.2.3,59.950421002930376,
32.8,33.0,5,0.0,Stimuli\Blank.png,0,0,0,42,42,42,,,,,,,,,,,,,32.82794869999998,0.02794869999998184,None,69.79539010000008,69.79539010000008,69.79539010000008,69.79539010000008,69.79539010000008,69.79539010000008,69.79539010000008,69.79539010000008,,003,P010,2025_Feb_01_1616,CategoryLocalizer,2021.2.3,59.950421002930376,
33.0,33.8,2,0.75,Stimuli\ImageFiles-Set1\Bodies\Bodies_Standing_00005.png,0,0,0,43,43,43,,,,,,,,,,,,,33.01294159999816,0.012941599998157471,None,69.99556740000116,69.99556740000116,69.99556740000116,69.99556740000116,69.99556740000116,69.99556740000116,69.99556740000116,69.99556740000116,,003,P010,2025_Feb_01_1616,CategoryLocalizer,2021.2.3,59.950421002930376,
33.8,34.0,5,0.0,Stimuli\Blank.png,0,0,0,44,44,44,,,,,,,,,,,,,33.82848770000055,0.028487700000553673,None,70.79626519999874,70.79626519999874,70.79626519999874,70.79626519999874,70.79626519999874,70.79626519999874,70.79626519999874,70.79626519999874,,003,P010,2025_Feb_01_1616,CategoryLocalizer,2021.2.3,59.950421002930376,
34.0,34.8,2,0.75,Stimuli\ImageFiles-Set1\Bodies\Bodies_Punching_00001.png,0,0,0,45,45,45,,,,,,,,,,,,,34.01194029999897,0.01194029999896884,None,70.97976579999886,70.97976579999886,70.97976579999886,70.97976579999886,70.97976579999886,70.97976579999886,70.97976579999886,70.97976579999886,,003,P010,2025_Feb_01_1616,CategoryLocalizer,2021.2.3,59.950421002930376,
34.8,35.0,5,0.0,Stimuli\Blank.png,0,0,0,46,46,46,,,,,,,,,,,,,34.8136362999976,0.013636299997600076,None,71.78048029999991,71.78048029999991,71.78048029999991,71.78048029999991,71.78048029999991,71.78048029999991,71.78048029999991,71.78048029999991,,003,P010,2025_Feb_01_1616,CategoryLocalizer,2021.2.3,59.950421002930376,
35.0,35.8,2,0.75,Stimuli\ImageFiles-Set1\Bodies\Bodies_CobraPose_00005.png,0,0,0,47,47,47,,,,,,,,,,,,,35.012922800000524,0.012922800000524148,None,71.98065789999964,71.98065789999964,71.98065789999964,71.98065789999964,71.98065789999964,71.98065789999964,71.98065789999964,71.98065789999964,,003,P010,2025_Feb_01_1616,CategoryLocalizer,2021.2.3,59.950421002930376,
35.8,36.0,5,0.0,Stimuli\Blank.png,0,0,0,48,48,48,,,,,,,,,,,,,35.81296889999794,0.012968899997943595,None,72.78135889999976,72.78135889999976,72.78135889999976,72.78135889999976,72.78135889999976,72.78135889999976,72.78135889999976,72.78135889999976,,003,P010,2025_Feb_01_1616,CategoryLocalizer,2021.2.3,59.950421002930376,
36.0,36.8,2,0.75,Stimuli\ImageFiles-Set1\Bodies\Bodies_Crawling_00006.png,0,0,0,49,49,49,,,,,,,,,,,,,36.01328099999955,0.013280999999551568,None,72.99821990000055,72.99821990000055,72.99821990000055,72.99821990000055,72.99821990000055,72.99821990000055,72.99821990000055,72.99821990000055,,003,P010,2025_Feb_01_1616,CategoryLocalizer,2021.2.3,59.950421002930376,
36.8,37.0,5,0.0,Stimuli\Blank.png,0,0,0,50,50,50,,,,,,,,,,,,,36.83340549999775,0.03340549999775533,None,73.8156095000013,73.8156095000013,73.8156095000013,73.8156095000013,73.8156095000013,73.8156095000013,73.8156095000013,73.8156095000013,,003,P010,2025_Feb_01_1616,CategoryLocalizer,2021.2.3,59.950421002930376,
37.0,37.8,2,0.75,Stimuli\ImageFiles-Set1\Bodies\Bodies_Crawling_00006.png,1,1,0,51,51,51,,,,,,,,,,,,,37.01578560000053,0.015785600000526756,1,73.99911069999871,73.99911069999871,73.99911069999871,73.99911069999871,73.99911069999871,73.99911069999871,73.99911069999871,73.99911069999871,0.5811250000006112,003,P010,2025_Feb_01_1616,CategoryLocalizer,2021.2.3,59.950421002930376,
37.8,38.0,5,0.0,Stimuli\Blank.png,0,0,0,52,52,52,,,,,,,,,,,,,37.81717029999709,0.01717029999709041,None,74.79983150000044,74.79983150000044,74.79983150000044,74.79983150000044,74.79983150000044,74.79983150000044,74.79983150000044,74.79983150000044,,003,P010,2025_Feb_01_1616,CategoryLocalizer,2021.2.3,59.950421002930376,
38.0,38.8,2,0.75,Stimuli\ImageFiles-Set1\Bodies\Bodies_CobraPose_00003.png,0,0,0,53,53,53,,,,,,,,,,,,,38.01576319999731,0.01576319999730913,None,74.98331469999903,74.98331469999903,74.98331469999903,74.98331469999903,74.98331469999903,74.98331469999903,74.98331469999903,74.98331469999903,,003,P010,2025_Feb_01_1616,CategoryLocalizer,2021.2.3,59.950421002930376,
38.8,39.0,5,0.0,Stimuli\Blank.png,0,0,0,54,54,54,,,,,,,,,,,,,38.79913909999959,-0.0008609000004042855,None,75.76733009999953,75.76733009999953,75.76733009999953,75.76733009999953,75.76733009999953,75.76733009999953,75.76733009999953,75.76733009999953,,003,P010,2025_Feb_01_1616,CategoryLocalizer,2021.2.3,59.950421002930376,
39.0,39.8,2,0.75,Stimuli\ImageFiles-Set1\Bodies\Bodies_Falling_00006.png,0,0,0,55,55,55,,,,,,,,,,,,,38.99929619999966,-0.000703800000337651,None,75.96758150000096,75.96758150000096,75.96758150000096,75.96758150000096,75.96758150000096,75.96758150000096,75.96758150000096,75.96758150000096,,003,P010,2025_Feb_01_1616,CategoryLocalizer,2021.2.3,59.950421002930376,
39.8,40.0,5,0.0,Stimuli\Blank.png,0,0,0,56,56,56,,,,,,,,,,,,,39.80149529999835,0.0014952999983535165,None,76.768248700002,76.768248700002,76.768248700002,76.768248700002,76.768248700002,76.768248700002,76.768248700002,76.768248700002,,003,P010,2025_Feb_01_1616,CategoryLocalizer,2021.2.3,59.950421002930376,
40.0,40.8,2,0.75,Stimuli\ImageFiles-Set1\Bodies\Bodies_Lunging_00004.png,0,0,0,57,57,57,,,,,,,,,,,,,40.00157319999926,0.001573199999256758,None,76.9850778,76.9850778,76.9850778,76.9850778,76.9850778,76.9850778,76.9850778,76.9850778,,003,P010,2025_Feb_01_1616,CategoryLocalizer,2021.2.3,59.950421002930376,
40.8,41.0,5,0.0,Stimuli\Blank.png,0,0,0,58,58,58,,,,,,,,,,,,,40.818125800000416,0.01812580000041919,None,77.78579489999902,77.78579489999902,77.78579489999902,77.78579489999902,77.78579489999902,77.78579489999902,77.78579489999902,77.78579489999902,,003,P010,2025_Feb_01_1616,CategoryLocalizer,2021.2.3,59.950421002930376,
41.0,41.8,2,0.75,Stimuli\ImageFiles-Set1\Bodies\Bodies_Walking_00002.png,0,0,0,59,59,59,,,,,,,,,,,,,41.00197560000015,0.0019756000001507346,None,77.96928720000142,77.96928720000142,77.96928720000142,77.96928720000142,77.96928720000142,77.96928720000142,77.96928720000142,77.96928720000142,,003,P010,2025_Feb_01_1616,CategoryLocalizer,2021.2.3,59.950421002930376,
41.8,42.0,5,0.0,Stimuli\Blank.png,0,0,0,60,60,60,,,,,,,,,,,,,41.80306859999837,0.003068599998371724,None,78.77000060000137,78.77000060000137,78.77000060000137,78.77000060000137,78.77000060000137,78.77000060000137,78.77000060000137,78.77000060000137,,003,P010,2025_Feb_01_1616,CategoryLocalizer,2021.2.3,59.950421002930376,
42.0,42.8,2,0.75,Stimuli\ImageFiles-Set1\Bodies\Bodies_SittingFloor_00007.png,0,0,0,61,61,61,,,,,,,,,,,,,42.001858199997514,0.0018581999975140207,None,78.97017549999873,78.97017549999873,78.97017549999873,78.97017549999873,78.97017549999873,78.97017549999873,78.97017549999873,78.97017549999873,,003,P010,2025_Feb_01_1616,CategoryLocalizer,2021.2.3,59.950421002930376,
42.8,43.0,5,0.0,Stimuli\Blank.png,0,0,0,62,62,62,,,,,,,,,,,,,42.80251059999864,0.00251059999864367,None,79.77087649999885,79.77087649999885,79.77087649999885,79.77087649999885,79.77087649999885,79.77087649999885,79.77087649999885,79.77087649999885,,003,P010,2025_Feb_01_1616,CategoryLocalizer,2021.2.3,59.950421002930376,
43.0,43.8,2,0.75,Stimuli\ImageFiles-Set1\Bodies\Bodies_Punching_00006.png,0,0,0,63,63,63,,,,,,,,,,,,,43.00279709999813,0.00279709999813349,None,79.97105260000171,79.97105260000171,79.97105260000171,79.97105260000171,79.97105260000171,79.97105260000171,79.97105260000171,79.97105260000171,,003,P010,2025_Feb_01_1616,CategoryLocalizer,2021.2.3,59.950421002930376,
43.8,44.0,5,0.0,Stimuli\Blank.png,0,0,0,64,64,64,,,,,,,,,,,,,43.803787900000316,0.0037879000003187002,None,80.77176559999862,80.77176559999862,80.77176559999862,80.77176559999862,80.77176559999862,80.77176559999862,80.77176559999862,80.77176559999862,,003,P010,2025_Feb_01_1616,CategoryLocalizer,2021.2.3,59.950421002930376,
44.0,44.8,3,0.75,Stimuli\ImageFiles-Set1\Faces\Face_00075.png,0,0,0,65,65,65,,,,,,,,,,,,,44.004405899999256,0.00440589999925578,None,80.97190079999928,80.97190079999928,80.97190079999928,80.97190079999928,80.97190079999928,80.97190079999928,80.97190079999928,80.97190079999928,,003,P010,2025_Feb_01_1616,CategoryLocalizer,2021.2.3,59.950421002930376,
44.8,45.0,5,0.0,Stimuli\Blank.png,0,0,0,66,66,66,,,,,,,,,,,,,44.80671049999728,0.006710499997282682,None,81.78934060000029,81.78934060000029,81.78934060000029,81.78934060000029,81.78934060000029,81.78934060000029,81.78934060000029,81.78934060000029,,003,P010,2025_Feb_01_1616,CategoryLocalizer,2021.2.3,59.950421002930376,
45.0,45.8,3,0.75,Stimuli\ImageFiles-Set1\Faces\Face_00031.png,0,0,0,67,67,67,,,,,,,,,,,,,45.022408499997255,0.022408499997254694,None,82.00618119999854,82.00618119999854,82.00618119999854,82.00618119999854,82.00618119999854,82.00618119999854,82.00618119999854,82.00618119999854,,003,P010,2025_Feb_01_1616,CategoryLocalizer,2021.2.3,59.950421002930376,
45.8,46.0,5,0.0,Stimuli\Blank.png,0,0,0,68,68,68,,,,,,,,,,,,,45.822030399998766,0.022030399998769212,None,82.79022160000022,82.79022160000022,82.79022160000022,82.79022160000022,82.79022160000022,82.79022160000022,82.79022160000022,82.79022160000022,,003,P010,2025_Feb_01_1616,CategoryLocalizer,2021.2.3,59.950421002930376,
46.0,46.8,3,0.75,Stimuli\ImageFiles-Set1\Faces\Face_00063.png,0,0,0,69,69,69,,,,,,,,,,,,,46.00788339999781,0.007883399997808738,None,82.99044969999886,82.99044969999886,82.99044969999886,82.99044969999886,82.99044969999886,82.99044969999886,82.99044969999886,82.99044969999886,,003,P010,2025_Feb_01_1616,CategoryLocalizer,2021.2.3,59.950421002930376,
46.8,47.0,5,0.0,Stimuli\Blank.png,0,0,0,70,70,70,,,,,,,,,,,,,46.823330799998075,0.023330799998078078,None,83.7911079000005,83.7911079000005,83.7911079000005,83.7911079000005,83.7911079000005,83.7911079000005,83.7911079000005,83.7911079000005,,003,P010,2025_Feb_01_1616,CategoryLocalizer,2021.2.3,59.950421002930376,
47.0,47.8,3,0.75,Stimuli\ImageFiles-Set1\Faces\Face_00014.png,0,0,0,71,71,71,,,,,,,,,,,,,47.00668189999851,0.006681899998511653,None,83.97459349999917,83.97459349999917,83.97459349999917,83.97459349999917,83.97459349999917,83.97459349999917,83.97459349999917,83.97459349999917,,003,P010,2025_Feb_01_1616,CategoryLocalizer,2021.2.3,59.950421002930376,
47.8,48.0,5,0.0,Stimuli\Blank.png,0,0,0,72,72,72,,,,,,,,,,,,,47.8076493999979,0.007649399997902151,None,84.77532509999946,84.77532509999946,84.77532509999946,84.77532509999946,84.77532509999946,84.77532509999946,84.77532509999946,84.77532509999946,,003,P010,2025_Feb_01_1616,CategoryLocalizer,2021.2.3,59.950421002930376,
48.0,48.8,3,0.75,Stimuli\ImageFiles-Set1\Faces\Face_00081.png,0,0,0,73,73,73,,,,,,,,,,,,,48.00777409999864,0.007774099998641759,None,84.99218370000017,84.99218370000017,84.99218370000017,84.99218370000017,84.99218370000017,84.99218370000017,84.99218370000017,84.99218370000017,,003,P010,2025_Feb_01_1616,CategoryLocalizer,2021.2.3,59.950421002930376,
48.8,49.0,5,0.0,Stimuli\Blank.png,0,0,0,74,74,74,,,,,,,,,,,,,48.82679839999764,0.026798399997645106,None,85.80957409999974,85.80957409999974,85.80957409999974,85.80957409999974,85.80957409999974,85.80957409999974,85.80957409999974,85.80957409999974,,003,P010,2025_Feb_01_1616,CategoryLocalizer,2021.2.3,59.950421002930376,
49.0,49.8,3,0.75,Stimuli\ImageFiles-Set1\Faces\Face_00009.png,0,0,0,75,75,75,,,,,,,,,,,,,49.026775700000144,0.026775700000143843,None,86.0097296999993,86.0097296999993,86.0097296999993,86.0097296999993,86.0097296999993,86.0097296999993,86.0097296999993,86.0097296999993,,003,P010,2025_Feb_01_1616,CategoryLocalizer,2021.2.3,59.950421002930376,
49.8,50.0,5,0.0,Stimuli\Blank.png,0,0,0,76,76,76,,,,,,,,,,,,,49.82789489999777,0.027894899997775724,None,86.81044680000196,86.81044680000196,86.81044680000196,86.81044680000196,86.81044680000196,86.81044680000196,86.81044680000196,86.81044680000196,,003,P010,2025_Feb_01_1616,CategoryLocalizer,2021.2.3,59.950421002930376,
50.0,50.8,3,0.75,Stimuli\ImageFiles-Set1\Faces\Face_00016.png,0,0,0,77,77,77,,,,,,,,,,,,,50.02811879999717,0.028118799997173483,None,87.01062380000076,87.01062380000076,87.01062380000076,87.01062380000076,87.01062380000076,87.01062380000076,87.01062380000076,87.01062380000076,,003,P010,2025_Feb_01_1616,CategoryLocalizer,2021.2.3,59.950421002930376,
50.8,51.0,5,0.0,Stimuli\Blank.png,0,0,0,78,78,78,,,,,,,,,,,,,50.82654879999973,0.026548799999730477,None,87.79464550000193,87.79464550000193,87.79464550000193,87.79464550000193,87.79464550000193,87.79464550000193,87.79464550000193,87.79464550000193,,003,P010,2025_Feb_01_1616,CategoryLocalizer,2021.2.3,59.950421002930376,
51.0,51.8,3,0.75,Stimuli\ImageFiles-Set1\Faces\Face_00039.png,0,0,0,79,79,79,,,,,,,,,,,,,51.01134789999924,0.011347899999236688,None,87.9948473000004,87.9948473000004,87.9948473000004,87.9948473000004,87.9948473000004,87.9948473000004,87.9948473000004,87.9948473000004,,003,P010,2025_Feb_01_1616,CategoryLocalizer,2021.2.3,59.950421002930376,
51.8,52.0,5,0.0,Stimuli\Blank.png,0,0,0,80,80,80,,,,,,,,,,,,,51.828632599997945,0.028632599997948205,None,88.81223479999971,88.81223479999971,88.81223479999971,88.81223479999971,88.81223479999971,88.81223479999971,88.81223479999971,88.81223479999971,,003,P010,2025_Feb_01_1616,CategoryLocalizer,2021.2.3,59.950421002930376,
52.0,52.8,3,0.75,Stimuli\ImageFiles-Set1\Faces\Face_00089.png,0,0,0,81,81,81,,,,,,,,,,,,,52.02740350000022,0.027403500000218628,None,88.99570849999873,88.99570849999873,88.99570849999873,88.99570849999873,88.99570849999873,88.99570849999873,88.99570849999873,88.99570849999873,,003,P010,2025_Feb_01_1616,CategoryLocalizer,2021.2.3,59.950421002930376,
52.8,53.0,5,0.0,Stimuli\Blank.png,0,0,0,82,82,82,,,,,,,,,,,,,52.8119947999985,0.01199479999850439,None,89.77976390000185,89.77976390000185,89.77976390000185,89.77976390000185,89.77976390000185,89.77976390000185,89.77976390000185,89.77976390000185,,003,P010,2025_Feb_01_1616,CategoryLocalizer,2021.2.3,59.950421002930376,
53.0,53.8,3,0.75,Stimuli\ImageFiles-Set1\Faces\Face_00085.png,0,0,0,83,83,83,,,,,,,,,,,,,53.01217170000018,0.012171700000180863,None,89.99660180000137,89.99660180000137,89.99660180000137,89.99660180000137,89.99660180000137,89.99660180000137,89.99660180000137,89.99660180000137,,003,P010,2025_Feb_01_1616,CategoryLocalizer,2021.2.3,59.950421002930376,
53.8,54.0,5,0.0,Stimuli\Blank.png,0,0,0,84,84,84,,,,,,,,,,,,,53.82964399999764,0.029643999997645665,None,90.79730080000081,90.79730080000081,90.79730080000081,90.79730080000081,90.79730080000081,90.79730080000081,90.79730080000081,90.79730080000081,,003,P010,2025_Feb_01_1616,CategoryLocalizer,2021.2.3,59.950421002930376,
54.0,54.8,3,0.75,Stimuli\ImageFiles-Set1\Faces\Face_00115.png,0,0,0,85,85,85,,,,,,,,,,,,,54.013012499999604,0.013012499999604188,None,90.98080290000144,90.98080290000144,90.98080290000144,90.98080290000144,90.98080290000144,90.98080290000144,90.98080290000144,90.98080290000144,,003,P010,2025_Feb_01_1616,CategoryLocalizer,2021.2.3,59.950421002930376,
54.8,55.0,5,0.0,Stimuli\Blank.png,0,0,0,86,86,86,,,,,,,,,,,,,54.81450439999753,0.014504399997534279,None,91.7815073999991,91.7815073999991,91.7815073999991,91.7815073999991,91.7815073999991,91.7815073999991,91.7815073999991,91.7815073999991,,003,P010,2025_Feb_01_1616,CategoryLocalizer,2021.2.3,59.950421002930376,
55.0,55.8,3,0.75,Stimuli\ImageFiles-Set1\Faces\Face_00115.png,1,1,0,87,87,87,,,,,,,,,,,,,55.0133926999988,0.013392699998803437,1,91.9816823000001,91.9816823000001,91.9816823000001,91.9816823000001,91.9816823000001,91.9816823000001,91.9816823000001,91.9816823000001,0.5026221000007354,003,P010,2025_Feb_01_1616,CategoryLocalizer,2021.2.3,59.950421002930376,
55.8,56.0,5,0.0,Stimuli\Blank.png,0,0,0,88,88,88,,,,,,,,,,,,,55.814074199999595,0.014074199999598136,None,92.78240000000005,92.78240000000005,92.78240000000005,92.78240000000005,92.78240000000005,92.78240000000005,92.78240000000005,92.78240000000005,,003,P010,2025_Feb_01_1616,CategoryLocalizer,2021.2.3,59.950421002930376,
56.0,56.8,3,0.75,Stimuli\ImageFiles-Set1\Faces\Face_00065.png,0,0,0,89,89,89,,,,,,,,,,,,,56.01432410000052,0.014324100000521867,None,92.9825791000003,92.9825791000003,92.9825791000003,92.9825791000003,92.9825791000003,92.9825791000003,92.9825791000003,92.9825791000003,,003,P010,2025_Feb_01_1616,CategoryLocalizer,2021.2.3,59.950421002930376,
56.8,57.0,5,0.0,Stimuli\Blank.png,0,0,0,90,90,90,,,,,,,,,,,,,56.8168975999979,0.016897599997903967,None,93.79998049999995,93.79998049999995,93.79998049999995,93.79998049999995,93.79998049999995,93.79998049999995,93.79998049999995,93.79998049999995,,003,P010,2025_Feb_01_1616,CategoryLocalizer,2021.2.3,59.950421002930376,
57.0,57.8,3,0.75,Stimuli\ImageFiles-Set1\Faces\Face_00059.png,0,0,0,91,91,91,,,,,,,,,,,,,57.016816199997265,0.016816199997265358,None,94.00013670000044,94.00013670000044,94.00013670000044,94.00013670000044,94.00013670000044,94.00013670000044,94.00013670000044,94.00013670000044,,003,P010,2025_Feb_01_1616,CategoryLocalizer,2021.2.3,59.950421002930376,
57.8,58.0,5,0.0,Stimuli\Blank.png,0,0,0,92,92,92,,,,,,,,,,,,,57.817521599998145,0.017521599998147508,None,94.80088099999921,94.80088099999921,94.80088099999921,94.80088099999921,94.80088099999921,94.80088099999921,94.80088099999921,94.80088099999921,,003,P010,2025_Feb_01_1616,CategoryLocalizer,2021.2.3,59.950421002930376,
58.0,58.8,3,0.75,Stimuli\ImageFiles-Set1\Faces\Face_00020.png,0,0,0,93,93,93,,,,,,,,,,,,,58.01686719999998,0.016867199999978766,None,95.00101509999877,95.00101509999877,95.00101509999877,95.00101509999877,95.00101509999877,95.00101509999877,95.00101509999877,95.00101509999877,,003,P010,2025_Feb_01_1616,CategoryLocalizer,2021.2.3,59.950421002930376,
58.8,59.0,5,0.0,Stimuli\Blank.png,0,0,0,94,94,94,,,,,,,,,,,,,58.817271699997946,0.01727169999794853,None,95.78505700000096,95.78505700000096,95.78505700000096,95.78505700000096,95.78505700000096,95.78505700000096,95.78505700000096,95.78505700000096,,003,P010,2025_Feb_01_1616,CategoryLocalizer,2021.2.3,59.950421002930376,
59.0,59.8,3,0.75,Stimuli\ImageFiles-Set1\Faces\Face_00105.png,0,0,0,95,95,95,,,,,,,,,,,,,59.00242219999927,0.002422199999273289,None,95.98522869999942,95.98522869999942,95.98522869999942,95.98522869999942,95.98522869999942,95.98522869999942,95.98522869999942,95.98522869999942,,003,P010,2025_Feb_01_1616,CategoryLocalizer,2021.2.3,59.950421002930376,
59.8,60.0,5,0.0,Stimuli\Blank.png,0,0,0,96,96,96,,,,,,,,,,,,,59.81831269999748,0.01831269999748031,None,96.78596670000115,96.78596670000115,96.78596670000115,96.78596670000115,96.78596670000115,96.78596670000115,96.78596670000115,96.78596670000115,,003,P010,2025_Feb_01_1616,CategoryLocalizer,2021.2.3,59.950421002930376,
60.0,60.8,4,0.75,Stimuli\ImageFiles-Set1\Scenes\Scenes_017.png,0,0,0,97,97,97,,,,,,,,,,,,,60.001790999998775,0.001790999998775078,None,96.98610729999928,96.98610729999928,96.98610729999928,96.98610729999928,96.98610729999928,96.98610729999928,96.98610729999928,96.98610729999928,,003,P010,2025_Feb_01_1616,CategoryLocalizer,2021.2.3,59.950421002930376,
60.8,61.0,5,0.0,Stimuli\Blank.png,0,0,0,98,98,98,,,,,,,,,,,,,60.819573999997374,0.019573999997376745,None,97.78681399999914,97.78681399999914,97.78681399999914,97.78681399999914,97.78681399999914,97.78681399999914,97.78681399999914,97.78681399999914,,003,P010,2025_Feb_01_1616,CategoryLocalizer,2021.2.3,59.950421002930376,
61.0,61.8,4,0.75,Stimuli\ImageFiles-Set1\Scenes\Scenes_038.png,0,0,0,99,99,99,,,,,,,,,,,,,61.002599100000225,0.0025991000002250075,None,97.98700019999887,97.98700019999887,97.98700019999887,97.98700019999887,97.98700019999887,97.98700019999887,97.98700019999887,97.98700019999887,,003,P010,2025_Feb_01_1616,CategoryLocalizer,2021.2.3,59.950421002930376,
61.8,62.0,5,0.0,Stimuli\Blank.png,0,0,0,100,100,100,,,,,,,,,,,,,61.81956849999915,0.019568499999152777,None,98.78770739999891,98.78770739999891,98.78770739999891,98.78770739999891,98.78770739999891,98.78770739999891,98.78770739999891,98.78770739999891,,003,P010,2025_Feb_01_1616,CategoryLocalizer,2021.2.3,59.950421002930376,
62.0,62.8,4,0.75,Stimuli\ImageFiles-Set1\Scenes\Scenes_050.png,0,0,0,101,101,101,,,,,,,,,,,,,62.00298279999697,0.0029827999969711527,None,98.98788670000067,98.98788670000067,98.98788670000067,98.98788670000067,98.98788670000067,98.98788670000067,98.98788670000067,98.98788670000067,,003,P010,2025_Feb_01_1616,CategoryLocalizer,2021.2.3,59.950421002930376,
62.8,63.0,5,0.0,Stimuli\Blank.png,0,0,0,102,102,102,,,,,,,,,,,,,62.82324239999798,0.023242399997982943,None,99.8052788999994,99.8052788999994,99.8052788999994,99.8052788999994,99.8052788999994,99.8052788999994,99.8052788999994,99.8052788999994,,003,P010,2025_Feb_01_1616,CategoryLocalizer,2021.2.3,59.950421002930376,
63.0,63.8,4,0.75,Stimuli\ImageFiles-Set1\Scenes\Scenes_027.png,0,0,0,103,103,103,,,,,,,,,,,,,63.02136579999933,0.021365799999330193,None,100.00544749999972,100.00544749999972,100.00544749999972,100.00544749999972,100.00544749999972,100.00544749999972,100.00544749999972,100.00544749999972,,003,P010,2025_Feb_01_1616,CategoryLocalizer,2021.2.3,59.950421002930376,
63.8,64.0,5,0.0,Stimuli\Blank.png,0,0,0,104,104,104,,,,,,,,,,,,,63.82168539999839,0.0216853999983897,None,100.78947740000149,100.78947740000149,100.78947740000149,100.78947740000149,100.78947740000149,100.78947740000149,100.78947740000149,100.78947740000149,,003,P010,2025_Feb_01_1616,CategoryLocalizer,2021.2.3,59.950421002930376,
64.0,64.8,4,0.75,Stimuli\ImageFiles-Set1\Scenes\Scenes_036.png,0,0,0,105,105,105,,,,,,,,,,,,,64.00519669999994,0.0051966999999422114,None,100.97294949999923,100.97294949999923,100.97294949999923,100.97294949999923,100.97294949999923,100.97294949999923,100.97294949999923,100.97294949999923,,003,P010,2025_Feb_01_1616,CategoryLocalizer,2021.2.3,59.950421002930376,
64.8,65.0,5,0.0,Stimuli\Blank.png,0,0,0,106,106,106,,,,,,,,,,,,,64.80651980000039,0.006519800000390319,None,101.77369249999902,101.77369249999902,101.77369249999902,101.77369249999902,101.77369249999902,101.77369249999902,101.77369249999902,101.77369249999902,,003,P010,2025_Feb_01_1616,CategoryLocalizer,2021.2.3,59.950421002930376,
65.0,65.8,4,0.75,Stimuli\ImageFiles-Set1\Scenes\Scenes_004.png,0,0,0,107,107,107,,,,,,,,,,,,,65.00732710000011,0.007327100000111386,None,101.99053669999921,101.99053669999921,101.99053669999921,101.99053669999921,101.99053669999921,101.99053669999921,101.99053669999921,101.99053669999921,,003,P010,2025_Feb_01_1616,CategoryLocalizer,2021.2.3,59.950421002930376,
65.8,66.0,5,0.0,Stimuli\Blank.png,0,0,0,108,108,108,,,,,,,,,,,,,65.82337639999969,0.02337639999969099,None,102.79125209999984,102.79125209999984,102.79125209999984,102.79125209999984,102.79125209999984,102.79125209999984,102.79125209999984,102.79125209999984,,003,P010,2025_Feb_01_1616,CategoryLocalizer,2021.2.3,59.950421002930376,
66.0,66.8,4,0.75,Stimuli\ImageFiles-Set1\Scenes\Scenes_004.png,1,1,0,109,109,109,,,,,,,,,,,,,66.00703939999948,0.0070393999994848855,1,102.97475349999877,102.97475349999877,102.97475349999877,102.97475349999877,102.97475349999877,102.97475349999877,102.97475349999877,102.97475349999877,0.3315519000025233,003,P010,2025_Feb_01_1616,CategoryLocalizer,2021.2.3,59.950421002930376,
66.8,67.0,5,0.0,Stimuli\Blank.png,0,0,0,110,110,110,,,,,,,,,,,,,66.80785610000021,0.007856100000211086,None,103.77545309999914,103.77545309999914,103.77545309999914,103.77545309999914,103.77545309999914,103.77545309999914,103.77545309999914,103.77545309999914,,003,P010,2025_Feb_01_1616,CategoryLocalizer,2021.2.3,59.950421002930376,
67.0,67.8,4,0.75,Stimuli\ImageFiles-Set1\Scenes\Scenes_044.png,0,0,0,111,111,111,,,,,,,,,,,,,67.00877979999859,0.008779799998592352,None,103.99233969999841,103.99233969999841,103.99233969999841,103.99233969999841,103.99233969999841,103.99233969999841,103.99233969999841,103.99233969999841,,003,P010,2025_Feb_01_1616,CategoryLocalizer,2021.2.3,59.950421002930376,
67.8,68.0,5,0.0,Stimuli\Blank.png,0,0,0,112,112,112,,,,,,,,,,,,,67.82708060000004,0.02708060000004764,None,104.80970610000077,104.80970610000077,104.80970610000077,104.80970610000077,104.80970610000077,104.80970610000077,104.80970610000077,104.80970610000077,,003,P010,2025_Feb_01_1616,CategoryLocalizer,2021.2.3,59.950421002930376,
68.0,68.8,4,0.75,Stimuli\ImageFiles-Set1\Scenes\Scenes_041.png,0,0,0,113,113,113,,,,,,,,,,,,,68.02757669999846,0.027576699998462573,None,105.00988219999999,105.00988219999999,105.00988219999999,105.00988219999999,105.00988219999999,105.00988219999999,105.00988219999999,105.00988219999999,,003,P010,2025_Feb_01_1616,CategoryLocalizer,2021.2.3,59.950421002930376,
68.8,69.0,5,0.0,Stimuli\Blank.png,0,0,0,114,114,114,,,,,,,,,,,,,68.8273380999999,0.027338099999909105,None,105.81061010000121,105.81061010000121,105.81061010000121,105.81061010000121,105.81061010000121,105.81061010000121,105.81061010000121,105.81061010000121,,003,P010,2025_Feb_01_1616,CategoryLocalizer,2021.2.3,59.950421002930376,
69.0,69.8,4,0.75,Stimuli\ImageFiles-Set1\Scenes\Scenes_032.png,0,0,0,115,115,115,,,,,,,,,,,,,69.02618729999813,0.026187299998127855,None,106.01077639999858,106.01077639999858,106.01077639999858,106.01077639999858,106.01077639999858,106.01077639999858,106.01077639999858,106.01077639999858,,003,P010,2025_Feb_01_1616,CategoryLocalizer,2021.2.3,59.950421002930376,
69.8,70.0,5,0.0,Stimuli\Blank.png,0,0,0,116,116,116,,,,,,,,,,,,,69.82706269999835,0.027062699998353423,None,106.79478530000051,106.79478530000051,106.79478530000051,106.79478530000051,106.79478530000051,106.79478530000051,106.79478530000051,106.79478530000051,,003,P010,2025_Feb_01_1616,CategoryLocalizer,2021.2.3,59.950421002930376,
70.0,70.8,4,0.75,Stimuli\ImageFiles-Set1\Scenes\Scenes_057.png,0,0,0,117,117,117,,,,,,,,,,,,,70.01008530000036,0.010085300000355346,None,106.97830289999911,106.97830289999911,106.97830289999911,106.97830289999911,106.97830289999911,106.97830289999911,106.97830289999911,106.97830289999911,,003,P010,2025_Feb_01_1616,CategoryLocalizer,2021.2.3,59.950421002930376,
70.8,71.0,5,0.0,Stimuli\Blank.png,0,0,0,118,118,118,,,,,,,,,,,,,70.81306019999829,0.013060199998292887,None,107.79569410000113,107.79569410000113,107.79569410000113,107.79569410000113,107.79569410000113,107.79569410000113,107.79569410000113,107.79569410000113,,003,P010,2025_Feb_01_1616,CategoryLocalizer,2021.2.3,59.950421002930376,
71.0,71.8,4,0.75,Stimuli\ImageFiles-Set1\Scenes\Scenes_006.png,0,0,0,119,119,119,,,,,,,,,,,,,71.02820149999752,0.02820149999752175,None,108.01254619999963,108.01254619999963,108.01254619999963,108.01254619999963,108.01254619999963,108.01254619999963,108.01254619999963,108.01254619999963,,003,P010,2025_Feb_01_1616,CategoryLocalizer,2021.2.3,59.950421002930376,
71.8,72.0,5,0.0,Stimuli\Blank.png,0,0,0,120,120,120,,,,,,,,,,,,,71.8286769999977,0.02867699999769968,None,108.79656830000022,108.79656830000022,108.79656830000022,108.79656830000022,108.79656830000022,108.79656830000022,108.79656830000022,108.79656830000022,,003,P010,2025_Feb_01_1616,CategoryLocalizer,2021.2.3,59.950421002930376,
72.0,72.8,4,0.75,Stimuli\ImageFiles-Set1\Scenes\Scenes_033.png,0,0,0,121,121,121,,,,,,,,,,,,,72.01207040000008,0.012070400000084192,None,108.98005679999915,108.98005679999915,108.98005679999915,108.98005679999915,108.98005679999915,108.98005679999915,108.98005679999915,108.98005679999915,,003,P010,2025_Feb_01_1616,CategoryLocalizer,2021.2.3,59.950421002930376,
72.8,73.0,5,0.0,Stimuli\Blank.png,0,0,0,122,122,122,,,,,,,,,,,,,72.81238939999821,0.01238939999821298,None,109.7807662999985,109.7807662999985,109.7807662999985,109.7807662999985,109.7807662999985,109.7807662999985,109.7807662999985,109.7807662999985,,003,P010,2025_Feb_01_1616,CategoryLocalizer,2021.2.3,59.950421002930376,
73.0,73.8,4,0.75,Stimuli\ImageFiles-Set1\Scenes\Scenes_035.png,0,0,0,123,123,123,,,,,,,,,,,,,73.0127055999983,0.012705599998298567,None,109.98097549999875,109.98097549999875,109.98097549999875,109.98097549999875,109.98097549999875,109.98097549999875,109.98097549999875,109.98097549999875,,003,P010,2025_Feb_01_1616,CategoryLocalizer,2021.2.3,59.950421002930376,
73.8,74.0,5,0.0,Stimuli\Blank.png,0,0,0,124,124,124,,,,,,,,,,,,,73.81327129999772,0.013271299997725805,None,110.78166060000149,110.78166060000149,110.78166060000149,110.78166060000149,110.78166060000149,110.78166060000149,110.78166060000149,110.78166060000149,,003,P010,2025_Feb_01_1616,CategoryLocalizer,2021.2.3,59.950421002930376,
74.0,74.8,4,0.75,Stimuli\ImageFiles-Set1\Scenes\Scenes_058.png,0,0,0,125,125,125,,,,,,,,,,,,,74.0144349000002,0.014434900000196649,None,110.99850249999872,110.99850249999872,110.99850249999872,110.99850249999872,110.99850249999872,110.99850249999872,110.99850249999872,110.99850249999872,,003,P010,2025_Feb_01_1616,CategoryLocalizer,2021.2.3,59.950421002930376,
74.8,75.0,5,0.0,Stimuli\Blank.png,0,0,0,126,126,126,,,,,,,,,,,,,74.83165109999754,0.03165109999754634,None,111.79922159999842,111.79922159999842,111.79922159999842,111.79922159999842,111.79922159999842,111.79922159999842,111.79922159999842,111.79922159999842,,003,P010,2025_Feb_01_1616,CategoryLocalizer,2021.2.3,59.950421002930376,
75.0,75.8,4,0.75,Stimuli\ImageFiles-Set1\Scenes\Scenes_037.png,0,0,0,127,127,127,,,,,,,,,,,,,75.01678579999862,0.016785799998615403,None,111.99940219999917,111.99940219999917,111.99940219999917,111.99940219999917,111.99940219999917,111.99940219999917,111.99940219999917,111.99940219999917,,003,P010,2025_Feb_01_1616,CategoryLocalizer,2021.2.3,59.950421002930376,
75.8,76.0,5,0.0,Stimuli\Blank.png,0,0,0,128,128,128,,,,,,,,,,,,,75.81746819999898,0.01746819999898719,None,112.80012279999937,112.80012279999937,112.80012279999937,112.80012279999937,112.80012279999937,112.80012279999937,112.80012279999937,112.80012279999937,,003,P010,2025_Feb_01_1616,CategoryLocalizer,2021.2.3,59.950421002930376,
76.0,88.0,0,0.0,Stimuli\Blank.png,0,0,0,129,129,129,,,,,,,,,,,,,76.01619129999744,0.01619129999744473,None,112.98360110000067,112.98360110000067,112.98360110000067,112.98360110000067,112.98360110000067,112.98360110000067,112.98360110000067,112.98360110000067,,003,P010,2025_Feb_01_1616,CategoryLocalizer,2021.2.3,59.950421002930376,
88.0,88.8,3,0.75,Stimuli\ImageFiles-Set1\Faces\Face_00117.png,0,0,0,130,130,130,,,,,,,,,,,,,88.00984249999965,0.00984249999964959,None,124.97754410000198,124.97754410000198,124.97754410000198,124.97754410000198,124.97754410000198,124.97754410000198,124.97754410000198,124.97754410000198,,003,P010,2025_Feb_01_1616,CategoryLocalizer,2021.2.3,59.950421002930376,
88.8,89.0,5,0.0,Stimuli\Blank.png,0,0,0,131,131,131,,,,,,,,,,,,,88.81184969999958,0.01184969999958696,None,125.79491400000188,125.79491400000188,125.79491400000188,125.79491400000188,125.79491400000188,125.79491400000188,125.79491400000188,125.79491400000188,,003,P010,2025_Feb_01_1616,CategoryLocalizer,2021.2.3,59.950421002930376,
89.0,89.8,3,0.75,Stimuli\ImageFiles-Set1\Faces\Face_00099.png,0,0,0,132,132,132,,,,,,,,,,,,,89.02793589999783,0.02793589999782853,None,126.01179390000107,126.01179390000107,126.01179390000107,126.01179390000107,126.01179390000107,126.01179390000107,126.01179390000107,126.01179390000107,,003,P010,2025_Feb_01_1616,CategoryLocalizer,2021.2.3,59.950421002930376,
89.8,90.0,5,0.0,Stimuli\Blank.png,0,0,0,133,133,133,,,,,,,,,,,,,89.82758869999816,0.02758869999816227,None,126.79581909999979,126.79581909999979,126.79581909999979,126.79581909999979,126.79581909999979,126.79581909999979,126.79581909999979,126.79581909999979,,003,P010,2025_Feb_01_1616,CategoryLocalizer,2021.2.3,59.950421002930376,
90.0,90.8,3,0.75,Stimuli\ImageFiles-Set1\Faces\Face_00099.png,1,1,0,134,134,134,,,,,,,,,,,,,90.0114794000001,0.011479400000098394,1,126.97931230000177,126.97931230000177,126.97931230000177,126.97931230000177,126.97931230000177,126.97931230000177,126.97931230000177,126.97931230000177,0.42203689999951166,003,P010,2025_Feb_01_1616,CategoryLocalizer,2021.2.3,59.950421002930376,
90.8,91.0,5,0.0,Stimuli\Blank.png,0,0,0,135,135,135,,,,,,,,,,,,,90.81185279999772,0.011852799997726038,None,127.78003399999943,127.78003399999943,127.78003399999943,127.78003399999943,127.78003399999943,127.78003399999943,127.78003399999943,127.78003399999943,,003,P010,2025_Feb_01_1616,CategoryLocalizer,2021.2.3,59.950421002930376,
91.0,91.8,3,0.75,Stimuli\ImageFiles-Set1\Faces\Face_00083.png,0,0,0,136,136,136,,,,,,,,,,,,,91.0124539999997,0.012453999999706866,None,127.99688009999954,127.99688009999954,127.99688009999954,127.99688009999954,127.99688009999954,127.99688009999954,127.99688009999954,127.99688009999954,,003,P010,2025_Feb_01_1616,CategoryLocalizer,2021.2.3,59.950421002930376,
91.8,92.0,5,0.0,Stimuli\Blank.png,0,0,0,137,137,137,,,,,,,,,,,,,91.8316906,0.031690600000004565,None,128.81429560000106,128.81429560000106,128.81429560000106,128.81429560000106,128.81429560000106,128.81429560000106,128.81429560000106,128.81429560000106,,003,P010,2025_Feb_01_1616,CategoryLocalizer,2021.2.3,59.950421002930376,
92.0,92.8,3,0.75,Stimuli\ImageFiles-Set1\Faces\Face_00107.png,0,0,0,138,138,138,,,,,,,,,,,,,92.02939059999699,0.029390599996986566,None,128.9977669,128.9977669,128.9977669,128.9977669,128.9977669,128.9977669,128.9977669,128.9977669,,003,P010,2025_Feb_01_1616,CategoryLocalizer,2021.2.3,59.950421002930376,
92.8,93.0,5,0.0,Stimuli\Blank.png,0,0,0,139,139,139,,,,,,,,,,,,,92.81356759999835,0.01356759999835333,None,129.78180000000066,129.78180000000066,129.78180000000066,129.78180000000066,129.78180000000066,129.78180000000066,129.78180000000066,129.78180000000066,,003,P010,2025_Feb_01_1616,CategoryLocalizer,2021.2.3,59.950421002930376,
93.0,93.8,3,0.75,Stimuli\ImageFiles-Set1\Faces\Face_00033.png,0,0,0,140,140,140,,,,,,,,,,,,,93.01441239999986,0.014412399999855552,None,129.99868119999883,129.99868119999883,129.99868119999883,129.99868119999883,129.99868119999883,129.99868119999883,129.99868119999883,129.99868119999883,,003,P010,2025_Feb_01_1616,CategoryLocalizer,2021.2.3,59.950421002930376,
93.8,94.0,5,0.0,Stimuli\Blank.png,0,0,0,141,141,141,,,,,,,,,,,,,93.83174949999739,0.03174949999738885,None,130.79936910000106,130.79936910000106,130.79936910000106,130.79936910000106,130.79936910000106,130.79936910000106,130.79936910000106,130.79936910000106,,003,P010,2025_Feb_01_1616,CategoryLocalizer,2021.2.3,59.950421002930376,
94.0,94.8,3,0.75,Stimuli\ImageFiles-Set1\Faces\Face_00001.png,0,0,0,142,142,142,,,,,,,,,,,,,94.01464209999904,0.014642099999036873,None,130.98285820000092,130.98285820000092,130.98285820000092,130.98285820000092,130.98285820000092,130.98285820000092,130.98285820000092,130.98285820000092,,003,P010,2025_Feb_01_1616,CategoryLocalizer,2021.2.3,59.950421002930376,
94.8,95.0,5,0.0,Stimuli\Blank.png,0,0,0,143,143,143,,,,,,,,,,,,,94.81589179999719,0.015891799997191924,None,131.78361930000028,131.78361930000028,131.78361930000028,131.78361930000028,131.78361930000028,131.78361930000028,131.78361930000028,131.78361930000028,,003,P010,2025_Feb_01_1616,CategoryLocalizer,2021.2.3,59.950421002930376,
95.0,95.8,3,0.75,Stimuli\ImageFiles-Set1\Faces\Face_00097.png,0,0,0,144,144,144,,,,,,,,,,,,,94.99915129999863,-0.0008487000013701618,None,131.96707049999895,131.96707049999895,131.96707049999895,131.96707049999895,131.96707049999895,131.96707049999895,131.96707049999895,131.96707049999895,,003,P010,2025_Feb_01_1616,CategoryLocalizer,2021.2.3,59.950421002930376,
95.8,96.0,5,0.0,Stimuli\Blank.png,0,0,0,145,145,145,,,,,,,,,,,,,95.80218949999835,0.0021894999983516072,None,132.784451800002,132.784451800002,132.784451800002,132.784451800002,132.784451800002,132.784451800002,132.784451800002,132.784451800002,,003,P010,2025_Feb_01_1616,CategoryLocalizer,2021.2.3,59.950421002930376,
96.0,96.8,3,0.75,Stimuli\ImageFiles-Set1\Faces\Face_00093.png,0,0,0,146,146,146,,,,,,,,,,,,,96.01740849999987,0.01740849999987404,None,133.00131150000016,133.00131150000016,133.00131150000016,133.00131150000016,133.00131150000016,133.00131150000016,133.00131150000016,133.00131150000016,,003,P010,2025_Feb_01_1616,CategoryLocalizer,2021.2.3,59.950421002930376,
96.8,97.0,5,0.0,Stimuli\Blank.png,0,0,0,147,147,147,,,,,,,,,,,,,96.8180489999977,0.018048999997702708,None,133.78534850000142,133.78534850000142,133.78534850000142,133.78534850000142,133.78534850000142,133.78534850000142,133.78534850000142,133.78534850000142,,003,P010,2025_Feb_01_1616,CategoryLocalizer,2021.2.3,59.950421002930376,
97.0,97.8,3,0.75,Stimuli\ImageFiles-Set1\Faces\Face_00043.png,0,0,0,148,148,148,,,,,,,,,,,,,97.00293549999697,0.0029354999969655182,None,133.98552669999845,133.98552669999845,133.98552669999845,133.98552669999845,133.98552669999845,133.98552669999845,133.98552669999845,133.98552669999845,,003,P010,2025_Feb_01_1616,CategoryLocalizer,2021.2.3,59.950421002930376,
97.8,98.0,5,0.0,Stimuli\Blank.png,0,0,0,149,149,149,,,,,,,,,,,,,97.81813969999712,0.018139699997121284,None,134.78623439999865,134.78623439999865,134.78623439999865,134.78623439999865,134.78623439999865,134.78623439999865,134.78623439999865,134.78623439999865,,003,P010,2025_Feb_01_1616,CategoryLocalizer,2021.2.3,59.950421002930376,
98.0,98.8,3,0.75,Stimuli\ImageFiles-Set1\Faces\Face_00061.png,1,1,0,150,150,150,,,,,,,,,,,,,98.00294109999959,0.002941099999588914,None,134.9864153999988,134.9864153999988,134.9864153999988,134.9864153999988,134.9864153999988,134.9864153999988,134.9864153999988,134.9864153999988,,003,P010,2025_Feb_01_1616,CategoryLocalizer,2021.2.3,59.950421002930376,
98.8,99.0,5,0.0,Stimuli\Blank.png,0,0,0,151,151,151,,,,,,,,,,,,,98.81935279999743,0.019352799997435,None,135.78710839999985,135.78710839999985,135.78710839999985,135.78710839999985,135.78710839999985,135.78710839999985,135.78710839999985,135.78710839999985,,003,P010,2025_Feb_01_1616,CategoryLocalizer,2021.2.3,59.950421002930376,
99.0,99.8,3,0.75,Stimuli\ImageFiles-Set1\Faces\Face_00077.png,0,0,0,152,152,152,,,,,,,,,,,,,99.00299669999731,0.002996699997311225,None,135.9873133000001,135.9873133000001,135.9873133000001,135.9873133000001,135.9873133000001,135.9873133000001,135.9873133000001,135.9873133000001,,003,P010,2025_Feb_01_1616,CategoryLocalizer,2021.2.3,59.950421002930376,
99.8,100.0,5,0.0,Stimuli\Blank.png,0,0,0,153,153,153,,,,,,,,,,,,,99.81963149999865,0.019631499998652657,None,136.78800000000047,136.78800000000047,136.78800000000047,136.78800000000047,136.78800000000047,136.78800000000047,136.78800000000047,136.78800000000047,,003,P010,2025_Feb_01_1616,CategoryLocalizer,2021.2.3,59.950421002930376,
100.0,100.8,3,0.75,Stimuli\ImageFiles-Set1\Faces\Face_00077.png,0,0,0,154,154,154,,,,,,,,,,,,,100.00318909999987,0.003189099999872269,1,136.98820930000147,136.98820930000147,136.98820930000147,136.98820930000147,136.98820930000147,136.98820930000147,136.98820930000147,136.98820930000147,0.7011650999993435,003,P010,2025_Feb_01_1616,CategoryLocalizer,2021.2.3,59.950421002930376,
100.8,101.0,5,0.0,Stimuli\Blank.png,0,0,0,155,155,155,,,,,,,,,,,,,100.82343860000037,0.02343860000037523,None,137.80557520000002,137.80557520000002,137.80557520000002,137.80557520000002,137.80557520000002,137.80557520000002,137.80557520000002,137.80557520000002,,003,P010,2025_Feb_01_1616,CategoryLocalizer,2021.2.3,59.950421002930376,
101.0,101.8,3,0.75,Stimuli\ImageFiles-Set1\Faces\Face_00067.png,0,0,0,156,156,156,,,,,,,,,,,,,101.02137159999984,0.02137159999983851,None,138.0057330999989,138.0057330999989,138.0057330999989,138.0057330999989,138.0057330999989,138.0057330999989,138.0057330999989,138.0057330999989,,003,P010,2025_Feb_01_1616,CategoryLocalizer,2021.2.3,59.950421002930376,
101.8,102.0,5,0.0,Stimuli\Blank.png,0,0,0,157,157,157,,,,,,,,,,,,,101.82206059999953,0.022060599999534247,None,138.7897742999994,138.7897742999994,138.7897742999994,138.7897742999994,138.7897742999994,138.7897742999994,138.7897742999994,138.7897742999994,,003,P010,2025_Feb_01_1616,CategoryLocalizer,2021.2.3,59.950421002930376,
102.0,102.8,3,0.75,Stimuli\ImageFiles-Set1\Faces\Face_00111.png,0,0,0,158,158,158,,,,,,,,,,,,,102.0054648999976,0.005464899997605244,None,138.97326280000198,138.97326280000198,138.97326280000198,138.97326280000198,138.97326280000198,138.97326280000198,138.97326280000198,138.97326280000198,,003,P010,2025_Feb_01_1616,CategoryLocalizer,2021.2.3,59.950421002930376,
102.8,103.0,5,0.0,Stimuli\Blank.png,0,0,0,159,159,159,,,,,,,,,,,,,102.80814339999779,0.00814339999779179,None,139.79065990000163,139.79065990000163,139.79065990000163,139.79065990000163,139.79065990000163,139.79065990000163,139.79065990000163,139.79065990000163,,003,P010,2025_Feb_01_1616,CategoryLocalizer,2021.2.3,59.950421002930376,
103.0,103.8,3,0.75,Stimuli\ImageFiles-Set1\Faces\Face_00007.png,0,0,0,160,160,160,,,,,,,,,,,,,103.02313739999954,0.02313739999954123,None,140.0075007000014,140.0075007000014,140.0075007000014,140.0075007000014,140.0075007000014,140.0075007000014,140.0075007000014,140.0075007000014,,003,P010,2025_Feb_01_1616,CategoryLocalizer,2021.2.3,59.950421002930376,
103.8,104.0,5,0.0,Stimuli\Blank.png,0,0,0,161,161,161,,,,,,,,,,,,,103.82388119999814,0.023881199998143643,None,140.79155430000174,140.79155430000174,140.79155430000174,140.79155430000174,140.79155430000174,140.79155430000174,140.79155430000174,140.79155430000174,,003,P010,2025_Feb_01_1616,CategoryLocalizer,2021.2.3,59.950421002930376,
104.0,104.8,1,0.75,Stimuli\ImageFiles-Set1\Objects\Object_Watch_00001.png,0,0,0,162,162,162,,,,,,,,,,,,,104.00672379999742,0.006723799997416791,None,140.9750387999993,140.9750387999993,140.9750387999993,140.9750387999993,140.9750387999993,140.9750387999993,140.9750387999993,140.9750387999993,,003,P010,2025_Feb_01_1616,CategoryLocalizer,2021.2.3,59.950421002930376,
104.8,105.0,5,0.0,Stimuli\Blank.png,0,0,0,163,163,163,,,,,,,,,,,,,104.80762799999866,0.007627999998661039,None,141.7757390000006,141.7757390000006,141.7757390000006,141.7757390000006,141.7757390000006,141.7757390000006,141.7757390000006,141.7757390000006,,003,P010,2025_Feb_01_1616,CategoryLocalizer,2021.2.3,59.950421002930376,
105.0,105.8,1,0.75,Stimuli\ImageFiles-Set1\Objects\Object_Wagon_00001.png,0,0,0,164,164,164,,,,,,,,,,,,,105.00849029999881,0.008490299998811679,None,141.9925989000003,141.9925989000003,141.9925989000003,141.9925989000003,141.9925989000003,141.9925989000003,141.9925989000003,141.9925989000003,,003,P010,2025_Feb_01_1616,CategoryLocalizer,2021.2.3,59.950421002930376,
105.8,106.0,5,0.0,Stimuli\Blank.png,0,0,0,165,165,165,,,,,,,,,,,,,105.82683410000027,0.026834100000272088,None,142.81001390000165,142.81001390000165,142.81001390000165,142.81001390000165,142.81001390000165,142.81001390000165,142.81001390000165,142.81001390000165,,003,P010,2025_Feb_01_1616,CategoryLocalizer,2021.2.3,59.950421002930376,
106.0,106.8,1,0.75,Stimuli\ImageFiles-Set1\Objects\Object_Wagon_00001.png,1,1,0,166,166,166,,,,,,,,,,,,,106.0274599000004,0.027459900000394555,1,143.0102106000013,143.0102106000013,143.0102106000013,143.0102106000013,143.0102106000013,143.0102106000013,143.0102106000013,143.0102106000013,0.5123301999992691,003,P010,2025_Feb_01_1616,CategoryLocalizer,2021.2.3,59.950421002930376,
106.8,107.0,5,0.0,Stimuli\Blank.png,0,0,0,167,167,167,,,,,,,,,,,,,106.82602349999797,0.02602349999797582,None,143.79425479999918,143.79425479999918,143.79425479999918,143.79425479999918,143.79425479999918,143.79425479999918,143.79425479999918,143.79425479999918,,003,P010,2025_Feb_01_1616,CategoryLocalizer,2021.2.3,59.950421002930376,
107.0,107.8,1,0.75,Stimuli\ImageFiles-Set1\Objects\Object_Ring_00001.png,0,0,0,168,168,168,,,,,,,,,,,,,107.00947309999901,0.009473099999013357,None,143.9776935000009,143.9776935000009,143.9776935000009,143.9776935000009,143.9776935000009,143.9776935000009,143.9776935000009,143.9776935000009,,003,P010,2025_Feb_01_1616,CategoryLocalizer,2021.2.3,59.950421002930376,
107.8,108.0,5,0.0,Stimuli\Blank.png,0,0,0,169,169,169,,,,,,,,,,,,,107.81197149999934,0.011971499999347657,None,144.79508400000122,144.79508400000122,144.79508400000122,144.79508400000122,144.79508400000122,144.79508400000122,144.79508400000122,144.79508400000122,,003,P010,2025_Feb_01_1616,CategoryLocalizer,2021.2.3,59.950421002930376,
108.0,108.8,1,0.75,Stimuli\ImageFiles-Set1\Objects\Object_Chest_00001.png,0,0,0,170,170,170,,,,,,,,,,,,,108.02757070000007,0.027570700000069337,None,144.9952555000018,144.9952555000018,144.9952555000018,144.9952555000018,144.9952555000018,144.9952555000018,144.9952555000018,144.9952555000018,,003,P010,2025_Feb_01_1616,CategoryLocalizer,2021.2.3,59.950421002930376,
108.8,109.0,5,0.0,Stimuli\Blank.png,0,0,0,171,171,171,,,,,,,,,,,,,108.81253279999873,0.012532799998737687,None,145.77930610000112,145.77930610000112,145.77930610000112,145.77930610000112,145.77930610000112,145.77930610000112,145.77930610000112,145.77930610000112,,003,P010,2025_Feb_01_1616,CategoryLocalizer,2021.2.3,59.950421002930376,
109.0,109.8,1,0.75,Stimuli\ImageFiles-Set1\Objects\Object_ComputerMouse_00001.png,0,0,0,172,172,172,,,,,,,,,,,,,109.01113160000023,0.011131600000226172,None,145.97943189999933,145.97943189999933,145.97943189999933,145.97943189999933,145.97943189999933,145.97943189999933,145.97943189999933,145.97943189999933,,003,P010,2025_Feb_01_1616,CategoryLocalizer,2021.2.3,59.950421002930376,
109.8,110.0,5,0.0,Stimuli\Blank.png,0,0,0,173,173,173,,,,,,,,,,,,,109.81249449999814,0.012494499998140896,None,146.7801842000008,146.7801842000008,146.7801842000008,146.7801842000008,146.7801842000008,146.7801842000008,146.7801842000008,146.7801842000008,,003,P010,2025_Feb_01_1616,CategoryLocalizer,2021.2.3,59.950421002930376,
110.0,110.8,1,0.75,Stimuli\ImageFiles-Set1\Objects\Object_Door_00001.png,0,0,0,174,174,174,,,,,,,,,,,,,110.01219149999815,0.012191499998152722,None,146.98034560000087,146.98034560000087,146.98034560000087,146.98034560000087,146.98034560000087,146.98034560000087,146.98034560000087,146.98034560000087,,003,P010,2025_Feb_01_1616,CategoryLocalizer,2021.2.3,59.950421002930376,
110.8,111.0,5,0.0,Stimuli\Blank.png,0,0,0,175,175,175,,,,,,,,,,,,,110.81368339999972,0.013683399999720791,None,147.7810645999998,147.7810645999998,147.7810645999998,147.7810645999998,147.7810645999998,147.7810645999998,147.7810645999998,147.7810645999998,,003,P010,2025_Feb_01_1616,CategoryLocalizer,2021.2.3,59.950421002930376,
111.0,111.8,1,0.75,Stimuli\ImageFiles-Set1\Objects\Object_Pizza_00001.png,0,0,0,176,176,176,,,,,,,,,,,,,111.01369279999926,0.013692799999262206,None,147.98122919999878,147.98122919999878,147.98122919999878,147.98122919999878,147.98122919999878,147.98122919999878,147.98122919999878,147.98122919999878,,003,P010,2025_Feb_01_1616,CategoryLocalizer,2021.2.3,59.950421002930376,
111.8,112.0,5,0.0,Stimuli\Blank.png,0,0,0,177,177,177,,,,,,,,,,,,,111.81459449999966,0.014594499999660115,None,148.7819473999989,148.7819473999989,148.7819473999989,148.7819473999989,148.7819473999989,148.7819473999989,148.7819473999989,148.7819473999989,,003,P010,2025_Feb_01_1616,CategoryLocalizer,2021.2.3,59.950421002930376,
112.0,112.8,1,0.75,Stimuli\ImageFiles-Set1\Objects\Object_PepperShaker_00001.png,0,0,0,178,178,178,,,,,,,,,,,,,112.01464560000022,0.014645600000221748,None,148.99880779999876,148.99880779999876,148.99880779999876,148.99880779999876,148.99880779999876,148.99880779999876,148.99880779999876,148.99880779999876,,003,P010,2025_Feb_01_1616,CategoryLocalizer,2021.2.3,59.950421002930376,
112.8,113.0,5,0.0,Stimuli\Blank.png,0,0,0,179,179,179,,,,,,,,,,,,,112.83199459999742,0.03199459999741805,None,149.7996176000015,149.7996176000015,149.7996176000015,149.7996176000015,149.7996176000015,149.7996176000015,149.7996176000015,149.7996176000015,,003,P010,2025_Feb_01_1616,CategoryLocalizer,2021.2.3,59.950421002930376,
113.0,113.8,1,0.75,Stimuli\ImageFiles-Set1\Objects\Object_Book_00001.png,0,0,0,180,180,180,,,,,,,,,,,,,113.01473789999727,0.014737899997271597,None,149.98303250000026,149.98303250000026,149.98303250000026,149.98303250000026,149.98303250000026,149.98303250000026,149.98303250000026,149.98303250000026,,003,P010,2025_Feb_01_1616,CategoryLocalizer,2021.2.3,59.950421002930376,
113.8,114.0,5,0.0,Stimuli\Blank.png,0,0,0,181,181,181,,,,,,,,,,,,,113.81601559999763,0.016015599997629693,None,150.78381509999963,150.78381509999963,150.78381509999963,150.78381509999963,150.78381509999963,150.78381509999963,150.78381509999963,150.78381509999963,,003,P010,2025_Feb_01_1616,CategoryLocalizer,2021.2.3,59.950421002930376,
114.0,114.8,1,0.75,Stimuli\ImageFiles-Set1\Objects\Object_Oven_00001.png,0,0,0,182,182,182,,,,,,,,,,,,,113.99959259999741,-0.0004074000025866553,None,150.9838869999985,150.9838869999985,150.9838869999985,150.9838869999985,150.9838869999985,150.9838869999985,150.9838869999985,150.9838869999985,,003,P010,2025_Feb_01_1616,CategoryLocalizer,2021.2.3,59.950421002930376,
114.8,115.0,5,0.0,Stimuli\Blank.png,0,0,0,183,183,183,,,,,,,,,,,,,114.81787319999785,0.017873199997850975,None,151.78460479999922,151.78460479999922,151.78460479999922,151.78460479999922,151.78460479999922,151.78460479999922,151.78460479999922,151.78460479999922,,003,P010,2025_Feb_01_1616,CategoryLocalizer,2021.2.3,59.950421002930376,
115.0,115.8,1,0.75,Stimuli\ImageFiles-Set1\Objects\Object_Tool_00001.png,0,0,0,184,184,184,,,,,,,,,,,,,115.00176549999742,0.0017654999974183738,None,151.98477650000132,151.98477650000132,151.98477650000132,151.98477650000132,151.98477650000132,151.98477650000132,151.98477650000132,151.98477650000132,,003,P010,2025_Feb_01_1616,CategoryLocalizer,2021.2.3,59.950421002930376,
115.8,116.0,5,0.0,Stimuli\Blank.png,0,0,0,185,185,185,,,,,,,,,,,,,115.81822669999747,0.018226699997470064,None,152.7854933999988,152.7854933999988,152.7854933999988,152.7854933999988,152.7854933999988,152.7854933999988,152.7854933999988,152.7854933999988,,003,P010,2025_Feb_01_1616,CategoryLocalizer,2021.2.3,59.950421002930376,
116.0,116.8,1,0.75,Stimuli\ImageFiles-Set1\Objects\Object_Bed_00001.png,1,1,0,186,186,186,,,,,,,,,,,,,116.00240850000046,0.0024085000004561152,None,152.98566610000125,152.98566610000125,152.98566610000125,152.98566610000125,152.98566610000125,152.98566610000125,152.98566610000125,152.98566610000125,,003,P010,2025_Feb_01_1616,CategoryLocalizer,2021.2.3,59.950421002930376,
116.8,117.0,5,0.0,Stimuli\Blank.png,0,0,0,187,187,187,,,,,,,,,,,,,116.8185104999975,0.01851049999750387,None,153.78639029999977,153.78639029999977,153.78639029999977,153.78639029999977,153.78639029999977,153.78639029999977,153.78639029999977,153.78639029999977,,003,P010,2025_Feb_01_1616,CategoryLocalizer,2021.2.3,59.950421002930376,
117.0,117.8,1,0.75,Stimuli\ImageFiles-Set1\Objects\Object_Pillow_00001.png,0,0,0,188,188,188,,,,,,,,,,,,,117.00212349999856,0.002123499998560874,None,153.9698763999986,153.9698763999986,153.9698763999986,153.9698763999986,153.9698763999986,153.9698763999986,153.9698763999986,153.9698763999986,,003,P010,2025_Feb_01_1616,CategoryLocalizer,2021.2.3,59.950421002930376,
117.8,118.0,5,0.0,Stimuli\Blank.png,0,0,0,189,189,189,,,,,,,,,,,,,117.80272969999714,0.002729699997146895,None,154.77057920000152,154.77057920000152,154.77057920000152,154.77057920000152,154.77057920000152,154.77057920000152,154.77057920000152,154.77057920000152,,003,P010,2025_Feb_01_1616,CategoryLocalizer,2021.2.3,59.950421002930376,
118.0,118.8,1,0.75,Stimuli\ImageFiles-Set1\Objects\Object_Pillow_00001.png,0,0,0,190,190,190,,,,,,,,,,,,,118.00300479999714,0.0030047999971429817,1,154.98744920000172,154.98744920000172,154.98744920000172,154.98744920000172,154.98744920000172,154.98744920000172,154.98744920000172,154.98744920000172,0.4109513000003062,003,P010,2025_Feb_01_1616,CategoryLocalizer,2021.2.3,59.950421002930376,
118.8,119.0,5,0.0,Stimuli\Blank.png,0,0,0,191,191,191,,,,,,,,,,,,,118.82051789999969,0.020517899999688893,None,155.78814789999888,155.78814789999888,155.78814789999888,155.78814789999888,155.78814789999888,155.78814789999888,155.78814789999888,155.78814789999888,,003,P010,2025_Feb_01_1616,CategoryLocalizer,2021.2.3,59.950421002930376,
119.0,119.8,1,0.75,Stimuli\ImageFiles-Set1\Objects\Object_Sock_00001.png,0,0,0,192,192,192,,,,,,,,,,,,,119.00342280000041,0.003422800000407733,None,155.9716413999995,155.9716413999995,155.9716413999995,155.9716413999995,155.9716413999995,155.9716413999995,155.9716413999995,155.9716413999995,,003,P010,2025_Feb_01_1616,CategoryLocalizer,2021.2.3,59.950421002930376,
119.8,120.0,5,0.0,Stimuli\Blank.png,0,0,0,193,193,193,,,,,,,,,,,,,119.80546809999942,0.005468099999418996,None,156.7723533999997,156.7723533999997,156.7723533999997,156.7723533999997,156.7723533999997,156.7723533999997,156.7723533999997,156.7723533999997,,003,P010,2025_Feb_01_1616,CategoryLocalizer,2021.2.3,59.950421002930376,
120.0,120.8,4,0.75,Stimuli\ImageFiles-Set1\Scenes\Scenes_025.png,0,0,0,194,194,194,,,,,,,,,,,,,120.00408669999888,0.0040866999988793395,None,156.97252229999867,156.97252229999867,156.97252229999867,156.97252229999867,156.97252229999867,156.97252229999867,156.97252229999867,156.97252229999867,,003,P010,2025_Feb_01_1616,CategoryLocalizer,2021.2.3,59.950421002930376,
120.8,121.0,5,0.0,Stimuli\Blank.png,0,0,0,195,195,195,,,,,,,,,,,,,120.80681639999966,0.006816399999664213,None,157.7899284999985,157.7899284999985,157.7899284999985,157.7899284999985,157.7899284999985,157.7899284999985,157.7899284999985,157.7899284999985,,003,P010,2025_Feb_01_1616,CategoryLocalizer,2021.2.3,59.950421002930376,
121.0,121.8,4,0.75,Stimuli\ImageFiles-Set1\Scenes\Scenes_025.png,1,1,0,196,196,196,,,,,,,,,,,,,121.02269389999856,0.022693899998557754,1,158.0067663000009,158.0067663000009,158.0067663000009,158.0067663000009,158.0067663000009,158.0067663000009,158.0067663000009,158.0067663000009,0.3949944999985746,003,P010,2025_Feb_01_1616,CategoryLocalizer,2021.2.3,59.950421002930376,
121.8,122.0,5,0.0,Stimuli\Blank.png,0,0,0,197,197,197,,,,,,,,,,,,,121.8232986999974,0.02329869999739742,None,158.79079899999851,158.79079899999851,158.79079899999851,158.79079899999851,158.79079899999851,158.79079899999851,158.79079899999851,158.79079899999851,,003,P010,2025_Feb_01_1616,CategoryLocalizer,2021.2.3,59.950421002930376,
122.0,122.8,4,0.75,Stimuli\ImageFiles-Set1\Scenes\Scenes_014.png,0,0,0,198,198,198,,,,,,,,,,,,,122.00721649999832,0.007216499998321524,None,158.99100149999867,158.99100149999867,158.99100149999867,158.99100149999867,158.99100149999867,158.99100149999867,158.99100149999867,158.99100149999867,,003,P010,2025_Feb_01_1616,CategoryLocalizer,2021.2.3,59.950421002930376,
122.8,123.0,5,0.0,Stimuli\Blank.png,0,0,0,199,199,199,,,,,,,,,,,,,122.82393869999942,0.023938699999419555,None,159.79168410000057,159.79168410000057,159.79168410000057,159.79168410000057,159.79168410000057,159.79168410000057,159.79168410000057,159.79168410000057,,003,P010,2025_Feb_01_1616,CategoryLocalizer,2021.2.3,59.950421002930376,
123.0,123.8,4,0.75,Stimuli\ImageFiles-Set1\Scenes\Scenes_053.png,0,0,0,200,200,200,,,,,,,,,,,,,123.00763819999702,0.007638199997018091,None,159.9918574000003,159.9918574000003,159.9918574000003,159.9918574000003,159.9918574000003,159.9918574000003,159.9918574000003,159.9918574000003,,003,P010,2025_Feb_01_1616,CategoryLocalizer,2021.2.3,59.950421002930376,
123.8,124.0,5,0.0,Stimuli\Blank.png,0,0,0,201,201,201,,,,,,,,,,,,,123.82424510000055,0.024245100000555908,None,160.7925636,160.7925636,160.7925636,160.7925636,160.7925636,160.7925636,160.7925636,160.7925636,,003,P010,2025_Feb_01_1616,CategoryLocalizer,2021.2.3,59.950421002930376,
124.0,124.8,4,0.75,Stimuli\ImageFiles-Set1\Scenes\Scenes_021.png,0,0,0,202,202,202,,,,,,,,,,,,,124.00782609999806,0.007826099998055724,None,160.97606359999918,160.97606359999918,160.97606359999918,160.97606359999918,160.97606359999918,160.97606359999918,160.97606359999918,160.97606359999918,,003,P010,2025_Feb_01_1616,CategoryLocalizer,2021.2.3,59.950421002930376,
124.8,125.0,5,0.0,Stimuli\Blank.png,0,0,0,203,203,203,,,,,,,,,,,,,124.80944389999786,0.009443899997862104,None,161.77676699999938,161.77676699999938,161.77676699999938,161.77676699999938,161.77676699999938,161.77676699999938,161.77676699999938,161.77676699999938,,003,P010,2025_Feb_01_1616,CategoryLocalizer,2021.2.3,59.950421002930376,
125.0,125.8,4,0.75,Stimuli\ImageFiles-Set1\Scenes\Scenes_022.png,0,0,0,204,204,204,,,,,,,,,,,,,125.00956089999818,0.009560899998177774,None,161.99363240000093,161.99363240000093,161.99363240000093,161.99363240000093,161.99363240000093,161.99363240000093,161.99363240000093,161.99363240000093,,003,P010,2025_Feb_01_1616,CategoryLocalizer,2021.2.3,59.950421002930376,
125.8,126.0,5,0.0,Stimuli\Blank.png,0,0,0,205,205,205,,,,,,,,,,,,,125.82719259999794,0.027192599997945877,None,162.79436089999945,162.79436089999945,162.79436089999945,162.79436089999945,162.79436089999945,162.79436089999945,162.79436089999945,162.79436089999945,,003,P010,2025_Feb_01_1616,CategoryLocalizer,2021.2.3,59.950421002930376,
126.0,126.8,4,0.75,Stimuli\ImageFiles-Set1\Scenes\Scenes_020.png,0,0,0,206,206,206,,,,,,,,,,,,,126.00954759999877,0.009547599998768419,None,162.97782930000176,162.97782930000176,162.97782930000176,162.97782930000176,162.97782930000176,162.97782930000176,162.97782930000176,162.97782930000176,,003,P010,2025_Feb_01_1616,CategoryLocalizer,2021.2.3,59.950421002930376,
126.8,127.0,5,0.0,Stimuli\Blank.png,0,0,0,207,207,207,,,,,,,,,,,,,126.81224269999802,0.012242699998026296,None,163.7952308999993,163.7952308999993,163.7952308999993,163.7952308999993,163.7952308999993,163.7952308999993,163.7952308999993,163.7952308999993,,003,P010,2025_Feb_01_1616,CategoryLocalizer,2021.2.3,59.950421002930376,
127.0,127.8,4,0.75,Stimuli\ImageFiles-Set1\Scenes\Scenes_029.png,0,0,0,208,208,208,,,,,,,,,,,,,127.0281060999987,0.028106099998694845,None,164.01208309999856,164.01208309999856,164.01208309999856,164.01208309999856,164.01208309999856,164.01208309999856,164.01208309999856,164.01208309999856,,003,P010,2025_Feb_01_1616,CategoryLocalizer,2021.2.3,59.950421002930376,
127.8,128.0,5,0.0,Stimuli\Blank.png,0,0,0,209,209,209,,,,,,,,,,,,,127.82789749999938,0.027897499999383513,None,164.79610300000058,164.79610300000058,164.79610300000058,164.79610300000058,164.79610300000058,164.79610300000058,164.79610300000058,164.79610300000058,,003,P010,2025_Feb_01_1616,CategoryLocalizer,2021.2.3,59.950421002930376,
128.0,128.8,4,0.75,Stimuli\ImageFiles-Set1\Scenes\Scenes_039.png,0,0,0,210,210,210,,,,,,,,,,,,,128.0116371999975,0.011637199997494463,None,164.97960339999918,164.97960339999918,164.97960339999918,164.97960339999918,164.97960339999918,164.97960339999918,164.97960339999918,164.97960339999918,,003,P010,2025_Feb_01_1616,CategoryLocalizer,2021.2.3,59.950421002930376,
128.8,129.0,5,0.0,Stimuli\Blank.png,0,0,0,211,211,211,,,,,,,,,,,,,128.81266589999723,0.012665899997216457,None,165.78030890000082,165.78030890000082,165.78030890000082,165.78030890000082,165.78030890000082,165.78030890000082,165.78030890000082,165.78030890000082,,003,P010,2025_Feb_01_1616,CategoryLocalizer,2021.2.3,59.950421002930376,
129.0,129.8,4,0.75,Stimuli\ImageFiles-Set1\Scenes\Scenes_013.png,0,0,0,212,212,212,,,,,,,,,,,,,129.0142323,0.014232300000003306,None,165.99716669999907,165.99716669999907,165.99716669999907,165.99716669999907,165.99716669999907,165.99716669999907,165.99716669999907,165.99716669999907,,003,P010,2025_Feb_01_1616,CategoryLocalizer,2021.2.3,59.950421002930376,
129.8,130.0,5,0.0,Stimuli\Blank.png,0,0,0,213,213,213,,,,,,,,,,,,,129.82977929999834,0.029779299998324404,None,166.7978848999992,166.7978848999992,166.7978848999992,166.7978848999992,166.7978848999992,166.7978848999992,166.7978848999992,166.7978848999992,,003,P010,2025_Feb_01_1616,CategoryLocalizer,2021.2.3,59.950421002930376,
130.0,130.8,4,0.75,Stimuli\ImageFiles-Set1\Scenes\Scenes_005.png,0,0,0,214,214,214,,,,,,,,,,,,,130.01379169999927,0.013791699999273987,None,166.98137420000057,166.98137420000057,166.98137420000057,166.98137420000057,166.98137420000057,166.98137420000057,166.98137420000057,166.98137420000057,,003,P010,2025_Feb_01_1616,CategoryLocalizer,2021.2.3,59.950421002930376,
130.8,131.0,5,0.0,Stimuli\Blank.png,0,0,0,215,215,215,,,,,,,,,,,,,130.8143932999992,0.014393299999198916,None,167.78275120000035,167.78275120000035,167.78275120000035,167.78275120000035,167.78275120000035,167.78275120000035,167.78275120000035,167.78275120000035,,003,P010,2025_Feb_01_1616,CategoryLocalizer,2021.2.3,59.950421002930376,
131.0,131.8,4,0.75,Stimuli\ImageFiles-Set1\Scenes\Scenes_018.png,1,1,0,216,216,216,,,,,,,,,,,,,131.01468319999913,0.014683199999126373,None,167.9823428000018,167.9823428000018,167.9823428000018,167.9823428000018,167.9823428000018,167.9823428000018,167.9823428000018,167.9823428000018,,003,P010,2025_Feb_01_1616,CategoryLocalizer,2021.2.3,59.950421002930376,
131.8,132.0,5,0.0,Stimuli\Blank.png,0,0,0,217,217,217,,,,,,,,,,,,,131.81464069999856,0.014640699998551554,None,168.78295060000164,168.78295060000164,168.78295060000164,168.78295060000164,168.78295060000164,168.78295060000164,168.78295060000164,168.78295060000164,,003,P010,2025_Feb_01_1616,CategoryLocalizer,2021.2.3,59.950421002930376,
132.0,132.8,4,0.75,Stimuli\ImageFiles-Set1\Scenes\Scenes_015.png,0,0,0,218,218,218,,,,,,,,,,,,,132.01739159999852,0.01739159999851836,None,168.9998338000005,168.9998338000005,168.9998338000005,168.9998338000005,168.9998338000005,168.9998338000005,168.9998338000005,168.9998338000005,,003,P010,2025_Feb_01_1616,CategoryLocalizer,2021.2.3,59.950421002930376,
132.8,133.0,5,0.0,Stimuli\Blank.png,0,0,0,219,219,219,,,,,,,,,,,,,132.81729059999998,0.01729059999996707,None,169.80056039999909,169.80056039999909,169.80056039999909,169.80056039999909,169.80056039999909,169.80056039999909,169.80056039999909,169.80056039999909,,003,P010,2025_Feb_01_1616,CategoryLocalizer,2021.2.3,59.950421002930376,
133.0,133.8,4,0.75,Stimuli\ImageFiles-Set1\Scenes\Scenes_015.png,0,0,0,220,220,220,,,,,,,,,,,,,133.0175046000004,0.01750460000039311,1,170.0007168000011,170.0007168000011,170.0007168000011,170.0007168000011,170.0007168000011,170.0007168000011,170.0007168000011,170.0007168000011,0.32569729999886476,003,P010,2025_Feb_01_1616,CategoryLocalizer,2021.2.3,59.950421002930376,
133.8,134.0,5,0.0,Stimuli\Blank.png,0,0,0,221,221,221,,,,,,,,,,,,,133.81644159999996,0.01644159999995054,None,170.7847819999988,170.7847819999988,170.7847819999988,170.7847819999988,170.7847819999988,170.7847819999988,170.7847819999988,170.7847819999988,,003,P010,2025_Feb_01_1616,CategoryLocalizer,2021.2.3,59.950421002930376,
134.0,134.8,4,0.75,Stimuli\ImageFiles-Set1\Scenes\Scenes_009.png,0,0,0,222,222,222,,,,,,,,,,,,,134.0026429999998,0.0026429999998072162,None,170.98491400000057,170.98491400000057,170.98491400000057,170.98491400000057,170.98491400000057,170.98491400000057,170.98491400000057,170.98491400000057,,003,P010,2025_Feb_01_1616,CategoryLocalizer,2021.2.3,59.950421002930376,
134.8,135.0,5,0.0,Stimuli\Blank.png,0,0,0,223,223,223,,,,,,,,,,,,,134.81804829999965,0.01804829999963431,None,171.78563900000154,171.78563900000154,171.78563900000154,171.78563900000154,171.78563900000154,171.78563900000154,171.78563900000154,171.78563900000154,,003,P010,2025_Feb_01_1616,CategoryLocalizer,2021.2.3,59.950421002930376,
135.0,135.8,4,0.75,Stimuli\ImageFiles-Set1\Scenes\Scenes_056.png,0,0,0,224,224,224,,,,,,,,,,,,,135.00249110000004,0.002491100000042934,None,171.98580270000093,171.98580270000093,171.98580270000093,171.98580270000093,171.98580270000093,171.98580270000093,171.98580270000093,171.98580270000093,,003,P010,2025_Feb_01_1616,CategoryLocalizer,2021.2.3,59.950421002930376,
135.8,136.0,5,0.0,Stimuli\Blank.png,0,0,0,225,225,225,,,,,,,,,,,,,135.81822660000034,0.018226600000332382,None,172.78650560000096,172.78650560000096,172.78650560000096,172.78650560000096,172.78650560000096,172.78650560000096,172.78650560000096,172.78650560000096,,003,P010,2025_Feb_01_1616,CategoryLocalizer,2021.2.3,59.950421002930376,
136.0,136.8,2,0.75,Stimuli\ImageFiles-Set1\Bodies\Bodies_QuadStretch_00001.png,0,0,0,226,226,226,,,,,,,,,,,,,136.00174689999767,0.0017468999976699706,None,172.96997399999964,172.96997399999964,172.96997399999964,172.96997399999964,172.96997399999964,172.96997399999964,172.96997399999964,172.96997399999964,,003,P010,2025_Feb_01_1616,CategoryLocalizer,2021.2.3,59.950421002930376,
136.8,137.0,5,0.0,Stimuli\Blank.png,0,0,0,227,227,227,,,,,,,,,,,,,136.8029581999981,0.0029581999980905493,None,173.77071369999976,173.77071369999976,173.77071369999976,173.77071369999976,173.77071369999976,173.77071369999976,173.77071369999976,173.77071369999976,,003,P010,2025_Feb_01_1616,CategoryLocalizer,2021.2.3,59.950421002930376,
137.0,137.8,2,0.75,Stimuli\ImageFiles-Set1\Bodies\Bodies_Jumping_00002.png,0,0,0,228,228,228,,,,,,,,,,,,,137.0025179999975,0.0025179999975080136,None,173.97087029999966,173.97087029999966,173.97087029999966,173.97087029999966,173.97087029999966,173.97087029999966,173.97087029999966,173.97087029999966,,003,P010,2025_Feb_01_1616,CategoryLocalizer,2021.2.3,59.950421002930376,
137.8,138.0,5,0.0,Stimuli\Blank.png,0,0,0,229,229,229,,,,,,,,,,,,,137.8032482999988,0.00324829999880194,None,174.77159989999927,174.77159989999927,174.77159989999927,174.77159989999927,174.77159989999927,174.77159989999927,174.77159989999927,174.77159989999927,,003,P010,2025_Feb_01_1616,CategoryLocalizer,2021.2.3,59.950421002930376,
138.0,138.8,2,0.75,Stimuli\ImageFiles-Set1\Bodies\Bodies_Pushing_00001.png,0,0,0,230,230,230,,,,,,,,,,,,,138.00479559999803,0.00479559999803314,None,174.97174390000146,174.97174390000146,174.97174390000146,174.97174390000146,174.97174390000146,174.97174390000146,174.97174390000146,174.97174390000146,,003,P010,2025_Feb_01_1616,CategoryLocalizer,2021.2.3,59.950421002930376,
138.8,139.0,5,0.0,Stimuli\Blank.png,0,0,0,231,231,231,,,,,,,,,,,,,138.80496009999842,0.004960099998413625,None,175.7725931999994,175.7725931999994,175.7725931999994,175.7725931999994,175.7725931999994,175.7725931999994,175.7725931999994,175.7725931999994,,003,P010,2025_Feb_01_1616,CategoryLocalizer,2021.2.3,59.950421002930376,
139.0,139.8,2,0.75,Stimuli\ImageFiles-Set1\Bodies\Bodies_CobraPose_00001.png,0,0,0,232,232,232,,,,,,,,,,,,,139.00498599999992,0.004985999999917112,None,175.97266859999945,175.97266859999945,175.97266859999945,175.97266859999945,175.97266859999945,175.97266859999945,175.97266859999945,175.97266859999945,,003,P010,2025_Feb_01_1616,CategoryLocalizer,2021.2.3,59.950421002930376,
139.8,140.0,5,0.0,Stimuli\Blank.png,0,0,0,233,233,233,,,,,,,,,,,,,139.80704109999715,0.0070410999971386445,None,176.7900555999986,176.7900555999986,176.7900555999986,176.7900555999986,176.7900555999986,176.7900555999986,176.7900555999986,176.7900555999986,,003,P010,2025_Feb_01_1616,CategoryLocalizer,2021.2.3,59.950421002930376,
140.0,140.8,2,0.75,Stimuli\ImageFiles-Set1\Bodies\Bodies_CobraPose_00001.png,1,1,0,234,234,234,,,,,,,,,,,,,140.02266269999745,0.022662699997454183,1,176.99024439999994,176.99024439999994,176.99024439999994,176.99024439999994,176.99024439999994,176.99024439999994,176.99024439999994,176.99024439999994,0.49910710000040126,003,P010,2025_Feb_01_1616,CategoryLocalizer,2021.2.3,59.950421002930376,
140.8,141.0,5,0.0,Stimuli\Blank.png,0,0,0,235,235,235,,,,,,,,,,,,,140.80596299999888,0.00596299999887151,None,177.77432060000137,177.77432060000137,177.77432060000137,177.77432060000137,177.77432060000137,177.77432060000137,177.77432060000137,177.77432060000137,,003,P010,2025_Feb_01_1616,CategoryLocalizer,2021.2.3,59.950421002930376,
141.0,141.8,2,0.75,Stimuli\ImageFiles-Set1\Bodies\Bodies_PushUp_00002.png,0,0,0,236,236,236,,,,,,,,,,,,,141.00606739999785,0.006067399997846223,None,177.9744341000005,177.9744341000005,177.9744341000005,177.9744341000005,177.9744341000005,177.9744341000005,177.9744341000005,177.9744341000005,,003,P010,2025_Feb_01_1616,CategoryLocalizer,2021.2.3,59.950421002930376,
141.8,142.0,5,0.0,Stimuli\Blank.png,0,0,0,237,237,237,,,,,,,,,,,,,141.80767410000044,0.007674100000429007,None,178.77514910000173,178.77514910000173,178.77514910000173,178.77514910000173,178.77514910000173,178.77514910000173,178.77514910000173,178.77514910000173,,003,P010,2025_Feb_01_1616,CategoryLocalizer,2021.2.3,59.950421002930376,
142.0,142.8,2,0.75,Stimuli\ImageFiles-Set1\Bodies\Bodies_Kneeling_00003.png,0,0,0,238,238,238,,,,,,,,,,,,,142.00718810000035,0.007188100000348641,None,178.97532879999926,178.97532879999926,178.97532879999926,178.97532879999926,178.97532879999926,178.97532879999926,178.97532879999926,178.97532879999926,,003,P010,2025_Feb_01_1616,CategoryLocalizer,2021.2.3,59.950421002930376,
142.8,143.0,5,0.0,Stimuli\Blank.png,0,0,0,239,239,239,,,,,,,,,,,,,142.8082515999995,0.00825159999948255,None,179.77603720000116,179.77603720000116,179.77603720000116,179.77603720000116,179.77603720000116,179.77603720000116,179.77603720000116,179.77603720000116,,003,P010,2025_Feb_01_1616,CategoryLocalizer,2021.2.3,59.950421002930376,
143.0,143.8,2,0.75,Stimuli\ImageFiles-Set1\Bodies\Bodies_Punching_00003.png,0,0,0,240,240,240,,,,,,,,,,,,,143.00784360000034,0.007843600000342121,None,179.9762066000003,179.9762066000003,179.9762066000003,179.9762066000003,179.9762066000003,179.9762066000003,179.9762066000003,179.9762066000003,,003,P010,2025_Feb_01_1616,CategoryLocalizer,2021.2.3,59.950421002930376,
143.8,144.0,5,0.0,Stimuli\Blank.png,0,0,0,241,241,241,,,,,,,,,,,,,143.8085777999986,0.008577799998590763,None,180.77691459999915,180.77691459999915,180.77691459999915,180.77691459999915,180.77691459999915,180.77691459999915,180.77691459999915,180.77691459999915,,003,P010,2025_Feb_01_1616,CategoryLocalizer,2021.2.3,59.950421002930376,
144.0,144.8,2,0.75,Stimuli\ImageFiles-Set1\Bodies\Bodies_SittingFloor_00003.png,0,0,0,242,242,242,,,,,,,,,,,,,144.00876749999952,0.008767499999521533,None,180.99378670000078,180.99378670000078,180.99378670000078,180.99378670000078,180.99378670000078,180.99378670000078,180.99378670000078,180.99378670000078,,003,P010,2025_Feb_01_1616,CategoryLocalizer,2021.2.3,59.950421002930376,
144.8,145.0,5,0.0,Stimuli\Blank.png,0,0,0,243,243,243,,,,,,,,,,,,,144.82752919999984,0.027529199999833054,None,181.79450329999963,181.79450329999963,181.79450329999963,181.79450329999963,181.79450329999963,181.79450329999963,181.79450329999963,181.79450329999963,,003,P010,2025_Feb_01_1616,CategoryLocalizer,2021.2.3,59.950421002930376,
145.0,145.8,2,0.75,Stimuli\ImageFiles-Set1\Bodies\Bodies_DownwardDog_00003.png,0,0,0,244,244,244,,,,,,,,,,,,,145.01035959999717,0.010359599997173063,None,181.97798400000102,181.97798400000102,181.97798400000102,181.97798400000102,181.97798400000102,181.97798400000102,181.97798400000102,181.97798400000102,,003,P010,2025_Feb_01_1616,CategoryLocalizer,2021.2.3,59.950421002930376,
145.8,146.0,5,0.0,Stimuli\Blank.png,0,0,0,245,245,245,,,,,,,,,,,,,145.81156249999913,0.011562499999115516,None,182.77870339999936,182.77870339999936,182.77870339999936,182.77870339999936,182.77870339999936,182.77870339999936,182.77870339999936,182.77870339999936,,003,P010,2025_Feb_01_1616,CategoryLocalizer,2021.2.3,59.950421002930376,
146.0,146.8,2,0.75,Stimuli\ImageFiles-Set1\Bodies\Bodies_SittingFloor_00005.png,0,0,0,246,246,246,,,,,,,,,,,,,146.01103659999717,0.011036599997169105,None,182.97885999999926,182.97885999999926,182.97885999999926,182.97885999999926,182.97885999999926,182.97885999999926,182.97885999999926,182.97885999999926,,003,P010,2025_Feb_01_1616,CategoryLocalizer,2021.2.3,59.950421002930376,
146.8,147.0,5,0.0,Stimuli\Blank.png,0,0,0,247,247,247,,,,,,,,,,,,,146.81225599999743,0.01225599999742144,None,183.77958880000006,183.77958880000006,183.77958880000006,183.77958880000006,183.77958880000006,183.77958880000006,183.77958880000006,183.77958880000006,,003,P010,2025_Feb_01_1616,CategoryLocalizer,2021.2.3,59.950421002930376,
147.0,147.8,2,0.75,Stimuli\ImageFiles-Set1\Bodies\Bodies_Falling_00002.png,0,0,0,248,248,248,,,,,,,,,,,,,147.0116519000003,0.011651900000288151,None,183.9797514999991,183.9797514999991,183.9797514999991,183.9797514999991,183.9797514999991,183.9797514999991,183.9797514999991,183.9797514999991,,003,P010,2025_Feb_01_1616,CategoryLocalizer,2021.2.3,59.950421002930376,
147.8,148.0,5,0.0,Stimuli\Blank.png,0,0,0,249,249,249,,,,,,,,,,,,,147.81323599999814,0.01323599999813041,None,184.79715299999953,184.79715299999953,184.79715299999953,184.79715299999953,184.79715299999953,184.79715299999953,184.79715299999953,184.79715299999953,,003,P010,2025_Feb_01_1616,CategoryLocalizer,2021.2.3,59.950421002930376,
148.0,148.8,2,0.75,Stimuli\ImageFiles-Set1\Bodies\Bodies_Crawling_00003.png,0,0,0,250,250,250,,,,,,,,,,,,,148.02958930000023,0.029589300000225194,None,184.99738649999927,184.99738649999927,184.99738649999927,184.99738649999927,184.99738649999927,184.99738649999927,184.99738649999927,184.99738649999927,,003,P010,2025_Feb_01_1616,CategoryLocalizer,2021.2.3,59.950421002930376,
148.8,149.0,5,0.0,Stimuli\Blank.png,0,0,0,251,251,251,,,,,,,,,,,,,148.81298459999743,0.01298459999742363,None,185.7813427000001,185.7813427000001,185.7813427000001,185.7813427000001,185.7813427000001,185.7813427000001,185.7813427000001,185.7813427000001,,003,P010,2025_Feb_01_1616,CategoryLocalizer,2021.2.3,59.950421002930376,
149.0,149.8,2,0.75,Stimuli\ImageFiles-Set1\Bodies\Bodies_Hanging_00002.png,0,0,0,252,252,252,,,,,,,,,,,,,149.01347799999712,0.013477999997121515,None,185.9817116999984,185.9817116999984,185.9817116999984,185.9817116999984,185.9817116999984,185.9817116999984,185.9817116999984,185.9817116999984,,003,P010,2025_Feb_01_1616,CategoryLocalizer,2021.2.3,59.950421002930376,
149.8,150.0,5,0.0,Stimuli\Blank.png,0,0,0,253,253,253,,,,,,,,,,,,,149.8146541999995,0.014654199999483808,None,186.78223259999868,186.78223259999868,186.78223259999868,186.78223259999868,186.78223259999868,186.78223259999868,186.78223259999868,186.78223259999868,,003,P010,2025_Feb_01_1616,CategoryLocalizer,2021.2.3,59.950421002930376,
150.0,150.8,2,0.75,Stimuli\ImageFiles-Set1\Bodies\Bodies_Waving_00003.png,0,0,0,254,254,254,,,,,,,,,,,,,150.01428429999942,0.014284299999417271,None,186.99909760000082,186.99909760000082,186.99909760000082,186.99909760000082,186.99909760000082,186.99909760000082,186.99909760000082,186.99909760000082,,003,P010,2025_Feb_01_1616,CategoryLocalizer,2021.2.3,59.950421002930376,
150.8,151.0,5,0.0,Stimuli\Blank.png,0,0,0,255,255,255,,,,,,,,,,,,,150.8314582999992,0.031458299999201245,None,187.7998632000017,187.7998632000017,187.7998632000017,187.7998632000017,187.7998632000017,187.7998632000017,187.7998632000017,187.7998632000017,,003,P010,2025_Feb_01_1616,CategoryLocalizer,2021.2.3,59.950421002930376,
151.0,151.8,2,0.75,Stimuli\ImageFiles-Set1\Bodies\Bodies_Running_00006.png,0,0,0,256,256,256,,,,,,,,,,,,,151.01689519999854,0.01689519999854383,None,187.99997350000194,187.99997350000194,187.99997350000194,187.99997350000194,187.99997350000194,187.99997350000194,187.99997350000194,187.99997350000194,,003,P010,2025_Feb_01_1616,CategoryLocalizer,2021.2.3,59.950421002930376,
151.8,152.0,5,0.0,Stimuli\Blank.png,0,0,0,257,257,257,,,,,,,,,,,,,151.8164986999982,0.016498699998180655,None,188.78400110000075,188.78400110000075,188.78400110000075,188.78400110000075,188.78400110000075,188.78400110000075,188.78400110000075,188.78400110000075,,003,P010,2025_Feb_01_1616,CategoryLocalizer,2021.2.3,59.950421002930376,
152.0,164.0,0,0.0,Stimuli\Blank.png,0,0,0,258,258,258,,,,,,,,,,,,,152.00002490000043,2.4900000425986946e-05,None,188.96749139999883,188.96749139999883,188.96749139999883,188.96749139999883,188.96749139999883,188.96749139999883,188.96749139999883,188.96749139999883,,003,P010,2025_Feb_01_1616,CategoryLocalizer,2021.2.3,59.950421002930376,
164.0,164.8,4,0.75,Stimuli\ImageFiles-Set1\Scenes\Scenes_052.png,0,0,0,259,259,259,,,,,,,,,,,,,164.00983899999846,0.009838999998464715,None,200.97811830000137,200.97811830000137,200.97811830000137,200.97811830000137,200.97811830000137,200.97811830000137,200.97811830000137,200.97811830000137,,003,P010,2025_Feb_01_1616,CategoryLocalizer,2021.2.3,59.950421002930376,
164.8,165.0,5,0.0,Stimuli\Blank.png,0,0,0,260,260,260,,,,,,,,,,,,,164.81108289999975,0.011082899999735218,None,201.7788240000009,201.7788240000009,201.7788240000009,201.7788240000009,201.7788240000009,201.7788240000009,201.7788240000009,201.7788240000009,,003,P010,2025_Feb_01_1616,CategoryLocalizer,2021.2.3,59.950421002930376,
165.0,165.8,4,0.75,Stimuli\ImageFiles-Set1\Scenes\Scenes_008.png,0,0,0,261,261,261,,,,,,,,,,,,,165.01077459999942,0.010774599999422207,None,201.99570010000025,201.99570010000025,201.99570010000025,201.99570010000025,201.99570010000025,201.99570010000025,201.99570010000025,201.99570010000025,,003,P010,2025_Feb_01_1616,CategoryLocalizer,2021.2.3,59.950421002930376,
165.8,166.0,5,0.0,Stimuli\Blank.png,0,0,0,262,262,262,,,,,,,,,,,,,165.83025540000017,0.030255400000157806,None,202.81308450000142,202.81308450000142,202.81308450000142,202.81308450000142,202.81308450000142,202.81308450000142,202.81308450000142,202.81308450000142,,003,P010,2025_Feb_01_1616,CategoryLocalizer,2021.2.3,59.950421002930376,
166.0,166.8,4,0.75,Stimuli\ImageFiles-Set1\Scenes\Scenes_003.png,0,0,0,263,263,263,,,,,,,,,,,,,166.02946059999886,0.029460599998856196,None,203.01325250000082,203.01325250000082,203.01325250000082,203.01325250000082,203.01325250000082,203.01325250000082,203.01325250000082,203.01325250000082,,003,P010,2025_Feb_01_1616,CategoryLocalizer,2021.2.3,59.950421002930376,
166.8,167.0,5,0.0,Stimuli\Blank.png,0,0,0,264,264,264,,,,,,,,,,,,,166.8296315999978,0.029631599997799185,None,203.7972794999987,203.7972794999987,203.7972794999987,203.7972794999987,203.7972794999987,203.7972794999987,203.7972794999987,203.7972794999987,,003,P010,2025_Feb_01_1616,CategoryLocalizer,2021.2.3,59.950421002930376,
167.0,167.8,4,0.75,Stimuli\ImageFiles-Set1\Scenes\Scenes_034.png,0,0,0,265,265,265,,,,,,,,,,,,,167.01252569999997,0.01252569999996922,None,203.98138720000134,203.98138720000134,203.98138720000134,203.98138720000134,203.98138720000134,203.98138720000134,203.98138720000134,203.98138720000134,,003,P010,2025_Feb_01_1616,CategoryLocalizer,2021.2.3,59.950421002930376,
167.8,168.0,5,0.0,Stimuli\Blank.png,0,0,0,266,266,266,,,,,,,,,,,,,167.8151641000004,0.01516410000039059,None,204.79818589999923,204.79818589999923,204.79818589999923,204.79818589999923,204.79818589999923,204.79818589999923,204.79818589999923,204.79818589999923,,003,P010,2025_Feb_01_1616,CategoryLocalizer,2021.2.3,59.950421002930376,
168.0,168.8,4,0.75,Stimuli\ImageFiles-Set1\Scenes\Scenes_028.png,0,0,0,267,267,267,,,,,,,,,,,,,168.03053069999805,0.030530699998053024,None,205.01504059999934,205.01504059999934,205.01504059999934,205.01504059999934,205.01504059999934,205.01504059999934,205.01504059999934,205.01504059999934,,003,P010,2025_Feb_01_1616,CategoryLocalizer,2021.2.3,59.950421002930376,
168.8,169.0,5,0.0,Stimuli\Blank.png,0,0,0,268,268,268,,,,,,,,,,,,,168.83086399999956,0.03086399999955347,None,205.79904850000094,205.79904850000094,205.79904850000094,205.79904850000094,205.79904850000094,205.79904850000094,205.79904850000094,205.79904850000094,,003,P010,2025_Feb_01_1616,CategoryLocalizer,2021.2.3,59.950421002930376,
169.0,169.8,4,0.75,Stimuli\ImageFiles-Set1\Scenes\Scenes_046.png,0,0,0,269,269,269,,,,,,,,,,,,,169.0147345999976,0.014734599997609621,None,205.99923040000067,205.99923040000067,205.99923040000067,205.99923040000067,205.99923040000067,205.99923040000067,205.99923040000067,205.99923040000067,,003,P010,2025_Feb_01_1616,CategoryLocalizer,2021.2.3,59.950421002930376,
169.8,170.0,5,0.0,Stimuli\Blank.png,0,0,0,270,270,270,,,,,,,,,,,,,169.83157609999762,0.0315760999976078,None,206.7999434000012,206.7999434000012,206.7999434000012,206.7999434000012,206.7999434000012,206.7999434000012,206.7999434000012,206.7999434000012,,003,P010,2025_Feb_01_1616,CategoryLocalizer,2021.2.3,59.950421002930376,
170.0,170.8,4,0.75,Stimuli\ImageFiles-Set1\Scenes\Scenes_047.png,0,0,0,271,271,271,,,,,,,,,,,,,170.0158905999997,0.015890599999693222,None,207.00013580000086,207.00013580000086,207.00013580000086,207.00013580000086,207.00013580000086,207.00013580000086,207.00013580000086,207.00013580000086,,003,P010,2025_Feb_01_1616,CategoryLocalizer,2021.2.3,59.950421002930376,
170.8,171.0,5,0.0,Stimuli\Blank.png,0,0,0,272,272,272,,,,,,,,,,,,,170.81616219999705,0.016162199997040716,None,207.7841472,207.7841472,207.7841472,207.7841472,207.7841472,207.7841472,207.7841472,207.7841472,,003,P010,2025_Feb_01_1616,CategoryLocalizer,2021.2.3,59.950421002930376,
171.0,171.8,4,0.75,Stimuli\ImageFiles-Set1\Scenes\Scenes_016.png,0,0,0,273,273,273,,,,,,,,,,,,,170.99986349999745,-0.000136500002554385,None,207.9842865999999,207.9842865999999,207.9842865999999,207.9842865999999,207.9842865999999,207.9842865999999,207.9842865999999,207.9842865999999,,003,P010,2025_Feb_01_1616,CategoryLocalizer,2021.2.3,59.950421002930376,
171.8,172.0,5,0.0,Stimuli\Blank.png,0,0,0,274,274,274,,,,,,,,,,,,,171.81737099999737,0.01737099999735392,None,208.7850404000019,208.7850404000019,208.7850404000019,208.7850404000019,208.7850404000019,208.7850404000019,208.7850404000019,208.7850404000019,,003,P010,2025_Feb_01_1616,CategoryLocalizer,2021.2.3,59.950421002930376,
172.0,172.8,4,0.75,Stimuli\ImageFiles-Set1\Scenes\Scenes_030.png,0,0,0,275,275,275,,,,,,,,,,,,,172.0008315999985,0.0008315999984915834,None,208.98520569999891,208.98520569999891,208.98520569999891,208.98520569999891,208.98520569999891,208.98520569999891,208.98520569999891,208.98520569999891,,003,P010,2025_Feb_01_1616,CategoryLocalizer,2021.2.3,59.950421002930376,
172.8,173.0,5,0.0,Stimuli\Blank.png,0,0,0,276,276,276,,,,,,,,,,,,,172.81783859999996,0.017838599999947746,None,209.7859086999997,209.7859086999997,209.7859086999997,209.7859086999997,209.7859086999997,209.7859086999997,209.7859086999997,209.7859086999997,,003,P010,2025_Feb_01_1616,CategoryLocalizer,2021.2.3,59.950421002930376,
173.0,173.8,4,0.75,Stimuli\ImageFiles-Set1\Scenes\Scenes_030.png,1,1,0,277,277,277,,,,,,,,,,,,,173.00115319999895,0.001153199998952914,1,209.98608539999987,209.98608539999987,209.98608539999987,209.98608539999987,209.98608539999987,209.98608539999987,209.98608539999987,209.98608539999987,0.5236265000021376,003,P010,2025_Feb_01_1616,CategoryLocalizer,2021.2.3,59.950421002930376,
173.8,174.0,5,0.0,Stimuli\Blank.png,0,0,0,278,278,278,,,,,,,,,,,,,173.82149039999786,0.021490399997844634,None,210.78676809999888,210.78676809999888,210.78676809999888,210.78676809999888,210.78676809999888,210.78676809999888,210.78676809999888,210.78676809999888,,003,P010,2025_Feb_01_1616,CategoryLocalizer,2021.2.3,59.950421002930376,
174.0,174.8,4,0.75,Stimuli\ImageFiles-Set1\Scenes\Scenes_043.png,0,0,0,279,279,279,,,,,,,,,,,,,174.00225320000027,0.002253200000268407,None,210.970298799999,210.970298799999,210.970298799999,210.970298799999,210.970298799999,210.970298799999,210.970298799999,210.970298799999,,003,P010,2025_Feb_01_1616,CategoryLocalizer,2021.2.3,59.950421002930376,
174.8,175.0,5,0.0,Stimuli\Blank.png,0,0,0,280,280,280,,,,,,,,,,,,,174.8050551999986,0.005055199998594162,None,211.78770399999848,211.78770399999848,211.78770399999848,211.78770399999848,211.78770399999848,211.78770399999848,211.78770399999848,211.78770399999848,,003,P010,2025_Feb_01_1616,CategoryLocalizer,2021.2.3,59.950421002930376,
175.0,175.8,4,0.75,Stimuli\ImageFiles-Set1\Scenes\Scenes_042.png,0,0,0,281,281,281,,,,,,,,,,,,,175.02006489999985,0.02006489999985206,None,212.00457290000122,212.00457290000122,212.00457290000122,212.00457290000122,212.00457290000122,212.00457290000122,212.00457290000122,212.00457290000122,,003,P010,2025_Feb_01_1616,CategoryLocalizer,2021.2.3,59.950421002930376,
175.8,176.0,5,0.0,Stimuli\Blank.png,0,0,0,282,282,282,,,,,,,,,,,,,175.82169819999763,0.021698199997615575,None,212.78857419999986,212.78857419999986,212.78857419999986,212.78857419999986,212.78857419999986,212.78857419999986,212.78857419999986,212.78857419999986,,003,P010,2025_Feb_01_1616,CategoryLocalizer,2021.2.3,59.950421002930376,
176.0,176.8,4,0.75,Stimuli\ImageFiles-Set1\Scenes\Scenes_011.png,0,0,0,283,283,283,,,,,,,,,,,,,176.00388119999843,0.003881199998431839,None,212.97207809999964,212.97207809999964,212.97207809999964,212.97207809999964,212.97207809999964,212.97207809999964,212.97207809999964,212.97207809999964,,003,P010,2025_Feb_01_1616,CategoryLocalizer,2021.2.3,59.950421002930376,
176.8,177.0,5,0.0,Stimuli\Blank.png,0,0,0,284,284,284,,,,,,,,,,,,,176.80564589999994,0.00564589999993359,None,213.77278419999857,213.77278419999857,213.77278419999857,213.77278419999857,213.77278419999857,213.77278419999857,213.77278419999857,213.77278419999857,,003,P010,2025_Feb_01_1616,CategoryLocalizer,2021.2.3,59.950421002930376,
