eventStartTime,eventEndTime,eventCond,imSize,imFile,repeatedImage,responseEvent,Events.thisRepN,Events.thisTrialN,Events.thisN,Events.thisIndex,Instructions.started,Instructions.stopped,participantReadyResponse.keys,participantReadyResponse.rt,participantReadyResponse.started,participantReadyResponse.stopped,startWaitforTrigger,triggerResponse.keys,triggerResponse.rt,triggerResponse.started,triggerResponse.stopped,globalTimer,actualStartTime,startTimingDiff,participantResponse.keys,participantResponse.started,participantResponse.stopped,image.started,image.stopped,fixationOutside.started,fixationOutside.stopped,fixationInside.started,fixationInside.stopped,participantResponse.rt,session,participant,date,expName,psychopyVersion,frameRate,
,,,,,,,,,,,10.257817100002285,None,1,21.631226999998034,10.257817100002285,None,,,,,,,,,,,,,,,,,,,001,P010,2025_Feb_01_1521,CategoryLocalizer,2021.2.3,59.937808529051495,
,,,,,,,,,,,,,,,,,31.904331000001548,5,14.006491700001789,31.917508200000157,None,,,,,,,,,,,,,,001,P010,2025_Feb_01_1521,CategoryLocalizer,2021.2.3,59.937808529051495,
0.0,12.0,0,0.0,Stimuli\Blank.png,0,0,0,0,0,0,,,,,,,,,,,,45.93349289999969,0.043133799998031463,0.043133799998031463,None,45.996636700001545,None,45.996636700001545,None,45.996636700001545,None,45.996636700001545,None,,001,P010,2025_Feb_01_1521,CategoryLocalizer,2021.2.3,59.937808529051495,
12.0,12.8,1,0.75,Stimuli\ImageFiles-Set1\Objects\Object_Recliner_00001.png,0,0,0,1,1,1,,,,,,,,,,,,,12.010450599998876,0.010450599998875987,None,57.95721430000049,57.95721430000049,57.95721430000049,57.95721430000049,57.95721430000049,57.95721430000049,57.95721430000049,57.95721430000049,,001,P010,2025_Feb_01_1521,CategoryLocalizer,2021.2.3,59.937808529051495,
12.8,13.0,5,0.0,Stimuli\Blank.png,0,0,0,2,2,2,,,,,,,,,,,,,12.811799700000847,0.011799700000846514,None,58.75791740000204,58.75791740000204,58.75791740000204,58.75791740000204,58.75791740000204,58.75791740000204,58.75791740000204,58.75791740000204,,001,P010,2025_Feb_01_1521,CategoryLocalizer,2021.2.3,59.937808529051495,
13.0,13.8,1,0.75,Stimuli\ImageFiles-Set1\Objects\Object_Screw_00001.png,0,0,0,3,3,3,,,,,,,,,,,,,13.011502400000609,0.011502400000608759,None,58.974770900000294,58.974770900000294,58.974770900000294,58.974770900000294,58.974770900000294,58.974770900000294,58.974770900000294,58.974770900000294,,001,P010,2025_Feb_01_1521,CategoryLocalizer,2021.2.3,59.937808529051495,
13.8,14.0,5,0.0,Stimuli\Blank.png,0,0,0,4,4,4,,,,,,,,,,,,,13.82805929999813,0.02805929999813017,None,59.77548370000295,59.77548370000295,59.77548370000295,59.77548370000295,59.77548370000295,59.77548370000295,59.77548370000295,59.77548370000295,,001,P010,2025_Feb_01_1521,CategoryLocalizer,2021.2.3,59.937808529051495,
14.0,14.8,1,0.75,Stimuli\ImageFiles-Set1\Objects\Object_Canoe_00001.png,0,0,0,5,5,5,,,,,,,,,,,,,14.01160549999986,0.011605499999859603,None,59.95898210000087,59.95898210000087,59.95898210000087,59.95898210000087,59.95898210000087,59.95898210000087,59.95898210000087,59.95898210000087,,001,P010,2025_Feb_01_1521,CategoryLocalizer,2021.2.3,59.937808529051495,
14.8,15.0,5,0.0,Stimuli\Blank.png,0,0,0,6,6,6,,,,,,,,,,,,,14.811440999998013,0.011440999998011847,None,60.759688600002846,60.759688600002846,60.759688600002846,60.759688600002846,60.759688600002846,60.759688600002846,60.759688600002846,60.759688600002846,,001,P010,2025_Feb_01_1521,CategoryLocalizer,2021.2.3,59.937808529051495,
15.0,15.8,1,0.75,Stimuli\ImageFiles-Set1\Objects\Object_FileFolder_00001.png,0,0,0,7,7,7,,,,,,,,,,,,,15.01219459999993,0.012194599999929778,None,60.97656410000127,60.97656410000127,60.97656410000127,60.97656410000127,60.97656410000127,60.97656410000127,60.97656410000127,60.97656410000127,,001,P010,2025_Feb_01_1521,CategoryLocalizer,2021.2.3,59.937808529051495,
15.8,16.0,5,0.0,Stimuli\Blank.png,0,0,0,8,8,8,,,,,,,,,,,,,15.831074999998236,0.031074999998235597,None,61.79396120000092,61.79396120000092,61.79396120000092,61.79396120000092,61.79396120000092,61.79396120000092,61.79396120000092,61.79396120000092,,001,P010,2025_Feb_01_1521,CategoryLocalizer,2021.2.3,59.937808529051495,
16.0,16.8,1,0.75,Stimuli\ImageFiles-Set1\Objects\Object_Stool_00001.png,0,0,0,9,9,9,,,,,,,,,,,,,16.031620900001144,0.03162090000114404,None,61.9941155000015,61.9941155000015,61.9941155000015,61.9941155000015,61.9941155000015,61.9941155000015,61.9941155000015,61.9941155000015,,001,P010,2025_Feb_01_1521,CategoryLocalizer,2021.2.3,59.937808529051495,
16.8,17.0,5,0.0,Stimuli\Blank.png,0,0,0,10,10,10,,,,,,,,,,,,,16.830629399999452,0.03062939999945158,None,62.778150500002084,62.778150500002084,62.778150500002084,62.778150500002084,62.778150500002084,62.778150500002084,62.778150500002084,62.778150500002084,,001,P010,2025_Feb_01_1521,CategoryLocalizer,2021.2.3,59.937808529051495,
17.0,17.8,1,0.75,Stimuli\ImageFiles-Set1\Objects\Object_Toilet_00001.png,0,0,0,11,11,11,,,,,,,,,,,,,17.01351629999772,0.013516299997718306,None,62.96167550000246,62.96167550000246,62.96167550000246,62.96167550000246,62.96167550000246,62.96167550000246,62.96167550000246,62.96167550000246,,001,P010,2025_Feb_01_1521,CategoryLocalizer,2021.2.3,59.937808529051495,
17.8,18.0,5,0.0,Stimuli\Blank.png,0,0,0,12,12,12,,,,,,,,,,,,,17.815989899998385,0.015989899998384516,None,63.77903570000126,63.77903570000126,63.77903570000126,63.77903570000126,63.77903570000126,63.77903570000126,63.77903570000126,63.77903570000126,,001,P010,2025_Feb_01_1521,CategoryLocalizer,2021.2.3,59.937808529051495,
18.0,18.8,1,0.75,Stimuli\ImageFiles-Set1\Objects\Object_Pizza_00001.png,0,0,0,13,13,13,,,,,,,,,,,,,18.016160899998795,0.016160899998794775,None,63.9792094000004,63.9792094000004,63.9792094000004,63.9792094000004,63.9792094000004,63.9792094000004,63.9792094000004,63.9792094000004,,001,P010,2025_Feb_01_1521,CategoryLocalizer,2021.2.3,59.937808529051495,
18.8,19.0,5,0.0,Stimuli\Blank.png,0,0,0,14,14,14,,,,,,,,,,,,,18.81654830000116,0.016548300001158367,None,64.76323510000293,64.76323510000293,64.76323510000293,64.76323510000293,64.76323510000293,64.76323510000293,64.76323510000293,64.76323510000293,,001,P010,2025_Feb_01_1521,CategoryLocalizer,2021.2.3,59.937808529051495,
19.0,19.8,1,0.75,Stimuli\ImageFiles-Set1\Objects\Object_Door_00001.png,0,0,0,15,15,15,,,,,,,,,,,,,18.998528199997963,-0.0014718000020366162,None,64.94672270000228,64.94672270000228,64.94672270000228,64.94672270000228,64.94672270000228,64.94672270000228,64.94672270000228,64.94672270000228,,001,P010,2025_Feb_01_1521,CategoryLocalizer,2021.2.3,59.937808529051495,
19.8,20.0,5,0.0,Stimuli\Blank.png,0,0,0,16,16,16,,,,,,,,,,,,,19.80166520000057,0.0016652000005699108,None,65.76412150000033,65.76412150000033,65.76412150000033,65.76412150000033,65.76412150000033,65.76412150000033,65.76412150000033,65.76412150000033,,001,P010,2025_Feb_01_1521,CategoryLocalizer,2021.2.3,59.937808529051495,
20.0,20.8,1,0.75,Stimuli\ImageFiles-Set1\Objects\Object_Nightstand_00001.png,0,0,0,17,17,17,,,,,,,,,,,,,20.016114999998535,0.016114999998535495,None,65.96428900000319,65.96428900000319,65.96428900000319,65.96428900000319,65.96428900000319,65.96428900000319,65.96428900000319,65.96428900000319,,001,P010,2025_Feb_01_1521,CategoryLocalizer,2021.2.3,59.937808529051495,
20.8,21.0,5,0.0,Stimuli\Blank.png,0,0,0,18,18,18,,,,,,,,,,,,,20.801450099999784,0.00145009999978285,None,66.74832420000166,66.74832420000166,66.74832420000166,66.74832420000166,66.74832420000166,66.74832420000166,66.74832420000166,66.74832420000166,,001,P010,2025_Feb_01_1521,CategoryLocalizer,2021.2.3,59.937808529051495,
21.0,21.8,1,0.75,Stimuli\ImageFiles-Set1\Objects\Object_Sock_00001.png,0,0,0,19,19,19,,,,,,,,,,,,,21.00095119999969,0.0009511999996902887,None,66.94850810000207,66.94850810000207,66.94850810000207,66.94850810000207,66.94850810000207,66.94850810000207,66.94850810000207,66.94850810000207,,001,P010,2025_Feb_01_1521,CategoryLocalizer,2021.2.3,59.937808529051495,
21.8,22.0,5,0.0,Stimuli\Blank.png,0,0,0,20,20,20,,,,,,,,,,,,,21.80152050000106,0.0015205000010602987,None,67.74920340000244,67.74920340000244,67.74920340000244,67.74920340000244,67.74920340000244,67.74920340000244,67.74920340000244,67.74920340000244,,001,P010,2025_Feb_01_1521,CategoryLocalizer,2021.2.3,59.937808529051495,
22.0,22.8,1,0.75,Stimuli\ImageFiles-Set1\Objects\Object_Highchair_00001.png,0,0,0,21,21,21,,,,,,,,,,,,,22.001715300000797,0.0017153000007965602,None,67.94941380000091,67.94941380000091,67.94941380000091,67.94941380000091,67.94941380000091,67.94941380000091,67.94941380000091,67.94941380000091,,001,P010,2025_Feb_01_1521,CategoryLocalizer,2021.2.3,59.937808529051495,
22.8,23.0,5,0.0,Stimuli\Blank.png,0,0,0,22,22,22,,,,,,,,,,,,,22.80202189999909,0.002021899999089527,None,68.75008960000196,68.75008960000196,68.75008960000196,68.75008960000196,68.75008960000196,68.75008960000196,68.75008960000196,68.75008960000196,,001,P010,2025_Feb_01_1521,CategoryLocalizer,2021.2.3,59.937808529051495,
23.0,23.8,1,0.75,Stimuli\ImageFiles-Set1\Objects\Object_ComputerMouse_00001.png,0,0,0,23,23,23,,,,,,,,,,,,,23.002173000000766,0.0021730000007664785,None,68.96696200000224,68.96696200000224,68.96696200000224,68.96696200000224,68.96696200000224,68.96696200000224,68.96696200000224,68.96696200000224,,001,P010,2025_Feb_01_1521,CategoryLocalizer,2021.2.3,59.937808529051495,
23.8,24.0,5,0.0,Stimuli\Blank.png,0,0,0,24,24,24,,,,,,,,,,,,,23.820518399999855,0.02051839999985461,None,69.76779490000263,69.76779490000263,69.76779490000263,69.76779490000263,69.76779490000263,69.76779490000263,69.76779490000263,69.76779490000263,,001,P010,2025_Feb_01_1521,CategoryLocalizer,2021.2.3,59.937808529051495,
24.0,24.8,1,0.75,Stimuli\ImageFiles-Set1\Objects\Object_ComputerMouse_00001.png,1,1,0,25,25,25,,,,,,,,,,,,,24.003187499998603,0.003187499998603016,1,69.95121190000282,69.95121190000282,69.95121190000282,69.95121190000282,69.95121190000282,69.95121190000282,69.95121190000282,69.95121190000282,0.3549123000011605,001,P010,2025_Feb_01_1521,CategoryLocalizer,2021.2.3,59.937808529051495,
24.8,25.0,5,0.0,Stimuli\Blank.png,0,0,0,26,26,26,,,,,,,,,,,,,24.806176800000685,0.006176800000684324,None,70.76855140000043,70.76855140000043,70.76855140000043,70.76855140000043,70.76855140000043,70.76855140000043,70.76855140000043,70.76855140000043,,001,P010,2025_Feb_01_1521,CategoryLocalizer,2021.2.3,59.937808529051495,
25.0,25.8,1,0.75,Stimuli\ImageFiles-Set1\Objects\Object_Wagon_00001.png,0,0,0,27,27,27,,,,,,,,,,,,,25.021254799998133,0.021254799998132512,None,70.96871950000059,70.96871950000059,70.96871950000059,70.96871950000059,70.96871950000059,70.96871950000059,70.96871950000059,70.96871950000059,,001,P010,2025_Feb_01_1521,CategoryLocalizer,2021.2.3,59.937808529051495,
25.8,26.0,5,0.0,Stimuli\Blank.png,0,0,0,28,28,28,,,,,,,,,,,,,25.805254899998545,0.005254899998544005,None,71.75275590000092,71.75275590000092,71.75275590000092,71.75275590000092,71.75275590000092,71.75275590000092,71.75275590000092,71.75275590000092,,001,P010,2025_Feb_01_1521,CategoryLocalizer,2021.2.3,59.937808529051495,
26.0,26.8,1,0.75,Stimuli\ImageFiles-Set1\Objects\Object_Peanut_00001.png,0,0,0,29,29,29,,,,,,,,,,,,,26.00551849999829,0.005518499998288462,None,71.95292960000006,71.95292960000006,71.95292960000006,71.95292960000006,71.95292960000006,71.95292960000006,71.95292960000006,71.95292960000006,,001,P010,2025_Feb_01_1521,CategoryLocalizer,2021.2.3,59.937808529051495,
26.8,27.0,5,0.0,Stimuli\Blank.png,0,0,0,30,30,30,,,,,,,,,,,,,26.80651450000005,0.006514500000047718,None,72.75363950000246,72.75363950000246,72.75363950000246,72.75363950000246,72.75363950000246,72.75363950000246,72.75363950000246,72.75363950000246,,001,P010,2025_Feb_01_1521,CategoryLocalizer,2021.2.3,59.937808529051495,
27.0,27.8,1,0.75,Stimuli\ImageFiles-Set1\Objects\Object_Motorcycle_00001.png,0,0,0,31,31,31,,,,,,,,,,,,,27.00663699999859,0.006636999998590909,None,72.97050520000266,72.97050520000266,72.97050520000266,72.97050520000266,72.97050520000266,72.97050520000266,72.97050520000266,72.97050520000266,,001,P010,2025_Feb_01_1521,CategoryLocalizer,2021.2.3,59.937808529051495,
27.8,28.0,5,0.0,Stimuli\Blank.png,0,0,0,32,32,32,,,,,,,,,,,,,27.823920599999838,0.023920599999836867,None,73.7711999000021,73.7711999000021,73.7711999000021,73.7711999000021,73.7711999000021,73.7711999000021,73.7711999000021,73.7711999000021,,001,P010,2025_Feb_01_1521,CategoryLocalizer,2021.2.3,59.937808529051495,
28.0,28.8,2,0.75,Stimuli\ImageFiles-Set1\Bodies\Bodies_Walking_00006.png,0,0,0,33,33,33,,,,,,,,,,,,,28.006480299998657,0.006480299998656847,None,73.95469969999976,73.95469969999976,73.95469969999976,73.95469969999976,73.95469969999976,73.95469969999976,73.95469969999976,73.95469969999976,,001,P010,2025_Feb_01_1521,CategoryLocalizer,2021.2.3,59.937808529051495,
28.8,29.0,5,0.0,Stimuli\Blank.png,0,0,0,34,34,34,,,,,,,,,,,,,28.808313699999417,0.008313699999416002,None,74.75540620000174,74.75540620000174,74.75540620000174,74.75540620000174,74.75540620000174,74.75540620000174,74.75540620000174,74.75540620000174,,001,P010,2025_Feb_01_1521,CategoryLocalizer,2021.2.3,59.937808529051495,
29.0,29.8,2,0.75,Stimuli\ImageFiles-Set1\Bodies\Bodies_CobraPose_00001.png,0,0,0,35,35,35,,,,,,,,,,,,,29.00746419999996,0.00746419999995851,None,74.95557840000038,74.95557840000038,74.95557840000038,74.95557840000038,74.95557840000038,74.95557840000038,74.95557840000038,74.95557840000038,,001,P010,2025_Feb_01_1521,CategoryLocalizer,2021.2.3,59.937808529051495,
29.8,30.0,5,0.0,Stimuli\Blank.png,0,0,0,36,36,36,,,,,,,,,,,,,29.808108400000492,0.0081084000004914,None,75.75628850000066,75.75628850000066,75.75628850000066,75.75628850000066,75.75628850000066,75.75628850000066,75.75628850000066,75.75628850000066,,001,P010,2025_Feb_01_1521,CategoryLocalizer,2021.2.3,59.937808529051495,
30.0,30.8,2,0.75,Stimuli\ImageFiles-Set1\Bodies\Bodies_Pushing_00001.png,0,0,0,37,37,37,,,,,,,,,,,,,30.008842100000038,0.008842100000038045,None,75.97315450000315,75.97315450000315,75.97315450000315,75.97315450000315,75.97315450000315,75.97315450000315,75.97315450000315,75.97315450000315,,001,P010,2025_Feb_01_1521,CategoryLocalizer,2021.2.3,59.937808529051495,
30.8,31.0,5,0.0,Stimuli\Blank.png,0,0,0,38,38,38,,,,,,,,,,,,,30.82619049999994,0.026190499999938055,None,76.77386010000191,76.77386010000191,76.77386010000191,76.77386010000191,76.77386010000191,76.77386010000191,76.77386010000191,76.77386010000191,,001,P010,2025_Feb_01_1521,CategoryLocalizer,2021.2.3,59.937808529051495,
31.0,31.8,2,0.75,Stimuli\ImageFiles-Set1\Bodies\Bodies_Hanging_00002.png,0,0,0,39,39,39,,,,,,,,,,,,,31.01190289999795,0.011902899997949135,None,76.974033100003,76.974033100003,76.974033100003,76.974033100003,76.974033100003,76.974033100003,76.974033100003,76.974033100003,,001,P010,2025_Feb_01_1521,CategoryLocalizer,2021.2.3,59.937808529051495,
31.8,32.0,5,0.0,Stimuli\Blank.png,0,0,0,40,40,40,,,,,,,,,,,,,31.827338200000668,0.027338200000667,None,77.77474300000176,77.77474300000176,77.77474300000176,77.77474300000176,77.77474300000176,77.77474300000176,77.77474300000176,77.77474300000176,,001,P010,2025_Feb_01_1521,CategoryLocalizer,2021.2.3,59.937808529051495,
32.0,32.8,2,0.75,Stimuli\ImageFiles-Set1\Bodies\Bodies_DownwardDog_00005.png,0,0,0,41,41,41,,,,,,,,,,,,,32.01078829999824,0.010788299998239381,None,77.95823400000154,77.95823400000154,77.95823400000154,77.95823400000154,77.95823400000154,77.95823400000154,77.95823400000154,77.95823400000154,,001,P010,2025_Feb_01_1521,CategoryLocalizer,2021.2.3,59.937808529051495,
32.8,33.0,5,0.0,Stimuli\Blank.png,0,0,0,42,42,42,,,,,,,,,,,,,32.81068450000021,0.010684500000209596,None,78.75895120000132,78.75895120000132,78.75895120000132,78.75895120000132,78.75895120000132,78.75895120000132,78.75895120000132,78.75895120000132,,001,P010,2025_Feb_01_1521,CategoryLocalizer,2021.2.3,59.937808529051495,
33.0,33.8,2,0.75,Stimuli\ImageFiles-Set1\Bodies\Bodies_Kneeling_00003.png,0,0,0,43,43,43,,,,,,,,,,,,,33.01166369999919,0.011663699999189703,None,78.95912900000258,78.95912900000258,78.95912900000258,78.95912900000258,78.95912900000258,78.95912900000258,78.95912900000258,78.95912900000258,,001,P010,2025_Feb_01_1521,CategoryLocalizer,2021.2.3,59.937808529051495,
33.8,34.0,5,0.0,Stimuli\Blank.png,0,0,0,44,44,44,,,,,,,,,,,,,33.81234729999778,0.012347299997784944,None,79.75982850000219,79.75982850000219,79.75982850000219,79.75982850000219,79.75982850000219,79.75982850000219,79.75982850000219,79.75982850000219,,001,P010,2025_Feb_01_1521,CategoryLocalizer,2021.2.3,59.937808529051495,
34.0,34.8,2,0.75,Stimuli\ImageFiles-Set1\Bodies\Bodies_Standing_00003.png,0,0,0,45,45,45,,,,,,,,,,,,,34.01242459999776,0.012424599997757468,None,79.96001500000057,79.96001500000057,79.96001500000057,79.96001500000057,79.96001500000057,79.96001500000057,79.96001500000057,79.96001500000057,,001,P010,2025_Feb_01_1521,CategoryLocalizer,2021.2.3,59.937808529051495,
34.8,35.0,5,0.0,Stimuli\Blank.png,0,0,0,46,46,46,,,,,,,,,,,,,34.81327650000094,0.013276500000941382,None,80.76071210000009,80.76071210000009,80.76071210000009,80.76071210000009,80.76071210000009,80.76071210000009,80.76071210000009,80.76071210000009,,001,P010,2025_Feb_01_1521,CategoryLocalizer,2021.2.3,59.937808529051495,
35.0,35.8,2,0.75,Stimuli\ImageFiles-Set1\Bodies\Bodies_PushUp_00002.png,0,0,0,47,47,47,,,,,,,,,,,,,35.01363409999976,0.013634099999762839,None,80.96097550000195,80.96097550000195,80.96097550000195,80.96097550000195,80.96097550000195,80.96097550000195,80.96097550000195,80.96097550000195,,001,P010,2025_Feb_01_1521,CategoryLocalizer,2021.2.3,59.937808529051495,
35.8,36.0,5,0.0,Stimuli\Blank.png,0,0,0,48,48,48,,,,,,,,,,,,,35.813365999998496,0.013365999998498523,None,81.76159800000096,81.76159800000096,81.76159800000096,81.76159800000096,81.76159800000096,81.76159800000096,81.76159800000096,81.76159800000096,,001,P010,2025_Feb_01_1521,CategoryLocalizer,2021.2.3,59.937808529051495,
36.0,36.8,2,0.75,Stimuli\ImageFiles-Set1\Bodies\Bodies_Falling_00006.png,0,0,0,49,49,49,,,,,,,,,,,,,36.013824300000124,0.013824300000123912,None,81.9617717000001,81.9617717000001,81.9617717000001,81.9617717000001,81.9617717000001,81.9617717000001,81.9617717000001,81.9617717000001,,001,P010,2025_Feb_01_1521,CategoryLocalizer,2021.2.3,59.937808529051495,
36.8,37.0,5,0.0,Stimuli\Blank.png,0,0,0,50,50,50,,,,,,,,,,,,,36.8160441,0.016044100000002004,None,82.77917590000288,82.77917590000288,82.77917590000288,82.77917590000288,82.77917590000288,82.77917590000288,82.77917590000288,82.77917590000288,,001,P010,2025_Feb_01_1521,CategoryLocalizer,2021.2.3,59.937808529051495,
37.0,37.8,2,0.75,Stimuli\ImageFiles-Set1\Bodies\Bodies_Falling_00006.png,1,1,0,51,51,51,,,,,,,,,,,,,37.01635069999975,0.01635069999974803,1,82.97934450000321,82.97934450000321,82.97934450000321,82.97934450000321,82.97934450000321,82.97934450000321,82.97934450000321,82.97934450000321,0.4116853000014089,001,P010,2025_Feb_01_1521,CategoryLocalizer,2021.2.3,59.937808529051495,
37.8,38.0,5,0.0,Stimuli\Blank.png,0,0,0,52,52,52,,,,,,,,,,,,,37.8163882000008,0.01638820000080443,None,83.76337700000295,83.76337700000295,83.76337700000295,83.76337700000295,83.76337700000295,83.76337700000295,83.76337700000295,83.76337700000295,,001,P010,2025_Feb_01_1521,CategoryLocalizer,2021.2.3,59.937808529051495,
38.0,38.8,2,0.75,Stimuli\ImageFiles-Set1\Bodies\Bodies_CobraPose_00003.png,0,0,0,53,53,53,,,,,,,,,,,,,37.998655399998825,-0.0013446000011754222,None,83.94682880000255,83.94682880000255,83.94682880000255,83.94682880000255,83.94682880000255,83.94682880000255,83.94682880000255,83.94682880000255,,001,P010,2025_Feb_01_1521,CategoryLocalizer,2021.2.3,59.937808529051495,
38.8,39.0,5,0.0,Stimuli\Blank.png,0,0,0,54,54,54,,,,,,,,,,,,,38.8001918000009,0.00019180000090557314,None,84.74758010000005,84.74758010000005,84.74758010000005,84.74758010000005,84.74758010000005,84.74758010000005,84.74758010000005,84.74758010000005,,001,P010,2025_Feb_01_1521,CategoryLocalizer,2021.2.3,59.937808529051495,
39.0,39.8,2,0.75,Stimuli\ImageFiles-Set1\Bodies\Bodies_Crawling_00001.png,0,0,0,55,55,55,,,,,,,,,,,,,39.00015110000095,0.00015110000094864517,None,84.9477575000019,84.9477575000019,84.9477575000019,84.9477575000019,84.9477575000019,84.9477575000019,84.9477575000019,84.9477575000019,,001,P010,2025_Feb_01_1521,CategoryLocalizer,2021.2.3,59.937808529051495,
39.8,40.0,5,0.0,Stimuli\Blank.png,0,0,0,56,56,56,,,,,,,,,,,,,39.801438399998005,0.0014383999980083217,None,85.74847250000312,85.74847250000312,85.74847250000312,85.74847250000312,85.74847250000312,85.74847250000312,85.74847250000312,85.74847250000312,,001,P010,2025_Feb_01_1521,CategoryLocalizer,2021.2.3,59.937808529051495,
40.0,40.8,2,0.75,Stimuli\ImageFiles-Set1\Bodies\Bodies_SittingFloor_00005.png,0,0,0,57,57,57,,,,,,,,,,,,,40.000540099998034,0.0005400999980338383,None,85.96531250000044,85.96531250000044,85.96531250000044,85.96531250000044,85.96531250000044,85.96531250000044,85.96531250000044,85.96531250000044,,001,P010,2025_Feb_01_1521,CategoryLocalizer,2021.2.3,59.937808529051495,
40.8,41.0,5,0.0,Stimuli\Blank.png,0,0,0,58,58,58,,,,,,,,,,,,,40.81931859999895,0.0193185999989538,None,86.76604829999997,86.76604829999997,86.76604829999997,86.76604829999997,86.76604829999997,86.76604829999997,86.76604829999997,86.76604829999997,,001,P010,2025_Feb_01_1521,CategoryLocalizer,2021.2.3,59.937808529051495,
41.0,41.8,2,0.75,Stimuli\ImageFiles-Set1\Bodies\Bodies_Kneeling_00007.png,0,0,0,59,59,59,,,,,,,,,,,,,41.001328399997874,0.0013283999978739303,None,86.94953610000084,86.94953610000084,86.94953610000084,86.94953610000084,86.94953610000084,86.94953610000084,86.94953610000084,86.94953610000084,,001,P010,2025_Feb_01_1521,CategoryLocalizer,2021.2.3,59.937808529051495,
41.8,42.0,5,0.0,Stimuli\Blank.png,0,0,0,60,60,60,,,,,,,,,,,,,41.80215450000105,0.002154500001054771,None,87.75022810000155,87.75022810000155,87.75022810000155,87.75022810000155,87.75022810000155,87.75022810000155,87.75022810000155,87.75022810000155,,001,P010,2025_Feb_01_1521,CategoryLocalizer,2021.2.3,59.937808529051495,
42.0,42.8,2,0.75,Stimuli\ImageFiles-Set1\Bodies\Bodies_SittingChair_00005.png,0,0,0,61,61,61,,,,,,,,,,,,,42.00291550000111,0.0029155000011087395,None,87.95050360000096,87.95050360000096,87.95050360000096,87.95050360000096,87.95050360000096,87.95050360000096,87.95050360000096,87.95050360000096,,001,P010,2025_Feb_01_1521,CategoryLocalizer,2021.2.3,59.937808529051495,
42.8,43.0,5,0.0,Stimuli\Blank.png,0,0,0,62,62,62,,,,,,,,,,,,,42.80297150000115,0.0029715000011520942,None,88.75111939999988,88.75111939999988,88.75111939999988,88.75111939999988,88.75111939999988,88.75111939999988,88.75111939999988,88.75111939999988,,001,P010,2025_Feb_01_1521,CategoryLocalizer,2021.2.3,59.937808529051495,
43.0,43.8,2,0.75,Stimuli\ImageFiles-Set1\Bodies\Bodies_Falling_00004.png,0,0,0,63,63,63,,,,,,,,,,,,,43.003799199999776,0.0037991999997757375,None,88.95128920000207,88.95128920000207,88.95128920000207,88.95128920000207,88.95128920000207,88.95128920000207,88.95128920000207,88.95128920000207,,001,P010,2025_Feb_01_1521,CategoryLocalizer,2021.2.3,59.937808529051495,
43.8,44.0,5,0.0,Stimuli\Blank.png,0,0,0,64,64,64,,,,,,,,,,,,,43.804458599999634,0.004458599999637158,None,89.75200949999999,89.75200949999999,89.75200949999999,89.75200949999999,89.75200949999999,89.75200949999999,89.75200949999999,89.75200949999999,,001,P010,2025_Feb_01_1521,CategoryLocalizer,2021.2.3,59.937808529051495,
44.0,44.8,3,0.75,Stimuli\ImageFiles-Set1\Faces\Face_00049.png,0,0,0,65,65,65,,,,,,,,,,,,,44.0057945999979,0.005794599997898331,None,89.96885300000213,89.96885300000213,89.96885300000213,89.96885300000213,89.96885300000213,89.96885300000213,89.96885300000213,89.96885300000213,,001,P010,2025_Feb_01_1521,CategoryLocalizer,2021.2.3,59.937808529051495,
44.8,45.0,5,0.0,Stimuli\Blank.png,0,0,0,66,66,66,,,,,,,,,,,,,44.82144630000039,0.021446300000391716,None,90.76957010000115,90.76957010000115,90.76957010000115,90.76957010000115,90.76957010000115,90.76957010000115,90.76957010000115,90.76957010000115,,001,P010,2025_Feb_01_1521,CategoryLocalizer,2021.2.3,59.937808529051495,
45.0,45.8,3,0.75,Stimuli\ImageFiles-Set1\Faces\Face_00115.png,0,0,0,67,67,67,,,,,,,,,,,,,45.00573219999933,0.005732199999329168,None,90.96971730000223,90.96971730000223,90.96971730000223,90.96971730000223,90.96971730000223,90.96971730000223,90.96971730000223,90.96971730000223,,001,P010,2025_Feb_01_1521,CategoryLocalizer,2021.2.3,59.937808529051495,
45.8,46.0,5,0.0,Stimuli\Blank.png,0,0,0,68,68,68,,,,,,,,,,,,,45.82281339999827,0.022813399998270256,None,91.77042310000252,91.77042310000252,91.77042310000252,91.77042310000252,91.77042310000252,91.77042310000252,91.77042310000252,91.77042310000252,,001,P010,2025_Feb_01_1521,CategoryLocalizer,2021.2.3,59.937808529051495,
46.0,46.8,3,0.75,Stimuli\ImageFiles-Set1\Faces\Face_00091.png,0,0,0,69,69,69,,,,,,,,,,,,,46.00691519999964,0.006915199999639299,None,91.97060160000183,91.97060160000183,91.97060160000183,91.97060160000183,91.97060160000183,91.97060160000183,91.97060160000183,91.97060160000183,,001,P010,2025_Feb_01_1521,CategoryLocalizer,2021.2.3,59.937808529051495,
46.8,47.0,5,0.0,Stimuli\Blank.png,0,0,0,70,70,70,,,,,,,,,,,,,46.825859199998376,0.025859199998379268,None,92.78803850000259,92.78803850000259,92.78803850000259,92.78803850000259,92.78803850000259,92.78803850000259,92.78803850000259,92.78803850000259,,001,P010,2025_Feb_01_1521,CategoryLocalizer,2021.2.3,59.937808529051495,
47.0,47.8,3,0.75,Stimuli\ImageFiles-Set1\Faces\Face_00091.png,1,1,0,71,71,71,,,,,,,,,,,,,47.02597869999954,0.025978699999541277,1,92.98819770000046,92.98819770000046,92.98819770000046,92.98819770000046,92.98819770000046,92.98819770000046,92.98819770000046,92.98819770000046,0.32016989999829093,001,P010,2025_Feb_01_1521,CategoryLocalizer,2021.2.3,59.937808529051495,
47.8,48.0,5,0.0,Stimuli\Blank.png,0,0,0,72,72,72,,,,,,,,,,,,,47.82692599999791,0.02692599999791412,None,93.7889047000026,93.7889047000026,93.7889047000026,93.7889047000026,93.7889047000026,93.7889047000026,93.7889047000026,93.7889047000026,,001,P010,2025_Feb_01_1521,CategoryLocalizer,2021.2.3,59.937808529051495,
48.0,48.8,3,0.75,Stimuli\ImageFiles-Set1\Faces\Face_00109.png,0,0,0,73,73,73,,,,,,,,,,,,,48.027046600000176,0.027046600000176113,None,93.98908740000115,93.98908740000115,93.98908740000115,93.98908740000115,93.98908740000115,93.98908740000115,93.98908740000115,93.98908740000115,,001,P010,2025_Feb_01_1521,CategoryLocalizer,2021.2.3,59.937808529051495,
48.8,49.0,5,0.0,Stimuli\Blank.png,0,0,0,74,74,74,,,,,,,,,,,,,48.82625579999876,0.026255799998764928,None,94.7731100000019,94.7731100000019,94.7731100000019,94.7731100000019,94.7731100000019,94.7731100000019,94.7731100000019,94.7731100000019,,001,P010,2025_Feb_01_1521,CategoryLocalizer,2021.2.3,59.937808529051495,
49.0,49.8,3,0.75,Stimuli\ImageFiles-Set1\Faces\Face_00009.png,0,0,0,75,75,75,,,,,,,,,,,,,49.009269099999074,0.00926909999907366,None,94.97328490000291,94.97328490000291,94.97328490000291,94.97328490000291,94.97328490000291,94.97328490000291,94.97328490000291,94.97328490000291,,001,P010,2025_Feb_01_1521,CategoryLocalizer,2021.2.3,59.937808529051495,
49.8,50.0,5,0.0,Stimuli\Blank.png,0,0,0,76,76,76,,,,,,,,,,,,,49.826608999999735,0.026608999999737648,None,95.7740072000015,95.7740072000015,95.7740072000015,95.7740072000015,95.7740072000015,95.7740072000015,95.7740072000015,95.7740072000015,,001,P010,2025_Feb_01_1521,CategoryLocalizer,2021.2.3,59.937808529051495,
50.0,50.8,3,0.75,Stimuli\ImageFiles-Set1\Faces\Face_00117.png,0,0,0,77,77,77,,,,,,,,,,,,,50.01104719999785,0.011047199997847201,None,95.97417440000208,95.97417440000208,95.97417440000208,95.97417440000208,95.97417440000208,95.97417440000208,95.97417440000208,95.97417440000208,,001,P010,2025_Feb_01_1521,CategoryLocalizer,2021.2.3,59.937808529051495,
50.8,51.0,5,0.0,Stimuli\Blank.png,0,0,0,78,78,78,,,,,,,,,,,,,50.82672559999992,0.026725599999920746,None,96.77488150000136,96.77488150000136,96.77488150000136,96.77488150000136,96.77488150000136,96.77488150000136,96.77488150000136,96.77488150000136,,001,P010,2025_Feb_01_1521,CategoryLocalizer,2021.2.3,59.937808529051495,
51.0,51.8,3,0.75,Stimuli\ImageFiles-Set1\Faces\Face_00081.png,0,0,0,79,79,79,,,,,,,,,,,,,51.01160879999952,0.01160879999952158,None,96.97505190000084,96.97505190000084,96.97505190000084,96.97505190000084,96.97505190000084,96.97505190000084,96.97505190000084,96.97505190000084,,001,P010,2025_Feb_01_1521,CategoryLocalizer,2021.2.3,59.937808529051495,
51.8,52.0,5,0.0,Stimuli\Blank.png,0,0,0,80,80,80,,,,,,,,,,,,,51.827567599997565,0.027567599997567527,None,97.77576419999968,97.77576419999968,97.77576419999968,97.77576419999968,97.77576419999968,97.77576419999968,97.77576419999968,97.77576419999968,,001,P010,2025_Feb_01_1521,CategoryLocalizer,2021.2.3,59.937808529051495,
52.0,52.8,3,0.75,Stimuli\ImageFiles-Set1\Faces\Face_00071.png,0,0,0,81,81,81,,,,,,,,,,,,,52.011339900000166,0.01133990000016638,None,97.97595950000323,97.97595950000323,97.97595950000323,97.97595950000323,97.97595950000323,97.97595950000323,97.97595950000323,97.97595950000323,,001,P010,2025_Feb_01_1521,CategoryLocalizer,2021.2.3,59.937808529051495,
52.8,53.0,5,0.0,Stimuli\Blank.png,0,0,0,82,82,82,,,,,,,,,,,,,52.83107689999815,0.031076899998154772,None,98.79334730000119,98.79334730000119,98.79334730000119,98.79334730000119,98.79334730000119,98.79334730000119,98.79334730000119,98.79334730000119,,001,P010,2025_Feb_01_1521,CategoryLocalizer,2021.2.3,59.937808529051495,
53.0,53.8,3,0.75,Stimuli\ImageFiles-Set1\Faces\Face_00097.png,0,0,0,83,83,83,,,,,,,,,,,,,53.029329699998925,0.029329699998925207,None,98.99352920000092,98.99352920000092,98.99352920000092,98.99352920000092,98.99352920000092,98.99352920000092,98.99352920000092,98.99352920000092,,001,P010,2025_Feb_01_1521,CategoryLocalizer,2021.2.3,59.937808529051495,
53.8,54.0,5,0.0,Stimuli\Blank.png,0,0,0,84,84,84,,,,,,,,,,,,,53.83160090000092,0.031600900000924526,None,99.79425740000079,99.79425740000079,99.79425740000079,99.79425740000079,99.79425740000079,99.79425740000079,99.79425740000079,99.79425740000079,,001,P010,2025_Feb_01_1521,CategoryLocalizer,2021.2.3,59.937808529051495,
54.0,54.8,3,0.75,Stimuli\ImageFiles-Set1\Faces\Face_00031.png,0,0,0,85,85,85,,,,,,,,,,,,,54.031285999997635,0.03128599999763537,None,99.99439360000179,99.99439360000179,99.99439360000179,99.99439360000179,99.99439360000179,99.99439360000179,99.99439360000179,99.99439360000179,,001,P010,2025_Feb_01_1521,CategoryLocalizer,2021.2.3,59.937808529051495,
54.8,55.0,5,0.0,Stimuli\Blank.png,0,0,0,86,86,86,,,,,,,,,,,,,54.83033889999933,0.030338899999335922,None,100.77847050000128,100.77847050000128,100.77847050000128,100.77847050000128,100.77847050000128,100.77847050000128,100.77847050000128,100.77847050000128,,001,P010,2025_Feb_01_1521,CategoryLocalizer,2021.2.3,59.937808529051495,
55.0,55.8,3,0.75,Stimuli\ImageFiles-Set1\Faces\Face_00020.png,0,0,0,87,87,87,,,,,,,,,,,,,55.0160618000009,0.016061800000898074,None,100.97860060000312,100.97860060000312,100.97860060000312,100.97860060000312,100.97860060000312,100.97860060000312,100.97860060000312,100.97860060000312,,001,P010,2025_Feb_01_1521,CategoryLocalizer,2021.2.3,59.937808529051495,
55.8,56.0,5,0.0,Stimuli\Blank.png,0,0,0,88,88,88,,,,,,,,,,,,,55.8162330999985,0.016233099998501643,None,101.77933040000062,101.77933040000062,101.77933040000062,101.77933040000062,101.77933040000062,101.77933040000062,101.77933040000062,101.77933040000062,,001,P010,2025_Feb_01_1521,CategoryLocalizer,2021.2.3,59.937808529051495,
56.0,56.8,3,0.75,Stimuli\ImageFiles-Set1\Faces\Face_00047.png,0,0,0,89,89,89,,,,,,,,,,,,,56.0146528999976,0.014652899997599889,None,101.96280480000132,101.96280480000132,101.96280480000132,101.96280480000132,101.96280480000132,101.96280480000132,101.96280480000132,101.96280480000132,,001,P010,2025_Feb_01_1521,CategoryLocalizer,2021.2.3,59.937808529051495,
56.8,57.0,5,0.0,Stimuli\Blank.png,0,0,0,90,90,90,,,,,,,,,,,,,56.81562699999995,0.015626999999952318,None,102.7635134000011,102.7635134000011,102.7635134000011,102.7635134000011,102.7635134000011,102.7635134000011,102.7635134000011,102.7635134000011,,001,P010,2025_Feb_01_1521,CategoryLocalizer,2021.2.3,59.937808529051495,
57.0,57.8,3,0.75,Stimuli\ImageFiles-Set1\Faces\Face_00101.png,0,0,0,91,91,91,,,,,,,,,,,,,57.00026369999978,0.00026369999977760017,None,102.96368710000024,102.96368710000024,102.96368710000024,102.96368710000024,102.96368710000024,102.96368710000024,102.96368710000024,102.96368710000024,,001,P010,2025_Feb_01_1521,CategoryLocalizer,2021.2.3,59.937808529051495,
57.8,58.0,5,0.0,Stimuli\Blank.png,0,0,0,92,92,92,,,,,,,,,,,,,57.8169713999996,0.01697139999960484,None,103.76439490000121,103.76439490000121,103.76439490000121,103.76439490000121,103.76439490000121,103.76439490000121,103.76439490000121,103.76439490000121,,001,P010,2025_Feb_01_1521,CategoryLocalizer,2021.2.3,59.937808529051495,
58.0,58.8,3,0.75,Stimuli\ImageFiles-Set1\Faces\Face_00075.png,0,0,0,93,93,93,,,,,,,,,,,,,58.00095289999808,0.0009528999980830122,None,103.96456860000035,103.96456860000035,103.96456860000035,103.96456860000035,103.96456860000035,103.96456860000035,103.96456860000035,103.96456860000035,,001,P010,2025_Feb_01_1521,CategoryLocalizer,2021.2.3,59.937808529051495,
58.8,59.0,5,0.0,Stimuli\Blank.png,0,0,0,94,94,94,,,,,,,,,,,,,58.817800000000716,0.017800000000718796,None,104.76527980000174,104.76527980000174,104.76527980000174,104.76527980000174,104.76527980000174,104.76527980000174,104.76527980000174,104.76527980000174,,001,P010,2025_Feb_01_1521,CategoryLocalizer,2021.2.3,59.937808529051495,
59.0,59.8,3,0.75,Stimuli\ImageFiles-Set1\Faces\Face_00051.png,0,0,0,95,95,95,,,,,,,,,,,,,59.00140889999966,0.001408899999660207,None,104.96546020000096,104.96546020000096,104.96546020000096,104.96546020000096,104.96546020000096,104.96546020000096,104.96546020000096,104.96546020000096,,001,P010,2025_Feb_01_1521,CategoryLocalizer,2021.2.3,59.937808529051495,
59.8,60.0,5,0.0,Stimuli\Blank.png,0,0,0,96,96,96,,,,,,,,,,,,,59.81807099999787,0.018070999997874537,None,105.76616540000032,105.76616540000032,105.76616540000032,105.76616540000032,105.76616540000032,105.76616540000032,105.76616540000032,105.76616540000032,,001,P010,2025_Feb_01_1521,CategoryLocalizer,2021.2.3,59.937808529051495,
60.0,60.8,4,0.75,Stimuli\ImageFiles-Set1\Scenes\Scenes_003.png,0,0,0,97,97,97,,,,,,,,,,,,,60.00258380000014,0.002583800000138581,None,105.96646780000083,105.96646780000083,105.96646780000083,105.96646780000083,105.96646780000083,105.96646780000083,105.96646780000083,105.96646780000083,,001,P010,2025_Feb_01_1521,CategoryLocalizer,2021.2.3,59.937808529051495,
60.8,61.0,5,0.0,Stimuli\Blank.png,0,0,0,98,98,98,,,,,,,,,,,,,60.82101490000059,0.02101490000059414,None,106.78375550000055,106.78375550000055,106.78375550000055,106.78375550000055,106.78375550000055,106.78375550000055,106.78375550000055,106.78375550000055,,001,P010,2025_Feb_01_1521,CategoryLocalizer,2021.2.3,59.937808529051495,
61.0,61.8,4,0.75,Stimuli\ImageFiles-Set1\Scenes\Scenes_002.png,0,0,0,99,99,99,,,,,,,,,,,,,61.02088779999758,0.02088779999758117,None,106.98391110000011,106.98391110000011,106.98391110000011,106.98391110000011,106.98391110000011,106.98391110000011,106.98391110000011,106.98391110000011,,001,P010,2025_Feb_01_1521,CategoryLocalizer,2021.2.3,59.937808529051495,
61.8,62.0,5,0.0,Stimuli\Blank.png,0,0,0,100,100,100,,,,,,,,,,,,,61.82033909999882,0.020339099998821553,None,107.76794370000061,107.76794370000061,107.76794370000061,107.76794370000061,107.76794370000061,107.76794370000061,107.76794370000061,107.76794370000061,,001,P010,2025_Feb_01_1521,CategoryLocalizer,2021.2.3,59.937808529051495,
62.0,62.8,4,0.75,Stimuli\ImageFiles-Set1\Scenes\Scenes_008.png,0,0,0,101,101,101,,,,,,,,,,,,,62.005709999997634,0.005709999997634441,None,107.96807890000127,107.96807890000127,107.96807890000127,107.96807890000127,107.96807890000127,107.96807890000127,107.96807890000127,107.96807890000127,,001,P010,2025_Feb_01_1521,CategoryLocalizer,2021.2.3,59.937808529051495,
62.8,63.0,5,0.0,Stimuli\Blank.png,0,0,0,102,102,102,,,,,,,,,,,,,62.82131870000012,0.021318700000122703,None,108.7688244000019,108.7688244000019,108.7688244000019,108.7688244000019,108.7688244000019,108.7688244000019,108.7688244000019,108.7688244000019,,001,P010,2025_Feb_01_1521,CategoryLocalizer,2021.2.3,59.937808529051495,
63.0,63.8,4,0.75,Stimuli\ImageFiles-Set1\Scenes\Scenes_036.png,0,0,0,103,103,103,,,,,,,,,,,,,63.00680179999836,0.006801799998356728,None,108.9690053000013,108.9690053000013,108.9690053000013,108.9690053000013,108.9690053000013,108.9690053000013,108.9690053000013,108.9690053000013,,001,P010,2025_Feb_01_1521,CategoryLocalizer,2021.2.3,59.937808529051495,
63.8,64.0,5,0.0,Stimuli\Blank.png,0,0,0,104,104,104,,,,,,,,,,,,,63.8214885999987,0.02148859999870467,None,109.76971570000023,109.76971570000023,109.76971570000023,109.76971570000023,109.76971570000023,109.76971570000023,109.76971570000023,109.76971570000023,,001,P010,2025_Feb_01_1521,CategoryLocalizer,2021.2.3,59.937808529051495,
64.0,64.8,4,0.75,Stimuli\ImageFiles-Set1\Scenes\Scenes_049.png,0,0,0,105,105,105,,,,,,,,,,,,,64.00568769999882,0.0056876999988162424,None,109.96990370000276,109.96990370000276,109.96990370000276,109.96990370000276,109.96990370000276,109.96990370000276,109.96990370000276,109.96990370000276,,001,P010,2025_Feb_01_1521,CategoryLocalizer,2021.2.3,59.937808529051495,
64.8,65.0,5,0.0,Stimuli\Blank.png,0,0,0,106,106,106,,,,,,,,,,,,,64.82371679999778,0.023716799997785643,None,110.77061930000127,110.77061930000127,110.77061930000127,110.77061930000127,110.77061930000127,110.77061930000127,110.77061930000127,110.77061930000127,,001,P010,2025_Feb_01_1521,CategoryLocalizer,2021.2.3,59.937808529051495,
65.0,65.8,4,0.75,Stimuli\ImageFiles-Set1\Scenes\Scenes_015.png,0,0,0,107,107,107,,,,,,,,,,,,,65.0073209000002,0.007320900000195252,None,110.97080330000244,110.97080330000244,110.97080330000244,110.97080330000244,110.97080330000244,110.97080330000244,110.97080330000244,110.97080330000244,,001,P010,2025_Feb_01_1521,CategoryLocalizer,2021.2.3,59.937808529051495,
65.8,66.0,5,0.0,Stimuli\Blank.png,0,0,0,108,108,108,,,,,,,,,,,,,65.82579679999981,0.025796799999810105,None,111.78817920000074,111.78817920000074,111.78817920000074,111.78817920000074,111.78817920000074,111.78817920000074,111.78817920000074,111.78817920000074,,001,P010,2025_Feb_01_1521,CategoryLocalizer,2021.2.3,59.937808529051495,
66.0,66.8,4,0.75,Stimuli\ImageFiles-Set1\Scenes\Scenes_033.png,0,0,0,109,109,109,,,,,,,,,,,,,66.02421959999992,0.024219599999923958,None,111.9883332999998,111.9883332999998,111.9883332999998,111.9883332999998,111.9883332999998,111.9883332999998,111.9883332999998,111.9883332999998,,001,P010,2025_Feb_01_1521,CategoryLocalizer,2021.2.3,59.937808529051495,
66.8,67.0,5,0.0,Stimuli\Blank.png,0,0,0,110,110,110,,,,,,,,,,,,,66.82604619999984,0.026046199999839814,None,112.78905450000093,112.78905450000093,112.78905450000093,112.78905450000093,112.78905450000093,112.78905450000093,112.78905450000093,112.78905450000093,,001,P010,2025_Feb_01_1521,CategoryLocalizer,2021.2.3,59.937808529051495,
67.0,67.8,4,0.75,Stimuli\ImageFiles-Set1\Scenes\Scenes_010.png,0,0,0,111,111,111,,,,,,,,,,,,,67.02637060000052,0.026370600000518607,None,112.98923180000202,112.98923180000202,112.98923180000202,112.98923180000202,112.98923180000202,112.98923180000202,112.98923180000202,112.98923180000202,,001,P010,2025_Feb_01_1521,CategoryLocalizer,2021.2.3,59.937808529051495,
67.8,68.0,5,0.0,Stimuli\Blank.png,0,0,0,112,112,112,,,,,,,,,,,,,67.825127600001,0.02512760000099945,None,113.7733146999999,113.7733146999999,113.7733146999999,113.7733146999999,113.7733146999999,113.7733146999999,113.7733146999999,113.7733146999999,,001,P010,2025_Feb_01_1521,CategoryLocalizer,2021.2.3,59.937808529051495,
68.0,68.8,4,0.75,Stimuli\ImageFiles-Set1\Scenes\Scenes_042.png,0,0,0,113,113,113,,,,,,,,,,,,,68.0094124999996,0.009412499999598367,None,113.97342410000056,113.97342410000056,113.97342410000056,113.97342410000056,113.97342410000056,113.97342410000056,113.97342410000056,113.97342410000056,,001,P010,2025_Feb_01_1521,CategoryLocalizer,2021.2.3,59.937808529051495,
68.8,69.0,5,0.0,Stimuli\Blank.png,0,0,0,114,114,114,,,,,,,,,,,,,68.82672289999755,0.026722899997551508,None,114.7741375000005,114.7741375000005,114.7741375000005,114.7741375000005,114.7741375000005,114.7741375000005,114.7741375000005,114.7741375000005,,001,P010,2025_Feb_01_1521,CategoryLocalizer,2021.2.3,59.937808529051495,
69.0,69.8,4,0.75,Stimuli\ImageFiles-Set1\Scenes\Scenes_022.png,0,0,0,115,115,115,,,,,,,,,,,,,69.01252699999895,0.012526999998954125,None,114.97435830000177,114.97435830000177,114.97435830000177,114.97435830000177,114.97435830000177,114.97435830000177,114.97435830000177,114.97435830000177,,001,P010,2025_Feb_01_1521,CategoryLocalizer,2021.2.3,59.937808529051495,
69.8,70.0,5,0.0,Stimuli\Blank.png,0,0,0,116,116,116,,,,,,,,,,,,,69.82755410000027,0.02755410000027325,None,115.77503590000197,115.77503590000197,115.77503590000197,115.77503590000197,115.77503590000197,115.77503590000197,115.77503590000197,115.77503590000197,,001,P010,2025_Feb_01_1521,CategoryLocalizer,2021.2.3,59.937808529051495,
70.0,70.8,4,0.75,Stimuli\ImageFiles-Set1\Scenes\Scenes_029.png,0,0,0,117,117,117,,,,,,,,,,,,,70.01032760000089,0.010327600000891834,None,115.95851500000208,115.95851500000208,115.95851500000208,115.95851500000208,115.95851500000208,115.95851500000208,115.95851500000208,115.95851500000208,,001,P010,2025_Feb_01_1521,CategoryLocalizer,2021.2.3,59.937808529051495,
70.8,71.0,5,0.0,Stimuli\Blank.png,0,0,0,118,118,118,,,,,,,,,,,,,70.81164229999922,0.011642299999223837,None,116.7592278000011,116.7592278000011,116.7592278000011,116.7592278000011,116.7592278000011,116.7592278000011,116.7592278000011,116.7592278000011,,001,P010,2025_Feb_01_1521,CategoryLocalizer,2021.2.3,59.937808529051495,
71.0,71.8,4,0.75,Stimuli\ImageFiles-Set1\Scenes\Scenes_046.png,0,0,0,119,119,119,,,,,,,,,,,,,71.0117296999997,0.01172969999970519,None,116.97610480000003,116.97610480000003,116.97610480000003,116.97610480000003,116.97610480000003,116.97610480000003,116.97610480000003,116.97610480000003,,001,P010,2025_Feb_01_1521,CategoryLocalizer,2021.2.3,59.937808529051495,
71.8,72.0,5,0.0,Stimuli\Blank.png,0,0,0,120,120,120,,,,,,,,,,,,,71.83098469999823,0.030984699998228393,None,117.7934924000001,117.7934924000001,117.7934924000001,117.7934924000001,117.7934924000001,117.7934924000001,117.7934924000001,117.7934924000001,,001,P010,2025_Feb_01_1521,CategoryLocalizer,2021.2.3,59.937808529051495,
72.0,72.8,4,0.75,Stimuli\ImageFiles-Set1\Scenes\Scenes_046.png,1,1,0,121,121,121,,,,,,,,,,,,,72.02938829999766,0.029388299997663125,1,117.99367830000119,117.99367830000119,117.99367830000119,117.99367830000119,117.99367830000119,117.99367830000119,117.99367830000119,117.99367830000119,0.5153824000008171,001,P010,2025_Feb_01_1521,CategoryLocalizer,2021.2.3,59.937808529051495,
72.8,73.0,5,0.0,Stimuli\Blank.png,0,0,0,122,122,122,,,,,,,,,,,,,72.83202879999953,0.03202879999953723,None,118.7943637999997,118.7943637999997,118.7943637999997,118.7943637999997,118.7943637999997,118.7943637999997,118.7943637999997,118.7943637999997,,001,P010,2025_Feb_01_1521,CategoryLocalizer,2021.2.3,59.937808529051495,
73.0,73.8,4,0.75,Stimuli\ImageFiles-Set1\Scenes\Scenes_056.png,0,0,0,123,123,123,,,,,,,,,,,,,73.03095409999878,0.030954099998780293,None,118.99453600000197,118.99453600000197,118.99453600000197,118.99453600000197,118.99453600000197,118.99453600000197,118.99453600000197,118.99453600000197,,001,P010,2025_Feb_01_1521,CategoryLocalizer,2021.2.3,59.937808529051495,
73.8,74.0,5,0.0,Stimuli\Blank.png,0,0,0,124,124,124,,,,,,,,,,,,,73.83075660000031,0.030756600000316325,None,119.77853730000061,119.77853730000061,119.77853730000061,119.77853730000061,119.77853730000061,119.77853730000061,119.77853730000061,119.77853730000061,,001,P010,2025_Feb_01_1521,CategoryLocalizer,2021.2.3,59.937808529051495,
74.0,74.8,4,0.75,Stimuli\ImageFiles-Set1\Scenes\Scenes_060.png,0,0,0,125,125,125,,,,,,,,,,,,,74.0156363999995,0.015636399999493733,None,119.9787537000011,119.9787537000011,119.9787537000011,119.9787537000011,119.9787537000011,119.9787537000011,119.9787537000011,119.9787537000011,,001,P010,2025_Feb_01_1521,CategoryLocalizer,2021.2.3,59.937808529051495,
74.8,75.0,5,0.0,Stimuli\Blank.png,0,0,0,126,126,126,,,,,,,,,,,,,74.81564100000105,0.01564100000105384,None,120.76277160000245,120.76277160000245,120.76277160000245,120.76277160000245,120.76277160000245,120.76277160000245,120.76277160000245,120.76277160000245,,001,P010,2025_Feb_01_1521,CategoryLocalizer,2021.2.3,59.937808529051495,
75.0,75.8,4,0.75,Stimuli\ImageFiles-Set1\Scenes\Scenes_020.png,0,0,0,127,127,127,,,,,,,,,,,,,74.99876740000036,-0.0012325999996392056,None,120.962941400001,120.962941400001,120.962941400001,120.962941400001,120.962941400001,120.962941400001,120.962941400001,120.962941400001,,001,P010,2025_Feb_01_1521,CategoryLocalizer,2021.2.3,59.937808529051495,
75.8,76.0,5,0.0,Stimuli\Blank.png,0,0,0,128,128,128,,,,,,,,,,,,,75.816616600001,0.016616600001000847,None,121.76366400000188,121.76366400000188,121.76366400000188,121.76366400000188,121.76366400000188,121.76366400000188,121.76366400000188,121.76366400000188,,001,P010,2025_Feb_01_1521,CategoryLocalizer,2021.2.3,59.937808529051495,
76.0,88.0,0,0.0,Stimuli\Blank.png,0,0,0,129,129,129,,,,,,,,,,,,,76.00086039999951,0.000860399999510264,None,121.96384160000162,121.96384160000162,121.96384160000162,121.96384160000162,121.96384160000162,121.96384160000162,121.96384160000162,121.96384160000162,,001,P010,2025_Feb_01_1521,CategoryLocalizer,2021.2.3,59.937808529051495,
88.0,88.8,3,0.75,Stimuli\ImageFiles-Set1\Faces\Face_00001.png,0,0,0,130,130,130,,,,,,,,,,,,,88.026851300001,0.02685130000099889,None,133.9744301000028,133.9744301000028,133.9744301000028,133.9744301000028,133.9744301000028,133.9744301000028,133.9744301000028,133.9744301000028,,001,P010,2025_Feb_01_1521,CategoryLocalizer,2021.2.3,59.937808529051495,
88.8,89.0,5,0.0,Stimuli\Blank.png,0,0,0,131,131,131,,,,,,,,,,,,,88.81063419999919,0.010634199999188354,None,134.7584981,134.7584981,134.7584981,134.7584981,134.7584981,134.7584981,134.7584981,134.7584981,,001,P010,2025_Feb_01_1521,CategoryLocalizer,2021.2.3,59.937808529051495,
89.0,89.8,3,0.75,Stimuli\ImageFiles-Set1\Faces\Face_00003.png,0,0,0,132,132,132,,,,,,,,,,,,,89.01118719999795,0.011187199997948483,None,134.9753536999997,134.9753536999997,134.9753536999997,134.9753536999997,134.9753536999997,134.9753536999997,134.9753536999997,134.9753536999997,,001,P010,2025_Feb_01_1521,CategoryLocalizer,2021.2.3,59.937808529051495,
89.8,90.0,5,0.0,Stimuli\Blank.png,0,0,0,133,133,133,,,,,,,,,,,,,89.82891739999832,0.028917399998320548,None,135.77609610000218,135.77609610000218,135.77609610000218,135.77609610000218,135.77609610000218,135.77609610000218,135.77609610000218,135.77609610000218,,001,P010,2025_Feb_01_1521,CategoryLocalizer,2021.2.3,59.937808529051495,
90.0,90.8,3,0.75,Stimuli\ImageFiles-Set1\Faces\Face_00111.png,0,0,0,134,134,134,,,,,,,,,,,,,90.01264420000007,0.01264420000006794,None,135.97622070000216,135.97622070000216,135.97622070000216,135.97622070000216,135.97622070000216,135.97622070000216,135.97622070000216,135.97622070000216,,001,P010,2025_Feb_01_1521,CategoryLocalizer,2021.2.3,59.937808529051495,
90.8,91.0,5,0.0,Stimuli\Blank.png,0,0,0,135,135,135,,,,,,,,,,,,,90.83068999999887,0.03068999999887012,None,136.79361720000088,136.79361720000088,136.79361720000088,136.79361720000088,136.79361720000088,136.79361720000088,136.79361720000088,136.79361720000088,,001,P010,2025_Feb_01_1521,CategoryLocalizer,2021.2.3,59.937808529051495,
91.0,91.8,3,0.75,Stimuli\ImageFiles-Set1\Faces\Face_00079.png,0,0,0,136,136,136,,,,,,,,,,,,,91.03115489999982,0.031154899999819463,None,136.9937983000018,136.9937983000018,136.9937983000018,136.9937983000018,136.9937983000018,136.9937983000018,136.9937983000018,136.9937983000018,,001,P010,2025_Feb_01_1521,CategoryLocalizer,2021.2.3,59.937808529051495,
91.8,92.0,5,0.0,Stimuli\Blank.png,0,0,0,137,137,137,,,,,,,,,,,,,91.83063039999979,0.030630399999793667,None,137.77783120000095,137.77783120000095,137.77783120000095,137.77783120000095,137.77783120000095,137.77783120000095,137.77783120000095,137.77783120000095,,001,P010,2025_Feb_01_1521,CategoryLocalizer,2021.2.3,59.937808529051495,
92.0,92.8,3,0.75,Stimuli\ImageFiles-Set1\Faces\Face_00087.png,0,0,0,138,138,138,,,,,,,,,,,,,92.01322349999828,0.013223499998275656,None,137.96134090000123,137.96134090000123,137.96134090000123,137.96134090000123,137.96134090000123,137.96134090000123,137.96134090000123,137.96134090000123,,001,P010,2025_Feb_01_1521,CategoryLocalizer,2021.2.3,59.937808529051495,
92.8,93.0,5,0.0,Stimuli\Blank.png,0,0,0,139,139,139,,,,,,,,,,,,,92.81572869999945,0.015728699999456808,None,138.77871850000156,138.77871850000156,138.77871850000156,138.77871850000156,138.77871850000156,138.77871850000156,138.77871850000156,138.77871850000156,,001,P010,2025_Feb_01_1521,CategoryLocalizer,2021.2.3,59.937808529051495,
93.0,93.8,3,0.75,Stimuli\ImageFiles-Set1\Faces\Face_00087.png,1,1,0,140,140,140,,,,,,,,,,,,,93.01489930000025,0.01489930000025197,1,138.96220979999998,138.96220979999998,138.96220979999998,138.96220979999998,138.96220979999998,138.96220979999998,138.96220979999998,138.96220979999998,0.5228895000000193,001,P010,2025_Feb_01_1521,CategoryLocalizer,2021.2.3,59.937808529051495,
93.8,94.0,5,0.0,Stimuli\Blank.png,0,0,0,141,141,141,,,,,,,,,,,,,93.815411399999,0.01541139999899599,None,139.76292840000315,139.76292840000315,139.76292840000315,139.76292840000315,139.76292840000315,139.76292840000315,139.76292840000315,139.76292840000315,,001,P010,2025_Feb_01_1521,CategoryLocalizer,2021.2.3,59.937808529051495,
94.0,94.8,3,0.75,Stimuli\ImageFiles-Set1\Faces\Face_00103.png,0,0,0,142,142,142,,,,,,,,,,,,,94.01580180000019,0.01580180000019027,None,139.96308930000305,139.96308930000305,139.96308930000305,139.96308930000305,139.96308930000305,139.96308930000305,139.96308930000305,139.96308930000305,,001,P010,2025_Feb_01_1521,CategoryLocalizer,2021.2.3,59.937808529051495,
94.8,95.0,5,0.0,Stimuli\Blank.png,0,0,0,143,143,143,,,,,,,,,,,,,94.80027469999914,0.0002746999991387611,None,140.74711930000194,140.74711930000194,140.74711930000194,140.74711930000194,140.74711930000194,140.74711930000194,140.74711930000194,140.74711930000194,,001,P010,2025_Feb_01_1521,CategoryLocalizer,2021.2.3,59.937808529051495,
95.0,95.8,3,0.75,Stimuli\ImageFiles-Set1\Faces\Face_00069.png,0,0,0,144,144,144,,,,,,,,,,,,,95.0010016999986,0.0010016999985964503,None,140.96399640000163,140.96399640000163,140.96399640000163,140.96399640000163,140.96399640000163,140.96399640000163,140.96399640000163,140.96399640000163,,001,P010,2025_Feb_01_1521,CategoryLocalizer,2021.2.3,59.937808529051495,
95.8,96.0,5,0.0,Stimuli\Blank.png,0,0,0,145,145,145,,,,,,,,,,,,,95.81667789999847,0.016677899998470025,None,141.76469590000124,141.76469590000124,141.76469590000124,141.76469590000124,141.76469590000124,141.76469590000124,141.76469590000124,141.76469590000124,,001,P010,2025_Feb_01_1521,CategoryLocalizer,2021.2.3,59.937808529051495,
96.0,96.8,3,0.75,Stimuli\ImageFiles-Set1\Faces\Face_00099.png,0,0,0,146,146,146,,,,,,,,,,,,,96.00067959999797,0.0006795999979658518,None,141.94813500000237,141.94813500000237,141.94813500000237,141.94813500000237,141.94813500000237,141.94813500000237,141.94813500000237,141.94813500000237,,001,P010,2025_Feb_01_1521,CategoryLocalizer,2021.2.3,59.937808529051495,
96.8,97.0,5,0.0,Stimuli\Blank.png,0,0,0,147,147,147,,,,,,,,,,,,,96.80138570000054,0.0013857000005401687,None,142.74889390000317,142.74889390000317,142.74889390000317,142.74889390000317,142.74889390000317,142.74889390000317,142.74889390000317,142.74889390000317,,001,P010,2025_Feb_01_1521,CategoryLocalizer,2021.2.3,59.937808529051495,
97.0,97.8,3,0.75,Stimuli\ImageFiles-Set1\Faces\Face_00113.png,0,0,0,148,148,148,,,,,,,,,,,,,97.00139349999881,0.0013934999988123309,None,142.9657361999998,142.9657361999998,142.9657361999998,142.9657361999998,142.9657361999998,142.9657361999998,142.9657361999998,142.9657361999998,,001,P010,2025_Feb_01_1521,CategoryLocalizer,2021.2.3,59.937808529051495,
97.8,98.0,5,0.0,Stimuli\Blank.png,0,0,0,149,149,149,,,,,,,,,,,,,97.82102089999898,0.021020899998987375,None,143.78315280000243,143.78315280000243,143.78315280000243,143.78315280000243,143.78315280000243,143.78315280000243,143.78315280000243,143.78315280000243,,001,P010,2025_Feb_01_1521,CategoryLocalizer,2021.2.3,59.937808529051495,
98.0,98.8,3,0.75,Stimuli\ImageFiles-Set1\Faces\Face_00065.png,1,1,0,150,150,150,,,,,,,,,,,,,98.0189735999993,0.01897359999929904,None,143.96662910000305,143.96662910000305,143.96662910000305,143.96662910000305,143.96662910000305,143.96662910000305,143.96662910000305,143.96662910000305,,001,P010,2025_Feb_01_1521,CategoryLocalizer,2021.2.3,59.937808529051495,
98.8,99.0,5,0.0,Stimuli\Blank.png,0,0,0,151,151,151,,,,,,,,,,,,,98.80321080000067,0.0032108000006729753,None,144.75065080000059,144.75065080000059,144.75065080000059,144.75065080000059,144.75065080000059,144.75065080000059,144.75065080000059,144.75065080000059,,001,P010,2025_Feb_01_1521,CategoryLocalizer,2021.2.3,59.937808529051495,
99.0,99.8,3,0.75,Stimuli\ImageFiles-Set1\Faces\Face_00077.png,0,0,0,152,152,152,,,,,,,,,,,,,99.00257050000073,0.0025705000007292256,None,144.9675556000002,144.9675556000002,144.9675556000002,144.9675556000002,144.9675556000002,144.9675556000002,144.9675556000002,144.9675556000002,,001,P010,2025_Feb_01_1521,CategoryLocalizer,2021.2.3,59.937808529051495,
99.8,100.0,5,0.0,Stimuli\Blank.png,0,0,0,153,153,153,,,,,,,,,,,,,99.82157820000066,0.02157820000066124,None,145.76822430000175,145.76822430000175,145.76822430000175,145.76822430000175,145.76822430000175,145.76822430000175,145.76822430000175,145.76822430000175,,001,P010,2025_Feb_01_1521,CategoryLocalizer,2021.2.3,59.937808529051495,
100.0,100.8,3,0.75,Stimuli\ImageFiles-Set1\Faces\Face_00077.png,0,0,0,154,154,154,,,,,,,,,,,,,100.00403079999887,0.004030799998872681,1,145.9517147000006,145.9517147000006,145.9517147000006,145.9517147000006,145.9517147000006,145.9517147000006,145.9517147000006,145.9517147000006,0.47958700000162935,001,P010,2025_Feb_01_1521,CategoryLocalizer,2021.2.3,59.937808529051495,
100.8,101.0,5,0.0,Stimuli\Blank.png,0,0,0,155,155,155,,,,,,,,,,,,,100.80705500000113,0.007055000001130907,None,146.7691055000032,146.7691055000032,146.7691055000032,146.7691055000032,146.7691055000032,146.7691055000032,146.7691055000032,146.7691055000032,,001,P010,2025_Feb_01_1521,CategoryLocalizer,2021.2.3,59.937808529051495,
101.0,101.8,3,0.75,Stimuli\ImageFiles-Set1\Faces\Face_00059.png,0,0,0,156,156,156,,,,,,,,,,,,,101.02194299999974,0.021942999999737367,None,146.98596030000044,146.98596030000044,146.98596030000044,146.98596030000044,146.98596030000044,146.98596030000044,146.98596030000044,146.98596030000044,,001,P010,2025_Feb_01_1521,CategoryLocalizer,2021.2.3,59.937808529051495,
101.8,102.0,5,0.0,Stimuli\Blank.png,0,0,0,157,157,157,,,,,,,,,,,,,101.82172580000042,0.02172580000042501,None,147.76998600000297,147.76998600000297,147.76998600000297,147.76998600000297,147.76998600000297,147.76998600000297,147.76998600000297,147.76998600000297,,001,P010,2025_Feb_01_1521,CategoryLocalizer,2021.2.3,59.937808529051495,
102.0,102.8,3,0.75,Stimuli\ImageFiles-Set1\Faces\Face_00025.png,0,0,0,158,158,158,,,,,,,,,,,,,102.00586549999935,0.005865499999345047,None,147.95346240000072,147.95346240000072,147.95346240000072,147.95346240000072,147.95346240000072,147.95346240000072,147.95346240000072,147.95346240000072,,001,P010,2025_Feb_01_1521,CategoryLocalizer,2021.2.3,59.937808529051495,
102.8,103.0,5,0.0,Stimuli\Blank.png,0,0,0,159,159,159,,,,,,,,,,,,,102.80668189999778,0.0066818999977869,None,148.7542033000027,148.7542033000027,148.7542033000027,148.7542033000027,148.7542033000027,148.7542033000027,148.7542033000027,148.7542033000027,,001,P010,2025_Feb_01_1521,CategoryLocalizer,2021.2.3,59.937808529051495,
103.0,103.8,3,0.75,Stimuli\ImageFiles-Set1\Faces\Face_00041.png,0,0,0,160,160,160,,,,,,,,,,,,,103.00710170000093,0.0071017000009305775,None,148.95437070000116,148.95437070000116,148.95437070000116,148.95437070000116,148.95437070000116,148.95437070000116,148.95437070000116,148.95437070000116,,001,P010,2025_Feb_01_1521,CategoryLocalizer,2021.2.3,59.937808529051495,
103.8,104.0,5,0.0,Stimuli\Blank.png,0,0,0,161,161,161,,,,,,,,,,,,,103.8076715999996,0.007671599999596879,None,149.75507629999993,149.75507629999993,149.75507629999993,149.75507629999993,149.75507629999993,149.75507629999993,149.75507629999993,149.75507629999993,,001,P010,2025_Feb_01_1521,CategoryLocalizer,2021.2.3,59.937808529051495,
104.0,104.8,1,0.75,Stimuli\ImageFiles-Set1\Objects\Object_Bottle_00001.png,0,0,0,162,162,162,,,,,,,,,,,,,104.00710640000034,0.007106400000338908,None,149.95530130000043,149.95530130000043,149.95530130000043,149.95530130000043,149.95530130000043,149.95530130000043,149.95530130000043,149.95530130000043,,001,P010,2025_Feb_01_1521,CategoryLocalizer,2021.2.3,59.937808529051495,
104.8,105.0,5,0.0,Stimuli\Blank.png,0,0,0,163,163,163,,,,,,,,,,,,,104.80837339999925,0.008373399999257458,None,150.7560252000003,150.7560252000003,150.7560252000003,150.7560252000003,150.7560252000003,150.7560252000003,150.7560252000003,150.7560252000003,,001,P010,2025_Feb_01_1521,CategoryLocalizer,2021.2.3,59.937808529051495,
105.0,105.8,1,0.75,Stimuli\ImageFiles-Set1\Objects\Object_Stroller_00001.png,0,0,0,164,164,164,,,,,,,,,,,,,105.00807279999935,0.008072799999354174,None,150.95623010000054,150.95623010000054,150.95623010000054,150.95623010000054,150.95623010000054,150.95623010000054,150.95623010000054,150.95623010000054,,001,P010,2025_Feb_01_1521,CategoryLocalizer,2021.2.3,59.937808529051495,
105.8,106.0,5,0.0,Stimuli\Blank.png,0,0,0,165,165,165,,,,,,,,,,,,,105.81072289999793,0.010722899997929858,None,151.77354770000238,151.77354770000238,151.77354770000238,151.77354770000238,151.77354770000238,151.77354770000238,151.77354770000238,151.77354770000238,,001,P010,2025_Feb_01_1521,CategoryLocalizer,2021.2.3,59.937808529051495,
106.0,106.8,1,0.75,Stimuli\ImageFiles-Set1\Objects\Object_Football_00001.png,0,0,0,166,166,166,,,,,,,,,,,,,106.02552319999813,0.02552319999813335,None,151.97371420000127,151.97371420000127,151.97371420000127,151.97371420000127,151.97371420000127,151.97371420000127,151.97371420000127,151.97371420000127,,001,P010,2025_Feb_01_1521,CategoryLocalizer,2021.2.3,59.937808529051495,
106.8,107.0,5,0.0,Stimuli\Blank.png,0,0,0,167,167,167,,,,,,,,,,,,,106.81143299999894,0.011432999998945093,None,152.77443340000173,152.77443340000173,152.77443340000173,152.77443340000173,152.77443340000173,152.77443340000173,152.77443340000173,152.77443340000173,,001,P010,2025_Feb_01_1521,CategoryLocalizer,2021.2.3,59.937808529051495,
107.0,107.8,1,0.75,Stimuli\ImageFiles-Set1\Objects\Object_Key_00001.png,0,0,0,168,168,168,,,,,,,,,,,,,107.02717370000028,0.027173700000275858,None,152.9745967000017,152.9745967000017,152.9745967000017,152.9745967000017,152.9745967000017,152.9745967000017,152.9745967000017,152.9745967000017,,001,P010,2025_Feb_01_1521,CategoryLocalizer,2021.2.3,59.937808529051495,
107.8,108.0,5,0.0,Stimuli\Blank.png,0,0,0,169,169,169,,,,,,,,,,,,,107.81154880000031,0.011548800000312553,None,153.75862510000297,153.75862510000297,153.75862510000297,153.75862510000297,153.75862510000297,153.75862510000297,153.75862510000297,153.75862510000297,,001,P010,2025_Feb_01_1521,CategoryLocalizer,2021.2.3,59.937808529051495,
108.0,108.8,1,0.75,Stimuli\ImageFiles-Set1\Objects\Object_Lamp_00001.png,0,0,0,170,170,170,,,,,,,,,,,,,108.01110719999997,0.011107199999969453,None,153.9588070000027,153.9588070000027,153.9588070000027,153.9588070000027,153.9588070000027,153.9588070000027,153.9588070000027,153.9588070000027,,001,P010,2025_Feb_01_1521,CategoryLocalizer,2021.2.3,59.937808529051495,
108.8,109.0,5,0.0,Stimuli\Blank.png,0,0,0,171,171,171,,,,,,,,,,,,,108.81138839999767,0.011388399997670717,None,154.75950470000316,154.75950470000316,154.75950470000316,154.75950470000316,154.75950470000316,154.75950470000316,154.75950470000316,154.75950470000316,,001,P010,2025_Feb_01_1521,CategoryLocalizer,2021.2.3,59.937808529051495,
109.0,109.8,1,0.75,Stimuli\ImageFiles-Set1\Objects\Object_Box_00001.png,0,0,0,172,172,172,,,,,,,,,,,,,109.01200999999855,0.012009999998554122,None,154.95967790000213,154.95967790000213,154.95967790000213,154.95967790000213,154.95967790000213,154.95967790000213,154.95967790000213,154.95967790000213,,001,P010,2025_Feb_01_1521,CategoryLocalizer,2021.2.3,59.937808529051495,
109.8,110.0,5,0.0,Stimuli\Blank.png,0,0,0,173,173,173,,,,,,,,,,,,,109.81216969999878,0.012169699998779038,None,155.76039330000276,155.76039330000276,155.76039330000276,155.76039330000276,155.76039330000276,155.76039330000276,155.76039330000276,155.76039330000276,,001,P010,2025_Feb_01_1521,CategoryLocalizer,2021.2.3,59.937808529051495,
110.0,110.8,1,0.75,Stimuli\ImageFiles-Set1\Objects\Object_Locker_00001.png,0,0,0,174,174,174,,,,,,,,,,,,,110.01301930000045,0.01301930000045104,None,155.96056840000165,155.96056840000165,155.96056840000165,155.96056840000165,155.96056840000165,155.96056840000165,155.96056840000165,155.96056840000165,,001,P010,2025_Feb_01_1521,CategoryLocalizer,2021.2.3,59.937808529051495,
110.8,111.0,5,0.0,Stimuli\Blank.png,0,0,0,175,175,175,,,,,,,,,,,,,110.81380509999872,0.013805099998720038,None,156.7613652,156.7613652,156.7613652,156.7613652,156.7613652,156.7613652,156.7613652,156.7613652,,001,P010,2025_Feb_01_1521,CategoryLocalizer,2021.2.3,59.937808529051495,
111.0,111.8,1,0.75,Stimuli\ImageFiles-Set1\Objects\Object_Locker_00001.png,1,1,0,176,176,176,,,,,,,,,,,,,111.01607650000005,0.016076500000053784,1,156.97814050000306,156.97814050000306,156.97814050000306,156.97814050000306,156.97814050000306,156.97814050000306,156.97814050000306,156.97814050000306,0.4119842999971297,001,P010,2025_Feb_01_1521,CategoryLocalizer,2021.2.3,59.937808529051495,
111.8,112.0,5,0.0,Stimuli\Blank.png,0,0,0,177,177,177,,,,,,,,,,,,,111.81624029999875,0.016240299998756313,None,157.77885360000073,157.77885360000073,157.77885360000073,157.77885360000073,157.77885360000073,157.77885360000073,157.77885360000073,157.77885360000073,,001,P010,2025_Feb_01_1521,CategoryLocalizer,2021.2.3,59.937808529051495,
112.0,112.8,1,0.75,Stimuli\ImageFiles-Set1\Objects\Object_Ring_00001.png,0,0,0,178,178,178,,,,,,,,,,,,,112.01439480000045,0.014394800000445684,None,157.9623378000033,157.9623378000033,157.9623378000033,157.9623378000033,157.9623378000033,157.9623378000033,157.9623378000033,157.9623378000033,,001,P010,2025_Feb_01_1521,CategoryLocalizer,2021.2.3,59.937808529051495,
112.8,113.0,5,0.0,Stimuli\Blank.png,0,0,0,179,179,179,,,,,,,,,,,,,112.81568329999936,0.015683299999366795,None,158.7630659000024,158.7630659000024,158.7630659000024,158.7630659000024,158.7630659000024,158.7630659000024,158.7630659000024,158.7630659000024,,001,P010,2025_Feb_01_1521,CategoryLocalizer,2021.2.3,59.937808529051495,
113.0,113.8,1,0.75,Stimuli\ImageFiles-Set1\Objects\Object_Boat_00001.png,0,0,0,180,180,180,,,,,,,,,,,,,113.00078489999942,0.0007848999994166661,None,158.96323180000036,158.96323180000036,158.96323180000036,158.96323180000036,158.96323180000036,158.96323180000036,158.96323180000036,158.96323180000036,,001,P010,2025_Feb_01_1521,CategoryLocalizer,2021.2.3,59.937808529051495,
113.8,114.0,5,0.0,Stimuli\Blank.png,0,0,0,181,181,181,,,,,,,,,,,,,113.81637599999885,0.016375999998857083,None,159.7639341000031,159.7639341000031,159.7639341000031,159.7639341000031,159.7639341000031,159.7639341000031,159.7639341000031,159.7639341000031,,001,P010,2025_Feb_01_1521,CategoryLocalizer,2021.2.3,59.937808529051495,
114.0,114.8,1,0.75,Stimuli\ImageFiles-Set1\Objects\Object_Book_00001.png,0,0,0,182,182,182,,,,,,,,,,,,,114.00121719999879,0.0012171999987913296,None,159.96410939999987,159.96410939999987,159.96410939999987,159.96410939999987,159.96410939999987,159.96410939999987,159.96410939999987,159.96410939999987,,001,P010,2025_Feb_01_1521,CategoryLocalizer,2021.2.3,59.937808529051495,
114.8,115.0,5,0.0,Stimuli\Blank.png,0,0,0,183,183,183,,,,,,,,,,,,,114.81683820000035,0.016838200000350412,None,160.7648180000033,160.7648180000033,160.7648180000033,160.7648180000033,160.7648180000033,160.7648180000033,160.7648180000033,160.7648180000033,,001,P010,2025_Feb_01_1521,CategoryLocalizer,2021.2.3,59.937808529051495,
115.0,115.8,1,0.75,Stimuli\ImageFiles-Set1\Objects\Object_ShoppingCart_00001.png,0,0,0,184,184,184,,,,,,,,,,,,,115.00069599999915,0.0006959999991522636,None,160.9483203000018,160.9483203000018,160.9483203000018,160.9483203000018,160.9483203000018,160.9483203000018,160.9483203000018,160.9483203000018,,001,P010,2025_Feb_01_1521,CategoryLocalizer,2021.2.3,59.937808529051495,
115.8,116.0,5,0.0,Stimuli\Blank.png,0,0,0,185,185,185,,,,,,,,,,,,,115.80142680000063,0.0014268000006296688,None,161.74902870000005,161.74902870000005,161.74902870000005,161.74902870000005,161.74902870000005,161.74902870000005,161.74902870000005,161.74902870000005,,001,P010,2025_Feb_01_1521,CategoryLocalizer,2021.2.3,59.937808529051495,
116.0,116.8,1,0.75,Stimuli\ImageFiles-Set1\Objects\Object_Dice_00001.png,0,0,0,186,186,186,,,,,,,,,,,,,116.00169470000037,0.0016947000003710855,None,161.9659148000028,161.9659148000028,161.9659148000028,161.9659148000028,161.9659148000028,161.9659148000028,161.9659148000028,161.9659148000028,,001,P010,2025_Feb_01_1521,CategoryLocalizer,2021.2.3,59.937808529051495,
116.8,117.0,5,0.0,Stimuli\Blank.png,0,0,0,187,187,187,,,,,,,,,,,,,116.81931579999946,0.019315799999461092,None,162.76659850000215,162.76659850000215,162.76659850000215,162.76659850000215,162.76659850000215,162.76659850000215,162.76659850000215,162.76659850000215,,001,P010,2025_Feb_01_1521,CategoryLocalizer,2021.2.3,59.937808529051495,
117.0,117.8,1,0.75,Stimuli\ImageFiles-Set1\Objects\Object_Crib_00001.png,0,0,0,188,188,188,,,,,,,,,,,,,117.00187219999862,0.0018721999986155424,None,162.95008190000226,162.95008190000226,162.95008190000226,162.95008190000226,162.95008190000226,162.95008190000226,162.95008190000226,162.95008190000226,,001,P010,2025_Feb_01_1521,CategoryLocalizer,2021.2.3,59.937808529051495,
117.8,118.0,5,0.0,Stimuli\Blank.png,0,0,0,189,189,189,,,,,,,,,,,,,117.80270709999968,0.0027070999996823275,None,163.75080100000196,163.75080100000196,163.75080100000196,163.75080100000196,163.75080100000196,163.75080100000196,163.75080100000196,163.75080100000196,,001,P010,2025_Feb_01_1521,CategoryLocalizer,2021.2.3,59.937808529051495,
118.0,118.8,1,0.75,Stimuli\ImageFiles-Set1\Objects\Object_Oven_00001.png,0,0,0,190,190,190,,,,,,,,,,,,,118.00349450000067,0.0034945000006700866,None,163.95093660000202,163.95093660000202,163.95093660000202,163.95093660000202,163.95093660000202,163.95093660000202,163.95093660000202,163.95093660000202,,001,P010,2025_Feb_01_1521,CategoryLocalizer,2021.2.3,59.937808529051495,
118.8,119.0,5,0.0,Stimuli\Blank.png,0,0,0,191,191,191,,,,,,,,,,,,,118.80619250000018,0.006192500000182122,None,164.7683818000005,164.7683818000005,164.7683818000005,164.7683818000005,164.7683818000005,164.7683818000005,164.7683818000005,164.7683818000005,,001,P010,2025_Feb_01_1521,CategoryLocalizer,2021.2.3,59.937808529051495,
119.0,119.8,1,0.75,Stimuli\ImageFiles-Set1\Objects\Object_Brush_00001.png,0,0,0,192,192,192,,,,,,,,,,,,,119.02088250000088,0.0208825000008801,None,164.96854580000218,164.96854580000218,164.96854580000218,164.96854580000218,164.96854580000218,164.96854580000218,164.96854580000218,164.96854580000218,,001,P010,2025_Feb_01_1521,CategoryLocalizer,2021.2.3,59.937808529051495,
119.8,120.0,5,0.0,Stimuli\Blank.png,0,0,0,193,193,193,,,,,,,,,,,,,119.80623560000095,0.006235600000948693,None,165.76927320000323,165.76927320000323,165.76927320000323,165.76927320000323,165.76927320000323,165.76927320000323,165.76927320000323,165.76927320000323,,001,P010,2025_Feb_01_1521,CategoryLocalizer,2021.2.3,59.937808529051495,
120.0,120.8,4,0.75,Stimuli\ImageFiles-Set1\Scenes\Scenes_017.png,0,0,0,194,194,194,,,,,,,,,,,,,120.02211979999993,0.022119799999927636,None,165.96943600000304,165.96943600000304,165.96943600000304,165.96943600000304,165.96943600000304,165.96943600000304,165.96943600000304,165.96943600000304,,001,P010,2025_Feb_01_1521,CategoryLocalizer,2021.2.3,59.937808529051495,
120.8,121.0,5,0.0,Stimuli\Blank.png,0,0,0,195,195,195,,,,,,,,,,,,,120.80581119999988,0.005811199999882888,None,166.75346100000024,166.75346100000024,166.75346100000024,166.75346100000024,166.75346100000024,166.75346100000024,166.75346100000024,166.75346100000024,,001,P010,2025_Feb_01_1521,CategoryLocalizer,2021.2.3,59.937808529051495,
121.0,121.8,4,0.75,Stimuli\ImageFiles-Set1\Scenes\Scenes_037.png,0,0,0,196,196,196,,,,,,,,,,,,,121.00610070000039,0.006100700000388315,None,166.95362620000014,166.95362620000014,166.95362620000014,166.95362620000014,166.95362620000014,166.95362620000014,166.95362620000014,166.95362620000014,,001,P010,2025_Feb_01_1521,CategoryLocalizer,2021.2.3,59.937808529051495,
121.8,122.0,5,0.0,Stimuli\Blank.png,0,0,0,197,197,197,,,,,,,,,,,,,121.80674689999796,0.006746899997963851,None,167.75434190000306,167.75434190000306,167.75434190000306,167.75434190000306,167.75434190000306,167.75434190000306,167.75434190000306,167.75434190000306,,001,P010,2025_Feb_01_1521,CategoryLocalizer,2021.2.3,59.937808529051495,
122.0,122.8,4,0.75,Stimuli\ImageFiles-Set1\Scenes\Scenes_037.png,1,1,0,198,198,198,,,,,,,,,,,,,122.00676849999945,0.006768499999452615,1,167.97119130000283,167.97119130000283,167.97119130000283,167.97119130000283,167.97119130000283,167.97119130000283,167.97119130000283,167.97119130000283,0.44026079999821377,001,P010,2025_Feb_01_1521,CategoryLocalizer,2021.2.3,59.937808529051495,
122.8,123.0,5,0.0,Stimuli\Blank.png,0,0,0,199,199,199,,,,,,,,,,,,,122.82442660000015,0.024426600000154508,None,168.77191200000016,168.77191200000016,168.77191200000016,168.77191200000016,168.77191200000016,168.77191200000016,168.77191200000016,168.77191200000016,,001,P010,2025_Feb_01_1521,CategoryLocalizer,2021.2.3,59.937808529051495,
123.0,123.8,4,0.75,Stimuli\ImageFiles-Set1\Scenes\Scenes_051.png,0,0,0,200,200,200,,,,,,,,,,,,,123.00806119999834,0.008061199998337543,None,168.95537440000044,168.95537440000044,168.95537440000044,168.95537440000044,168.95537440000044,168.95537440000044,168.95537440000044,168.95537440000044,,001,P010,2025_Feb_01_1521,CategoryLocalizer,2021.2.3,59.937808529051495,
123.8,124.0,5,0.0,Stimuli\Blank.png,0,0,0,201,201,201,,,,,,,,,,,,,123.80865569999878,0.008655699998783462,None,169.75618690000192,169.75618690000192,169.75618690000192,169.75618690000192,169.75618690000192,169.75618690000192,169.75618690000192,169.75618690000192,,001,P010,2025_Feb_01_1521,CategoryLocalizer,2021.2.3,59.937808529051495,
124.0,124.8,4,0.75,Stimuli\ImageFiles-Set1\Scenes\Scenes_026.png,0,0,0,202,202,202,,,,,,,,,,,,,124.00865189999968,0.00865189999967697,None,169.95628620000207,169.95628620000207,169.95628620000207,169.95628620000207,169.95628620000207,169.95628620000207,169.95628620000207,169.95628620000207,,001,P010,2025_Feb_01_1521,CategoryLocalizer,2021.2.3,59.937808529051495,
124.8,125.0,5,0.0,Stimuli\Blank.png,0,0,0,203,203,203,,,,,,,,,,,,,124.80875359999845,0.008753599998456707,None,170.75699240000176,170.75699240000176,170.75699240000176,170.75699240000176,170.75699240000176,170.75699240000176,170.75699240000176,170.75699240000176,,001,P010,2025_Feb_01_1521,CategoryLocalizer,2021.2.3,59.937808529051495,
125.0,125.8,4,0.75,Stimuli\ImageFiles-Set1\Scenes\Scenes_014.png,0,0,0,204,204,204,,,,,,,,,,,,,125.01094899999953,0.010948999999527587,None,170.97385390000272,170.97385390000272,170.97385390000272,170.97385390000272,170.97385390000272,170.97385390000272,170.97385390000272,170.97385390000272,,001,P010,2025_Feb_01_1521,CategoryLocalizer,2021.2.3,59.937808529051495,
125.8,126.0,5,0.0,Stimuli\Blank.png,0,0,0,205,205,205,,,,,,,,,,,,,125.8269853999991,0.026985399999105653,None,171.7745664000031,171.7745664000031,171.7745664000031,171.7745664000031,171.7745664000031,171.7745664000031,171.7745664000031,171.7745664000031,,001,P010,2025_Feb_01_1521,CategoryLocalizer,2021.2.3,59.937808529051495,
126.0,126.8,4,0.75,Stimuli\ImageFiles-Set1\Scenes\Scenes_053.png,0,0,0,206,206,206,,,,,,,,,,,,,126.01085389999935,0.01085389999934705,None,171.97473770000215,171.97473770000215,171.97473770000215,171.97473770000215,171.97473770000215,171.97473770000215,171.97473770000215,171.97473770000215,,001,P010,2025_Feb_01_1521,CategoryLocalizer,2021.2.3,59.937808529051495,
126.8,127.0,5,0.0,Stimuli\Blank.png,0,0,0,207,207,207,,,,,,,,,,,,,126.82816570000068,0.028165700000684524,None,172.77544450000278,172.77544450000278,172.77544450000278,172.77544450000278,172.77544450000278,172.77544450000278,172.77544450000278,172.77544450000278,,001,P010,2025_Feb_01_1521,CategoryLocalizer,2021.2.3,59.937808529051495,
127.0,127.8,4,0.75,Stimuli\ImageFiles-Set1\Scenes\Scenes_030.png,0,0,0,208,208,208,,,,,,,,,,,,,127.0114422000006,0.011442200000601588,None,172.9756221000025,172.9756221000025,172.9756221000025,172.9756221000025,172.9756221000025,172.9756221000025,172.9756221000025,172.9756221000025,,001,P010,2025_Feb_01_1521,CategoryLocalizer,2021.2.3,59.937808529051495,
127.8,128.0,5,0.0,Stimuli\Blank.png,0,0,0,209,209,209,,,,,,,,,,,,,127.82816989999992,0.028169899999923587,None,173.7763283000022,173.7763283000022,173.7763283000022,173.7763283000022,173.7763283000022,173.7763283000022,173.7763283000022,173.7763283000022,,001,P010,2025_Feb_01_1521,CategoryLocalizer,2021.2.3,59.937808529051495,
128.0,128.8,4,0.75,Stimuli\ImageFiles-Set1\Scenes\Scenes_040.png,0,0,0,210,210,210,,,,,,,,,,,,,128.0119181000009,0.01191810000091209,None,173.9598229000003,173.9598229000003,173.9598229000003,173.9598229000003,173.9598229000003,173.9598229000003,173.9598229000003,173.9598229000003,,001,P010,2025_Feb_01_1521,CategoryLocalizer,2021.2.3,59.937808529051495,
128.8,129.0,5,0.0,Stimuli\Blank.png,0,0,0,211,211,211,,,,,,,,,,,,,128.81242080000084,0.012420800000825238,None,174.76053030000185,174.76053030000185,174.76053030000185,174.76053030000185,174.76053030000185,174.76053030000185,174.76053030000185,174.76053030000185,,001,P010,2025_Feb_01_1521,CategoryLocalizer,2021.2.3,59.937808529051495,
129.0,129.8,4,0.75,Stimuli\ImageFiles-Set1\Scenes\Scenes_025.png,0,0,0,212,212,212,,,,,,,,,,,,,129.0125963999999,0.012596399999893038,None,174.96071110000048,174.96071110000048,174.96071110000048,174.96071110000048,174.96071110000048,174.96071110000048,174.96071110000048,174.96071110000048,,001,P010,2025_Feb_01_1521,CategoryLocalizer,2021.2.3,59.937808529051495,
129.8,130.0,5,0.0,Stimuli\Blank.png,0,0,0,213,213,213,,,,,,,,,,,,,129.81385469999805,0.013854699998034903,None,175.76149290000103,175.76149290000103,175.76149290000103,175.76149290000103,175.76149290000103,175.76149290000103,175.76149290000103,175.76149290000103,,001,P010,2025_Feb_01_1521,CategoryLocalizer,2021.2.3,59.937808529051495,
130.0,130.8,4,0.75,Stimuli\ImageFiles-Set1\Scenes\Scenes_044.png,0,0,0,214,214,214,,,,,,,,,,,,,130.0139175000004,0.013917500000388827,None,175.96157070000118,175.96157070000118,175.96157070000118,175.96157070000118,175.96157070000118,175.96157070000118,175.96157070000118,175.96157070000118,,001,P010,2025_Feb_01_1521,CategoryLocalizer,2021.2.3,59.937808529051495,
130.8,131.0,5,0.0,Stimuli\Blank.png,0,0,0,215,215,215,,,,,,,,,,,,,130.81580010000107,0.01580010000105858,None,176.7623476000008,176.7623476000008,176.7623476000008,176.7623476000008,176.7623476000008,176.7623476000008,176.7623476000008,176.7623476000008,,001,P010,2025_Feb_01_1521,CategoryLocalizer,2021.2.3,59.937808529051495,
131.0,131.8,4,0.75,Stimuli\ImageFiles-Set1\Scenes\Scenes_047.png,0,0,0,216,216,216,,,,,,,,,,,,,130.99768179999955,-0.0023182000004453585,None,176.9458021999999,176.9458021999999,176.9458021999999,176.9458021999999,176.9458021999999,176.9458021999999,176.9458021999999,176.9458021999999,,001,P010,2025_Feb_01_1521,CategoryLocalizer,2021.2.3,59.937808529051495,
131.8,132.0,5,0.0,Stimuli\Blank.png,0,0,0,217,217,217,,,,,,,,,,,,,131.81593319999956,0.01593319999955156,None,177.76319590000276,177.76319590000276,177.76319590000276,177.76319590000276,177.76319590000276,177.76319590000276,177.76319590000276,177.76319590000276,,001,P010,2025_Feb_01_1521,CategoryLocalizer,2021.2.3,59.937808529051495,
132.0,132.8,4,0.75,Stimuli\ImageFiles-Set1\Scenes\Scenes_058.png,0,0,0,218,218,218,,,,,,,,,,,,,131.9984736999977,-0.0015263000022969209,None,177.9466461000011,177.9466461000011,177.9466461000011,177.9466461000011,177.9466461000011,177.9466461000011,177.9466461000011,177.9466461000011,,001,P010,2025_Feb_01_1521,CategoryLocalizer,2021.2.3,59.937808529051495,
132.8,133.0,5,0.0,Stimuli\Blank.png,0,0,0,219,219,219,,,,,,,,,,,,,132.7998305000001,-0.00016949999991311415,None,178.74748510000063,178.74748510000063,178.74748510000063,178.74748510000063,178.74748510000063,178.74748510000063,178.74748510000063,178.74748510000063,,001,P010,2025_Feb_01_1521,CategoryLocalizer,2021.2.3,59.937808529051495,
133.0,133.8,4,0.75,Stimuli\ImageFiles-Set1\Scenes\Scenes_006.png,0,0,0,220,220,220,,,,,,,,,,,,,133.00116509999862,0.001165099998615915,None,178.96426340000107,178.96426340000107,178.96426340000107,178.96426340000107,178.96426340000107,178.96426340000107,178.96426340000107,178.96426340000107,,001,P010,2025_Feb_01_1521,CategoryLocalizer,2021.2.3,59.937808529051495,
133.8,134.0,5,0.0,Stimuli\Blank.png,0,0,0,221,221,221,,,,,,,,,,,,,133.81724340000073,0.017243400000722886,None,179.76495710000017,179.76495710000017,179.76495710000017,179.76495710000017,179.76495710000017,179.76495710000017,179.76495710000017,179.76495710000017,,001,P010,2025_Feb_01_1521,CategoryLocalizer,2021.2.3,59.937808529051495,
134.0,134.8,4,0.75,Stimuli\ImageFiles-Set1\Scenes\Scenes_043.png,0,0,0,222,222,222,,,,,,,,,,,,,134.00117339999997,0.0011733999999705702,None,179.96510230000058,179.96510230000058,179.96510230000058,179.96510230000058,179.96510230000058,179.96510230000058,179.96510230000058,179.96510230000058,,001,P010,2025_Feb_01_1521,CategoryLocalizer,2021.2.3,59.937808529051495,
134.8,135.0,5,0.0,Stimuli\Blank.png,0,0,0,223,223,223,,,,,,,,,,,,,134.8183198000006,0.018319800000597297,None,180.76582640000197,180.76582640000197,180.76582640000197,180.76582640000197,180.76582640000197,180.76582640000197,180.76582640000197,180.76582640000197,,001,P010,2025_Feb_01_1521,CategoryLocalizer,2021.2.3,59.937808529051495,
135.0,135.8,4,0.75,Stimuli\ImageFiles-Set1\Scenes\Scenes_048.png,0,0,0,224,224,224,,,,,,,,,,,,,135.00179729999945,0.0017972999994526617,None,180.96601999999984,180.96601999999984,180.96601999999984,180.96601999999984,180.96601999999984,180.96601999999984,180.96601999999984,180.96601999999984,,001,P010,2025_Feb_01_1521,CategoryLocalizer,2021.2.3,59.937808529051495,
135.8,136.0,5,0.0,Stimuli\Blank.png,0,0,0,225,225,225,,,,,,,,,,,,,135.82070229999954,0.02070229999952744,None,181.78344320000178,181.78344320000178,181.78344320000178,181.78344320000178,181.78344320000178,181.78344320000178,181.78344320000178,181.78344320000178,,001,P010,2025_Feb_01_1521,CategoryLocalizer,2021.2.3,59.937808529051495,
136.0,136.8,2,0.75,Stimuli\ImageFiles-Set1\Bodies\Bodies_DownwardDog_00001.png,0,0,0,226,226,226,,,,,,,,,,,,,136.0218079999977,0.021807999997690786,None,181.98360220000177,181.98360220000177,181.98360220000177,181.98360220000177,181.98360220000177,181.98360220000177,181.98360220000177,181.98360220000177,,001,P010,2025_Feb_01_1521,CategoryLocalizer,2021.2.3,59.937808529051495,
136.8,137.0,5,0.0,Stimuli\Blank.png,0,0,0,227,227,227,,,,,,,,,,,,,136.82198190000054,0.02198190000052591,None,182.78431900000214,182.78431900000214,182.78431900000214,182.78431900000214,182.78431900000214,182.78431900000214,182.78431900000214,182.78431900000214,,001,P010,2025_Feb_01_1521,CategoryLocalizer,2021.2.3,59.937808529051495,
137.0,137.8,2,0.75,Stimuli\ImageFiles-Set1\Bodies\Bodies_Waving_00003.png,0,0,0,228,228,228,,,,,,,,,,,,,137.02199119999932,0.021991199999320088,None,182.98448220000137,182.98448220000137,182.98448220000137,182.98448220000137,182.98448220000137,182.98448220000137,182.98448220000137,182.98448220000137,,001,P010,2025_Feb_01_1521,CategoryLocalizer,2021.2.3,59.937808529051495,
137.8,138.0,5,0.0,Stimuli\Blank.png,0,0,0,229,229,229,,,,,,,,,,,,,137.82075579999946,0.02075579999944921,None,183.76847260000068,183.76847260000068,183.76847260000068,183.76847260000068,183.76847260000068,183.76847260000068,183.76847260000068,183.76847260000068,,001,P010,2025_Feb_01_1521,CategoryLocalizer,2021.2.3,59.937808529051495,
138.0,138.8,2,0.75,Stimuli\ImageFiles-Set1\Bodies\Bodies_Lunging_00001.png,0,0,0,230,230,230,,,,,,,,,,,,,138.00450609999825,0.004506099998252466,None,183.96866969999974,183.96866969999974,183.96866969999974,183.96866969999974,183.96866969999974,183.96866969999974,183.96866969999974,183.96866969999974,,001,P010,2025_Feb_01_1521,CategoryLocalizer,2021.2.3,59.937808529051495,
138.8,139.0,5,0.0,Stimuli\Blank.png,0,0,0,231,231,231,,,,,,,,,,,,,138.82135209999979,0.021352099999774055,None,184.7693887000023,184.7693887000023,184.7693887000023,184.7693887000023,184.7693887000023,184.7693887000023,184.7693887000023,184.7693887000023,,001,P010,2025_Feb_01_1521,CategoryLocalizer,2021.2.3,59.937808529051495,
139.0,139.8,2,0.75,Stimuli\ImageFiles-Set1\Bodies\Bodies_Punching_00001.png,0,0,0,232,232,232,,,,,,,,,,,,,139.00609769999937,0.006097699999372708,None,184.95289279999997,184.95289279999997,184.95289279999997,184.95289279999997,184.95289279999997,184.95289279999997,184.95289279999997,184.95289279999997,,001,P010,2025_Feb_01_1521,CategoryLocalizer,2021.2.3,59.937808529051495,
139.8,140.0,5,0.0,Stimuli\Blank.png,0,0,0,233,233,233,,,,,,,,,,,,,139.80567119999978,0.005671199999767396,None,185.75363629999993,185.75363629999993,185.75363629999993,185.75363629999993,185.75363629999993,185.75363629999993,185.75363629999993,185.75363629999993,,001,P010,2025_Feb_01_1521,CategoryLocalizer,2021.2.3,59.937808529051495,
140.0,140.8,2,0.75,Stimuli\ImageFiles-Set1\Bodies\Bodies_Jumping_00004.png,0,0,0,234,234,234,,,,,,,,,,,,,140.00561390000075,0.005613900000753347,None,185.9537655000022,185.9537655000022,185.9537655000022,185.9537655000022,185.9537655000022,185.9537655000022,185.9537655000022,185.9537655000022,,001,P010,2025_Feb_01_1521,CategoryLocalizer,2021.2.3,59.937808529051495,
140.8,141.0,5,0.0,Stimuli\Blank.png,0,0,0,235,235,235,,,,,,,,,,,,,140.8069230000001,0.006923000000085722,None,186.7544768000007,186.7544768000007,186.7544768000007,186.7544768000007,186.7544768000007,186.7544768000007,186.7544768000007,186.7544768000007,,001,P010,2025_Feb_01_1521,CategoryLocalizer,2021.2.3,59.937808529051495,
141.0,141.8,2,0.75,Stimuli\ImageFiles-Set1\Bodies\Bodies_SittingStretch_00005.png,0,0,0,236,236,236,,,,,,,,,,,,,141.00725310000053,0.007253100000525592,None,186.97135700000217,186.97135700000217,186.97135700000217,186.97135700000217,186.97135700000217,186.97135700000217,186.97135700000217,186.97135700000217,,001,P010,2025_Feb_01_1521,CategoryLocalizer,2021.2.3,59.937808529051495,
141.8,142.0,5,0.0,Stimuli\Blank.png,0,0,0,237,237,237,,,,,,,,,,,,,141.82591719999982,0.025917199999810236,None,187.78874660000292,187.78874660000292,187.78874660000292,187.78874660000292,187.78874660000292,187.78874660000292,187.78874660000292,187.78874660000292,,001,P010,2025_Feb_01_1521,CategoryLocalizer,2021.2.3,59.937808529051495,
142.0,142.8,2,0.75,Stimuli\ImageFiles-Set1\Bodies\Bodies_SittingStretch_00005.png,1,1,0,238,238,238,,,,,,,,,,,,,142.02574470000036,0.025744700000359444,1,187.98891950000325,187.98891950000325,187.98891950000325,187.98891950000325,187.98891950000325,187.98891950000325,187.98891950000325,187.98891950000325,0.5032074999980978,001,P010,2025_Feb_01_1521,CategoryLocalizer,2021.2.3,59.937808529051495,
142.8,143.0,5,0.0,Stimuli\Blank.png,0,0,0,239,239,239,,,,,,,,,,,,,142.8256294999992,0.025629499999183736,None,188.77293180000197,188.77293180000197,188.77293180000197,188.77293180000197,188.77293180000197,188.77293180000197,188.77293180000197,188.77293180000197,,001,P010,2025_Feb_01_1521,CategoryLocalizer,2021.2.3,59.937808529051495,
143.0,143.8,2,0.75,Stimuli\ImageFiles-Set1\Bodies\Bodies_DownwardDog_00006.png,0,0,0,240,240,240,,,,,,,,,,,,,143.00924479999958,0.00924479999957839,None,188.97315270000036,188.97315270000036,188.97315270000036,188.97315270000036,188.97315270000036,188.97315270000036,188.97315270000036,188.97315270000036,,001,P010,2025_Feb_01_1521,CategoryLocalizer,2021.2.3,59.937808529051495,
143.8,144.0,5,0.0,Stimuli\Blank.png,0,0,0,241,241,241,,,,,,,,,,,,,143.82625969999935,0.02625969999934341,None,189.77381330000208,189.77381330000208,189.77381330000208,189.77381330000208,189.77381330000208,189.77381330000208,189.77381330000208,189.77381330000208,,001,P010,2025_Feb_01_1521,CategoryLocalizer,2021.2.3,59.937808529051495,
144.0,144.8,2,0.75,Stimuli\ImageFiles-Set1\Bodies\Bodies_SittingChair_00001.png,0,0,0,242,242,242,,,,,,,,,,,,,144.0096487999981,0.009648799998103641,None,189.9573040000032,189.9573040000032,189.9573040000032,189.9573040000032,189.9573040000032,189.9573040000032,189.9573040000032,189.9573040000032,,001,P010,2025_Feb_01_1521,CategoryLocalizer,2021.2.3,59.937808529051495,
144.8,145.0,5,0.0,Stimuli\Blank.png,0,0,0,243,243,243,,,,,,,,,,,,,144.81049920000078,0.01049920000076554,None,190.7580213000001,190.7580213000001,190.7580213000001,190.7580213000001,190.7580213000001,190.7580213000001,190.7580213000001,190.7580213000001,,001,P010,2025_Feb_01_1521,CategoryLocalizer,2021.2.3,59.937808529051495,
145.0,145.8,2,0.75,Stimuli\ImageFiles-Set1\Bodies\Bodies_SittingChair_00007.png,0,0,0,244,244,244,,,,,,,,,,,,,145.0113240999999,0.011324099999910686,None,190.97486350000327,190.97486350000327,190.97486350000327,190.97486350000327,190.97486350000327,190.97486350000327,190.97486350000327,190.97486350000327,,001,P010,2025_Feb_01_1521,CategoryLocalizer,2021.2.3,59.937808529051495,
145.8,146.0,5,0.0,Stimuli\Blank.png,0,0,0,245,245,245,,,,,,,,,,,,,145.82799149999846,0.027991499998449854,None,191.7756001000016,191.7756001000016,191.7756001000016,191.7756001000016,191.7756001000016,191.7756001000016,191.7756001000016,191.7756001000016,,001,P010,2025_Feb_01_1521,CategoryLocalizer,2021.2.3,59.937808529051495,
146.0,146.8,2,0.75,Stimuli\ImageFiles-Set1\Bodies\Bodies_Pushing_00003.png,0,0,0,246,246,246,,,,,,,,,,,,,146.01178340000115,0.011783400001149857,None,191.9590827000029,191.9590827000029,191.9590827000029,191.9590827000029,191.9590827000029,191.9590827000029,191.9590827000029,191.9590827000029,,001,P010,2025_Feb_01_1521,CategoryLocalizer,2021.2.3,59.937808529051495,
146.8,147.0,5,0.0,Stimuli\Blank.png,0,0,0,247,247,247,,,,,,,,,,,,,146.81167669999923,0.011676699999213724,None,192.75978450000184,192.75978450000184,192.75978450000184,192.75978450000184,192.75978450000184,192.75978450000184,192.75978450000184,192.75978450000184,,001,P010,2025_Feb_01_1521,CategoryLocalizer,2021.2.3,59.937808529051495,
147.0,147.8,2,0.75,Stimuli\ImageFiles-Set1\Bodies\Bodies_SittingChair_00003.png,0,0,0,248,248,248,,,,,,,,,,,,,147.01195459999872,0.01195459999871673,None,192.95996280000327,192.95996280000327,192.95996280000327,192.95996280000327,192.95996280000327,192.95996280000327,192.95996280000327,192.95996280000327,,001,P010,2025_Feb_01_1521,CategoryLocalizer,2021.2.3,59.937808529051495,
147.8,148.0,5,0.0,Stimuli\Blank.png,0,0,0,249,249,249,,,,,,,,,,,,,147.81246049999754,0.012460499997530405,None,193.76066790000186,193.76066790000186,193.76066790000186,193.76066790000186,193.76066790000186,193.76066790000186,193.76066790000186,193.76066790000186,,001,P010,2025_Feb_01_1521,CategoryLocalizer,2021.2.3,59.937808529051495,
148.0,148.8,2,0.75,Stimuli\ImageFiles-Set1\Bodies\Bodies_PushUp_00004.png,0,0,0,250,250,250,,,,,,,,,,,,,148.01356889999806,0.013568899998062989,None,193.97754950000308,193.97754950000308,193.97754950000308,193.97754950000308,193.97754950000308,193.97754950000308,193.97754950000308,193.97754950000308,,001,P010,2025_Feb_01_1521,CategoryLocalizer,2021.2.3,59.937808529051495,
148.8,149.0,5,0.0,Stimuli\Blank.png,0,0,0,251,251,251,,,,,,,,,,,,,148.83058629999869,0.03058629999867435,None,194.77824820000023,194.77824820000023,194.77824820000023,194.77824820000023,194.77824820000023,194.77824820000023,194.77824820000023,194.77824820000023,,001,P010,2025_Feb_01_1521,CategoryLocalizer,2021.2.3,59.937808529051495,
149.0,149.8,2,0.75,Stimuli\ImageFiles-Set1\Bodies\Bodies_Kicking_00007.png,0,0,0,252,252,252,,,,,,,,,,,,,149.01352639999823,0.013526399998227134,None,194.9617309000023,194.9617309000023,194.9617309000023,194.9617309000023,194.9617309000023,194.9617309000023,194.9617309000023,194.9617309000023,,001,P010,2025_Feb_01_1521,CategoryLocalizer,2021.2.3,59.937808529051495,
149.8,150.0,5,0.0,Stimuli\Blank.png,0,0,0,253,253,253,,,,,,,,,,,,,149.8160390999983,0.016039099998295114,None,195.77913830000034,195.77913830000034,195.77913830000034,195.77913830000034,195.77913830000034,195.77913830000034,195.77913830000034,195.77913830000034,,001,P010,2025_Feb_01_1521,CategoryLocalizer,2021.2.3,59.937808529051495,
150.0,150.8,2,0.75,Stimuli\ImageFiles-Set1\Bodies\Bodies_Waving_00001.png,0,0,0,254,254,254,,,,,,,,,,,,,150.01570150000043,0.015701500000432134,None,195.9626274000002,195.9626274000002,195.9626274000002,195.9626274000002,195.9626274000002,195.9626274000002,195.9626274000002,195.9626274000002,,001,P010,2025_Feb_01_1521,CategoryLocalizer,2021.2.3,59.937808529051495,
150.8,151.0,5,0.0,Stimuli\Blank.png,0,0,0,255,255,255,,,,,,,,,,,,,150.80106239999805,0.001062399998033925,None,196.7633859000016,196.7633859000016,196.7633859000016,196.7633859000016,196.7633859000016,196.7633859000016,196.7633859000016,196.7633859000016,,001,P010,2025_Feb_01_1521,CategoryLocalizer,2021.2.3,59.937808529051495,
151.0,151.8,2,0.75,Stimuli\ImageFiles-Set1\Bodies\Bodies_Waving_00005.png,0,0,0,256,256,256,,,,,,,,,,,,,151.0158123000001,0.015812300000106916,None,196.9635042000009,196.9635042000009,196.9635042000009,196.9635042000009,196.9635042000009,196.9635042000009,196.9635042000009,196.9635042000009,,001,P010,2025_Feb_01_1521,CategoryLocalizer,2021.2.3,59.937808529051495,
151.8,152.0,5,0.0,Stimuli\Blank.png,0,0,0,257,257,257,,,,,,,,,,,,,151.80205370000112,0.0020537000011131568,None,197.76421800000026,197.76421800000026,197.76421800000026,197.76421800000026,197.76421800000026,197.76421800000026,197.76421800000026,197.76421800000026,,001,P010,2025_Feb_01_1521,CategoryLocalizer,2021.2.3,59.937808529051495,
152.0,164.0,0,0.0,Stimuli\Blank.png,0,0,0,258,258,258,,,,,,,,,,,,,152.01696100000117,0.016961000001174398,None,197.96440030000304,197.96440030000304,197.96440030000304,197.96440030000304,197.96440030000304,197.96440030000304,197.96440030000304,197.96440030000304,,001,P010,2025_Feb_01_1521,CategoryLocalizer,2021.2.3,59.937808529051495,
164.0,164.8,4,0.75,Stimuli\ImageFiles-Set1\Scenes\Scenes_018.png,0,0,0,259,259,259,,,,,,,,,,,,,164.01028299999962,0.01028299999961746,None,209.9583468000019,209.9583468000019,209.9583468000019,209.9583468000019,209.9583468000019,209.9583468000019,209.9583468000019,209.9583468000019,,001,P010,2025_Feb_01_1521,CategoryLocalizer,2021.2.3,59.937808529051495,
164.8,165.0,5,0.0,Stimuli\Blank.png,0,0,0,260,260,260,,,,,,,,,,,,,164.81139939999775,0.011399399997742421,None,210.75905090000015,210.75905090000015,210.75905090000015,210.75905090000015,210.75905090000015,210.75905090000015,210.75905090000015,210.75905090000015,,001,P010,2025_Feb_01_1521,CategoryLocalizer,2021.2.3,59.937808529051495,
165.0,165.8,4,0.75,Stimuli\ImageFiles-Set1\Scenes\Scenes_035.png,0,0,0,261,261,261,,,,,,,,,,,,,165.01185199999964,0.011851999999635154,None,210.9759206000017,210.9759206000017,210.9759206000017,210.9759206000017,210.9759206000017,210.9759206000017,210.9759206000017,210.9759206000017,,001,P010,2025_Feb_01_1521,CategoryLocalizer,2021.2.3,59.937808529051495,
165.8,166.0,5,0.0,Stimuli\Blank.png,0,0,0,262,262,262,,,,,,,,,,,,,165.83110329999909,0.031103299999074352,None,211.79329680000228,211.79329680000228,211.79329680000228,211.79329680000228,211.79329680000228,211.79329680000228,211.79329680000228,211.79329680000228,,001,P010,2025_Feb_01_1521,CategoryLocalizer,2021.2.3,59.937808529051495,
166.0,166.8,4,0.75,Stimuli\ImageFiles-Set1\Scenes\Scenes_016.png,0,0,0,263,263,263,,,,,,,,,,,,,166.02857220000078,0.028572200000780867,None,211.97679640000206,211.97679640000206,211.97679640000206,211.97679640000206,211.97679640000206,211.97679640000206,211.97679640000206,211.97679640000206,,001,P010,2025_Feb_01_1521,CategoryLocalizer,2021.2.3,59.937808529051495,
166.8,167.0,5,0.0,Stimuli\Blank.png,0,0,0,264,264,264,,,,,,,,,,,,,166.8137332999977,0.013733299997682025,None,212.76081080000222,212.76081080000222,212.76081080000222,212.76081080000222,212.76081080000222,212.76081080000222,212.76081080000222,212.76081080000222,,001,P010,2025_Feb_01_1521,CategoryLocalizer,2021.2.3,59.937808529051495,
167.0,167.8,4,0.75,Stimuli\ImageFiles-Set1\Scenes\Scenes_016.png,1,1,0,265,265,265,,,,,,,,,,,,,167.01284769999984,0.012847699999838369,1,212.96098690000144,212.96098690000144,212.96098690000144,212.96098690000144,212.96098690000144,212.96098690000144,212.96098690000144,212.96098690000144,0.3642127999992226,001,P010,2025_Feb_01_1521,CategoryLocalizer,2021.2.3,59.937808529051495,
167.8,168.0,5,0.0,Stimuli\Blank.png,0,0,0,266,266,266,,,,,,,,,,,,,167.81615640000018,0.01615640000017038,None,213.7783930000005,213.7783930000005,213.7783930000005,213.7783930000005,213.7783930000005,213.7783930000005,213.7783930000005,213.7783930000005,,001,P010,2025_Feb_01_1521,CategoryLocalizer,2021.2.3,59.937808529051495,
168.0,168.8,4,0.75,Stimuli\ImageFiles-Set1\Scenes\Scenes_019.png,0,0,0,267,267,267,,,,,,,,,,,,,168.01369519999935,0.013695199999347096,None,213.9618717000012,213.9618717000012,213.9618717000012,213.9618717000012,213.9618717000012,213.9618717000012,213.9618717000012,213.9618717000012,,001,P010,2025_Feb_01_1521,CategoryLocalizer,2021.2.3,59.937808529051495,
168.8,169.0,5,0.0,Stimuli\Blank.png,0,0,0,268,268,268,,,,,,,,,,,,,168.81552079999892,0.015520799998910206,None,214.76265950000015,214.76265950000015,214.76265950000015,214.76265950000015,214.76265950000015,214.76265950000015,214.76265950000015,214.76265950000015,,001,P010,2025_Feb_01_1521,CategoryLocalizer,2021.2.3,59.937808529051495,
169.0,169.8,4,0.75,Stimuli\ImageFiles-Set1\Scenes\Scenes_034.png,0,0,0,269,269,269,,,,,,,,,,,,,168.99797580000086,-0.002024199999141274,None,214.94620580000264,214.94620580000264,214.94620580000264,214.94620580000264,214.94620580000264,214.94620580000264,214.94620580000264,214.94620580000264,,001,P010,2025_Feb_01_1521,CategoryLocalizer,2021.2.3,59.937808529051495,
169.8,170.0,5,0.0,Stimuli\Blank.png,0,0,0,270,270,270,,,,,,,,,,,,,169.81636309999885,0.016363099998841335,None,215.7634908,215.7634908,215.7634908,215.7634908,215.7634908,215.7634908,215.7634908,215.7634908,,001,P010,2025_Feb_01_1521,CategoryLocalizer,2021.2.3,59.937808529051495,
170.0,170.8,4,0.75,Stimuli\ImageFiles-Set1\Scenes\Scenes_024.png,0,0,0,271,271,271,,,,,,,,,,,,,169.99944490000053,-0.0005550999994738959,None,215.96364689999973,215.96364689999973,215.96364689999973,215.96364689999973,215.96364689999973,215.96364689999973,215.96364689999973,215.96364689999973,,001,P010,2025_Feb_01_1521,CategoryLocalizer,2021.2.3,59.937808529051495,
170.8,171.0,5,0.0,Stimuli\Blank.png,0,0,0,272,272,272,,,,,,,,,,,,,170.81678009999814,0.016780099998129572,None,216.76436220000323,216.76436220000323,216.76436220000323,216.76436220000323,216.76436220000323,216.76436220000323,216.76436220000323,216.76436220000323,,001,P010,2025_Feb_01_1521,CategoryLocalizer,2021.2.3,59.937808529051495,
171.0,171.8,4,0.75,Stimuli\ImageFiles-Set1\Scenes\Scenes_013.png,0,0,0,273,273,273,,,,,,,,,,,,,171.00137639999957,0.0013763999995717313,None,216.96453480000127,216.96453480000127,216.96453480000127,216.96453480000127,216.96453480000127,216.96453480000127,216.96453480000127,216.96453480000127,,001,P010,2025_Feb_01_1521,CategoryLocalizer,2021.2.3,59.937808529051495,
171.8,172.0,5,0.0,Stimuli\Blank.png,0,0,0,274,274,274,,,,,,,,,,,,,171.81774600000062,0.01774600000061355,None,217.7652463000013,217.7652463000013,217.7652463000013,217.7652463000013,217.7652463000013,217.7652463000013,217.7652463000013,217.7652463000013,,001,P010,2025_Feb_01_1521,CategoryLocalizer,2021.2.3,59.937808529051495,
172.0,172.8,4,0.75,Stimuli\ImageFiles-Set1\Scenes\Scenes_009.png,1,1,0,275,275,275,,,,,,,,,,,,,172.00063669999872,0.0006366999987221789,None,217.94872940000278,217.94872940000278,217.94872940000278,217.94872940000278,217.94872940000278,217.94872940000278,217.94872940000278,217.94872940000278,,001,P010,2025_Feb_01_1521,CategoryLocalizer,2021.2.3,59.937808529051495,
172.8,173.0,5,0.0,Stimuli\Blank.png,0,0,0,276,276,276,,,,,,,,,,,,,172.80116139999882,0.0011613999988071555,None,218.74944230000256,218.74944230000256,218.74944230000256,218.74944230000256,218.74944230000256,218.74944230000256,218.74944230000256,218.74944230000256,,001,P010,2025_Feb_01_1521,CategoryLocalizer,2021.2.3,59.937808529051495,
173.0,173.8,4,0.75,Stimuli\ImageFiles-Set1\Scenes\Scenes_004.png,0,0,0,277,277,277,,,,,,,,,,,,,173.0019742000004,0.0019742000004043803,None,218.96629720000055,218.96629720000055,218.96629720000055,218.96629720000055,218.96629720000055,218.96629720000055,218.96629720000055,218.96629720000055,,001,P010,2025_Feb_01_1521,CategoryLocalizer,2021.2.3,59.937808529051495,
173.8,174.0,5,0.0,Stimuli\Blank.png,0,0,0,278,278,278,,,,,,,,,,,,,173.82110420000026,0.02110420000025215,None,219.78370950000317,219.78370950000317,219.78370950000317,219.78370950000317,219.78370950000317,219.78370950000317,219.78370950000317,219.78370950000317,,001,P010,2025_Feb_01_1521,CategoryLocalizer,2021.2.3,59.937808529051495,
174.0,174.8,4,0.75,Stimuli\ImageFiles-Set1\Scenes\Scenes_004.png,0,0,0,279,279,279,,,,,,,,,,,,,174.02112149999812,0.021121499998116633,1,219.98388479999994,219.98388479999994,219.98388479999994,219.98388479999994,219.98388479999994,219.98388479999994,219.98388479999994,219.98388479999994,0.3453321999986656,001,P010,2025_Feb_01_1521,CategoryLocalizer,2021.2.3,59.937808529051495,
174.8,175.0,5,0.0,Stimuli\Blank.png,0,0,0,280,280,280,,,,,,,,,,,,,174.8221343999976,0.022134399997582932,None,220.7845789000021,220.7845789000021,220.7845789000021,220.7845789000021,220.7845789000021,220.7845789000021,220.7845789000021,220.7845789000021,,001,P010,2025_Feb_01_1521,CategoryLocalizer,2021.2.3,59.937808529051495,
175.0,175.8,4,0.75,Stimuli\ImageFiles-Set1\Scenes\Scenes_021.png,0,0,0,281,281,281,,,,,,,,,,,,,175.0199864999995,0.019986499999504304,None,220.96806430000288,220.96806430000288,220.96806430000288,220.96806430000288,220.96806430000288,220.96806430000288,220.96806430000288,220.96806430000288,,001,P010,2025_Feb_01_1521,CategoryLocalizer,2021.2.3,59.937808529051495,
175.8,176.0,5,0.0,Stimuli\Blank.png,0,0,0,282,282,282,,,,,,,,,,,,,175.8054048999984,0.005404899998382007,None,221.7521263000017,221.7521263000017,221.7521263000017,221.7521263000017,221.7521263000017,221.7521263000017,221.7521263000017,221.7521263000017,,001,P010,2025_Feb_01_1521,CategoryLocalizer,2021.2.3,59.937808529051495,
176.0,176.8,4,0.75,Stimuli\ImageFiles-Set1\Scenes\Scenes_057.png,0,0,0,283,283,283,,,,,,,,,,,,,176.0053955000003,0.00539550000030431,None,221.96894990000146,221.96894990000146,221.96894990000146,221.96894990000146,221.96894990000146,221.96894990000146,221.96894990000146,221.96894990000146,,001,P010,2025_Feb_01_1521,CategoryLocalizer,2021.2.3,59.937808529051495,
176.8,177.0,5,0.0,Stimuli\Blank.png,0,0,0,284,284,284,,,,,,,,,,,,,176.8215711999983,0.02157119999827728,None,222.76966450000327,222.76966450000327,222.76966450000327,222.76966450000327,222.76966450000327,222.76966450000327,222.76966450000327,222.76966450000327,,001,P010,2025_Feb_01_1521,CategoryLocalizer,2021.2.3,59.937808529051495,
