eventStartTime,eventEndTime,eventCond,imSize,imFile,repeatedImage,responseEvent,Events.thisRepN,Events.thisTrialN,Events.thisN,Events.thisIndex,Instructions.started,Instructions.stopped,participantReadyResponse.keys,participantReadyResponse.rt,participantReadyResponse.started,participantReadyResponse.stopped,startWaitforTrigger,triggerResponse.keys,triggerResponse.rt,triggerResponse.started,triggerResponse.stopped,globalTimer,actualStartTime,startTimingDiff,participantResponse.keys,participantResponse.started,participantResponse.stopped,image.started,image.stopped,fixationOutside.started,fixationOutside.stopped,fixationInside.started,fixationInside.stopped,participantResponse.rt,session,participant,date,expName,psychopyVersion,frameRate,
,,,,,,,,,,,12.231547200000023,None,1,1.5954523000000336,12.231547200000023,None,,,,,,,,,,,,,,,,,,,002,P011,2025_Feb_08_1042,CategoryLocalizer,2021.2.3,59.93676671119076,
,,,,,,,,,,,,,,,,,13.833530999999311,5,19.916437099999712,13.846720300000015,None,,,,,,,,,,,,,,002,P011,2025_Feb_08_1042,CategoryLocalizer,2021.2.3,59.93676671119076,
0.0,12.0,0,0.0,Stimuli\Blank.png,0,0,0,0,0,0,,,,,,,,,,,,33.76797219999935,0.047059900000022026,0.047059900000022026,None,33.83114609999939,None,33.83114609999939,None,33.83114609999939,None,33.83114609999939,None,,002,P011,2025_Feb_08_1042,CategoryLocalizer,2021.2.3,59.93676671119076,
12.0,12.8,1,0.75,Stimuli\ImageFiles-Set2\Objects\Object_Battery_00001.png,0,0,0,1,1,1,,,,,,,,,,,,,12.010465100000147,0.010465100000146776,None,45.80836229999932,45.80836229999932,45.80836229999932,45.80836229999932,45.80836229999932,45.80836229999932,45.80836229999932,45.80836229999932,,002,P011,2025_Feb_08_1042,CategoryLocalizer,2021.2.3,59.93676671119076,
12.8,13.0,5,0.0,Stimuli\Blank.png,0,0,0,2,2,2,,,,,,,,,,,,,12.826347799999894,0.02634779999989334,None,46.60911399999986,46.60911399999986,46.60911399999986,46.60911399999986,46.60911399999986,46.60911399999986,46.60911399999986,46.60911399999986,,002,P011,2025_Feb_08_1042,CategoryLocalizer,2021.2.3,59.93676671119076,
13.0,13.8,1,0.75,Stimuli\ImageFiles-Set2\Objects\Object_Tape_00001.png,0,0,0,3,3,3,,,,,,,,,,,,,13.01103409999996,0.011034099999960745,None,46.80927900000006,46.80927900000006,46.80927900000006,46.80927900000006,46.80927900000006,46.80927900000006,46.80927900000006,46.80927900000006,,002,P011,2025_Feb_08_1042,CategoryLocalizer,2021.2.3,59.93676671119076,
13.8,14.0,5,0.0,Stimuli\Blank.png,0,0,0,4,4,4,,,,,,,,,,,,,13.827988900000491,0.027988900000490702,None,47.610003899999356,47.610003899999356,47.610003899999356,47.610003899999356,47.610003899999356,47.610003899999356,47.610003899999356,47.610003899999356,,002,P011,2025_Feb_08_1042,CategoryLocalizer,2021.2.3,59.93676671119076,
14.0,14.8,1,0.75,Stimuli\ImageFiles-Set2\Objects\Object_Tomato_00001.png,0,0,0,5,5,5,,,,,,,,,,,,,14.011368500000572,0.011368500000571657,None,47.826853599999595,47.826853599999595,47.826853599999595,47.826853599999595,47.826853599999595,47.826853599999595,47.826853599999595,47.826853599999595,,002,P011,2025_Feb_08_1042,CategoryLocalizer,2021.2.3,59.93676671119076,
14.8,15.0,5,0.0,Stimuli\Blank.png,0,0,0,6,6,6,,,,,,,,,,,,,14.8449827000004,0.044982700000399944,None,48.62756480000007,48.62756480000007,48.62756480000007,48.62756480000007,48.62756480000007,48.62756480000007,48.62756480000007,48.62756480000007,,002,P011,2025_Feb_08_1042,CategoryLocalizer,2021.2.3,59.93676671119076,
15.0,15.8,1,0.75,Stimuli\ImageFiles-Set2\Objects\Object_Couch_00001.png,0,0,0,7,7,7,,,,,,,,,,,,,15.011702900000273,0.011702900000273075,None,48.81106769999951,48.81106769999951,48.81106769999951,48.81106769999951,48.81106769999951,48.81106769999951,48.81106769999951,48.81106769999951,,002,P011,2025_Feb_08_1042,CategoryLocalizer,2021.2.3,59.93676671119076,
15.8,16.0,5,0.0,Stimuli\Blank.png,0,0,0,8,8,8,,,,,,,,,,,,,15.829199300000255,0.02919930000025417,None,49.61177210000005,49.61177210000005,49.61177210000005,49.61177210000005,49.61177210000005,49.61177210000005,49.61177210000005,49.61177210000005,,002,P011,2025_Feb_08_1042,CategoryLocalizer,2021.2.3,59.93676671119076,
16.0,16.8,1,0.75,Stimuli\ImageFiles-Set2\Objects\Object_Pin_00001.png,0,0,0,9,9,9,,,,,,,,,,,,,16.01328310000008,0.013283100000080594,None,49.81196419999924,49.81196419999924,49.81196419999924,49.81196419999924,49.81196419999924,49.81196419999924,49.81196419999924,49.81196419999924,,002,P011,2025_Feb_08_1042,CategoryLocalizer,2021.2.3,59.93676671119076,
16.8,17.0,5,0.0,Stimuli\Blank.png,0,0,0,10,10,10,,,,,,,,,,,,,16.830831300000682,0.03083130000068124,None,50.612669999999525,50.612669999999525,50.612669999999525,50.612669999999525,50.612669999999525,50.612669999999525,50.612669999999525,50.612669999999525,,002,P011,2025_Feb_08_1042,CategoryLocalizer,2021.2.3,59.93676671119076,
17.0,17.8,1,0.75,Stimuli\ImageFiles-Set2\Objects\Object_Shovel_00001.png,0,0,0,11,11,11,,,,,,,,,,,,,17.015545799999927,0.015545799999927112,None,50.81285189999926,50.81285189999926,50.81285189999926,50.81285189999926,50.81285189999926,50.81285189999926,50.81285189999926,50.81285189999926,,002,P011,2025_Feb_08_1042,CategoryLocalizer,2021.2.3,59.93676671119076,
17.8,18.0,5,0.0,Stimuli\Blank.png,0,0,0,12,12,12,,,,,,,,,,,,,17.814913400000478,0.01491340000047714,None,51.596860199999355,51.596860199999355,51.596860199999355,51.596860199999355,51.596860199999355,51.596860199999355,51.596860199999355,51.596860199999355,,002,P011,2025_Feb_08_1042,CategoryLocalizer,2021.2.3,59.93676671119076,
18.0,18.8,1,0.75,Stimuli\ImageFiles-Set2\Objects\Object_Hamburger_00001.png,0,0,0,13,13,13,,,,,,,,,,,,,18.015235800000482,0.015235800000482413,None,51.83039740000004,51.83039740000004,51.83039740000004,51.83039740000004,51.83039740000004,51.83039740000004,51.83039740000004,51.83039740000004,,002,P011,2025_Feb_08_1042,CategoryLocalizer,2021.2.3,59.93676671119076,
18.8,19.0,5,0.0,Stimuli\Blank.png,0,0,0,14,14,14,,,,,,,,,,,,,18.832269800000176,0.03226980000017576,None,52.61439889999929,52.61439889999929,52.61439889999929,52.61439889999929,52.61439889999929,52.61439889999929,52.61439889999929,52.61439889999929,,002,P011,2025_Feb_08_1042,CategoryLocalizer,2021.2.3,59.93676671119076,
19.0,19.8,1,0.75,Stimuli\ImageFiles-Set2\Objects\Object_Hamburger_00001.png,1,1,0,15,15,15,,,,,,,,,,,,,18.999842700000045,-0.00015729999995528487,1,52.7979206,52.7979206,52.7979206,52.7979206,52.7979206,52.7979206,52.7979206,52.7979206,0.5175055999998222,002,P011,2025_Feb_08_1042,CategoryLocalizer,2021.2.3,59.93676671119076,
19.8,20.0,5,0.0,Stimuli\Blank.png,0,0,0,16,16,16,,,,,,,,,,,,,19.816078100000595,0.01607810000059473,None,53.5986342999995,53.5986342999995,53.5986342999995,53.5986342999995,53.5986342999995,53.5986342999995,53.5986342999995,53.5986342999995,,002,P011,2025_Feb_08_1042,CategoryLocalizer,2021.2.3,59.93676671119076,
20.0,20.8,1,0.75,Stimuli\ImageFiles-Set2\Objects\Object_Wheelchair_00001.png,0,0,0,17,17,17,,,,,,,,,,,,,19.999883999999838,-0.0001160000001618755,None,53.79879970000002,53.79879970000002,53.79879970000002,53.79879970000002,53.79879970000002,53.79879970000002,53.79879970000002,53.79879970000002,,002,P011,2025_Feb_08_1042,CategoryLocalizer,2021.2.3,59.93676671119076,
20.8,21.0,5,0.0,Stimuli\Blank.png,0,0,0,18,18,18,,,,,,,,,,,,,20.81779490000008,0.017794900000080105,None,54.616209799999524,54.616209799999524,54.616209799999524,54.616209799999524,54.616209799999524,54.616209799999524,54.616209799999524,54.616209799999524,,002,P011,2025_Feb_08_1042,CategoryLocalizer,2021.2.3,59.93676671119076,
21.0,21.8,1,0.75,Stimuli\ImageFiles-Set2\Objects\Object_Dishwasher_00001.png,0,0,0,19,19,19,,,,,,,,,,,,,21.017401000000064,0.017401000000063505,None,54.816410699999324,54.816410699999324,54.816410699999324,54.816410699999324,54.816410699999324,54.816410699999324,54.816410699999324,54.816410699999324,,002,P011,2025_Feb_08_1042,CategoryLocalizer,2021.2.3,59.93676671119076,
21.8,22.0,5,0.0,Stimuli\Blank.png,0,0,0,20,20,20,,,,,,,,,,,,,21.820465400000103,0.020465400000102107,None,55.61705139999958,55.61705139999958,55.61705139999958,55.61705139999958,55.61705139999958,55.61705139999958,55.61705139999958,55.61705139999958,,002,P011,2025_Feb_08_1042,CategoryLocalizer,2021.2.3,59.93676671119076,
22.0,22.8,1,0.75,Stimuli\ImageFiles-Set2\Objects\Object_Button1_00001.png,0,0,0,21,21,21,,,,,,,,,,,,,22.018960600000355,0.018960600000355043,None,55.817265799999404,55.817265799999404,55.817265799999404,55.817265799999404,55.817265799999404,55.817265799999404,55.817265799999404,55.817265799999404,,002,P011,2025_Feb_08_1042,CategoryLocalizer,2021.2.3,59.93676671119076,
22.8,23.0,5,0.0,Stimuli\Blank.png,0,0,0,22,22,22,,,,,,,,,,,,,22.8209523000005,0.020952300000498525,None,56.617991999999504,56.617991999999504,56.617991999999504,56.617991999999504,56.617991999999504,56.617991999999504,56.617991999999504,56.617991999999504,,002,P011,2025_Feb_08_1042,CategoryLocalizer,2021.2.3,59.93676671119076,
23.0,23.8,1,0.75,Stimuli\ImageFiles-Set2\Objects\Object_Bicycle_00001.png,0,0,0,23,23,23,,,,,,,,,,,,,23.021628999999848,0.02162899999984802,None,56.818111300000055,56.818111300000055,56.818111300000055,56.818111300000055,56.818111300000055,56.818111300000055,56.818111300000055,56.818111300000055,,002,P011,2025_Feb_08_1042,CategoryLocalizer,2021.2.3,59.93676671119076,
23.8,24.0,5,0.0,Stimuli\Blank.png,0,0,0,24,24,24,,,,,,,,,,,,,23.82066500000019,0.020665000000189337,None,57.602183299999524,57.602183299999524,57.602183299999524,57.602183299999524,57.602183299999524,57.602183299999524,57.602183299999524,57.602183299999524,,002,P011,2025_Feb_08_1042,CategoryLocalizer,2021.2.3,59.93676671119076,
24.0,24.8,1,0.75,Stimuli\ImageFiles-Set2\Objects\Object_Boot_00001.png,0,0,0,25,25,25,,,,,,,,,,,,,24.005616600000394,0.005616600000394101,None,57.80230829999982,57.80230829999982,57.80230829999982,57.80230829999982,57.80230829999982,57.80230829999982,57.80230829999982,57.80230829999982,,002,P011,2025_Feb_08_1042,CategoryLocalizer,2021.2.3,59.93676671119076,
24.8,25.0,5,0.0,Stimuli\Blank.png,0,0,0,26,26,26,,,,,,,,,,,,,24.821440200000325,0.021440200000323983,None,58.60307979999925,58.60307979999925,58.60307979999925,58.60307979999925,58.60307979999925,58.60307979999925,58.60307979999925,58.60307979999925,,002,P011,2025_Feb_08_1042,CategoryLocalizer,2021.2.3,59.93676671119076,
25.0,25.8,1,0.75,Stimuli\ImageFiles-Set2\Objects\Object_Microphone_00001.png,0,0,0,27,27,27,,,,,,,,,,,,,25.005783900000097,0.005783900000096764,None,58.80323319999934,58.80323319999934,58.80323319999934,58.80323319999934,58.80323319999934,58.80323319999934,58.80323319999934,58.80323319999934,,002,P011,2025_Feb_08_1042,CategoryLocalizer,2021.2.3,59.93676671119076,
25.8,26.0,5,0.0,Stimuli\Blank.png,0,0,0,28,28,28,,,,,,,,,,,,,25.82117870000002,0.02117870000001787,None,59.60394009999982,59.60394009999982,59.60394009999982,59.60394009999982,59.60394009999982,59.60394009999982,59.60394009999982,59.60394009999982,,002,P011,2025_Feb_08_1042,CategoryLocalizer,2021.2.3,59.93676671119076,
26.0,26.8,1,0.75,Stimuli\ImageFiles-Set2\Objects\Object_Strawberry_00001.png,0,0,0,29,29,29,,,,,,,,,,,,,26.005083600000034,0.005083600000034494,None,59.80413580000004,59.80413580000004,59.80413580000004,59.80413580000004,59.80413580000004,59.80413580000004,59.80413580000004,59.80413580000004,,002,P011,2025_Feb_08_1042,CategoryLocalizer,2021.2.3,59.93676671119076,
26.8,27.0,5,0.0,Stimuli\Blank.png,0,0,0,30,30,30,,,,,,,,,,,,,26.822104599999875,0.022104599999874353,None,60.60479589999977,60.60479589999977,60.60479589999977,60.60479589999977,60.60479589999977,60.60479589999977,60.60479589999977,60.60479589999977,,002,P011,2025_Feb_08_1042,CategoryLocalizer,2021.2.3,59.93676671119076,
27.0,27.8,1,0.75,Stimuli\ImageFiles-Set2\Objects\Object_Ladder_00001.png,0,0,0,31,31,31,,,,,,,,,,,,,27.00565000000006,0.005650000000059663,None,60.80503289999979,60.80503289999979,60.80503289999979,60.80503289999979,60.80503289999979,60.80503289999979,60.80503289999979,60.80503289999979,,002,P011,2025_Feb_08_1042,CategoryLocalizer,2021.2.3,59.93676671119076,
27.8,28.0,5,0.0,Stimuli\Blank.png,0,0,0,32,32,32,,,,,,,,,,,,,27.823761500000728,0.02376150000072741,None,61.60571909999999,61.60571909999999,61.60571909999999,61.60571909999999,61.60571909999999,61.60571909999999,61.60571909999999,61.60571909999999,,002,P011,2025_Feb_08_1042,CategoryLocalizer,2021.2.3,59.93676671119076,
28.0,28.8,2,0.75,Stimuli\ImageFiles-Set2\Bodies\Bodies_Jumping_00005.png,0,0,0,33,33,33,,,,,,,,,,,,,28.006465800000115,0.006465800000114541,None,61.82256359999974,61.82256359999974,61.82256359999974,61.82256359999974,61.82256359999974,61.82256359999974,61.82256359999974,61.82256359999974,,002,P011,2025_Feb_08_1042,CategoryLocalizer,2021.2.3,59.93676671119076,
28.8,29.0,5,0.0,Stimuli\Blank.png,0,0,0,34,34,34,,,,,,,,,,,,,28.841183000000456,0.04118300000045494,None,62.623286899999584,62.623286899999584,62.623286899999584,62.623286899999584,62.623286899999584,62.623286899999584,62.623286899999584,62.623286899999584,,002,P011,2025_Feb_08_1042,CategoryLocalizer,2021.2.3,59.93676671119076,
29.0,29.8,2,0.75,Stimuli\ImageFiles-Set2\Bodies\Bodies_Running_00004.png,0,0,0,35,35,35,,,,,,,,,,,,,29.00805930000024,0.00805930000024091,None,62.790084399999614,62.790084399999614,62.790084399999614,62.790084399999614,62.790084399999614,62.790084399999614,62.790084399999614,62.790084399999614,,002,P011,2025_Feb_08_1042,CategoryLocalizer,2021.2.3,59.93676671119076,
29.8,30.0,5,0.0,Stimuli\Blank.png,0,0,0,36,36,36,,,,,,,,,,,,,29.81041770000047,0.010417700000470376,None,63.60750019999978,63.60750019999978,63.60750019999978,63.60750019999978,63.60750019999978,63.60750019999978,63.60750019999978,63.60750019999978,,002,P011,2025_Feb_08_1042,CategoryLocalizer,2021.2.3,59.93676671119076,
30.0,30.8,2,0.75,Stimuli\ImageFiles-Set2\Bodies\Bodies_Running_00005.png,0,0,0,37,37,37,,,,,,,,,,,,,30.025149500000225,0.02514950000022509,None,63.807653999999275,63.807653999999275,63.807653999999275,63.807653999999275,63.807653999999275,63.807653999999275,63.807653999999275,63.807653999999275,,002,P011,2025_Feb_08_1042,CategoryLocalizer,2021.2.3,59.93676671119076,
30.8,31.0,5,0.0,Stimuli\Blank.png,0,0,0,38,38,38,,,,,,,,,,,,,30.81077280000045,0.010772800000449223,None,64.60839909999959,64.60839909999959,64.60839909999959,64.60839909999959,64.60839909999959,64.60839909999959,64.60839909999959,64.60839909999959,,002,P011,2025_Feb_08_1042,CategoryLocalizer,2021.2.3,59.93676671119076,
31.0,31.8,2,0.75,Stimuli\ImageFiles-Set2\Bodies\Bodies_Pushing_00004.png,0,0,0,39,39,39,,,,,,,,,,,,,31.025935700000446,0.02593570000044565,None,64.82521429999997,64.82521429999997,64.82521429999997,64.82521429999997,64.82521429999997,64.82521429999997,64.82521429999997,64.82521429999997,,002,P011,2025_Feb_08_1042,CategoryLocalizer,2021.2.3,59.93676671119076,
31.8,32.0,5,0.0,Stimuli\Blank.png,0,0,0,40,40,40,,,,,,,,,,,,,31.826506600000357,0.02650660000035643,None,65.60925049999969,65.60925049999969,65.60925049999969,65.60925049999969,65.60925049999969,65.60925049999969,65.60925049999969,65.60925049999969,,002,P011,2025_Feb_08_1042,CategoryLocalizer,2021.2.3,59.93676671119076,
32.0,32.8,2,0.75,Stimuli\ImageFiles-Set2\Bodies\Bodies_Walking_00001.png,0,0,0,41,41,41,,,,,,,,,,,,,32.010204900000645,0.010204900000644557,None,65.82612169999993,65.82612169999993,65.82612169999993,65.82612169999993,65.82612169999993,65.82612169999993,65.82612169999993,65.82612169999993,,002,P011,2025_Feb_08_1042,CategoryLocalizer,2021.2.3,59.93676671119076,
32.8,33.0,5,0.0,Stimuli\Blank.png,0,0,0,42,42,42,,,,,,,,,,,,,32.84694020000006,0.0469402000000656,None,66.64351149999948,66.64351149999948,66.64351149999948,66.64351149999948,66.64351149999948,66.64351149999948,66.64351149999948,66.64351149999948,,002,P011,2025_Feb_08_1042,CategoryLocalizer,2021.2.3,59.93676671119076,
33.0,33.8,2,0.75,Stimuli\ImageFiles-Set2\Bodies\Bodies_SittingStretch_00006.png,0,0,0,43,43,43,,,,,,,,,,,,,33.02838030000021,0.02838030000020808,None,66.8269965999998,66.8269965999998,66.8269965999998,66.8269965999998,66.8269965999998,66.8269965999998,66.8269965999998,66.8269965999998,,002,P011,2025_Feb_08_1042,CategoryLocalizer,2021.2.3,59.93676671119076,
33.8,34.0,5,0.0,Stimuli\Blank.png,0,0,0,44,44,44,,,,,,,,,,,,,33.83062390000032,0.03062390000032167,None,67.62771189999967,67.62771189999967,67.62771189999967,67.62771189999967,67.62771189999967,67.62771189999967,67.62771189999967,67.62771189999967,,002,P011,2025_Feb_08_1042,CategoryLocalizer,2021.2.3,59.93676671119076,
34.0,34.8,2,0.75,Stimuli\ImageFiles-Set2\Bodies\Bodies_Hanging_00005.png,0,0,0,45,45,45,,,,,,,,,,,,,34.029240599999866,0.02924059999986639,None,67.82800019999922,67.82800019999922,67.82800019999922,67.82800019999922,67.82800019999922,67.82800019999922,67.82800019999922,67.82800019999922,,002,P011,2025_Feb_08_1042,CategoryLocalizer,2021.2.3,59.93676671119076,
34.8,35.0,5,0.0,Stimuli\Blank.png,0,0,0,46,46,46,,,,,,,,,,,,,34.83012130000043,0.030121300000431006,None,68.61191299999973,68.61191299999973,68.61191299999973,68.61191299999973,68.61191299999973,68.61191299999973,68.61191299999973,68.61191299999973,,002,P011,2025_Feb_08_1042,CategoryLocalizer,2021.2.3,59.93676671119076,
35.0,35.8,2,0.75,Stimuli\ImageFiles-Set2\Bodies\Bodies_Punching_00005.png,0,0,0,47,47,47,,,,,,,,,,,,,35.012710300000435,0.012710300000435382,None,68.81212599999981,68.81212599999981,68.81212599999981,68.81212599999981,68.81212599999981,68.81212599999981,68.81212599999981,68.81212599999981,,002,P011,2025_Feb_08_1042,CategoryLocalizer,2021.2.3,59.93676671119076,
35.8,36.0,5,0.0,Stimuli\Blank.png,0,0,0,48,48,48,,,,,,,,,,,,,35.830795599999874,0.0307955999998768,None,69.6127975999998,69.6127975999998,69.6127975999998,69.6127975999998,69.6127975999998,69.6127975999998,69.6127975999998,69.6127975999998,,002,P011,2025_Feb_08_1042,CategoryLocalizer,2021.2.3,59.93676671119076,
36.0,36.8,2,0.75,Stimuli\ImageFiles-Set2\Bodies\Bodies_Jumping_00001.png,0,0,0,49,49,49,,,,,,,,,,,,,36.013932800000475,0.013932800000475254,None,69.82967559999997,69.82967559999997,69.82967559999997,69.82967559999997,69.82967559999997,69.82967559999997,69.82967559999997,69.82967559999997,,002,P011,2025_Feb_08_1042,CategoryLocalizer,2021.2.3,59.93676671119076,
36.8,37.0,5,0.0,Stimuli\Blank.png,0,0,0,50,50,50,,,,,,,,,,,,,36.8478468000003,0.047846800000300505,None,70.63036019999981,70.63036019999981,70.63036019999981,70.63036019999981,70.63036019999981,70.63036019999981,70.63036019999981,70.63036019999981,,002,P011,2025_Feb_08_1042,CategoryLocalizer,2021.2.3,59.93676671119076,
37.0,37.8,2,0.75,Stimuli\ImageFiles-Set2\Bodies\Bodies_Kicking_00006.png,0,0,0,51,51,51,,,,,,,,,,,,,37.015190500000244,0.015190500000244356,None,70.81385239999963,70.81385239999963,70.81385239999963,70.81385239999963,70.81385239999963,70.81385239999963,70.81385239999963,70.81385239999963,,002,P011,2025_Feb_08_1042,CategoryLocalizer,2021.2.3,59.93676671119076,
37.8,38.0,5,0.0,Stimuli\Blank.png,0,0,0,52,52,52,,,,,,,,,,,,,37.81609260000005,0.016092600000050084,None,71.59789550000005,71.59789550000005,71.59789550000005,71.59789550000005,71.59789550000005,71.59789550000005,71.59789550000005,71.59789550000005,,002,P011,2025_Feb_08_1042,CategoryLocalizer,2021.2.3,59.93676671119076,
38.0,38.8,2,0.75,Stimuli\ImageFiles-Set2\Bodies\Bodies_Kicking_00006.png,1,1,0,53,53,53,,,,,,,,,,,,,38.000760300000366,0.0007603000003655325,1,71.79806399999961,71.79806399999961,71.79806399999961,71.79806399999961,71.79806399999961,71.79806399999961,71.79806399999961,71.79806399999961,0.5519199000000299,002,P011,2025_Feb_08_1042,CategoryLocalizer,2021.2.3,59.93676671119076,
38.8,39.0,5,0.0,Stimuli\Blank.png,0,0,0,54,54,54,,,,,,,,,,,,,38.816215800000464,0.01621580000046663,None,72.59876749999967,72.59876749999967,72.59876749999967,72.59876749999967,72.59876749999967,72.59876749999967,72.59876749999967,72.59876749999967,,002,P011,2025_Feb_08_1042,CategoryLocalizer,2021.2.3,59.93676671119076,
39.0,39.8,2,0.75,Stimuli\ImageFiles-Set2\Bodies\Bodies_Standing_00002.png,0,0,0,55,55,55,,,,,,,,,,,,,39.00045620000037,0.00045620000037160935,None,72.7989693999998,72.7989693999998,72.7989693999998,72.7989693999998,72.7989693999998,72.7989693999998,72.7989693999998,72.7989693999998,,002,P011,2025_Feb_08_1042,CategoryLocalizer,2021.2.3,59.93676671119076,
39.8,40.0,5,0.0,Stimuli\Blank.png,0,0,0,56,56,56,,,,,,,,,,,,,39.817754000000605,0.01775400000060756,None,73.59964429999945,73.59964429999945,73.59964429999945,73.59964429999945,73.59964429999945,73.59964429999945,73.59964429999945,73.59964429999945,,002,P011,2025_Feb_08_1042,CategoryLocalizer,2021.2.3,59.93676671119076,
40.0,40.8,2,0.75,Stimuli\ImageFiles-Set2\Bodies\Bodies_PushUp_00001.png,0,0,0,57,57,57,,,,,,,,,,,,,40.00111449999986,0.0011144999998577987,None,73.81650999999965,73.81650999999965,73.81650999999965,73.81650999999965,73.81650999999965,73.81650999999965,73.81650999999965,73.81650999999965,,002,P011,2025_Feb_08_1042,CategoryLocalizer,2021.2.3,59.93676671119076,
40.8,41.0,5,0.0,Stimuli\Blank.png,0,0,0,58,58,58,,,,,,,,,,,,,40.836623600000166,0.036623600000169176,None,74.6339283999996,74.6339283999996,74.6339283999996,74.6339283999996,74.6339283999996,74.6339283999996,74.6339283999996,74.6339283999996,,002,P011,2025_Feb_08_1042,CategoryLocalizer,2021.2.3,59.93676671119076,
41.0,41.8,2,0.75,Stimuli\ImageFiles-Set2\Bodies\Bodies_SittingStretch_00001.png,0,0,0,59,59,59,,,,,,,,,,,,,41.01799360000041,0.01799360000040906,None,74.81741759999932,74.81741759999932,74.81741759999932,74.81741759999932,74.81741759999932,74.81741759999932,74.81741759999932,74.81741759999932,,002,P011,2025_Feb_08_1042,CategoryLocalizer,2021.2.3,59.93676671119076,
41.8,42.0,5,0.0,Stimuli\Blank.png,0,0,0,60,60,60,,,,,,,,,,,,,41.82074360000024,0.020743600000244555,None,75.61810369999966,75.61810369999966,75.61810369999966,75.61810369999966,75.61810369999966,75.61810369999966,75.61810369999966,75.61810369999966,,002,P011,2025_Feb_08_1042,CategoryLocalizer,2021.2.3,59.93676671119076,
42.0,42.8,2,0.75,Stimuli\ImageFiles-Set2\Bodies\Bodies_Kneeling_00002.png,0,0,0,61,61,61,,,,,,,,,,,,,42.02069389999997,0.02069389999996929,None,75.83505009999953,75.83505009999953,75.83505009999953,75.83505009999953,75.83505009999953,75.83505009999953,75.83505009999953,75.83505009999953,,002,P011,2025_Feb_08_1042,CategoryLocalizer,2021.2.3,59.93676671119076,
42.8,43.0,5,0.0,Stimuli\Blank.png,0,0,0,62,62,62,,,,,,,,,,,,,42.83707310000045,0.03707310000045538,None,76.61898620000011,76.61898620000011,76.61898620000011,76.61898620000011,76.61898620000011,76.61898620000011,76.61898620000011,76.61898620000011,,002,P011,2025_Feb_08_1042,CategoryLocalizer,2021.2.3,59.93676671119076,
43.0,43.8,2,0.75,Stimuli\ImageFiles-Set2\Bodies\Bodies_Kicking_00001.png,0,0,0,63,63,63,,,,,,,,,,,,,43.003877699999975,0.003877699999975448,None,76.81918339999993,76.81918339999993,76.81918339999993,76.81918339999993,76.81918339999993,76.81918339999993,76.81918339999993,76.81918339999993,,002,P011,2025_Feb_08_1042,CategoryLocalizer,2021.2.3,59.93676671119076,
43.8,44.0,5,0.0,Stimuli\Blank.png,0,0,0,64,64,64,,,,,,,,,,,,,43.83800120000069,0.03800120000069285,None,77.61986739999975,77.61986739999975,77.61986739999975,77.61986739999975,77.61986739999975,77.61986739999975,77.61986739999975,77.61986739999975,,002,P011,2025_Feb_08_1042,CategoryLocalizer,2021.2.3,59.93676671119076,
44.0,44.8,3,0.75,Stimuli\ImageFiles-Set2\Faces\Face_00054.png,0,0,0,65,65,65,,,,,,,,,,,,,44.0073424000002,0.007342400000197813,None,77.82004999999936,77.82004999999936,77.82004999999936,77.82004999999936,77.82004999999936,77.82004999999936,77.82004999999936,77.82004999999936,,002,P011,2025_Feb_08_1042,CategoryLocalizer,2021.2.3,59.93676671119076,
44.8,45.0,5,0.0,Stimuli\Blank.png,0,0,0,66,66,66,,,,,,,,,,,,,44.83875420000004,0.03875420000004226,None,78.62077210000007,78.62077210000007,78.62077210000007,78.62077210000007,78.62077210000007,78.62077210000007,78.62077210000007,78.62077210000007,,002,P011,2025_Feb_08_1042,CategoryLocalizer,2021.2.3,59.93676671119076,
45.0,45.8,3,0.75,Stimuli\ImageFiles-Set2\Faces\Face_00072.png,0,0,0,67,67,67,,,,,,,,,,,,,45.005470800000694,0.005470800000693998,None,78.80424820000007,78.80424820000007,78.80424820000007,78.80424820000007,78.80424820000007,78.80424820000007,78.80424820000007,78.80424820000007,,002,P011,2025_Feb_08_1042,CategoryLocalizer,2021.2.3,59.93676671119076,
45.8,46.0,5,0.0,Stimuli\Blank.png,0,0,0,68,68,68,,,,,,,,,,,,,45.82261850000032,0.02261850000031984,None,79.60496009999952,79.60496009999952,79.60496009999952,79.60496009999952,79.60496009999952,79.60496009999952,79.60496009999952,79.60496009999952,,002,P011,2025_Feb_08_1042,CategoryLocalizer,2021.2.3,59.93676671119076,
46.0,46.8,3,0.75,Stimuli\ImageFiles-Set2\Faces\Face_00112.png,0,0,0,69,69,69,,,,,,,,,,,,,46.00643570000011,0.0064357000001109554,None,79.80521259999932,79.80521259999932,79.80521259999932,79.80521259999932,79.80521259999932,79.80521259999932,79.80521259999932,79.80521259999932,,002,P011,2025_Feb_08_1042,CategoryLocalizer,2021.2.3,59.93676671119076,
46.8,47.0,5,0.0,Stimuli\Blank.png,0,0,0,70,70,70,,,,,,,,,,,,,46.823275800000374,0.02327580000037699,None,80.60586669999975,80.60586669999975,80.60586669999975,80.60586669999975,80.60586669999975,80.60586669999975,80.60586669999975,80.60586669999975,,002,P011,2025_Feb_08_1042,CategoryLocalizer,2021.2.3,59.93676671119076,
47.0,47.8,3,0.75,Stimuli\ImageFiles-Set2\Faces\Face_00112.png,1,1,0,71,71,71,,,,,,,,,,,,,47.007550000000265,0.007550000000264845,1,80.7893481000001,80.7893481000001,80.7893481000001,80.7893481000001,80.7893481000001,80.7893481000001,80.7893481000001,80.7893481000001,0.4638230000000476,002,P011,2025_Feb_08_1042,CategoryLocalizer,2021.2.3,59.93676671119076,
47.8,48.0,5,0.0,Stimuli\Blank.png,0,0,0,72,72,72,,,,,,,,,,,,,47.808025700000144,0.008025700000146685,None,81.59002359999977,81.59002359999977,81.59002359999977,81.59002359999977,81.59002359999977,81.59002359999977,81.59002359999977,81.59002359999977,,002,P011,2025_Feb_08_1042,CategoryLocalizer,2021.2.3,59.93676671119076,
48.0,48.8,3,0.75,Stimuli\ImageFiles-Set2\Faces\Face_00078.png,0,0,0,73,73,73,,,,,,,,,,,,,48.008066400000644,0.008066400000643625,None,81.82358560000011,81.82358560000011,81.82358560000011,81.82358560000011,81.82358560000011,81.82358560000011,81.82358560000011,81.82358560000011,,002,P011,2025_Feb_08_1042,CategoryLocalizer,2021.2.3,59.93676671119076,
48.8,49.0,5,0.0,Stimuli\Blank.png,0,0,0,74,74,74,,,,,,,,,,,,,48.84219370000028,0.042193700000282774,None,82.62429900000006,82.62429900000006,82.62429900000006,82.62429900000006,82.62429900000006,82.62429900000006,82.62429900000006,82.62429900000006,,002,P011,2025_Feb_08_1042,CategoryLocalizer,2021.2.3,59.93676671119076,
49.0,49.8,3,0.75,Stimuli\ImageFiles-Set2\Faces\Face_00106.png,0,0,0,75,75,75,,,,,,,,,,,,,49.01022160000048,0.010221600000477338,None,82.82447869999942,82.82447869999942,82.82447869999942,82.82447869999942,82.82447869999942,82.82447869999942,82.82447869999942,82.82447869999942,,002,P011,2025_Feb_08_1042,CategoryLocalizer,2021.2.3,59.93676671119076,
49.8,50.0,5,0.0,Stimuli\Blank.png,0,0,0,76,76,76,,,,,,,,,,,,,49.842671500000506,0.0426715000005089,None,83.62518419999924,83.62518419999924,83.62518419999924,83.62518419999924,83.62518419999924,83.62518419999924,83.62518419999924,83.62518419999924,,002,P011,2025_Feb_08_1042,CategoryLocalizer,2021.2.3,59.93676671119076,
50.0,50.8,3,0.75,Stimuli\ImageFiles-Set2\Faces\Face_00098.png,0,0,0,77,77,77,,,,,,,,,,,,,50.009501999999884,0.009501999999883992,None,83.82536559999971,83.82536559999971,83.82536559999971,83.82536559999971,83.82536559999971,83.82536559999971,83.82536559999971,83.82536559999971,,002,P011,2025_Feb_08_1042,CategoryLocalizer,2021.2.3,59.93676671119076,
50.8,51.0,5,0.0,Stimuli\Blank.png,0,0,0,78,78,78,,,,,,,,,,,,,50.8452984000005,0.04529840000050456,None,84.64278939999986,84.64278939999986,84.64278939999986,84.64278939999986,84.64278939999986,84.64278939999986,84.64278939999986,84.64278939999986,,002,P011,2025_Feb_08_1042,CategoryLocalizer,2021.2.3,59.93676671119076,
51.0,51.8,3,0.75,Stimuli\ImageFiles-Set2\Faces\Face_00021.png,0,0,0,79,79,79,,,,,,,,,,,,,51.02765790000012,0.027657900000122027,None,84.82624919999944,84.82624919999944,84.82624919999944,84.82624919999944,84.82624919999944,84.82624919999944,84.82624919999944,84.82624919999944,,002,P011,2025_Feb_08_1042,CategoryLocalizer,2021.2.3,59.93676671119076,
51.8,52.0,5,0.0,Stimuli\Blank.png,0,0,0,80,80,80,,,,,,,,,,,,,51.828852700000425,0.028852700000427944,None,85.61024240000006,85.61024240000006,85.61024240000006,85.61024240000006,85.61024240000006,85.61024240000006,85.61024240000006,85.61024240000006,,002,P011,2025_Feb_08_1042,CategoryLocalizer,2021.2.3,59.93676671119076,
52.0,52.8,3,0.75,Stimuli\ImageFiles-Set2\Faces\Face_00028.png,0,0,0,81,81,81,,,,,,,,,,,,,52.01108810000005,0.011088100000051782,None,85.79376879999927,85.79376879999927,85.79376879999927,85.79376879999927,85.79376879999927,85.79376879999927,85.79376879999927,85.79376879999927,,002,P011,2025_Feb_08_1042,CategoryLocalizer,2021.2.3,59.93676671119076,
52.8,53.0,5,0.0,Stimuli\Blank.png,0,0,0,82,82,82,,,,,,,,,,,,,52.812830400000166,0.012830400000169107,None,86.59447639999962,86.59447639999962,86.59447639999962,86.59447639999962,86.59447639999962,86.59447639999962,86.59447639999962,86.59447639999962,,002,P011,2025_Feb_08_1042,CategoryLocalizer,2021.2.3,59.93676671119076,
53.0,53.8,3,0.75,Stimuli\ImageFiles-Set2\Faces\Face_00011.png,0,0,0,83,83,83,,,,,,,,,,,,,53.01275600000008,0.012756000000081258,None,86.82801279999967,86.82801279999967,86.82801279999967,86.82801279999967,86.82801279999967,86.82801279999967,86.82801279999967,86.82801279999967,,002,P011,2025_Feb_08_1042,CategoryLocalizer,2021.2.3,59.93676671119076,
53.8,54.0,5,0.0,Stimuli\Blank.png,0,0,0,84,84,84,,,,,,,,,,,,,53.845995499999844,0.04599549999984731,None,87.62872489999972,87.62872489999972,87.62872489999972,87.62872489999972,87.62872489999972,87.62872489999972,87.62872489999972,87.62872489999972,,002,P011,2025_Feb_08_1042,CategoryLocalizer,2021.2.3,59.93676671119076,
54.0,54.8,3,0.75,Stimuli\ImageFiles-Set2\Faces\Face_00066.png,0,0,0,85,85,85,,,,,,,,,,,,,54.01295800000025,0.012958000000253378,None,87.81222189999971,87.81222189999971,87.81222189999971,87.81222189999971,87.81222189999971,87.81222189999971,87.81222189999971,87.81222189999971,,002,P011,2025_Feb_08_1042,CategoryLocalizer,2021.2.3,59.93676671119076,
54.8,55.0,5,0.0,Stimuli\Blank.png,0,0,0,86,86,86,,,,,,,,,,,,,54.83151439999983,0.03151439999983552,None,88.61298429999988,88.61298429999988,88.61298429999988,88.61298429999988,88.61298429999988,88.61298429999988,88.61298429999988,88.61298429999988,,002,P011,2025_Feb_08_1042,CategoryLocalizer,2021.2.3,59.93676671119076,
55.0,55.8,3,0.75,Stimuli\ImageFiles-Set2\Faces\Face_00064.png,0,0,0,87,87,87,,,,,,,,,,,,,55.015621000000465,0.015621000000464846,None,88.81311659999938,88.81311659999938,88.81311659999938,88.81311659999938,88.81311659999938,88.81311659999938,88.81311659999938,88.81311659999938,,002,P011,2025_Feb_08_1042,CategoryLocalizer,2021.2.3,59.93676671119076,
55.8,56.0,5,0.0,Stimuli\Blank.png,0,0,0,88,88,88,,,,,,,,,,,,,55.815055900000516,0.015055900000518818,None,89.59714349999922,89.59714349999922,89.59714349999922,89.59714349999922,89.59714349999922,89.59714349999922,89.59714349999922,89.59714349999922,,002,P011,2025_Feb_08_1042,CategoryLocalizer,2021.2.3,59.93676671119076,
56.0,56.8,3,0.75,Stimuli\ImageFiles-Set2\Faces\Face_00090.png,0,0,0,89,89,89,,,,,,,,,,,,,56.0149535999999,0.01495359999989887,None,89.83067899999969,89.83067899999969,89.83067899999969,89.83067899999969,89.83067899999969,89.83067899999969,89.83067899999969,89.83067899999969,,002,P011,2025_Feb_08_1042,CategoryLocalizer,2021.2.3,59.93676671119076,
56.8,57.0,5,0.0,Stimuli\Blank.png,0,0,0,90,90,90,,,,,,,,,,,,,56.84989730000052,0.049897300000523614,None,90.63138900000013,90.63138900000013,90.63138900000013,90.63138900000013,90.63138900000013,90.63138900000013,90.63138900000013,90.63138900000013,,002,P011,2025_Feb_08_1042,CategoryLocalizer,2021.2.3,59.93676671119076,
57.0,57.8,3,0.75,Stimuli\ImageFiles-Set2\Faces\Face_00060.png,0,0,0,91,91,91,,,,,,,,,,,,,56.999876400000176,-0.0001235999998243642,None,90.81489809999948,90.81489809999948,90.81489809999948,90.81489809999948,90.81489809999948,90.81489809999948,90.81489809999948,90.81489809999948,,002,P011,2025_Feb_08_1042,CategoryLocalizer,2021.2.3,59.93676671119076,
57.8,58.0,5,0.0,Stimuli\Blank.png,0,0,0,92,92,92,,,,,,,,,,,,,57.83289180000065,0.03289180000065528,None,91.61557939999966,91.61557939999966,91.61557939999966,91.61557939999966,91.61557939999966,91.61557939999966,91.61557939999966,91.61557939999966,,002,P011,2025_Feb_08_1042,CategoryLocalizer,2021.2.3,59.93676671119076,
58.0,58.8,3,0.75,Stimuli\ImageFiles-Set2\Faces\Face_00030.png,0,0,0,93,93,93,,,,,,,,,,,,,58.00043940000069,0.0004394000006868737,None,91.79907699999967,91.79907699999967,91.79907699999967,91.79907699999967,91.79907699999967,91.79907699999967,91.79907699999967,91.79907699999967,,002,P011,2025_Feb_08_1042,CategoryLocalizer,2021.2.3,59.93676671119076,
58.8,59.0,5,0.0,Stimuli\Blank.png,0,0,0,94,94,94,,,,,,,,,,,,,58.81800580000072,0.01800580000072216,None,92.5997856999993,92.5997856999993,92.5997856999993,92.5997856999993,92.5997856999993,92.5997856999993,92.5997856999993,92.5997856999993,,002,P011,2025_Feb_08_1042,CategoryLocalizer,2021.2.3,59.93676671119076,
59.0,59.8,3,0.75,Stimuli\ImageFiles-Set2\Faces\Face_00068.png,0,0,0,95,95,95,,,,,,,,,,,,,59.001372900000206,0.0013729000002058456,None,92.81664759999967,92.81664759999967,92.81664759999967,92.81664759999967,92.81664759999967,92.81664759999967,92.81664759999967,92.81664759999967,,002,P011,2025_Feb_08_1042,CategoryLocalizer,2021.2.3,59.93676671119076,
59.8,60.0,5,0.0,Stimuli\Blank.png,0,0,0,96,96,96,,,,,,,,,,,,,59.83626110000023,0.03626110000023175,None,93.61736679999922,93.61736679999922,93.61736679999922,93.61736679999922,93.61736679999922,93.61736679999922,93.61736679999922,93.61736679999922,,002,P011,2025_Feb_08_1042,CategoryLocalizer,2021.2.3,59.93676671119076,
60.0,60.8,4,0.75,Stimuli\ImageFiles-Set2\Scenes\Scenes_088.png,0,0,0,97,97,97,,,,,,,,,,,,,60.00208569999995,0.0020856999999523396,None,93.78413459999956,93.78413459999956,93.78413459999956,93.78413459999956,93.78413459999956,93.78413459999956,93.78413459999956,93.78413459999956,,002,P011,2025_Feb_08_1042,CategoryLocalizer,2021.2.3,59.93676671119076,
60.8,61.0,5,0.0,Stimuli\Blank.png,0,0,0,98,98,98,,,,,,,,,,,,,60.8025118000005,0.0025118000005051044,None,94.58488080000006,94.58488080000006,94.58488080000006,94.58488080000006,94.58488080000006,94.58488080000006,94.58488080000006,94.58488080000006,,002,P011,2025_Feb_08_1042,CategoryLocalizer,2021.2.3,59.93676671119076,
61.0,61.8,4,0.75,Stimuli\ImageFiles-Set2\Scenes\Scenes_102.png,0,0,0,99,99,99,,,,,,,,,,,,,61.00247590000072,0.0024759000007179566,None,94.80173419999937,94.80173419999937,94.80173419999937,94.80173419999937,94.80173419999937,94.80173419999937,94.80173419999937,94.80173419999937,,002,P011,2025_Feb_08_1042,CategoryLocalizer,2021.2.3,59.93676671119076,
61.8,62.0,5,0.0,Stimuli\Blank.png,0,0,0,100,100,100,,,,,,,,,,,,,61.82124019999992,0.021240199999922993,None,95.60244939999939,95.60244939999939,95.60244939999939,95.60244939999939,95.60244939999939,95.60244939999939,95.60244939999939,95.60244939999939,,002,P011,2025_Feb_08_1042,CategoryLocalizer,2021.2.3,59.93676671119076,
62.0,62.8,4,0.75,Stimuli\ImageFiles-Set2\Scenes\Scenes_067.png,0,0,0,101,101,101,,,,,,,,,,,,,62.00327130000005,0.0032713000000512693,None,95.80258460000005,95.80258460000005,95.80258460000005,95.80258460000005,95.80258460000005,95.80258460000005,95.80258460000005,95.80258460000005,,002,P011,2025_Feb_08_1042,CategoryLocalizer,2021.2.3,59.93676671119076,
62.8,63.0,5,0.0,Stimuli\Blank.png,0,0,0,102,102,102,,,,,,,,,,,,,62.82219350000014,0.022193500000142308,None,96.60333589999937,96.60333589999937,96.60333589999937,96.60333589999937,96.60333589999937,96.60333589999937,96.60333589999937,96.60333589999937,,002,P011,2025_Feb_08_1042,CategoryLocalizer,2021.2.3,59.93676671119076,
63.0,63.8,4,0.75,Stimuli\ImageFiles-Set2\Scenes\Scenes_083.png,0,0,0,103,103,103,,,,,,,,,,,,,63.00686990000031,0.006869900000310736,None,96.82016039999962,96.82016039999962,96.82016039999962,96.82016039999962,96.82016039999962,96.82016039999962,96.82016039999962,96.82016039999962,,002,P011,2025_Feb_08_1042,CategoryLocalizer,2021.2.3,59.93676671119076,
63.8,64.0,5,0.0,Stimuli\Blank.png,0,0,0,104,104,104,,,,,,,,,,,,,63.83821200000057,0.0382120000005699,None,97.62090579999949,97.62090579999949,97.62090579999949,97.62090579999949,97.62090579999949,97.62090579999949,97.62090579999949,97.62090579999949,,002,P011,2025_Feb_08_1042,CategoryLocalizer,2021.2.3,59.93676671119076,
64.0,64.8,4,0.75,Stimuli\ImageFiles-Set2\Scenes\Scenes_071.png,0,0,0,105,105,105,,,,,,,,,,,,,64.0056241000002,0.005624100000204635,None,97.80439870000009,97.80439870000009,97.80439870000009,97.80439870000009,97.80439870000009,97.80439870000009,97.80439870000009,97.80439870000009,,002,P011,2025_Feb_08_1042,CategoryLocalizer,2021.2.3,59.93676671119076,
64.8,65.0,5,0.0,Stimuli\Blank.png,0,0,0,106,106,106,,,,,,,,,,,,,64.82285550000051,0.02285550000051728,None,98.60510009999962,98.60510009999962,98.60510009999962,98.60510009999962,98.60510009999962,98.60510009999962,98.60510009999962,98.60510009999962,,002,P011,2025_Feb_08_1042,CategoryLocalizer,2021.2.3,59.93676671119076,
65.0,65.8,4,0.75,Stimuli\ImageFiles-Set2\Scenes\Scenes_097.png,0,0,0,107,107,107,,,,,,,,,,,,,65.00598600000012,0.005986000000120839,None,98.80531399999927,98.80531399999927,98.80531399999927,98.80531399999927,98.80531399999927,98.80531399999927,98.80531399999927,98.80531399999927,,002,P011,2025_Feb_08_1042,CategoryLocalizer,2021.2.3,59.93676671119076,
65.8,66.0,5,0.0,Stimuli\Blank.png,0,0,0,108,108,108,,,,,,,,,,,,,65.82393349999984,0.023933499999841956,None,99.60601339999994,99.60601339999994,99.60601339999994,99.60601339999994,99.60601339999994,99.60601339999994,99.60601339999994,99.60601339999994,,002,P011,2025_Feb_08_1042,CategoryLocalizer,2021.2.3,59.93676671119076,
66.0,66.8,4,0.75,Stimuli\ImageFiles-Set2\Scenes\Scenes_069.png,0,0,0,109,109,109,,,,,,,,,,,,,66.0075740000002,0.007574000000204251,None,99.82287240000005,99.82287240000005,99.82287240000005,99.82287240000005,99.82287240000005,99.82287240000005,99.82287240000005,99.82287240000005,,002,P011,2025_Feb_08_1042,CategoryLocalizer,2021.2.3,59.93676671119076,
66.8,67.0,5,0.0,Stimuli\Blank.png,0,0,0,110,110,110,,,,,,,,,,,,,66.84148189999996,0.04148189999996532,None,100.62356349999936,100.62356349999936,100.62356349999936,100.62356349999936,100.62356349999936,100.62356349999936,100.62356349999936,100.62356349999936,,002,P011,2025_Feb_08_1042,CategoryLocalizer,2021.2.3,59.93676671119076,
67.0,67.8,4,0.75,Stimuli\ImageFiles-Set2\Scenes\Scenes_062.png,0,0,0,111,111,111,,,,,,,,,,,,,67.00764119999985,0.007641199999852688,None,100.80704839999999,100.80704839999999,100.80704839999999,100.80704839999999,100.80704839999999,100.80704839999999,100.80704839999999,100.80704839999999,,002,P011,2025_Feb_08_1042,CategoryLocalizer,2021.2.3,59.93676671119076,
67.8,68.0,5,0.0,Stimuli\Blank.png,0,0,0,112,112,112,,,,,,,,,,,,,67.82716230000005,0.02716230000005737,None,101.6244730999997,101.6244730999997,101.6244730999997,101.6244730999997,101.6244730999997,101.6244730999997,101.6244730999997,101.6244730999997,,002,P011,2025_Feb_08_1042,CategoryLocalizer,2021.2.3,59.93676671119076,
68.0,68.8,4,0.75,Stimuli\ImageFiles-Set2\Scenes\Scenes_062.png,1,1,0,113,113,113,,,,,,,,,,,,,68.02526100000068,0.025261000000682543,1,101.80793300000005,101.80793300000005,101.80793300000005,101.80793300000005,101.80793300000005,101.80793300000005,101.80793300000005,101.80793300000005,0.5174802000001364,002,P011,2025_Feb_08_1042,CategoryLocalizer,2021.2.3,59.93676671119076,
68.8,69.0,5,0.0,Stimuli\Blank.png,0,0,0,114,114,114,,,,,,,,,,,,,68.81006179999986,0.010061799999860455,None,102.59197510000013,102.59197510000013,102.59197510000013,102.59197510000013,102.59197510000013,102.59197510000013,102.59197510000013,102.59197510000013,,002,P011,2025_Feb_08_1042,CategoryLocalizer,2021.2.3,59.93676671119076,
69.0,69.8,4,0.75,Stimuli\ImageFiles-Set2\Scenes\Scenes_107.png,0,0,0,115,115,115,,,,,,,,,,,,,69.0103122999999,0.010312299999895913,None,102.82554449999952,102.82554449999952,102.82554449999952,102.82554449999952,102.82554449999952,102.82554449999952,102.82554449999952,102.82554449999952,,002,P011,2025_Feb_08_1042,CategoryLocalizer,2021.2.3,59.93676671119076,
69.8,70.0,5,0.0,Stimuli\Blank.png,0,0,0,116,116,116,,,,,,,,,,,,,69.8456810000007,0.04568100000069819,None,103.6429134,103.6429134,103.6429134,103.6429134,103.6429134,103.6429134,103.6429134,103.6429134,,002,P011,2025_Feb_08_1042,CategoryLocalizer,2021.2.3,59.93676671119076,
70.0,70.8,4,0.75,Stimuli\ImageFiles-Set2\Scenes\Scenes_117.png,0,0,0,117,117,117,,,,,,,,,,,,,70.02702910000062,0.0270291000006182,None,103.82639649999965,103.82639649999965,103.82639649999965,103.82639649999965,103.82639649999965,103.82639649999965,103.82639649999965,103.82639649999965,,002,P011,2025_Feb_08_1042,CategoryLocalizer,2021.2.3,59.93676671119076,
70.8,71.0,5,0.0,Stimuli\Blank.png,0,0,0,118,118,118,,,,,,,,,,,,,70.82829519999996,0.028295199999959664,None,104.61041549999936,104.61041549999936,104.61041549999936,104.61041549999936,104.61041549999936,104.61041549999936,104.61041549999936,104.61041549999936,,002,P011,2025_Feb_08_1042,CategoryLocalizer,2021.2.3,59.93676671119076,
71.0,71.8,4,0.75,Stimuli\ImageFiles-Set2\Scenes\Scenes_079.png,0,0,0,119,119,119,,,,,,,,,,,,,71.01134040000034,0.011340400000335649,None,104.82729119999931,104.82729119999931,104.82729119999931,104.82729119999931,104.82729119999931,104.82729119999931,104.82729119999931,104.82729119999931,,002,P011,2025_Feb_08_1042,CategoryLocalizer,2021.2.3,59.93676671119076,
71.8,72.0,5,0.0,Stimuli\Blank.png,0,0,0,120,120,120,,,,,,,,,,,,,71.8451801000001,0.045180100000109746,None,105.62798309999926,105.62798309999926,105.62798309999926,105.62798309999926,105.62798309999926,105.62798309999926,105.62798309999926,105.62798309999926,,002,P011,2025_Feb_08_1042,CategoryLocalizer,2021.2.3,59.93676671119076,
72.0,72.8,4,0.75,Stimuli\ImageFiles-Set2\Scenes\Scenes_106.png,0,0,0,121,121,121,,,,,,,,,,,,,72.01208300000053,0.012083000000529864,None,105.82817969999996,105.82817969999996,105.82817969999996,105.82817969999996,105.82817969999996,105.82817969999996,105.82817969999996,105.82817969999996,,002,P011,2025_Feb_08_1042,CategoryLocalizer,2021.2.3,59.93676671119076,
72.8,73.0,5,0.0,Stimuli\Blank.png,0,0,0,122,122,122,,,,,,,,,,,,,72.84629740000037,0.04629740000036975,None,106.6289157000001,106.6289157000001,106.6289157000001,106.6289157000001,106.6289157000001,106.6289157000001,106.6289157000001,106.6289157000001,,002,P011,2025_Feb_08_1042,CategoryLocalizer,2021.2.3,59.93676671119076,
73.0,73.8,4,0.75,Stimuli\ImageFiles-Set2\Scenes\Scenes_113.png,0,0,0,123,123,123,,,,,,,,,,,,,73.01524419999987,0.015244199999870034,None,106.82904229999986,106.82904229999986,106.82904229999986,106.82904229999986,106.82904229999986,106.82904229999986,106.82904229999986,106.82904229999986,,002,P011,2025_Feb_08_1042,CategoryLocalizer,2021.2.3,59.93676671119076,
73.8,74.0,5,0.0,Stimuli\Blank.png,0,0,0,124,124,124,,,,,,,,,,,,,73.83097050000015,0.030970500000151446,None,107.61307419999957,107.61307419999957,107.61307419999957,107.61307419999957,107.61307419999957,107.61307419999957,107.61307419999957,107.61307419999957,,002,P011,2025_Feb_08_1042,CategoryLocalizer,2021.2.3,59.93676671119076,
74.0,74.8,4,0.75,Stimuli\ImageFiles-Set2\Scenes\Scenes_108.png,0,0,0,125,125,125,,,,,,,,,,,,,74.01436680000006,0.01436680000006163,None,107.82993609999994,107.82993609999994,107.82993609999994,107.82993609999994,107.82993609999994,107.82993609999994,107.82993609999994,107.82993609999994,,002,P011,2025_Feb_08_1042,CategoryLocalizer,2021.2.3,59.93676671119076,
74.8,75.0,5,0.0,Stimuli\Blank.png,0,0,0,126,126,126,,,,,,,,,,,,,74.84799100000055,0.04799100000055034,None,108.63063059999968,108.63063059999968,108.63063059999968,108.63063059999968,108.63063059999968,108.63063059999968,108.63063059999968,108.63063059999968,,002,P011,2025_Feb_08_1042,CategoryLocalizer,2021.2.3,59.93676671119076,
75.0,75.8,4,0.75,Stimuli\ImageFiles-Set2\Scenes\Scenes_081.png,0,0,0,127,127,127,,,,,,,,,,,,,75.01544730000023,0.015447300000232644,None,108.83078690000002,108.83078690000002,108.83078690000002,108.83078690000002,108.83078690000002,108.83078690000002,108.83078690000002,108.83078690000002,,002,P011,2025_Feb_08_1042,CategoryLocalizer,2021.2.3,59.93676671119076,
75.8,76.0,5,0.0,Stimuli\Blank.png,0,0,0,128,128,128,,,,,,,,,,,,,75.83239430000049,0.03239430000049026,None,109.6148448999993,109.6148448999993,109.6148448999993,109.6148448999993,109.6148448999993,109.6148448999993,109.6148448999993,109.6148448999993,,002,P011,2025_Feb_08_1042,CategoryLocalizer,2021.2.3,59.93676671119076,
76.0,88.0,0,0.0,Stimuli\Blank.png,0,0,0,129,129,129,,,,,,,,,,,,,76.00078870000016,0.0007887000001574052,None,109.79834499999924,109.79834499999924,109.79834499999924,109.79834499999924,109.79834499999924,109.79834499999924,109.79834499999924,109.79834499999924,,002,P011,2025_Feb_08_1042,CategoryLocalizer,2021.2.3,59.93676671119076,
88.0,88.8,3,0.75,Stimuli\ImageFiles-Set2\Faces\Face_00017.png,0,0,0,130,130,130,,,,,,,,,,,,,88.02643690000059,0.026436900000589958,None,121.8423487,121.8423487,121.8423487,121.8423487,121.8423487,121.8423487,121.8423487,121.8423487,,002,P011,2025_Feb_08_1042,CategoryLocalizer,2021.2.3,59.93676671119076,
88.8,89.0,5,0.0,Stimuli\Blank.png,0,0,0,131,131,131,,,,,,,,,,,,,88.84542520000014,0.04542520000013894,None,122.64303500000005,122.64303500000005,122.64303500000005,122.64303500000005,122.64303500000005,122.64303500000005,122.64303500000005,122.64303500000005,,002,P011,2025_Feb_08_1042,CategoryLocalizer,2021.2.3,59.93676671119076,
89.0,89.8,3,0.75,Stimuli\ImageFiles-Set2\Faces\Face_00052.png,0,0,0,132,132,132,,,,,,,,,,,,,89.02811230000043,0.02811230000042997,None,122.82653449999998,122.82653449999998,122.82653449999998,122.82653449999998,122.82653449999998,122.82653449999998,122.82653449999998,122.82653449999998,,002,P011,2025_Feb_08_1042,CategoryLocalizer,2021.2.3,59.93676671119076,
89.8,90.0,5,0.0,Stimuli\Blank.png,0,0,0,133,133,133,,,,,,,,,,,,,89.83022340000025,0.03022340000025281,None,123.62728059999972,123.62728059999972,123.62728059999972,123.62728059999972,123.62728059999972,123.62728059999972,123.62728059999972,123.62728059999972,,002,P011,2025_Feb_08_1042,CategoryLocalizer,2021.2.3,59.93676671119076,
90.0,90.8,3,0.75,Stimuli\ImageFiles-Set2\Faces\Face_00092.png,0,0,0,134,134,134,,,,,,,,,,,,,90.03038530000049,0.030385300000489224,None,123.8274094999997,123.8274094999997,123.8274094999997,123.8274094999997,123.8274094999997,123.8274094999997,123.8274094999997,123.8274094999997,,002,P011,2025_Feb_08_1042,CategoryLocalizer,2021.2.3,59.93676671119076,
90.8,91.0,5,0.0,Stimuli\Blank.png,0,0,0,135,135,135,,,,,,,,,,,,,90.83060870000008,0.030608700000087197,None,124.62818719999996,124.62818719999996,124.62818719999996,124.62818719999996,124.62818719999996,124.62818719999996,124.62818719999996,124.62818719999996,,002,P011,2025_Feb_08_1042,CategoryLocalizer,2021.2.3,59.93676671119076,
91.0,91.8,3,0.75,Stimuli\ImageFiles-Set2\Faces\Face_00080.png,0,0,0,136,136,136,,,,,,,,,,,,,91.03145800000038,0.031458000000384345,None,124.84506319999946,124.84506319999946,124.84506319999946,124.84506319999946,124.84506319999946,124.84506319999946,124.84506319999946,124.84506319999946,,002,P011,2025_Feb_08_1042,CategoryLocalizer,2021.2.3,59.93676671119076,
91.8,92.0,5,0.0,Stimuli\Blank.png,0,0,0,137,137,137,,,,,,,,,,,,,91.84736890000022,0.047368900000222425,None,125.62900300000001,125.62900300000001,125.62900300000001,125.62900300000001,125.62900300000001,125.62900300000001,125.62900300000001,125.62900300000001,,002,P011,2025_Feb_08_1042,CategoryLocalizer,2021.2.3,59.93676671119076,
92.0,92.8,3,0.75,Stimuli\ImageFiles-Set2\Faces\Face_00046.png,0,0,0,138,138,138,,,,,,,,,,,,,92.01329630000055,0.01329630000054749,None,125.81250999999975,125.81250999999975,125.81250999999975,125.81250999999975,125.81250999999975,125.81250999999975,125.81250999999975,125.81250999999975,,002,P011,2025_Feb_08_1042,CategoryLocalizer,2021.2.3,59.93676671119076,
92.8,93.0,5,0.0,Stimuli\Blank.png,0,0,0,139,139,139,,,,,,,,,,,,,92.83124769999995,0.031247699999951806,None,126.6132133000001,126.6132133000001,126.6132133000001,126.6132133000001,126.6132133000001,126.6132133000001,126.6132133000001,126.6132133000001,,002,P011,2025_Feb_08_1042,CategoryLocalizer,2021.2.3,59.93676671119076,
93.0,93.8,3,0.75,Stimuli\ImageFiles-Set2\Faces\Face_00076.png,0,0,0,140,140,140,,,,,,,,,,,,,93.01649439999983,0.0164943999998286,None,126.83007369999996,126.83007369999996,126.83007369999996,126.83007369999996,126.83007369999996,126.83007369999996,126.83007369999996,126.83007369999996,,002,P011,2025_Feb_08_1042,CategoryLocalizer,2021.2.3,59.93676671119076,
93.8,94.0,5,0.0,Stimuli\Blank.png,0,0,0,141,141,141,,,,,,,,,,,,,93.8313719000007,0.03137190000070689,None,127.61409389999972,127.61409389999972,127.61409389999972,127.61409389999972,127.61409389999972,127.61409389999972,127.61409389999972,127.61409389999972,,002,P011,2025_Feb_08_1042,CategoryLocalizer,2021.2.3,59.93676671119076,
94.0,94.8,3,0.75,Stimuli\ImageFiles-Set2\Faces\Face_00042.png,0,0,0,142,142,142,,,,,,,,,,,,,94.01543990000027,0.015439900000274065,None,127.81429639999988,127.81429639999988,127.81429639999988,127.81429639999988,127.81429639999988,127.81429639999988,127.81429639999988,127.81429639999988,,002,P011,2025_Feb_08_1042,CategoryLocalizer,2021.2.3,59.93676671119076,
94.8,95.0,5,0.0,Stimuli\Blank.png,0,0,0,143,143,143,,,,,,,,,,,,,94.81714929999998,0.0171492999999856,None,128.59831549999944,128.59831549999944,128.59831549999944,128.59831549999944,128.59831549999944,128.59831549999944,128.59831549999944,128.59831549999944,,002,P011,2025_Feb_08_1042,CategoryLocalizer,2021.2.3,59.93676671119076,
95.0,95.8,3,0.75,Stimuli\ImageFiles-Set2\Faces\Face_00056.png,0,0,0,144,144,144,,,,,,,,,,,,,94.99989259999984,-0.00010740000016085105,None,128.81515059999947,128.81515059999947,128.81515059999947,128.81515059999947,128.81515059999947,128.81515059999947,128.81515059999947,128.81515059999947,,002,P011,2025_Feb_08_1042,CategoryLocalizer,2021.2.3,59.93676671119076,
95.8,96.0,5,0.0,Stimuli\Blank.png,0,0,0,145,145,145,,,,,,,,,,,,,95.83313520000047,0.033135200000472764,None,129.61586589999933,129.61586589999933,129.61586589999933,129.61586589999933,129.61586589999933,129.61586589999933,129.61586589999933,129.61586589999933,,002,P011,2025_Feb_08_1042,CategoryLocalizer,2021.2.3,59.93676671119076,
96.0,96.8,3,0.75,Stimuli\ImageFiles-Set2\Faces\Face_00110.png,0,0,0,146,146,146,,,,,,,,,,,,,96.00041210000018,0.0004121000001759967,None,129.81604069999958,129.81604069999958,129.81604069999958,129.81604069999958,129.81604069999958,129.81604069999958,129.81604069999958,129.81604069999958,,002,P011,2025_Feb_08_1042,CategoryLocalizer,2021.2.3,59.93676671119076,
96.8,97.0,5,0.0,Stimuli\Blank.png,0,0,0,147,147,147,,,,,,,,,,,,,96.83480930000042,0.034809300000418375,None,130.61674219999986,130.61674219999986,130.61674219999986,130.61674219999986,130.61674219999986,130.61674219999986,130.61674219999986,130.61674219999986,,002,P011,2025_Feb_08_1042,CategoryLocalizer,2021.2.3,59.93676671119076,
97.0,97.8,3,0.75,Stimuli\ImageFiles-Set2\Faces\Face_00008.png,0,0,0,148,148,148,,,,,,,,,,,,,97.00222980000035,0.002229800000350224,None,130.80023829999936,130.80023829999936,130.80023829999936,130.80023829999936,130.80023829999936,130.80023829999936,130.80023829999936,130.80023829999936,,002,P011,2025_Feb_08_1042,CategoryLocalizer,2021.2.3,59.93676671119076,
97.8,98.0,5,0.0,Stimuli\Blank.png,0,0,0,149,149,149,,,,,,,,,,,,,97.8183839000003,0.018383900000301878,None,131.60102109999934,131.60102109999934,131.60102109999934,131.60102109999934,131.60102109999934,131.60102109999934,131.60102109999934,131.60102109999934,,002,P011,2025_Feb_08_1042,CategoryLocalizer,2021.2.3,59.93676671119076,
98.0,98.8,3,0.75,Stimuli\ImageFiles-Set2\Faces\Face_00062.png,0,0,0,150,150,150,,,,,,,,,,,,,98.00260700000035,0.002607000000352855,None,131.80113419999998,131.80113419999998,131.80113419999998,131.80113419999998,131.80113419999998,131.80113419999998,131.80113419999998,131.80113419999998,,002,P011,2025_Feb_08_1042,CategoryLocalizer,2021.2.3,59.93676671119076,
98.8,99.0,5,0.0,Stimuli\Blank.png,0,0,0,151,151,151,,,,,,,,,,,,,98.82103600000028,0.021036000000279387,None,132.61854889999995,132.61854889999995,132.61854889999995,132.61854889999995,132.61854889999995,132.61854889999995,132.61854889999995,132.61854889999995,,002,P011,2025_Feb_08_1042,CategoryLocalizer,2021.2.3,59.93676671119076,
99.0,99.8,3,0.75,Stimuli\ImageFiles-Set2\Faces\Face_00036.png,0,0,0,152,152,152,,,,,,,,,,,,,99.02017560000058,0.02017560000058438,None,132.8353876000001,132.8353876000001,132.8353876000001,132.8353876000001,132.8353876000001,132.8353876000001,132.8353876000001,132.8353876000001,,002,P011,2025_Feb_08_1042,CategoryLocalizer,2021.2.3,59.93676671119076,
99.8,100.0,5,0.0,Stimuli\Blank.png,0,0,0,153,153,153,,,,,,,,,,,,,99.83740080000007,0.0374008000000714,None,133.6194018999995,133.6194018999995,133.6194018999995,133.6194018999995,133.6194018999995,133.6194018999995,133.6194018999995,133.6194018999995,,002,P011,2025_Feb_08_1042,CategoryLocalizer,2021.2.3,59.93676671119076,
100.0,100.8,3,0.75,Stimuli\ImageFiles-Set2\Faces\Face_00070.png,0,0,0,154,154,154,,,,,,,,,,,,,100.00489330000073,0.00489330000073096,None,133.80292069999996,133.80292069999996,133.80292069999996,133.80292069999996,133.80292069999996,133.80292069999996,133.80292069999996,133.80292069999996,,002,P011,2025_Feb_08_1042,CategoryLocalizer,2021.2.3,59.93676671119076,
100.8,101.0,5,0.0,Stimuli\Blank.png,0,0,0,155,155,155,,,,,,,,,,,,,100.82105779999983,0.021057799999837812,None,134.60360339999988,134.60360339999988,134.60360339999988,134.60360339999988,134.60360339999988,134.60360339999988,134.60360339999988,134.60360339999988,,002,P011,2025_Feb_08_1042,CategoryLocalizer,2021.2.3,59.93676671119076,
101.0,101.8,3,0.75,Stimuli\ImageFiles-Set2\Faces\Face_00070.png,1,1,0,156,156,156,,,,,,,,,,,,,101.00549580000006,0.005495800000062445,None,134.78707510000004,134.78707510000004,134.78707510000004,134.78707510000004,134.78707510000004,134.78707510000004,134.78707510000004,134.78707510000004,,002,P011,2025_Feb_08_1042,CategoryLocalizer,2021.2.3,59.93676671119076,
101.8,102.0,5,0.0,Stimuli\Blank.png,0,0,0,157,157,157,,,,,,,,,,,,,101.80574080000042,0.005740800000424429,1,135.58781719999934,135.58781719999934,135.58781719999934,135.58781719999934,135.58781719999934,135.58781719999934,135.58781719999934,135.58781719999934,0.059471900000062305,002,P011,2025_Feb_08_1042,CategoryLocalizer,2021.2.3,59.93676671119076,
102.0,102.8,3,0.75,Stimuli\ImageFiles-Set2\Faces\Face_00013.png,0,0,0,158,158,158,,,,,,,,,,,,,102.00638570000046,0.006385700000464567,None,135.82135589999962,135.82135589999962,135.82135589999962,135.82135589999962,135.82135589999962,135.82135589999962,135.82135589999962,135.82135589999962,,002,P011,2025_Feb_08_1042,CategoryLocalizer,2021.2.3,59.93676671119076,
102.8,103.0,5,0.0,Stimuli\Blank.png,0,0,0,159,159,159,,,,,,,,,,,,,102.8405928000002,0.040592800000197826,None,136.62206739999965,136.62206739999965,136.62206739999965,136.62206739999965,136.62206739999965,136.62206739999965,136.62206739999965,136.62206739999965,,002,P011,2025_Feb_08_1042,CategoryLocalizer,2021.2.3,59.93676671119076,
103.0,103.8,3,0.75,Stimuli\ImageFiles-Set2\Faces\Face_00004.png,0,0,0,160,160,160,,,,,,,,,,,,,103.00626490000013,0.006264900000132911,None,136.82223649999924,136.82223649999924,136.82223649999924,136.82223649999924,136.82223649999924,136.82223649999924,136.82223649999924,136.82223649999924,,002,P011,2025_Feb_08_1042,CategoryLocalizer,2021.2.3,59.93676671119076,
103.8,104.0,5,0.0,Stimuli\Blank.png,0,0,0,161,161,161,,,,,,,,,,,,,103.84122220000063,0.04122220000063237,None,137.62295050000012,137.62295050000012,137.62295050000012,137.62295050000012,137.62295050000012,137.62295050000012,137.62295050000012,137.62295050000012,,002,P011,2025_Feb_08_1042,CategoryLocalizer,2021.2.3,59.93676671119076,
104.0,104.8,1,0.75,Stimuli\ImageFiles-Set2\Objects\Object_Dumpster_00001.png,0,0,0,162,162,162,,,,,,,,,,,,,104.00806629999988,0.008066299999882176,None,137.82308149999972,137.82308149999972,137.82308149999972,137.82308149999972,137.82308149999972,137.82308149999972,137.82308149999972,137.82308149999972,,002,P011,2025_Feb_08_1042,CategoryLocalizer,2021.2.3,59.93676671119076,
104.8,105.0,5,0.0,Stimuli\Blank.png,0,0,0,163,163,163,,,,,,,,,,,,,104.84183140000005,0.04183140000004926,None,138.62383039999986,138.62383039999986,138.62383039999986,138.62383039999986,138.62383039999986,138.62383039999986,138.62383039999986,138.62383039999986,,002,P011,2025_Feb_08_1042,CategoryLocalizer,2021.2.3,59.93676671119076,
105.0,105.8,1,0.75,Stimuli\ImageFiles-Set2\Objects\Object_Perfume_00001.png,0,0,0,164,164,164,,,,,,,,,,,,,105.00868870000068,0.008688700000675453,None,138.82400979999966,138.82400979999966,138.82400979999966,138.82400979999966,138.82400979999966,138.82400979999966,138.82400979999966,138.82400979999966,,002,P011,2025_Feb_08_1042,CategoryLocalizer,2021.2.3,59.93676671119076,
105.8,106.0,5,0.0,Stimuli\Blank.png,0,0,0,165,165,165,,,,,,,,,,,,,105.8427341000006,0.04273410000060096,None,139.6247143999999,139.6247143999999,139.6247143999999,139.6247143999999,139.6247143999999,139.6247143999999,139.6247143999999,139.6247143999999,,002,P011,2025_Feb_08_1042,CategoryLocalizer,2021.2.3,59.93676671119076,
106.0,106.8,1,0.75,Stimuli\ImageFiles-Set2\Objects\Object_Truck_00001.png,0,0,0,166,166,166,,,,,,,,,,,,,106.00940300000002,0.009403000000020256,None,139.8082762999993,139.8082762999993,139.8082762999993,139.8082762999993,139.8082762999993,139.8082762999993,139.8082762999993,139.8082762999993,,002,P011,2025_Feb_08_1042,CategoryLocalizer,2021.2.3,59.93676671119076,
106.8,107.0,5,0.0,Stimuli\Blank.png,0,0,0,167,167,167,,,,,,,,,,,,,106.82639890000064,0.026398900000643266,None,140.60891879999963,140.60891879999963,140.60891879999963,140.60891879999963,140.60891879999963,140.60891879999963,140.60891879999963,140.60891879999963,,002,P011,2025_Feb_08_1042,CategoryLocalizer,2021.2.3,59.93676671119076,
107.0,107.8,1,0.75,Stimuli\ImageFiles-Set2\Objects\Object_Shoe_00001.png,0,0,0,168,168,168,,,,,,,,,,,,,107.01031039999998,0.010310399999980291,None,140.8257868999999,140.8257868999999,140.8257868999999,140.8257868999999,140.8257868999999,140.8257868999999,140.8257868999999,140.8257868999999,,002,P011,2025_Feb_08_1042,CategoryLocalizer,2021.2.3,59.93676671119076,
107.8,108.0,5,0.0,Stimuli\Blank.png,0,0,0,169,169,169,,,,,,,,,,,,,107.8462786,0.04627860000000794,None,141.64319129999967,141.64319129999967,141.64319129999967,141.64319129999967,141.64319129999967,141.64319129999967,141.64319129999967,141.64319129999967,,002,P011,2025_Feb_08_1042,CategoryLocalizer,2021.2.3,59.93676671119076,
108.0,108.8,1,0.75,Stimuli\ImageFiles-Set2\Objects\Object_Noodle_00001.png,0,0,0,170,170,170,,,,,,,,,,,,,108.02795140000035,0.02795140000034735,None,141.8266705999995,141.8266705999995,141.8266705999995,141.8266705999995,141.8266705999995,141.8266705999995,141.8266705999995,141.8266705999995,,002,P011,2025_Feb_08_1042,CategoryLocalizer,2021.2.3,59.93676671119076,
108.8,109.0,5,0.0,Stimuli\Blank.png,0,0,0,171,171,171,,,,,,,,,,,,,108.83028650000051,0.030286500000514138,None,142.62739280000005,142.62739280000005,142.62739280000005,142.62739280000005,142.62739280000005,142.62739280000005,142.62739280000005,142.62739280000005,,002,P011,2025_Feb_08_1042,CategoryLocalizer,2021.2.3,59.93676671119076,
109.0,109.8,1,0.75,Stimuli\ImageFiles-Set2\Objects\Object_Bowl_00001.png,0,0,0,172,172,172,,,,,,,,,,,,,109.03042650000043,0.03042650000043068,None,142.84428389999994,142.84428389999994,142.84428389999994,142.84428389999994,142.84428389999994,142.84428389999994,142.84428389999994,142.84428389999994,,002,P011,2025_Feb_08_1042,CategoryLocalizer,2021.2.3,59.93676671119076,
109.8,110.0,5,0.0,Stimuli\Blank.png,0,0,0,173,173,173,,,,,,,,,,,,,109.84621330000027,0.046213300000275126,None,143.62826079999923,143.62826079999923,143.62826079999923,143.62826079999923,143.62826079999923,143.62826079999923,143.62826079999923,143.62826079999923,,002,P011,2025_Feb_08_1042,CategoryLocalizer,2021.2.3,59.93676671119076,
110.0,110.8,1,0.75,Stimuli\ImageFiles-Set2\Objects\Object_Bowl_00001.png,1,1,0,174,174,174,,,,,,,,,,,,,110.01259860000027,0.012598600000274018,1,143.81175839999923,143.81175839999923,143.81175839999923,143.81175839999923,143.81175839999923,143.81175839999923,143.81175839999923,143.81175839999923,0.7595483000004606,002,P011,2025_Feb_08_1042,CategoryLocalizer,2021.2.3,59.93676671119076,
110.8,111.0,5,0.0,Stimuli\Blank.png,0,0,0,175,175,175,,,,,,,,,,,,,110.82994320000034,0.029943200000346337,None,144.6125220999993,144.6125220999993,144.6125220999993,144.6125220999993,144.6125220999993,144.6125220999993,144.6125220999993,144.6125220999993,,002,P011,2025_Feb_08_1042,CategoryLocalizer,2021.2.3,59.93676671119076,
111.0,111.8,1,0.75,Stimuli\ImageFiles-Set2\Objects\Object_Brick_00001.png,0,0,0,176,176,176,,,,,,,,,,,,,111.01401090000036,0.014010900000357651,None,144.81266520000008,144.81266520000008,144.81266520000008,144.81266520000008,144.81266520000008,144.81266520000008,144.81266520000008,144.81266520000008,,002,P011,2025_Feb_08_1042,CategoryLocalizer,2021.2.3,59.93676671119076,
111.8,112.0,5,0.0,Stimuli\Blank.png,0,0,0,177,177,177,,,,,,,,,,,,,111.83074430000033,0.03074430000033601,None,145.6133493999996,145.6133493999996,145.6133493999996,145.6133493999996,145.6133493999996,145.6133493999996,145.6133493999996,145.6133493999996,,002,P011,2025_Feb_08_1042,CategoryLocalizer,2021.2.3,59.93676671119076,
112.0,112.8,1,0.75,Stimuli\ImageFiles-Set2\Objects\Object_Scissors_00001.png,0,0,0,178,178,178,,,,,,,,,,,,,112.01546700000017,0.015467000000171538,None,145.81355799999983,145.81355799999983,145.81355799999983,145.81355799999983,145.81355799999983,145.81355799999983,145.81355799999983,145.81355799999983,,002,P011,2025_Feb_08_1042,CategoryLocalizer,2021.2.3,59.93676671119076,
112.8,113.0,5,0.0,Stimuli\Blank.png,0,0,0,179,179,179,,,,,,,,,,,,,112.81630790000054,0.016307900000541053,None,146.5975652999996,146.5975652999996,146.5975652999996,146.5975652999996,146.5975652999996,146.5975652999996,146.5975652999996,146.5975652999996,,002,P011,2025_Feb_08_1042,CategoryLocalizer,2021.2.3,59.93676671119076,
113.0,113.8,1,0.75,Stimuli\ImageFiles-Set2\Objects\Object_Fork_00001.png,0,0,0,180,180,180,,,,,,,,,,,,,113.00032379999993,0.0003237999999328167,None,146.79773560000012,146.79773560000012,146.79773560000012,146.79773560000012,146.79773560000012,146.79773560000012,146.79773560000012,146.79773560000012,,002,P011,2025_Feb_08_1042,CategoryLocalizer,2021.2.3,59.93676671119076,
113.8,114.0,5,0.0,Stimuli\Blank.png,0,0,0,181,181,181,,,,,,,,,,,,,113.81643570000051,0.016435700000513975,None,147.59843789999923,147.59843789999923,147.59843789999923,147.59843789999923,147.59843789999923,147.59843789999923,147.59843789999923,147.59843789999923,,002,P011,2025_Feb_08_1042,CategoryLocalizer,2021.2.3,59.93676671119076,
114.0,114.8,1,0.75,Stimuli\ImageFiles-Set2\Objects\Object_Car_00001.png,1,1,0,182,182,182,,,,,,,,,,,,,113.99989480000022,-0.00010519999977987027,None,147.79860800000006,147.79860800000006,147.79860800000006,147.79860800000006,147.79860800000006,147.79860800000006,147.79860800000006,147.79860800000006,,002,P011,2025_Feb_08_1042,CategoryLocalizer,2021.2.3,59.93676671119076,
114.8,115.0,5,0.0,Stimuli\Blank.png,0,0,0,183,183,183,,,,,,,,,,,,,114.81667430000016,0.01667430000016168,None,148.59932019999997,148.59932019999997,148.59932019999997,148.59932019999997,148.59932019999997,148.59932019999997,148.59932019999997,148.59932019999997,,002,P011,2025_Feb_08_1042,CategoryLocalizer,2021.2.3,59.93676671119076,
115.0,115.8,1,0.75,Stimuli\ImageFiles-Set2\Objects\Object_Lock_00001.png,0,0,0,184,184,184,,,,,,,,,,,,,115.00109310000062,0.0010931000006166869,None,148.79951309999979,148.79951309999979,148.79951309999979,148.79951309999979,148.79951309999979,148.79951309999979,148.79951309999979,148.79951309999979,,002,P011,2025_Feb_08_1042,CategoryLocalizer,2021.2.3,59.93676671119076,
115.8,116.0,5,0.0,Stimuli\Blank.png,0,0,0,185,185,185,,,,,,,,,,,,,115.82037440000022,0.020374400000221726,None,149.61690539999927,149.61690539999927,149.61690539999927,149.61690539999927,149.61690539999927,149.61690539999927,149.61690539999927,149.61690539999927,,002,P011,2025_Feb_08_1042,CategoryLocalizer,2021.2.3,59.93676671119076,
116.0,116.8,1,0.75,Stimuli\ImageFiles-Set2\Objects\Object_Lock_00001.png,0,0,0,186,186,186,,,,,,,,,,,,,116.0179119000004,0.017911900000399328,1,149.80045449999943,149.80045449999943,149.80045449999943,149.80045449999943,149.80045449999943,149.80045449999943,149.80045449999943,149.80045449999943,0.45868289999998524,002,P011,2025_Feb_08_1042,CategoryLocalizer,2021.2.3,59.93676671119076,
116.8,117.0,5,0.0,Stimuli\Blank.png,0,0,0,187,187,187,,,,,,,,,,,,,116.80193229999986,0.0019322999998649948,None,150.58440789999986,150.58440789999986,150.58440789999986,150.58440789999986,150.58440789999986,150.58440789999986,150.58440789999986,150.58440789999986,,002,P011,2025_Feb_08_1042,CategoryLocalizer,2021.2.3,59.93676671119076,
117.0,117.8,1,0.75,Stimuli\ImageFiles-Set2\Objects\Object_Hat_00001.png,0,0,0,188,188,188,,,,,,,,,,,,,117.00270980000005,0.002709800000047835,None,150.78458460000002,150.78458460000002,150.78458460000002,150.78458460000002,150.78458460000002,150.78458460000002,150.78458460000002,150.78458460000002,,002,P011,2025_Feb_08_1042,CategoryLocalizer,2021.2.3,59.93676671119076,
117.8,118.0,5,0.0,Stimuli\Blank.png,0,0,0,189,189,189,,,,,,,,,,,,,117.80261750000045,0.0026175000004542426,None,151.58528729999944,151.58528729999944,151.58528729999944,151.58528729999944,151.58528729999944,151.58528729999944,151.58528729999944,151.58528729999944,,002,P011,2025_Feb_08_1042,CategoryLocalizer,2021.2.3,59.93676671119076,
118.0,118.8,1,0.75,Stimuli\ImageFiles-Set2\Objects\Object_Keyboard_00001.png,0,0,0,190,190,190,,,,,,,,,,,,,118.00307990000056,0.0030799000005572452,None,151.81884929999978,151.81884929999978,151.81884929999978,151.81884929999978,151.81884929999978,151.81884929999978,151.81884929999978,151.81884929999978,,002,P011,2025_Feb_08_1042,CategoryLocalizer,2021.2.3,59.93676671119076,
118.8,119.0,5,0.0,Stimuli\Blank.png,0,0,0,191,191,191,,,,,,,,,,,,,118.8369616,0.03696159999999793,None,152.61954829999922,152.61954829999922,152.61954829999922,152.61954829999922,152.61954829999922,152.61954829999922,152.61954829999922,152.61954829999922,,002,P011,2025_Feb_08_1042,CategoryLocalizer,2021.2.3,59.93676671119076,
119.0,119.8,1,0.75,Stimuli\ImageFiles-Set2\Objects\Object_Desk_00001.png,0,0,0,192,192,192,,,,,,,,,,,,,119.00496220000059,0.0049622000005911104,None,152.80301319999944,152.80301319999944,152.80301319999944,152.80301319999944,152.80301319999944,152.80301319999944,152.80301319999944,152.80301319999944,,002,P011,2025_Feb_08_1042,CategoryLocalizer,2021.2.3,59.93676671119076,
119.8,120.0,5,0.0,Stimuli\Blank.png,0,0,0,193,193,193,,,,,,,,,,,,,119.82164809999995,0.021648099999950432,None,153.6037526,153.6037526,153.6037526,153.6037526,153.6037526,153.6037526,153.6037526,153.6037526,,002,P011,2025_Feb_08_1042,CategoryLocalizer,2021.2.3,59.93676671119076,
120.0,120.8,4,0.75,Stimuli\ImageFiles-Set2\Scenes\Scenes_074.png,0,0,0,194,194,194,,,,,,,,,,,,,120.00562720000016,0.005627200000162702,None,153.80393259999983,153.80393259999983,153.80393259999983,153.80393259999983,153.80393259999983,153.80393259999983,153.80393259999983,153.80393259999983,,002,P011,2025_Feb_08_1042,CategoryLocalizer,2021.2.3,59.93676671119076,
120.8,121.0,5,0.0,Stimuli\Blank.png,0,0,0,195,195,195,,,,,,,,,,,,,120.8226439,0.0226439000000056,None,154.60463419999996,154.60463419999996,154.60463419999996,154.60463419999996,154.60463419999996,154.60463419999996,154.60463419999996,154.60463419999996,,002,P011,2025_Feb_08_1042,CategoryLocalizer,2021.2.3,59.93676671119076,
121.0,121.8,4,0.75,Stimuli\ImageFiles-Set2\Scenes\Scenes_087.png,0,0,0,196,196,196,,,,,,,,,,,,,121.00639880000017,0.006398800000170013,None,154.80480110000008,154.80480110000008,154.80480110000008,154.80480110000008,154.80480110000008,154.80480110000008,154.80480110000008,154.80480110000008,,002,P011,2025_Feb_08_1042,CategoryLocalizer,2021.2.3,59.93676671119076,
121.8,122.0,5,0.0,Stimuli\Blank.png,0,0,0,197,197,197,,,,,,,,,,,,,121.8255179000007,0.025517900000707527,None,155.62216979999994,155.62216979999994,155.62216979999994,155.62216979999994,155.62216979999994,155.62216979999994,155.62216979999994,155.62216979999994,,002,P011,2025_Feb_08_1042,CategoryLocalizer,2021.2.3,59.93676671119076,
122.0,122.8,4,0.75,Stimuli\ImageFiles-Set2\Scenes\Scenes_082.png,0,0,0,198,198,198,,,,,,,,,,,,,122.02299230000062,0.0229923000006238,None,155.83909700000004,155.83909700000004,155.83909700000004,155.83909700000004,155.83909700000004,155.83909700000004,155.83909700000004,155.83909700000004,,002,P011,2025_Feb_08_1042,CategoryLocalizer,2021.2.3,59.93676671119076,
122.8,123.0,5,0.0,Stimuli\Blank.png,0,0,0,199,199,199,,,,,,,,,,,,,122.84096210000007,0.04096210000007261,None,156.62309299999924,156.62309299999924,156.62309299999924,156.62309299999924,156.62309299999924,156.62309299999924,156.62309299999924,156.62309299999924,,002,P011,2025_Feb_08_1042,CategoryLocalizer,2021.2.3,59.93676671119076,
123.0,123.8,4,0.75,Stimuli\ImageFiles-Set2\Scenes\Scenes_110.png,0,0,0,200,200,200,,,,,,,,,,,,,123.00733260000015,0.007332600000154343,None,156.8065889999998,156.8065889999998,156.8065889999998,156.8065889999998,156.8065889999998,156.8065889999998,156.8065889999998,156.8065889999998,,002,P011,2025_Feb_08_1042,CategoryLocalizer,2021.2.3,59.93676671119076,
123.8,124.0,5,0.0,Stimuli\Blank.png,0,0,0,201,201,201,,,,,,,,,,,,,123.82456189999994,0.024561899999937964,None,157.60734299999967,157.60734299999967,157.60734299999967,157.60734299999967,157.60734299999967,157.60734299999967,157.60734299999967,157.60734299999967,,002,P011,2025_Feb_08_1042,CategoryLocalizer,2021.2.3,59.93676671119076,
124.0,124.8,4,0.75,Stimuli\ImageFiles-Set2\Scenes\Scenes_094.png,0,0,0,202,202,202,,,,,,,,,,,,,124.00882180000008,0.008821800000077928,None,157.80745679999927,157.80745679999927,157.80745679999927,157.80745679999927,157.80745679999927,157.80745679999927,157.80745679999927,157.80745679999927,,002,P011,2025_Feb_08_1042,CategoryLocalizer,2021.2.3,59.93676671119076,
124.8,125.0,5,0.0,Stimuli\Blank.png,0,0,0,203,203,203,,,,,,,,,,,,,124.82646759999989,0.026467599999890012,None,158.6081795,158.6081795,158.6081795,158.6081795,158.6081795,158.6081795,158.6081795,158.6081795,,002,P011,2025_Feb_08_1042,CategoryLocalizer,2021.2.3,59.93676671119076,
125.0,125.8,4,0.75,Stimuli\ImageFiles-Set2\Scenes\Scenes_094.png,1,1,0,204,204,204,,,,,,,,,,,,,125.00998400000026,0.009984000000258675,1,158.80838119999953,158.80838119999953,158.80838119999953,158.80838119999953,158.80838119999953,158.80838119999953,158.80838119999953,158.80838119999953,0.48371529999985796,002,P011,2025_Feb_08_1042,CategoryLocalizer,2021.2.3,59.93676671119076,
125.8,126.0,5,0.0,Stimuli\Blank.png,0,0,0,205,205,205,,,,,,,,,,,,,125.82719619999989,0.0271961999998922,None,159.60905989999992,159.60905989999992,159.60905989999992,159.60905989999992,159.60905989999992,159.60905989999992,159.60905989999992,159.60905989999992,,002,P011,2025_Feb_08_1042,CategoryLocalizer,2021.2.3,59.93676671119076,
126.0,126.8,4,0.75,Stimuli\ImageFiles-Set2\Scenes\Scenes_096.png,0,0,0,206,206,206,,,,,,,,,,,,,126.01057450000008,0.010574500000075204,None,159.82588119999946,159.82588119999946,159.82588119999946,159.82588119999946,159.82588119999946,159.82588119999946,159.82588119999946,159.82588119999946,,002,P011,2025_Feb_08_1042,CategoryLocalizer,2021.2.3,59.93676671119076,
126.8,127.0,5,0.0,Stimuli\Blank.png,0,0,0,207,207,207,,,,,,,,,,,,,126.84569490000013,0.04569490000012877,None,160.64332489999924,160.64332489999924,160.64332489999924,160.64332489999924,160.64332489999924,160.64332489999924,160.64332489999924,160.64332489999924,,002,P011,2025_Feb_08_1042,CategoryLocalizer,2021.2.3,59.93676671119076,
127.0,127.8,4,0.75,Stimuli\ImageFiles-Set2\Scenes\Scenes_103.png,0,0,0,208,208,208,,,,,,,,,,,,,127.02766860000065,0.027668600000652077,None,160.8268164000001,160.8268164000001,160.8268164000001,160.8268164000001,160.8268164000001,160.8268164000001,160.8268164000001,160.8268164000001,,002,P011,2025_Feb_08_1042,CategoryLocalizer,2021.2.3,59.93676671119076,
127.8,128.0,5,0.0,Stimuli\Blank.png,0,0,0,209,209,209,,,,,,,,,,,,,127.83046060000015,0.03046060000015416,None,161.6275571999995,161.6275571999995,161.6275571999995,161.6275571999995,161.6275571999995,161.6275571999995,161.6275571999995,161.6275571999995,,002,P011,2025_Feb_08_1042,CategoryLocalizer,2021.2.3,59.93676671119076,
128.0,128.8,4,0.75,Stimuli\ImageFiles-Set2\Scenes\Scenes_115.png,0,0,0,210,210,210,,,,,,,,,,,,,128.03049030000057,0.030490300000565185,None,161.84442839999974,161.84442839999974,161.84442839999974,161.84442839999974,161.84442839999974,161.84442839999974,161.84442839999974,161.84442839999974,,002,P011,2025_Feb_08_1042,CategoryLocalizer,2021.2.3,59.93676671119076,
128.8,129.0,5,0.0,Stimuli\Blank.png,0,0,0,211,211,211,,,,,,,,,,,,,128.84644449999996,0.04644449999995004,None,162.62839959999928,162.62839959999928,162.62839959999928,162.62839959999928,162.62839959999928,162.62839959999928,162.62839959999928,162.62839959999928,,002,P011,2025_Feb_08_1042,CategoryLocalizer,2021.2.3,59.93676671119076,
129.0,129.8,4,0.75,Stimuli\ImageFiles-Set2\Scenes\Scenes_093.png,0,0,0,212,212,212,,,,,,,,,,,,,129.01325880000059,0.013258800000585325,None,162.81190269999934,162.81190269999934,162.81190269999934,162.81190269999934,162.81190269999934,162.81190269999934,162.81190269999934,162.81190269999934,,002,P011,2025_Feb_08_1042,CategoryLocalizer,2021.2.3,59.93676671119076,
129.8,130.0,5,0.0,Stimuli\Blank.png,0,0,0,213,213,213,,,,,,,,,,,,,129.82983260000037,0.029832600000361253,None,163.61266119999982,163.61266119999982,163.61266119999982,163.61266119999982,163.61266119999982,163.61266119999982,163.61266119999982,163.61266119999982,,002,P011,2025_Feb_08_1042,CategoryLocalizer,2021.2.3,59.93676671119076,
130.0,130.8,4,0.75,Stimuli\ImageFiles-Set2\Scenes\Scenes_091.png,0,0,0,214,214,214,,,,,,,,,,,,,130.01405030000024,0.014050300000235438,None,163.81282069999997,163.81282069999997,163.81282069999997,163.81282069999997,163.81282069999997,163.81282069999997,163.81282069999997,163.81282069999997,,002,P011,2025_Feb_08_1042,CategoryLocalizer,2021.2.3,59.93676671119076,
130.8,131.0,5,0.0,Stimuli\Blank.png,0,0,0,215,215,215,,,,,,,,,,,,,130.83212110000022,0.032121100000210845,None,164.63019369999984,164.63019369999984,164.63019369999984,164.63019369999984,164.63019369999984,164.63019369999984,164.63019369999984,164.63019369999984,,002,P011,2025_Feb_08_1042,CategoryLocalizer,2021.2.3,59.93676671119076,
131.0,131.8,4,0.75,Stimuli\ImageFiles-Set2\Scenes\Scenes_086.png,0,0,0,216,216,216,,,,,,,,,,,,,131.03126860000066,0.0312686000006579,None,164.8303363999994,164.8303363999994,164.8303363999994,164.8303363999994,164.8303363999994,164.8303363999994,164.8303363999994,164.8303363999994,,002,P011,2025_Feb_08_1042,CategoryLocalizer,2021.2.3,59.93676671119076,
131.8,132.0,5,0.0,Stimuli\Blank.png,0,0,0,217,217,217,,,,,,,,,,,,,131.83292810000057,0.03292810000056079,None,165.61442409999927,165.61442409999927,165.61442409999927,165.61442409999927,165.61442409999927,165.61442409999927,165.61442409999927,165.61442409999927,,002,P011,2025_Feb_08_1042,CategoryLocalizer,2021.2.3,59.93676671119076,
132.0,132.8,4,0.75,Stimuli\ImageFiles-Set2\Scenes\Scenes_119.png,1,1,0,218,218,218,,,,,,,,,,,,,132.00051020000046,0.0005102000004626461,None,165.7978218999997,165.7978218999997,165.7978218999997,165.7978218999997,165.7978218999997,165.7978218999997,165.7978218999997,165.7978218999997,,002,P011,2025_Feb_08_1042,CategoryLocalizer,2021.2.3,59.93676671119076,
132.8,133.0,5,0.0,Stimuli\Blank.png,0,0,0,219,219,219,,,,,,,,,,,,,132.81645939999999,0.01645939999997381,None,166.59858189999977,166.59858189999977,166.59858189999977,166.59858189999977,166.59858189999977,166.59858189999977,166.59858189999977,166.59858189999977,,002,P011,2025_Feb_08_1042,CategoryLocalizer,2021.2.3,59.93676671119076,
133.0,133.8,4,0.75,Stimuli\ImageFiles-Set2\Scenes\Scenes_084.png,0,0,0,220,220,220,,,,,,,,,,,,,132.9999972000005,-2.7999994927085936e-06,None,166.81542369999988,166.81542369999988,166.81542369999988,166.81542369999988,166.81542369999988,166.81542369999988,166.81542369999988,166.81542369999988,,002,P011,2025_Feb_08_1042,CategoryLocalizer,2021.2.3,59.93676671119076,
133.8,134.0,5,0.0,Stimuli\Blank.png,0,0,0,221,221,221,,,,,,,,,,,,,133.83554200000071,0.035542000000702956,None,167.63287279999986,167.63287279999986,167.63287279999986,167.63287279999986,167.63287279999986,167.63287279999986,167.63287279999986,167.63287279999986,,002,P011,2025_Feb_08_1042,CategoryLocalizer,2021.2.3,59.93676671119076,
134.0,134.8,4,0.75,Stimuli\ImageFiles-Set2\Scenes\Scenes_084.png,0,0,0,222,222,222,,,,,,,,,,,,,134.01788670000042,0.017886700000417477,1,167.8163109999996,167.8163109999996,167.8163109999996,167.8163109999996,167.8163109999996,167.8163109999996,167.8163109999996,167.8163109999996,0.3248233000003893,002,P011,2025_Feb_08_1042,CategoryLocalizer,2021.2.3,59.93676671119076,
134.8,135.0,5,0.0,Stimuli\Blank.png,0,0,0,223,223,223,,,,,,,,,,,,,134.81819300000006,0.018193000000053416,None,168.60034019999966,168.60034019999966,168.60034019999966,168.60034019999966,168.60034019999966,168.60034019999966,168.60034019999966,168.60034019999966,,002,P011,2025_Feb_08_1042,CategoryLocalizer,2021.2.3,59.93676671119076,
135.0,135.8,4,0.75,Stimuli\ImageFiles-Set2\Scenes\Scenes_072.png,0,0,0,224,224,224,,,,,,,,,,,,,135.00177620000068,0.0017762000006769085,None,168.81719299999986,168.81719299999986,168.81719299999986,168.81719299999986,168.81719299999986,168.81719299999986,168.81719299999986,168.81719299999986,,002,P011,2025_Feb_08_1042,CategoryLocalizer,2021.2.3,59.93676671119076,
135.8,136.0,5,0.0,Stimuli\Blank.png,0,0,0,225,225,225,,,,,,,,,,,,,135.83579640000062,0.035796400000606354,None,169.6179173999999,169.6179173999999,169.6179173999999,169.6179173999999,169.6179173999999,169.6179173999999,169.6179173999999,169.6179173999999,,002,P011,2025_Feb_08_1042,CategoryLocalizer,2021.2.3,59.93676671119076,
136.0,136.8,2,0.75,Stimuli\ImageFiles-Set2\Bodies\Bodies_Kicking_00004.png,0,0,0,226,226,226,,,,,,,,,,,,,136.00206570000046,0.002065700000457582,None,169.80139749999944,169.80139749999944,169.80139749999944,169.80139749999944,169.80139749999944,169.80139749999944,169.80139749999944,169.80139749999944,,002,P011,2025_Feb_08_1042,CategoryLocalizer,2021.2.3,59.93676671119076,
136.8,137.0,5,0.0,Stimuli\Blank.png,0,0,0,227,227,227,,,,,,,,,,,,,136.81995490000008,0.01995490000007294,None,170.60215889999927,170.60215889999927,170.60215889999927,170.60215889999927,170.60215889999927,170.60215889999927,170.60215889999927,170.60215889999927,,002,P011,2025_Feb_08_1042,CategoryLocalizer,2021.2.3,59.93676671119076,
137.0,137.8,2,0.75,Stimuli\ImageFiles-Set2\Bodies\Bodies_Falling_00005.png,0,0,0,228,228,228,,,,,,,,,,,,,137.0035609000006,0.003560900000593392,None,170.8022962999994,170.8022962999994,170.8022962999994,170.8022962999994,170.8022962999994,170.8022962999994,170.8022962999994,170.8022962999994,,002,P011,2025_Feb_08_1042,CategoryLocalizer,2021.2.3,59.93676671119076,
137.8,138.0,5,0.0,Stimuli\Blank.png,0,0,0,229,229,229,,,,,,,,,,,,,137.8204469000002,0.020446900000195,None,171.60298989999956,171.60298989999956,171.60298989999956,171.60298989999956,171.60298989999956,171.60298989999956,171.60298989999956,171.60298989999956,,002,P011,2025_Feb_08_1042,CategoryLocalizer,2021.2.3,59.93676671119076,
138.0,138.8,2,0.75,Stimuli\ImageFiles-Set2\Bodies\Bodies_CobraPose_00007.png,0,0,0,230,230,230,,,,,,,,,,,,,138.00666360000014,0.0066636000001381035,None,171.80317419999938,171.80317419999938,171.80317419999938,171.80317419999938,171.80317419999938,171.80317419999938,171.80317419999938,171.80317419999938,,002,P011,2025_Feb_08_1042,CategoryLocalizer,2021.2.3,59.93676671119076,
138.8,139.0,5,0.0,Stimuli\Blank.png,0,0,0,231,231,231,,,,,,,,,,,,,138.8217912,0.02179119999999557,None,172.60388220000004,172.60388220000004,172.60388220000004,172.60388220000004,172.60388220000004,172.60388220000004,172.60388220000004,172.60388220000004,,002,P011,2025_Feb_08_1042,CategoryLocalizer,2021.2.3,59.93676671119076,
139.0,139.8,2,0.75,Stimuli\ImageFiles-Set2\Bodies\Bodies_SittingStretch_00003.png,0,0,0,232,232,232,,,,,,,,,,,,,139.0053482000003,0.005348200000298675,None,172.78737069999988,172.78737069999988,172.78737069999988,172.78737069999988,172.78737069999988,172.78737069999988,172.78737069999988,172.78737069999988,,002,P011,2025_Feb_08_1042,CategoryLocalizer,2021.2.3,59.93676671119076,
139.8,140.0,5,0.0,Stimuli\Blank.png,0,0,0,233,233,233,,,,,,,,,,,,,139.80629469999985,0.006294699999841669,None,173.5880972999994,173.5880972999994,173.5880972999994,173.5880972999994,173.5880972999994,173.5880972999994,173.5880972999994,173.5880972999994,,002,P011,2025_Feb_08_1042,CategoryLocalizer,2021.2.3,59.93676671119076,
140.0,140.8,2,0.75,Stimuli\ImageFiles-Set2\Bodies\Bodies_Running_00003.png,0,0,0,234,234,234,,,,,,,,,,,,,140.00618710000072,0.006187100000715873,None,173.80490509999981,173.80490509999981,173.80490509999981,173.80490509999981,173.80490509999981,173.80490509999981,173.80490509999981,173.80490509999981,,002,P011,2025_Feb_08_1042,CategoryLocalizer,2021.2.3,59.93676671119076,
140.8,141.0,5,0.0,Stimuli\Blank.png,0,0,0,235,235,235,,,,,,,,,,,,,140.82292080000025,0.022920800000235886,None,174.60566159999962,174.60566159999962,174.60566159999962,174.60566159999962,174.60566159999962,174.60566159999962,174.60566159999962,174.60566159999962,,002,P011,2025_Feb_08_1042,CategoryLocalizer,2021.2.3,59.93676671119076,
141.0,141.8,2,0.75,Stimuli\ImageFiles-Set2\Bodies\Bodies_Waving_00006.png,0,0,0,236,236,236,,,,,,,,,,,,,141.0072239000001,0.007223900000099093,1,174.8058461999999,174.8058461999999,174.8058461999999,174.8058461999999,174.8058461999999,174.8058461999999,174.8058461999999,174.8058461999999,0.5385925000000498,002,P011,2025_Feb_08_1042,CategoryLocalizer,2021.2.3,59.93676671119076,
141.8,142.0,5,0.0,Stimuli\Blank.png,0,0,0,237,237,237,,,,,,,,,,,,,141.82747370000016,0.027473700000143708,None,175.6232672999995,175.6232672999995,175.6232672999995,175.6232672999995,175.6232672999995,175.6232672999995,175.6232672999995,175.6232672999995,,002,P011,2025_Feb_08_1042,CategoryLocalizer,2021.2.3,59.93676671119076,
142.0,142.8,2,0.75,Stimuli\ImageFiles-Set2\Bodies\Bodies_Waving_00006.png,1,1,0,238,238,238,,,,,,,,,,,,,142.02531820000058,0.0253182000005836,1,175.80673169999955,175.80673169999955,175.80673169999955,175.80673169999955,175.80673169999955,175.80673169999955,175.80673169999955,175.80673169999955,0.5323953000006441,002,P011,2025_Feb_08_1042,CategoryLocalizer,2021.2.3,59.93676671119076,
142.8,143.0,5,0.0,Stimuli\Blank.png,0,0,0,239,239,239,,,,,,,,,,,,,142.81056070000068,0.010560700000667111,None,176.6074407999995,176.6074407999995,176.6074407999995,176.6074407999995,176.6074407999995,176.6074407999995,176.6074407999995,176.6074407999995,,002,P011,2025_Feb_08_1042,CategoryLocalizer,2021.2.3,59.93676671119076,
143.0,143.8,2,0.75,Stimuli\ImageFiles-Set2\Bodies\Bodies_Punching_00002.png,0,0,0,240,240,240,,,,,,,,,,,,,143.02542429999994,0.02542429999994056,None,176.8242835000001,176.8242835000001,176.8242835000001,176.8242835000001,176.8242835000001,176.8242835000001,176.8242835000001,176.8242835000001,,002,P011,2025_Feb_08_1042,CategoryLocalizer,2021.2.3,59.93676671119076,
143.8,144.0,5,0.0,Stimuli\Blank.png,0,0,0,241,241,241,,,,,,,,,,,,,143.82628660000046,0.02628660000044647,None,177.60831770000004,177.60831770000004,177.60831770000004,177.60831770000004,177.60831770000004,177.60831770000004,177.60831770000004,177.60831770000004,,002,P011,2025_Feb_08_1042,CategoryLocalizer,2021.2.3,59.93676671119076,
144.0,144.8,2,0.75,Stimuli\ImageFiles-Set2\Bodies\Bodies_SittingFloor_00002.png,0,0,0,242,242,242,,,,,,,,,,,,,144.01093160000073,0.010931600000731123,None,177.82516339999984,177.82516339999984,177.82516339999984,177.82516339999984,177.82516339999984,177.82516339999984,177.82516339999984,177.82516339999984,,002,P011,2025_Feb_08_1042,CategoryLocalizer,2021.2.3,59.93676671119076,
144.8,145.0,5,0.0,Stimuli\Blank.png,0,0,0,243,243,243,,,,,,,,,,,,,144.84558340000058,0.0455834000005666,None,178.6425663,178.6425663,178.6425663,178.6425663,178.6425663,178.6425663,178.6425663,178.6425663,,002,P011,2025_Feb_08_1042,CategoryLocalizer,2021.2.3,59.93676671119076,
145.0,145.8,2,0.75,Stimuli\ImageFiles-Set2\Bodies\Bodies_Pushing_00002.png,0,0,0,244,244,244,,,,,,,,,,,,,145.02779530000043,0.02779530000043451,None,178.80936549999933,178.80936549999933,178.80936549999933,178.80936549999933,178.80936549999933,178.80936549999933,178.80936549999933,178.80936549999933,,002,P011,2025_Feb_08_1042,CategoryLocalizer,2021.2.3,59.93676671119076,
145.8,146.0,5,0.0,Stimuli\Blank.png,0,0,0,245,245,245,,,,,,,,,,,,,145.81136640000022,0.011366400000213162,None,179.59340769999926,179.59340769999926,179.59340769999926,179.59340769999926,179.59340769999926,179.59340769999926,179.59340769999926,179.59340769999926,,002,P011,2025_Feb_08_1042,CategoryLocalizer,2021.2.3,59.93676671119076,
146.0,146.8,2,0.75,Stimuli\ImageFiles-Set2\Bodies\Bodies_Walking_00007.png,0,0,0,246,246,246,,,,,,,,,,,,,146.0114650000005,0.011465000000498549,None,179.8102626,179.8102626,179.8102626,179.8102626,179.8102626,179.8102626,179.8102626,179.8102626,,002,P011,2025_Feb_08_1042,CategoryLocalizer,2021.2.3,59.93676671119076,
146.8,147.0,5,0.0,Stimuli\Blank.png,0,0,0,247,247,247,,,,,,,,,,,,,146.82896110000001,0.028961100000003626,None,180.61098739999943,180.61098739999943,180.61098739999943,180.61098739999943,180.61098739999943,180.61098739999943,180.61098739999943,180.61098739999943,,002,P011,2025_Feb_08_1042,CategoryLocalizer,2021.2.3,59.93676671119076,
147.0,147.8,2,0.75,Stimuli\ImageFiles-Set2\Bodies\Bodies_Waving_00002.png,0,0,0,248,248,248,,,,,,,,,,,,,147.0118104000003,0.011810400000285881,None,180.81115749999935,180.81115749999935,180.81115749999935,180.81115749999935,180.81115749999935,180.81115749999935,180.81115749999935,180.81115749999935,,002,P011,2025_Feb_08_1042,CategoryLocalizer,2021.2.3,59.93676671119076,
147.8,148.0,5,0.0,Stimuli\Blank.png,0,0,0,249,249,249,,,,,,,,,,,,,147.83145289999993,0.03145289999991974,None,181.62854139999945,181.62854139999945,181.62854139999945,181.62854139999945,181.62854139999945,181.62854139999945,181.62854139999945,181.62854139999945,,002,P011,2025_Feb_08_1042,CategoryLocalizer,2021.2.3,59.93676671119076,
148.0,148.8,2,0.75,Stimuli\ImageFiles-Set2\Bodies\Bodies_DownwardDog_00002.png,0,0,0,250,250,250,,,,,,,,,,,,,148.0303426999999,0.03034269999989192,None,181.84539869999935,181.84539869999935,181.84539869999935,181.84539869999935,181.84539869999935,181.84539869999935,181.84539869999935,181.84539869999935,,002,P011,2025_Feb_08_1042,CategoryLocalizer,2021.2.3,59.93676671119076,
148.8,149.0,5,0.0,Stimuli\Blank.png,0,0,0,251,251,251,,,,,,,,,,,,,148.84666190000007,0.04666190000006054,None,182.62941319999936,182.62941319999936,182.62941319999936,182.62941319999936,182.62941319999936,182.62941319999936,182.62941319999936,182.62941319999936,,002,P011,2025_Feb_08_1042,CategoryLocalizer,2021.2.3,59.93676671119076,
149.0,149.8,2,0.75,Stimuli\ImageFiles-Set2\Bodies\Bodies_Running_00001.png,1,1,0,252,252,252,,,,,,,,,,,,,149.01346580000063,0.013465800000631134,None,182.8129259999996,182.8129259999996,182.8129259999996,182.8129259999996,182.8129259999996,182.8129259999996,182.8129259999996,182.8129259999996,,002,P011,2025_Feb_08_1042,CategoryLocalizer,2021.2.3,59.93676671119076,
149.8,150.0,5,0.0,Stimuli\Blank.png,0,0,0,253,253,253,,,,,,,,,,,,,149.83161700000073,0.03161700000072187,None,183.61362539999936,183.61362539999936,183.61362539999936,183.61362539999936,183.61362539999936,183.61362539999936,183.61362539999936,183.61362539999936,,002,P011,2025_Feb_08_1042,CategoryLocalizer,2021.2.3,59.93676671119076,
150.0,150.8,2,0.75,Stimuli\ImageFiles-Set2\Bodies\Bodies_Crawling_00004.png,0,0,0,254,254,254,,,,,,,,,,,,,150.01504300000033,0.01504300000033254,None,183.81379379999998,183.81379379999998,183.81379379999998,183.81379379999998,183.81379379999998,183.81379379999998,183.81379379999998,183.81379379999998,,002,P011,2025_Feb_08_1042,CategoryLocalizer,2021.2.3,59.93676671119076,
150.8,151.0,5,0.0,Stimuli\Blank.png,0,0,0,255,255,255,,,,,,,,,,,,,150.8156568000004,0.01565680000038583,None,184.59782779999932,184.59782779999932,184.59782779999932,184.59782779999932,184.59782779999932,184.59782779999932,184.59782779999932,184.59782779999932,,002,P011,2025_Feb_08_1042,CategoryLocalizer,2021.2.3,59.93676671119076,
151.0,151.8,2,0.75,Stimuli\ImageFiles-Set2\Bodies\Bodies_Crawling_00004.png,0,0,0,256,256,256,,,,,,,,,,,,,151.00020810000024,0.00020810000023629982,1,184.78133669999988,184.78133669999988,184.78133669999988,184.78133669999988,184.78133669999988,184.78133669999988,184.78133669999988,184.78133669999988,0.40981269999974757,002,P011,2025_Feb_08_1042,CategoryLocalizer,2021.2.3,59.93676671119076,
151.8,152.0,5,0.0,Stimuli\Blank.png,0,0,0,257,257,257,,,,,,,,,,,,,151.80029110000032,0.00029110000031096206,None,185.5820275999995,185.5820275999995,185.5820275999995,185.5820275999995,185.5820275999995,185.5820275999995,185.5820275999995,185.5820275999995,,002,P011,2025_Feb_08_1042,CategoryLocalizer,2021.2.3,59.93676671119076,
152.0,164.0,0,0.0,Stimuli\Blank.png,0,0,0,258,258,258,,,,,,,,,,,,,152.0001802000006,0.000180200000613695,None,185.78216579999935,185.78216579999935,185.78216579999935,185.78216579999935,185.78216579999935,185.78216579999935,185.78216579999935,185.78216579999935,,002,P011,2025_Feb_08_1042,CategoryLocalizer,2021.2.3,59.93676671119076,
164.0,164.8,4,0.75,Stimuli\ImageFiles-Set2\Scenes\Scenes_111.png,0,0,0,259,259,259,,,,,,,,,,,,,164.0107579000005,0.010757900000498921,None,197.80951430000005,197.80951430000005,197.80951430000005,197.80951430000005,197.80951430000005,197.80951430000005,197.80951430000005,197.80951430000005,,002,P011,2025_Feb_08_1042,CategoryLocalizer,2021.2.3,59.93676671119076,
164.8,165.0,5,0.0,Stimuli\Blank.png,0,0,0,260,260,260,,,,,,,,,,,,,164.8278774999999,0.027877499999874544,None,198.61022270000012,198.61022270000012,198.61022270000012,198.61022270000012,198.61022270000012,198.61022270000012,198.61022270000012,198.61022270000012,,002,P011,2025_Feb_08_1042,CategoryLocalizer,2021.2.3,59.93676671119076,
165.0,165.8,4,0.75,Stimuli\ImageFiles-Set2\Scenes\Scenes_098.png,0,0,0,261,261,261,,,,,,,,,,,,,165.01208330000009,0.012083300000085728,None,198.8103855999998,198.8103855999998,198.8103855999998,198.8103855999998,198.8103855999998,198.8103855999998,198.8103855999998,198.8103855999998,,002,P011,2025_Feb_08_1042,CategoryLocalizer,2021.2.3,59.93676671119076,
165.8,166.0,5,0.0,Stimuli\Blank.png,0,0,0,262,262,262,,,,,,,,,,,,,165.83089030000065,0.030890300000635307,None,199.6278403999995,199.6278403999995,199.6278403999995,199.6278403999995,199.6278403999995,199.6278403999995,199.6278403999995,199.6278403999995,,002,P011,2025_Feb_08_1042,CategoryLocalizer,2021.2.3,59.93676671119076,
166.0,166.8,4,0.75,Stimuli\ImageFiles-Set2\Scenes\Scenes_078.png,0,0,0,263,263,263,,,,,,,,,,,,,166.0310042000001,0.031004200000097626,None,199.82798099999945,199.82798099999945,199.82798099999945,199.82798099999945,199.82798099999945,199.82798099999945,199.82798099999945,199.82798099999945,,002,P011,2025_Feb_08_1042,CategoryLocalizer,2021.2.3,59.93676671119076,
166.8,167.0,5,0.0,Stimuli\Blank.png,0,0,0,264,264,264,,,,,,,,,,,,,166.8300093000007,0.030009300000699568,None,200.61199249999936,200.61199249999936,200.61199249999936,200.61199249999936,200.61199249999936,200.61199249999936,200.61199249999936,200.61199249999936,,002,P011,2025_Feb_08_1042,CategoryLocalizer,2021.2.3,59.93676671119076,
167.0,167.8,4,0.75,Stimuli\ImageFiles-Set2\Scenes\Scenes_100.png,0,0,0,265,265,265,,,,,,,,,,,,,167.01401090000036,0.014010900000357651,None,200.82884099999956,200.82884099999956,200.82884099999956,200.82884099999956,200.82884099999956,200.82884099999956,200.82884099999956,200.82884099999956,,002,P011,2025_Feb_08_1042,CategoryLocalizer,2021.2.3,59.93676671119076,
167.8,168.0,5,0.0,Stimuli\Blank.png,0,0,0,266,266,266,,,,,,,,,,,,,167.84683980000045,0.0468398000004413,None,201.62955650000004,201.62955650000004,201.62955650000004,201.62955650000004,201.62955650000004,201.62955650000004,201.62955650000004,201.62955650000004,,002,P011,2025_Feb_08_1042,CategoryLocalizer,2021.2.3,59.93676671119076,
168.0,168.8,4,0.75,Stimuli\ImageFiles-Set2\Scenes\Scenes_085.png,0,0,0,267,267,267,,,,,,,,,,,,,168.01550080000015,0.015500800000154413,None,201.81305359999988,201.81305359999988,201.81305359999988,201.81305359999988,201.81305359999988,201.81305359999988,201.81305359999988,201.81305359999988,,002,P011,2025_Feb_08_1042,CategoryLocalizer,2021.2.3,59.93676671119076,
168.8,169.0,5,0.0,Stimuli\Blank.png,0,0,0,268,268,268,,,,,,,,,,,,,168.81517070000064,0.015170700000624038,None,202.5970827000001,202.5970827000001,202.5970827000001,202.5970827000001,202.5970827000001,202.5970827000001,202.5970827000001,202.5970827000001,,002,P011,2025_Feb_08_1042,CategoryLocalizer,2021.2.3,59.93676671119076,
169.0,169.8,4,0.75,Stimuli\ImageFiles-Set2\Scenes\Scenes_092.png,0,0,0,269,269,269,,,,,,,,,,,,,169.0167650000003,0.016765000000305008,None,202.83062789999985,202.83062789999985,202.83062789999985,202.83062789999985,202.83062789999985,202.83062789999985,202.83062789999985,202.83062789999985,,002,P011,2025_Feb_08_1042,CategoryLocalizer,2021.2.3,59.93676671119076,
169.8,170.0,5,0.0,Stimuli\Blank.png,0,0,0,270,270,270,,,,,,,,,,,,,169.8329545000006,0.032954500000585085,None,203.6146390999993,203.6146390999993,203.6146390999993,203.6146390999993,203.6146390999993,203.6146390999993,203.6146390999993,203.6146390999993,,002,P011,2025_Feb_08_1042,CategoryLocalizer,2021.2.3,59.93676671119076,
170.0,170.8,4,0.75,Stimuli\ImageFiles-Set2\Scenes\Scenes_065.png,0,0,0,271,271,271,,,,,,,,,,,,,169.99942350000038,-0.0005764999996245024,None,203.81481749999966,203.81481749999966,203.81481749999966,203.81481749999966,203.81481749999966,203.81481749999966,203.81481749999966,203.81481749999966,,002,P011,2025_Feb_08_1042,CategoryLocalizer,2021.2.3,59.93676671119076,
170.8,171.0,5,0.0,Stimuli\Blank.png,0,0,0,272,272,272,,,,,,,,,,,,,170.83277940000062,0.03277940000060653,None,204.61552299999948,204.61552299999948,204.61552299999948,204.61552299999948,204.61552299999948,204.61552299999948,204.61552299999948,204.61552299999948,,002,P011,2025_Feb_08_1042,CategoryLocalizer,2021.2.3,59.93676671119076,
171.0,171.8,4,0.75,Stimuli\ImageFiles-Set2\Scenes\Scenes_099.png,0,0,0,273,273,273,,,,,,,,,,,,,171.00109860000066,0.0010986000006596441,None,204.79901679999966,204.79901679999966,204.79901679999966,204.79901679999966,204.79901679999966,204.79901679999966,204.79901679999966,204.79901679999966,,002,P011,2025_Feb_08_1042,CategoryLocalizer,2021.2.3,59.93676671119076,
171.8,172.0,5,0.0,Stimuli\Blank.png,0,0,0,274,274,274,,,,,,,,,,,,,171.81730630000038,0.01730630000037081,None,205.5997293999999,205.5997293999999,205.5997293999999,205.5997293999999,205.5997293999999,205.5997293999999,205.5997293999999,205.5997293999999,,002,P011,2025_Feb_08_1042,CategoryLocalizer,2021.2.3,59.93676671119076,
172.0,172.8,4,0.75,Stimuli\ImageFiles-Set2\Scenes\Scenes_101.png,0,0,0,275,275,275,,,,,,,,,,,,,172.0011456000002,0.00114560000019992,None,205.79993959999956,205.79993959999956,205.79993959999956,205.79993959999956,205.79993959999956,205.79993959999956,205.79993959999956,205.79993959999956,,002,P011,2025_Feb_08_1042,CategoryLocalizer,2021.2.3,59.93676671119076,
172.8,173.0,5,0.0,Stimuli\Blank.png,0,0,0,276,276,276,,,,,,,,,,,,,172.82110310000007,0.02110310000006166,None,206.61732429999938,206.61732429999938,206.61732429999938,206.61732429999938,206.61732429999938,206.61732429999938,206.61732429999938,206.61732429999938,,002,P011,2025_Feb_08_1042,CategoryLocalizer,2021.2.3,59.93676671119076,
173.0,173.8,4,0.75,Stimuli\ImageFiles-Set2\Scenes\Scenes_114.png,0,0,0,277,277,277,,,,,,,,,,,,,173.0184405,0.018440499999996973,None,206.81747790000009,206.81747790000009,206.81747790000009,206.81747790000009,206.81747790000009,206.81747790000009,206.81747790000009,206.81747790000009,,002,P011,2025_Feb_08_1042,CategoryLocalizer,2021.2.3,59.93676671119076,
173.8,174.0,5,0.0,Stimuli\Blank.png,0,0,0,278,278,278,,,,,,,,,,,,,173.8216081999999,0.021608199999889166,None,207.61819579999974,207.61819579999974,207.61819579999974,207.61819579999974,207.61819579999974,207.61819579999974,207.61819579999974,207.61819579999974,,002,P011,2025_Feb_08_1042,CategoryLocalizer,2021.2.3,59.93676671119076,
174.0,174.8,4,0.75,Stimuli\ImageFiles-Set2\Scenes\Scenes_118.png,0,0,0,279,279,279,,,,,,,,,,,,,174.0208773000004,0.020877300000393006,None,207.83506709999983,207.83506709999983,207.83506709999983,207.83506709999983,207.83506709999983,207.83506709999983,207.83506709999983,207.83506709999983,,002,P011,2025_Feb_08_1042,CategoryLocalizer,2021.2.3,59.93676671119076,
174.8,175.0,5,0.0,Stimuli\Blank.png,0,0,0,280,280,280,,,,,,,,,,,,,174.8363474000007,0.03634740000069314,None,208.61906399999953,208.61906399999953,208.61906399999953,208.61906399999953,208.61906399999953,208.61906399999953,208.61906399999953,208.61906399999953,,002,P011,2025_Feb_08_1042,CategoryLocalizer,2021.2.3,59.93676671119076,
175.0,175.8,4,0.75,Stimuli\ImageFiles-Set2\Scenes\Scenes_104.png,0,0,0,281,281,281,,,,,,,,,,,,,175.00408450000032,0.004084500000317348,None,208.81926249999924,208.81926249999924,208.81926249999924,208.81926249999924,208.81926249999924,208.81926249999924,208.81926249999924,208.81926249999924,,002,P011,2025_Feb_08_1042,CategoryLocalizer,2021.2.3,59.93676671119076,
175.8,176.0,5,0.0,Stimuli\Blank.png,0,0,0,282,282,282,,,,,,,,,,,,,175.83741680000003,0.03741680000001679,None,209.61995959999967,209.61995959999967,209.61995959999967,209.61995959999967,209.61995959999967,209.61995959999967,209.61995959999967,209.61995959999967,,002,P011,2025_Feb_08_1042,CategoryLocalizer,2021.2.3,59.93676671119076,
176.0,176.8,4,0.75,Stimuli\ImageFiles-Set2\Scenes\Scenes_090.png,0,0,0,283,283,283,,,,,,,,,,,,,176.0049114000003,0.0049114000003100955,None,209.80348139999933,209.80348139999933,209.80348139999933,209.80348139999933,209.80348139999933,209.80348139999933,209.80348139999933,209.80348139999933,,002,P011,2025_Feb_08_1042,CategoryLocalizer,2021.2.3,59.93676671119076,
176.8,177.0,5,0.0,Stimuli\Blank.png,0,0,0,284,284,284,,,,,,,,,,,,,176.82200439999997,0.022004399999957514,None,210.60415659999944,210.60415659999944,210.60415659999944,210.60415659999944,210.60415659999944,210.60415659999944,210.60415659999944,210.60415659999944,,002,P011,2025_Feb_08_1042,CategoryLocalizer,2021.2.3,59.93676671119076,
177.0,177.8,4,0.75,Stimuli\ImageFiles-Set2\Scenes\Scenes_090.png,1,1,0,285,285,285,,,,,,,,,,,,,177.00635630000033,0.0063563000003341585,1,210.80432909999945,210.80432909999945,210.80432909999945,210.80432909999945,210.80432909999945,210.80432909999945,210.80432909999945,210.80432909999945,0.44113999999990483,002,P011,2025_Feb_08_1042,CategoryLocalizer,2021.2.3,59.93676671119076,
