eventStartTime,eventEndTime,eventCond,imSize,imFile,repeatedImage,responseEvent,Events.thisRepN,Events.thisTrialN,Events.thisN,Events.thisIndex,Instructions.started,Instructions.stopped,participantReadyResponse.keys,participantReadyResponse.rt,participantReadyResponse.started,participantReadyResponse.stopped,startWaitforTrigger,triggerResponse.keys,triggerResponse.rt,triggerResponse.started,triggerResponse.stopped,globalTimer,actualStartTime,startTimingDiff,participantResponse.keys,participantResponse.started,participantResponse.stopped,image.started,image.stopped,fixationOutside.started,fixationOutside.stopped,fixationInside.started,fixationInside.stopped,participantResponse.rt,session,participant,date,expName,psychopyVersion,frameRate,
,,,,,,,,,,,10.520481999999902,None,1,0.6613087999994605,10.520481999999902,None,,,,,,,,,,,,,,,,,,,001,P011,2025_Feb_08_1015,CategoryLocalizer,2021.2.3,59.9300855623445,
,,,,,,,,,,,,,,,,,11.200165600000219,5,23.98358670000016,11.213451499999792,None,,,,,,,,,,,,,,001,P011,2025_Feb_08_1015,CategoryLocalizer,2021.2.3,59.9300855623445,
0.0,12.0,0,0.0,Stimuli\Blank.png,0,0,0,0,0,0,,,,,,,,,,,,35.20517479999944,0.06368430000020453,0.06368430000020453,None,35.28487439999935,None,35.28487439999935,None,35.28487439999935,None,35.28487439999935,None,,001,P011,2025_Feb_08_1015,CategoryLocalizer,2021.2.3,59.9300855623445,
12.0,12.8,1,0.75,Stimuli\ImageFiles-Set1\Objects\Object_Dryer_00001.png,0,0,0,1,1,1,,,,,,,,,,,,,12.010201799999777,0.010201799999776995,None,47.2454716000002,47.2454716000002,47.2454716000002,47.2454716000002,47.2454716000002,47.2454716000002,47.2454716000002,47.2454716000002,,001,P011,2025_Feb_08_1015,CategoryLocalizer,2021.2.3,59.9300855623445,
12.8,13.0,5,0.0,Stimuli\Blank.png,0,0,0,2,2,2,,,,,,,,,,,,,12.826221700000133,0.02622170000013213,None,48.04616290000013,48.04616290000013,48.04616290000013,48.04616290000013,48.04616290000013,48.04616290000013,48.04616290000013,48.04616290000013,,001,P011,2025_Feb_08_1015,CategoryLocalizer,2021.2.3,59.9300855623445,
13.0,13.8,1,0.75,Stimuli\ImageFiles-Set1\Objects\Object_ShoppingCart_00001.png,0,0,0,3,3,3,,,,,,,,,,,,,13.010179099999732,0.010179099999731989,None,48.24635539999963,48.24635539999963,48.24635539999963,48.24635539999963,48.24635539999963,48.24635539999963,48.24635539999963,48.24635539999963,,001,P011,2025_Feb_08_1015,CategoryLocalizer,2021.2.3,59.9300855623445,
13.8,14.0,5,0.0,Stimuli\Blank.png,0,0,0,4,4,4,,,,,,,,,,,,,13.829923100000087,0.029923100000086578,None,49.063757500000065,49.063757500000065,49.063757500000065,49.063757500000065,49.063757500000065,49.063757500000065,49.063757500000065,49.063757500000065,,001,P011,2025_Feb_08_1015,CategoryLocalizer,2021.2.3,59.9300855623445,
14.0,14.8,1,0.75,Stimuli\ImageFiles-Set1\Objects\Object_Toilet_00001.png,0,0,0,5,5,5,,,,,,,,,,,,,14.029168099999879,0.029168099999878905,None,49.2805999000002,49.2805999000002,49.2805999000002,49.2805999000002,49.2805999000002,49.2805999000002,49.2805999000002,49.2805999000002,,001,P011,2025_Feb_08_1015,CategoryLocalizer,2021.2.3,59.9300855623445,
14.8,15.0,5,0.0,Stimuli\Blank.png,0,0,0,6,6,6,,,,,,,,,,,,,14.844672100000025,0.04467210000002453,None,50.0646171999997,50.0646171999997,50.0646171999997,50.0646171999997,50.0646171999997,50.0646171999997,50.0646171999997,50.0646171999997,,001,P011,2025_Feb_08_1015,CategoryLocalizer,2021.2.3,59.9300855623445,
15.0,15.8,1,0.75,Stimuli\ImageFiles-Set1\Objects\Object_Pencil_00001.png,0,0,0,7,7,7,,,,,,,,,,,,,15.011459000000286,0.011459000000286323,None,50.248104299999795,50.248104299999795,50.248104299999795,50.248104299999795,50.248104299999795,50.248104299999795,50.248104299999795,50.248104299999795,,001,P011,2025_Feb_08_1015,CategoryLocalizer,2021.2.3,59.9300855623445,
15.8,16.0,5,0.0,Stimuli\Blank.png,0,0,0,8,8,8,,,,,,,,,,,,,15.82958890000009,0.02958890000008907,None,51.04882869999983,51.04882869999983,51.04882869999983,51.04882869999983,51.04882869999983,51.04882869999983,51.04882869999983,51.04882869999983,,001,P011,2025_Feb_08_1015,CategoryLocalizer,2021.2.3,59.9300855623445,
16.0,16.8,1,0.75,Stimuli\ImageFiles-Set1\Objects\Object_Whistle_00001.png,0,0,0,9,9,9,,,,,,,,,,,,,16.014822399999503,0.014822399999502522,None,51.2490115999999,51.2490115999999,51.2490115999999,51.2490115999999,51.2490115999999,51.2490115999999,51.2490115999999,51.2490115999999,,001,P011,2025_Feb_08_1015,CategoryLocalizer,2021.2.3,59.9300855623445,
16.8,17.0,5,0.0,Stimuli\Blank.png,0,0,0,10,10,10,,,,,,,,,,,,,16.831093599999804,0.03109359999980299,None,52.049721399999726,52.049721399999726,52.049721399999726,52.049721399999726,52.049721399999726,52.049721399999726,52.049721399999726,52.049721399999726,,001,P011,2025_Feb_08_1015,CategoryLocalizer,2021.2.3,59.9300855623445,
17.0,17.8,1,0.75,Stimuli\ImageFiles-Set1\Objects\Object_Dice_00001.png,0,0,0,11,11,11,,,,,,,,,,,,,17.013489899999513,0.013489899999513,None,52.24993180000001,52.24993180000001,52.24993180000001,52.24993180000001,52.24993180000001,52.24993180000001,52.24993180000001,52.24993180000001,,001,P011,2025_Feb_08_1015,CategoryLocalizer,2021.2.3,59.9300855623445,
17.8,18.0,5,0.0,Stimuli\Blank.png,0,0,0,12,12,12,,,,,,,,,,,,,17.830716599999505,0.030716599999504268,None,53.05059040000015,53.05059040000015,53.05059040000015,53.05059040000015,53.05059040000015,53.05059040000015,53.05059040000015,53.05059040000015,,001,P011,2025_Feb_08_1015,CategoryLocalizer,2021.2.3,59.9300855623445,
18.0,18.8,1,0.75,Stimuli\ImageFiles-Set1\Objects\Object_Walnut_00001.png,0,0,0,13,13,13,,,,,,,,,,,,,18.014370099999724,0.014370099999723607,None,53.26745409999967,53.26745409999967,53.26745409999967,53.26745409999967,53.26745409999967,53.26745409999967,53.26745409999967,53.26745409999967,,001,P011,2025_Feb_08_1015,CategoryLocalizer,2021.2.3,59.9300855623445,
18.8,19.0,5,0.0,Stimuli\Blank.png,0,0,0,14,14,14,,,,,,,,,,,,,18.848935999999412,0.04893599999941145,None,54.068159399999786,54.068159399999786,54.068159399999786,54.068159399999786,54.068159399999786,54.068159399999786,54.068159399999786,54.068159399999786,,001,P011,2025_Feb_08_1015,CategoryLocalizer,2021.2.3,59.9300855623445,
19.0,19.8,1,0.75,Stimuli\ImageFiles-Set1\Objects\Object_Football_00001.png,0,0,0,15,15,15,,,,,,,,,,,,,18.999940300000162,-5.9699999837903306e-05,None,54.23497330000009,54.23497330000009,54.23497330000009,54.23497330000009,54.23497330000009,54.23497330000009,54.23497330000009,54.23497330000009,,001,P011,2025_Feb_08_1015,CategoryLocalizer,2021.2.3,59.9300855623445,
19.8,20.0,5,0.0,Stimuli\Blank.png,0,0,0,16,16,16,,,,,,,,,,,,,19.816538299999593,0.016538299999592,None,55.03565489999983,55.03565489999983,55.03565489999983,55.03565489999983,55.03565489999983,55.03565489999983,55.03565489999983,55.03565489999983,,001,P011,2025_Feb_08_1015,CategoryLocalizer,2021.2.3,59.9300855623445,
20.0,20.8,1,0.75,Stimuli\ImageFiles-Set1\Objects\Object_Canoe_00001.png,0,0,0,17,17,17,,,,,,,,,,,,,20.000305800000206,0.000305800000205636,None,55.25254390000009,55.25254390000009,55.25254390000009,55.25254390000009,55.25254390000009,55.25254390000009,55.25254390000009,55.25254390000009,,001,P011,2025_Feb_08_1015,CategoryLocalizer,2021.2.3,59.9300855623445,
20.8,21.0,5,0.0,Stimuli\Blank.png,0,0,0,18,18,18,,,,,,,,,,,,,20.83385199999975,0.03385199999975086,None,56.05325089999951,56.05325089999951,56.05325089999951,56.05325089999951,56.05325089999951,56.05325089999951,56.05325089999951,56.05325089999951,,001,P011,2025_Feb_08_1015,CategoryLocalizer,2021.2.3,59.9300855623445,
21.0,21.8,1,0.75,Stimuli\ImageFiles-Set1\Objects\Object_Knife_00001.png,0,0,0,19,19,19,,,,,,,,,,,,,21.00124169999981,0.001241699999809498,None,56.23675959999946,56.23675959999946,56.23675959999946,56.23675959999946,56.23675959999946,56.23675959999946,56.23675959999946,56.23675959999946,,001,P011,2025_Feb_08_1015,CategoryLocalizer,2021.2.3,59.9300855623445,
21.8,22.0,5,0.0,Stimuli\Blank.png,0,0,0,20,20,20,,,,,,,,,,,,,21.820131200000105,0.0201312000001046,None,57.054161699999895,57.054161699999895,57.054161699999895,57.054161699999895,57.054161699999895,57.054161699999895,57.054161699999895,57.054161699999895,,001,P011,2025_Feb_08_1015,CategoryLocalizer,2021.2.3,59.9300855623445,
22.0,22.8,1,0.75,Stimuli\ImageFiles-Set1\Objects\Object_TeaBag_00001.png,0,0,0,21,21,21,,,,,,,,,,,,,22.018149999999878,0.018149999999877764,None,57.254315600000155,57.254315600000155,57.254315600000155,57.254315600000155,57.254315600000155,57.254315600000155,57.254315600000155,57.254315600000155,,001,P011,2025_Feb_08_1015,CategoryLocalizer,2021.2.3,59.9300855623445,
22.8,23.0,5,0.0,Stimuli\Blank.png,0,0,0,22,22,22,,,,,,,,,,,,,22.81896549999965,0.018965499999648472,None,58.038360399999874,58.038360399999874,58.038360399999874,58.038360399999874,58.038360399999874,58.038360399999874,58.038360399999874,58.038360399999874,,001,P011,2025_Feb_08_1015,CategoryLocalizer,2021.2.3,59.9300855623445,
23.0,23.8,1,0.75,Stimuli\ImageFiles-Set1\Objects\Object_TeaBag_00001.png,1,1,0,23,23,23,,,,,,,,,,,,,23.003952299999582,0.003952299999582465,1,58.238536299999396,58.238536299999396,58.238536299999396,58.238536299999396,58.238536299999396,58.238536299999396,58.238536299999396,58.238536299999396,0.4614541000000827,001,P011,2025_Feb_08_1015,CategoryLocalizer,2021.2.3,59.9300855623445,
23.8,24.0,5,0.0,Stimuli\Blank.png,0,0,0,24,24,24,,,,,,,,,,,,,23.81994719999966,0.01994719999965966,None,59.03922179999972,59.03922179999972,59.03922179999972,59.03922179999972,59.03922179999972,59.03922179999972,59.03922179999972,59.03922179999972,,001,P011,2025_Feb_08_1015,CategoryLocalizer,2021.2.3,59.9300855623445,
24.0,24.8,1,0.75,Stimuli\ImageFiles-Set1\Objects\Object_FileFolder_00001.png,0,0,0,25,25,25,,,,,,,,,,,,,24.003383499999472,0.0033834999994724058,None,59.23939900000005,59.23939900000005,59.23939900000005,59.23939900000005,59.23939900000005,59.23939900000005,59.23939900000005,59.23939900000005,,001,P011,2025_Feb_08_1015,CategoryLocalizer,2021.2.3,59.9300855623445,
24.8,25.0,5,0.0,Stimuli\Blank.png,0,0,0,26,26,26,,,,,,,,,,,,,24.820400300000074,0.0204003000000732,None,60.0400995,60.0400995,60.0400995,60.0400995,60.0400995,60.0400995,60.0400995,60.0400995,,001,P011,2025_Feb_08_1015,CategoryLocalizer,2021.2.3,59.9300855623445,
25.0,25.8,1,0.75,Stimuli\ImageFiles-Set1\Objects\Object_Baseball_00001.png,0,0,0,27,27,27,,,,,,,,,,,,,25.004766999999447,0.004766999999446853,None,60.256962999999814,60.256962999999814,60.256962999999814,60.256962999999814,60.256962999999814,60.256962999999814,60.256962999999814,60.256962999999814,,001,P011,2025_Feb_08_1015,CategoryLocalizer,2021.2.3,59.9300855623445,
25.8,26.0,5,0.0,Stimuli\Blank.png,0,0,0,28,28,28,,,,,,,,,,,,,25.83867360000022,0.038673600000219466,None,61.05769169999985,61.05769169999985,61.05769169999985,61.05769169999985,61.05769169999985,61.05769169999985,61.05769169999985,61.05769169999985,,001,P011,2025_Feb_08_1015,CategoryLocalizer,2021.2.3,59.9300855623445,
26.0,26.8,1,0.75,Stimuli\ImageFiles-Set1\Objects\Object_PepperShaker_00001.png,0,0,0,29,29,29,,,,,,,,,,,,,26.004695800000263,0.004695800000263262,None,61.24113599999964,61.24113599999964,61.24113599999964,61.24113599999964,61.24113599999964,61.24113599999964,61.24113599999964,61.24113599999964,,001,P011,2025_Feb_08_1015,CategoryLocalizer,2021.2.3,59.9300855623445,
26.8,27.0,5,0.0,Stimuli\Blank.png,0,0,0,30,30,30,,,,,,,,,,,,,26.824388799999724,0.02438879999972343,None,62.05855809999957,62.05855809999957,62.05855809999957,62.05855809999957,62.05855809999957,62.05855809999957,62.05855809999957,62.05855809999957,,001,P011,2025_Feb_08_1015,CategoryLocalizer,2021.2.3,59.9300855623445,
27.0,27.8,1,0.75,Stimuli\ImageFiles-Set1\Objects\Object_Wagon_00001.png,0,0,0,31,31,31,,,,,,,,,,,,,27.02356129999953,0.023561299999528273,None,62.27541259999998,62.27541259999998,62.27541259999998,62.27541259999998,62.27541259999998,62.27541259999998,62.27541259999998,62.27541259999998,,001,P011,2025_Feb_08_1015,CategoryLocalizer,2021.2.3,59.9300855623445,
27.8,28.0,5,0.0,Stimuli\Blank.png,0,0,0,32,32,32,,,,,,,,,,,,,27.84015290000025,0.04015290000024763,None,63.05944339999951,63.05944339999951,63.05944339999951,63.05944339999951,63.05944339999951,63.05944339999951,63.05944339999951,63.05944339999951,,001,P011,2025_Feb_08_1015,CategoryLocalizer,2021.2.3,59.9300855623445,
28.0,28.8,2,0.75,Stimuli\ImageFiles-Set1\Bodies\Bodies_SittingFloor_00003.png,0,0,0,33,33,33,,,,,,,,,,,,,28.00789199999963,0.007891999999628752,None,63.24294370000007,63.24294370000007,63.24294370000007,63.24294370000007,63.24294370000007,63.24294370000007,63.24294370000007,63.24294370000007,,001,P011,2025_Feb_08_1015,CategoryLocalizer,2021.2.3,59.9300855623445,
28.8,29.0,5,0.0,Stimuli\Blank.png,0,0,0,34,34,34,,,,,,,,,,,,,28.824575300000106,0.024575300000105216,None,64.04364910000004,64.04364910000004,64.04364910000004,64.04364910000004,64.04364910000004,64.04364910000004,64.04364910000004,64.04364910000004,,001,P011,2025_Feb_08_1015,CategoryLocalizer,2021.2.3,59.9300855623445,
29.0,29.8,2,0.75,Stimuli\ImageFiles-Set1\Bodies\Bodies_SittingFloor_00003.png,1,1,0,35,35,35,,,,,,,,,,,,,29.00924329999998,0.009243299999980081,1,64.24384939999982,64.24384939999982,64.24384939999982,64.24384939999982,64.24384939999982,64.24384939999982,64.24384939999982,64.24384939999982,0.3553089999995791,001,P011,2025_Feb_08_1015,CategoryLocalizer,2021.2.3,59.9300855623445,
29.8,30.0,5,0.0,Stimuli\Blank.png,0,0,0,36,36,36,,,,,,,,,,,,,29.825702600000113,0.025702600000112596,None,65.04453999999987,65.04453999999987,65.04453999999987,65.04453999999987,65.04453999999987,65.04453999999987,65.04453999999987,65.04453999999987,,001,P011,2025_Feb_08_1015,CategoryLocalizer,2021.2.3,59.9300855623445,
30.0,30.8,2,0.75,Stimuli\ImageFiles-Set1\Bodies\Bodies_Lunging_00004.png,0,0,0,37,37,37,,,,,,,,,,,,,30.008204300000216,0.00820430000021588,None,65.22802539999975,65.22802539999975,65.22802539999975,65.22802539999975,65.22802539999975,65.22802539999975,65.22802539999975,65.22802539999975,,001,P011,2025_Feb_08_1015,CategoryLocalizer,2021.2.3,59.9300855623445,
30.8,31.0,5,0.0,Stimuli\Blank.png,0,0,0,38,38,38,,,,,,,,,,,,,30.81007359999967,0.010073599999667948,None,66.02873850000014,66.02873850000014,66.02873850000014,66.02873850000014,66.02873850000014,66.02873850000014,66.02873850000014,66.02873850000014,,001,P011,2025_Feb_08_1015,CategoryLocalizer,2021.2.3,59.9300855623445,
31.0,31.8,2,0.75,Stimuli\ImageFiles-Set1\Bodies\Bodies_SittingStretch_00002.png,0,0,0,39,39,39,,,,,,,,,,,,,31.009714499999973,0.009714499999972759,None,66.24561649999941,66.24561649999941,66.24561649999941,66.24561649999941,66.24561649999941,66.24561649999941,66.24561649999941,66.24561649999941,,001,P011,2025_Feb_08_1015,CategoryLocalizer,2021.2.3,59.9300855623445,
31.8,32.0,5,0.0,Stimuli\Blank.png,0,0,0,40,40,40,,,,,,,,,,,,,31.82883380000021,0.02883380000021063,None,67.06300300000021,67.06300300000021,67.06300300000021,67.06300300000021,67.06300300000021,67.06300300000021,67.06300300000021,67.06300300000021,,001,P011,2025_Feb_08_1015,CategoryLocalizer,2021.2.3,59.9300855623445,
32.0,32.8,2,0.75,Stimuli\ImageFiles-Set1\Bodies\Bodies_Standing_00001.png,0,0,0,41,41,41,,,,,,,,,,,,,32.02773909999996,0.02773909999996249,None,67.26315209999939,67.26315209999939,67.26315209999939,67.26315209999939,67.26315209999939,67.26315209999939,67.26315209999939,67.26315209999939,,001,P011,2025_Feb_08_1015,CategoryLocalizer,2021.2.3,59.9300855623445,
32.8,33.0,5,0.0,Stimuli\Blank.png,0,0,0,42,42,42,,,,,,,,,,,,,32.82998099999986,0.029980999999864366,None,68.06384079999953,68.06384079999953,68.06384079999953,68.06384079999953,68.06384079999953,68.06384079999953,68.06384079999953,68.06384079999953,,001,P011,2025_Feb_08_1015,CategoryLocalizer,2021.2.3,59.9300855623445,
33.0,33.8,2,0.75,Stimuli\ImageFiles-Set1\Bodies\Bodies_Hanging_00006.png,0,0,0,43,43,43,,,,,,,,,,,,,33.02810539999973,0.028105399999731162,None,68.26404559999992,68.26404559999992,68.26404559999992,68.26404559999992,68.26404559999992,68.26404559999992,68.26404559999992,68.26404559999992,,001,P011,2025_Feb_08_1015,CategoryLocalizer,2021.2.3,59.9300855623445,
33.8,34.0,5,0.0,Stimuli\Blank.png,0,0,0,44,44,44,,,,,,,,,,,,,33.828728800000135,0.02872880000013822,None,69.04808249999951,69.04808249999951,69.04808249999951,69.04808249999951,69.04808249999951,69.04808249999951,69.04808249999951,69.04808249999951,,001,P011,2025_Feb_08_1015,CategoryLocalizer,2021.2.3,59.9300855623445,
34.0,34.8,2,0.75,Stimuli\ImageFiles-Set1\Bodies\Bodies_Crawling_00001.png,0,0,0,45,45,45,,,,,,,,,,,,,34.01225780000004,0.012257800000043062,None,69.26495639999939,69.26495639999939,69.26495639999939,69.26495639999939,69.26495639999939,69.26495639999939,69.26495639999939,69.26495639999939,,001,P011,2025_Feb_08_1015,CategoryLocalizer,2021.2.3,59.9300855623445,
34.8,35.0,5,0.0,Stimuli\Blank.png,0,0,0,46,46,46,,,,,,,,,,,,,34.84583459999976,0.04583459999976469,None,70.06564299999991,70.06564299999991,70.06564299999991,70.06564299999991,70.06564299999991,70.06564299999991,70.06564299999991,70.06564299999991,,001,P011,2025_Feb_08_1015,CategoryLocalizer,2021.2.3,59.9300855623445,
35.0,35.8,2,0.75,Stimuli\ImageFiles-Set1\Bodies\Bodies_Kicking_00007.png,0,0,0,47,47,47,,,,,,,,,,,,,35.01546259999941,0.015462599999409576,None,70.24930630000017,70.24930630000017,70.24930630000017,70.24930630000017,70.24930630000017,70.24930630000017,70.24930630000017,70.24930630000017,,001,P011,2025_Feb_08_1015,CategoryLocalizer,2021.2.3,59.9300855623445,
35.8,36.0,5,0.0,Stimuli\Blank.png,0,0,0,48,48,48,,,,,,,,,,,,,35.81323369999973,0.013233699999730675,None,71.03321199999937,71.03321199999937,71.03321199999937,71.03321199999937,71.03321199999937,71.03321199999937,71.03321199999937,71.03321199999937,,001,P011,2025_Feb_08_1015,CategoryLocalizer,2021.2.3,59.9300855623445,
36.0,36.8,2,0.75,Stimuli\ImageFiles-Set1\Bodies\Bodies_Waving_00001.png,0,0,0,49,49,49,,,,,,,,,,,,,36.01360839999961,0.01360839999961172,None,71.25006140000005,71.25006140000005,71.25006140000005,71.25006140000005,71.25006140000005,71.25006140000005,71.25006140000005,71.25006140000005,,001,P011,2025_Feb_08_1015,CategoryLocalizer,2021.2.3,59.9300855623445,
36.8,37.0,5,0.0,Stimuli\Blank.png,0,0,0,50,50,50,,,,,,,,,,,,,36.83175089999986,0.03175089999986369,None,72.05070160000014,72.05070160000014,72.05070160000014,72.05070160000014,72.05070160000014,72.05070160000014,72.05070160000014,72.05070160000014,,001,P011,2025_Feb_08_1015,CategoryLocalizer,2021.2.3,59.9300855623445,
37.0,37.8,2,0.75,Stimuli\ImageFiles-Set1\Bodies\Bodies_Kneeling_00007.png,0,0,0,51,51,51,,,,,,,,,,,,,37.01489169999968,0.014891699999679986,None,72.25089729999945,72.25089729999945,72.25089729999945,72.25089729999945,72.25089729999945,72.25089729999945,72.25089729999945,72.25089729999945,,001,P011,2025_Feb_08_1015,CategoryLocalizer,2021.2.3,59.9300855623445,
37.8,38.0,5,0.0,Stimuli\Blank.png,0,0,0,52,52,52,,,,,,,,,,,,,37.831618700000035,0.0316187000000383,None,73.05161210000006,73.05161210000006,73.05161210000006,73.05161210000006,73.05161210000006,73.05161210000006,73.05161210000006,73.05161210000006,,001,P011,2025_Feb_08_1015,CategoryLocalizer,2021.2.3,59.9300855623445,
38.0,38.8,2,0.75,Stimuli\ImageFiles-Set1\Bodies\Bodies_Lunging_00003.png,0,0,0,53,53,53,,,,,,,,,,,,,38.01639869999963,0.016398699999626842,None,73.25183839999954,73.25183839999954,73.25183839999954,73.25183839999954,73.25183839999954,73.25183839999954,73.25183839999954,73.25183839999954,,001,P011,2025_Feb_08_1015,CategoryLocalizer,2021.2.3,59.9300855623445,
38.8,39.0,5,0.0,Stimuli\Blank.png,0,0,0,54,54,54,,,,,,,,,,,,,38.816134599999714,0.01613459999971667,None,74.03582629999983,74.03582629999983,74.03582629999983,74.03582629999983,74.03582629999983,74.03582629999983,74.03582629999983,74.03582629999983,,001,P011,2025_Feb_08_1015,CategoryLocalizer,2021.2.3,59.9300855623445,
39.0,39.8,2,0.75,Stimuli\ImageFiles-Set1\Bodies\Bodies_CobraPose_00001.png,0,0,0,55,55,55,,,,,,,,,,,,,38.99994770000012,-5.229999987932388e-05,None,74.21931169999971,74.21931169999971,74.21931169999971,74.21931169999971,74.21931169999971,74.21931169999971,74.21931169999971,74.21931169999971,,001,P011,2025_Feb_08_1015,CategoryLocalizer,2021.2.3,59.9300855623445,
39.8,40.0,5,0.0,Stimuli\Blank.png,0,0,0,56,56,56,,,,,,,,,,,,,39.800176900000224,0.00017690000022696495,None,75.02001819999987,75.02001819999987,75.02001819999987,75.02001819999987,75.02001819999987,75.02001819999987,75.02001819999987,75.02001819999987,,001,P011,2025_Feb_08_1015,CategoryLocalizer,2021.2.3,59.9300855623445,
40.0,40.8,2,0.75,Stimuli\ImageFiles-Set1\Bodies\Bodies_Kneeling_00005.png,1,1,0,57,57,57,,,,,,,,,,,,,40.00059640000018,0.0005964000001768,None,75.23687100000006,75.23687100000006,75.23687100000006,75.23687100000006,75.23687100000006,75.23687100000006,75.23687100000006,75.23687100000006,,001,P011,2025_Feb_08_1015,CategoryLocalizer,2021.2.3,59.9300855623445,
40.8,41.0,5,0.0,Stimuli\Blank.png,0,0,0,58,58,58,,,,,,,,,,,,,40.81998939999994,0.019989399999943203,None,76.05423799999971,76.05423799999971,76.05423799999971,76.05423799999971,76.05423799999971,76.05423799999971,76.05423799999971,76.05423799999971,,001,P011,2025_Feb_08_1015,CategoryLocalizer,2021.2.3,59.9300855623445,
41.0,41.8,2,0.75,Stimuli\ImageFiles-Set1\Bodies\Bodies_DownwardDog_00006.png,0,0,0,59,59,59,,,,,,,,,,,,,41.01862979999987,0.018629799999871466,None,76.27116250000017,76.27116250000017,76.27116250000017,76.27116250000017,76.27116250000017,76.27116250000017,76.27116250000017,76.27116250000017,,001,P011,2025_Feb_08_1015,CategoryLocalizer,2021.2.3,59.9300855623445,
41.8,42.0,5,0.0,Stimuli\Blank.png,0,0,0,60,60,60,,,,,,,,,,,,,41.83602229999997,0.03602229999997064,None,77.05515749999995,77.05515749999995,77.05515749999995,77.05515749999995,77.05515749999995,77.05515749999995,77.05515749999995,77.05515749999995,,001,P011,2025_Feb_08_1015,CategoryLocalizer,2021.2.3,59.9300855623445,
42.0,42.8,2,0.75,Stimuli\ImageFiles-Set1\Bodies\Bodies_DownwardDog_00006.png,0,0,0,61,61,61,,,,,,,,,,,,,42.00427669999954,0.004276699999536504,1,77.23869730000024,77.23869730000024,77.23869730000024,77.23869730000024,77.23869730000024,77.23869730000024,77.23869730000024,77.23869730000024,0.5793274000006932,001,P011,2025_Feb_08_1015,CategoryLocalizer,2021.2.3,59.9300855623445,
42.8,43.0,5,0.0,Stimuli\Blank.png,0,0,0,62,62,62,,,,,,,,,,,,,42.8195783000001,0.01957830000010574,None,78.03935349999938,78.03935349999938,78.03935349999938,78.03935349999938,78.03935349999938,78.03935349999938,78.03935349999938,78.03935349999938,,001,P011,2025_Feb_08_1015,CategoryLocalizer,2021.2.3,59.9300855623445,
43.0,43.8,2,0.75,Stimuli\ImageFiles-Set1\Bodies\Bodies_Kneeling_00003.png,0,0,0,63,63,63,,,,,,,,,,,,,43.00357239999994,0.00357239999993908,None,78.23956399999952,78.23956399999952,78.23956399999952,78.23956399999952,78.23956399999952,78.23956399999952,78.23956399999952,78.23956399999952,,001,P011,2025_Feb_08_1015,CategoryLocalizer,2021.2.3,59.9300855623445,
43.8,44.0,5,0.0,Stimuli\Blank.png,0,0,0,64,64,64,,,,,,,,,,,,,43.820313899999746,0.020313899999749196,None,79.04024070000014,79.04024070000014,79.04024070000014,79.04024070000014,79.04024070000014,79.04024070000014,79.04024070000014,79.04024070000014,,001,P011,2025_Feb_08_1015,CategoryLocalizer,2021.2.3,59.9300855623445,
44.0,44.8,3,0.75,Stimuli\ImageFiles-Set1\Faces\Face_00097.png,0,0,0,65,65,65,,,,,,,,,,,,,44.004164500000115,0.004164500000115368,None,79.24041289999968,79.24041289999968,79.24041289999968,79.24041289999968,79.24041289999968,79.24041289999968,79.24041289999968,79.24041289999968,,001,P011,2025_Feb_08_1015,CategoryLocalizer,2021.2.3,59.9300855623445,
44.8,45.0,5,0.0,Stimuli\Blank.png,0,0,0,66,66,66,,,,,,,,,,,,,44.82118929999979,0.021189299999790023,None,80.04112850000001,80.04112850000001,80.04112850000001,80.04112850000001,80.04112850000001,80.04112850000001,80.04112850000001,80.04112850000001,,001,P011,2025_Feb_08_1015,CategoryLocalizer,2021.2.3,59.9300855623445,
45.0,45.8,3,0.75,Stimuli\ImageFiles-Set1\Faces\Face_00057.png,0,0,0,67,67,67,,,,,,,,,,,,,45.004801699999916,0.004801699999916309,1,80.24133100000017,80.24133100000017,80.24133100000017,80.24133100000017,80.24133100000017,80.24133100000017,80.24133100000017,80.24133100000017,0.5295527999996921,001,P011,2025_Feb_08_1015,CategoryLocalizer,2021.2.3,59.9300855623445,
45.8,46.0,5,0.0,Stimuli\Blank.png,0,0,0,68,68,68,,,,,,,,,,,,,45.82374679999975,0.023746799999756263,None,81.04201730000023,81.04201730000023,81.04201730000023,81.04201730000023,81.04201730000023,81.04201730000023,81.04201730000023,81.04201730000023,,001,P011,2025_Feb_08_1015,CategoryLocalizer,2021.2.3,59.9300855623445,
46.0,46.8,3,0.75,Stimuli\ImageFiles-Set1\Faces\Face_00099.png,0,0,0,69,69,69,,,,,,,,,,,,,46.006569899999704,0.006569899999703921,None,81.25888769999983,81.25888769999983,81.25888769999983,81.25888769999983,81.25888769999983,81.25888769999983,81.25888769999983,81.25888769999983,,001,P011,2025_Feb_08_1015,CategoryLocalizer,2021.2.3,59.9300855623445,
46.8,47.0,5,0.0,Stimuli\Blank.png,0,0,0,70,70,70,,,,,,,,,,,,,46.83966069999951,0.039660699999515714,None,82.05959040000016,82.05959040000016,82.05959040000016,82.05959040000016,82.05959040000016,82.05959040000016,82.05959040000016,82.05959040000016,,001,P011,2025_Feb_08_1015,CategoryLocalizer,2021.2.3,59.9300855623445,
47.0,47.8,3,0.75,Stimuli\ImageFiles-Set1\Faces\Face_00053.png,0,0,0,71,71,71,,,,,,,,,,,,,47.0065096999997,0.00650969999969675,None,82.22638910000023,82.22638910000023,82.22638910000023,82.22638910000023,82.22638910000023,82.22638910000023,82.22638910000023,82.22638910000023,,001,P011,2025_Feb_08_1015,CategoryLocalizer,2021.2.3,59.9300855623445,
47.8,48.0,5,0.0,Stimuli\Blank.png,0,0,0,72,72,72,,,,,,,,,,,,,47.80906520000008,0.009065200000080154,None,83.04379059999974,83.04379059999974,83.04379059999974,83.04379059999974,83.04379059999974,83.04379059999974,83.04379059999974,83.04379059999974,,001,P011,2025_Feb_08_1015,CategoryLocalizer,2021.2.3,59.9300855623445,
48.0,48.8,3,0.75,Stimuli\ImageFiles-Set1\Faces\Face_00095.png,0,0,0,73,73,73,,,,,,,,,,,,,48.02423529999942,0.024235299999418203,1,83.26063799999974,83.26063799999974,83.26063799999974,83.26063799999974,83.26063799999974,83.26063799999974,83.26063799999974,83.26063799999974,0.3055415999997422,001,P011,2025_Feb_08_1015,CategoryLocalizer,2021.2.3,59.9300855623445,
48.8,49.0,5,0.0,Stimuli\Blank.png,0,0,0,74,74,74,,,,,,,,,,,,,48.824894700000186,0.02489470000018912,None,84.04466499999944,84.04466499999944,84.04466499999944,84.04466499999944,84.04466499999944,84.04466499999944,84.04466499999944,84.04466499999944,,001,P011,2025_Feb_08_1015,CategoryLocalizer,2021.2.3,59.9300855623445,
49.0,49.8,3,0.75,Stimuli\ImageFiles-Set1\Faces\Face_00031.png,0,0,0,75,75,75,,,,,,,,,,,,,49.00860039999952,0.008600399999522779,None,84.24484690000008,84.24484690000008,84.24484690000008,84.24484690000008,84.24484690000008,84.24484690000008,84.24484690000008,84.24484690000008,,001,P011,2025_Feb_08_1015,CategoryLocalizer,2021.2.3,59.9300855623445,
49.8,50.0,5,0.0,Stimuli\Blank.png,0,0,0,76,76,76,,,,,,,,,,,,,49.82587770000009,0.025877700000094706,None,85.04556839999987,85.04556839999987,85.04556839999987,85.04556839999987,85.04556839999987,85.04556839999987,85.04556839999987,85.04556839999987,,001,P011,2025_Feb_08_1015,CategoryLocalizer,2021.2.3,59.9300855623445,
50.0,50.8,3,0.75,Stimuli\ImageFiles-Set1\Faces\Face_00037.png,0,0,0,77,77,77,,,,,,,,,,,,,50.009740299999976,0.009740299999975832,None,85.24573330000021,85.24573330000021,85.24573330000021,85.24573330000021,85.24573330000021,85.24573330000021,85.24573330000021,85.24573330000021,,001,P011,2025_Feb_08_1015,CategoryLocalizer,2021.2.3,59.9300855623445,
50.8,51.0,5,0.0,Stimuli\Blank.png,0,0,0,78,78,78,,,,,,,,,,,,,50.82743560000017,0.02743560000017453,None,86.04644860000008,86.04644860000008,86.04644860000008,86.04644860000008,86.04644860000008,86.04644860000008,86.04644860000008,86.04644860000008,,001,P011,2025_Feb_08_1015,CategoryLocalizer,2021.2.3,59.9300855623445,
51.0,51.8,3,0.75,Stimuli\ImageFiles-Set1\Faces\Face_00003.png,0,0,0,79,79,79,,,,,,,,,,,,,51.01036909999948,0.010369099999479658,None,86.26331479999953,86.26331479999953,86.26331479999953,86.26331479999953,86.26331479999953,86.26331479999953,86.26331479999953,86.26331479999953,,001,P011,2025_Feb_08_1015,CategoryLocalizer,2021.2.3,59.9300855623445,
51.8,52.0,5,0.0,Stimuli\Blank.png,0,0,0,80,80,80,,,,,,,,,,,,,51.84472679999999,0.044726799999992295,None,87.06401879999976,87.06401879999976,87.06401879999976,87.06401879999976,87.06401879999976,87.06401879999976,87.06401879999976,87.06401879999976,,001,P011,2025_Feb_08_1015,CategoryLocalizer,2021.2.3,59.9300855623445,
52.0,52.8,3,0.75,Stimuli\ImageFiles-Set1\Faces\Face_00035.png,0,0,0,81,81,81,,,,,,,,,,,,,52.011669299999994,0.01166929999999411,None,87.2475231999997,87.2475231999997,87.2475231999997,87.2475231999997,87.2475231999997,87.2475231999997,87.2475231999997,87.2475231999997,,001,P011,2025_Feb_08_1015,CategoryLocalizer,2021.2.3,59.9300855623445,
52.8,53.0,5,0.0,Stimuli\Blank.png,0,0,0,82,82,82,,,,,,,,,,,,,52.82892699999957,0.028926999999569603,None,88.0482519999996,88.0482519999996,88.0482519999996,88.0482519999996,88.0482519999996,88.0482519999996,88.0482519999996,88.0482519999996,,001,P011,2025_Feb_08_1015,CategoryLocalizer,2021.2.3,59.9300855623445,
53.0,53.8,3,0.75,Stimuli\ImageFiles-Set1\Faces\Face_00063.png,0,0,0,83,83,83,,,,,,,,,,,,,53.014209899999514,0.014209899999514164,None,88.26522409999961,88.26522409999961,88.26522409999961,88.26522409999961,88.26522409999961,88.26522409999961,88.26522409999961,88.26522409999961,,001,P011,2025_Feb_08_1015,CategoryLocalizer,2021.2.3,59.9300855623445,
53.8,54.0,5,0.0,Stimuli\Blank.png,0,0,0,84,84,84,,,,,,,,,,,,,53.84654859999955,0.04654859999955363,None,89.06579899999997,89.06579899999997,89.06579899999997,89.06579899999997,89.06579899999997,89.06579899999997,89.06579899999997,89.06579899999997,,001,P011,2025_Feb_08_1015,CategoryLocalizer,2021.2.3,59.9300855623445,
54.0,54.8,3,0.75,Stimuli\ImageFiles-Set1\Faces\Face_00105.png,0,0,0,85,85,85,,,,,,,,,,,,,54.01438770000004,0.014387700000042969,None,89.24931399999969,89.24931399999969,89.24931399999969,89.24931399999969,89.24931399999969,89.24931399999969,89.24931399999969,89.24931399999969,,001,P011,2025_Feb_08_1015,CategoryLocalizer,2021.2.3,59.9300855623445,
54.8,55.0,5,0.0,Stimuli\Blank.png,0,0,0,86,86,86,,,,,,,,,,,,,54.83021579999968,0.030215799999680826,None,90.05000649999965,90.05000649999965,90.05000649999965,90.05000649999965,90.05000649999965,90.05000649999965,90.05000649999965,90.05000649999965,,001,P011,2025_Feb_08_1015,CategoryLocalizer,2021.2.3,59.9300855623445,
55.0,55.8,3,0.75,Stimuli\ImageFiles-Set1\Faces\Face_00105.png,1,1,0,87,87,87,,,,,,,,,,,,,55.01453489999949,0.014534899999489426,1,90.2501886,90.2501886,90.2501886,90.2501886,90.2501886,90.2501886,90.2501886,90.2501886,0.414716899999803,001,P011,2025_Feb_08_1015,CategoryLocalizer,2021.2.3,59.9300855623445,
55.8,56.0,5,0.0,Stimuli\Blank.png,0,0,0,88,88,88,,,,,,,,,,,,,55.8310977000001,0.031097700000103146,None,91.0508762999998,91.0508762999998,91.0508762999998,91.0508762999998,91.0508762999998,91.0508762999998,91.0508762999998,91.0508762999998,,001,P011,2025_Feb_08_1015,CategoryLocalizer,2021.2.3,59.9300855623445,
56.0,56.8,3,0.75,Stimuli\ImageFiles-Set1\Faces\Face_00069.png,0,0,0,89,89,89,,,,,,,,,,,,,56.015382300000056,0.015382300000055693,None,91.26776289999998,91.26776289999998,91.26776289999998,91.26776289999998,91.26776289999998,91.26776289999998,91.26776289999998,91.26776289999998,,001,P011,2025_Feb_08_1015,CategoryLocalizer,2021.2.3,59.9300855623445,
56.8,57.0,5,0.0,Stimuli\Blank.png,0,0,0,90,90,90,,,,,,,,,,,,,56.833837799999856,0.033837799999858476,None,92.0684827999994,92.0684827999994,92.0684827999994,92.0684827999994,92.0684827999994,92.0684827999994,92.0684827999994,92.0684827999994,,001,P011,2025_Feb_08_1015,CategoryLocalizer,2021.2.3,59.9300855623445,
57.0,57.8,3,0.75,Stimuli\ImageFiles-Set1\Faces\Face_00022.png,0,0,0,91,91,91,,,,,,,,,,,,,57.015601699999934,0.015601699999933771,None,92.23524279999947,92.23524279999947,92.23524279999947,92.23524279999947,92.23524279999947,92.23524279999947,92.23524279999947,92.23524279999947,,001,P011,2025_Feb_08_1015,CategoryLocalizer,2021.2.3,59.9300855623445,
57.8,58.0,5,0.0,Stimuli\Blank.png,0,0,0,92,92,92,,,,,,,,,,,,,57.80004099999951,4.0999999512791874e-05,None,93.01928789999965,93.01928789999965,93.01928789999965,93.01928789999965,93.01928789999965,93.01928789999965,93.01928789999965,93.01928789999965,,001,P011,2025_Feb_08_1015,CategoryLocalizer,2021.2.3,59.9300855623445,
58.0,58.8,3,0.75,Stimuli\ImageFiles-Set1\Faces\Face_00119.png,0,0,0,93,93,93,,,,,,,,,,,,,57.999757800000225,-0.00024219999977503903,None,93.25278109999999,93.25278109999999,93.25278109999999,93.25278109999999,93.25278109999999,93.25278109999999,93.25278109999999,93.25278109999999,,001,P011,2025_Feb_08_1015,CategoryLocalizer,2021.2.3,59.9300855623445,
58.8,59.0,5,0.0,Stimuli\Blank.png,0,0,0,94,94,94,,,,,,,,,,,,,58.834922999999435,0.03492299999943782,None,94.05352859999948,94.05352859999948,94.05352859999948,94.05352859999948,94.05352859999948,94.05352859999948,94.05352859999948,94.05352859999948,,001,P011,2025_Feb_08_1015,CategoryLocalizer,2021.2.3,59.9300855623445,
59.0,59.8,3,0.75,Stimuli\ImageFiles-Set1\Faces\Face_00033.png,0,0,0,95,95,95,,,,,,,,,,,,,59.0011370000002,0.0011370000001988956,None,94.23701699999947,94.23701699999947,94.23701699999947,94.23701699999947,94.23701699999947,94.23701699999947,94.23701699999947,94.23701699999947,,001,P011,2025_Feb_08_1015,CategoryLocalizer,2021.2.3,59.9300855623445,
59.8,60.0,5,0.0,Stimuli\Blank.png,0,0,0,96,96,96,,,,,,,,,,,,,59.81851259999985,0.018512599999851886,None,95.03772659999959,95.03772659999959,95.03772659999959,95.03772659999959,95.03772659999959,95.03772659999959,95.03772659999959,95.03772659999959,,001,P011,2025_Feb_08_1015,CategoryLocalizer,2021.2.3,59.9300855623445,
60.0,60.8,4,0.75,Stimuli\ImageFiles-Set1\Scenes\Scenes_014.png,0,0,0,97,97,97,,,,,,,,,,,,,60.00134259999959,0.001342599999588856,None,95.25458949999938,95.25458949999938,95.25458949999938,95.25458949999938,95.25458949999938,95.25458949999938,95.25458949999938,95.25458949999938,,001,P011,2025_Feb_08_1015,CategoryLocalizer,2021.2.3,59.9300855623445,
60.8,61.0,5,0.0,Stimuli\Blank.png,0,0,0,98,98,98,,,,,,,,,,,,,60.83606779999991,0.03606779999991261,None,96.0552945999998,96.0552945999998,96.0552945999998,96.0552945999998,96.0552945999998,96.0552945999998,96.0552945999998,96.0552945999998,,001,P011,2025_Feb_08_1015,CategoryLocalizer,2021.2.3,59.9300855623445,
61.0,61.8,4,0.75,Stimuli\ImageFiles-Set1\Scenes\Scenes_010.png,0,0,0,99,99,99,,,,,,,,,,,,,61.004112699999496,0.004112699999495817,1,96.2554814999994,96.2554814999994,96.2554814999994,96.2554814999994,96.2554814999994,96.2554814999994,96.2554814999994,96.2554814999994,0.3145494000000326,001,P011,2025_Feb_08_1015,CategoryLocalizer,2021.2.3,59.9300855623445,
61.8,62.0,5,0.0,Stimuli\Blank.png,0,0,0,100,100,100,,,,,,,,,,,,,61.837059899999986,0.03705989999998849,None,97.0561816999998,97.0561816999998,97.0561816999998,97.0561816999998,97.0561816999998,97.0561816999998,97.0561816999998,97.0561816999998,,001,P011,2025_Feb_08_1015,CategoryLocalizer,2021.2.3,59.9300855623445,
62.0,62.8,4,0.75,Stimuli\ImageFiles-Set1\Scenes\Scenes_040.png,0,0,0,101,101,101,,,,,,,,,,,,,62.00310230000014,0.0031023000001368928,None,97.23970699999973,97.23970699999973,97.23970699999973,97.23970699999973,97.23970699999973,97.23970699999973,97.23970699999973,97.23970699999973,,001,P011,2025_Feb_08_1015,CategoryLocalizer,2021.2.3,59.9300855623445,
62.8,63.0,5,0.0,Stimuli\Blank.png,0,0,0,102,102,102,,,,,,,,,,,,,62.821239400000195,0.02123940000019786,None,98.04038070000024,98.04038070000024,98.04038070000024,98.04038070000024,98.04038070000024,98.04038070000024,98.04038070000024,98.04038070000024,,001,P011,2025_Feb_08_1015,CategoryLocalizer,2021.2.3,59.9300855623445,
63.0,63.8,4,0.75,Stimuli\ImageFiles-Set1\Scenes\Scenes_008.png,0,0,0,103,103,103,,,,,,,,,,,,,63.00477109999974,0.0047710999997434556,None,98.2572739999996,98.2572739999996,98.2572739999996,98.2572739999996,98.2572739999996,98.2572739999996,98.2572739999996,98.2572739999996,,001,P011,2025_Feb_08_1015,CategoryLocalizer,2021.2.3,59.9300855623445,
63.8,64.0,5,0.0,Stimuli\Blank.png,0,0,0,104,104,104,,,,,,,,,,,,,63.83862959999988,0.03862959999987936,None,99.05794950000018,99.05794950000018,99.05794950000018,99.05794950000018,99.05794950000018,99.05794950000018,99.05794950000018,99.05794950000018,,001,P011,2025_Feb_08_1015,CategoryLocalizer,2021.2.3,59.9300855623445,
64.0,64.8,4,0.75,Stimuli\ImageFiles-Set1\Scenes\Scenes_037.png,0,0,0,105,105,105,,,,,,,,,,,,,64.00519840000015,0.005198400000153924,None,99.25812479999968,99.25812479999968,99.25812479999968,99.25812479999968,99.25812479999968,99.25812479999968,99.25812479999968,99.25812479999968,,001,P011,2025_Feb_08_1015,CategoryLocalizer,2021.2.3,59.9300855623445,
64.8,65.0,5,0.0,Stimuli\Blank.png,0,0,0,106,106,106,,,,,,,,,,,,,64.83901789999982,0.03901789999981986,None,100.05883189999986,100.05883189999986,100.05883189999986,100.05883189999986,100.05883189999986,100.05883189999986,100.05883189999986,100.05883189999986,,001,P011,2025_Feb_08_1015,CategoryLocalizer,2021.2.3,59.9300855623445,
65.0,65.8,4,0.75,Stimuli\ImageFiles-Set1\Scenes\Scenes_018.png,0,0,0,107,107,107,,,,,,,,,,,,,65.00581179999972,0.005811799999719369,None,100.25900910000018,100.25900910000018,100.25900910000018,100.25900910000018,100.25900910000018,100.25900910000018,100.25900910000018,100.25900910000018,,001,P011,2025_Feb_08_1015,CategoryLocalizer,2021.2.3,59.9300855623445,
65.8,66.0,5,0.0,Stimuli\Blank.png,0,0,0,108,108,108,,,,,,,,,,,,,65.83985329999996,0.03985329999996168,None,101.05973129999984,101.05973129999984,101.05973129999984,101.05973129999984,101.05973129999984,101.05973129999984,101.05973129999984,101.05973129999984,,001,P011,2025_Feb_08_1015,CategoryLocalizer,2021.2.3,59.9300855623445,
66.0,66.8,4,0.75,Stimuli\ImageFiles-Set1\Scenes\Scenes_018.png,1,1,0,109,109,109,,,,,,,,,,,,,66.00664460000007,0.006644600000072387,1,101.22653309999987,101.22653309999987,101.22653309999987,101.22653309999987,101.22653309999987,101.22653309999987,101.22653309999987,101.22653309999987,0.4415429000000586,001,P011,2025_Feb_08_1015,CategoryLocalizer,2021.2.3,59.9300855623445,
66.8,67.0,5,0.0,Stimuli\Blank.png,0,0,0,110,110,110,,,,,,,,,,,,,66.8094457999996,0.009445799999596716,None,102.04392610000014,102.04392610000014,102.04392610000014,102.04392610000014,102.04392610000014,102.04392610000014,102.04392610000014,102.04392610000014,,001,P011,2025_Feb_08_1015,CategoryLocalizer,2021.2.3,59.9300855623445,
67.0,67.8,4,0.75,Stimuli\ImageFiles-Set1\Scenes\Scenes_007.png,0,0,0,111,111,111,,,,,,,,,,,,,67.02478999999948,0.02478999999948428,None,102.26077840000016,102.26077840000016,102.26077840000016,102.26077840000016,102.26077840000016,102.26077840000016,102.26077840000016,102.26077840000016,,001,P011,2025_Feb_08_1015,CategoryLocalizer,2021.2.3,59.9300855623445,
67.8,68.0,5,0.0,Stimuli\Blank.png,0,0,0,112,112,112,,,,,,,,,,,,,67.82589469999948,0.02589469999948335,None,103.04481759999999,103.04481759999999,103.04481759999999,103.04481759999999,103.04481759999999,103.04481759999999,103.04481759999999,103.04481759999999,,001,P011,2025_Feb_08_1015,CategoryLocalizer,2021.2.3,59.9300855623445,
68.0,68.8,4,0.75,Stimuli\ImageFiles-Set1\Scenes\Scenes_045.png,0,0,0,113,113,113,,,,,,,,,,,,,68.00841519999994,0.008415199999944889,None,103.24499180000021,103.24499180000021,103.24499180000021,103.24499180000021,103.24499180000021,103.24499180000021,103.24499180000021,103.24499180000021,,001,P011,2025_Feb_08_1015,CategoryLocalizer,2021.2.3,59.9300855623445,
68.8,69.0,5,0.0,Stimuli\Blank.png,0,0,0,114,114,114,,,,,,,,,,,,,68.82655239999985,0.026552399999857812,None,104.04569360000005,104.04569360000005,104.04569360000005,104.04569360000005,104.04569360000005,104.04569360000005,104.04569360000005,104.04569360000005,,001,P011,2025_Feb_08_1015,CategoryLocalizer,2021.2.3,59.9300855623445,
69.0,69.8,4,0.75,Stimuli\ImageFiles-Set1\Scenes\Scenes_032.png,0,0,0,115,115,115,,,,,,,,,,,,,69.01033199999983,0.010331999999834807,None,104.26255429999947,104.26255429999947,104.26255429999947,104.26255429999947,104.26255429999947,104.26255429999947,104.26255429999947,104.26255429999947,,001,P011,2025_Feb_08_1015,CategoryLocalizer,2021.2.3,59.9300855623445,
69.8,70.0,5,0.0,Stimuli\Blank.png,0,0,0,116,116,116,,,,,,,,,,,,,69.84449549999954,0.04449549999954172,None,105.06325930000003,105.06325930000003,105.06325930000003,105.06325930000003,105.06325930000003,105.06325930000003,105.06325930000003,105.06325930000003,,001,P011,2025_Feb_08_1015,CategoryLocalizer,2021.2.3,59.9300855623445,
70.0,70.8,4,0.75,Stimuli\ImageFiles-Set1\Scenes\Scenes_001.png,0,0,0,117,117,117,,,,,,,,,,,,,70.01102699999956,0.01102699999955803,None,105.26347609999993,105.26347609999993,105.26347609999993,105.26347609999993,105.26347609999993,105.26347609999993,105.26347609999993,105.26347609999993,,001,P011,2025_Feb_08_1015,CategoryLocalizer,2021.2.3,59.9300855623445,
70.8,71.0,5,0.0,Stimuli\Blank.png,0,0,0,118,118,118,,,,,,,,,,,,,70.84482049999951,0.04482049999951698,None,106.06414619999941,106.06414619999941,106.06414619999941,106.06414619999941,106.06414619999941,106.06414619999941,106.06414619999941,106.06414619999941,,001,P011,2025_Feb_08_1015,CategoryLocalizer,2021.2.3,59.9300855623445,
71.0,71.8,4,0.75,Stimuli\ImageFiles-Set1\Scenes\Scenes_043.png,1,1,0,119,119,119,,,,,,,,,,,,,71.01387999999952,0.013879999999517167,None,106.26432620000014,106.26432620000014,106.26432620000014,106.26432620000014,106.26432620000014,106.26432620000014,106.26432620000014,106.26432620000014,,001,P011,2025_Feb_08_1015,CategoryLocalizer,2021.2.3,59.9300855623445,
71.8,72.0,5,0.0,Stimuli\Blank.png,0,0,0,120,120,120,,,,,,,,,,,,,71.84534129999975,0.04534129999974823,None,107.06502629999977,107.06502629999977,107.06502629999977,107.06502629999977,107.06502629999977,107.06502629999977,107.06502629999977,107.06502629999977,,001,P011,2025_Feb_08_1015,CategoryLocalizer,2021.2.3,59.9300855623445,
72.0,72.8,4,0.75,Stimuli\ImageFiles-Set1\Scenes\Scenes_025.png,0,0,0,121,121,121,,,,,,,,,,,,,72.01292130000002,0.012921300000016345,None,107.24852839999949,107.24852839999949,107.24852839999949,107.24852839999949,107.24852839999949,107.24852839999949,107.24852839999949,107.24852839999949,,001,P011,2025_Feb_08_1015,CategoryLocalizer,2021.2.3,59.9300855623445,
72.8,73.0,5,0.0,Stimuli\Blank.png,0,0,0,122,122,122,,,,,,,,,,,,,72.83015629999954,0.03015629999954683,None,108.04923899999994,108.04923899999994,108.04923899999994,108.04923899999994,108.04923899999994,108.04923899999994,108.04923899999994,108.04923899999994,,001,P011,2025_Feb_08_1015,CategoryLocalizer,2021.2.3,59.9300855623445,
73.0,73.8,4,0.75,Stimuli\ImageFiles-Set1\Scenes\Scenes_025.png,0,0,0,123,123,123,,,,,,,,,,,,,73.01345839999976,0.01345839999976306,1,108.24940679999963,108.24940679999963,108.24940679999963,108.24940679999963,108.24940679999963,108.24940679999963,108.24940679999963,108.24940679999963,0.40163159999974596,001,P011,2025_Feb_08_1015,CategoryLocalizer,2021.2.3,59.9300855623445,
73.8,74.0,5,0.0,Stimuli\Blank.png,0,0,0,124,124,124,,,,,,,,,,,,,73.83092310000029,0.030923100000293857,None,109.05011399999967,109.05011399999967,109.05011399999967,109.05011399999967,109.05011399999967,109.05011399999967,109.05011399999967,109.05011399999967,,001,P011,2025_Feb_08_1015,CategoryLocalizer,2021.2.3,59.9300855623445,
74.0,74.8,4,0.75,Stimuli\ImageFiles-Set1\Scenes\Scenes_060.png,0,0,0,125,125,125,,,,,,,,,,,,,74.01429929999995,0.014299299999947834,None,109.26697890000014,109.26697890000014,109.26697890000014,109.26697890000014,109.26697890000014,109.26697890000014,109.26697890000014,109.26697890000014,,001,P011,2025_Feb_08_1015,CategoryLocalizer,2021.2.3,59.9300855623445,
74.8,75.0,5,0.0,Stimuli\Blank.png,0,0,0,126,126,126,,,,,,,,,,,,,74.84840859999986,0.0484085999998598,None,110.06768790000024,110.06768790000024,110.06768790000024,110.06768790000024,110.06768790000024,110.06768790000024,110.06768790000024,110.06768790000024,,001,P011,2025_Feb_08_1015,CategoryLocalizer,2021.2.3,59.9300855623445,
75.0,75.8,4,0.75,Stimuli\ImageFiles-Set1\Scenes\Scenes_009.png,0,0,0,127,127,127,,,,,,,,,,,,,75.01529019999998,0.015290199999981269,None,110.25120539999989,110.25120539999989,110.25120539999989,110.25120539999989,110.25120539999989,110.25120539999989,110.25120539999989,110.25120539999989,,001,P011,2025_Feb_08_1015,CategoryLocalizer,2021.2.3,59.9300855623445,
75.8,76.0,5,0.0,Stimuli\Blank.png,0,0,0,128,128,128,,,,,,,,,,,,,75.81544500000018,0.01544500000018445,None,111.03520560000015,111.03520560000015,111.03520560000015,111.03520560000015,111.03520560000015,111.03520560000015,111.03520560000015,111.03520560000015,,001,P011,2025_Feb_08_1015,CategoryLocalizer,2021.2.3,59.9300855623445,
76.0,88.0,0,0.0,Stimuli\Blank.png,0,0,0,129,129,129,,,,,,,,,,,,,76.01572429999942,0.0157242999994196,None,111.23538610000014,111.23538610000014,111.23538610000014,111.23538610000014,111.23538610000014,111.23538610000014,111.23538610000014,111.23538610000014,,001,P011,2025_Feb_08_1015,CategoryLocalizer,2021.2.3,59.9300855623445,
88.0,88.8,3,0.75,Stimuli\ImageFiles-Set1\Faces\Face_00001.png,0,0,0,130,130,130,,,,,,,,,,,,,88.01015619999998,0.010156199999983073,None,123.24603649999972,123.24603649999972,123.24603649999972,123.24603649999972,123.24603649999972,123.24603649999972,123.24603649999972,123.24603649999972,,001,P011,2025_Feb_08_1015,CategoryLocalizer,2021.2.3,59.9300855623445,
88.8,89.0,5,0.0,Stimuli\Blank.png,0,0,0,131,131,131,,,,,,,,,,,,,88.8292991999997,0.029299199999698544,None,124.06341590000011,124.06341590000011,124.06341590000011,124.06341590000011,124.06341590000011,124.06341590000011,124.06341590000011,124.06341590000011,,001,P011,2025_Feb_08_1015,CategoryLocalizer,2021.2.3,59.9300855623445,
89.0,89.8,3,0.75,Stimuli\ImageFiles-Set1\Faces\Face_00027.png,0,0,0,132,132,132,,,,,,,,,,,,,89.02759009999954,0.027590099999542872,None,124.26358900000014,124.26358900000014,124.26358900000014,124.26358900000014,124.26358900000014,124.26358900000014,124.26358900000014,124.26358900000014,,001,P011,2025_Feb_08_1015,CategoryLocalizer,2021.2.3,59.9300855623445,
89.8,90.0,5,0.0,Stimuli\Blank.png,0,0,0,133,133,133,,,,,,,,,,,,,89.82941380000011,0.029413800000114065,None,125.06430480000017,125.06430480000017,125.06430480000017,125.06430480000017,125.06430480000017,125.06430480000017,125.06430480000017,125.06430480000017,,001,P011,2025_Feb_08_1015,CategoryLocalizer,2021.2.3,59.9300855623445,
90.0,90.8,3,0.75,Stimuli\ImageFiles-Set1\Faces\Face_00113.png,0,0,0,134,134,134,,,,,,,,,,,,,90.0284972999998,0.028497299999798997,None,125.26456880000023,125.26456880000023,125.26456880000023,125.26456880000023,125.26456880000023,125.26456880000023,125.26456880000023,125.26456880000023,,001,P011,2025_Feb_08_1015,CategoryLocalizer,2021.2.3,59.9300855623445,
90.8,91.0,5,0.0,Stimuli\Blank.png,0,0,0,135,135,135,,,,,,,,,,,,,90.82925689999956,0.0292568999995666,None,126.04854999999952,126.04854999999952,126.04854999999952,126.04854999999952,126.04854999999952,126.04854999999952,126.04854999999952,126.04854999999952,,001,P011,2025_Feb_08_1015,CategoryLocalizer,2021.2.3,59.9300855623445,
91.0,91.8,3,0.75,Stimuli\ImageFiles-Set1\Faces\Face_00020.png,0,0,0,136,136,136,,,,,,,,,,,,,91.01204739999957,0.012047399999573827,None,126.24868559999959,126.24868559999959,126.24868559999959,126.24868559999959,126.24868559999959,126.24868559999959,126.24868559999959,126.24868559999959,,001,P011,2025_Feb_08_1015,CategoryLocalizer,2021.2.3,59.9300855623445,
91.8,92.0,5,0.0,Stimuli\Blank.png,0,0,0,137,137,137,,,,,,,,,,,,,91.83013250000022,0.03013250000022083,None,127.04938390000007,127.04938390000007,127.04938390000007,127.04938390000007,127.04938390000007,127.04938390000007,127.04938390000007,127.04938390000007,,001,P011,2025_Feb_08_1015,CategoryLocalizer,2021.2.3,59.9300855623445,
92.0,92.8,3,0.75,Stimuli\ImageFiles-Set1\Faces\Face_00020.png,1,1,0,138,138,138,,,,,,,,,,,,,92.01298020000013,0.012980200000129116,1,127.23286599999938,127.23286599999938,127.23286599999938,127.23286599999938,127.23286599999938,127.23286599999938,127.23286599999938,127.23286599999938,0.4193568000000596,001,P011,2025_Feb_08_1015,CategoryLocalizer,2021.2.3,59.9300855623445,
92.8,93.0,5,0.0,Stimuli\Blank.png,0,0,0,139,139,139,,,,,,,,,,,,,92.81444949999968,0.014449499999685145,None,128.03358019999996,128.03358019999996,128.03358019999996,128.03358019999996,128.03358019999996,128.03358019999996,128.03358019999996,128.03358019999996,,001,P011,2025_Feb_08_1015,CategoryLocalizer,2021.2.3,59.9300855623445,
93.0,93.8,3,0.75,Stimuli\ImageFiles-Set1\Faces\Face_00101.png,0,0,0,140,140,140,,,,,,,,,,,,,93.01498300000003,0.014983000000029278,None,128.25045189999946,128.25045189999946,128.25045189999946,128.25045189999946,128.25045189999946,128.25045189999946,128.25045189999946,128.25045189999946,,001,P011,2025_Feb_08_1015,CategoryLocalizer,2021.2.3,59.9300855623445,
93.8,94.0,5,0.0,Stimuli\Blank.png,0,0,0,141,141,141,,,,,,,,,,,,,93.81466099999943,0.014660999999435376,None,129.03445749999992,129.03445749999992,129.03445749999992,129.03445749999992,129.03445749999992,129.03445749999992,129.03445749999992,129.03445749999992,,001,P011,2025_Feb_08_1015,CategoryLocalizer,2021.2.3,59.9300855623445,
94.0,94.8,3,0.75,Stimuli\ImageFiles-Set1\Faces\Face_00016.png,0,0,0,142,142,142,,,,,,,,,,,,,94.01507529999981,0.015075299999807612,None,129.23464109999986,129.23464109999986,129.23464109999986,129.23464109999986,129.23464109999986,129.23464109999986,129.23464109999986,129.23464109999986,,001,P011,2025_Feb_08_1015,CategoryLocalizer,2021.2.3,59.9300855623445,
94.8,95.0,5,0.0,Stimuli\Blank.png,0,0,0,143,143,143,,,,,,,,,,,,,94.79958769999939,-0.00041230000060465954,None,130.01867140000013,130.01867140000013,130.01867140000013,130.01867140000013,130.01867140000013,130.01867140000013,130.01867140000013,130.01867140000013,,001,P011,2025_Feb_08_1015,CategoryLocalizer,2021.2.3,59.9300855623445,
95.0,95.8,3,0.75,Stimuli\ImageFiles-Set1\Faces\Face_00109.png,0,0,0,144,144,144,,,,,,,,,,,,,95.00098460000027,0.0009846000002653454,None,130.25220979999995,130.25220979999995,130.25220979999995,130.25220979999995,130.25220979999995,130.25220979999995,130.25220979999995,130.25220979999995,,001,P011,2025_Feb_08_1015,CategoryLocalizer,2021.2.3,59.9300855623445,
95.8,96.0,5,0.0,Stimuli\Blank.png,0,0,0,145,145,145,,,,,,,,,,,,,95.83361520000017,0.033615200000170375,None,131.0529308999994,131.0529308999994,131.0529308999994,131.0529308999994,131.0529308999994,131.0529308999994,131.0529308999994,131.0529308999994,,001,P011,2025_Feb_08_1015,CategoryLocalizer,2021.2.3,59.9300855623445,
96.0,96.8,3,0.75,Stimuli\ImageFiles-Set1\Faces\Face_00061.png,0,0,0,146,146,146,,,,,,,,,,,,,96.00039000000015,0.00039000000015221303,None,131.23638690000007,131.23638690000007,131.23638690000007,131.23638690000007,131.23638690000007,131.23638690000007,131.23638690000007,131.23638690000007,,001,P011,2025_Feb_08_1015,CategoryLocalizer,2021.2.3,59.9300855623445,
96.8,97.0,5,0.0,Stimuli\Blank.png,0,0,0,147,147,147,,,,,,,,,,,,,96.81919589999961,0.019195899999616017,None,132.05381089999992,132.05381089999992,132.05381089999992,132.05381089999992,132.05381089999992,132.05381089999992,132.05381089999992,132.05381089999992,,001,P011,2025_Feb_08_1015,CategoryLocalizer,2021.2.3,59.9300855623445,
97.0,97.8,3,0.75,Stimuli\ImageFiles-Set1\Faces\Face_00009.png,0,0,0,148,148,148,,,,,,,,,,,,,97.01801729999988,0.018017299999883107,None,132.25399479999942,132.25399479999942,132.25399479999942,132.25399479999942,132.25399479999942,132.25399479999942,132.25399479999942,132.25399479999942,,001,P011,2025_Feb_08_1015,CategoryLocalizer,2021.2.3,59.9300855623445,
97.8,98.0,5,0.0,Stimuli\Blank.png,0,0,0,149,149,149,,,,,,,,,,,,,97.81957640000019,0.01957640000019012,None,133.03800789999968,133.03800789999968,133.03800789999968,133.03800789999968,133.03800789999968,133.03800789999968,133.03800789999968,133.03800789999968,,001,P011,2025_Feb_08_1015,CategoryLocalizer,2021.2.3,59.9300855623445,
98.0,98.8,3,0.75,Stimuli\ImageFiles-Set1\Faces\Face_00075.png,0,0,0,150,150,150,,,,,,,,,,,,,98.0024730999994,0.0024730999994062586,None,133.23815389999982,133.23815389999982,133.23815389999982,133.23815389999982,133.23815389999982,133.23815389999982,133.23815389999982,133.23815389999982,,001,P011,2025_Feb_08_1015,CategoryLocalizer,2021.2.3,59.9300855623445,
98.8,99.0,5,0.0,Stimuli\Blank.png,0,0,0,151,151,151,,,,,,,,,,,,,98.81968779999988,0.019687799999886124,None,134.03889399999935,134.03889399999935,134.03889399999935,134.03889399999935,134.03889399999935,134.03889399999935,134.03889399999935,134.03889399999935,,001,P011,2025_Feb_08_1015,CategoryLocalizer,2021.2.3,59.9300855623445,
99.0,99.8,3,0.75,Stimuli\ImageFiles-Set1\Faces\Face_00079.png,0,0,0,152,152,152,,,,,,,,,,,,,99.00502099999994,0.005020999999942433,None,134.23906970000007,134.23906970000007,134.23906970000007,134.23906970000007,134.23906970000007,134.23906970000007,134.23906970000007,134.23906970000007,,001,P011,2025_Feb_08_1015,CategoryLocalizer,2021.2.3,59.9300855623445,
99.8,100.0,5,0.0,Stimuli\Blank.png,0,0,0,153,153,153,,,,,,,,,,,,,99.82089819999965,0.02089819999964959,None,135.03977099999975,135.03977099999975,135.03977099999975,135.03977099999975,135.03977099999975,135.03977099999975,135.03977099999975,135.03977099999975,,001,P011,2025_Feb_08_1015,CategoryLocalizer,2021.2.3,59.9300855623445,
100.0,100.8,3,0.75,Stimuli\ImageFiles-Set1\Faces\Face_00115.png,0,0,0,154,154,154,,,,,,,,,,,,,100.00379499999963,0.00379499999962718,None,135.23995749999995,135.23995749999995,135.23995749999995,135.23995749999995,135.23995749999995,135.23995749999995,135.23995749999995,135.23995749999995,,001,P011,2025_Feb_08_1015,CategoryLocalizer,2021.2.3,59.9300855623445,
100.8,101.0,5,0.0,Stimuli\Blank.png,0,0,0,155,155,155,,,,,,,,,,,,,100.82087020000017,0.020870200000175032,None,136.0406597000001,136.0406597000001,136.0406597000001,136.0406597000001,136.0406597000001,136.0406597000001,136.0406597000001,136.0406597000001,,001,P011,2025_Feb_08_1015,CategoryLocalizer,2021.2.3,59.9300855623445,
101.0,101.8,3,0.75,Stimuli\ImageFiles-Set1\Faces\Face_00085.png,0,0,0,156,156,156,,,,,,,,,,,,,101.00423570000021,0.004235700000208453,None,136.25752909999937,136.25752909999937,136.25752909999937,136.25752909999937,136.25752909999937,136.25752909999937,136.25752909999937,136.25752909999937,,001,P011,2025_Feb_08_1015,CategoryLocalizer,2021.2.3,59.9300855623445,
101.8,102.0,5,0.0,Stimuli\Blank.png,0,0,0,157,157,157,,,,,,,,,,,,,101.83972910000011,0.03972910000011609,None,137.05825089999962,137.05825089999962,137.05825089999962,137.05825089999962,137.05825089999962,137.05825089999962,137.05825089999962,137.05825089999962,,001,P011,2025_Feb_08_1015,CategoryLocalizer,2021.2.3,59.9300855623445,
102.0,102.8,3,0.75,Stimuli\ImageFiles-Set1\Faces\Face_00103.png,0,0,0,158,158,158,,,,,,,,,,,,,102.00597899999957,0.005978999999570078,None,137.2417276999995,137.2417276999995,137.2417276999995,137.2417276999995,137.2417276999995,137.2417276999995,137.2417276999995,137.2417276999995,,001,P011,2025_Feb_08_1015,CategoryLocalizer,2021.2.3,59.9300855623445,
102.8,103.0,5,0.0,Stimuli\Blank.png,0,0,0,159,159,159,,,,,,,,,,,,,102.82432379999955,0.024323799999550033,None,138.05913400000009,138.05913400000009,138.05913400000009,138.05913400000009,138.05913400000009,138.05913400000009,138.05913400000009,138.05913400000009,,001,P011,2025_Feb_08_1015,CategoryLocalizer,2021.2.3,59.9300855623445,
103.0,103.8,3,0.75,Stimuli\ImageFiles-Set1\Faces\Face_00045.png,0,0,0,160,160,160,,,,,,,,,,,,,103.02503329999945,0.02503329999944981,None,138.27599629999986,138.27599629999986,138.27599629999986,138.27599629999986,138.27599629999986,138.27599629999986,138.27599629999986,138.27599629999986,,001,P011,2025_Feb_08_1015,CategoryLocalizer,2021.2.3,59.9300855623445,
103.8,104.0,5,0.0,Stimuli\Blank.png,0,0,0,161,161,161,,,,,,,,,,,,,103.84026040000026,0.040260400000263985,None,139.05999069999962,139.05999069999962,139.05999069999962,139.05999069999962,139.05999069999962,139.05999069999962,139.05999069999962,139.05999069999962,,001,P011,2025_Feb_08_1015,CategoryLocalizer,2021.2.3,59.9300855623445,
104.0,104.8,1,0.75,Stimuli\ImageFiles-Set1\Objects\Object_Recliner_00001.png,0,0,0,162,162,162,,,,,,,,,,,,,104.00719899999967,0.007198999999673106,None,139.26018449999992,139.26018449999992,139.26018449999992,139.26018449999992,139.26018449999992,139.26018449999992,139.26018449999992,139.26018449999992,,001,P011,2025_Feb_08_1015,CategoryLocalizer,2021.2.3,59.9300855623445,
104.8,105.0,5,0.0,Stimuli\Blank.png,0,0,0,163,163,163,,,,,,,,,,,,,104.8419716999997,0.0419716999997064,None,140.06088550000004,140.06088550000004,140.06088550000004,140.06088550000004,140.06088550000004,140.06088550000004,140.06088550000004,140.06088550000004,,001,P011,2025_Feb_08_1015,CategoryLocalizer,2021.2.3,59.9300855623445,
105.0,105.8,1,0.75,Stimuli\ImageFiles-Set1\Objects\Object_Recliner_00001.png,1,1,0,164,164,164,,,,,,,,,,,,,105.01022779999948,0.010227799999483977,1,140.244412,140.244412,140.244412,140.244412,140.244412,140.244412,140.244412,140.244412,0.47358540000004723,001,P011,2025_Feb_08_1015,CategoryLocalizer,2021.2.3,59.9300855623445,
105.8,106.0,5,0.0,Stimuli\Blank.png,0,0,0,165,165,165,,,,,,,,,,,,,105.82599479999953,0.025994799999537577,None,141.0450861999998,141.0450861999998,141.0450861999998,141.0450861999998,141.0450861999998,141.0450861999998,141.0450861999998,141.0450861999998,,001,P011,2025_Feb_08_1015,CategoryLocalizer,2021.2.3,59.9300855623445,
106.0,106.8,1,0.75,Stimuli\ImageFiles-Set1\Objects\Object_Locker_00001.png,0,0,0,166,166,166,,,,,,,,,,,,,106.00863920000029,0.008639200000288838,None,141.24526809999952,141.24526809999952,141.24526809999952,141.24526809999952,141.24526809999952,141.24526809999952,141.24526809999952,141.24526809999952,,001,P011,2025_Feb_08_1015,CategoryLocalizer,2021.2.3,59.9300855623445,
106.8,107.0,5,0.0,Stimuli\Blank.png,0,0,0,167,167,167,,,,,,,,,,,,,106.82672170000023,0.026721700000237547,None,142.04597169999943,142.04597169999943,142.04597169999943,142.04597169999943,142.04597169999943,142.04597169999943,142.04597169999943,142.04597169999943,,001,P011,2025_Feb_08_1015,CategoryLocalizer,2021.2.3,59.9300855623445,
107.0,107.8,1,0.75,Stimuli\ImageFiles-Set1\Objects\Object_Airplane_00001.png,0,0,0,168,168,168,,,,,,,,,,,,,107.01009859999976,0.010098599999764701,None,142.22946779999984,142.22946779999984,142.22946779999984,142.22946779999984,142.22946779999984,142.22946779999984,142.22946779999984,142.22946779999984,,001,P011,2025_Feb_08_1015,CategoryLocalizer,2021.2.3,59.9300855623445,
107.8,108.0,5,0.0,Stimuli\Blank.png,0,0,0,169,169,169,,,,,,,,,,,,,107.8105472999996,0.010547299999601023,None,143.03017029999955,143.03017029999955,143.03017029999955,143.03017029999955,143.03017029999955,143.03017029999955,143.03017029999955,143.03017029999955,,001,P011,2025_Feb_08_1015,CategoryLocalizer,2021.2.3,59.9300855623445,
108.0,108.8,1,0.75,Stimuli\ImageFiles-Set1\Objects\Object_Shirt_00001.png,0,0,0,170,170,170,,,,,,,,,,,,,108.01045019999947,0.010450199999468168,None,143.26374179999948,143.26374179999948,143.26374179999948,143.26374179999948,143.26374179999948,143.26374179999948,143.26374179999948,143.26374179999948,,001,P011,2025_Feb_08_1015,CategoryLocalizer,2021.2.3,59.9300855623445,
108.8,109.0,5,0.0,Stimuli\Blank.png,0,0,0,171,171,171,,,,,,,,,,,,,108.84512209999957,0.04512209999957406,None,144.06442909999987,144.06442909999987,144.06442909999987,144.06442909999987,144.06442909999987,144.06442909999987,144.06442909999987,144.06442909999987,,001,P011,2025_Feb_08_1015,CategoryLocalizer,2021.2.3,59.9300855623445,
109.0,109.8,1,0.75,Stimuli\ImageFiles-Set1\Objects\Object_Lamp_00001.png,0,0,0,172,172,172,,,,,,,,,,,,,109.01127189999988,0.011271899999883317,None,144.2479272999999,144.2479272999999,144.2479272999999,144.2479272999999,144.2479272999999,144.2479272999999,144.2479272999999,144.2479272999999,,001,P011,2025_Feb_08_1015,CategoryLocalizer,2021.2.3,59.9300855623445,
109.8,110.0,5,0.0,Stimuli\Blank.png,0,0,0,173,173,173,,,,,,,,,,,,,109.8299519000002,0.029951900000199316,None,145.0486538999994,145.0486538999994,145.0486538999994,145.0486538999994,145.0486538999994,145.0486538999994,145.0486538999994,145.0486538999994,,001,P011,2025_Feb_08_1015,CategoryLocalizer,2021.2.3,59.9300855623445,
110.0,110.8,1,0.75,Stimuli\ImageFiles-Set1\Objects\Object_Stool_00001.png,0,0,0,174,174,174,,,,,,,,,,,,,110.01220430000012,0.012204300000121293,None,145.23210120000022,145.23210120000022,145.23210120000022,145.23210120000022,145.23210120000022,145.23210120000022,145.23210120000022,145.23210120000022,,001,P011,2025_Feb_08_1015,CategoryLocalizer,2021.2.3,59.9300855623445,
110.8,111.0,5,0.0,Stimuli\Blank.png,0,0,0,175,175,175,,,,,,,,,,,,,110.81294090000029,0.012940900000288025,None,146.03283329999977,146.03283329999977,146.03283329999977,146.03283329999977,146.03283329999977,146.03283329999977,146.03283329999977,146.03283329999977,,001,P011,2025_Feb_08_1015,CategoryLocalizer,2021.2.3,59.9300855623445,
111.0,111.8,1,0.75,Stimuli\ImageFiles-Set1\Objects\Object_Card_00001.png,0,0,0,176,176,176,,,,,,,,,,,,,111.01484019999953,0.014840199999525794,None,146.26637279999977,146.26637279999977,146.26637279999977,146.26637279999977,146.26637279999977,146.26637279999977,146.26637279999977,146.26637279999977,,001,P011,2025_Feb_08_1015,CategoryLocalizer,2021.2.3,59.9300855623445,
111.8,112.0,5,0.0,Stimuli\Blank.png,0,0,0,177,177,177,,,,,,,,,,,,,111.84717639999963,0.047176399999628416,None,147.06707920000008,147.06707920000008,147.06707920000008,147.06707920000008,147.06707920000008,147.06707920000008,147.06707920000008,147.06707920000008,,001,P011,2025_Feb_08_1015,CategoryLocalizer,2021.2.3,59.9300855623445,
112.0,112.8,1,0.75,Stimuli\ImageFiles-Set1\Objects\Object_IroningBoard_00001.png,0,0,0,178,178,178,,,,,,,,,,,,,112.01462609999999,0.014626099999986764,None,147.25059169999986,147.25059169999986,147.25059169999986,147.25059169999986,147.25059169999986,147.25059169999986,147.25059169999986,147.25059169999986,,001,P011,2025_Feb_08_1015,CategoryLocalizer,2021.2.3,59.9300855623445,
112.8,113.0,5,0.0,Stimuli\Blank.png,0,0,0,179,179,179,,,,,,,,,,,,,112.83154709999963,0.0315470999996279,None,148.05134759999964,148.05134759999964,148.05134759999964,148.05134759999964,148.05134759999964,148.05134759999964,148.05134759999964,148.05134759999964,,001,P011,2025_Feb_08_1015,CategoryLocalizer,2021.2.3,59.9300855623445,
113.0,113.8,1,0.75,Stimuli\ImageFiles-Set1\Objects\Object_Matches_00001.png,0,0,0,180,180,180,,,,,,,,,,,,,113.01558430000023,0.015584300000227813,None,148.25148509999963,148.25148509999963,148.25148509999963,148.25148509999963,148.25148509999963,148.25148509999963,148.25148509999963,148.25148509999963,,001,P011,2025_Feb_08_1015,CategoryLocalizer,2021.2.3,59.9300855623445,
113.8,114.0,5,0.0,Stimuli\Blank.png,0,0,0,181,181,181,,,,,,,,,,,,,113.81634359999953,0.016343599999530056,None,149.03548649999993,149.03548649999993,149.03548649999993,149.03548649999993,149.03548649999993,149.03548649999993,149.03548649999993,149.03548649999993,,001,P011,2025_Feb_08_1015,CategoryLocalizer,2021.2.3,59.9300855623445,
114.0,114.8,1,0.75,Stimuli\ImageFiles-Set1\Objects\Object_Glasses_00001.png,1,1,0,182,182,182,,,,,,,,,,,,,114.00052799999958,0.0005279999995764229,None,149.25234749999981,149.25234749999981,149.25234749999981,149.25234749999981,149.25234749999981,149.25234749999981,149.25234749999981,149.25234749999981,,001,P011,2025_Feb_08_1015,CategoryLocalizer,2021.2.3,59.9300855623445,
114.8,115.0,5,0.0,Stimuli\Blank.png,0,0,0,183,183,183,,,,,,,,,,,,,114.83500149999963,0.03500149999963753,None,150.0697578999998,150.0697578999998,150.0697578999998,150.0697578999998,150.0697578999998,150.0697578999998,150.0697578999998,150.0697578999998,,001,P011,2025_Feb_08_1015,CategoryLocalizer,2021.2.3,59.9300855623445,
115.0,115.8,1,0.75,Stimuli\ImageFiles-Set1\Objects\Object_Bottle_00001.png,0,0,0,184,184,184,,,,,,,,,,,,,115.01725759999954,0.017257599999538797,None,150.2532756999999,150.2532756999999,150.2532756999999,150.2532756999999,150.2532756999999,150.2532756999999,150.2532756999999,150.2532756999999,,001,P011,2025_Feb_08_1015,CategoryLocalizer,2021.2.3,59.9300855623445,
115.8,116.0,5,0.0,Stimuli\Blank.png,0,0,0,185,185,185,,,,,,,,,,,,,115.81736120000005,0.017361200000053145,None,151.03725399999985,151.03725399999985,151.03725399999985,151.03725399999985,151.03725399999985,151.03725399999985,151.03725399999985,151.03725399999985,,001,P011,2025_Feb_08_1015,CategoryLocalizer,2021.2.3,59.9300855623445,
116.0,116.8,1,0.75,Stimuli\ImageFiles-Set1\Objects\Object_Bottle_00001.png,0,0,0,186,186,186,,,,,,,,,,,,,116.00117330000012,0.0011733000001186156,1,151.22073939999973,151.22073939999973,151.22073939999973,151.22073939999973,151.22073939999973,151.22073939999973,151.22073939999973,151.22073939999973,0.3271930999999313,001,P011,2025_Feb_08_1015,CategoryLocalizer,2021.2.3,59.9300855623445,
116.8,117.0,5,0.0,Stimuli\Blank.png,0,0,0,187,187,187,,,,,,,,,,,,,116.80214749999959,0.0021474999995945154,None,152.0214635000002,152.0214635000002,152.0214635000002,152.0214635000002,152.0214635000002,152.0214635000002,152.0214635000002,152.0214635000002,,001,P011,2025_Feb_08_1015,CategoryLocalizer,2021.2.3,59.9300855623445,
117.0,117.8,1,0.75,Stimuli\ImageFiles-Set1\Objects\Object_Pillow_00001.png,0,0,0,188,188,188,,,,,,,,,,,,,117.00181410000005,0.001814100000046892,None,152.22163529999943,152.22163529999943,152.22163529999943,152.22163529999943,152.22163529999943,152.22163529999943,152.22163529999943,152.22163529999943,,001,P011,2025_Feb_08_1015,CategoryLocalizer,2021.2.3,59.9300855623445,
117.8,118.0,5,0.0,Stimuli\Blank.png,0,0,0,189,189,189,,,,,,,,,,,,,117.80245730000024,0.0024573000002447998,None,153.02235329999985,153.02235329999985,153.02235329999985,153.02235329999985,153.02235329999985,153.02235329999985,153.02235329999985,153.02235329999985,,001,P011,2025_Feb_08_1015,CategoryLocalizer,2021.2.3,59.9300855623445,
118.0,118.8,1,0.75,Stimuli\ImageFiles-Set1\Objects\Object_GarbageCan_00001.png,0,0,0,190,190,190,,,,,,,,,,,,,118.00359389999994,0.003593899999941641,None,153.2392030000001,153.2392030000001,153.2392030000001,153.2392030000001,153.2392030000001,153.2392030000001,153.2392030000001,153.2392030000001,,001,P011,2025_Feb_08_1015,CategoryLocalizer,2021.2.3,59.9300855623445,
118.8,119.0,5,0.0,Stimuli\Blank.png,0,0,0,191,191,191,,,,,,,,,,,,,118.82074379999995,0.020743799999948465,None,154.03991849999966,154.03991849999966,154.03991849999966,154.03991849999966,154.03991849999966,154.03991849999966,154.03991849999966,154.03991849999966,,001,P011,2025_Feb_08_1015,CategoryLocalizer,2021.2.3,59.9300855623445,
119.0,119.8,1,0.75,Stimuli\ImageFiles-Set1\Objects\Object_Box_00001.png,0,0,0,192,192,192,,,,,,,,,,,,,119.0059153000002,0.005915300000197021,None,154.24009819999992,154.24009819999992,154.24009819999992,154.24009819999992,154.24009819999992,154.24009819999992,154.24009819999992,154.24009819999992,,001,P011,2025_Feb_08_1015,CategoryLocalizer,2021.2.3,59.9300855623445,
119.8,120.0,5,0.0,Stimuli\Blank.png,0,0,0,193,193,193,,,,,,,,,,,,,119.82137450000027,0.021374500000277408,None,155.04080299999987,155.04080299999987,155.04080299999987,155.04080299999987,155.04080299999987,155.04080299999987,155.04080299999987,155.04080299999987,,001,P011,2025_Feb_08_1015,CategoryLocalizer,2021.2.3,59.9300855623445,
120.0,120.8,4,0.75,Stimuli\ImageFiles-Set1\Scenes\Scenes_030.png,0,0,0,194,194,194,,,,,,,,,,,,,120.00500809999994,0.005008099999940896,None,155.24098679999952,155.24098679999952,155.24098679999952,155.24098679999952,155.24098679999952,155.24098679999952,155.24098679999952,155.24098679999952,,001,P011,2025_Feb_08_1015,CategoryLocalizer,2021.2.3,59.9300855623445,
120.8,121.0,5,0.0,Stimuli\Blank.png,0,0,0,195,195,195,,,,,,,,,,,,,120.82169749999957,0.021697499999575598,None,156.04167999999936,156.04167999999936,156.04167999999936,156.04167999999936,156.04167999999936,156.04167999999936,156.04167999999936,156.04167999999936,,001,P011,2025_Feb_08_1015,CategoryLocalizer,2021.2.3,59.9300855623445,
121.0,121.8,4,0.75,Stimuli\ImageFiles-Set1\Scenes\Scenes_026.png,0,0,0,196,196,196,,,,,,,,,,,,,121.00607489999948,0.006074899999475747,None,156.24185930000021,156.24185930000021,156.24185930000021,156.24185930000021,156.24185930000021,156.24185930000021,156.24185930000021,156.24185930000021,,001,P011,2025_Feb_08_1015,CategoryLocalizer,2021.2.3,59.9300855623445,
121.8,122.0,5,0.0,Stimuli\Blank.png,0,0,0,197,197,197,,,,,,,,,,,,,121.82304610000028,0.023046100000286174,None,157.0425981999997,157.0425981999997,157.0425981999997,157.0425981999997,157.0425981999997,157.0425981999997,157.0425981999997,157.0425981999997,,001,P011,2025_Feb_08_1015,CategoryLocalizer,2021.2.3,59.9300855623445,
122.0,122.8,4,0.75,Stimuli\ImageFiles-Set1\Scenes\Scenes_027.png,0,0,0,198,198,198,,,,,,,,,,,,,122.0069037000003,0.006903700000293611,None,157.24274779999996,157.24274779999996,157.24274779999996,157.24274779999996,157.24274779999996,157.24274779999996,157.24274779999996,157.24274779999996,,001,P011,2025_Feb_08_1015,CategoryLocalizer,2021.2.3,59.9300855623445,
122.8,123.0,5,0.0,Stimuli\Blank.png,0,0,0,199,199,199,,,,,,,,,,,,,122.82600579999962,0.02600579999962349,None,158.06014589999995,158.06014589999995,158.06014589999995,158.06014589999995,158.06014589999995,158.06014589999995,158.06014589999995,158.06014589999995,,001,P011,2025_Feb_08_1015,CategoryLocalizer,2021.2.3,59.9300855623445,
123.0,123.8,4,0.75,Stimuli\ImageFiles-Set1\Scenes\Scenes_024.png,0,0,0,200,200,200,,,,,,,,,,,,,123.02557799999977,0.025577999999768508,None,158.2769916999996,158.2769916999996,158.2769916999996,158.2769916999996,158.2769916999996,158.2769916999996,158.2769916999996,158.2769916999996,,001,P011,2025_Feb_08_1015,CategoryLocalizer,2021.2.3,59.9300855623445,
123.8,124.0,5,0.0,Stimuli\Blank.png,0,0,0,201,201,201,,,,,,,,,,,,,123.84181089999947,0.04181089999947574,None,159.06101489999946,159.06101489999946,159.06101489999946,159.06101489999946,159.06101489999946,159.06101489999946,159.06101489999946,159.06101489999946,,001,P011,2025_Feb_08_1015,CategoryLocalizer,2021.2.3,59.9300855623445,
124.0,124.8,4,0.75,Stimuli\ImageFiles-Set1\Scenes\Scenes_044.png,0,0,0,202,202,202,,,,,,,,,,,,,124.00939259999996,0.009392599999955564,None,159.2445447,159.2445447,159.2445447,159.2445447,159.2445447,159.2445447,159.2445447,159.2445447,,001,P011,2025_Feb_08_1015,CategoryLocalizer,2021.2.3,59.9300855623445,
124.8,125.0,5,0.0,Stimuli\Blank.png,0,0,0,203,203,203,,,,,,,,,,,,,124.8254608999996,0.025460899999600883,None,160.04522459999953,160.04522459999953,160.04522459999953,160.04522459999953,160.04522459999953,160.04522459999953,160.04522459999953,160.04522459999953,,001,P011,2025_Feb_08_1015,CategoryLocalizer,2021.2.3,59.9300855623445,
125.0,125.8,4,0.75,Stimuli\ImageFiles-Set1\Scenes\Scenes_013.png,0,0,0,204,204,204,,,,,,,,,,,,,125.00990559999991,0.009905599999910919,None,160.24539679999998,160.24539679999998,160.24539679999998,160.24539679999998,160.24539679999998,160.24539679999998,160.24539679999998,160.24539679999998,,001,P011,2025_Feb_08_1015,CategoryLocalizer,2021.2.3,59.9300855623445,
125.8,126.0,5,0.0,Stimuli\Blank.png,0,0,0,205,205,205,,,,,,,,,,,,,125.8269565999999,0.02695659999990596,None,161.04616859999987,161.04616859999987,161.04616859999987,161.04616859999987,161.04616859999987,161.04616859999987,161.04616859999987,161.04616859999987,,001,P011,2025_Feb_08_1015,CategoryLocalizer,2021.2.3,59.9300855623445,
126.0,126.8,4,0.75,Stimuli\ImageFiles-Set1\Scenes\Scenes_013.png,1,1,0,206,206,206,,,,,,,,,,,,,126.0104752999996,0.010475299999598064,1,161.2296034000001,161.2296034000001,161.2296034000001,161.2296034000001,161.2296034000001,161.2296034000001,161.2296034000001,161.2296034000001,0.5603373000003558,001,P011,2025_Feb_08_1015,CategoryLocalizer,2021.2.3,59.9300855623445,
126.8,127.0,5,0.0,Stimuli\Blank.png,0,0,0,207,207,207,,,,,,,,,,,,,126.81104450000021,0.011044500000210178,None,162.0303217999999,162.0303217999999,162.0303217999999,162.0303217999999,162.0303217999999,162.0303217999999,162.0303217999999,162.0303217999999,,001,P011,2025_Feb_08_1015,CategoryLocalizer,2021.2.3,59.9300855623445,
127.0,127.8,4,0.75,Stimuli\ImageFiles-Set1\Scenes\Scenes_006.png,0,0,0,208,208,208,,,,,,,,,,,,,127.01135929999964,0.011359299999639916,None,162.26385039999968,162.26385039999968,162.26385039999968,162.26385039999968,162.26385039999968,162.26385039999968,162.26385039999968,162.26385039999968,,001,P011,2025_Feb_08_1015,CategoryLocalizer,2021.2.3,59.9300855623445,
127.8,128.0,5,0.0,Stimuli\Blank.png,0,0,0,209,209,209,,,,,,,,,,,,,127.84571349999987,0.04571349999987717,None,163.0645674999996,163.0645674999996,163.0645674999996,163.0645674999996,163.0645674999996,163.0645674999996,163.0645674999996,163.0645674999996,,001,P011,2025_Feb_08_1015,CategoryLocalizer,2021.2.3,59.9300855623445,
128.0,128.8,4,0.75,Stimuli\ImageFiles-Set1\Scenes\Scenes_033.png,0,0,0,210,210,210,,,,,,,,,,,,,128.0121890999999,0.012189099999886821,None,163.2647379,163.2647379,163.2647379,163.2647379,163.2647379,163.2647379,163.2647379,163.2647379,,001,P011,2025_Feb_08_1015,CategoryLocalizer,2021.2.3,59.9300855623445,
128.8,129.0,5,0.0,Stimuli\Blank.png,0,0,0,211,211,211,,,,,,,,,,,,,128.8455702000001,0.0455702000000997,None,164.06544649999978,164.06544649999978,164.06544649999978,164.06544649999978,164.06544649999978,164.06544649999978,164.06544649999978,164.06544649999978,,001,P011,2025_Feb_08_1015,CategoryLocalizer,2021.2.3,59.9300855623445,
129.0,129.8,4,0.75,Stimuli\ImageFiles-Set1\Scenes\Scenes_048.png,0,0,0,212,212,212,,,,,,,,,,,,,129.01231629999984,0.01231629999983852,None,164.2656667000001,164.2656667000001,164.2656667000001,164.2656667000001,164.2656667000001,164.2656667000001,164.2656667000001,164.2656667000001,,001,P011,2025_Feb_08_1015,CategoryLocalizer,2021.2.3,59.9300855623445,
129.8,130.0,5,0.0,Stimuli\Blank.png,0,0,0,213,213,213,,,,,,,,,,,,,129.8473197000003,0.04731970000028696,None,165.06633349999993,165.06633349999993,165.06633349999993,165.06633349999993,165.06633349999993,165.06633349999993,165.06633349999993,165.06633349999993,,001,P011,2025_Feb_08_1015,CategoryLocalizer,2021.2.3,59.9300855623445,
130.0,130.8,4,0.75,Stimuli\ImageFiles-Set1\Scenes\Scenes_053.png,0,0,0,214,214,214,,,,,,,,,,,,,130.0139193999994,0.013919399999394955,None,165.26652099999956,165.26652099999956,165.26652099999956,165.26652099999956,165.26652099999956,165.26652099999956,165.26652099999956,165.26652099999956,,001,P011,2025_Feb_08_1015,CategoryLocalizer,2021.2.3,59.9300855623445,
130.8,131.0,5,0.0,Stimuli\Blank.png,0,0,0,215,215,215,,,,,,,,,,,,,130.8472458999995,0.04724589999949558,None,166.06721789999938,166.06721789999938,166.06721789999938,166.06721789999938,166.06721789999938,166.06721789999938,166.06721789999938,166.06721789999938,,001,P011,2025_Feb_08_1015,CategoryLocalizer,2021.2.3,59.9300855623445,
131.0,131.8,4,0.75,Stimuli\ImageFiles-Set1\Scenes\Scenes_012.png,0,0,0,216,216,216,,,,,,,,,,,,,131.0157107999994,0.01571079999939684,None,166.26740489999975,166.26740489999975,166.26740489999975,166.26740489999975,166.26740489999975,166.26740489999975,166.26740489999975,166.26740489999975,,001,P011,2025_Feb_08_1015,CategoryLocalizer,2021.2.3,59.9300855623445,
131.8,132.0,5,0.0,Stimuli\Blank.png,0,0,0,217,217,217,,,,,,,,,,,,,131.83150659999956,0.031506599999545415,None,167.05142049999995,167.05142049999995,167.05142049999995,167.05142049999995,167.05142049999995,167.05142049999995,167.05142049999995,167.05142049999995,,001,P011,2025_Feb_08_1015,CategoryLocalizer,2021.2.3,59.9300855623445,
132.0,132.8,4,0.75,Stimuli\ImageFiles-Set1\Scenes\Scenes_004.png,0,0,0,218,218,218,,,,,,,,,,,,,132.01509170000008,0.01509170000008453,None,167.25162120000005,167.25162120000005,167.25162120000005,167.25162120000005,167.25162120000005,167.25162120000005,167.25162120000005,167.25162120000005,,001,P011,2025_Feb_08_1015,CategoryLocalizer,2021.2.3,59.9300855623445,
132.8,133.0,5,0.0,Stimuli\Blank.png,0,0,0,219,219,219,,,,,,,,,,,,,132.8163857999998,0.016385799999795836,None,168.03560759999982,168.03560759999982,168.03560759999982,168.03560759999982,168.03560759999982,168.03560759999982,168.03560759999982,168.03560759999982,,001,P011,2025_Feb_08_1015,CategoryLocalizer,2021.2.3,59.9300855623445,
133.0,133.8,4,0.75,Stimuli\ImageFiles-Set1\Scenes\Scenes_046.png,0,0,0,220,220,220,,,,,,,,,,,,,132.99983900000007,-0.0001609999999345746,None,168.2524956999996,168.2524956999996,168.2524956999996,168.2524956999996,168.2524956999996,168.2524956999996,168.2524956999996,168.2524956999996,,001,P011,2025_Feb_08_1015,CategoryLocalizer,2021.2.3,59.9300855623445,
133.8,134.0,5,0.0,Stimuli\Blank.png,0,0,0,221,221,221,,,,,,,,,,,,,133.83488209999996,0.03488209999994751,None,169.05318609999995,169.05318609999995,169.05318609999995,169.05318609999995,169.05318609999995,169.05318609999995,169.05318609999995,169.05318609999995,,001,P011,2025_Feb_08_1015,CategoryLocalizer,2021.2.3,59.9300855623445,
134.0,134.8,4,0.75,Stimuli\ImageFiles-Set1\Scenes\Scenes_036.png,0,0,0,222,222,222,,,,,,,,,,,,,134.0006768000003,0.0006768000002921326,None,169.2533588999995,169.2533588999995,169.2533588999995,169.2533588999995,169.2533588999995,169.2533588999995,169.2533588999995,169.2533588999995,,001,P011,2025_Feb_08_1015,CategoryLocalizer,2021.2.3,59.9300855623445,
134.8,135.0,5,0.0,Stimuli\Blank.png,0,0,0,223,223,223,,,,,,,,,,,,,134.83504819999962,0.03504819999960773,None,170.0540863999995,170.0540863999995,170.0540863999995,170.0540863999995,170.0540863999995,170.0540863999995,170.0540863999995,170.0540863999995,,001,P011,2025_Feb_08_1015,CategoryLocalizer,2021.2.3,59.9300855623445,
135.0,135.8,4,0.75,Stimuli\ImageFiles-Set1\Scenes\Scenes_050.png,0,0,0,224,224,224,,,,,,,,,,,,,135.00117169999976,0.0011716999997588573,None,170.23757419999947,170.23757419999947,170.23757419999947,170.23757419999947,170.23757419999947,170.23757419999947,170.23757419999947,170.23757419999947,,001,P011,2025_Feb_08_1015,CategoryLocalizer,2021.2.3,59.9300855623445,
135.8,136.0,5,0.0,Stimuli\Blank.png,0,0,0,225,225,225,,,,,,,,,,,,,135.82023839999965,0.020238399999641388,None,171.0549688000001,171.0549688000001,171.0549688000001,171.0549688000001,171.0549688000001,171.0549688000001,171.0549688000001,171.0549688000001,,001,P011,2025_Feb_08_1015,CategoryLocalizer,2021.2.3,59.9300855623445,
136.0,136.8,2,0.75,Stimuli\ImageFiles-Set1\Bodies\Bodies_Falling_00004.png,0,0,0,226,226,226,,,,,,,,,,,,,136.01856559999942,0.018565599999419646,None,171.2551752999998,171.2551752999998,171.2551752999998,171.2551752999998,171.2551752999998,171.2551752999998,171.2551752999998,171.2551752999998,,001,P011,2025_Feb_08_1015,CategoryLocalizer,2021.2.3,59.9300855623445,
136.8,137.0,5,0.0,Stimuli\Blank.png,0,0,0,227,227,227,,,,,,,,,,,,,136.82011619999957,0.020116199999563378,None,172.03918329999942,172.03918329999942,172.03918329999942,172.03918329999942,172.03918329999942,172.03918329999942,172.03918329999942,172.03918329999942,,001,P011,2025_Feb_08_1015,CategoryLocalizer,2021.2.3,59.9300855623445,
137.0,137.8,2,0.75,Stimuli\ImageFiles-Set1\Bodies\Bodies_DownwardDog_00007.png,0,0,0,228,228,228,,,,,,,,,,,,,137.0052670999994,0.005267099999400671,None,172.23932710000008,172.23932710000008,172.23932710000008,172.23932710000008,172.23932710000008,172.23932710000008,172.23932710000008,172.23932710000008,,001,P011,2025_Feb_08_1015,CategoryLocalizer,2021.2.3,59.9300855623445,
137.8,138.0,5,0.0,Stimuli\Blank.png,0,0,0,229,229,229,,,,,,,,,,,,,137.82094659999984,0.020946599999831506,None,173.04005489999963,173.04005489999963,173.04005489999963,173.04005489999963,173.04005489999963,173.04005489999963,173.04005489999963,173.04005489999963,,001,P011,2025_Feb_08_1015,CategoryLocalizer,2021.2.3,59.9300855623445,
138.0,138.8,2,0.75,Stimuli\ImageFiles-Set1\Bodies\Bodies_Standing_00003.png,0,0,0,230,230,230,,,,,,,,,,,,,138.00356360000023,0.003563600000234146,None,173.24027529999967,173.24027529999967,173.24027529999967,173.24027529999967,173.24027529999967,173.24027529999967,173.24027529999967,173.24027529999967,,001,P011,2025_Feb_08_1015,CategoryLocalizer,2021.2.3,59.9300855623445,
138.8,139.0,5,0.0,Stimuli\Blank.png,0,0,0,231,231,231,,,,,,,,,,,,,138.82101799999964,0.0210179999996285,None,174.04093740000008,174.04093740000008,174.04093740000008,174.04093740000008,174.04093740000008,174.04093740000008,174.04093740000008,174.04093740000008,,001,P011,2025_Feb_08_1015,CategoryLocalizer,2021.2.3,59.9300855623445,
139.0,139.8,2,0.75,Stimuli\ImageFiles-Set1\Bodies\Bodies_SittingChair_00003.png,0,0,0,232,232,232,,,,,,,,,,,,,139.00516319999952,0.0051631999995152,None,174.25781869999992,174.25781869999992,174.25781869999992,174.25781869999992,174.25781869999992,174.25781869999992,174.25781869999992,174.25781869999992,,001,P011,2025_Feb_08_1015,CategoryLocalizer,2021.2.3,59.9300855623445,
139.8,140.0,5,0.0,Stimuli\Blank.png,0,0,0,233,233,233,,,,,,,,,,,,,139.8393973000002,0.03939730000018926,None,175.05851170000005,175.05851170000005,175.05851170000005,175.05851170000005,175.05851170000005,175.05851170000005,175.05851170000005,175.05851170000005,,001,P011,2025_Feb_08_1015,CategoryLocalizer,2021.2.3,59.9300855623445,
140.0,140.8,2,0.75,Stimuli\ImageFiles-Set1\Bodies\Bodies_Walking_00002.png,0,0,0,234,234,234,,,,,,,,,,,,,140.00596349999978,0.005963499999779742,None,175.24199510000017,175.24199510000017,175.24199510000017,175.24199510000017,175.24199510000017,175.24199510000017,175.24199510000017,175.24199510000017,,001,P011,2025_Feb_08_1015,CategoryLocalizer,2021.2.3,59.9300855623445,
140.8,141.0,5,0.0,Stimuli\Blank.png,0,0,0,235,235,235,,,,,,,,,,,,,140.82503610000003,0.025036100000022543,None,176.05940379999993,176.05940379999993,176.05940379999993,176.05940379999993,176.05940379999993,176.05940379999993,176.05940379999993,176.05940379999993,,001,P011,2025_Feb_08_1015,CategoryLocalizer,2021.2.3,59.9300855623445,
141.0,141.8,2,0.75,Stimuli\ImageFiles-Set1\Bodies\Bodies_PushUp_00002.png,0,0,0,236,236,236,,,,,,,,,,,,,141.0253915000003,0.02539150000029622,None,176.2595627999999,176.2595627999999,176.2595627999999,176.2595627999999,176.2595627999999,176.2595627999999,176.2595627999999,176.2595627999999,,001,P011,2025_Feb_08_1015,CategoryLocalizer,2021.2.3,59.9300855623445,
141.8,142.0,5,0.0,Stimuli\Blank.png,0,0,0,237,237,237,,,,,,,,,,,,,141.82642469999973,0.026424699999722634,None,177.06028689999948,177.06028689999948,177.06028689999948,177.06028689999948,177.06028689999948,177.06028689999948,177.06028689999948,177.06028689999948,,001,P011,2025_Feb_08_1015,CategoryLocalizer,2021.2.3,59.9300855623445,
142.0,142.8,2,0.75,Stimuli\ImageFiles-Set1\Bodies\Bodies_PushUp_00002.png,1,1,0,238,238,238,,,,,,,,,,,,,142.02667180000026,0.026671800000258372,1,177.2604854000001,177.2604854000001,177.2604854000001,177.2604854000001,177.2604854000001,177.2604854000001,177.2604854000001,177.2604854000001,0.33746510000037233,001,P011,2025_Feb_08_1015,CategoryLocalizer,2021.2.3,59.9300855623445,
142.8,143.0,5,0.0,Stimuli\Blank.png,0,0,0,239,239,239,,,,,,,,,,,,,142.8248291,0.024829099999976734,None,178.04450850000012,178.04450850000012,178.04450850000012,178.04450850000012,178.04450850000012,178.04450850000012,178.04450850000012,178.04450850000012,,001,P011,2025_Feb_08_1015,CategoryLocalizer,2021.2.3,59.9300855623445,
143.0,143.8,2,0.75,Stimuli\ImageFiles-Set1\Bodies\Bodies_Falling_00006.png,0,0,0,240,240,240,,,,,,,,,,,,,143.00863070000014,0.008630700000139768,None,178.24464949999947,178.24464949999947,178.24464949999947,178.24464949999947,178.24464949999947,178.24464949999947,178.24464949999947,178.24464949999947,,001,P011,2025_Feb_08_1015,CategoryLocalizer,2021.2.3,59.9300855623445,
143.8,144.0,5,0.0,Stimuli\Blank.png,0,0,0,241,241,241,,,,,,,,,,,,,143.8257096999996,0.02570969999959516,None,179.04546839999966,179.04546839999966,179.04546839999966,179.04546839999966,179.04546839999966,179.04546839999966,179.04546839999966,179.04546839999966,,001,P011,2025_Feb_08_1015,CategoryLocalizer,2021.2.3,59.9300855623445,
144.0,144.8,2,0.75,Stimuli\ImageFiles-Set1\Bodies\Bodies_QuadStretch_00003.png,0,0,0,242,242,242,,,,,,,,,,,,,144.00988379999944,0.009883799999443,None,179.22888069999954,179.22888069999954,179.22888069999954,179.22888069999954,179.22888069999954,179.22888069999954,179.22888069999954,179.22888069999954,,001,P011,2025_Feb_08_1015,CategoryLocalizer,2021.2.3,59.9300855623445,
144.8,145.0,5,0.0,Stimuli\Blank.png,0,0,0,243,243,243,,,,,,,,,,,,,144.81025059999956,0.010250599999551468,None,180.02958750000016,180.02958750000016,180.02958750000016,180.02958750000016,180.02958750000016,180.02958750000016,180.02958750000016,180.02958750000016,,001,P011,2025_Feb_08_1015,CategoryLocalizer,2021.2.3,59.9300855623445,
145.0,145.8,2,0.75,Stimuli\ImageFiles-Set1\Bodies\Bodies_Pushing_00005.png,0,0,0,244,244,244,,,,,,,,,,,,,145.0098938000001,0.009893800000099873,None,180.2464656000002,180.2464656000002,180.2464656000002,180.2464656000002,180.2464656000002,180.2464656000002,180.2464656000002,180.2464656000002,,001,P011,2025_Feb_08_1015,CategoryLocalizer,2021.2.3,59.9300855623445,
145.8,146.0,5,0.0,Stimuli\Blank.png,0,0,0,245,245,245,,,,,,,,,,,,,145.8275010999996,0.027501099999597045,None,181.04713679999986,181.04713679999986,181.04713679999986,181.04713679999986,181.04713679999986,181.04713679999986,181.04713679999986,181.04713679999986,,001,P011,2025_Feb_08_1015,CategoryLocalizer,2021.2.3,59.9300855623445,
146.0,146.8,2,0.75,Stimuli\ImageFiles-Set1\Bodies\Bodies_SittingFloor_00007.png,0,0,0,246,246,246,,,,,,,,,,,,,146.01073259999976,0.010732599999755621,None,181.24736219999977,181.24736219999977,181.24736219999977,181.24736219999977,181.24736219999977,181.24736219999977,181.24736219999977,181.24736219999977,,001,P011,2025_Feb_08_1015,CategoryLocalizer,2021.2.3,59.9300855623445,
146.8,147.0,5,0.0,Stimuli\Blank.png,0,0,0,247,247,247,,,,,,,,,,,,,146.83011910000005,0.030119100000035814,None,182.06477919999998,182.06477919999998,182.06477919999998,182.06477919999998,182.06477919999998,182.06477919999998,182.06477919999998,182.06477919999998,,001,P011,2025_Feb_08_1015,CategoryLocalizer,2021.2.3,59.9300855623445,
147.0,147.8,2,0.75,Stimuli\ImageFiles-Set1\Bodies\Bodies_DownwardDog_00005.png,1,1,0,248,248,248,,,,,,,,,,,,,147.0302187999996,0.030218799999602197,None,182.26490139999987,182.26490139999987,182.26490139999987,182.26490139999987,182.26490139999987,182.26490139999987,182.26490139999987,182.26490139999987,,001,P011,2025_Feb_08_1015,CategoryLocalizer,2021.2.3,59.9300855623445,
147.8,148.0,5,0.0,Stimuli\Blank.png,0,0,0,249,249,249,,,,,,,,,,,,,147.82911400000012,0.029114000000106444,None,183.04894819999936,183.04894819999936,183.04894819999936,183.04894819999936,183.04894819999936,183.04894819999936,183.04894819999936,183.04894819999936,,001,P011,2025_Feb_08_1015,CategoryLocalizer,2021.2.3,59.9300855623445,
148.0,148.8,2,0.75,Stimuli\ImageFiles-Set1\Bodies\Bodies_QuadStretch_00001.png,0,0,0,250,250,250,,,,,,,,,,,,,148.0129108000001,0.012910800000099698,None,183.24908239999968,183.24908239999968,183.24908239999968,183.24908239999968,183.24908239999968,183.24908239999968,183.24908239999968,183.24908239999968,,001,P011,2025_Feb_08_1015,CategoryLocalizer,2021.2.3,59.9300855623445,
148.8,149.0,5,0.0,Stimuli\Blank.png,0,0,0,251,251,251,,,,,,,,,,,,,148.83059969999977,0.030599699999754648,None,184.04979920000005,184.04979920000005,184.04979920000005,184.04979920000005,184.04979920000005,184.04979920000005,184.04979920000005,184.04979920000005,,001,P011,2025_Feb_08_1015,CategoryLocalizer,2021.2.3,59.9300855623445,
149.0,149.8,2,0.75,Stimuli\ImageFiles-Set1\Bodies\Bodies_QuadStretch_00001.png,0,0,0,252,252,252,,,,,,,,,,,,,149.01405729999988,0.014057299999876705,1,184.2332822999997,184.2332822999997,184.2332822999997,184.2332822999997,184.2332822999997,184.2332822999997,184.2332822999997,184.2332822999997,0.3567343000004257,001,P011,2025_Feb_08_1015,CategoryLocalizer,2021.2.3,59.9300855623445,
149.8,150.0,5,0.0,Stimuli\Blank.png,0,0,0,253,253,253,,,,,,,,,,,,,149.81480490000013,0.01480490000011514,None,185.0339997000001,185.0339997000001,185.0339997000001,185.0339997000001,185.0339997000001,185.0339997000001,185.0339997000001,185.0339997000001,,001,P011,2025_Feb_08_1015,CategoryLocalizer,2021.2.3,59.9300855623445,
150.0,150.8,2,0.75,Stimuli\ImageFiles-Set1\Bodies\Bodies_Punching_00006.png,0,0,0,254,254,254,,,,,,,,,,,,,150.01456189999953,0.014561899999534944,None,185.23416439999983,185.23416439999983,185.23416439999983,185.23416439999983,185.23416439999983,185.23416439999983,185.23416439999983,185.23416439999983,,001,P011,2025_Feb_08_1015,CategoryLocalizer,2021.2.3,59.9300855623445,
150.8,151.0,5,0.0,Stimuli\Blank.png,0,0,0,255,255,255,,,,,,,,,,,,,150.81682509999973,0.01682509999972126,None,186.05157859999963,186.05157859999963,186.05157859999963,186.05157859999963,186.05157859999963,186.05157859999963,186.05157859999963,186.05157859999963,,001,P011,2025_Feb_08_1015,CategoryLocalizer,2021.2.3,59.9300855623445,
151.0,151.8,2,0.75,Stimuli\ImageFiles-Set1\Bodies\Bodies_Walking_00004.png,0,0,0,256,256,256,,,,,,,,,,,,,151.01588129999982,0.01588129999981902,None,186.25173600000016,186.25173600000016,186.25173600000016,186.25173600000016,186.25173600000016,186.25173600000016,186.25173600000016,186.25173600000016,,001,P011,2025_Feb_08_1015,CategoryLocalizer,2021.2.3,59.9300855623445,
151.8,152.0,5,0.0,Stimuli\Blank.png,0,0,0,257,257,257,,,,,,,,,,,,,151.81657209999958,0.016572099999564216,None,187.03576689999954,187.03576689999954,187.03576689999954,187.03576689999954,187.03576689999954,187.03576689999954,187.03576689999954,187.03576689999954,,001,P011,2025_Feb_08_1015,CategoryLocalizer,2021.2.3,59.9300855623445,
152.0,164.0,0,0.0,Stimuli\Blank.png,0,0,0,258,258,258,,,,,,,,,,,,,152.00006209999992,6.209999992279336e-05,None,187.21922639999957,187.21922639999957,187.21922639999957,187.21922639999957,187.21922639999957,187.21922639999957,187.21922639999957,187.21922639999957,,001,P011,2025_Feb_08_1015,CategoryLocalizer,2021.2.3,59.9300855623445,
164.0,164.8,4,0.75,Stimuli\ImageFiles-Set1\Scenes\Scenes_047.png,0,0,0,259,259,259,,,,,,,,,,,,,164.01049590000002,0.01049590000002354,None,199.24656159999995,199.24656159999995,199.24656159999995,199.24656159999995,199.24656159999995,199.24656159999995,199.24656159999995,199.24656159999995,,001,P011,2025_Feb_08_1015,CategoryLocalizer,2021.2.3,59.9300855623445,
164.8,165.0,5,0.0,Stimuli\Blank.png,0,0,0,260,260,260,,,,,,,,,,,,,164.83020979999947,0.03020979999945439,None,200.0639540000002,200.0639540000002,200.0639540000002,200.0639540000002,200.0639540000002,200.0639540000002,200.0639540000002,200.0639540000002,,001,P011,2025_Feb_08_1015,CategoryLocalizer,2021.2.3,59.9300855623445,
165.0,165.8,4,0.75,Stimuli\ImageFiles-Set1\Scenes\Scenes_028.png,0,0,0,261,261,261,,,,,,,,,,,,,165.02773919999981,0.027739199999814446,None,200.2641265000002,200.2641265000002,200.2641265000002,200.2641265000002,200.2641265000002,200.2641265000002,200.2641265000002,200.2641265000002,,001,P011,2025_Feb_08_1015,CategoryLocalizer,2021.2.3,59.9300855623445,
165.8,166.0,5,0.0,Stimuli\Blank.png,0,0,0,262,262,262,,,,,,,,,,,,,165.829831,0.029831000000001495,None,201.04817099999946,201.04817099999946,201.04817099999946,201.04817099999946,201.04817099999946,201.04817099999946,201.04817099999946,201.04817099999946,,001,P011,2025_Feb_08_1015,CategoryLocalizer,2021.2.3,59.9300855623445,
166.0,166.8,4,0.75,Stimuli\ImageFiles-Set1\Scenes\Scenes_011.png,0,0,0,263,263,263,,,,,,,,,,,,,166.0121806999996,0.012180699999589706,None,201.24833260000014,201.24833260000014,201.24833260000014,201.24833260000014,201.24833260000014,201.24833260000014,201.24833260000014,201.24833260000014,,001,P011,2025_Feb_08_1015,CategoryLocalizer,2021.2.3,59.9300855623445,
166.8,167.0,5,0.0,Stimuli\Blank.png,0,0,0,264,264,264,,,,,,,,,,,,,166.82980210000005,0.029802100000040355,None,202.04904869999973,202.04904869999973,202.04904869999973,202.04904869999973,202.04904869999973,202.04904869999973,202.04904869999973,202.04904869999973,,001,P011,2025_Feb_08_1015,CategoryLocalizer,2021.2.3,59.9300855623445,
167.0,167.8,4,0.75,Stimuli\ImageFiles-Set1\Scenes\Scenes_002.png,0,0,0,265,265,265,,,,,,,,,,,,,167.01527449999958,0.015274499999577529,None,202.26589909999984,202.26589909999984,202.26589909999984,202.26589909999984,202.26589909999984,202.26589909999984,202.26589909999984,202.26589909999984,,001,P011,2025_Feb_08_1015,CategoryLocalizer,2021.2.3,59.9300855623445,
167.8,168.0,5,0.0,Stimuli\Blank.png,0,0,0,266,266,266,,,,,,,,,,,,,167.83074169999963,0.030741699999623506,None,203.04993730000024,203.04993730000024,203.04993730000024,203.04993730000024,203.04993730000024,203.04993730000024,203.04993730000024,203.04993730000024,,001,P011,2025_Feb_08_1015,CategoryLocalizer,2021.2.3,59.9300855623445,
168.0,168.8,4,0.75,Stimuli\ImageFiles-Set1\Scenes\Scenes_002.png,1,1,0,267,267,267,,,,,,,,,,,,,168.01627050000025,0.016270500000246102,1,203.25009989999944,203.25009989999944,203.25009989999944,203.25009989999944,203.25009989999944,203.25009989999944,203.25009989999944,203.25009989999944,0.45789160000003903,001,P011,2025_Feb_08_1015,CategoryLocalizer,2021.2.3,59.9300855623445,
168.8,169.0,5,0.0,Stimuli\Blank.png,0,0,0,268,268,268,,,,,,,,,,,,,168.81495339999947,0.014953399999455996,None,204.0341228999996,204.0341228999996,204.0341228999996,204.0341228999996,204.0341228999996,204.0341228999996,204.0341228999996,204.0341228999996,,001,P011,2025_Feb_08_1015,CategoryLocalizer,2021.2.3,59.9300855623445,
169.0,169.8,4,0.75,Stimuli\ImageFiles-Set1\Scenes\Scenes_059.png,0,0,0,269,269,269,,,,,,,,,,,,,169.0149980999995,0.014998099999502301,None,204.26766419999967,204.26766419999967,204.26766419999967,204.26766419999967,204.26766419999967,204.26766419999967,204.26766419999967,204.26766419999967,,001,P011,2025_Feb_08_1015,CategoryLocalizer,2021.2.3,59.9300855623445,
169.8,170.0,5,0.0,Stimuli\Blank.png,0,0,0,270,270,270,,,,,,,,,,,,,169.8324051999998,0.032405199999800516,None,205.05169939999996,205.05169939999996,205.05169939999996,205.05169939999996,205.05169939999996,205.05169939999996,205.05169939999996,205.05169939999996,,001,P011,2025_Feb_08_1015,CategoryLocalizer,2021.2.3,59.9300855623445,
170.0,170.8,4,0.75,Stimuli\ImageFiles-Set1\Scenes\Scenes_052.png,0,0,0,271,271,271,,,,,,,,,,,,,170.0011470999998,0.001147099999798229,None,205.23520819999976,205.23520819999976,205.23520819999976,205.23520819999976,205.23520819999976,205.23520819999976,205.23520819999976,205.23520819999976,,001,P011,2025_Feb_08_1015,CategoryLocalizer,2021.2.3,59.9300855623445,
170.8,171.0,5,0.0,Stimuli\Blank.png,0,0,0,272,272,272,,,,,,,,,,,,,170.81660999999986,0.016609999999843694,None,206.0359115000001,206.0359115000001,206.0359115000001,206.0359115000001,206.0359115000001,206.0359115000001,206.0359115000001,206.0359115000001,,001,P011,2025_Feb_08_1015,CategoryLocalizer,2021.2.3,59.9300855623445,
171.0,171.8,4,0.75,Stimuli\ImageFiles-Set1\Scenes\Scenes_039.png,0,0,0,273,273,273,,,,,,,,,,,,,170.99973659999978,-0.00026340000022173626,None,206.25277949999963,206.25277949999963,206.25277949999963,206.25277949999963,206.25277949999963,206.25277949999963,206.25277949999963,206.25277949999963,,001,P011,2025_Feb_08_1015,CategoryLocalizer,2021.2.3,59.9300855623445,
171.8,172.0,5,0.0,Stimuli\Blank.png,0,0,0,274,274,274,,,,,,,,,,,,,171.8355260999997,0.03552609999968581,None,207.07016419999945,207.07016419999945,207.07016419999945,207.07016419999945,207.07016419999945,207.07016419999945,207.07016419999945,207.07016419999945,,001,P011,2025_Feb_08_1015,CategoryLocalizer,2021.2.3,59.9300855623445,
172.0,172.8,4,0.75,Stimuli\ImageFiles-Set1\Scenes\Scenes_021.png,0,0,0,275,275,275,,,,,,,,,,,,,172.01713599999948,0.01713599999948201,None,207.25365359999978,207.25365359999978,207.25365359999978,207.25365359999978,207.25365359999978,207.25365359999978,207.25365359999978,207.25365359999978,,001,P011,2025_Feb_08_1015,CategoryLocalizer,2021.2.3,59.9300855623445,
172.8,173.0,5,0.0,Stimuli\Blank.png,0,0,0,276,276,276,,,,,,,,,,,,,172.81801189999987,0.018011899999862635,None,208.03769439999996,208.03769439999996,208.03769439999996,208.03769439999996,208.03769439999996,208.03769439999996,208.03769439999996,208.03769439999996,,001,P011,2025_Feb_08_1015,CategoryLocalizer,2021.2.3,59.9300855623445,
173.0,173.8,4,0.75,Stimuli\ImageFiles-Set1\Scenes\Scenes_035.png,0,0,0,277,277,277,,,,,,,,,,,,,173.00122199999987,0.0012219999998706044,None,208.25452779999978,208.25452779999978,208.25452779999978,208.25452779999978,208.25452779999978,208.25452779999978,208.25452779999978,208.25452779999978,,001,P011,2025_Feb_08_1015,CategoryLocalizer,2021.2.3,59.9300855623445,
173.8,174.0,5,0.0,Stimuli\Blank.png,0,0,0,278,278,278,,,,,,,,,,,,,173.83550790000027,0.03550790000025472,None,209.05524779999996,209.05524779999996,209.05524779999996,209.05524779999996,209.05524779999996,209.05524779999996,209.05524779999996,209.05524779999996,,001,P011,2025_Feb_08_1015,CategoryLocalizer,2021.2.3,59.9300855623445,
174.0,174.8,4,0.75,Stimuli\ImageFiles-Set1\Scenes\Scenes_057.png,0,0,0,279,279,279,,,,,,,,,,,,,174.00236870000026,0.002368700000261015,None,209.25543070000003,209.25543070000003,209.25543070000003,209.25543070000003,209.25543070000003,209.25543070000003,209.25543070000003,209.25543070000003,,001,P011,2025_Feb_08_1015,CategoryLocalizer,2021.2.3,59.9300855623445,
174.8,175.0,5,0.0,Stimuli\Blank.png,0,0,0,280,280,280,,,,,,,,,,,,,174.83700839999983,0.037008399999820085,None,210.05612649999966,210.05612649999966,210.05612649999966,210.05612649999966,210.05612649999966,210.05612649999966,210.05612649999966,210.05612649999966,,001,P011,2025_Feb_08_1015,CategoryLocalizer,2021.2.3,59.9300855623445,
175.0,175.8,4,0.75,Stimuli\ImageFiles-Set1\Scenes\Scenes_019.png,0,0,0,281,281,281,,,,,,,,,,,,,175.0053969999999,0.005396999999902619,None,210.25630490000003,210.25630490000003,210.25630490000003,210.25630490000003,210.25630490000003,210.25630490000003,210.25630490000003,210.25630490000003,,001,P011,2025_Feb_08_1015,CategoryLocalizer,2021.2.3,59.9300855623445,
175.8,176.0,5,0.0,Stimuli\Blank.png,0,0,0,282,282,282,,,,,,,,,,,,,175.83748699999978,0.03748699999977134,None,211.05703749999975,211.05703749999975,211.05703749999975,211.05703749999975,211.05703749999975,211.05703749999975,211.05703749999975,211.05703749999975,,001,P011,2025_Feb_08_1015,CategoryLocalizer,2021.2.3,59.9300855623445,
176.0,176.8,4,0.75,Stimuli\ImageFiles-Set1\Scenes\Scenes_041.png,0,0,0,283,283,283,,,,,,,,,,,,,176.00408909999987,0.004089099999873724,None,211.25718619999952,211.25718619999952,211.25718619999952,211.25718619999952,211.25718619999952,211.25718619999952,211.25718619999952,211.25718619999952,,001,P011,2025_Feb_08_1015,CategoryLocalizer,2021.2.3,59.9300855623445,
176.8,177.0,5,0.0,Stimuli\Blank.png,0,0,0,284,284,284,,,,,,,,,,,,,176.83996109999953,0.039961099999516136,None,212.07462029999988,212.07462029999988,212.07462029999988,212.07462029999988,212.07462029999988,212.07462029999988,212.07462029999988,212.07462029999988,,001,P011,2025_Feb_08_1015,CategoryLocalizer,2021.2.3,59.9300855623445,
177.0,177.8,4,0.75,Stimuli\ImageFiles-Set1\Scenes\Scenes_058.png,0,0,0,285,285,285,,,,,,,,,,,,,177.02148820000002,0.021488200000021607,None,212.27476059999935,212.27476059999935,212.27476059999935,212.27476059999935,212.27476059999935,212.27476059999935,212.27476059999935,212.27476059999935,,001,P011,2025_Feb_08_1015,CategoryLocalizer,2021.2.3,59.9300855623445,
177.8,178.0,5,0.0,Stimuli\Blank.png,0,0,0,286,286,286,,,,,,,,,,,,,177.84028959999978,0.04028959999976678,None,213.05878739999935,213.05878739999935,213.05878739999935,213.05878739999935,213.05878739999935,213.05878739999935,213.05878739999935,213.05878739999935,,001,P011,2025_Feb_08_1015,CategoryLocalizer,2021.2.3,59.9300855623445,
