eventStartTime,eventEndTime,eventCond,imSize,imFile,repeatedImage,responseEvent,Events.thisRepN,Events.thisTrialN,Events.thisN,Events.thisIndex,Instructions.started,Instructions.stopped,participantReadyResponse.keys,participantReadyResponse.rt,participantReadyResponse.started,participantReadyResponse.stopped,startWaitforTrigger,triggerResponse.keys,triggerResponse.rt,triggerResponse.started,triggerResponse.stopped,globalTimer,actualStartTime,startTimingDiff,participantResponse.keys,participantResponse.started,participantResponse.stopped,image.started,image.stopped,fixationOutside.started,fixationOutside.stopped,fixationInside.started,fixationInside.stopped,participantResponse.rt,session,participant,date,expName,psychopyVersion,frameRate,
,,,,,,,,,,,12.579272700000729,None,2,18.734350799999447,12.579272700000729,None,,,,,,,,,,,,,,,,,,,002,P012,2025_Feb_08_1222,CategoryLocalizer,2021.2.3,59.94553348876264,
,,,,,,,,,,,,,,,,,31.32260110000061,5,14.362929499999154,31.3357718999996,None,,,,,,,,,,,,,,002,P012,2025_Feb_08_1222,CategoryLocalizer,2021.2.3,59.94553348876264,
0.0,12.0,0,0.0,Stimuli\Blank.png,0,0,0,0,0,0,,,,,,,,,,,,45.70178829999895,0.06366979999984324,0.06366979999984324,None,45.7818501999991,None,45.7818501999991,None,45.7818501999991,None,45.7818501999991,None,,002,P012,2025_Feb_08_1222,CategoryLocalizer,2021.2.3,59.94553348876264,
12.0,12.8,1,0.75,Stimuli\ImageFiles-Set2\Objects\Object_Lawnmower_00001.png,0,0,0,1,1,1,,,,,,,,,,,,,12.01132090000101,0.011320900001010159,None,57.72570459999952,57.72570459999952,57.72570459999952,57.72570459999952,57.72570459999952,57.72570459999952,57.72570459999952,57.72570459999952,,002,P012,2025_Feb_08_1222,CategoryLocalizer,2021.2.3,59.94553348876264,
12.8,13.0,5,0.0,Stimuli\Blank.png,0,0,0,2,2,2,,,,,,,,,,,,,12.809921300000497,0.009921300000495847,None,58.526443599999766,58.526443599999766,58.526443599999766,58.526443599999766,58.526443599999766,58.526443599999766,58.526443599999766,58.526443599999766,,002,P012,2025_Feb_08_1222,CategoryLocalizer,2021.2.3,59.94553348876264,
13.0,13.8,1,0.75,Stimuli\ImageFiles-Set2\Objects\Object_Tape_00001.png,0,0,0,3,3,3,,,,,,,,,,,,,13.011373600000297,0.011373600000297301,None,58.74343760000011,58.74343760000011,58.74343760000011,58.74343760000011,58.74343760000011,58.74343760000011,58.74343760000011,58.74343760000011,,002,P012,2025_Feb_08_1222,CategoryLocalizer,2021.2.3,59.94553348876264,
13.8,14.0,5,0.0,Stimuli\Blank.png,0,0,0,4,4,4,,,,,,,,,,,,,13.828880299999582,0.028880299999581638,None,59.544018000000506,59.544018000000506,59.544018000000506,59.544018000000506,59.544018000000506,59.544018000000506,59.544018000000506,59.544018000000506,,002,P012,2025_Feb_08_1222,CategoryLocalizer,2021.2.3,59.94553348876264,
14.0,14.8,1,0.75,Stimuli\ImageFiles-Set2\Objects\Object_Champagne_00001.png,0,0,0,5,5,5,,,,,,,,,,,,,14.011035999999876,0.011035999999876367,None,59.727579700000206,59.727579700000206,59.727579700000206,59.727579700000206,59.727579700000206,59.727579700000206,59.727579700000206,59.727579700000206,,002,P012,2025_Feb_08_1222,CategoryLocalizer,2021.2.3,59.94553348876264,
14.8,15.0,5,0.0,Stimuli\Blank.png,0,0,0,6,6,6,,,,,,,,,,,,,14.812867599999663,0.01286759999966236,None,60.5282260999993,60.5282260999993,60.5282260999993,60.5282260999993,60.5282260999993,60.5282260999993,60.5282260999993,60.5282260999993,,002,P012,2025_Feb_08_1222,CategoryLocalizer,2021.2.3,59.94553348876264,
15.0,15.8,1,0.75,Stimuli\ImageFiles-Set2\Objects\Object_Desk_00001.png,0,0,0,7,7,7,,,,,,,,,,,,,15.012668800000029,0.012668800000028568,None,60.72836509999979,60.72836509999979,60.72836509999979,60.72836509999979,60.72836509999979,60.72836509999979,60.72836509999979,60.72836509999979,,002,P012,2025_Feb_08_1222,CategoryLocalizer,2021.2.3,59.94553348876264,
15.8,16.0,5,0.0,Stimuli\Blank.png,0,0,0,8,8,8,,,,,,,,,,,,,15.813080899999477,0.013080899999476259,None,61.52910150000025,61.52910150000025,61.52910150000025,61.52910150000025,61.52910150000025,61.52910150000025,61.52910150000025,61.52910150000025,,002,P012,2025_Feb_08_1222,CategoryLocalizer,2021.2.3,59.94553348876264,
16.0,16.8,1,0.75,Stimuli\ImageFiles-Set2\Objects\Object_Switch_00001.png,0,0,0,9,9,9,,,,,,,,,,,,,16.013328099999853,0.013328099999853293,None,61.72928060000049,61.72928060000049,61.72928060000049,61.72928060000049,61.72928060000049,61.72928060000049,61.72928060000049,61.72928060000049,,002,P012,2025_Feb_08_1222,CategoryLocalizer,2021.2.3,59.94553348876264,
16.8,17.0,5,0.0,Stimuli\Blank.png,0,0,0,10,10,10,,,,,,,,,,,,,16.813597399999708,0.013597399999706994,None,62.53000190000057,62.53000190000057,62.53000190000057,62.53000190000057,62.53000190000057,62.53000190000057,62.53000190000057,62.53000190000057,,002,P012,2025_Feb_08_1222,CategoryLocalizer,2021.2.3,59.94553348876264,
17.0,17.8,1,0.75,Stimuli\ImageFiles-Set2\Objects\Object_Switch_00001.png,1,1,0,11,11,11,,,,,,,,,,,,,17.014396300000953,0.014396300000953488,2,62.730167800000345,62.730167800000345,62.730167800000345,62.730167800000345,62.730167800000345,62.730167800000345,62.730167800000345,62.730167800000345,0.5175779000001057,002,P012,2025_Feb_08_1222,CategoryLocalizer,2021.2.3,59.94553348876264,
17.8,18.0,5,0.0,Stimuli\Blank.png,0,0,0,12,12,12,,,,,,,,,,,,,17.81497660000059,0.014976600000590423,None,63.53087090000008,63.53087090000008,63.53087090000008,63.53087090000008,63.53087090000008,63.53087090000008,63.53087090000008,63.53087090000008,,002,P012,2025_Feb_08_1222,CategoryLocalizer,2021.2.3,59.94553348876264,
18.0,18.8,1,0.75,Stimuli\ImageFiles-Set2\Objects\Object_Flashlight_00001.png,0,0,0,13,13,13,,,,,,,,,,,,,18.016169500000615,0.01616950000061479,None,63.7477557000002,63.7477557000002,63.7477557000002,63.7477557000002,63.7477557000002,63.7477557000002,63.7477557000002,63.7477557000002,,002,P012,2025_Feb_08_1222,CategoryLocalizer,2021.2.3,59.94553348876264,
18.8,19.0,5,0.0,Stimuli\Blank.png,0,0,0,14,14,14,,,,,,,,,,,,,18.815364600000976,0.01536460000097506,None,64.53175539999938,64.53175539999938,64.53175539999938,64.53175539999938,64.53175539999938,64.53175539999938,64.53175539999938,64.53175539999938,,002,P012,2025_Feb_08_1222,CategoryLocalizer,2021.2.3,59.94553348876264,
19.0,19.8,1,0.75,Stimuli\ImageFiles-Set2\Objects\Object_Hamburger_00001.png,0,0,0,15,15,15,,,,,,,,,,,,,19.018202100000053,0.01820210000005318,None,64.74866490000022,64.74866490000022,64.74866490000022,64.74866490000022,64.74866490000022,64.74866490000022,64.74866490000022,64.74866490000022,,002,P012,2025_Feb_08_1222,CategoryLocalizer,2021.2.3,59.94553348876264,
19.8,20.0,5,0.0,Stimuli\Blank.png,0,0,0,16,16,16,,,,,,,,,,,,,19.817023400000835,0.017023400000834243,None,65.53271180000047,65.53271180000047,65.53271180000047,65.53271180000047,65.53271180000047,65.53271180000047,65.53271180000047,65.53271180000047,,002,P012,2025_Feb_08_1222,CategoryLocalizer,2021.2.3,59.94553348876264,
20.0,20.8,1,0.75,Stimuli\ImageFiles-Set2\Objects\Object_Coffee_00001.png,0,0,0,17,17,17,,,,,,,,,,,,,20.000432500000898,0.00043250000089756213,None,65.73281870000028,65.73281870000028,65.73281870000028,65.73281870000028,65.73281870000028,65.73281870000028,65.73281870000028,65.73281870000028,,002,P012,2025_Feb_08_1222,CategoryLocalizer,2021.2.3,59.94553348876264,
20.8,21.0,5,0.0,Stimuli\Blank.png,0,0,0,18,18,18,,,,,,,,,,,,,20.81717000000026,0.017170000000259478,None,66.5335785999996,66.5335785999996,66.5335785999996,66.5335785999996,66.5335785999996,66.5335785999996,66.5335785999996,66.5335785999996,,002,P012,2025_Feb_08_1222,CategoryLocalizer,2021.2.3,59.94553348876264,
21.0,21.8,1,0.75,Stimuli\ImageFiles-Set2\Objects\Object_Pitcher_00001.png,0,0,0,19,19,19,,,,,,,,,,,,,21.001816199999666,0.0018161999996664235,None,66.73370400000022,66.73370400000022,66.73370400000022,66.73370400000022,66.73370400000022,66.73370400000022,66.73370400000022,66.73370400000022,,002,P012,2025_Feb_08_1222,CategoryLocalizer,2021.2.3,59.94553348876264,
21.8,22.0,5,0.0,Stimuli\Blank.png,0,0,0,20,20,20,,,,,,,,,,,,,21.818740500000786,0.018740500000784976,None,67.5344198999992,67.5344198999992,67.5344198999992,67.5344198999992,67.5344198999992,67.5344198999992,67.5344198999992,67.5344198999992,,002,P012,2025_Feb_08_1222,CategoryLocalizer,2021.2.3,59.94553348876264,
22.0,22.8,1,0.75,Stimuli\ImageFiles-Set2\Objects\Object_Refrigerator_00001.png,1,1,0,21,21,21,,,,,,,,,,,,,22.002115200000844,0.0021152000008441973,None,67.71788379999998,67.71788379999998,67.71788379999998,67.71788379999998,67.71788379999998,67.71788379999998,67.71788379999998,67.71788379999998,,002,P012,2025_Feb_08_1222,CategoryLocalizer,2021.2.3,59.94553348876264,
22.8,23.0,5,0.0,Stimuli\Blank.png,0,0,0,22,22,22,,,,,,,,,,,,,22.803117200000997,0.0031172000009966894,None,68.51861199999985,68.51861199999985,68.51861199999985,68.51861199999985,68.51861199999985,68.51861199999985,68.51861199999985,68.51861199999985,,002,P012,2025_Feb_08_1222,CategoryLocalizer,2021.2.3,59.94553348876264,
23.0,23.8,1,0.75,Stimuli\ImageFiles-Set2\Objects\Object_Bicycle_00001.png,0,0,0,23,23,23,,,,,,,,,,,,,23.0031041000002,0.0031041000002005603,None,68.71879500000068,68.71879500000068,68.71879500000068,68.71879500000068,68.71879500000068,68.71879500000068,68.71879500000068,68.71879500000068,,002,P012,2025_Feb_08_1222,CategoryLocalizer,2021.2.3,59.94553348876264,
23.8,24.0,5,0.0,Stimuli\Blank.png,0,0,0,24,24,24,,,,,,,,,,,,,23.802995699999883,0.002995699999882362,None,69.51962509999976,69.51962509999976,69.51962509999976,69.51962509999976,69.51962509999976,69.51962509999976,69.51962509999976,69.51962509999976,,002,P012,2025_Feb_08_1222,CategoryLocalizer,2021.2.3,59.94553348876264,
24.0,24.8,1,0.75,Stimuli\ImageFiles-Set2\Objects\Object_Bicycle_00001.png,0,0,0,25,25,25,,,,,,,,,,,,,24.004459199999474,0.00445919999947364,2,69.71964049999951,69.71964049999951,69.71964049999951,69.71964049999951,69.71964049999951,69.71964049999951,69.71964049999951,69.71964049999951,0.35531970000010915,002,P012,2025_Feb_08_1222,CategoryLocalizer,2021.2.3,59.94553348876264,
24.8,25.0,5,0.0,Stimuli\Blank.png,0,0,0,26,26,26,,,,,,,,,,,,,24.804574100000536,0.004574100000535708,None,70.5203920999993,70.5203920999993,70.5203920999993,70.5203920999993,70.5203920999993,70.5203920999993,70.5203920999993,70.5203920999993,,002,P012,2025_Feb_08_1222,CategoryLocalizer,2021.2.3,59.94553348876264,
25.0,25.8,1,0.75,Stimuli\ImageFiles-Set2\Objects\Object_Toast_00001.png,0,0,0,27,27,27,,,,,,,,,,,,,25.005194299999857,0.005194299999857321,None,70.73726569999963,70.73726569999963,70.73726569999963,70.73726569999963,70.73726569999963,70.73726569999963,70.73726569999963,70.73726569999963,,002,P012,2025_Feb_08_1222,CategoryLocalizer,2021.2.3,59.94553348876264,
25.8,26.0,5,0.0,Stimuli\Blank.png,0,0,0,28,28,28,,,,,,,,,,,,,25.821527300000525,0.02152730000052472,None,71.53795589999936,71.53795589999936,71.53795589999936,71.53795589999936,71.53795589999936,71.53795589999936,71.53795589999936,71.53795589999936,,002,P012,2025_Feb_08_1222,CategoryLocalizer,2021.2.3,59.94553348876264,
26.0,26.8,1,0.75,Stimuli\ImageFiles-Set2\Objects\Object_Hook_00001.png,0,0,0,29,29,29,,,,,,,,,,,,,26.005141699999513,0.005141699999512639,None,71.72144950000074,71.72144950000074,71.72144950000074,71.72144950000074,71.72144950000074,71.72144950000074,71.72144950000074,71.72144950000074,,002,P012,2025_Feb_08_1222,CategoryLocalizer,2021.2.3,59.94553348876264,
26.8,27.0,5,0.0,Stimuli\Blank.png,0,0,0,30,30,30,,,,,,,,,,,,,26.805701900000713,0.005701900000712357,None,72.52216860000044,72.52216860000044,72.52216860000044,72.52216860000044,72.52216860000044,72.52216860000044,72.52216860000044,72.52216860000044,,002,P012,2025_Feb_08_1222,CategoryLocalizer,2021.2.3,59.94553348876264,
27.0,27.8,1,0.75,Stimuli\ImageFiles-Set2\Objects\Object_Microphone_00001.png,0,0,0,31,31,31,,,,,,,,,,,,,27.009132499999396,0.009132499999395804,None,72.73902210000051,72.73902210000051,72.73902210000051,72.73902210000051,72.73902210000051,72.73902210000051,72.73902210000051,72.73902210000051,,002,P012,2025_Feb_08_1222,CategoryLocalizer,2021.2.3,59.94553348876264,
27.8,28.0,5,0.0,Stimuli\Blank.png,0,0,0,32,32,32,,,,,,,,,,,,,27.823926000000938,0.023926000000937364,None,73.53973039999983,73.53973039999983,73.53973039999983,73.53973039999983,73.53973039999983,73.53973039999983,73.53973039999983,73.53973039999983,,002,P012,2025_Feb_08_1222,CategoryLocalizer,2021.2.3,59.94553348876264,
28.0,28.8,2,0.75,Stimuli\ImageFiles-Set2\Bodies\Bodies_SittingChair_00002.png,0,0,0,33,33,33,,,,,,,,,,,,,28.007841200000257,0.007841200000257231,None,73.72322089999943,73.72322089999943,73.72322089999943,73.72322089999943,73.72322089999943,73.72322089999943,73.72322089999943,73.72322089999943,,002,P012,2025_Feb_08_1222,CategoryLocalizer,2021.2.3,59.94553348876264,
28.8,29.0,5,0.0,Stimuli\Blank.png,0,0,0,34,34,34,,,,,,,,,,,,,28.808641100000386,0.008641100000385649,None,74.52395599999909,74.52395599999909,74.52395599999909,74.52395599999909,74.52395599999909,74.52395599999909,74.52395599999909,74.52395599999909,,002,P012,2025_Feb_08_1222,CategoryLocalizer,2021.2.3,59.94553348876264,
29.0,29.8,2,0.75,Stimuli\ImageFiles-Set2\Bodies\Bodies_SittingFloor_00002.png,0,0,0,35,35,35,,,,,,,,,,,,,29.008737800000745,0.008737800000744755,None,74.74080909999975,74.74080909999975,74.74080909999975,74.74080909999975,74.74080909999975,74.74080909999975,74.74080909999975,74.74080909999975,,002,P012,2025_Feb_08_1222,CategoryLocalizer,2021.2.3,59.94553348876264,
29.8,30.0,5,0.0,Stimuli\Blank.png,0,0,0,36,36,36,,,,,,,,,,,,,29.825263799999448,0.025263799999446945,None,75.54149189999953,75.54149189999953,75.54149189999953,75.54149189999953,75.54149189999953,75.54149189999953,75.54149189999953,75.54149189999953,,002,P012,2025_Feb_08_1222,CategoryLocalizer,2021.2.3,59.94553348876264,
30.0,30.8,2,0.75,Stimuli\ImageFiles-Set2\Bodies\Bodies_Standing_00004.png,0,0,0,37,37,37,,,,,,,,,,,,,30.00921229999949,0.009212299999489915,None,75.72496739999951,75.72496739999951,75.72496739999951,75.72496739999951,75.72496739999951,75.72496739999951,75.72496739999951,75.72496739999951,,002,P012,2025_Feb_08_1222,CategoryLocalizer,2021.2.3,59.94553348876264,
30.8,31.0,5,0.0,Stimuli\Blank.png,0,0,0,38,38,38,,,,,,,,,,,,,30.809803600001032,0.009803600001031754,None,76.5257117000001,76.5257117000001,76.5257117000001,76.5257117000001,76.5257117000001,76.5257117000001,76.5257117000001,76.5257117000001,,002,P012,2025_Feb_08_1222,CategoryLocalizer,2021.2.3,59.94553348876264,
31.0,31.8,2,0.75,Stimuli\ImageFiles-Set2\Bodies\Bodies_Kneeling_00002.png,0,0,0,39,39,39,,,,,,,,,,,,,31.009352400000353,0.009352400000352645,None,76.72589809999954,76.72589809999954,76.72589809999954,76.72589809999954,76.72589809999954,76.72589809999954,76.72589809999954,76.72589809999954,,002,P012,2025_Feb_08_1222,CategoryLocalizer,2021.2.3,59.94553348876264,
31.8,32.0,5,0.0,Stimuli\Blank.png,0,0,0,40,40,40,,,,,,,,,,,,,31.810123100000055,0.010123100000054563,None,77.5265873999997,77.5265873999997,77.5265873999997,77.5265873999997,77.5265873999997,77.5265873999997,77.5265873999997,77.5265873999997,,002,P012,2025_Feb_08_1222,CategoryLocalizer,2021.2.3,59.94553348876264,
32.0,32.8,2,0.75,Stimuli\ImageFiles-Set2\Bodies\Bodies_SittingChair_00004.png,0,0,0,41,41,41,,,,,,,,,,,,,32.01028489999953,0.010284899999533081,None,77.74346390000028,77.74346390000028,77.74346390000028,77.74346390000028,77.74346390000028,77.74346390000028,77.74346390000028,77.74346390000028,,002,P012,2025_Feb_08_1222,CategoryLocalizer,2021.2.3,59.94553348876264,
32.8,33.0,5,0.0,Stimuli\Blank.png,0,0,0,42,42,42,,,,,,,,,,,,,32.828248699999676,0.02824869999967916,None,78.54418049999913,78.54418049999913,78.54418049999913,78.54418049999913,78.54418049999913,78.54418049999913,78.54418049999913,78.54418049999913,,002,P012,2025_Feb_08_1222,CategoryLocalizer,2021.2.3,59.94553348876264,
33.0,33.8,2,0.75,Stimuli\ImageFiles-Set2\Bodies\Bodies_QuadStretch_00006.png,0,0,0,43,43,43,,,,,,,,,,,,,33.01145340000039,0.011453400000391412,None,78.72767039999962,78.72767039999962,78.72767039999962,78.72767039999962,78.72767039999962,78.72767039999962,78.72767039999962,78.72767039999962,,002,P012,2025_Feb_08_1222,CategoryLocalizer,2021.2.3,59.94553348876264,
33.8,34.0,5,0.0,Stimuli\Blank.png,0,0,0,44,44,44,,,,,,,,,,,,,33.81496800000059,0.014968000000592951,None,79.54504730000008,79.54504730000008,79.54504730000008,79.54504730000008,79.54504730000008,79.54504730000008,79.54504730000008,79.54504730000008,,002,P012,2025_Feb_08_1222,CategoryLocalizer,2021.2.3,59.94553348876264,
34.0,34.8,2,0.75,Stimuli\ImageFiles-Set2\Bodies\Bodies_DownwardDog_00002.png,0,0,0,45,45,45,,,,,,,,,,,,,34.03040979999969,0.030409799999688403,None,79.74521210000057,79.74521210000057,79.74521210000057,79.74521210000057,79.74521210000057,79.74521210000057,79.74521210000057,79.74521210000057,,002,P012,2025_Feb_08_1222,CategoryLocalizer,2021.2.3,59.94553348876264,
34.8,35.0,5,0.0,Stimuli\Blank.png,0,0,0,46,46,46,,,,,,,,,,,,,34.81550360000074,0.015503600000741358,None,80.54593340000065,80.54593340000065,80.54593340000065,80.54593340000065,80.54593340000065,80.54593340000065,80.54593340000065,80.54593340000065,,002,P012,2025_Feb_08_1222,CategoryLocalizer,2021.2.3,59.94553348876264,
35.0,35.8,2,0.75,Stimuli\ImageFiles-Set2\Bodies\Bodies_Punching_00005.png,0,0,0,47,47,47,,,,,,,,,,,,,35.01446290000058,0.014462900000580703,None,80.72942349999903,80.72942349999903,80.72942349999903,80.72942349999903,80.72942349999903,80.72942349999903,80.72942349999903,80.72942349999903,,002,P012,2025_Feb_08_1222,CategoryLocalizer,2021.2.3,59.94553348876264,
35.8,36.0,5,0.0,Stimuli\Blank.png,0,0,0,48,48,48,,,,,,,,,,,,,35.814441099999385,0.01444109999938803,None,81.53012669999953,81.53012669999953,81.53012669999953,81.53012669999953,81.53012669999953,81.53012669999953,81.53012669999953,81.53012669999953,,002,P012,2025_Feb_08_1222,CategoryLocalizer,2021.2.3,59.94553348876264,
36.0,36.8,2,0.75,Stimuli\ImageFiles-Set2\Bodies\Bodies_Kneeling_00004.png,0,0,0,49,49,49,,,,,,,,,,,,,36.01446109999961,0.01446109999960754,None,81.73030920000019,81.73030920000019,81.73030920000019,81.73030920000019,81.73030920000019,81.73030920000019,81.73030920000019,81.73030920000019,,002,P012,2025_Feb_08_1222,CategoryLocalizer,2021.2.3,59.94553348876264,
36.8,37.0,5,0.0,Stimuli\Blank.png,0,0,0,50,50,50,,,,,,,,,,,,,36.81476400000065,0.014764000000653255,None,82.53101190000052,82.53101190000052,82.53101190000052,82.53101190000052,82.53101190000052,82.53101190000052,82.53101190000052,82.53101190000052,,002,P012,2025_Feb_08_1222,CategoryLocalizer,2021.2.3,59.94553348876264,
37.0,37.8,2,0.75,Stimuli\ImageFiles-Set2\Bodies\Bodies_Jumping_00003.png,0,0,0,51,51,51,,,,,,,,,,,,,37.014961500000936,0.014961500000936212,None,82.73119339999903,82.73119339999903,82.73119339999903,82.73119339999903,82.73119339999903,82.73119339999903,82.73119339999903,82.73119339999903,,002,P012,2025_Feb_08_1222,CategoryLocalizer,2021.2.3,59.94553348876264,
37.8,38.0,5,0.0,Stimuli\Blank.png,0,0,0,52,52,52,,,,,,,,,,,,,37.79933019999953,-0.0006698000004661253,None,83.51522950000071,83.51522950000071,83.51522950000071,83.51522950000071,83.51522950000071,83.51522950000071,83.51522950000071,83.51522950000071,,002,P012,2025_Feb_08_1222,CategoryLocalizer,2021.2.3,59.94553348876264,
38.0,38.8,2,0.75,Stimuli\ImageFiles-Set2\Bodies\Bodies_PushUp_00001.png,0,0,0,53,53,53,,,,,,,,,,,,,37.99973150000005,-0.0002684999999473803,None,83.73206930000015,83.73206930000015,83.73206930000015,83.73206930000015,83.73206930000015,83.73206930000015,83.73206930000015,83.73206930000015,,002,P012,2025_Feb_08_1222,CategoryLocalizer,2021.2.3,59.94553348876264,
38.8,39.0,5,0.0,Stimuli\Blank.png,0,0,0,54,54,54,,,,,,,,,,,,,38.81830919999993,0.018309199999933412,None,84.5494665999995,84.5494665999995,84.5494665999995,84.5494665999995,84.5494665999995,84.5494665999995,84.5494665999995,84.5494665999995,,002,P012,2025_Feb_08_1222,CategoryLocalizer,2021.2.3,59.94553348876264,
39.0,39.8,2,0.75,Stimuli\ImageFiles-Set2\Bodies\Bodies_Standing_00002.png,0,0,0,55,55,55,,,,,,,,,,,,,39.02011390000007,0.020113900000069407,None,84.74964709999949,84.74964709999949,84.74964709999949,84.74964709999949,84.74964709999949,84.74964709999949,84.74964709999949,84.74964709999949,,002,P012,2025_Feb_08_1222,CategoryLocalizer,2021.2.3,59.94553348876264,
39.8,40.0,5,0.0,Stimuli\Blank.png,0,0,0,56,56,56,,,,,,,,,,,,,39.818132599999444,0.018132599999447052,None,85.53367889999936,85.53367889999936,85.53367889999936,85.53367889999936,85.53367889999936,85.53367889999936,85.53367889999936,85.53367889999936,,002,P012,2025_Feb_08_1222,CategoryLocalizer,2021.2.3,59.94553348876264,
40.0,40.8,2,0.75,Stimuli\ImageFiles-Set2\Bodies\Bodies_Standing_00002.png,1,1,0,57,57,57,,,,,,,,,,,,,40.00323919999937,0.003239199999370612,2,85.73381800000061,85.73381800000061,85.73381800000061,85.73381800000061,85.73381800000061,85.73381800000061,85.73381800000061,85.73381800000061,0.3428117999992537,002,P012,2025_Feb_08_1222,CategoryLocalizer,2021.2.3,59.94553348876264,
40.8,41.0,5,0.0,Stimuli\Blank.png,0,0,0,58,58,58,,,,,,,,,,,,,40.819155999999566,0.019155999999568962,None,86.53455109999959,86.53455109999959,86.53455109999959,86.53455109999959,86.53455109999959,86.53455109999959,86.53455109999959,86.53455109999959,,002,P012,2025_Feb_08_1222,CategoryLocalizer,2021.2.3,59.94553348876264,
41.0,41.8,2,0.75,Stimuli\ImageFiles-Set2\Bodies\Bodies_Running_00003.png,0,0,0,59,59,59,,,,,,,,,,,,,41.00224189999972,0.002241899999717134,None,86.71804909999992,86.71804909999992,86.71804909999992,86.71804909999992,86.71804909999992,86.71804909999992,86.71804909999992,86.71804909999992,,002,P012,2025_Feb_08_1222,CategoryLocalizer,2021.2.3,59.94553348876264,
41.8,42.0,5,0.0,Stimuli\Blank.png,0,0,0,60,60,60,,,,,,,,,,,,,41.804333100000804,0.004333100000806667,None,87.51872340000045,87.51872340000045,87.51872340000045,87.51872340000045,87.51872340000045,87.51872340000045,87.51872340000045,87.51872340000045,,002,P012,2025_Feb_08_1222,CategoryLocalizer,2021.2.3,59.94553348876264,
42.0,42.8,2,0.75,Stimuli\ImageFiles-Set2\Bodies\Bodies_PushUp_00003.png,0,0,0,61,61,61,,,,,,,,,,,,,42.003496900000755,0.0034969000007549766,None,87.71904170000016,87.71904170000016,87.71904170000016,87.71904170000016,87.71904170000016,87.71904170000016,87.71904170000016,87.71904170000016,,002,P012,2025_Feb_08_1222,CategoryLocalizer,2021.2.3,59.94553348876264,
42.8,43.0,5,0.0,Stimuli\Blank.png,0,0,0,62,62,62,,,,,,,,,,,,,42.80317970000033,0.003179700000330854,None,88.51965249999921,88.51965249999921,88.51965249999921,88.51965249999921,88.51965249999921,88.51965249999921,88.51965249999921,88.51965249999921,,002,P012,2025_Feb_08_1222,CategoryLocalizer,2021.2.3,59.94553348876264,
43.0,43.8,2,0.75,Stimuli\ImageFiles-Set2\Bodies\Bodies_DownwardDog_00004.png,0,0,0,63,63,63,,,,,,,,,,,,,43.00392169999941,0.003921699999409611,None,88.71981249999953,88.71981249999953,88.71981249999953,88.71981249999953,88.71981249999953,88.71981249999953,88.71981249999953,88.71981249999953,,002,P012,2025_Feb_08_1222,CategoryLocalizer,2021.2.3,59.94553348876264,
43.8,44.0,5,0.0,Stimuli\Blank.png,0,0,0,64,64,64,,,,,,,,,,,,,43.80475099999967,0.00475099999967199,None,89.52052390000063,89.52052390000063,89.52052390000063,89.52052390000063,89.52052390000063,89.52052390000063,89.52052390000063,89.52052390000063,,002,P012,2025_Feb_08_1222,CategoryLocalizer,2021.2.3,59.94553348876264,
44.0,44.8,3,0.75,Stimuli\ImageFiles-Set2\Faces\Face_00036.png,0,0,0,65,65,65,,,,,,,,,,,,,44.00516819999939,0.005168199999388889,None,89.73738459999913,89.73738459999913,89.73738459999913,89.73738459999913,89.73738459999913,89.73738459999913,89.73738459999913,89.73738459999913,,002,P012,2025_Feb_08_1222,CategoryLocalizer,2021.2.3,59.94553348876264,
44.8,45.0,5,0.0,Stimuli\Blank.png,0,0,0,66,66,66,,,,,,,,,,,,,44.82336159999977,0.02336159999977383,None,90.55477500000052,90.55477500000052,90.55477500000052,90.55477500000052,90.55477500000052,90.55477500000052,90.55477500000052,90.55477500000052,,002,P012,2025_Feb_08_1222,CategoryLocalizer,2021.2.3,59.94553348876264,
45.0,45.8,3,0.75,Stimuli\ImageFiles-Set2\Faces\Face_00108.png,0,0,0,67,67,67,,,,,,,,,,,,,45.02447630000097,0.024476300000969786,None,90.75495919999958,90.75495919999958,90.75495919999958,90.75495919999958,90.75495919999958,90.75495919999958,90.75495919999958,90.75495919999958,,002,P012,2025_Feb_08_1222,CategoryLocalizer,2021.2.3,59.94553348876264,
45.8,46.0,5,0.0,Stimuli\Blank.png,0,0,0,68,68,68,,,,,,,,,,,,,45.82296280000082,0.022962800000826178,None,91.53900059999978,91.53900059999978,91.53900059999978,91.53900059999978,91.53900059999978,91.53900059999978,91.53900059999978,91.53900059999978,,002,P012,2025_Feb_08_1222,CategoryLocalizer,2021.2.3,59.94553348876264,
46.0,46.8,3,0.75,Stimuli\ImageFiles-Set2\Faces\Face_00102.png,0,0,0,69,69,69,,,,,,,,,,,,,46.00678599999992,0.006785999999920023,None,91.73912299999938,91.73912299999938,91.73912299999938,91.73912299999938,91.73912299999938,91.73912299999938,91.73912299999938,91.73912299999938,,002,P012,2025_Feb_08_1222,CategoryLocalizer,2021.2.3,59.94553348876264,
46.8,47.0,5,0.0,Stimuli\Blank.png,0,0,0,70,70,70,,,,,,,,,,,,,46.82339839999986,0.023398399999862818,None,92.53985869999997,92.53985869999997,92.53985869999997,92.53985869999997,92.53985869999997,92.53985869999997,92.53985869999997,92.53985869999997,,002,P012,2025_Feb_08_1222,CategoryLocalizer,2021.2.3,59.94553348876264,
47.0,47.8,3,0.75,Stimuli\ImageFiles-Set2\Faces\Face_00090.png,0,0,0,71,71,71,,,,,,,,,,,,,47.008740499999476,0.008740499999476015,None,92.74006929999996,92.74006929999996,92.74006929999996,92.74006929999996,92.74006929999996,92.74006929999996,92.74006929999996,92.74006929999996,,002,P012,2025_Feb_08_1222,CategoryLocalizer,2021.2.3,59.94553348876264,
47.8,48.0,5,0.0,Stimuli\Blank.png,0,0,0,72,72,72,,,,,,,,,,,,,47.82533119999971,0.02533119999971234,None,93.54075270000067,93.54075270000067,93.54075270000067,93.54075270000067,93.54075270000067,93.54075270000067,93.54075270000067,93.54075270000067,,002,P012,2025_Feb_08_1222,CategoryLocalizer,2021.2.3,59.94553348876264,
48.0,48.8,3,0.75,Stimuli\ImageFiles-Set2\Faces\Face_00090.png,1,1,0,73,73,73,,,,,,,,,,,,,48.009060399999726,0.009060399999725632,2,93.74092389999896,93.74092389999896,93.74092389999896,93.74092389999896,93.74092389999896,93.74092389999896,93.74092389999896,93.74092389999896,0.4498870999996143,002,P012,2025_Feb_08_1222,CategoryLocalizer,2021.2.3,59.94553348876264,
48.8,49.0,5,0.0,Stimuli\Blank.png,0,0,0,74,74,74,,,,,,,,,,,,,48.825380100000984,0.025380100000987227,None,94.5416322000001,94.5416322000001,94.5416322000001,94.5416322000001,94.5416322000001,94.5416322000001,94.5416322000001,94.5416322000001,,002,P012,2025_Feb_08_1222,CategoryLocalizer,2021.2.3,59.94553348876264,
49.0,49.8,3,0.75,Stimuli\ImageFiles-Set2\Faces\Face_00066.png,0,0,0,75,75,75,,,,,,,,,,,,,49.00873769999998,0.008737699999983306,None,94.74182999999903,94.74182999999903,94.74182999999903,94.74182999999903,94.74182999999903,94.74182999999903,94.74182999999903,94.74182999999903,,002,P012,2025_Feb_08_1222,CategoryLocalizer,2021.2.3,59.94553348876264,
49.8,50.0,5,0.0,Stimuli\Blank.png,0,0,0,76,76,76,,,,,,,,,,,,,49.82674460000089,0.026744600000895957,None,95.54253029999927,95.54253029999927,95.54253029999927,95.54253029999927,95.54253029999927,95.54253029999927,95.54253029999927,95.54253029999927,,002,P012,2025_Feb_08_1222,CategoryLocalizer,2021.2.3,59.94553348876264,
50.0,50.8,3,0.75,Stimuli\ImageFiles-Set2\Faces\Face_00094.png,0,0,0,77,77,77,,,,,,,,,,,,,50.00961699999971,0.009616999999707332,None,95.72598409999955,95.72598409999955,95.72598409999955,95.72598409999955,95.72598409999955,95.72598409999955,95.72598409999955,95.72598409999955,,002,P012,2025_Feb_08_1222,CategoryLocalizer,2021.2.3,59.94553348876264,
50.8,51.0,5,0.0,Stimuli\Blank.png,0,0,0,78,78,78,,,,,,,,,,,,,50.81095180000011,0.010951800000114531,None,96.52680589999909,96.52680589999909,96.52680589999909,96.52680589999909,96.52680589999909,96.52680589999909,96.52680589999909,96.52680589999909,,002,P012,2025_Feb_08_1222,CategoryLocalizer,2021.2.3,59.94553348876264,
51.0,51.8,3,0.75,Stimuli\ImageFiles-Set2\Faces\Face_00072.png,0,0,0,79,79,79,,,,,,,,,,,,,51.01311270000042,0.013112700000419863,None,96.74358399999983,96.74358399999983,96.74358399999983,96.74358399999983,96.74358399999983,96.74358399999983,96.74358399999983,96.74358399999983,,002,P012,2025_Feb_08_1222,CategoryLocalizer,2021.2.3,59.94553348876264,
51.8,52.0,5,0.0,Stimuli\Blank.png,0,0,0,80,80,80,,,,,,,,,,,,,51.82881780000025,0.02881780000025458,None,97.54428069999994,97.54428069999994,97.54428069999994,97.54428069999994,97.54428069999994,97.54428069999994,97.54428069999994,97.54428069999994,,002,P012,2025_Feb_08_1222,CategoryLocalizer,2021.2.3,59.94553348876264,
52.0,52.8,3,0.75,Stimuli\ImageFiles-Set2\Faces\Face_00056.png,0,0,0,81,81,81,,,,,,,,,,,,,52.01217949999955,0.01217949999954726,None,97.74448180000036,97.74448180000036,97.74448180000036,97.74448180000036,97.74448180000036,97.74448180000036,97.74448180000036,97.74448180000036,,002,P012,2025_Feb_08_1222,CategoryLocalizer,2021.2.3,59.94553348876264,
52.8,53.0,5,0.0,Stimuli\Blank.png,0,0,0,82,82,82,,,,,,,,,,,,,52.82937839999977,0.029378399999771432,None,98.54634319999968,98.54634319999968,98.54634319999968,98.54634319999968,98.54634319999968,98.54634319999968,98.54634319999968,98.54634319999968,,002,P012,2025_Feb_08_1222,CategoryLocalizer,2021.2.3,59.94553348876264,
53.0,53.8,3,0.75,Stimuli\ImageFiles-Set2\Faces\Face_00092.png,0,0,0,83,83,83,,,,,,,,,,,,,53.01296689999981,0.012966899999810266,None,98.74535520000063,98.74535520000063,98.74535520000063,98.74535520000063,98.74535520000063,98.74535520000063,98.74535520000063,98.74535520000063,,002,P012,2025_Feb_08_1222,CategoryLocalizer,2021.2.3,59.94553348876264,
53.8,54.0,5,0.0,Stimuli\Blank.png,0,0,0,84,84,84,,,,,,,,,,,,,53.82959850000043,0.029598500000432182,None,99.54605730000003,99.54605730000003,99.54605730000003,99.54605730000003,99.54605730000003,99.54605730000003,99.54605730000003,99.54605730000003,,002,P012,2025_Feb_08_1222,CategoryLocalizer,2021.2.3,59.94553348876264,
54.0,54.8,3,0.75,Stimuli\ImageFiles-Set2\Faces\Face_00004.png,0,0,0,85,85,85,,,,,,,,,,,,,54.01316650000081,0.013166500000806991,None,99.72955829999955,99.72955829999955,99.72955829999955,99.72955829999955,99.72955829999955,99.72955829999955,99.72955829999955,99.72955829999955,,002,P012,2025_Feb_08_1222,CategoryLocalizer,2021.2.3,59.94553348876264,
54.8,55.0,5,0.0,Stimuli\Blank.png,0,0,0,86,86,86,,,,,,,,,,,,,54.814609900000505,0.014609900000507992,None,100.53025849999904,100.53025849999904,100.53025849999904,100.53025849999904,100.53025849999904,100.53025849999904,100.53025849999904,100.53025849999904,,002,P012,2025_Feb_08_1222,CategoryLocalizer,2021.2.3,59.94553348876264,
55.0,55.8,3,0.75,Stimuli\ImageFiles-Set2\Faces\Face_00017.png,0,0,0,87,87,87,,,,,,,,,,,,,55.0141392000005,0.01413920000049984,None,100.74713709999924,100.74713709999924,100.74713709999924,100.74713709999924,100.74713709999924,100.74713709999924,100.74713709999924,100.74713709999924,,002,P012,2025_Feb_08_1222,CategoryLocalizer,2021.2.3,59.94553348876264,
55.8,56.0,5,0.0,Stimuli\Blank.png,0,0,0,88,88,88,,,,,,,,,,,,,55.833341100000325,0.03334110000032808,None,101.5645143999991,101.5645143999991,101.5645143999991,101.5645143999991,101.5645143999991,101.5645143999991,101.5645143999991,101.5645143999991,,002,P012,2025_Feb_08_1222,CategoryLocalizer,2021.2.3,59.94553348876264,
56.0,56.8,3,0.75,Stimuli\ImageFiles-Set2\Faces\Face_00044.png,0,0,0,89,89,89,,,,,,,,,,,,,56.015728399999716,0.015728399999716203,None,101.74800209999921,101.74800209999921,101.74800209999921,101.74800209999921,101.74800209999921,101.74800209999921,101.74800209999921,101.74800209999921,,002,P012,2025_Feb_08_1222,CategoryLocalizer,2021.2.3,59.94553348876264,
56.8,57.0,5,0.0,Stimuli\Blank.png,0,0,0,90,90,90,,,,,,,,,,,,,56.81567709999945,0.01567709999945066,None,102.53203190000022,102.53203190000022,102.53203190000022,102.53203190000022,102.53203190000022,102.53203190000022,102.53203190000022,102.53203190000022,,002,P012,2025_Feb_08_1222,CategoryLocalizer,2021.2.3,59.94553348876264,
57.0,57.8,3,0.75,Stimuli\ImageFiles-Set2\Faces\Face_00011.png,0,0,0,91,91,91,,,,,,,,,,,,,56.999880600000324,-0.00011939999967580661,None,102.73222709999936,102.73222709999936,102.73222709999936,102.73222709999936,102.73222709999936,102.73222709999936,102.73222709999936,102.73222709999936,,002,P012,2025_Feb_08_1222,CategoryLocalizer,2021.2.3,59.94553348876264,
57.8,58.0,5,0.0,Stimuli\Blank.png,0,0,0,92,92,92,,,,,,,,,,,,,57.818226600000344,0.018226600000346593,None,103.54960980000033,103.54960980000033,103.54960980000033,103.54960980000033,103.54960980000033,103.54960980000033,103.54960980000033,103.54960980000033,,002,P012,2025_Feb_08_1222,CategoryLocalizer,2021.2.3,59.94553348876264,
58.0,58.8,3,0.75,Stimuli\ImageFiles-Set2\Faces\Face_00042.png,0,0,0,93,93,93,,,,,,,,,,,,,58.01731479999944,0.017314799999439856,None,103.73309859999972,103.73309859999972,103.73309859999972,103.73309859999972,103.73309859999972,103.73309859999972,103.73309859999972,103.73309859999972,,002,P012,2025_Feb_08_1222,CategoryLocalizer,2021.2.3,59.94553348876264,
58.8,59.0,5,0.0,Stimuli\Blank.png,0,0,0,94,94,94,,,,,,,,,,,,,58.803312000000005,0.0033120000000081973,None,104.53384609999921,104.53384609999921,104.53384609999921,104.53384609999921,104.53384609999921,104.53384609999921,104.53384609999921,104.53384609999921,,002,P012,2025_Feb_08_1222,CategoryLocalizer,2021.2.3,59.94553348876264,
59.0,59.8,3,0.75,Stimuli\ImageFiles-Set2\Faces\Face_00064.png,0,0,0,95,95,95,,,,,,,,,,,,,59.01756380000006,0.017563800000061747,None,104.73397929999919,104.73397929999919,104.73397929999919,104.73397929999919,104.73397929999919,104.73397929999919,104.73397929999919,104.73397929999919,,002,P012,2025_Feb_08_1222,CategoryLocalizer,2021.2.3,59.94553348876264,
59.8,60.0,5,0.0,Stimuli\Blank.png,0,0,0,96,96,96,,,,,,,,,,,,,59.80404909999925,0.004049099999249961,None,105.5347056999999,105.5347056999999,105.5347056999999,105.5347056999999,105.5347056999999,105.5347056999999,105.5347056999999,105.5347056999999,,002,P012,2025_Feb_08_1222,CategoryLocalizer,2021.2.3,59.94553348876264,
60.0,60.8,4,0.75,Stimuli\ImageFiles-Set2\Scenes\Scenes_096.png,0,0,0,97,97,97,,,,,,,,,,,,,60.01949109999987,0.01949109999986831,None,105.75170160000016,105.75170160000016,105.75170160000016,105.75170160000016,105.75170160000016,105.75170160000016,105.75170160000016,105.75170160000016,,002,P012,2025_Feb_08_1222,CategoryLocalizer,2021.2.3,59.94553348876264,
60.8,61.0,5,0.0,Stimuli\Blank.png,0,0,0,98,98,98,,,,,,,,,,,,,60.819220100000166,0.019220100000168827,None,106.53560379999908,106.53560379999908,106.53560379999908,106.53560379999908,106.53560379999908,106.53560379999908,106.53560379999908,106.53560379999908,,002,P012,2025_Feb_08_1222,CategoryLocalizer,2021.2.3,59.94553348876264,
61.0,61.8,4,0.75,Stimuli\ImageFiles-Set2\Scenes\Scenes_075.png,0,0,0,99,99,99,,,,,,,,,,,,,61.00325890000022,0.0032589000002190005,None,106.73575259999961,106.73575259999961,106.73575259999961,106.73575259999961,106.73575259999961,106.73575259999961,106.73575259999961,106.73575259999961,,002,P012,2025_Feb_08_1222,CategoryLocalizer,2021.2.3,59.94553348876264,
61.8,62.0,5,0.0,Stimuli\Blank.png,0,0,0,100,100,100,,,,,,,,,,,,,61.82073320000018,0.020733200000179863,None,107.53646509999999,107.53646509999999,107.53646509999999,107.53646509999999,107.53646509999999,107.53646509999999,107.53646509999999,107.53646509999999,,002,P012,2025_Feb_08_1222,CategoryLocalizer,2021.2.3,59.94553348876264,
62.0,62.8,4,0.75,Stimuli\ImageFiles-Set2\Scenes\Scenes_106.png,0,0,0,101,101,101,,,,,,,,,,,,,62.00436570000056,0.004365700000562356,None,107.73663719999968,107.73663719999968,107.73663719999968,107.73663719999968,107.73663719999968,107.73663719999968,107.73663719999968,107.73663719999968,,002,P012,2025_Feb_08_1222,CategoryLocalizer,2021.2.3,59.94553348876264,
62.8,63.0,5,0.0,Stimuli\Blank.png,0,0,0,102,102,102,,,,,,,,,,,,,62.823133300000336,0.023133300000338863,None,108.55404950000047,108.55404950000047,108.55404950000047,108.55404950000047,108.55404950000047,108.55404950000047,108.55404950000047,108.55404950000047,,002,P012,2025_Feb_08_1222,CategoryLocalizer,2021.2.3,59.94553348876264,
63.0,63.8,4,0.75,Stimuli\ImageFiles-Set2\Scenes\Scenes_061.png,0,0,0,103,103,103,,,,,,,,,,,,,63.020966600000975,0.020966600000974722,None,108.73751619999894,108.73751619999894,108.73751619999894,108.73751619999894,108.73751619999894,108.73751619999894,108.73751619999894,108.73751619999894,,002,P012,2025_Feb_08_1222,CategoryLocalizer,2021.2.3,59.94553348876264,
63.8,64.0,5,0.0,Stimuli\Blank.png,0,0,0,104,104,104,,,,,,,,,,,,,63.805450899999414,0.005450899999416947,None,109.52155130000028,109.52155130000028,109.52155130000028,109.52155130000028,109.52155130000028,109.52155130000028,109.52155130000028,109.52155130000028,,002,P012,2025_Feb_08_1222,CategoryLocalizer,2021.2.3,59.94553348876264,
64.0,64.8,4,0.75,Stimuli\ImageFiles-Set2\Scenes\Scenes_108.png,0,0,0,105,105,105,,,,,,,,,,,,,64.00600420000046,0.006004200000461424,None,109.72172529999989,109.72172529999989,109.72172529999989,109.72172529999989,109.72172529999989,109.72172529999989,109.72172529999989,109.72172529999989,,002,P012,2025_Feb_08_1222,CategoryLocalizer,2021.2.3,59.94553348876264,
64.8,65.0,5,0.0,Stimuli\Blank.png,0,0,0,106,106,106,,,,,,,,,,,,,64.80844400000024,0.008444000000238816,None,110.53913420000026,110.53913420000026,110.53913420000026,110.53913420000026,110.53913420000026,110.53913420000026,110.53913420000026,110.53913420000026,,002,P012,2025_Feb_08_1222,CategoryLocalizer,2021.2.3,59.94553348876264,
65.0,65.8,4,0.75,Stimuli\ImageFiles-Set2\Scenes\Scenes_108.png,1,1,0,107,107,107,,,,,,,,,,,,,65.02351129999988,0.023511299999881885,2,110.73928820000037,110.73928820000037,110.73928820000037,110.73928820000037,110.73928820000037,110.73928820000037,110.73928820000037,110.73928820000037,0.40682590000142227,002,P012,2025_Feb_08_1222,CategoryLocalizer,2021.2.3,59.94553348876264,
65.8,66.0,5,0.0,Stimuli\Blank.png,0,0,0,108,108,108,,,,,,,,,,,,,65.81007760000102,0.010077600001025644,None,111.54001269999935,111.54001269999935,111.54001269999935,111.54001269999935,111.54001269999935,111.54001269999935,111.54001269999935,111.54001269999935,,002,P012,2025_Feb_08_1222,CategoryLocalizer,2021.2.3,59.94553348876264,
66.0,66.8,4,0.75,Stimuli\ImageFiles-Set2\Scenes\Scenes_109.png,0,0,0,109,109,109,,,,,,,,,,,,,66.02415490000021,0.024154900000212365,None,111.75687499999913,111.75687499999913,111.75687499999913,111.75687499999913,111.75687499999913,111.75687499999913,111.75687499999913,111.75687499999913,,002,P012,2025_Feb_08_1222,CategoryLocalizer,2021.2.3,59.94553348876264,
66.8,67.0,5,0.0,Stimuli\Blank.png,0,0,0,110,110,110,,,,,,,,,,,,,66.824823500001,0.024823500001005527,None,112.54089249999925,112.54089249999925,112.54089249999925,112.54089249999925,112.54089249999925,112.54089249999925,112.54089249999925,112.54089249999925,,002,P012,2025_Feb_08_1222,CategoryLocalizer,2021.2.3,59.94553348876264,
67.0,67.8,4,0.75,Stimuli\ImageFiles-Set2\Scenes\Scenes_079.png,0,0,0,111,111,111,,,,,,,,,,,,,67.0078637000006,0.007863700000598328,None,112.7243768999997,112.7243768999997,112.7243768999997,112.7243768999997,112.7243768999997,112.7243768999997,112.7243768999997,112.7243768999997,,002,P012,2025_Feb_08_1222,CategoryLocalizer,2021.2.3,59.94553348876264,
67.8,68.0,5,0.0,Stimuli\Blank.png,0,0,0,112,112,112,,,,,,,,,,,,,67.80919229999927,0.009192299999270404,None,113.52510299999994,113.52510299999994,113.52510299999994,113.52510299999994,113.52510299999994,113.52510299999994,113.52510299999994,113.52510299999994,,002,P012,2025_Feb_08_1222,CategoryLocalizer,2021.2.3,59.94553348876264,
68.0,68.8,4,0.75,Stimuli\ImageFiles-Set2\Scenes\Scenes_077.png,0,0,0,113,113,113,,,,,,,,,,,,,68.00878379999995,0.008783799999946496,None,113.75858849999895,113.75858849999895,113.75858849999895,113.75858849999895,113.75858849999895,113.75858849999895,113.75858849999895,113.75858849999895,,002,P012,2025_Feb_08_1222,CategoryLocalizer,2021.2.3,59.94553348876264,
68.8,69.0,5,0.0,Stimuli\Blank.png,0,0,0,114,114,114,,,,,,,,,,,,,68.84420339999997,0.04420339999997225,None,114.55934340000022,114.55934340000022,114.55934340000022,114.55934340000022,114.55934340000022,114.55934340000022,114.55934340000022,114.55934340000022,,002,P012,2025_Feb_08_1222,CategoryLocalizer,2021.2.3,59.94553348876264,
69.0,69.8,4,0.75,Stimuli\ImageFiles-Set2\Scenes\Scenes_093.png,0,0,0,115,115,115,,,,,,,,,,,,,69.00963539999975,0.009635399999751826,None,114.72614930000054,114.72614930000054,114.72614930000054,114.72614930000054,114.72614930000054,114.72614930000054,114.72614930000054,114.72614930000054,,002,P012,2025_Feb_08_1222,CategoryLocalizer,2021.2.3,59.94553348876264,
69.8,70.0,5,0.0,Stimuli\Blank.png,0,0,0,116,116,116,,,,,,,,,,,,,69.81121050000002,0.011210500000018442,None,115.52686549999999,115.52686549999999,115.52686549999999,115.52686549999999,115.52686549999999,115.52686549999999,115.52686549999999,115.52686549999999,,002,P012,2025_Feb_08_1222,CategoryLocalizer,2021.2.3,59.94553348876264,
70.0,70.8,4,0.75,Stimuli\ImageFiles-Set2\Scenes\Scenes_074.png,0,0,0,117,117,117,,,,,,,,,,,,,70.01075289999972,0.010752899999715737,None,115.7270365000004,115.7270365000004,115.7270365000004,115.7270365000004,115.7270365000004,115.7270365000004,115.7270365000004,115.7270365000004,,002,P012,2025_Feb_08_1222,CategoryLocalizer,2021.2.3,59.94553348876264,
70.8,71.0,5,0.0,Stimuli\Blank.png,0,0,0,118,118,118,,,,,,,,,,,,,70.81122189999951,0.011221899999512175,None,116.52774239999962,116.52774239999962,116.52774239999962,116.52774239999962,116.52774239999962,116.52774239999962,116.52774239999962,116.52774239999962,,002,P012,2025_Feb_08_1222,CategoryLocalizer,2021.2.3,59.94553348876264,
71.0,71.8,4,0.75,Stimuli\ImageFiles-Set2\Scenes\Scenes_103.png,1,1,0,119,119,119,,,,,,,,,,,,,71.01318039999933,0.013180399999328074,None,116.74461119999978,116.74461119999978,116.74461119999978,116.74461119999978,116.74461119999978,116.74461119999978,116.74461119999978,116.74461119999978,,002,P012,2025_Feb_08_1222,CategoryLocalizer,2021.2.3,59.94553348876264,
71.8,72.0,5,0.0,Stimuli\Blank.png,0,0,0,120,120,120,,,,,,,,,,,,,71.8292603000009,0.02926030000089952,None,117.54531019999922,117.54531019999922,117.54531019999922,117.54531019999922,117.54531019999922,117.54531019999922,117.54531019999922,117.54531019999922,,002,P012,2025_Feb_08_1222,CategoryLocalizer,2021.2.3,59.94553348876264,
72.0,72.8,4,0.75,Stimuli\ImageFiles-Set2\Scenes\Scenes_070.png,0,0,0,121,121,121,,,,,,,,,,,,,72.01241859999936,0.012418599999364233,None,117.72880450000048,117.72880450000048,117.72880450000048,117.72880450000048,117.72880450000048,117.72880450000048,117.72880450000048,117.72880450000048,,002,P012,2025_Feb_08_1222,CategoryLocalizer,2021.2.3,59.94553348876264,
72.8,73.0,5,0.0,Stimuli\Blank.png,0,0,0,122,122,122,,,,,,,,,,,,,72.814499600001,0.014499600001002477,None,118.52952069999992,118.52952069999992,118.52952069999992,118.52952069999992,118.52952069999992,118.52952069999992,118.52952069999992,118.52952069999992,,002,P012,2025_Feb_08_1222,CategoryLocalizer,2021.2.3,59.94553348876264,
73.0,73.8,4,0.75,Stimuli\ImageFiles-Set2\Scenes\Scenes_070.png,0,0,0,123,123,123,,,,,,,,,,,,,73.01395070000035,0.01395070000035048,2,118.74639890000071,118.74639890000071,118.74639890000071,118.74639890000071,118.74639890000071,118.74639890000071,118.74639890000071,118.74639890000071,0.4366086999998515,002,P012,2025_Feb_08_1222,CategoryLocalizer,2021.2.3,59.94553348876264,
73.8,74.0,5,0.0,Stimuli\Blank.png,0,0,0,124,124,124,,,,,,,,,,,,,73.83320810000077,0.03320810000077756,None,119.5637685999991,119.5637685999991,119.5637685999991,119.5637685999991,119.5637685999991,119.5637685999991,119.5637685999991,119.5637685999991,,002,P012,2025_Feb_08_1222,CategoryLocalizer,2021.2.3,59.94553348876264,
74.0,74.8,4,0.75,Stimuli\ImageFiles-Set2\Scenes\Scenes_087.png,0,0,0,125,125,125,,,,,,,,,,,,,74.01423480000085,0.014234800000849646,None,119.74727779999921,119.74727779999921,119.74727779999921,119.74727779999921,119.74727779999921,119.74727779999921,119.74727779999921,119.74727779999921,,002,P012,2025_Feb_08_1222,CategoryLocalizer,2021.2.3,59.94553348876264,
74.8,75.0,5,0.0,Stimuli\Blank.png,0,0,0,126,126,126,,,,,,,,,,,,,74.83349280000039,0.033492800000388456,None,120.56467859999975,120.56467859999975,120.56467859999975,120.56467859999975,120.56467859999975,120.56467859999975,120.56467859999975,120.56467859999975,,002,P012,2025_Feb_08_1222,CategoryLocalizer,2021.2.3,59.94553348876264,
75.0,75.8,4,0.75,Stimuli\ImageFiles-Set2\Scenes\Scenes_118.png,0,0,0,127,127,127,,,,,,,,,,,,,75.01509369999985,0.015093699999852106,None,120.73146400000041,120.73146400000041,120.73146400000041,120.73146400000041,120.73146400000041,120.73146400000041,120.73146400000041,120.73146400000041,,002,P012,2025_Feb_08_1222,CategoryLocalizer,2021.2.3,59.94553348876264,
75.8,76.0,5,0.0,Stimuli\Blank.png,0,0,0,128,128,128,,,,,,,,,,,,,75.79904060000081,-0.0009593999991892588,None,121.51548940000066,121.51548940000066,121.51548940000066,121.51548940000066,121.51548940000066,121.51548940000066,121.51548940000066,121.51548940000066,,002,P012,2025_Feb_08_1222,CategoryLocalizer,2021.2.3,59.94553348876264,
76.0,88.0,0,0.0,Stimuli\Blank.png,0,0,0,129,129,129,,,,,,,,,,,,,75.99928170000021,-0.0007182999997894512,None,121.7156744999993,121.7156744999993,121.7156744999993,121.7156744999993,121.7156744999993,121.7156744999993,121.7156744999993,121.7156744999993,,002,P012,2025_Feb_08_1222,CategoryLocalizer,2021.2.3,59.94553348876264,
88.0,88.8,3,0.75,Stimuli\ImageFiles-Set2\Faces\Face_00021.png,0,0,0,130,130,130,,,,,,,,,,,,,88.01062439999987,0.010624399999869638,None,133.72624890000043,133.72624890000043,133.72624890000043,133.72624890000043,133.72624890000043,133.72624890000043,133.72624890000043,133.72624890000043,,002,P012,2025_Feb_08_1222,CategoryLocalizer,2021.2.3,59.94553348876264,
88.8,89.0,5,0.0,Stimuli\Blank.png,0,0,0,131,131,131,,,,,,,,,,,,,88.81045959999938,0.010459599999379066,None,134.52701809999962,134.52701809999962,134.52701809999962,134.52701809999962,134.52701809999962,134.52701809999962,134.52701809999962,134.52701809999962,,002,P012,2025_Feb_08_1222,CategoryLocalizer,2021.2.3,59.94553348876264,
89.0,89.8,3,0.75,Stimuli\ImageFiles-Set2\Faces\Face_00048.png,0,0,0,132,132,132,,,,,,,,,,,,,89.01065000000017,0.010650000000168802,None,134.7271712999991,134.7271712999991,134.7271712999991,134.7271712999991,134.7271712999991,134.7271712999991,134.7271712999991,134.7271712999991,,002,P012,2025_Feb_08_1222,CategoryLocalizer,2021.2.3,59.94553348876264,
89.8,90.0,5,0.0,Stimuli\Blank.png,0,0,0,133,133,133,,,,,,,,,,,,,89.81322770000043,0.013227700000427944,None,135.5445875000005,135.5445875000005,135.5445875000005,135.5445875000005,135.5445875000005,135.5445875000005,135.5445875000005,135.5445875000005,,002,P012,2025_Feb_08_1222,CategoryLocalizer,2021.2.3,59.94553348876264,
90.0,90.8,3,0.75,Stimuli\ImageFiles-Set2\Faces\Face_00078.png,0,0,0,134,134,134,,,,,,,,,,,,,90.02895600000011,0.02895600000010745,None,135.76142419999996,135.76142419999996,135.76142419999996,135.76142419999996,135.76142419999996,135.76142419999996,135.76142419999996,135.76142419999996,,002,P012,2025_Feb_08_1222,CategoryLocalizer,2021.2.3,59.94553348876264,
90.8,91.0,5,0.0,Stimuli\Blank.png,0,0,0,135,135,135,,,,,,,,,,,,,90.83000429999993,0.030004299999930595,None,136.54549869999937,136.54549869999937,136.54549869999937,136.54549869999937,136.54549869999937,136.54549869999937,136.54549869999937,136.54549869999937,,002,P012,2025_Feb_08_1222,CategoryLocalizer,2021.2.3,59.94553348876264,
91.0,91.8,3,0.75,Stimuli\ImageFiles-Set2\Faces\Face_00104.png,0,0,0,136,136,136,,,,,,,,,,,,,91.0133552999996,0.013355299999602721,None,136.74562250000054,136.74562250000054,136.74562250000054,136.74562250000054,136.74562250000054,136.74562250000054,136.74562250000054,136.74562250000054,,002,P012,2025_Feb_08_1222,CategoryLocalizer,2021.2.3,59.94553348876264,
91.8,92.0,5,0.0,Stimuli\Blank.png,0,0,0,137,137,137,,,,,,,,,,,,,91.83042200000091,0.030422000000910998,None,137.54632970000057,137.54632970000057,137.54632970000057,137.54632970000057,137.54632970000057,137.54632970000057,137.54632970000057,137.54632970000057,,002,P012,2025_Feb_08_1222,CategoryLocalizer,2021.2.3,59.94553348876264,
92.0,92.8,3,0.75,Stimuli\ImageFiles-Set2\Faces\Face_00104.png,1,1,0,138,138,138,,,,,,,,,,,,,92.01372520000041,0.013725200000408222,2,137.729829599999,137.729829599999,137.729829599999,137.729829599999,137.729829599999,137.729829599999,137.729829599999,137.729829599999,0.46786400000019057,002,P012,2025_Feb_08_1222,CategoryLocalizer,2021.2.3,59.94553348876264,
92.8,93.0,5,0.0,Stimuli\Blank.png,0,0,0,139,139,139,,,,,,,,,,,,,92.8143383000006,0.014338300000602544,None,138.53053809999983,138.53053809999983,138.53053809999983,138.53053809999983,138.53053809999983,138.53053809999983,138.53053809999983,138.53053809999983,,002,P012,2025_Feb_08_1222,CategoryLocalizer,2021.2.3,59.94553348876264,
93.0,93.8,3,0.75,Stimuli\ImageFiles-Set2\Faces\Face_00030.png,0,0,0,140,140,140,,,,,,,,,,,,,93.01510530000087,0.015105300000868738,None,138.73071589999927,138.73071589999927,138.73071589999927,138.73071589999927,138.73071589999927,138.73071589999927,138.73071589999927,138.73071589999927,,002,P012,2025_Feb_08_1222,CategoryLocalizer,2021.2.3,59.94553348876264,
93.8,94.0,5,0.0,Stimuli\Blank.png,0,0,0,141,141,141,,,,,,,,,,,,,93.79885909999939,-0.0011409000006068482,None,139.51475650000066,139.51475650000066,139.51475650000066,139.51475650000066,139.51475650000066,139.51475650000066,139.51475650000066,139.51475650000066,,002,P012,2025_Feb_08_1222,CategoryLocalizer,2021.2.3,59.94553348876264,
94.0,94.8,3,0.75,Stimuli\ImageFiles-Set2\Faces\Face_00015.png,0,0,0,142,142,142,,,,,,,,,,,,,93.9995216999996,-0.000478300000395393,None,139.73159680000026,139.73159680000026,139.73159680000026,139.73159680000026,139.73159680000026,139.73159680000026,139.73159680000026,139.73159680000026,,002,P012,2025_Feb_08_1222,CategoryLocalizer,2021.2.3,59.94553348876264,
94.8,95.0,5,0.0,Stimuli\Blank.png,0,0,0,143,143,143,,,,,,,,,,,,,94.81820650000009,0.018206500000090386,None,140.54899819999991,140.54899819999991,140.54899819999991,140.54899819999991,140.54899819999991,140.54899819999991,140.54899819999991,140.54899819999991,,002,P012,2025_Feb_08_1222,CategoryLocalizer,2021.2.3,59.94553348876264,
95.0,95.8,3,0.75,Stimuli\ImageFiles-Set2\Faces\Face_00040.png,0,0,0,144,144,144,,,,,,,,,,,,,95.0166977000008,0.016697700000804616,None,140.74914229999922,140.74914229999922,140.74914229999922,140.74914229999922,140.74914229999922,140.74914229999922,140.74914229999922,140.74914229999922,,002,P012,2025_Feb_08_1222,CategoryLocalizer,2021.2.3,59.94553348876264,
95.8,96.0,5,0.0,Stimuli\Blank.png,0,0,0,145,145,145,,,,,,,,,,,,,95.81952040000033,0.019520400000331506,None,141.54986269999972,141.54986269999972,141.54986269999972,141.54986269999972,141.54986269999972,141.54986269999972,141.54986269999972,141.54986269999972,,002,P012,2025_Feb_08_1222,CategoryLocalizer,2021.2.3,59.94553348876264,
96.0,96.8,3,0.75,Stimuli\ImageFiles-Set2\Faces\Face_00050.png,0,0,0,146,146,146,,,,,,,,,,,,,96.01879419999932,0.01879419999931997,None,141.75005299999975,141.75005299999975,141.75005299999975,141.75005299999975,141.75005299999975,141.75005299999975,141.75005299999975,141.75005299999975,,002,P012,2025_Feb_08_1222,CategoryLocalizer,2021.2.3,59.94553348876264,
96.8,97.0,5,0.0,Stimuli\Blank.png,0,0,0,147,147,147,,,,,,,,,,,,,96.818035100001,0.018035100001000615,None,142.53407340000012,142.53407340000012,142.53407340000012,142.53407340000012,142.53407340000012,142.53407340000012,142.53407340000012,142.53407340000012,,002,P012,2025_Feb_08_1222,CategoryLocalizer,2021.2.3,59.94553348876264,
97.0,97.8,3,0.75,Stimuli\ImageFiles-Set2\Faces\Face_00060.png,0,0,0,148,148,148,,,,,,,,,,,,,97.00249299999996,0.002492999999958556,None,142.7175659000004,142.7175659000004,142.7175659000004,142.7175659000004,142.7175659000004,142.7175659000004,142.7175659000004,142.7175659000004,,002,P012,2025_Feb_08_1222,CategoryLocalizer,2021.2.3,59.94553348876264,
97.8,98.0,5,0.0,Stimuli\Blank.png,0,0,0,149,149,149,,,,,,,,,,,,,97.80355260000033,0.0035526000003329727,None,143.5349645999995,143.5349645999995,143.5349645999995,143.5349645999995,143.5349645999995,143.5349645999995,143.5349645999995,143.5349645999995,,002,P012,2025_Feb_08_1222,CategoryLocalizer,2021.2.3,59.94553348876264,
98.0,98.8,3,0.75,Stimuli\ImageFiles-Set2\Faces\Face_00110.png,0,0,0,150,150,150,,,,,,,,,,,,,98.0195447999995,0.01954479999949399,None,143.75181639999937,143.75181639999937,143.75181639999937,143.75181639999937,143.75181639999937,143.75181639999937,143.75181639999937,143.75181639999937,,002,P012,2025_Feb_08_1222,CategoryLocalizer,2021.2.3,59.94553348876264,
98.8,99.0,5,0.0,Stimuli\Blank.png,0,0,0,151,151,151,,,,,,,,,,,,,98.82013569999981,0.020135699999812573,None,144.53584620000038,144.53584620000038,144.53584620000038,144.53584620000038,144.53584620000038,144.53584620000038,144.53584620000038,144.53584620000038,,002,P012,2025_Feb_08_1222,CategoryLocalizer,2021.2.3,59.94553348876264,
99.0,99.8,3,0.75,Stimuli\ImageFiles-Set2\Faces\Face_00088.png,1,1,0,152,152,152,,,,,,,,,,,,,99.00419949999923,0.004199499999231193,None,144.73601690000032,144.73601690000032,144.73601690000032,144.73601690000032,144.73601690000032,144.73601690000032,144.73601690000032,144.73601690000032,,002,P012,2025_Feb_08_1222,CategoryLocalizer,2021.2.3,59.94553348876264,
99.8,100.0,5,0.0,Stimuli\Blank.png,0,0,0,153,153,153,,,,,,,,,,,,,99.82123110000066,0.021231100000662195,None,145.53671720000057,145.53671720000057,145.53671720000057,145.53671720000057,145.53671720000057,145.53671720000057,145.53671720000057,145.53671720000057,,002,P012,2025_Feb_08_1222,CategoryLocalizer,2021.2.3,59.94553348876264,
100.0,100.8,3,0.75,Stimuli\ImageFiles-Set2\Faces\Face_00026.png,0,0,0,154,154,154,,,,,,,,,,,,,100.0044727000004,0.004472700000405894,None,145.72019009999894,145.72019009999894,145.72019009999894,145.72019009999894,145.72019009999894,145.72019009999894,145.72019009999894,145.72019009999894,,002,P012,2025_Feb_08_1222,CategoryLocalizer,2021.2.3,59.94553348876264,
100.8,101.0,5,0.0,Stimuli\Blank.png,0,0,0,155,155,155,,,,,,,,,,,,,100.80525429999943,0.00525429999943583,None,146.52093289999902,146.52093289999902,146.52093289999902,146.52093289999902,146.52093289999902,146.52093289999902,146.52093289999902,146.52093289999902,,002,P012,2025_Feb_08_1222,CategoryLocalizer,2021.2.3,59.94553348876264,
101.0,101.8,3,0.75,Stimuli\ImageFiles-Set2\Faces\Face_00026.png,0,0,0,156,156,156,,,,,,,,,,,,,101.00475770000048,0.004757700000482146,2,146.7211100000004,146.7211100000004,146.7211100000004,146.7211100000004,146.7211100000004,146.7211100000004,146.7211100000004,146.7211100000004,0.40289990000019316,002,P012,2025_Feb_08_1222,CategoryLocalizer,2021.2.3,59.94553348876264,
101.8,102.0,5,0.0,Stimuli\Blank.png,0,0,0,157,157,157,,,,,,,,,,,,,101.80603700000029,0.006037000000290504,None,147.52182539999922,147.52182539999922,147.52182539999922,147.52182539999922,147.52182539999922,147.52182539999922,147.52182539999922,147.52182539999922,,002,P012,2025_Feb_08_1222,CategoryLocalizer,2021.2.3,59.94553348876264,
102.0,102.8,3,0.75,Stimuli\ImageFiles-Set2\Faces\Face_00038.png,0,0,0,158,158,158,,,,,,,,,,,,,102.00553609999952,0.005536099999517319,None,147.72195180000017,147.72195180000017,147.72195180000017,147.72195180000017,147.72195180000017,147.72195180000017,147.72195180000017,147.72195180000017,,002,P012,2025_Feb_08_1222,CategoryLocalizer,2021.2.3,59.94553348876264,
102.8,103.0,5,0.0,Stimuli\Blank.png,0,0,0,159,159,159,,,,,,,,,,,,,102.80819060000067,0.008190600000673953,None,148.53940030000012,148.53940030000012,148.53940030000012,148.53940030000012,148.53940030000012,148.53940030000012,148.53940030000012,148.53940030000012,,002,P012,2025_Feb_08_1222,CategoryLocalizer,2021.2.3,59.94553348876264,
103.0,103.8,3,0.75,Stimuli\ImageFiles-Set2\Faces\Face_00013.png,0,0,0,160,160,160,,,,,,,,,,,,,103.02315240000098,0.023152400000981288,None,148.7395648999991,148.7395648999991,148.7395648999991,148.7395648999991,148.7395648999991,148.7395648999991,148.7395648999991,148.7395648999991,,002,P012,2025_Feb_08_1222,CategoryLocalizer,2021.2.3,59.94553348876264,
103.8,104.0,5,0.0,Stimuli\Blank.png,0,0,0,161,161,161,,,,,,,,,,,,,103.80790630000047,0.007906300000470878,None,149.52360620000036,149.52360620000036,149.52360620000036,149.52360620000036,149.52360620000036,149.52360620000036,149.52360620000036,149.52360620000036,,002,P012,2025_Feb_08_1222,CategoryLocalizer,2021.2.3,59.94553348876264,
104.0,104.8,1,0.75,Stimuli\ImageFiles-Set2\Objects\Object_Tomato_00001.png,0,0,0,162,162,162,,,,,,,,,,,,,104.0072622000007,0.007262200000695884,None,149.72376199999962,149.72376199999962,149.72376199999962,149.72376199999962,149.72376199999962,149.72376199999962,149.72376199999962,149.72376199999962,,002,P012,2025_Feb_08_1222,CategoryLocalizer,2021.2.3,59.94553348876264,
104.8,105.0,5,0.0,Stimuli\Blank.png,0,0,0,163,163,163,,,,,,,,,,,,,104.80904490000103,0.009044900001029532,None,150.52452859999903,150.52452859999903,150.52452859999903,150.52452859999903,150.52452859999903,150.52452859999903,150.52452859999903,150.52452859999903,,002,P012,2025_Feb_08_1222,CategoryLocalizer,2021.2.3,59.94553348876264,
105.0,105.8,1,0.75,Stimuli\ImageFiles-Set2\Objects\Object_Bowl_00001.png,0,0,0,164,164,164,,,,,,,,,,,,,105.00816760000089,0.008167600000888342,None,150.72464720000062,150.72464720000062,150.72464720000062,150.72464720000062,150.72464720000062,150.72464720000062,150.72464720000062,150.72464720000062,,002,P012,2025_Feb_08_1222,CategoryLocalizer,2021.2.3,59.94553348876264,
105.8,106.0,5,0.0,Stimuli\Blank.png,0,0,0,165,165,165,,,,,,,,,,,,,105.81016610000006,0.010166100000063238,None,151.5253565999992,151.5253565999992,151.5253565999992,151.5253565999992,151.5253565999992,151.5253565999992,151.5253565999992,151.5253565999992,,002,P012,2025_Feb_08_1222,CategoryLocalizer,2021.2.3,59.94553348876264,
106.0,106.8,1,0.75,Stimuli\ImageFiles-Set2\Objects\Object_Dresser_00001.png,0,0,0,166,166,166,,,,,,,,,,,,,106.0090067000001,0.009006700000099954,None,151.72553030000017,151.72553030000017,151.72553030000017,151.72553030000017,151.72553030000017,151.72553030000017,151.72553030000017,151.72553030000017,,002,P012,2025_Feb_08_1222,CategoryLocalizer,2021.2.3,59.94553348876264,
106.8,107.0,5,0.0,Stimuli\Blank.png,0,0,0,167,167,167,,,,,,,,,,,,,106.80971540000064,0.009715400000644081,None,152.52622879999944,152.52622879999944,152.52622879999944,152.52622879999944,152.52622879999944,152.52622879999944,152.52622879999944,152.52622879999944,,002,P012,2025_Feb_08_1222,CategoryLocalizer,2021.2.3,59.94553348876264,
107.0,107.8,1,0.75,Stimuli\ImageFiles-Set2\Objects\Object_Scissors_00001.png,0,0,0,168,168,168,,,,,,,,,,,,,107.01004280000052,0.010042800000519492,None,152.72641640000074,152.72641640000074,152.72641640000074,152.72641640000074,152.72641640000074,152.72641640000074,152.72641640000074,152.72641640000074,,002,P012,2025_Feb_08_1222,CategoryLocalizer,2021.2.3,59.94553348876264,
107.8,108.0,5,0.0,Stimuli\Blank.png,0,0,0,169,169,169,,,,,,,,,,,,,107.813537,0.013536999999999466,None,153.54382310000074,153.54382310000074,153.54382310000074,153.54382310000074,153.54382310000074,153.54382310000074,153.54382310000074,153.54382310000074,,002,P012,2025_Feb_08_1222,CategoryLocalizer,2021.2.3,59.94553348876264,
108.0,108.8,1,0.75,Stimuli\ImageFiles-Set2\Objects\Object_Battery_00001.png,0,0,0,170,170,170,,,,,,,,,,,,,108.02764980000029,0.02764980000029027,None,153.74399500000072,153.74399500000072,153.74399500000072,153.74399500000072,153.74399500000072,153.74399500000072,153.74399500000072,153.74399500000072,,002,P012,2025_Feb_08_1222,CategoryLocalizer,2021.2.3,59.94553348876264,
108.8,109.0,5,0.0,Stimuli\Blank.png,0,0,0,171,171,171,,,,,,,,,,,,,108.81352940000033,0.013529400000336977,None,154.54470740000033,154.54470740000033,154.54470740000033,154.54470740000033,154.54470740000033,154.54470740000033,154.54470740000033,154.54470740000033,,002,P012,2025_Feb_08_1222,CategoryLocalizer,2021.2.3,59.94553348876264,
109.0,109.8,1,0.75,Stimuli\ImageFiles-Set2\Objects\Object_Battery_00001.png,1,1,0,172,172,172,,,,,,,,,,,,,109.02911850000055,0.02911850000054983,2,154.7615521000007,154.7615521000007,154.7615521000007,154.7615521000007,154.7615521000007,154.7615521000007,154.7615521000007,154.7615521000007,0.732321100000263,002,P012,2025_Feb_08_1222,CategoryLocalizer,2021.2.3,59.94553348876264,
109.8,110.0,5,0.0,Stimuli\Blank.png,0,0,0,173,173,173,,,,,,,,,,,,,109.82986560000063,0.029865600000633208,None,155.54558120000002,155.54558120000002,155.54558120000002,155.54558120000002,155.54558120000002,155.54558120000002,155.54558120000002,155.54558120000002,,002,P012,2025_Feb_08_1222,CategoryLocalizer,2021.2.3,59.94553348876264,
110.0,110.8,1,0.75,Stimuli\ImageFiles-Set2\Objects\Object_Dishwasher_00001.png,0,0,0,174,174,174,,,,,,,,,,,,,110.01341580000008,0.01341580000007525,None,155.7457718000005,155.7457718000005,155.7457718000005,155.7457718000005,155.7457718000005,155.7457718000005,155.7457718000005,155.7457718000005,,002,P012,2025_Feb_08_1222,CategoryLocalizer,2021.2.3,59.94553348876264,
110.8,111.0,5,0.0,Stimuli\Blank.png,0,0,0,175,175,175,,,,,,,,,,,,,110.83063860000038,0.030638600000386873,None,156.5464806,156.5464806,156.5464806,156.5464806,156.5464806,156.5464806,156.5464806,156.5464806,,002,P012,2025_Feb_08_1222,CategoryLocalizer,2021.2.3,59.94553348876264,
111.0,111.8,1,0.75,Stimuli\ImageFiles-Set2\Objects\Object_Wheelchair_00001.png,0,0,0,176,176,176,,,,,,,,,,,,,111.01405460000024,0.01405460000023595,None,156.7299738999991,156.7299738999991,156.7299738999991,156.7299738999991,156.7299738999991,156.7299738999991,156.7299738999991,156.7299738999991,,002,P012,2025_Feb_08_1222,CategoryLocalizer,2021.2.3,59.94553348876264,
111.8,112.0,5,0.0,Stimuli\Blank.png,0,0,0,177,177,177,,,,,,,,,,,,,111.81490189999931,0.014901899999316015,None,157.53067329999976,157.53067329999976,157.53067329999976,157.53067329999976,157.53067329999976,157.53067329999976,157.53067329999976,157.53067329999976,,002,P012,2025_Feb_08_1222,CategoryLocalizer,2021.2.3,59.94553348876264,
112.0,112.8,1,0.75,Stimuli\ImageFiles-Set2\Objects\Object_Jar_00001.png,0,0,0,178,178,178,,,,,,,,,,,,,112.01501629999984,0.015016299999842886,None,157.74752629999966,157.74752629999966,157.74752629999966,157.74752629999966,157.74752629999966,157.74752629999966,157.74752629999966,157.74752629999966,,002,P012,2025_Feb_08_1222,CategoryLocalizer,2021.2.3,59.94553348876264,
112.8,113.0,5,0.0,Stimuli\Blank.png,0,0,0,179,179,179,,,,,,,,,,,,,112.81568850000076,0.015688500000763383,None,158.53156540000055,158.53156540000055,158.53156540000055,158.53156540000055,158.53156540000055,158.53156540000055,158.53156540000055,158.53156540000055,,002,P012,2025_Feb_08_1222,CategoryLocalizer,2021.2.3,59.94553348876264,
113.0,113.8,1,0.75,Stimuli\ImageFiles-Set2\Objects\Object_Grill_00001.png,0,0,0,180,180,180,,,,,,,,,,,,,112.99910660000023,-0.0008933999997680075,None,158.73177410000062,158.73177410000062,158.73177410000062,158.73177410000062,158.73177410000062,158.73177410000062,158.73177410000062,158.73177410000062,,002,P012,2025_Feb_08_1222,CategoryLocalizer,2021.2.3,59.94553348876264,
113.8,114.0,5,0.0,Stimuli\Blank.png,0,0,0,181,181,181,,,,,,,,,,,,,113.81609639999988,0.016096399999881328,None,159.53245049999896,159.53245049999896,159.53245049999896,159.53245049999896,159.53245049999896,159.53245049999896,159.53245049999896,159.53245049999896,,002,P012,2025_Feb_08_1222,CategoryLocalizer,2021.2.3,59.94553348876264,
114.0,114.8,1,0.75,Stimuli\ImageFiles-Set2\Objects\Object_Dumpster_00001.png,0,0,0,182,182,182,,,,,,,,,,,,,113.99957410000025,-0.0004258999997546198,None,159.7159570999993,159.7159570999993,159.7159570999993,159.7159570999993,159.7159570999993,159.7159570999993,159.7159570999993,159.7159570999993,,002,P012,2025_Feb_08_1222,CategoryLocalizer,2021.2.3,59.94553348876264,
114.8,115.0,5,0.0,Stimuli\Blank.png,0,0,0,183,183,183,,,,,,,,,,,,,114.80047650000051,0.00047650000051646657,None,160.51665929999945,160.51665929999945,160.51665929999945,160.51665929999945,160.51665929999945,160.51665929999945,160.51665929999945,160.51665929999945,,002,P012,2025_Feb_08_1222,CategoryLocalizer,2021.2.3,59.94553348876264,
115.0,115.8,1,0.75,Stimuli\ImageFiles-Set2\Objects\Object_Barrel_00001.png,0,0,0,184,184,184,,,,,,,,,,,,,115.00110680000034,0.0011068000003433554,None,160.7335321999999,160.7335321999999,160.7335321999999,160.7335321999999,160.7335321999999,160.7335321999999,160.7335321999999,160.7335321999999,,002,P012,2025_Feb_08_1222,CategoryLocalizer,2021.2.3,59.94553348876264,
115.8,116.0,5,0.0,Stimuli\Blank.png,0,0,0,185,185,185,,,,,,,,,,,,,115.81963159999941,0.019631599999414107,None,161.5509036000003,161.5509036000003,161.5509036000003,161.5509036000003,161.5509036000003,161.5509036000003,161.5509036000003,161.5509036000003,,002,P012,2025_Feb_08_1222,CategoryLocalizer,2021.2.3,59.94553348876264,
116.0,116.8,1,0.75,Stimuli\ImageFiles-Set2\Objects\Object_Fork_00001.png,0,0,0,186,186,186,,,,,,,,,,,,,116.01823030000014,0.018230300000141142,None,161.73444179999933,161.73444179999933,161.73444179999933,161.73444179999933,161.73444179999933,161.73444179999933,161.73444179999933,161.73444179999933,,002,P012,2025_Feb_08_1222,CategoryLocalizer,2021.2.3,59.94553348876264,
116.8,117.0,5,0.0,Stimuli\Blank.png,0,0,0,187,187,187,,,,,,,,,,,,,116.80258350000076,0.002583500000767458,None,162.5184281999991,162.5184281999991,162.5184281999991,162.5184281999991,162.5184281999991,162.5184281999991,162.5184281999991,162.5184281999991,,002,P012,2025_Feb_08_1222,CategoryLocalizer,2021.2.3,59.94553348876264,
117.0,117.8,1,0.75,Stimuli\ImageFiles-Set2\Objects\Object_Couch_00001.png,0,0,0,188,188,188,,,,,,,,,,,,,117.00503489999937,0.00503489999937301,None,162.73528160000023,162.73528160000023,162.73528160000023,162.73528160000023,162.73528160000023,162.73528160000023,162.73528160000023,162.73528160000023,,002,P012,2025_Feb_08_1222,CategoryLocalizer,2021.2.3,59.94553348876264,
117.8,118.0,5,0.0,Stimuli\Blank.png,0,0,0,189,189,189,,,,,,,,,,,,,117.81946140000036,0.01946140000036678,None,163.5359468000006,163.5359468000006,163.5359468000006,163.5359468000006,163.5359468000006,163.5359468000006,163.5359468000006,163.5359468000006,,002,P012,2025_Feb_08_1222,CategoryLocalizer,2021.2.3,59.94553348876264,
118.0,118.8,1,0.75,Stimuli\ImageFiles-Set2\Objects\Object_Button1_00001.png,0,0,0,190,190,190,,,,,,,,,,,,,118.00564219999978,0.00564219999978377,None,163.73613429999932,163.73613429999932,163.73613429999932,163.73613429999932,163.73613429999932,163.73613429999932,163.73613429999932,163.73613429999932,,002,P012,2025_Feb_08_1222,CategoryLocalizer,2021.2.3,59.94553348876264,
118.8,119.0,5,0.0,Stimuli\Blank.png,0,0,0,191,191,191,,,,,,,,,,,,,118.82083369999964,0.020833699999641908,None,164.53686629999902,164.53686629999902,164.53686629999902,164.53686629999902,164.53686629999902,164.53686629999902,164.53686629999902,164.53686629999902,,002,P012,2025_Feb_08_1222,CategoryLocalizer,2021.2.3,59.94553348876264,
119.0,119.8,1,0.75,Stimuli\ImageFiles-Set2\Objects\Object_Sponge_00001.png,0,0,0,192,192,192,,,,,,,,,,,,,119.00544330000048,0.005443300000479212,None,164.73779269999977,164.73779269999977,164.73779269999977,164.73779269999977,164.73779269999977,164.73779269999977,164.73779269999977,164.73779269999977,,002,P012,2025_Feb_08_1222,CategoryLocalizer,2021.2.3,59.94553348876264,
119.8,120.0,5,0.0,Stimuli\Blank.png,0,0,0,193,193,193,,,,,,,,,,,,,119.82215270000052,0.022152700000518166,None,165.53782610000053,165.53782610000053,165.53782610000053,165.53782610000053,165.53782610000053,165.53782610000053,165.53782610000053,165.53782610000053,,002,P012,2025_Feb_08_1222,CategoryLocalizer,2021.2.3,59.94553348876264,
120.0,120.8,4,0.75,Stimuli\ImageFiles-Set2\Scenes\Scenes_062.png,0,0,0,194,194,194,,,,,,,,,,,,,120.00565950000055,0.005659500000547268,None,165.72125389999928,165.72125389999928,165.72125389999928,165.72125389999928,165.72125389999928,165.72125389999928,165.72125389999928,165.72125389999928,,002,P012,2025_Feb_08_1222,CategoryLocalizer,2021.2.3,59.94553348876264,
120.8,121.0,5,0.0,Stimuli\Blank.png,0,0,0,195,195,195,,,,,,,,,,,,,120.80607500000042,0.006075000000421937,None,166.52196159999949,166.52196159999949,166.52196159999949,166.52196159999949,166.52196159999949,166.52196159999949,166.52196159999949,166.52196159999949,,002,P012,2025_Feb_08_1222,CategoryLocalizer,2021.2.3,59.94553348876264,
121.0,121.8,4,0.75,Stimuli\ImageFiles-Set2\Scenes\Scenes_094.png,0,0,0,196,196,196,,,,,,,,,,,,,121.00673909999932,0.006739099999322207,None,166.73883249999926,166.73883249999926,166.73883249999926,166.73883249999926,166.73883249999926,166.73883249999926,166.73883249999926,166.73883249999926,,002,P012,2025_Feb_08_1222,CategoryLocalizer,2021.2.3,59.94553348876264,
121.8,122.0,5,0.0,Stimuli\Blank.png,0,0,0,197,197,197,,,,,,,,,,,,,121.82467499999984,0.02467499999984568,None,167.5395277000007,167.5395277000007,167.5395277000007,167.5395277000007,167.5395277000007,167.5395277000007,167.5395277000007,167.5395277000007,,002,P012,2025_Feb_08_1222,CategoryLocalizer,2021.2.3,59.94553348876264,
122.0,122.8,4,0.75,Stimuli\ImageFiles-Set2\Scenes\Scenes_111.png,0,0,0,198,198,198,,,,,,,,,,,,,122.00651850000031,0.006518500000311178,None,167.72297620000063,167.72297620000063,167.72297620000063,167.72297620000063,167.72297620000063,167.72297620000063,167.72297620000063,167.72297620000063,,002,P012,2025_Feb_08_1222,CategoryLocalizer,2021.2.3,59.94553348876264,
122.8,123.0,5,0.0,Stimuli\Blank.png,0,0,0,199,199,199,,,,,,,,,,,,,122.80914060000032,0.009140600000321797,None,168.5404292000003,168.5404292000003,168.5404292000003,168.5404292000003,168.5404292000003,168.5404292000003,168.5404292000003,168.5404292000003,,002,P012,2025_Feb_08_1222,CategoryLocalizer,2021.2.3,59.94553348876264,
123.0,123.8,4,0.75,Stimuli\ImageFiles-Set2\Scenes\Scenes_111.png,1,1,0,200,200,200,,,,,,,,,,,,,123.0250930000002,0.025093000000197208,2,168.7572672999995,168.7572672999995,168.7572672999995,168.7572672999995,168.7572672999995,168.7572672999995,168.7572672999995,168.7572672999995,0.5384905999999319,002,P012,2025_Feb_08_1222,CategoryLocalizer,2021.2.3,59.94553348876264,
123.8,124.0,5,0.0,Stimuli\Blank.png,0,0,0,201,201,201,,,,,,,,,,,,,123.82482449999952,0.024824499999525074,None,169.5412935000004,169.5412935000004,169.5412935000004,169.5412935000004,169.5412935000004,169.5412935000004,169.5412935000004,169.5412935000004,,002,P012,2025_Feb_08_1222,CategoryLocalizer,2021.2.3,59.94553348876264,
124.0,124.8,4,0.75,Stimuli\ImageFiles-Set2\Scenes\Scenes_064.png,0,0,0,202,202,202,,,,,,,,,,,,,124.0088510000005,0.008851000000504428,None,169.72478579999915,169.72478579999915,169.72478579999915,169.72478579999915,169.72478579999915,169.72478579999915,169.72478579999915,169.72478579999915,,002,P012,2025_Feb_08_1222,CategoryLocalizer,2021.2.3,59.94553348876264,
124.8,125.0,5,0.0,Stimuli\Blank.png,0,0,0,203,203,203,,,,,,,,,,,,,124.8096387000005,0.009638700000508038,None,170.52550999999949,170.52550999999949,170.52550999999949,170.52550999999949,170.52550999999949,170.52550999999949,170.52550999999949,170.52550999999949,,002,P012,2025_Feb_08_1222,CategoryLocalizer,2021.2.3,59.94553348876264,
125.0,125.8,4,0.75,Stimuli\ImageFiles-Set2\Scenes\Scenes_119.png,0,0,0,204,204,204,,,,,,,,,,,,,125.01002809999954,0.010028099999544793,None,170.74236519999977,170.74236519999977,170.74236519999977,170.74236519999977,170.74236519999977,170.74236519999977,170.74236519999977,170.74236519999977,,002,P012,2025_Feb_08_1222,CategoryLocalizer,2021.2.3,59.94553348876264,
125.8,126.0,5,0.0,Stimuli\Blank.png,0,0,0,205,205,205,,,,,,,,,,,,,125.82710679999946,0.02710679999945853,None,171.54307270000027,171.54307270000027,171.54307270000027,171.54307270000027,171.54307270000027,171.54307270000027,171.54307270000027,171.54307270000027,,002,P012,2025_Feb_08_1222,CategoryLocalizer,2021.2.3,59.94553348876264,
126.0,126.8,4,0.75,Stimuli\ImageFiles-Set2\Scenes\Scenes_099.png,0,0,0,206,206,206,,,,,,,,,,,,,126.0100949000007,0.010094900000694906,None,171.74326540000038,171.74326540000038,171.74326540000038,171.74326540000038,171.74326540000038,171.74326540000038,171.74326540000038,171.74326540000038,,002,P012,2025_Feb_08_1222,CategoryLocalizer,2021.2.3,59.94553348876264,
126.8,127.0,5,0.0,Stimuli\Blank.png,0,0,0,207,207,207,,,,,,,,,,,,,126.82946420000007,0.029464200000077767,None,172.56063929999982,172.56063929999982,172.56063929999982,172.56063929999982,172.56063929999982,172.56063929999982,172.56063929999982,172.56063929999982,,002,P012,2025_Feb_08_1222,CategoryLocalizer,2021.2.3,59.94553348876264,
127.0,127.8,4,0.75,Stimuli\ImageFiles-Set2\Scenes\Scenes_095.png,0,0,0,208,208,208,,,,,,,,,,,,,127.02938050000012,0.029380500000115717,None,172.76083389999985,172.76083389999985,172.76083389999985,172.76083389999985,172.76083389999985,172.76083389999985,172.76083389999985,172.76083389999985,,002,P012,2025_Feb_08_1222,CategoryLocalizer,2021.2.3,59.94553348876264,
127.8,128.0,5,0.0,Stimuli\Blank.png,0,0,0,209,209,209,,,,,,,,,,,,,127.82894359999955,0.02894359999955043,None,173.54483860000073,173.54483860000073,173.54483860000073,173.54483860000073,173.54483860000073,173.54483860000073,173.54483860000073,173.54483860000073,,002,P012,2025_Feb_08_1222,CategoryLocalizer,2021.2.3,59.94553348876264,
128.0,128.8,4,0.75,Stimuli\ImageFiles-Set2\Scenes\Scenes_068.png,0,0,0,210,210,210,,,,,,,,,,,,,128.01294140000027,0.012941400000272552,None,173.74500660000012,173.74500660000012,173.74500660000012,173.74500660000012,173.74500660000012,173.74500660000012,173.74500660000012,173.74500660000012,,002,P012,2025_Feb_08_1222,CategoryLocalizer,2021.2.3,59.94553348876264,
128.8,129.0,5,0.0,Stimuli\Blank.png,0,0,0,211,211,211,,,,,,,,,,,,,128.82982380000067,0.02982380000065632,None,174.54574049999974,174.54574049999974,174.54574049999974,174.54574049999974,174.54574049999974,174.54574049999974,174.54574049999974,174.54574049999974,,002,P012,2025_Feb_08_1222,CategoryLocalizer,2021.2.3,59.94553348876264,
129.0,129.8,4,0.75,Stimuli\ImageFiles-Set2\Scenes\Scenes_086.png,0,0,0,212,212,212,,,,,,,,,,,,,129.015151900001,0.015151900001001195,None,174.74589749999905,174.74589749999905,174.74589749999905,174.74589749999905,174.74589749999905,174.74589749999905,174.74589749999905,174.74589749999905,,002,P012,2025_Feb_08_1222,CategoryLocalizer,2021.2.3,59.94553348876264,
129.8,130.0,5,0.0,Stimuli\Blank.png,0,0,0,213,213,213,,,,,,,,,,,,,129.81415709999965,0.014157099999636102,None,175.52992260000065,175.52992260000065,175.52992260000065,175.52992260000065,175.52992260000065,175.52992260000065,175.52992260000065,175.52992260000065,,002,P012,2025_Feb_08_1222,CategoryLocalizer,2021.2.3,59.94553348876264,
130.0,130.8,4,0.75,Stimuli\ImageFiles-Set2\Scenes\Scenes_107.png,0,0,0,214,214,214,,,,,,,,,,,,,130.01390920000085,0.013909200000853161,None,175.73010479999903,175.73010479999903,175.73010479999903,175.73010479999903,175.73010479999903,175.73010479999903,175.73010479999903,175.73010479999903,,002,P012,2025_Feb_08_1222,CategoryLocalizer,2021.2.3,59.94553348876264,
130.8,131.0,5,0.0,Stimuli\Blank.png,0,0,0,215,215,215,,,,,,,,,,,,,130.81441389999964,0.014413899999624391,None,176.5308184000005,176.5308184000005,176.5308184000005,176.5308184000005,176.5308184000005,176.5308184000005,176.5308184000005,176.5308184000005,,002,P012,2025_Feb_08_1222,CategoryLocalizer,2021.2.3,59.94553348876264,
131.0,131.8,4,0.75,Stimuli\ImageFiles-Set2\Scenes\Scenes_105.png,1,1,0,216,216,216,,,,,,,,,,,,,131.01652009999998,0.01652009999997972,None,176.74767900000006,176.74767900000006,176.74767900000006,176.74767900000006,176.74767900000006,176.74767900000006,176.74767900000006,176.74767900000006,,002,P012,2025_Feb_08_1222,CategoryLocalizer,2021.2.3,59.94553348876264,
131.8,132.0,5,0.0,Stimuli\Blank.png,0,0,0,217,217,217,,,,,,,,,,,,,131.81539180000073,0.015391800000713829,None,177.5317140999996,177.5317140999996,177.5317140999996,177.5317140999996,177.5317140999996,177.5317140999996,177.5317140999996,177.5317140999996,,002,P012,2025_Feb_08_1222,CategoryLocalizer,2021.2.3,59.94553348876264,
132.0,132.8,4,0.75,Stimuli\ImageFiles-Set2\Scenes\Scenes_069.png,0,0,0,218,218,218,,,,,,,,,,,,,132.0153965999998,0.015396599999803584,None,177.73187469999903,177.73187469999903,177.73187469999903,177.73187469999903,177.73187469999903,177.73187469999903,177.73187469999903,177.73187469999903,,002,P012,2025_Feb_08_1222,CategoryLocalizer,2021.2.3,59.94553348876264,
132.8,133.0,5,0.0,Stimuli\Blank.png,0,0,0,219,219,219,,,,,,,,,,,,,132.7995673000005,-0.00043269999952144644,None,178.51590899999974,178.51590899999974,178.51590899999974,178.51590899999974,178.51590899999974,178.51590899999974,178.51590899999974,178.51590899999974,,002,P012,2025_Feb_08_1222,CategoryLocalizer,2021.2.3,59.94553348876264,
133.0,133.8,4,0.75,Stimuli\ImageFiles-Set2\Scenes\Scenes_069.png,0,0,0,220,220,220,,,,,,,,,,,,,133.0003746000002,0.00037460000021383166,2,178.732756899999,178.732756899999,178.732756899999,178.732756899999,178.732756899999,178.732756899999,178.732756899999,178.732756899999,0.4790069999999105,002,P012,2025_Feb_08_1222,CategoryLocalizer,2021.2.3,59.94553348876264,
133.8,134.0,5,0.0,Stimuli\Blank.png,0,0,0,221,221,221,,,,,,,,,,,,,133.81726499999968,0.017264999999667907,None,179.53347310000026,179.53347310000026,179.53347310000026,179.53347310000026,179.53347310000026,179.53347310000026,179.53347310000026,179.53347310000026,,002,P012,2025_Feb_08_1222,CategoryLocalizer,2021.2.3,59.94553348876264,
134.0,134.8,4,0.75,Stimuli\ImageFiles-Set2\Scenes\Scenes_073.png,0,0,0,222,222,222,,,,,,,,,,,,,134.0006357000002,0.0006357000002026325,None,179.71698859999924,179.71698859999924,179.71698859999924,179.71698859999924,179.71698859999924,179.71698859999924,179.71698859999924,179.71698859999924,,002,P012,2025_Feb_08_1222,CategoryLocalizer,2021.2.3,59.94553348876264,
134.8,135.0,5,0.0,Stimuli\Blank.png,0,0,0,223,223,223,,,,,,,,,,,,,134.80138550000083,0.0013855000008220486,None,180.51768509999965,180.51768509999965,180.51768509999965,180.51768509999965,180.51768509999965,180.51768509999965,180.51768509999965,180.51768509999965,,002,P012,2025_Feb_08_1222,CategoryLocalizer,2021.2.3,59.94553348876264,
135.0,135.8,4,0.75,Stimuli\ImageFiles-Set2\Scenes\Scenes_112.png,0,0,0,224,224,224,,,,,,,,,,,,,135.002068400001,0.0020684000010078307,None,180.71785119999913,180.71785119999913,180.71785119999913,180.71785119999913,180.71785119999913,180.71785119999913,180.71785119999913,180.71785119999913,,002,P012,2025_Feb_08_1222,CategoryLocalizer,2021.2.3,59.94553348876264,
135.8,136.0,5,0.0,Stimuli\Blank.png,0,0,0,225,225,225,,,,,,,,,,,,,135.80296810000073,0.0029681000007144576,None,181.5185703999996,181.5185703999996,181.5185703999996,181.5185703999996,181.5185703999996,181.5185703999996,181.5185703999996,181.5185703999996,,002,P012,2025_Feb_08_1222,CategoryLocalizer,2021.2.3,59.94553348876264,
136.0,136.8,2,0.75,Stimuli\ImageFiles-Set2\Bodies\Bodies_Pushing_00002.png,0,0,0,226,226,226,,,,,,,,,,,,,136.00479059999998,0.00479059999997844,None,181.73541400000067,181.73541400000067,181.73541400000067,181.73541400000067,181.73541400000067,181.73541400000067,181.73541400000067,181.73541400000067,,002,P012,2025_Feb_08_1222,CategoryLocalizer,2021.2.3,59.94553348876264,
136.8,137.0,5,0.0,Stimuli\Blank.png,0,0,0,227,227,227,,,,,,,,,,,,,136.8202435000003,0.020243500000276526,None,182.53613609999957,182.53613609999957,182.53613609999957,182.53613609999957,182.53613609999957,182.53613609999957,182.53613609999957,182.53613609999957,,002,P012,2025_Feb_08_1222,CategoryLocalizer,2021.2.3,59.94553348876264,
137.0,137.8,2,0.75,Stimuli\ImageFiles-Set2\Bodies\Bodies_Hanging_00007.png,0,0,0,228,228,228,,,,,,,,,,,,,137.00469279999925,0.004692799999247654,None,182.719621799999,182.719621799999,182.719621799999,182.719621799999,182.719621799999,182.719621799999,182.719621799999,182.719621799999,,002,P012,2025_Feb_08_1222,CategoryLocalizer,2021.2.3,59.94553348876264,
137.8,138.0,5,0.0,Stimuli\Blank.png,0,0,0,229,229,229,,,,,,,,,,,,,137.8039348000002,0.003934800000195082,None,183.52031969999916,183.52031969999916,183.52031969999916,183.52031969999916,183.52031969999916,183.52031969999916,183.52031969999916,183.52031969999916,,002,P012,2025_Feb_08_1222,CategoryLocalizer,2021.2.3,59.94553348876264,
138.0,138.8,2,0.75,Stimuli\ImageFiles-Set2\Bodies\Bodies_Jumping_00001.png,0,0,0,230,230,230,,,,,,,,,,,,,138.00553989999935,0.005539899999348563,None,183.72047720000046,183.72047720000046,183.72047720000046,183.72047720000046,183.72047720000046,183.72047720000046,183.72047720000046,183.72047720000046,,002,P012,2025_Feb_08_1222,CategoryLocalizer,2021.2.3,59.94553348876264,
138.8,139.0,5,0.0,Stimuli\Blank.png,0,0,0,231,231,231,,,,,,,,,,,,,138.80531119999978,0.0053111999997668136,None,184.52121799999986,184.52121799999986,184.52121799999986,184.52121799999986,184.52121799999986,184.52121799999986,184.52121799999986,184.52121799999986,,002,P012,2025_Feb_08_1222,CategoryLocalizer,2021.2.3,59.94553348876264,
139.0,139.8,2,0.75,Stimuli\ImageFiles-Set2\Bodies\Bodies_Walking_00007.png,0,0,0,232,232,232,,,,,,,,,,,,,139.00537540000005,0.005375400000048103,None,184.72137900000052,184.72137900000052,184.72137900000052,184.72137900000052,184.72137900000052,184.72137900000052,184.72137900000052,184.72137900000052,,002,P012,2025_Feb_08_1222,CategoryLocalizer,2021.2.3,59.94553348876264,
139.8,140.0,5,0.0,Stimuli\Blank.png,0,0,0,233,233,233,,,,,,,,,,,,,139.8062788999996,0.006278899999585974,None,185.52208749999954,185.52208749999954,185.52208749999954,185.52208749999954,185.52208749999954,185.52208749999954,185.52208749999954,185.52208749999954,,002,P012,2025_Feb_08_1222,CategoryLocalizer,2021.2.3,59.94553348876264,
140.0,140.8,2,0.75,Stimuli\ImageFiles-Set2\Bodies\Bodies_SittingFloor_00001.png,0,0,0,234,234,234,,,,,,,,,,,,,140.00662680000096,0.00662680000095861,None,185.73894990000008,185.73894990000008,185.73894990000008,185.73894990000008,185.73894990000008,185.73894990000008,185.73894990000008,185.73894990000008,,002,P012,2025_Feb_08_1222,CategoryLocalizer,2021.2.3,59.94553348876264,
140.8,141.0,5,0.0,Stimuli\Blank.png,0,0,0,235,235,235,,,,,,,,,,,,,140.8244219999997,0.024421999999674426,None,186.53966430000037,186.53966430000037,186.53966430000037,186.53966430000037,186.53966430000037,186.53966430000037,186.53966430000037,186.53966430000037,,002,P012,2025_Feb_08_1222,CategoryLocalizer,2021.2.3,59.94553348876264,
141.0,141.8,2,0.75,Stimuli\ImageFiles-Set2\Bodies\Bodies_Kneeling_00001.png,0,0,0,236,236,236,,,,,,,,,,,,,141.00738400000046,0.007384000000456581,None,186.7231582000004,186.7231582000004,186.7231582000004,186.7231582000004,186.7231582000004,186.7231582000004,186.7231582000004,186.7231582000004,,002,P012,2025_Feb_08_1222,CategoryLocalizer,2021.2.3,59.94553348876264,
141.8,142.0,5,0.0,Stimuli\Blank.png,0,0,0,237,237,237,,,,,,,,,,,,,141.80978390000018,0.009783900000172707,None,187.54056929999933,187.54056929999933,187.54056929999933,187.54056929999933,187.54056929999933,187.54056929999933,187.54056929999933,187.54056929999933,,002,P012,2025_Feb_08_1222,CategoryLocalizer,2021.2.3,59.94553348876264,
142.0,142.8,2,0.75,Stimuli\ImageFiles-Set2\Bodies\Bodies_Kneeling_00001.png,1,1,0,238,238,238,,,,,,,,,,,,,142.02467520000027,0.024675200000274344,None,187.74071919999915,187.74071919999915,187.74071919999915,187.74071919999915,187.74071919999915,187.74071919999915,187.74071919999915,187.74071919999915,,002,P012,2025_Feb_08_1222,CategoryLocalizer,2021.2.3,59.94553348876264,
142.8,143.0,5,0.0,Stimuli\Blank.png,0,0,0,239,239,239,,,,,,,,,,,,,142.8089989,0.008998899999994592,2,188.52475760000016,188.52475760000016,188.52475760000016,188.52475760000016,188.52475760000016,188.52475760000016,188.52475760000016,188.52475760000016,0.008392899999307701,002,P012,2025_Feb_08_1222,CategoryLocalizer,2021.2.3,59.94553348876264,
143.0,143.8,2,0.75,Stimuli\ImageFiles-Set2\Bodies\Bodies_Running_00004.png,0,0,0,240,240,240,,,,,,,,,,,,,143.0090837000007,0.009083700000701356,None,188.72492950000014,188.72492950000014,188.72492950000014,188.72492950000014,188.72492950000014,188.72492950000014,188.72492950000014,188.72492950000014,,002,P012,2025_Feb_08_1222,CategoryLocalizer,2021.2.3,59.94553348876264,
143.8,144.0,5,0.0,Stimuli\Blank.png,0,0,0,241,241,241,,,,,,,,,,,,,143.8101886000004,0.010188600000390124,None,189.52677829999993,189.52677829999993,189.52677829999993,189.52677829999993,189.52677829999993,189.52677829999993,189.52677829999993,189.52677829999993,,002,P012,2025_Feb_08_1222,CategoryLocalizer,2021.2.3,59.94553348876264,
144.0,144.8,2,0.75,Stimuli\ImageFiles-Set2\Bodies\Bodies_Falling_00005.png,0,0,0,242,242,242,,,,,,,,,,,,,144.00966590000098,0.00966590000098222,None,189.72581170000012,189.72581170000012,189.72581170000012,189.72581170000012,189.72581170000012,189.72581170000012,189.72581170000012,189.72581170000012,,002,P012,2025_Feb_08_1222,CategoryLocalizer,2021.2.3,59.94553348876264,
144.8,145.0,5,0.0,Stimuli\Blank.png,0,0,0,243,243,243,,,,,,,,,,,,,144.81011510000098,0.010115100000973598,None,190.52651530000003,190.52651530000003,190.52651530000003,190.52651530000003,190.52651530000003,190.52651530000003,190.52651530000003,190.52651530000003,,002,P012,2025_Feb_08_1222,CategoryLocalizer,2021.2.3,59.94553348876264,
145.0,145.8,2,0.75,Stimuli\ImageFiles-Set2\Bodies\Bodies_Running_00002.png,0,0,0,244,244,244,,,,,,,,,,,,,145.010202200001,0.010202200001003803,None,190.72668990000057,190.72668990000057,190.72668990000057,190.72668990000057,190.72668990000057,190.72668990000057,190.72668990000057,190.72668990000057,,002,P012,2025_Feb_08_1222,CategoryLocalizer,2021.2.3,59.94553348876264,
145.8,146.0,5,0.0,Stimuli\Blank.png,0,0,0,245,245,245,,,,,,,,,,,,,145.81088909999926,0.01088909999924681,None,191.52740389999963,191.52740389999963,191.52740389999963,191.52740389999963,191.52740389999963,191.52740389999963,191.52740389999963,191.52740389999963,,002,P012,2025_Feb_08_1222,CategoryLocalizer,2021.2.3,59.94553348876264,
146.0,146.8,2,0.75,Stimuli\ImageFiles-Set2\Bodies\Bodies_Punching_00007.png,0,0,0,246,246,246,,,,,,,,,,,,,146.0112296999996,0.011229699999603326,None,191.74426739999944,191.74426739999944,191.74426739999944,191.74426739999944,191.74426739999944,191.74426739999944,191.74426739999944,191.74426739999944,,002,P012,2025_Feb_08_1222,CategoryLocalizer,2021.2.3,59.94553348876264,
146.8,147.0,5,0.0,Stimuli\Blank.png,0,0,0,247,247,247,,,,,,,,,,,,,146.82917330000055,0.02917330000053653,None,192.54498910000075,192.54498910000075,192.54498910000075,192.54498910000075,192.54498910000075,192.54498910000075,192.54498910000075,192.54498910000075,,002,P012,2025_Feb_08_1222,CategoryLocalizer,2021.2.3,59.94553348876264,
147.0,147.8,2,0.75,Stimuli\ImageFiles-Set2\Bodies\Bodies_Walking_00003.png,0,0,0,248,248,248,,,,,,,,,,,,,147.0141822000005,0.014182200000504963,None,192.74514850000014,192.74514850000014,192.74514850000014,192.74514850000014,192.74514850000014,192.74514850000014,192.74514850000014,192.74514850000014,,002,P012,2025_Feb_08_1222,CategoryLocalizer,2021.2.3,59.94553348876264,
147.8,148.0,5,0.0,Stimuli\Blank.png,0,0,0,249,249,249,,,,,,,,,,,,,147.82957660000102,0.02957660000100759,None,193.54583309999907,193.54583309999907,193.54583309999907,193.54583309999907,193.54583309999907,193.54583309999907,193.54583309999907,193.54583309999907,,002,P012,2025_Feb_08_1222,CategoryLocalizer,2021.2.3,59.94553348876264,
148.0,148.8,2,0.75,Stimuli\ImageFiles-Set2\Bodies\Bodies_SittingStretch_00001.png,0,0,0,250,250,250,,,,,,,,,,,,,148.0133764000002,0.013376400000197464,None,193.7293497999999,193.7293497999999,193.7293497999999,193.7293497999999,193.7293497999999,193.7293497999999,193.7293497999999,193.7293497999999,,002,P012,2025_Feb_08_1222,CategoryLocalizer,2021.2.3,59.94553348876264,
148.8,149.0,5,0.0,Stimuli\Blank.png,0,0,0,251,251,251,,,,,,,,,,,,,148.81503770000018,0.015037700000164023,None,194.53007190000062,194.53007190000062,194.53007190000062,194.53007190000062,194.53007190000062,194.53007190000062,194.53007190000062,194.53007190000062,,002,P012,2025_Feb_08_1222,CategoryLocalizer,2021.2.3,59.94553348876264,
149.0,149.8,2,0.75,Stimuli\ImageFiles-Set2\Bodies\Bodies_Walking_00005.png,0,0,0,252,252,252,,,,,,,,,,,,,149.0141867000002,0.014186700000209385,None,194.7302354000003,194.7302354000003,194.7302354000003,194.7302354000003,194.7302354000003,194.7302354000003,194.7302354000003,194.7302354000003,,002,P012,2025_Feb_08_1222,CategoryLocalizer,2021.2.3,59.94553348876264,
149.8,150.0,5,0.0,Stimuli\Blank.png,0,0,0,253,253,253,,,,,,,,,,,,,149.81474850000086,0.014748500000848708,None,195.53094430000056,195.53094430000056,195.53094430000056,195.53094430000056,195.53094430000056,195.53094430000056,195.53094430000056,195.53094430000056,,002,P012,2025_Feb_08_1222,CategoryLocalizer,2021.2.3,59.94553348876264,
150.0,150.8,2,0.75,Stimuli\ImageFiles-Set2\Bodies\Bodies_SittingFloor_00004.png,0,0,0,254,254,254,,,,,,,,,,,,,150.01491460000034,0.014914600000338396,None,195.7478243000005,195.7478243000005,195.7478243000005,195.7478243000005,195.7478243000005,195.7478243000005,195.7478243000005,195.7478243000005,,002,P012,2025_Feb_08_1222,CategoryLocalizer,2021.2.3,59.94553348876264,
150.8,151.0,5,0.0,Stimuli\Blank.png,0,0,0,255,255,255,,,,,,,,,,,,,150.8348208999996,0.034820899999601806,None,196.56526219999978,196.56526219999978,196.56526219999978,196.56526219999978,196.56526219999978,196.56526219999978,196.56526219999978,196.56526219999978,,002,P012,2025_Feb_08_1222,CategoryLocalizer,2021.2.3,59.94553348876264,
151.0,151.8,2,0.75,Stimuli\ImageFiles-Set2\Bodies\Bodies_SittingChair_00006.png,0,0,0,256,256,256,,,,,,,,,,,,,151.0165336000009,0.016533600000911974,None,196.74865809999937,196.74865809999937,196.74865809999937,196.74865809999937,196.74865809999937,196.74865809999937,196.74865809999937,196.74865809999937,,002,P012,2025_Feb_08_1222,CategoryLocalizer,2021.2.3,59.94553348876264,
151.8,152.0,5,0.0,Stimuli\Blank.png,0,0,0,257,257,257,,,,,,,,,,,,,151.81633619999957,0.016336199999557266,None,197.53272069999912,197.53272069999912,197.53272069999912,197.53272069999912,197.53272069999912,197.53272069999912,197.53272069999912,197.53272069999912,,002,P012,2025_Feb_08_1222,CategoryLocalizer,2021.2.3,59.94553348876264,
152.0,164.0,0,0.0,Stimuli\Blank.png,0,0,0,258,258,258,,,,,,,,,,,,,152.00085989999934,0.0008598999993409961,None,197.71617890000016,197.71617890000016,197.71617890000016,197.71617890000016,197.71617890000016,197.71617890000016,197.71617890000016,197.71617890000016,,002,P012,2025_Feb_08_1222,CategoryLocalizer,2021.2.3,59.94553348876264,
164.0,164.8,4,0.75,Stimuli\ImageFiles-Set2\Scenes\Scenes_089.png,0,0,0,259,259,259,,,,,,,,,,,,,164.01040570000077,0.010405700000774232,None,209.7435136999993,209.7435136999993,209.7435136999993,209.7435136999993,209.7435136999993,209.7435136999993,209.7435136999993,209.7435136999993,,002,P012,2025_Feb_08_1222,CategoryLocalizer,2021.2.3,59.94553348876264,
164.8,165.0,5,0.0,Stimuli\Blank.png,0,0,0,260,260,260,,,,,,,,,,,,,164.8303161999993,0.030316199999276705,None,210.5609242999999,210.5609242999999,210.5609242999999,210.5609242999999,210.5609242999999,210.5609242999999,210.5609242999999,210.5609242999999,,002,P012,2025_Feb_08_1222,CategoryLocalizer,2021.2.3,59.94553348876264,
165.0,165.8,4,0.75,Stimuli\ImageFiles-Set2\Scenes\Scenes_110.png,0,0,0,261,261,261,,,,,,,,,,,,,165.0283261000004,0.028326100000413135,None,210.76110100000005,210.76110100000005,210.76110100000005,210.76110100000005,210.76110100000005,210.76110100000005,210.76110100000005,210.76110100000005,,002,P012,2025_Feb_08_1222,CategoryLocalizer,2021.2.3,59.94553348876264,
165.8,166.0,5,0.0,Stimuli\Blank.png,0,0,0,262,262,262,,,,,,,,,,,,,165.82884770000055,0.028847700000540044,None,211.54519009999967,211.54519009999967,211.54519009999967,211.54519009999967,211.54519009999967,211.54519009999967,211.54519009999967,211.54519009999967,,002,P012,2025_Feb_08_1222,CategoryLocalizer,2021.2.3,59.94553348876264,
166.0,166.8,4,0.75,Stimuli\ImageFiles-Set2\Scenes\Scenes_067.png,0,0,0,263,263,263,,,,,,,,,,,,,166.0122437000009,0.012243700000908575,None,211.7286064,211.7286064,211.7286064,211.7286064,211.7286064,211.7286064,211.7286064,211.7286064,,002,P012,2025_Feb_08_1222,CategoryLocalizer,2021.2.3,59.94553348876264,
166.8,167.0,5,0.0,Stimuli\Blank.png,0,0,0,264,264,264,,,,,,,,,,,,,166.81537039999967,0.015370399999653728,None,212.54599889999918,212.54599889999918,212.54599889999918,212.54599889999918,212.54599889999918,212.54599889999918,212.54599889999918,212.54599889999918,,002,P012,2025_Feb_08_1222,CategoryLocalizer,2021.2.3,59.94553348876264,
167.0,167.8,4,0.75,Stimuli\ImageFiles-Set2\Scenes\Scenes_115.png,0,0,0,265,265,265,,,,,,,,,,,,,167.03064520000044,0.03064520000043558,None,212.76285339999959,212.76285339999959,212.76285339999959,212.76285339999959,212.76285339999959,212.76285339999959,212.76285339999959,212.76285339999959,,002,P012,2025_Feb_08_1222,CategoryLocalizer,2021.2.3,59.94553348876264,
167.8,168.0,5,0.0,Stimuli\Blank.png,0,0,0,266,266,266,,,,,,,,,,,,,167.83041690000027,0.03041690000026165,None,213.54687729999932,213.54687729999932,213.54687729999932,213.54687729999932,213.54687729999932,213.54687729999932,213.54687729999932,213.54687729999932,,002,P012,2025_Feb_08_1222,CategoryLocalizer,2021.2.3,59.94553348876264,
168.0,168.8,4,0.75,Stimuli\ImageFiles-Set2\Scenes\Scenes_100.png,0,0,0,267,267,267,,,,,,,,,,,,,168.01389240000026,0.013892400000258931,None,213.7303890000003,213.7303890000003,213.7303890000003,213.7303890000003,213.7303890000003,213.7303890000003,213.7303890000003,213.7303890000003,,002,P012,2025_Feb_08_1222,CategoryLocalizer,2021.2.3,59.94553348876264,
168.8,169.0,5,0.0,Stimuli\Blank.png,0,0,0,268,268,268,,,,,,,,,,,,,168.81537030000072,0.015370300000711268,None,214.5312388000002,214.5312388000002,214.5312388000002,214.5312388000002,214.5312388000002,214.5312388000002,214.5312388000002,214.5312388000002,,002,P012,2025_Feb_08_1222,CategoryLocalizer,2021.2.3,59.94553348876264,
169.0,169.8,4,0.75,Stimuli\ImageFiles-Set2\Scenes\Scenes_102.png,0,0,0,269,269,269,,,,,,,,,,,,,169.0154246000002,0.015424600000187638,None,214.74795350000022,214.74795350000022,214.74795350000022,214.74795350000022,214.74795350000022,214.74795350000022,214.74795350000022,214.74795350000022,,002,P012,2025_Feb_08_1222,CategoryLocalizer,2021.2.3,59.94553348876264,
169.8,170.0,5,0.0,Stimuli\Blank.png,0,0,0,270,270,270,,,,,,,,,,,,,169.81616580000082,0.01616580000080603,None,215.53194500000063,215.53194500000063,215.53194500000063,215.53194500000063,215.53194500000063,215.53194500000063,215.53194500000063,215.53194500000063,,002,P012,2025_Feb_08_1222,CategoryLocalizer,2021.2.3,59.94553348876264,
170.0,170.8,4,0.75,Stimuli\ImageFiles-Set2\Scenes\Scenes_117.png,0,0,0,271,271,271,,,,,,,,,,,,,170.0000215,2.1500000002561137e-05,None,215.73217149999982,215.73217149999982,215.73217149999982,215.73217149999982,215.73217149999982,215.73217149999982,215.73217149999982,215.73217149999982,,002,P012,2025_Feb_08_1222,CategoryLocalizer,2021.2.3,59.94553348876264,
170.8,171.0,5,0.0,Stimuli\Blank.png,0,0,0,272,272,272,,,,,,,,,,,,,170.81714450000072,0.017144500000711105,None,216.53293940000003,216.53293940000003,216.53293940000003,216.53293940000003,216.53293940000003,216.53293940000003,216.53293940000003,216.53293940000003,,002,P012,2025_Feb_08_1222,CategoryLocalizer,2021.2.3,59.94553348876264,
171.0,171.8,4,0.75,Stimuli\ImageFiles-Set2\Scenes\Scenes_116.png,0,0,0,273,273,273,,,,,,,,,,,,,170.99983600000087,-0.00016399999913119245,None,216.732996499999,216.732996499999,216.732996499999,216.732996499999,216.732996499999,216.732996499999,216.732996499999,216.732996499999,,002,P012,2025_Feb_08_1222,CategoryLocalizer,2021.2.3,59.94553348876264,
171.8,172.0,5,0.0,Stimuli\Blank.png,0,0,0,274,274,274,,,,,,,,,,,,,171.81725200000074,0.01725200000072391,None,217.53379700000005,217.53379700000005,217.53379700000005,217.53379700000005,217.53379700000005,217.53379700000005,217.53379700000005,217.53379700000005,,002,P012,2025_Feb_08_1222,CategoryLocalizer,2021.2.3,59.94553348876264,
172.0,172.8,4,0.75,Stimuli\ImageFiles-Set2\Scenes\Scenes_116.png,1,1,0,275,275,275,,,,,,,,,,,,,172.00097640000058,0.0009764000005816342,2,217.71725200000037,217.71725200000037,217.71725200000037,217.71725200000037,217.71725200000037,217.71725200000037,217.71725200000037,217.71725200000037,0.3456941000004008,002,P012,2025_Feb_08_1222,CategoryLocalizer,2021.2.3,59.94553348876264,
172.8,173.0,5,0.0,Stimuli\Blank.png,0,0,0,276,276,276,,,,,,,,,,,,,172.8043232,0.004323199999987537,None,218.5346542999996,218.5346542999996,218.5346542999996,218.5346542999996,218.5346542999996,218.5346542999996,218.5346542999996,218.5346542999996,,002,P012,2025_Feb_08_1222,CategoryLocalizer,2021.2.3,59.94553348876264,
173.0,173.8,4,0.75,Stimuli\ImageFiles-Set2\Scenes\Scenes_097.png,0,0,0,277,277,277,,,,,,,,,,,,,173.01931859999968,0.019318599999678554,None,218.73479729999963,218.73479729999963,218.73479729999963,218.73479729999963,218.73479729999963,218.73479729999963,218.73479729999963,218.73479729999963,,002,P012,2025_Feb_08_1222,CategoryLocalizer,2021.2.3,59.94553348876264,
173.8,174.0,5,0.0,Stimuli\Blank.png,0,0,0,278,278,278,,,,,,,,,,,,,173.80243370000062,0.0024337000006084963,None,219.51883009999983,219.51883009999983,219.51883009999983,219.51883009999983,219.51883009999983,219.51883009999983,219.51883009999983,219.51883009999983,,002,P012,2025_Feb_08_1222,CategoryLocalizer,2021.2.3,59.94553348876264,
174.0,174.8,4,0.75,Stimuli\ImageFiles-Set2\Scenes\Scenes_120.png,0,0,0,279,279,279,,,,,,,,,,,,,174.00506619999942,0.005066199999419041,None,219.73569329999918,219.73569329999918,219.73569329999918,219.73569329999918,219.73569329999918,219.73569329999918,219.73569329999918,219.73569329999918,,002,P012,2025_Feb_08_1222,CategoryLocalizer,2021.2.3,59.94553348876264,
174.8,175.0,5,0.0,Stimuli\Blank.png,0,0,0,280,280,280,,,,,,,,,,,,,174.8198635000008,0.019863500000781187,None,220.53639590000057,220.53639590000057,220.53639590000057,220.53639590000057,220.53639590000057,220.53639590000057,220.53639590000057,220.53639590000057,,002,P012,2025_Feb_08_1222,CategoryLocalizer,2021.2.3,59.94553348876264,
175.0,175.8,4,0.75,Stimuli\ImageFiles-Set2\Scenes\Scenes_084.png,0,0,0,281,281,281,,,,,,,,,,,,,175.0040454000009,0.00404540000090492,None,220.7365692000003,220.7365692000003,220.7365692000003,220.7365692000003,220.7365692000003,220.7365692000003,220.7365692000003,220.7365692000003,,002,P012,2025_Feb_08_1222,CategoryLocalizer,2021.2.3,59.94553348876264,
175.8,176.0,5,0.0,Stimuli\Blank.png,0,0,0,282,282,282,,,,,,,,,,,,,175.82087259999935,0.020872599999336217,None,221.53727749999962,221.53727749999962,221.53727749999962,221.53727749999962,221.53727749999962,221.53727749999962,221.53727749999962,221.53727749999962,,002,P012,2025_Feb_08_1222,CategoryLocalizer,2021.2.3,59.94553348876264,
176.0,176.8,4,0.75,Stimuli\ImageFiles-Set2\Scenes\Scenes_065.png,0,0,0,283,283,283,,,,,,,,,,,,,176.00547039999947,0.00547039999946719,None,221.73745419999977,221.73745419999977,221.73745419999977,221.73745419999977,221.73745419999977,221.73745419999977,221.73745419999977,221.73745419999977,,002,P012,2025_Feb_08_1222,CategoryLocalizer,2021.2.3,59.94553348876264,
176.8,177.0,5,0.0,Stimuli\Blank.png,0,0,0,284,284,284,,,,,,,,,,,,,176.82164080000075,0.02164080000073909,None,222.539300299999,222.539300299999,222.539300299999,222.539300299999,222.539300299999,222.539300299999,222.539300299999,222.539300299999,,002,P012,2025_Feb_08_1222,CategoryLocalizer,2021.2.3,59.94553348876264,
