eventStartTime,eventEndTime,eventCond,imSize,imFile,repeatedImage,responseEvent,Events.thisRepN,Events.thisTrialN,Events.thisN,Events.thisIndex,Instructions.started,Instructions.stopped,participantReadyResponse.keys,participantReadyResponse.rt,participantReadyResponse.started,participantReadyResponse.stopped,startWaitforTrigger,triggerResponse.keys,triggerResponse.rt,triggerResponse.started,triggerResponse.stopped,globalTimer,actualStartTime,startTimingDiff,participantResponse.keys,participantResponse.started,participantResponse.stopped,image.started,image.stopped,fixationOutside.started,fixationOutside.stopped,fixationInside.started,fixationInside.stopped,participantResponse.rt,session,participant,date,expName,psychopyVersion,frameRate,
,,,,,,,,,,,10.41798530000051,None,2,13.39454619999924,10.41798530000051,None,,,,,,,,,,,,,,,,,,,001,P012,2025_Feb_08_1152,CategoryLocalizer,2021.2.3,59.9401797002514,
,,,,,,,,,,,,,,,,,23.826229700000113,5,14.463885299999674,23.839573400000518,None,,,,,,,,,,,,,,001,P012,2025_Feb_08_1152,CategoryLocalizer,2021.2.3,59.9401797002514,
0.0,12.0,0,0.0,Stimuli\Blank.png,0,0,0,0,0,0,,,,,,,,,,,,38.3056347999991,0.03818729999875359,0.03818729999875359,None,38.36907969999993,None,38.36907969999993,None,38.36907969999993,None,38.36907969999993,None,,001,P012,2025_Feb_08_1152,CategoryLocalizer,2021.2.3,59.9401797002514,
12.0,12.8,1,0.75,Stimuli\ImageFiles-Set1\Objects\Object_IroningBoard_00001.png,0,0,0,1,1,1,,,,,,,,,,,,,12.027652099999614,0.02765209999961371,None,50.36301569999887,50.36301569999887,50.36301569999887,50.36301569999887,50.36301569999887,50.36301569999887,50.36301569999887,50.36301569999887,,001,P012,2025_Feb_08_1152,CategoryLocalizer,2021.2.3,59.9401797002514,
12.8,13.0,5,0.0,Stimuli\Blank.png,0,0,0,2,2,2,,,,,,,,,,,,,12.829091999999946,0.029091999999945273,None,51.16371810000055,51.16371810000055,51.16371810000055,51.16371810000055,51.16371810000055,51.16371810000055,51.16371810000055,51.16371810000055,,001,P012,2025_Feb_08_1152,CategoryLocalizer,2021.2.3,59.9401797002514,
13.0,13.8,1,0.75,Stimuli\ImageFiles-Set1\Objects\Object_Dryer_00001.png,0,0,0,3,3,3,,,,,,,,,,,,,13.027586999998675,0.02758699999867531,None,51.36389699999927,51.36389699999927,51.36389699999927,51.36389699999927,51.36389699999927,51.36389699999927,51.36389699999927,51.36389699999927,,001,P012,2025_Feb_08_1152,CategoryLocalizer,2021.2.3,59.9401797002514,
13.8,14.0,5,0.0,Stimuli\Blank.png,0,0,0,4,4,4,,,,,,,,,,,,,13.829361000000063,0.02936100000006192,None,52.1646041999993,52.1646041999993,52.1646041999993,52.1646041999993,52.1646041999993,52.1646041999993,52.1646041999993,52.1646041999993,,001,P012,2025_Feb_08_1152,CategoryLocalizer,2021.2.3,59.9401797002514,
14.0,14.8,1,0.75,Stimuli\ImageFiles-Set1\Objects\Object_Stroller_00001.png,0,0,0,5,5,5,,,,,,,,,,,,,14.029562199999418,0.029562199999418226,None,52.36479750000035,52.36479750000035,52.36479750000035,52.36479750000035,52.36479750000035,52.36479750000035,52.36479750000035,52.36479750000035,,001,P012,2025_Feb_08_1152,CategoryLocalizer,2021.2.3,59.9401797002514,
14.8,15.0,5,0.0,Stimuli\Blank.png,0,0,0,6,6,6,,,,,,,,,,,,,14.829818999998679,0.02981899999867821,None,53.148804099999325,53.148804099999325,53.148804099999325,53.148804099999325,53.148804099999325,53.148804099999325,53.148804099999325,53.148804099999325,,001,P012,2025_Feb_08_1152,CategoryLocalizer,2021.2.3,59.9401797002514,
15.0,15.8,1,0.75,Stimuli\ImageFiles-Set1\Objects\Object_Card_00001.png,0,0,0,7,7,7,,,,,,,,,,,,,15.01204609999877,0.012046099998769932,None,53.33229740000024,53.33229740000024,53.33229740000024,53.33229740000024,53.33229740000024,53.33229740000024,53.33229740000024,53.33229740000024,,001,P012,2025_Feb_08_1152,CategoryLocalizer,2021.2.3,59.9401797002514,
15.8,16.0,5,0.0,Stimuli\Blank.png,0,0,0,8,8,8,,,,,,,,,,,,,15.813174400000207,0.013174400000206532,None,54.13302920000024,54.13302920000024,54.13302920000024,54.13302920000024,54.13302920000024,54.13302920000024,54.13302920000024,54.13302920000024,,001,P012,2025_Feb_08_1152,CategoryLocalizer,2021.2.3,59.9401797002514,
16.0,16.8,1,0.75,Stimuli\ImageFiles-Set1\Objects\Object_Pencil_00001.png,0,0,0,9,9,9,,,,,,,,,,,,,16.013273700000354,0.013273700000354438,None,54.333183499998995,54.333183499998995,54.333183499998995,54.333183499998995,54.333183499998995,54.333183499998995,54.333183499998995,54.333183499998995,,001,P012,2025_Feb_08_1152,CategoryLocalizer,2021.2.3,59.9401797002514,
16.8,17.0,5,0.0,Stimuli\Blank.png,0,0,0,10,10,10,,,,,,,,,,,,,16.814114299999346,0.014114299999345548,None,55.134676699999545,55.134676699999545,55.134676699999545,55.134676699999545,55.134676699999545,55.134676699999545,55.134676699999545,55.134676699999545,,001,P012,2025_Feb_08_1152,CategoryLocalizer,2021.2.3,59.9401797002514,
17.0,17.8,1,0.75,Stimuli\ImageFiles-Set1\Objects\Object_Pencil_00001.png,1,1,0,11,11,11,,,,,,,,,,,,,17.01386029999958,0.013860299999578274,2,55.334067399999185,55.334067399999185,55.334067399999185,55.334067399999185,55.334067399999185,55.334067399999185,55.334067399999185,55.334067399999185,0.5217600999985734,001,P012,2025_Feb_08_1152,CategoryLocalizer,2021.2.3,59.9401797002514,
17.8,18.0,5,0.0,Stimuli\Blank.png,0,0,0,12,12,12,,,,,,,,,,,,,17.81521090000024,0.015210900000237615,None,56.134780899999896,56.134780899999896,56.134780899999896,56.134780899999896,56.134780899999896,56.134780899999896,56.134780899999896,56.134780899999896,,001,P012,2025_Feb_08_1152,CategoryLocalizer,2021.2.3,59.9401797002514,
18.0,18.8,1,0.75,Stimuli\ImageFiles-Set1\Objects\Object_Scale_00001.png,0,0,0,13,13,13,,,,,,,,,,,,,18.014649099999588,0.014649099999587634,None,56.33494819999942,56.33494819999942,56.33494819999942,56.33494819999942,56.33494819999942,56.33494819999942,56.33494819999942,56.33494819999942,,001,P012,2025_Feb_08_1152,CategoryLocalizer,2021.2.3,59.9401797002514,
18.8,19.0,5,0.0,Stimuli\Blank.png,0,0,0,14,14,14,,,,,,,,,,,,,18.815570299999308,0.01557029999930748,None,57.13566919999903,57.13566919999903,57.13566919999903,57.13566919999903,57.13566919999903,57.13566919999903,57.13566919999903,57.13566919999903,,001,P012,2025_Feb_08_1152,CategoryLocalizer,2021.2.3,59.9401797002514,
19.0,19.8,1,0.75,Stimuli\ImageFiles-Set1\Objects\Object_Tool_00001.png,0,0,0,15,15,15,,,,,,,,,,,,,18.999063499999465,-0.0009365000005345792,None,57.31915959999969,57.31915959999969,57.31915959999969,57.31915959999969,57.31915959999969,57.31915959999969,57.31915959999969,57.31915959999969,,001,P012,2025_Feb_08_1152,CategoryLocalizer,2021.2.3,59.9401797002514,
19.8,20.0,5,0.0,Stimuli\Blank.png,0,0,0,16,16,16,,,,,,,,,,,,,19.800564199998917,0.0005641999989158819,None,58.11987330000011,58.11987330000011,58.11987330000011,58.11987330000011,58.11987330000011,58.11987330000011,58.11987330000011,58.11987330000011,,001,P012,2025_Feb_08_1152,CategoryLocalizer,2021.2.3,59.9401797002514,
20.0,20.8,1,0.75,Stimuli\ImageFiles-Set1\Objects\Object_Apple_00001.png,0,0,0,17,17,17,,,,,,,,,,,,,20.00006779999967,6.779999966965988e-05,None,58.336694499999794,58.336694499999794,58.336694499999794,58.336694499999794,58.336694499999794,58.336694499999794,58.336694499999794,58.336694499999794,,001,P012,2025_Feb_08_1152,CategoryLocalizer,2021.2.3,59.9401797002514,
20.8,21.0,5,0.0,Stimuli\Blank.png,0,0,0,18,18,18,,,,,,,,,,,,,20.81916689999889,0.019166899998889875,None,59.154120299999704,59.154120299999704,59.154120299999704,59.154120299999704,59.154120299999704,59.154120299999704,59.154120299999704,59.154120299999704,,001,P012,2025_Feb_08_1152,CategoryLocalizer,2021.2.3,59.9401797002514,
21.0,21.8,1,0.75,Stimuli\ImageFiles-Set1\Objects\Object_PepperShaker_00001.png,0,0,0,19,19,19,,,,,,,,,,,,,21.018809399998645,0.01880939999864495,None,59.35431190000054,59.35431190000054,59.35431190000054,59.35431190000054,59.35431190000054,59.35431190000054,59.35431190000054,59.35431190000054,,001,P012,2025_Feb_08_1152,CategoryLocalizer,2021.2.3,59.9401797002514,
21.8,22.0,5,0.0,Stimuli\Blank.png,0,0,0,20,20,20,,,,,,,,,,,,,21.81810719999885,0.018107199998848245,None,60.138371999999436,60.138371999999436,60.138371999999436,60.138371999999436,60.138371999999436,60.138371999999436,60.138371999999436,60.138371999999436,,001,P012,2025_Feb_08_1152,CategoryLocalizer,2021.2.3,59.9401797002514,
22.0,22.8,1,0.75,Stimuli\ImageFiles-Set1\Objects\Object_Motorcycle_00001.png,0,0,0,21,21,21,,,,,,,,,,,,,22.004181500000414,0.004181500000413507,None,60.3384946999995,60.3384946999995,60.3384946999995,60.3384946999995,60.3384946999995,60.3384946999995,60.3384946999995,60.3384946999995,,001,P012,2025_Feb_08_1152,CategoryLocalizer,2021.2.3,59.9401797002514,
22.8,23.0,5,0.0,Stimuli\Blank.png,0,0,0,22,22,22,,,,,,,,,,,,,22.819430499999726,0.019430499999725015,None,61.13920809999945,61.13920809999945,61.13920809999945,61.13920809999945,61.13920809999945,61.13920809999945,61.13920809999945,61.13920809999945,,001,P012,2025_Feb_08_1152,CategoryLocalizer,2021.2.3,59.9401797002514,
23.0,23.8,1,0.75,Stimuli\ImageFiles-Set1\Objects\Object_Pillow_00001.png,0,0,0,23,23,23,,,,,,,,,,,,,23.004755300000397,0.004755300000397256,None,61.339412999999695,61.339412999999695,61.339412999999695,61.339412999999695,61.339412999999695,61.339412999999695,61.339412999999695,61.339412999999695,,001,P012,2025_Feb_08_1152,CategoryLocalizer,2021.2.3,59.9401797002514,
23.8,24.0,5,0.0,Stimuli\Blank.png,0,0,0,24,24,24,,,,,,,,,,,,,23.82051709999905,0.020517099999050714,None,62.14008400000057,62.14008400000057,62.14008400000057,62.14008400000057,62.14008400000057,62.14008400000057,62.14008400000057,62.14008400000057,,001,P012,2025_Feb_08_1152,CategoryLocalizer,2021.2.3,59.9401797002514,
24.0,24.8,1,0.75,Stimuli\ImageFiles-Set1\Objects\Object_Pot_00001.png,0,0,0,25,25,25,,,,,,,,,,,,,24.004917500000374,0.004917500000374275,None,62.323566900000515,62.323566900000515,62.323566900000515,62.323566900000515,62.323566900000515,62.323566900000515,62.323566900000515,62.323566900000515,,001,P012,2025_Feb_08_1152,CategoryLocalizer,2021.2.3,59.9401797002514,
24.8,25.0,5,0.0,Stimuli\Blank.png,0,0,0,26,26,26,,,,,,,,,,,,,24.804018200000428,0.004018200000427186,None,63.12428809999983,63.12428809999983,63.12428809999983,63.12428809999983,63.12428809999983,63.12428809999983,63.12428809999983,63.12428809999983,,001,P012,2025_Feb_08_1152,CategoryLocalizer,2021.2.3,59.9401797002514,
25.0,25.8,1,0.75,Stimuli\ImageFiles-Set1\Objects\Object_Door_00001.png,0,0,0,27,27,27,,,,,,,,,,,,,25.00541929999963,0.0054192999996303115,None,63.32447119999961,63.32447119999961,63.32447119999961,63.32447119999961,63.32447119999961,63.32447119999961,63.32447119999961,63.32447119999961,,001,P012,2025_Feb_08_1152,CategoryLocalizer,2021.2.3,59.9401797002514,
25.8,26.0,5,0.0,Stimuli\Blank.png,0,0,0,28,28,28,,,,,,,,,,,,,25.805606899999475,0.00560689999947428,None,64.12517259999913,64.12517259999913,64.12517259999913,64.12517259999913,64.12517259999913,64.12517259999913,64.12517259999913,64.12517259999913,,001,P012,2025_Feb_08_1152,CategoryLocalizer,2021.2.3,59.9401797002514,
26.0,26.8,1,0.75,Stimuli\ImageFiles-Set1\Objects\Object_Airplane_00001.png,0,0,0,29,29,29,,,,,,,,,,,,,26.005787899999632,0.005787899999631918,None,64.32531589999962,64.32531589999962,64.32531589999962,64.32531589999962,64.32531589999962,64.32531589999962,64.32531589999962,64.32531589999962,,001,P012,2025_Feb_08_1152,CategoryLocalizer,2021.2.3,59.9401797002514,
26.8,27.0,5,0.0,Stimuli\Blank.png,0,0,0,30,30,30,,,,,,,,,,,,,26.80597309999939,0.005973099999390996,None,65.12605939999958,65.12605939999958,65.12605939999958,65.12605939999958,65.12605939999958,65.12605939999958,65.12605939999958,65.12605939999958,,001,P012,2025_Feb_08_1152,CategoryLocalizer,2021.2.3,59.9401797002514,
27.0,27.8,1,0.75,Stimuli\ImageFiles-Set1\Objects\Object_Key_00001.png,0,0,0,31,31,31,,,,,,,,,,,,,27.006874900000184,0.006874900000184425,None,65.32624709999982,65.32624709999982,65.32624709999982,65.32624709999982,65.32624709999982,65.32624709999982,65.32624709999982,65.32624709999982,,001,P012,2025_Feb_08_1152,CategoryLocalizer,2021.2.3,59.9401797002514,
27.8,28.0,5,0.0,Stimuli\Blank.png,0,0,0,32,32,32,,,,,,,,,,,,,27.809224599999652,0.009224599999651417,None,66.14365559999897,66.14365559999897,66.14365559999897,66.14365559999897,66.14365559999897,66.14365559999897,66.14365559999897,66.14365559999897,,001,P012,2025_Feb_08_1152,CategoryLocalizer,2021.2.3,59.9401797002514,
28.0,28.8,2,0.75,Stimuli\ImageFiles-Set1\Bodies\Bodies_Jumping_00004.png,0,0,0,33,33,33,,,,,,,,,,,,,28.023848900000303,0.02384890000030282,None,66.34381009999925,66.34381009999925,66.34381009999925,66.34381009999925,66.34381009999925,66.34381009999925,66.34381009999925,66.34381009999925,,001,P012,2025_Feb_08_1152,CategoryLocalizer,2021.2.3,59.9401797002514,
28.8,29.0,5,0.0,Stimuli\Blank.png,0,0,0,34,34,34,,,,,,,,,,,,,28.80948460000036,0.009484600000359222,None,67.14451740000004,67.14451740000004,67.14451740000004,67.14451740000004,67.14451740000004,67.14451740000004,67.14451740000004,67.14451740000004,,001,P012,2025_Feb_08_1152,CategoryLocalizer,2021.2.3,59.9401797002514,
29.0,29.8,2,0.75,Stimuli\ImageFiles-Set1\Bodies\Bodies_Waving_00001.png,0,0,0,35,35,35,,,,,,,,,,,,,29.024833999999828,0.024833999999827938,None,67.34469089999948,67.34469089999948,67.34469089999948,67.34469089999948,67.34469089999948,67.34469089999948,67.34469089999948,67.34469089999948,,001,P012,2025_Feb_08_1152,CategoryLocalizer,2021.2.3,59.9401797002514,
29.8,30.0,5,0.0,Stimuli\Blank.png,0,0,0,36,36,36,,,,,,,,,,,,,29.808285899998737,0.008285899998735857,None,68.12871479999922,68.12871479999922,68.12871479999922,68.12871479999922,68.12871479999922,68.12871479999922,68.12871479999922,68.12871479999922,,001,P012,2025_Feb_08_1152,CategoryLocalizer,2021.2.3,59.9401797002514,
30.0,30.8,2,0.75,Stimuli\ImageFiles-Set1\Bodies\Bodies_Lunging_00001.png,0,0,0,37,37,37,,,,,,,,,,,,,30.00894789999984,0.008947899999839137,None,68.32886329999928,68.32886329999928,68.32886329999928,68.32886329999928,68.32886329999928,68.32886329999928,68.32886329999928,68.32886329999928,,001,P012,2025_Feb_08_1152,CategoryLocalizer,2021.2.3,59.9401797002514,
30.8,31.0,5,0.0,Stimuli\Blank.png,0,0,0,38,38,38,,,,,,,,,,,,,30.810086100000262,0.010086100000261666,None,69.1296026,69.1296026,69.1296026,69.1296026,69.1296026,69.1296026,69.1296026,69.1296026,,001,P012,2025_Feb_08_1152,CategoryLocalizer,2021.2.3,59.9401797002514,
31.0,31.8,2,0.75,Stimuli\ImageFiles-Set1\Bodies\Bodies_SittingChair_00001.png,0,0,0,39,39,39,,,,,,,,,,,,,31.00997869999992,0.009978699999919627,None,69.34646359999897,69.34646359999897,69.34646359999897,69.34646359999897,69.34646359999897,69.34646359999897,69.34646359999897,69.34646359999897,,001,P012,2025_Feb_08_1152,CategoryLocalizer,2021.2.3,59.9401797002514,
31.8,32.0,5,0.0,Stimuli\Blank.png,0,0,0,40,40,40,,,,,,,,,,,,,31.8281965999995,0.028196599999500194,None,70.14715830000023,70.14715830000023,70.14715830000023,70.14715830000023,70.14715830000023,70.14715830000023,70.14715830000023,70.14715830000023,,001,P012,2025_Feb_08_1152,CategoryLocalizer,2021.2.3,59.9401797002514,
32.0,32.8,2,0.75,Stimuli\ImageFiles-Set1\Bodies\Bodies_SittingChair_00003.png,0,0,0,41,41,41,,,,,,,,,,,,,32.011156700000356,0.011156700000356068,None,70.33062839999911,70.33062839999911,70.33062839999911,70.33062839999911,70.33062839999911,70.33062839999911,70.33062839999911,70.33062839999911,,001,P012,2025_Feb_08_1152,CategoryLocalizer,2021.2.3,59.9401797002514,
32.8,33.0,5,0.0,Stimuli\Blank.png,0,0,0,42,42,42,,,,,,,,,,,,,32.81137959999978,0.011379599999784773,None,71.13137329999881,71.13137329999881,71.13137329999881,71.13137329999881,71.13137329999881,71.13137329999881,71.13137329999881,71.13137329999881,,001,P012,2025_Feb_08_1152,CategoryLocalizer,2021.2.3,59.9401797002514,
33.0,33.8,2,0.75,Stimuli\ImageFiles-Set1\Bodies\Bodies_SittingChair_00003.png,1,1,0,43,43,43,,,,,,,,,,,,,33.01174499999979,0.011744999999791617,2,71.34823580000011,71.34823580000011,71.34823580000011,71.34823580000011,71.34823580000011,71.34823580000011,71.34823580000011,71.34823580000011,0.5923455000011018,001,P012,2025_Feb_08_1152,CategoryLocalizer,2021.2.3,59.9401797002514,
33.8,34.0,5,0.0,Stimuli\Blank.png,0,0,0,44,44,44,,,,,,,,,,,,,33.82864410000002,0.028644100000022377,None,72.14898659999926,72.14898659999926,72.14898659999926,72.14898659999926,72.14898659999926,72.14898659999926,72.14898659999926,72.14898659999926,,001,P012,2025_Feb_08_1152,CategoryLocalizer,2021.2.3,59.9401797002514,
34.0,34.8,2,0.75,Stimuli\ImageFiles-Set1\Bodies\Bodies_Punching_00006.png,0,0,0,45,45,45,,,,,,,,,,,,,34.012209299999085,0.012209299999085488,None,72.33243480000056,72.33243480000056,72.33243480000056,72.33243480000056,72.33243480000056,72.33243480000056,72.33243480000056,72.33243480000056,,001,P012,2025_Feb_08_1152,CategoryLocalizer,2021.2.3,59.9401797002514,
34.8,35.0,5,0.0,Stimuli\Blank.png,0,0,0,46,46,46,,,,,,,,,,,,,34.81358360000013,0.013583600000131923,None,73.13315279999915,73.13315279999915,73.13315279999915,73.13315279999915,73.13315279999915,73.13315279999915,73.13315279999915,73.13315279999915,,001,P012,2025_Feb_08_1152,CategoryLocalizer,2021.2.3,59.9401797002514,
35.0,35.8,2,0.75,Stimuli\ImageFiles-Set1\Bodies\Bodies_QuadStretch_00005.png,0,0,0,47,47,47,,,,,,,,,,,,,35.01392060000035,0.013920600000346894,None,73.33414789999915,73.33414789999915,73.33414789999915,73.33414789999915,73.33414789999915,73.33414789999915,73.33414789999915,73.33414789999915,,001,P012,2025_Feb_08_1152,CategoryLocalizer,2021.2.3,59.9401797002514,
35.8,36.0,5,0.0,Stimuli\Blank.png,0,0,0,48,48,48,,,,,,,,,,,,,35.813948699998946,0.013948699998948655,None,74.13402250000036,74.13402250000036,74.13402250000036,74.13402250000036,74.13402250000036,74.13402250000036,74.13402250000036,74.13402250000036,,001,P012,2025_Feb_08_1152,CategoryLocalizer,2021.2.3,59.9401797002514,
36.0,36.8,2,0.75,Stimuli\ImageFiles-Set1\Bodies\Bodies_Hanging_00002.png,1,1,0,49,49,49,,,,,,,,,,,,,36.01449800000046,0.014498000000457978,None,74.3508898,74.3508898,74.3508898,74.3508898,74.3508898,74.3508898,74.3508898,74.3508898,,001,P012,2025_Feb_08_1152,CategoryLocalizer,2021.2.3,59.9401797002514,
36.8,37.0,5,0.0,Stimuli\Blank.png,0,0,0,50,50,50,,,,,,,,,,,,,36.83182779999879,0.03182779999879415,None,75.15159510000012,75.15159510000012,75.15159510000012,75.15159510000012,75.15159510000012,75.15159510000012,75.15159510000012,75.15159510000012,,001,P012,2025_Feb_08_1152,CategoryLocalizer,2021.2.3,59.9401797002514,
37.0,37.8,2,0.75,Stimuli\ImageFiles-Set1\Bodies\Bodies_QuadStretch_00001.png,0,0,0,51,51,51,,,,,,,,,,,,,37.01559780000025,0.015597800000250572,None,75.33509799999956,75.33509799999956,75.33509799999956,75.33509799999956,75.33509799999956,75.33509799999956,75.33509799999956,75.33509799999956,,001,P012,2025_Feb_08_1152,CategoryLocalizer,2021.2.3,59.9401797002514,
37.8,38.0,5,0.0,Stimuli\Blank.png,0,0,0,52,52,52,,,,,,,,,,,,,37.80013829999916,0.00013829999916481484,None,76.11912549999943,76.11912549999943,76.11912549999943,76.11912549999943,76.11912549999943,76.11912549999943,76.11912549999943,76.11912549999943,,001,P012,2025_Feb_08_1152,CategoryLocalizer,2021.2.3,59.9401797002514,
38.0,38.8,2,0.75,Stimuli\ImageFiles-Set1\Bodies\Bodies_QuadStretch_00001.png,0,0,0,53,53,53,,,,,,,,,,,,,37.99956589999965,-0.0004341000003478257,2,76.31925980000051,76.31925980000051,76.31925980000051,76.31925980000051,76.31925980000051,76.31925980000051,76.31925980000051,76.31925980000051,0.6094576000014058,001,P012,2025_Feb_08_1152,CategoryLocalizer,2021.2.3,59.9401797002514,
38.8,39.0,5,0.0,Stimuli\Blank.png,0,0,0,54,54,54,,,,,,,,,,,,,38.79985829999896,-0.00014170000103774782,None,77.12000330000046,77.12000330000046,77.12000330000046,77.12000330000046,77.12000330000046,77.12000330000046,77.12000330000046,77.12000330000046,,001,P012,2025_Feb_08_1152,CategoryLocalizer,2021.2.3,59.9401797002514,
39.0,39.8,2,0.75,Stimuli\ImageFiles-Set1\Bodies\Bodies_Walking_00006.png,0,0,0,55,55,55,,,,,,,,,,,,,39.0007773999987,0.0007773999986966373,None,77.33688299999994,77.33688299999994,77.33688299999994,77.33688299999994,77.33688299999994,77.33688299999994,77.33688299999994,77.33688299999994,,001,P012,2025_Feb_08_1152,CategoryLocalizer,2021.2.3,59.9401797002514,
39.8,40.0,5,0.0,Stimuli\Blank.png,0,0,0,56,56,56,,,,,,,,,,,,,39.819574600000124,0.019574600000126452,None,78.15426949999892,78.15426949999892,78.15426949999892,78.15426949999892,78.15426949999892,78.15426949999892,78.15426949999892,78.15426949999892,,001,P012,2025_Feb_08_1152,CategoryLocalizer,2021.2.3,59.9401797002514,
40.0,40.8,2,0.75,Stimuli\ImageFiles-Set1\Bodies\Bodies_DownwardDog_00005.png,0,0,0,57,57,57,,,,,,,,,,,,,40.01919599999928,0.01919599999928323,None,78.35447139999997,78.35447139999997,78.35447139999997,78.35447139999997,78.35447139999997,78.35447139999997,78.35447139999997,78.35447139999997,,001,P012,2025_Feb_08_1152,CategoryLocalizer,2021.2.3,59.9401797002514,
40.8,41.0,5,0.0,Stimuli\Blank.png,0,0,0,58,58,58,,,,,,,,,,,,,40.81826679999904,0.018266799999040018,None,79.13849350000055,79.13849350000055,79.13849350000055,79.13849350000055,79.13849350000055,79.13849350000055,79.13849350000055,79.13849350000055,,001,P012,2025_Feb_08_1152,CategoryLocalizer,2021.2.3,59.9401797002514,
41.0,41.8,2,0.75,Stimuli\ImageFiles-Set1\Bodies\Bodies_Pushing_00003.png,0,0,0,59,59,59,,,,,,,,,,,,,41.00412449999931,0.004124499999306863,None,79.33861289999913,79.33861289999913,79.33861289999913,79.33861289999913,79.33861289999913,79.33861289999913,79.33861289999913,79.33861289999913,,001,P012,2025_Feb_08_1152,CategoryLocalizer,2021.2.3,59.9401797002514,
41.8,42.0,5,0.0,Stimuli\Blank.png,0,0,0,60,60,60,,,,,,,,,,,,,41.81896729999971,0.018967299999715692,None,80.13933720000023,80.13933720000023,80.13933720000023,80.13933720000023,80.13933720000023,80.13933720000023,80.13933720000023,80.13933720000023,,001,P012,2025_Feb_08_1152,CategoryLocalizer,2021.2.3,59.9401797002514,
42.0,42.8,2,0.75,Stimuli\ImageFiles-Set1\Bodies\Bodies_Kneeling_00007.png,0,0,0,61,61,61,,,,,,,,,,,,,42.00403179999921,0.004031799999211216,None,80.33952139999928,80.33952139999928,80.33952139999928,80.33952139999928,80.33952139999928,80.33952139999928,80.33952139999928,80.33952139999928,,001,P012,2025_Feb_08_1152,CategoryLocalizer,2021.2.3,59.9401797002514,
42.8,43.0,5,0.0,Stimuli\Blank.png,0,0,0,62,62,62,,,,,,,,,,,,,42.82067900000038,0.020679000000384917,None,81.14022339999974,81.14022339999974,81.14022339999974,81.14022339999974,81.14022339999974,81.14022339999974,81.14022339999974,81.14022339999974,,001,P012,2025_Feb_08_1152,CategoryLocalizer,2021.2.3,59.9401797002514,
43.0,43.8,2,0.75,Stimuli\ImageFiles-Set1\Bodies\Bodies_PushUp_00002.png,0,0,0,63,63,63,,,,,,,,,,,,,43.00367220000044,0.003672200000437442,None,81.32373199999893,81.32373199999893,81.32373199999893,81.32373199999893,81.32373199999893,81.32373199999893,81.32373199999893,81.32373199999893,,001,P012,2025_Feb_08_1152,CategoryLocalizer,2021.2.3,59.9401797002514,
43.8,44.0,5,0.0,Stimuli\Blank.png,0,0,0,64,64,64,,,,,,,,,,,,,43.80493489999935,0.00493489999935548,None,82.12446450000061,82.12446450000061,82.12446450000061,82.12446450000061,82.12446450000061,82.12446450000061,82.12446450000061,82.12446450000061,,001,P012,2025_Feb_08_1152,CategoryLocalizer,2021.2.3,59.9401797002514,
44.0,44.8,3,0.75,Stimuli\ImageFiles-Set1\Faces\Face_00033.png,0,0,0,65,65,65,,,,,,,,,,,,,44.004891299999144,0.004891299999144394,None,82.3413148999989,82.3413148999989,82.3413148999989,82.3413148999989,82.3413148999989,82.3413148999989,82.3413148999989,82.3413148999989,,001,P012,2025_Feb_08_1152,CategoryLocalizer,2021.2.3,59.9401797002514,
44.8,45.0,5,0.0,Stimuli\Blank.png,0,0,0,66,66,66,,,,,,,,,,,,,44.82437839999875,0.024378399998752798,None,83.15868339999906,83.15868339999906,83.15868339999906,83.15868339999906,83.15868339999906,83.15868339999906,83.15868339999906,83.15868339999906,,001,P012,2025_Feb_08_1152,CategoryLocalizer,2021.2.3,59.9401797002514,
45.0,45.8,3,0.75,Stimuli\ImageFiles-Set1\Faces\Face_00047.png,0,0,0,67,67,67,,,,,,,,,,,,,45.02179909999904,0.021799099999043392,None,83.34217109999918,83.34217109999918,83.34217109999918,83.34217109999918,83.34217109999918,83.34217109999918,83.34217109999918,83.34217109999918,,001,P012,2025_Feb_08_1152,CategoryLocalizer,2021.2.3,59.9401797002514,
45.8,46.0,5,0.0,Stimuli\Blank.png,0,0,0,68,68,68,,,,,,,,,,,,,45.80599339999935,0.005993399999354665,None,84.12620459999926,84.12620459999926,84.12620459999926,84.12620459999926,84.12620459999926,84.12620459999926,84.12620459999926,84.12620459999926,,001,P012,2025_Feb_08_1152,CategoryLocalizer,2021.2.3,59.9401797002514,
46.0,46.8,3,0.75,Stimuli\ImageFiles-Set1\Faces\Face_00047.png,1,1,0,69,69,69,,,,,,,,,,,,,46.006629199999225,0.006629199999224511,2,84.32634829999915,84.32634829999915,84.32634829999915,84.32634829999915,84.32634829999915,84.32634829999915,84.32634829999915,84.32634829999915,0.6042849000004935,001,P012,2025_Feb_08_1152,CategoryLocalizer,2021.2.3,59.9401797002514,
46.8,47.0,5,0.0,Stimuli\Blank.png,0,0,0,70,70,70,,,,,,,,,,,,,46.80735730000015,0.0073573000001516675,None,85.12710639999932,85.12710639999932,85.12710639999932,85.12710639999932,85.12710639999932,85.12710639999932,85.12710639999932,85.12710639999932,,001,P012,2025_Feb_08_1152,CategoryLocalizer,2021.2.3,59.9401797002514,
47.0,47.8,3,0.75,Stimuli\ImageFiles-Set1\Faces\Face_00119.png,0,0,0,71,71,71,,,,,,,,,,,,,47.00690029999896,0.006900299998960691,None,85.32726489999914,85.32726489999914,85.32726489999914,85.32726489999914,85.32726489999914,85.32726489999914,85.32726489999914,85.32726489999914,,001,P012,2025_Feb_08_1152,CategoryLocalizer,2021.2.3,59.9401797002514,
47.8,48.0,5,0.0,Stimuli\Blank.png,0,0,0,72,72,72,,,,,,,,,,,,,47.80840819999867,0.008408199998669375,None,86.1279684000001,86.1279684000001,86.1279684000001,86.1279684000001,86.1279684000001,86.1279684000001,86.1279684000001,86.1279684000001,,001,P012,2025_Feb_08_1152,CategoryLocalizer,2021.2.3,59.9401797002514,
48.0,48.8,3,0.75,Stimuli\ImageFiles-Set1\Faces\Face_00024.png,0,0,0,73,73,73,,,,,,,,,,,,,48.010489999998754,0.010489999998753774,None,86.3448472,86.3448472,86.3448472,86.3448472,86.3448472,86.3448472,86.3448472,86.3448472,,001,P012,2025_Feb_08_1152,CategoryLocalizer,2021.2.3,59.9401797002514,
48.8,49.0,5,0.0,Stimuli\Blank.png,0,0,0,74,74,74,,,,,,,,,,,,,48.825331500000175,0.025331500000177698,None,87.14553569999953,87.14553569999953,87.14553569999953,87.14553569999953,87.14553569999953,87.14553569999953,87.14553569999953,87.14553569999953,,001,P012,2025_Feb_08_1152,CategoryLocalizer,2021.2.3,59.9401797002514,
49.0,49.8,3,0.75,Stimuli\ImageFiles-Set1\Faces\Face_00016.png,0,0,0,75,75,75,,,,,,,,,,,,,49.010143999999855,0.010143999999854714,None,87.34571730000062,87.34571730000062,87.34571730000062,87.34571730000062,87.34571730000062,87.34571730000062,87.34571730000062,87.34571730000062,,001,P012,2025_Feb_08_1152,CategoryLocalizer,2021.2.3,59.9401797002514,
49.8,50.0,5,0.0,Stimuli\Blank.png,0,0,0,76,76,76,,,,,,,,,,,,,49.82656759999918,0.02656759999918279,None,88.14642569999887,88.14642569999887,88.14642569999887,88.14642569999887,88.14642569999887,88.14642569999887,88.14642569999887,88.14642569999887,,001,P012,2025_Feb_08_1152,CategoryLocalizer,2021.2.3,59.9401797002514,
50.0,50.8,3,0.75,Stimuli\ImageFiles-Set1\Faces\Face_00051.png,0,0,0,77,77,77,,,,,,,,,,,,,50.010612399999445,0.010612399999445188,None,88.32991719999882,88.32991719999882,88.32991719999882,88.32991719999882,88.32991719999882,88.32991719999882,88.32991719999882,88.32991719999882,,001,P012,2025_Feb_08_1152,CategoryLocalizer,2021.2.3,59.9401797002514,
50.8,51.0,5,0.0,Stimuli\Blank.png,0,0,0,78,78,78,,,,,,,,,,,,,50.810308899999654,0.010308899999657228,None,89.13059389999944,89.13059389999944,89.13059389999944,89.13059389999944,89.13059389999944,89.13059389999944,89.13059389999944,89.13059389999944,,001,P012,2025_Feb_08_1152,CategoryLocalizer,2021.2.3,59.9401797002514,
51.0,51.8,3,0.75,Stimuli\ImageFiles-Set1\Faces\Face_00071.png,0,0,0,79,79,79,,,,,,,,,,,,,51.011319999999614,0.011319999999614083,None,89.33080789999985,89.33080789999985,89.33080789999985,89.33080789999985,89.33080789999985,89.33080789999985,89.33080789999985,89.33080789999985,,001,P012,2025_Feb_08_1152,CategoryLocalizer,2021.2.3,59.9401797002514,
51.8,52.0,5,0.0,Stimuli\Blank.png,0,0,0,80,80,80,,,,,,,,,,,,,51.81133289999889,0.011332899998890866,None,90.13152020000052,90.13152020000052,90.13152020000052,90.13152020000052,90.13152020000052,90.13152020000052,90.13152020000052,90.13152020000052,,001,P012,2025_Feb_08_1152,CategoryLocalizer,2021.2.3,59.9401797002514,
52.0,52.8,3,0.75,Stimuli\ImageFiles-Set1\Faces\Face_00039.png,0,0,0,81,81,81,,,,,,,,,,,,,52.01198089999889,0.011980899998889072,None,90.33169409999937,90.33169409999937,90.33169409999937,90.33169409999937,90.33169409999937,90.33169409999937,90.33169409999937,90.33169409999937,,001,P012,2025_Feb_08_1152,CategoryLocalizer,2021.2.3,59.9401797002514,
52.8,53.0,5,0.0,Stimuli\Blank.png,0,0,0,82,82,82,,,,,,,,,,,,,52.813251199999286,0.013251199999288588,None,91.13242039999932,91.13242039999932,91.13242039999932,91.13242039999932,91.13242039999932,91.13242039999932,91.13242039999932,91.13242039999932,,001,P012,2025_Feb_08_1152,CategoryLocalizer,2021.2.3,59.9401797002514,
53.0,53.8,3,0.75,Stimuli\ImageFiles-Set1\Faces\Face_00091.png,0,0,0,83,83,83,,,,,,,,,,,,,53.01427440000043,0.014274400000431342,None,91.34927160000007,91.34927160000007,91.34927160000007,91.34927160000007,91.34927160000007,91.34927160000007,91.34927160000007,91.34927160000007,,001,P012,2025_Feb_08_1152,CategoryLocalizer,2021.2.3,59.9401797002514,
53.8,54.0,5,0.0,Stimuli\Blank.png,0,0,0,84,84,84,,,,,,,,,,,,,53.82979919999889,0.029799199998890913,None,92.14996579999934,92.14996579999934,92.14996579999934,92.14996579999934,92.14996579999934,92.14996579999934,92.14996579999934,92.14996579999934,,001,P012,2025_Feb_08_1152,CategoryLocalizer,2021.2.3,59.9401797002514,
54.0,54.8,3,0.75,Stimuli\ImageFiles-Set1\Faces\Face_00067.png,1,1,0,85,85,85,,,,,,,,,,,,,54.01378189999923,0.013781899999230518,None,92.3501383999992,92.3501383999992,92.3501383999992,92.3501383999992,92.3501383999992,92.3501383999992,92.3501383999992,92.3501383999992,,001,P012,2025_Feb_08_1152,CategoryLocalizer,2021.2.3,59.9401797002514,
54.8,55.0,5,0.0,Stimuli\Blank.png,0,0,0,86,86,86,,,,,,,,,,,,,54.83088839999982,0.0308883999998244,None,93.15084879999995,93.15084879999995,93.15084879999995,93.15084879999995,93.15084879999995,93.15084879999995,93.15084879999995,93.15084879999995,,001,P012,2025_Feb_08_1152,CategoryLocalizer,2021.2.3,59.9401797002514,
55.0,55.8,3,0.75,Stimuli\ImageFiles-Set1\Faces\Face_00075.png,0,0,0,87,87,87,,,,,,,,,,,,,55.015279199998986,0.01527919999898586,None,93.35102270000061,93.35102270000061,93.35102270000061,93.35102270000061,93.35102270000061,93.35102270000061,93.35102270000061,93.35102270000061,,001,P012,2025_Feb_08_1152,CategoryLocalizer,2021.2.3,59.9401797002514,
55.8,56.0,5,0.0,Stimuli\Blank.png,0,0,0,88,88,88,,,,,,,,,,,,,55.815372499999285,0.01537249999928747,None,94.13504850000027,94.13504850000027,94.13504850000027,94.13504850000027,94.13504850000027,94.13504850000027,94.13504850000027,94.13504850000027,,001,P012,2025_Feb_08_1152,CategoryLocalizer,2021.2.3,59.9401797002514,
56.0,56.8,3,0.75,Stimuli\ImageFiles-Set1\Faces\Face_00075.png,0,0,0,89,89,89,,,,,,,,,,,,,56.015479399999094,0.015479399999094312,2,94.33523239999886,94.33523239999886,94.33523239999886,94.33523239999886,94.33523239999886,94.33523239999886,94.33523239999886,94.33523239999886,0.4863698999997723,001,P012,2025_Feb_08_1152,CategoryLocalizer,2021.2.3,59.9401797002514,
56.8,57.0,5,0.0,Stimuli\Blank.png,0,0,0,90,90,90,,,,,,,,,,,,,56.79990329999964,-9.670000035555404e-05,None,95.1192618999994,95.1192618999994,95.1192618999994,95.1192618999994,95.1192618999994,95.1192618999994,95.1192618999994,95.1192618999994,,001,P012,2025_Feb_08_1152,CategoryLocalizer,2021.2.3,59.9401797002514,
57.0,57.8,3,0.75,Stimuli\ImageFiles-Set1\Faces\Face_00101.png,0,0,0,91,91,91,,,,,,,,,,,,,56.999696400000175,-0.00030359999982465524,None,95.33611969999947,95.33611969999947,95.33611969999947,95.33611969999947,95.33611969999947,95.33611969999947,95.33611969999947,95.33611969999947,,001,P012,2025_Feb_08_1152,CategoryLocalizer,2021.2.3,59.9401797002514,
57.8,58.0,5,0.0,Stimuli\Blank.png,0,0,0,92,92,92,,,,,,,,,,,,,57.81655669999964,0.016556699999640045,None,96.13683039999887,96.13683039999887,96.13683039999887,96.13683039999887,96.13683039999887,96.13683039999887,96.13683039999887,96.13683039999887,,001,P012,2025_Feb_08_1152,CategoryLocalizer,2021.2.3,59.9401797002514,
58.0,58.8,3,0.75,Stimuli\ImageFiles-Set1\Faces\Face_00107.png,0,0,0,93,93,93,,,,,,,,,,,,,58.00107070000013,0.0010707000001275446,None,96.33700239999962,96.33700239999962,96.33700239999962,96.33700239999962,96.33700239999962,96.33700239999962,96.33700239999962,96.33700239999962,,001,P012,2025_Feb_08_1152,CategoryLocalizer,2021.2.3,59.9401797002514,
58.8,59.0,5,0.0,Stimuli\Blank.png,0,0,0,94,94,94,,,,,,,,,,,,,58.81933559999925,0.01933559999925194,None,97.15437369999927,97.15437369999927,97.15437369999927,97.15437369999927,97.15437369999927,97.15437369999927,97.15437369999927,97.15437369999927,,001,P012,2025_Feb_08_1152,CategoryLocalizer,2021.2.3,59.9401797002514,
59.0,59.8,3,0.75,Stimuli\ImageFiles-Set1\Faces\Face_00009.png,0,0,0,95,95,95,,,,,,,,,,,,,59.018789199999446,0.018789199999446282,None,97.3545637999996,97.3545637999996,97.3545637999996,97.3545637999996,97.3545637999996,97.3545637999996,97.3545637999996,97.3545637999996,,001,P012,2025_Feb_08_1152,CategoryLocalizer,2021.2.3,59.9401797002514,
59.8,60.0,5,0.0,Stimuli\Blank.png,0,0,0,96,96,96,,,,,,,,,,,,,59.81943619999947,0.019436199999475434,None,98.13860149999891,98.13860149999891,98.13860149999891,98.13860149999891,98.13860149999891,98.13860149999891,98.13860149999891,98.13860149999891,,001,P012,2025_Feb_08_1152,CategoryLocalizer,2021.2.3,59.9401797002514,
60.0,60.8,4,0.75,Stimuli\ImageFiles-Set1\Scenes\Scenes_037.png,0,0,0,97,97,97,,,,,,,,,,,,,60.00233409999964,0.002334099999643513,None,98.33877519999987,98.33877519999987,98.33877519999987,98.33877519999987,98.33877519999987,98.33877519999987,98.33877519999987,98.33877519999987,,001,P012,2025_Feb_08_1152,CategoryLocalizer,2021.2.3,59.9401797002514,
60.8,61.0,5,0.0,Stimuli\Blank.png,0,0,0,98,98,98,,,,,,,,,,,,,60.81910239999888,0.019102399998885744,None,99.13947949999965,99.13947949999965,99.13947949999965,99.13947949999965,99.13947949999965,99.13947949999965,99.13947949999965,99.13947949999965,,001,P012,2025_Feb_08_1152,CategoryLocalizer,2021.2.3,59.9401797002514,
61.0,61.8,4,0.75,Stimuli\ImageFiles-Set1\Scenes\Scenes_021.png,0,0,0,99,99,99,,,,,,,,,,,,,61.00410530000045,0.004105300000446732,None,99.3229680000004,99.3229680000004,99.3229680000004,99.3229680000004,99.3229680000004,99.3229680000004,99.3229680000004,99.3229680000004,,001,P012,2025_Feb_08_1152,CategoryLocalizer,2021.2.3,59.9401797002514,
61.8,62.0,5,0.0,Stimuli\Blank.png,0,0,0,100,100,100,,,,,,,,,,,,,61.80343569999968,0.003435699999684516,None,100.12373800000023,100.12373800000023,100.12373800000023,100.12373800000023,100.12373800000023,100.12373800000023,100.12373800000023,100.12373800000023,,001,P012,2025_Feb_08_1152,CategoryLocalizer,2021.2.3,59.9401797002514,
62.0,62.8,4,0.75,Stimuli\ImageFiles-Set1\Scenes\Scenes_052.png,0,0,0,101,101,101,,,,,,,,,,,,,62.0042469,0.004246899999998277,None,100.34055400000034,100.34055400000034,100.34055400000034,100.34055400000034,100.34055400000034,100.34055400000034,100.34055400000034,100.34055400000034,,001,P012,2025_Feb_08_1152,CategoryLocalizer,2021.2.3,59.9401797002514,
62.8,63.0,5,0.0,Stimuli\Blank.png,0,0,0,102,102,102,,,,,,,,,,,,,62.8209896999997,0.020989699999702793,None,101.14125260000037,101.14125260000037,101.14125260000037,101.14125260000037,101.14125260000037,101.14125260000037,101.14125260000037,101.14125260000037,,001,P012,2025_Feb_08_1152,CategoryLocalizer,2021.2.3,59.9401797002514,
63.0,63.8,4,0.75,Stimuli\ImageFiles-Set1\Scenes\Scenes_008.png,0,0,0,103,103,103,,,,,,,,,,,,,63.005211300000155,0.005211300000155461,None,101.34144860000015,101.34144860000015,101.34144860000015,101.34144860000015,101.34144860000015,101.34144860000015,101.34144860000015,101.34144860000015,,001,P012,2025_Feb_08_1152,CategoryLocalizer,2021.2.3,59.9401797002514,
63.8,64.0,5,0.0,Stimuli\Blank.png,0,0,0,104,104,104,,,,,,,,,,,,,63.82491409999966,0.024914099999662653,None,102.15882479999891,102.15882479999891,102.15882479999891,102.15882479999891,102.15882479999891,102.15882479999891,102.15882479999891,102.15882479999891,,001,P012,2025_Feb_08_1152,CategoryLocalizer,2021.2.3,59.9401797002514,
64.0,64.8,4,0.75,Stimuli\ImageFiles-Set1\Scenes\Scenes_019.png,0,0,0,105,105,105,,,,,,,,,,,,,64.02197669999987,0.021976699999868288,None,102.34231209999962,102.34231209999962,102.34231209999962,102.34231209999962,102.34231209999962,102.34231209999962,102.34231209999962,102.34231209999962,,001,P012,2025_Feb_08_1152,CategoryLocalizer,2021.2.3,59.9401797002514,
64.8,65.0,5,0.0,Stimuli\Blank.png,0,0,0,106,106,106,,,,,,,,,,,,,64.80676349999885,0.006763499998854172,None,103.12634849999995,103.12634849999995,103.12634849999995,103.12634849999995,103.12634849999995,103.12634849999995,103.12634849999995,103.12634849999995,,001,P012,2025_Feb_08_1152,CategoryLocalizer,2021.2.3,59.9401797002514,
65.0,65.8,4,0.75,Stimuli\ImageFiles-Set1\Scenes\Scenes_033.png,0,0,0,107,107,107,,,,,,,,,,,,,65.00623769999947,0.006237699999473989,None,103.32651699999951,103.32651699999951,103.32651699999951,103.32651699999951,103.32651699999951,103.32651699999951,103.32651699999951,103.32651699999951,,001,P012,2025_Feb_08_1152,CategoryLocalizer,2021.2.3,59.9401797002514,
65.8,66.0,5,0.0,Stimuli\Blank.png,0,0,0,108,108,108,,,,,,,,,,,,,65.80955429999995,0.009554299999948057,None,104.14387969999916,104.14387969999916,104.14387969999916,104.14387969999916,104.14387969999916,104.14387969999916,104.14387969999916,104.14387969999916,,001,P012,2025_Feb_08_1152,CategoryLocalizer,2021.2.3,59.9401797002514,
66.0,66.8,4,0.75,Stimuli\ImageFiles-Set1\Scenes\Scenes_050.png,0,0,0,109,109,109,,,,,,,,,,,,,66.02451929999916,0.02451929999915592,None,104.36080319999928,104.36080319999928,104.36080319999928,104.36080319999928,104.36080319999928,104.36080319999928,104.36080319999928,104.36080319999928,,001,P012,2025_Feb_08_1152,CategoryLocalizer,2021.2.3,59.9401797002514,
66.8,67.0,5,0.0,Stimuli\Blank.png,0,0,0,110,110,110,,,,,,,,,,,,,66.82512879999922,0.025128799999222906,None,105.14479779999965,105.14479779999965,105.14479779999965,105.14479779999965,105.14479779999965,105.14479779999965,105.14479779999965,105.14479779999965,,001,P012,2025_Feb_08_1152,CategoryLocalizer,2021.2.3,59.9401797002514,
67.0,67.8,4,0.75,Stimuli\ImageFiles-Set1\Scenes\Scenes_042.png,0,0,0,111,111,111,,,,,,,,,,,,,67.00978589999977,0.009785899999769754,None,105.34497829999964,105.34497829999964,105.34497829999964,105.34497829999964,105.34497829999964,105.34497829999964,105.34497829999964,105.34497829999964,,001,P012,2025_Feb_08_1152,CategoryLocalizer,2021.2.3,59.9401797002514,
67.8,68.0,5,0.0,Stimuli\Blank.png,0,0,0,112,112,112,,,,,,,,,,,,,67.82647030000044,0.02647030000044026,None,106.14568549999967,106.14568549999967,106.14568549999967,106.14568549999967,106.14568549999967,106.14568549999967,106.14568549999967,106.14568549999967,,001,P012,2025_Feb_08_1152,CategoryLocalizer,2021.2.3,59.9401797002514,
68.0,68.8,4,0.75,Stimuli\ImageFiles-Set1\Scenes\Scenes_053.png,0,0,0,113,113,113,,,,,,,,,,,,,68.00901709999926,0.009017099999255151,None,106.34586069999932,106.34586069999932,106.34586069999932,106.34586069999932,106.34586069999932,106.34586069999932,106.34586069999932,106.34586069999932,,001,P012,2025_Feb_08_1152,CategoryLocalizer,2021.2.3,59.9401797002514,
68.8,69.0,5,0.0,Stimuli\Blank.png,0,0,0,114,114,114,,,,,,,,,,,,,68.82726829999956,0.027268299999562373,None,107.14657219999935,107.14657219999935,107.14657219999935,107.14657219999935,107.14657219999935,107.14657219999935,107.14657219999935,107.14657219999935,,001,P012,2025_Feb_08_1152,CategoryLocalizer,2021.2.3,59.9401797002514,
69.0,69.8,4,0.75,Stimuli\ImageFiles-Set1\Scenes\Scenes_053.png,1,1,0,115,115,115,,,,,,,,,,,,,69.00982230000045,0.009822300000450923,2,107.34674040000027,107.34674040000027,107.34674040000027,107.34674040000027,107.34674040000027,107.34674040000027,107.34674040000027,107.34674040000027,0.5418712999999116,001,P012,2025_Feb_08_1152,CategoryLocalizer,2021.2.3,59.9401797002514,
69.8,70.0,5,0.0,Stimuli\Blank.png,0,0,0,116,116,116,,,,,,,,,,,,,69.8292306000003,0.029230600000303752,None,108.16525550000006,108.16525550000006,108.16525550000006,108.16525550000006,108.16525550000006,108.16525550000006,108.16525550000006,108.16525550000006,,001,P012,2025_Feb_08_1152,CategoryLocalizer,2021.2.3,59.9401797002514,
70.0,70.8,4,0.75,Stimuli\ImageFiles-Set1\Scenes\Scenes_014.png,0,0,0,117,117,117,,,,,,,,,,,,,70.02941999999894,0.029419999998935964,None,108.36431669999911,108.36431669999911,108.36431669999911,108.36431669999911,108.36431669999911,108.36431669999911,108.36431669999911,108.36431669999911,,001,P012,2025_Feb_08_1152,CategoryLocalizer,2021.2.3,59.9401797002514,
70.8,71.0,5,0.0,Stimuli\Blank.png,0,0,0,118,118,118,,,,,,,,,,,,,70.82853929999874,0.02853929999874083,None,109.14833799999906,109.14833799999906,109.14833799999906,109.14833799999906,109.14833799999906,109.14833799999906,109.14833799999906,109.14833799999906,,001,P012,2025_Feb_08_1152,CategoryLocalizer,2021.2.3,59.9401797002514,
71.0,71.8,4,0.75,Stimuli\ImageFiles-Set1\Scenes\Scenes_022.png,0,0,0,119,119,119,,,,,,,,,,,,,71.01217519999955,0.012175199999546749,None,109.33182289999968,109.33182289999968,109.33182289999968,109.33182289999968,109.33182289999968,109.33182289999968,109.33182289999968,109.33182289999968,,001,P012,2025_Feb_08_1152,CategoryLocalizer,2021.2.3,59.9401797002514,
71.8,72.0,5,0.0,Stimuli\Blank.png,0,0,0,120,120,120,,,,,,,,,,,,,71.81268249999994,0.012682499999939978,None,110.13253739999891,110.13253739999891,110.13253739999891,110.13253739999891,110.13253739999891,110.13253739999891,110.13253739999891,110.13253739999891,,001,P012,2025_Feb_08_1152,CategoryLocalizer,2021.2.3,59.9401797002514,
72.0,72.8,4,0.75,Stimuli\ImageFiles-Set1\Scenes\Scenes_055.png,0,0,0,121,121,121,,,,,,,,,,,,,72.0140582999993,0.014058299999305746,None,110.34942679999949,110.34942679999949,110.34942679999949,110.34942679999949,110.34942679999949,110.34942679999949,110.34942679999949,110.34942679999949,,001,P012,2025_Feb_08_1152,CategoryLocalizer,2021.2.3,59.9401797002514,
72.8,73.0,5,0.0,Stimuli\Blank.png,0,0,0,122,122,122,,,,,,,,,,,,,72.8306493,0.03064930000000743,None,111.15010789999906,111.15010789999906,111.15010789999906,111.15010789999906,111.15010789999906,111.15010789999906,111.15010789999906,111.15010789999906,,001,P012,2025_Feb_08_1152,CategoryLocalizer,2021.2.3,59.9401797002514,
73.0,73.8,4,0.75,Stimuli\ImageFiles-Set1\Scenes\Scenes_016.png,0,0,0,123,123,123,,,,,,,,,,,,,73.01437789999909,0.014377899999090005,None,111.35028469999997,111.35028469999997,111.35028469999997,111.35028469999997,111.35028469999997,111.35028469999997,111.35028469999997,111.35028469999997,,001,P012,2025_Feb_08_1152,CategoryLocalizer,2021.2.3,59.9401797002514,
73.8,74.0,5,0.0,Stimuli\Blank.png,0,0,0,124,124,124,,,,,,,,,,,,,73.83133529999941,0.031335299999412314,None,112.15098989999933,112.15098989999933,112.15098989999933,112.15098989999933,112.15098989999933,112.15098989999933,112.15098989999933,112.15098989999933,,001,P012,2025_Feb_08_1152,CategoryLocalizer,2021.2.3,59.9401797002514,
74.0,74.8,4,0.75,Stimuli\ImageFiles-Set1\Scenes\Scenes_004.png,0,0,0,125,125,125,,,,,,,,,,,,,74.01491799999894,0.014917999998942832,None,112.33448399999907,112.33448399999907,112.33448399999907,112.33448399999907,112.33448399999907,112.33448399999907,112.33448399999907,112.33448399999907,,001,P012,2025_Feb_08_1152,CategoryLocalizer,2021.2.3,59.9401797002514,
74.8,75.0,5,0.0,Stimuli\Blank.png,0,0,0,126,126,126,,,,,,,,,,,,,74.81566430000021,0.015664300000210574,None,113.13632899999902,113.13632899999902,113.13632899999902,113.13632899999902,113.13632899999902,113.13632899999902,113.13632899999902,113.13632899999902,,001,P012,2025_Feb_08_1152,CategoryLocalizer,2021.2.3,59.9401797002514,
75.0,75.8,4,0.75,Stimuli\ImageFiles-Set1\Scenes\Scenes_005.png,0,0,0,127,127,127,,,,,,,,,,,,,75.01517359999889,0.015173599998888676,None,113.35208229999989,113.35208229999989,113.35208229999989,113.35208229999989,113.35208229999989,113.35208229999989,113.35208229999989,113.35208229999989,,001,P012,2025_Feb_08_1152,CategoryLocalizer,2021.2.3,59.9401797002514,
75.8,76.0,5,0.0,Stimuli\Blank.png,0,0,0,128,128,128,,,,,,,,,,,,,75.81668039999931,0.016680399999316364,None,114.13607349999984,114.13607349999984,114.13607349999984,114.13607349999984,114.13607349999984,114.13607349999984,114.13607349999984,114.13607349999984,,001,P012,2025_Feb_08_1152,CategoryLocalizer,2021.2.3,59.9401797002514,
76.0,88.0,0,0.0,Stimuli\Blank.png,0,0,0,129,129,129,,,,,,,,,,,,,75.99986679999893,-0.00013320000107341912,None,114.31953210000029,114.31953210000029,114.31953210000029,114.31953210000029,114.31953210000029,114.31953210000029,114.31953210000029,114.31953210000029,,001,P012,2025_Feb_08_1152,CategoryLocalizer,2021.2.3,59.9401797002514,
88.0,88.8,3,0.75,Stimuli\ImageFiles-Set1\Faces\Face_00007.png,0,0,0,130,130,130,,,,,,,,,,,,,88.01044639999964,0.010446399999636924,None,126.34687850000046,126.34687850000046,126.34687850000046,126.34687850000046,126.34687850000046,126.34687850000046,126.34687850000046,126.34687850000046,,001,P012,2025_Feb_08_1152,CategoryLocalizer,2021.2.3,59.9401797002514,
88.8,89.0,5,0.0,Stimuli\Blank.png,0,0,0,131,131,131,,,,,,,,,,,,,88.82880490000025,0.028804900000253042,None,127.14761009999893,127.14761009999893,127.14761009999893,127.14761009999893,127.14761009999893,127.14761009999893,127.14761009999893,127.14761009999893,,001,P012,2025_Feb_08_1152,CategoryLocalizer,2021.2.3,59.9401797002514,
89.0,89.8,3,0.75,Stimuli\ImageFiles-Set1\Faces\Face_00053.png,0,0,0,132,132,132,,,,,,,,,,,,,89.01151480000044,0.011514800000441028,None,127.33108189999984,127.33108189999984,127.33108189999984,127.33108189999984,127.33108189999984,127.33108189999984,127.33108189999984,127.33108189999984,,001,P012,2025_Feb_08_1152,CategoryLocalizer,2021.2.3,59.9401797002514,
89.8,90.0,5,0.0,Stimuli\Blank.png,0,0,0,133,133,133,,,,,,,,,,,,,89.81278679999923,0.012786799999233267,None,128.13179759999912,128.13179759999912,128.13179759999912,128.13179759999912,128.13179759999912,128.13179759999912,128.13179759999912,128.13179759999912,,001,P012,2025_Feb_08_1152,CategoryLocalizer,2021.2.3,59.9401797002514,
90.0,90.8,3,0.75,Stimuli\ImageFiles-Set1\Faces\Face_00055.png,0,0,0,134,134,134,,,,,,,,,,,,,90.0123738000002,0.012373800000204938,None,128.33192939999935,128.33192939999935,128.33192939999935,128.33192939999935,128.33192939999935,128.33192939999935,128.33192939999935,128.33192939999935,,001,P012,2025_Feb_08_1152,CategoryLocalizer,2021.2.3,59.9401797002514,
90.8,91.0,5,0.0,Stimuli\Blank.png,0,0,0,135,135,135,,,,,,,,,,,,,90.81390180000017,0.013901800000169828,None,129.13267540000015,129.13267540000015,129.13267540000015,129.13267540000015,129.13267540000015,129.13267540000015,129.13267540000015,129.13267540000015,,001,P012,2025_Feb_08_1152,CategoryLocalizer,2021.2.3,59.9401797002514,
91.0,91.8,3,0.75,Stimuli\ImageFiles-Set1\Faces\Face_00055.png,1,1,0,136,136,136,,,,,,,,,,,,,91.0137735999997,0.013773599999694852,2,129.3495389999989,129.3495389999989,129.3495389999989,129.3495389999989,129.3495389999989,129.3495389999989,129.3495389999989,129.3495389999989,0.5450469000006706,001,P012,2025_Feb_08_1152,CategoryLocalizer,2021.2.3,59.9401797002514,
91.8,92.0,5,0.0,Stimuli\Blank.png,0,0,0,137,137,137,,,,,,,,,,,,,91.83000019999963,0.030000199999633992,None,130.1502404999992,130.1502404999992,130.1502404999992,130.1502404999992,130.1502404999992,130.1502404999992,130.1502404999992,130.1502404999992,,001,P012,2025_Feb_08_1152,CategoryLocalizer,2021.2.3,59.9401797002514,
92.0,92.8,3,0.75,Stimuli\ImageFiles-Set1\Faces\Face_00081.png,0,0,0,138,138,138,,,,,,,,,,,,,92.013316999999,0.01331699999900593,None,130.33373720000054,130.33373720000054,130.33373720000054,130.33373720000054,130.33373720000054,130.33373720000054,130.33373720000054,130.33373720000054,,001,P012,2025_Feb_08_1152,CategoryLocalizer,2021.2.3,59.9401797002514,
92.8,93.0,5,0.0,Stimuli\Blank.png,0,0,0,139,139,139,,,,,,,,,,,,,92.8148698999994,0.014869899999396807,None,131.1344324999991,131.1344324999991,131.1344324999991,131.1344324999991,131.1344324999991,131.1344324999991,131.1344324999991,131.1344324999991,,001,P012,2025_Feb_08_1152,CategoryLocalizer,2021.2.3,59.9401797002514,
93.0,93.8,3,0.75,Stimuli\ImageFiles-Set1\Faces\Face_00077.png,0,0,0,140,140,140,,,,,,,,,,,,,93.01485870000033,0.014858700000331737,None,131.3519737000006,131.3519737000006,131.3519737000006,131.3519737000006,131.3519737000006,131.3519737000006,131.3519737000006,131.3519737000006,,001,P012,2025_Feb_08_1152,CategoryLocalizer,2021.2.3,59.9401797002514,
93.8,94.0,5,0.0,Stimuli\Blank.png,0,0,0,141,141,141,,,,,,,,,,,,,93.83441529999982,0.034415299999821514,None,132.1687019000001,132.1687019000001,132.1687019000001,132.1687019000001,132.1687019000001,132.1687019000001,132.1687019000001,132.1687019000001,,001,P012,2025_Feb_08_1152,CategoryLocalizer,2021.2.3,59.9401797002514,
94.0,94.8,3,0.75,Stimuli\ImageFiles-Set1\Faces\Face_00020.png,0,0,0,142,142,142,,,,,,,,,,,,,94.01516499999889,0.015164999998887652,None,132.3522054999994,132.3522054999994,132.3522054999994,132.3522054999994,132.3522054999994,132.3522054999994,132.3522054999994,132.3522054999994,,001,P012,2025_Feb_08_1152,CategoryLocalizer,2021.2.3,59.9401797002514,
94.8,95.0,5,0.0,Stimuli\Blank.png,0,0,0,143,143,143,,,,,,,,,,,,,94.81664300000011,0.01664300000011565,None,133.1362121000002,133.1362121000002,133.1362121000002,133.1362121000002,133.1362121000002,133.1362121000002,133.1362121000002,133.1362121000002,,001,P012,2025_Feb_08_1152,CategoryLocalizer,2021.2.3,59.9401797002514,
95.0,95.8,3,0.75,Stimuli\ImageFiles-Set1\Faces\Face_00001.png,0,0,0,144,144,144,,,,,,,,,,,,,94.99951019999935,-0.0004898000006505754,None,133.31970659999934,133.31970659999934,133.31970659999934,133.31970659999934,133.31970659999934,133.31970659999934,133.31970659999934,133.31970659999934,,001,P012,2025_Feb_08_1152,CategoryLocalizer,2021.2.3,59.9401797002514,
95.8,96.0,5,0.0,Stimuli\Blank.png,0,0,0,145,145,145,,,,,,,,,,,,,95.80128049999985,0.0012804999998508038,None,134.12041920000047,134.12041920000047,134.12041920000047,134.12041920000047,134.12041920000047,134.12041920000047,134.12041920000047,134.12041920000047,,001,P012,2025_Feb_08_1152,CategoryLocalizer,2021.2.3,59.9401797002514,
96.0,96.8,3,0.75,Stimuli\ImageFiles-Set1\Faces\Face_00105.png,0,0,0,146,146,146,,,,,,,,,,,,,96.0007515999987,0.000751599998693564,None,134.33729610000046,134.33729610000046,134.33729610000046,134.33729610000046,134.33729610000046,134.33729610000046,134.33729610000046,134.33729610000046,,001,P012,2025_Feb_08_1152,CategoryLocalizer,2021.2.3,59.9401797002514,
96.8,97.0,5,0.0,Stimuli\Blank.png,0,0,0,147,147,147,,,,,,,,,,,,,96.81826910000018,0.018269100000182448,None,135.13799739999922,135.13799739999922,135.13799739999922,135.13799739999922,135.13799739999922,135.13799739999922,135.13799739999922,135.13799739999922,,001,P012,2025_Feb_08_1152,CategoryLocalizer,2021.2.3,59.9401797002514,
97.0,97.8,3,0.75,Stimuli\ImageFiles-Set1\Faces\Face_00089.png,0,0,0,148,148,148,,,,,,,,,,,,,97.00195150000036,0.001951500000359374,None,135.3381628999996,135.3381628999996,135.3381628999996,135.3381628999996,135.3381628999996,135.3381628999996,135.3381628999996,135.3381628999996,,001,P012,2025_Feb_08_1152,CategoryLocalizer,2021.2.3,59.9401797002514,
97.8,98.0,5,0.0,Stimuli\Blank.png,0,0,0,149,149,149,,,,,,,,,,,,,97.81920499999978,0.01920499999978631,None,136.13887129999966,136.13887129999966,136.13887129999966,136.13887129999966,136.13887129999966,136.13887129999966,136.13887129999966,136.13887129999966,,001,P012,2025_Feb_08_1152,CategoryLocalizer,2021.2.3,59.9401797002514,
98.0,98.8,3,0.75,Stimuli\ImageFiles-Set1\Faces\Face_00057.png,0,0,0,150,150,150,,,,,,,,,,,,,98.00445810000019,0.004458100000192644,None,136.3390473999989,136.3390473999989,136.3390473999989,136.3390473999989,136.3390473999989,136.3390473999989,136.3390473999989,136.3390473999989,,001,P012,2025_Feb_08_1152,CategoryLocalizer,2021.2.3,59.9401797002514,
98.8,99.0,5,0.0,Stimuli\Blank.png,0,0,0,151,151,151,,,,,,,,,,,,,98.82093519999944,0.02093519999944249,None,137.13976309999998,137.13976309999998,137.13976309999998,137.13976309999998,137.13976309999998,137.13976309999998,137.13976309999998,137.13976309999998,,001,P012,2025_Feb_08_1152,CategoryLocalizer,2021.2.3,59.9401797002514,
99.0,99.8,3,0.75,Stimuli\ImageFiles-Set1\Faces\Face_00099.png,0,0,0,152,152,152,,,,,,,,,,,,,99.00548890000027,0.005488900000273134,None,137.33993699999883,137.33993699999883,137.33993699999883,137.33993699999883,137.33993699999883,137.33993699999883,137.33993699999883,137.33993699999883,,001,P012,2025_Feb_08_1152,CategoryLocalizer,2021.2.3,59.9401797002514,
99.8,100.0,5,0.0,Stimuli\Blank.png,0,0,0,153,153,153,,,,,,,,,,,,,99.82038639999882,0.020386399998827187,None,138.14063469999928,138.14063469999928,138.14063469999928,138.14063469999928,138.14063469999928,138.14063469999928,138.14063469999928,138.14063469999928,,001,P012,2025_Feb_08_1152,CategoryLocalizer,2021.2.3,59.9401797002514,
100.0,100.8,3,0.75,Stimuli\ImageFiles-Set1\Faces\Face_00041.png,0,0,0,154,154,154,,,,,,,,,,,,,100.00491859999966,0.004918599999655271,None,138.3408275999991,138.3408275999991,138.3408275999991,138.3408275999991,138.3408275999991,138.3408275999991,138.3408275999991,138.3408275999991,,001,P012,2025_Feb_08_1152,CategoryLocalizer,2021.2.3,59.9401797002514,
100.8,101.0,5,0.0,Stimuli\Blank.png,0,0,0,155,155,155,,,,,,,,,,,,,100.82123879999926,0.021238799999267144,None,139.1415249999991,139.1415249999991,139.1415249999991,139.1415249999991,139.1415249999991,139.1415249999991,139.1415249999991,139.1415249999991,,001,P012,2025_Feb_08_1152,CategoryLocalizer,2021.2.3,59.9401797002514,
101.0,101.8,3,0.75,Stimuli\ImageFiles-Set1\Faces\Face_00111.png,0,0,0,156,156,156,,,,,,,,,,,,,101.00564539999868,0.005645399998684297,None,139.341676,139.341676,139.341676,139.341676,139.341676,139.341676,139.341676,139.341676,,001,P012,2025_Feb_08_1152,CategoryLocalizer,2021.2.3,59.9401797002514,
101.8,102.0,5,0.0,Stimuli\Blank.png,0,0,0,157,157,157,,,,,,,,,,,,,101.8229336000004,0.02293360000039968,None,140.14243949999945,140.14243949999945,140.14243949999945,140.14243949999945,140.14243949999945,140.14243949999945,140.14243949999945,140.14243949999945,,001,P012,2025_Feb_08_1152,CategoryLocalizer,2021.2.3,59.9401797002514,
102.0,102.8,3,0.75,Stimuli\ImageFiles-Set1\Faces\Face_00087.png,0,0,0,158,158,158,,,,,,,,,,,,,102.00562650000029,0.005626500000289525,None,140.32587129999956,140.32587129999956,140.32587129999956,140.32587129999956,140.32587129999956,140.32587129999956,140.32587129999956,140.32587129999956,,001,P012,2025_Feb_08_1152,CategoryLocalizer,2021.2.3,59.9401797002514,
102.8,103.0,5,0.0,Stimuli\Blank.png,0,0,0,159,159,159,,,,,,,,,,,,,102.8068174,0.006817400000002749,None,141.12663199999952,141.12663199999952,141.12663199999952,141.12663199999952,141.12663199999952,141.12663199999952,141.12663199999952,141.12663199999952,,001,P012,2025_Feb_08_1152,CategoryLocalizer,2021.2.3,59.9401797002514,
103.0,103.8,3,0.75,Stimuli\ImageFiles-Set1\Faces\Face_00103.png,0,0,0,160,160,160,,,,,,,,,,,,,103.00774730000012,0.0077473000001191394,None,141.34350359999917,141.34350359999917,141.34350359999917,141.34350359999917,141.34350359999917,141.34350359999917,141.34350359999917,141.34350359999917,,001,P012,2025_Feb_08_1152,CategoryLocalizer,2021.2.3,59.9401797002514,
103.8,104.0,5,0.0,Stimuli\Blank.png,0,0,0,161,161,161,,,,,,,,,,,,,103.82384679999996,0.023846799999958534,None,142.1443003000004,142.1443003000004,142.1443003000004,142.1443003000004,142.1443003000004,142.1443003000004,142.1443003000004,142.1443003000004,,001,P012,2025_Feb_08_1152,CategoryLocalizer,2021.2.3,59.9401797002514,
104.0,104.8,1,0.75,Stimuli\ImageFiles-Set1\Objects\Object_Hammer_00001.png,0,0,0,162,162,162,,,,,,,,,,,,,104.0093872999987,0.009387299998707022,None,142.34442630000012,142.34442630000012,142.34442630000012,142.34442630000012,142.34442630000012,142.34442630000012,142.34442630000012,142.34442630000012,,001,P012,2025_Feb_08_1152,CategoryLocalizer,2021.2.3,59.9401797002514,
104.8,105.0,5,0.0,Stimuli\Blank.png,0,0,0,163,163,163,,,,,,,,,,,,,104.82592269999986,0.025922699999867405,None,143.1450789999999,143.1450789999999,143.1450789999999,143.1450789999999,143.1450789999999,143.1450789999999,143.1450789999999,143.1450789999999,,001,P012,2025_Feb_08_1152,CategoryLocalizer,2021.2.3,59.9401797002514,
105.0,105.8,1,0.75,Stimuli\ImageFiles-Set1\Objects\Object_Banana_00001.png,0,0,0,164,164,164,,,,,,,,,,,,,105.00889389999975,0.0088938999997481,None,143.32856179999908,143.32856179999908,143.32856179999908,143.32856179999908,143.32856179999908,143.32856179999908,143.32856179999908,143.32856179999908,,001,P012,2025_Feb_08_1152,CategoryLocalizer,2021.2.3,59.9401797002514,
105.8,106.0,5,0.0,Stimuli\Blank.png,0,0,0,165,165,165,,,,,,,,,,,,,105.80901549999908,0.009015499999080134,None,144.12927239999954,144.12927239999954,144.12927239999954,144.12927239999954,144.12927239999954,144.12927239999954,144.12927239999954,144.12927239999954,,001,P012,2025_Feb_08_1152,CategoryLocalizer,2021.2.3,59.9401797002514,
106.0,106.8,1,0.75,Stimuli\ImageFiles-Set1\Objects\Object_Pipe_00001.png,0,0,0,166,166,166,,,,,,,,,,,,,106.00923309999962,0.009233099999619299,None,144.32941000000028,144.32941000000028,144.32941000000028,144.32941000000028,144.32941000000028,144.32941000000028,144.32941000000028,144.32941000000028,,001,P012,2025_Feb_08_1152,CategoryLocalizer,2021.2.3,59.9401797002514,
106.8,107.0,5,0.0,Stimuli\Blank.png,0,0,0,167,167,167,,,,,,,,,,,,,106.8098657999999,0.00986579999990056,None,145.1301612999996,145.1301612999996,145.1301612999996,145.1301612999996,145.1301612999996,145.1301612999996,145.1301612999996,145.1301612999996,,001,P012,2025_Feb_08_1152,CategoryLocalizer,2021.2.3,59.9401797002514,
107.0,107.8,1,0.75,Stimuli\ImageFiles-Set1\Objects\Object_Table_00001.png,0,0,0,168,168,168,,,,,,,,,,,,,107.01005049999912,0.01005049999912444,None,145.33033459999933,145.33033459999933,145.33033459999933,145.33033459999933,145.33033459999933,145.33033459999933,145.33033459999933,145.33033459999933,,001,P012,2025_Feb_08_1152,CategoryLocalizer,2021.2.3,59.9401797002514,
107.8,108.0,5,0.0,Stimuli\Blank.png,0,0,0,169,169,169,,,,,,,,,,,,,107.81094219999977,0.01094219999977497,None,146.1310536000001,146.1310536000001,146.1310536000001,146.1310536000001,146.1310536000001,146.1310536000001,146.1310536000001,146.1310536000001,,001,P012,2025_Feb_08_1152,CategoryLocalizer,2021.2.3,59.9401797002514,
108.0,108.8,1,0.75,Stimuli\ImageFiles-Set1\Objects\Object_Watch_00001.png,0,0,0,170,170,170,,,,,,,,,,,,,108.01172349999979,0.011723499999789055,None,146.3311878000004,146.3311878000004,146.3311878000004,146.3311878000004,146.3311878000004,146.3311878000004,146.3311878000004,146.3311878000004,,001,P012,2025_Feb_08_1152,CategoryLocalizer,2021.2.3,59.9401797002514,
108.8,109.0,5,0.0,Stimuli\Blank.png,0,0,0,171,171,171,,,,,,,,,,,,,108.81434629999967,0.014346299999672851,None,147.1486344999994,147.1486344999994,147.1486344999994,147.1486344999994,147.1486344999994,147.1486344999994,147.1486344999994,147.1486344999994,,001,P012,2025_Feb_08_1152,CategoryLocalizer,2021.2.3,59.9401797002514,
109.0,109.8,1,0.75,Stimuli\ImageFiles-Set1\Objects\Object_Watch_00001.png,1,1,0,172,172,172,,,,,,,,,,,,,109.0292341000004,0.029234100000394392,2,147.36620179999954,147.36620179999954,147.36620179999954,147.36620179999954,147.36620179999954,147.36620179999954,147.36620179999954,147.36620179999954,0.43436519999886514,001,P012,2025_Feb_08_1152,CategoryLocalizer,2021.2.3,59.9401797002514,
109.8,110.0,5,0.0,Stimuli\Blank.png,0,0,0,173,173,173,,,,,,,,,,,,,109.82919389999915,0.029193899999157225,None,148.14949279999928,148.14949279999928,148.14949279999928,148.14949279999928,148.14949279999928,148.14949279999928,148.14949279999928,148.14949279999928,,001,P012,2025_Feb_08_1152,CategoryLocalizer,2021.2.3,59.9401797002514,
110.0,110.8,1,0.75,Stimuli\ImageFiles-Set1\Objects\Object_Boat_00001.png,0,0,0,174,174,174,,,,,,,,,,,,,110.01329629999964,0.013296299999637995,None,148.33300430000054,148.33300430000054,148.33300430000054,148.33300430000054,148.33300430000054,148.33300430000054,148.33300430000054,148.33300430000054,,001,P012,2025_Feb_08_1152,CategoryLocalizer,2021.2.3,59.9401797002514,
110.8,111.0,5,0.0,Stimuli\Blank.png,0,0,0,175,175,175,,,,,,,,,,,,,110.81335509999917,0.013355099999174058,None,149.133735899999,149.133735899999,149.133735899999,149.133735899999,149.133735899999,149.133735899999,149.133735899999,149.133735899999,,001,P012,2025_Feb_08_1152,CategoryLocalizer,2021.2.3,59.9401797002514,
111.0,111.8,1,0.75,Stimuli\ImageFiles-Set1\Objects\Object_Baseball_00001.png,0,0,0,176,176,176,,,,,,,,,,,,,111.01400629999989,0.01400629999989178,None,149.3505771,149.3505771,149.3505771,149.3505771,149.3505771,149.3505771,149.3505771,149.3505771,,001,P012,2025_Feb_08_1152,CategoryLocalizer,2021.2.3,59.9401797002514,
111.8,112.0,5,0.0,Stimuli\Blank.png,0,0,0,177,177,177,,,,,,,,,,,,,111.83114670000032,0.031146700000320493,None,150.1513042000006,150.1513042000006,150.1513042000006,150.1513042000006,150.1513042000006,150.1513042000006,150.1513042000006,150.1513042000006,,001,P012,2025_Feb_08_1152,CategoryLocalizer,2021.2.3,59.9401797002514,
112.0,112.8,1,0.75,Stimuli\ImageFiles-Set1\Objects\Object_GarbageCan_00001.png,0,0,0,178,178,178,,,,,,,,,,,,,112.0159167999991,0.015916799999104114,None,150.35145620000003,150.35145620000003,150.35145620000003,150.35145620000003,150.35145620000003,150.35145620000003,150.35145620000003,150.35145620000003,,001,P012,2025_Feb_08_1152,CategoryLocalizer,2021.2.3,59.9401797002514,
112.8,113.0,5,0.0,Stimuli\Blank.png,0,0,0,179,179,179,,,,,,,,,,,,,112.81508459999895,0.01508459999895706,None,151.13546549999955,151.13546549999955,151.13546549999955,151.13546549999955,151.13546549999955,151.13546549999955,151.13546549999955,151.13546549999955,,001,P012,2025_Feb_08_1152,CategoryLocalizer,2021.2.3,59.9401797002514,
113.0,113.8,1,0.75,Stimuli\ImageFiles-Set1\Objects\Object_Walnut_00001.png,1,1,0,180,180,180,,,,,,,,,,,,,113.01606290000018,0.01606290000017907,None,151.33564389999992,151.33564389999992,151.33564389999992,151.33564389999992,151.33564389999992,151.33564389999992,151.33564389999992,151.33564389999992,,001,P012,2025_Feb_08_1152,CategoryLocalizer,2021.2.3,59.9401797002514,
113.8,114.0,5,0.0,Stimuli\Blank.png,0,0,0,181,181,181,,,,,,,,,,,,,113.79996349999965,-3.6500000348382855e-05,None,152.11967100000038,152.11967100000038,152.11967100000038,152.11967100000038,152.11967100000038,152.11967100000038,152.11967100000038,152.11967100000038,,001,P012,2025_Feb_08_1152,CategoryLocalizer,2021.2.3,59.9401797002514,
114.0,114.8,1,0.75,Stimuli\ImageFiles-Set1\Objects\Object_Glasses_00001.png,0,0,0,182,182,182,,,,,,,,,,,,,114.0001812999999,0.0001812999998946907,None,152.3209741999999,152.3209741999999,152.3209741999999,152.3209741999999,152.3209741999999,152.3209741999999,152.3209741999999,152.3209741999999,,001,P012,2025_Feb_08_1152,CategoryLocalizer,2021.2.3,59.9401797002514,
114.8,115.0,5,0.0,Stimuli\Blank.png,0,0,0,183,183,183,,,,,,,,,,,,,114.80018029999883,0.00018029999883140135,None,153.12057370000002,153.12057370000002,153.12057370000002,153.12057370000002,153.12057370000002,153.12057370000002,153.12057370000002,153.12057370000002,,001,P012,2025_Feb_08_1152,CategoryLocalizer,2021.2.3,59.9401797002514,
115.0,115.8,1,0.75,Stimuli\ImageFiles-Set1\Objects\Object_Glasses_00001.png,0,0,0,184,184,184,,,,,,,,,,,,,115.0009785000002,0.0009785000002011657,2,153.32073669999954,153.32073669999954,153.32073669999954,153.32073669999954,153.32073669999954,153.32073669999954,153.32073669999954,153.32073669999954,0.5239079000002675,001,P012,2025_Feb_08_1152,CategoryLocalizer,2021.2.3,59.9401797002514,
115.8,116.0,5,0.0,Stimuli\Blank.png,0,0,0,185,185,185,,,,,,,,,,,,,115.80124029999934,0.00124029999933839,None,154.12146639999992,154.12146639999992,154.12146639999992,154.12146639999992,154.12146639999992,154.12146639999992,154.12146639999992,154.12146639999992,,001,P012,2025_Feb_08_1152,CategoryLocalizer,2021.2.3,59.9401797002514,
116.0,116.8,1,0.75,Stimuli\ImageFiles-Set1\Objects\Object_Peanut_00001.png,0,0,0,186,186,186,,,,,,,,,,,,,116.00141540000004,0.0014154000000417,None,154.32159599999977,154.32159599999977,154.32159599999977,154.32159599999977,154.32159599999977,154.32159599999977,154.32159599999977,154.32159599999977,,001,P012,2025_Feb_08_1152,CategoryLocalizer,2021.2.3,59.9401797002514,
116.8,117.0,5,0.0,Stimuli\Blank.png,0,0,0,187,187,187,,,,,,,,,,,,,116.80197149999913,0.001971499999129378,None,155.12232480000057,155.12232480000057,155.12232480000057,155.12232480000057,155.12232480000057,155.12232480000057,155.12232480000057,155.12232480000057,,001,P012,2025_Feb_08_1152,CategoryLocalizer,2021.2.3,59.9401797002514,
117.0,117.8,1,0.75,Stimuli\ImageFiles-Set1\Objects\Object_Pizza_00001.png,0,0,0,188,188,188,,,,,,,,,,,,,117.00438699999904,0.004386999999042018,None,155.33918409999933,155.33918409999933,155.33918409999933,155.33918409999933,155.33918409999933,155.33918409999933,155.33918409999933,155.33918409999933,,001,P012,2025_Feb_08_1152,CategoryLocalizer,2021.2.3,59.9401797002514,
117.8,118.0,5,0.0,Stimuli\Blank.png,0,0,0,189,189,189,,,,,,,,,,,,,117.8209423999997,0.02094239999969716,None,156.1399136,156.1399136,156.1399136,156.1399136,156.1399136,156.1399136,156.1399136,156.1399136,,001,P012,2025_Feb_08_1152,CategoryLocalizer,2021.2.3,59.9401797002514,
118.0,118.8,1,0.75,Stimuli\ImageFiles-Set1\Objects\Object_Bottle_00001.png,0,0,0,190,190,190,,,,,,,,,,,,,118.0037470999996,0.003747099999600323,None,156.32335310000053,156.32335310000053,156.32335310000053,156.32335310000053,156.32335310000053,156.32335310000053,156.32335310000053,156.32335310000053,,001,P012,2025_Feb_08_1152,CategoryLocalizer,2021.2.3,59.9401797002514,
118.8,119.0,5,0.0,Stimuli\Blank.png,0,0,0,191,191,191,,,,,,,,,,,,,118.80417809999926,0.004178099999265328,None,157.12410379999892,157.12410379999892,157.12410379999892,157.12410379999892,157.12410379999892,157.12410379999892,157.12410379999892,157.12410379999892,,001,P012,2025_Feb_08_1152,CategoryLocalizer,2021.2.3,59.9401797002514,
119.0,119.8,1,0.75,Stimuli\ImageFiles-Set1\Objects\Object_TeaBag_00001.png,0,0,0,192,192,192,,,,,,,,,,,,,119.00439220000044,0.004392200000438606,None,157.32425270000022,157.32425270000022,157.32425270000022,157.32425270000022,157.32425270000022,157.32425270000022,157.32425270000022,157.32425270000022,,001,P012,2025_Feb_08_1152,CategoryLocalizer,2021.2.3,59.9401797002514,
119.8,120.0,5,0.0,Stimuli\Blank.png,0,0,0,193,193,193,,,,,,,,,,,,,119.80523279999943,0.005232799999433269,None,158.12499649999882,158.12499649999882,158.12499649999882,158.12499649999882,158.12499649999882,158.12499649999882,158.12499649999882,158.12499649999882,,001,P012,2025_Feb_08_1152,CategoryLocalizer,2021.2.3,59.9401797002514,
120.0,120.8,4,0.75,Stimuli\ImageFiles-Set1\Scenes\Scenes_003.png,0,0,0,194,194,194,,,,,,,,,,,,,120.00492889999987,0.004928899999868008,None,158.3418688999991,158.3418688999991,158.3418688999991,158.3418688999991,158.3418688999991,158.3418688999991,158.3418688999991,158.3418688999991,,001,P012,2025_Feb_08_1152,CategoryLocalizer,2021.2.3,59.9401797002514,
120.8,121.0,5,0.0,Stimuli\Blank.png,0,0,0,195,195,195,,,,,,,,,,,,,120.82418929999949,0.02418929999949171,None,159.1592598999996,159.1592598999996,159.1592598999996,159.1592598999996,159.1592598999996,159.1592598999996,159.1592598999996,159.1592598999996,,001,P012,2025_Feb_08_1152,CategoryLocalizer,2021.2.3,59.9401797002514,
121.0,121.8,4,0.75,Stimuli\ImageFiles-Set1\Scenes\Scenes_046.png,0,0,0,196,196,196,,,,,,,,,,,,,121.02529179999874,0.025291799998740316,None,159.3761130999992,159.3761130999992,159.3761130999992,159.3761130999992,159.3761130999992,159.3761130999992,159.3761130999992,159.3761130999992,,001,P012,2025_Feb_08_1152,CategoryLocalizer,2021.2.3,59.9401797002514,
121.8,122.0,5,0.0,Stimuli\Blank.png,0,0,0,197,197,197,,,,,,,,,,,,,121.84066119999989,0.04066119999988871,None,160.16014969999924,160.16014969999924,160.16014969999924,160.16014969999924,160.16014969999924,160.16014969999924,160.16014969999924,160.16014969999924,,001,P012,2025_Feb_08_1152,CategoryLocalizer,2021.2.3,59.9401797002514,
122.0,122.8,4,0.75,Stimuli\ImageFiles-Set1\Scenes\Scenes_015.png,0,0,0,198,198,198,,,,,,,,,,,,,122.00725729999976,0.007257299999764655,None,160.32712600000013,160.32712600000013,160.32712600000013,160.32712600000013,160.32712600000013,160.32712600000013,160.32712600000013,160.32712600000013,,001,P012,2025_Feb_08_1152,CategoryLocalizer,2021.2.3,59.9401797002514,
122.8,123.0,5,0.0,Stimuli\Blank.png,0,0,0,199,199,199,,,,,,,,,,,,,122.80955439999889,0.009554399998890517,None,161.14544729999943,161.14544729999943,161.14544729999943,161.14544729999943,161.14544729999943,161.14544729999943,161.14544729999943,161.14544729999943,,001,P012,2025_Feb_08_1152,CategoryLocalizer,2021.2.3,59.9401797002514,
123.0,123.8,4,0.75,Stimuli\ImageFiles-Set1\Scenes\Scenes_060.png,0,0,0,200,200,200,,,,,,,,,,,,,123.02488639999865,0.024886399998649722,None,161.3611748000003,161.3611748000003,161.3611748000003,161.3611748000003,161.3611748000003,161.3611748000003,161.3611748000003,161.3611748000003,,001,P012,2025_Feb_08_1152,CategoryLocalizer,2021.2.3,59.9401797002514,
123.8,124.0,5,0.0,Stimuli\Blank.png,0,0,0,201,201,201,,,,,,,,,,,,,123.82492249999996,0.02492249999995977,None,162.14522009999928,162.14522009999928,162.14522009999928,162.14522009999928,162.14522009999928,162.14522009999928,162.14522009999928,162.14522009999928,,001,P012,2025_Feb_08_1152,CategoryLocalizer,2021.2.3,59.9401797002514,
124.0,124.8,4,0.75,Stimuli\ImageFiles-Set1\Scenes\Scenes_045.png,0,0,0,202,202,202,,,,,,,,,,,,,124.00922999999966,0.009229999999661231,None,162.34537590000036,162.34537590000036,162.34537590000036,162.34537590000036,162.34537590000036,162.34537590000036,162.34537590000036,162.34537590000036,,001,P012,2025_Feb_08_1152,CategoryLocalizer,2021.2.3,59.9401797002514,
124.8,125.0,5,0.0,Stimuli\Blank.png,0,0,0,203,203,203,,,,,,,,,,,,,124.82637239999895,0.026372399998948026,None,163.1460922999995,163.1460922999995,163.1460922999995,163.1460922999995,163.1460922999995,163.1460922999995,163.1460922999995,163.1460922999995,,001,P012,2025_Feb_08_1152,CategoryLocalizer,2021.2.3,59.9401797002514,
125.0,125.8,4,0.75,Stimuli\ImageFiles-Set1\Scenes\Scenes_045.png,1,1,0,204,204,204,,,,,,,,,,,,,125.00926909999907,0.00926909999907366,2,163.34627199999886,163.34627199999886,163.34627199999886,163.34627199999886,163.34627199999886,163.34627199999886,163.34627199999886,163.34627199999886,0.5265858999991906,001,P012,2025_Feb_08_1152,CategoryLocalizer,2021.2.3,59.9401797002514,
125.8,126.0,5,0.0,Stimuli\Blank.png,0,0,0,205,205,205,,,,,,,,,,,,,125.82679069999904,0.026790699999040157,None,164.14698560000033,164.14698560000033,164.14698560000033,164.14698560000033,164.14698560000033,164.14698560000033,164.14698560000033,164.14698560000033,,001,P012,2025_Feb_08_1152,CategoryLocalizer,2021.2.3,59.9401797002514,
126.0,126.8,4,0.75,Stimuli\ImageFiles-Set1\Scenes\Scenes_027.png,0,0,0,206,206,206,,,,,,,,,,,,,126.01011449999896,0.010114499998962856,None,164.33043369999905,164.33043369999905,164.33043369999905,164.33043369999905,164.33043369999905,164.33043369999905,164.33043369999905,164.33043369999905,,001,P012,2025_Feb_08_1152,CategoryLocalizer,2021.2.3,59.9401797002514,
126.8,127.0,5,0.0,Stimuli\Blank.png,0,0,0,207,207,207,,,,,,,,,,,,,126.81075149999924,0.01075149999924463,None,165.1311743999995,165.1311743999995,165.1311743999995,165.1311743999995,165.1311743999995,165.1311743999995,165.1311743999995,165.1311743999995,,001,P012,2025_Feb_08_1152,CategoryLocalizer,2021.2.3,59.9401797002514,
127.0,127.8,4,0.75,Stimuli\ImageFiles-Set1\Scenes\Scenes_023.png,0,0,0,208,208,208,,,,,,,,,,,,,127.0111710000001,0.011171000000103959,None,165.3313646000006,165.3313646000006,165.3313646000006,165.3313646000006,165.3313646000006,165.3313646000006,165.3313646000006,165.3313646000006,,001,P012,2025_Feb_08_1152,CategoryLocalizer,2021.2.3,59.9401797002514,
127.8,128.0,5,0.0,Stimuli\Blank.png,0,0,0,209,209,209,,,,,,,,,,,,,127.81426869999996,0.014268699999959722,None,166.1487593999991,166.1487593999991,166.1487593999991,166.1487593999991,166.1487593999991,166.1487593999991,166.1487593999991,166.1487593999991,,001,P012,2025_Feb_08_1152,CategoryLocalizer,2021.2.3,59.9401797002514,
128.0,128.8,4,0.75,Stimuli\ImageFiles-Set1\Scenes\Scenes_058.png,0,0,0,210,210,210,,,,,,,,,,,,,128.0286460999996,0.028646099999605212,None,166.3489236000005,166.3489236000005,166.3489236000005,166.3489236000005,166.3489236000005,166.3489236000005,166.3489236000005,166.3489236000005,,001,P012,2025_Feb_08_1152,CategoryLocalizer,2021.2.3,59.9401797002514,
128.8,129.0,5,0.0,Stimuli\Blank.png,0,0,0,211,211,211,,,,,,,,,,,,,128.81449239999893,0.014492399998914607,None,167.14964750000036,167.14964750000036,167.14964750000036,167.14964750000036,167.14964750000036,167.14964750000036,167.14964750000036,167.14964750000036,,001,P012,2025_Feb_08_1152,CategoryLocalizer,2021.2.3,59.9401797002514,
129.0,129.8,4,0.75,Stimuli\ImageFiles-Set1\Scenes\Scenes_036.png,0,0,0,212,212,212,,,,,,,,,,,,,129.03102709999985,0.03102709999984654,None,167.36649620000026,167.36649620000026,167.36649620000026,167.36649620000026,167.36649620000026,167.36649620000026,167.36649620000026,167.36649620000026,,001,P012,2025_Feb_08_1152,CategoryLocalizer,2021.2.3,59.9401797002514,
129.8,130.0,5,0.0,Stimuli\Blank.png,0,0,0,213,213,213,,,,,,,,,,,,,129.8304723000001,0.03047230000009904,None,168.1504941000003,168.1504941000003,168.1504941000003,168.1504941000003,168.1504941000003,168.1504941000003,168.1504941000003,168.1504941000003,,001,P012,2025_Feb_08_1152,CategoryLocalizer,2021.2.3,59.9401797002514,
130.0,130.8,4,0.75,Stimuli\ImageFiles-Set1\Scenes\Scenes_034.png,0,0,0,214,214,214,,,,,,,,,,,,,130.01365069999883,0.01365069999883417,None,168.33401819999926,168.33401819999926,168.33401819999926,168.33401819999926,168.33401819999926,168.33401819999926,168.33401819999926,168.33401819999926,,001,P012,2025_Feb_08_1152,CategoryLocalizer,2021.2.3,59.9401797002514,
130.8,131.0,5,0.0,Stimuli\Blank.png,0,0,0,215,215,215,,,,,,,,,,,,,130.81434689999878,0.014346899998770368,None,169.13473290000002,169.13473290000002,169.13473290000002,169.13473290000002,169.13473290000002,169.13473290000002,169.13473290000002,169.13473290000002,,001,P012,2025_Feb_08_1152,CategoryLocalizer,2021.2.3,59.9401797002514,
131.0,131.8,4,0.75,Stimuli\ImageFiles-Set1\Scenes\Scenes_035.png,0,0,0,216,216,216,,,,,,,,,,,,,131.01606530000026,0.01606530000026396,None,169.35163479999937,169.35163479999937,169.35163479999937,169.35163479999937,169.35163479999937,169.35163479999937,169.35163479999937,169.35163479999937,,001,P012,2025_Feb_08_1152,CategoryLocalizer,2021.2.3,59.9401797002514,
131.8,132.0,5,0.0,Stimuli\Blank.png,0,0,0,217,217,217,,,,,,,,,,,,,131.81583499999942,0.015834999999412958,None,170.13560529999995,170.13560529999995,170.13560529999995,170.13560529999995,170.13560529999995,170.13560529999995,170.13560529999995,170.13560529999995,,001,P012,2025_Feb_08_1152,CategoryLocalizer,2021.2.3,59.9401797002514,
132.0,132.8,4,0.75,Stimuli\ImageFiles-Set1\Scenes\Scenes_009.png,0,0,0,218,218,218,,,,,,,,,,,,,131.9999356999997,-6.430000030377414e-05,None,170.335776599999,170.335776599999,170.335776599999,170.335776599999,170.335776599999,170.335776599999,170.335776599999,170.335776599999,,001,P012,2025_Feb_08_1152,CategoryLocalizer,2021.2.3,59.9401797002514,
132.8,133.0,5,0.0,Stimuli\Blank.png,0,0,0,219,219,219,,,,,,,,,,,,,132.8160857999992,0.01608579999918902,None,171.13649439999972,171.13649439999972,171.13649439999972,171.13649439999972,171.13649439999972,171.13649439999972,171.13649439999972,171.13649439999972,,001,P012,2025_Feb_08_1152,CategoryLocalizer,2021.2.3,59.9401797002514,
133.0,133.8,4,0.75,Stimuli\ImageFiles-Set1\Scenes\Scenes_048.png,0,0,0,220,220,220,,,,,,,,,,,,,133.0000272999987,2.7299998691887595e-05,None,171.3366700000006,171.3366700000006,171.3366700000006,171.3366700000006,171.3366700000006,171.3366700000006,171.3366700000006,171.3366700000006,,001,P012,2025_Feb_08_1152,CategoryLocalizer,2021.2.3,59.9401797002514,
133.8,134.0,5,0.0,Stimuli\Blank.png,0,0,0,221,221,221,,,,,,,,,,,,,133.81790459999866,0.017904599998644244,None,172.1373836999992,172.1373836999992,172.1373836999992,172.1373836999992,172.1373836999992,172.1373836999992,172.1373836999992,172.1373836999992,,001,P012,2025_Feb_08_1152,CategoryLocalizer,2021.2.3,59.9401797002514,
134.0,134.8,4,0.75,Stimuli\ImageFiles-Set1\Scenes\Scenes_028.png,0,0,0,222,222,222,,,,,,,,,,,,,134.0008581000002,0.0008581000001868233,None,172.3208355000006,172.3208355000006,172.3208355000006,172.3208355000006,172.3208355000006,172.3208355000006,172.3208355000006,172.3208355000006,,001,P012,2025_Feb_08_1152,CategoryLocalizer,2021.2.3,59.9401797002514,
134.8,135.0,5,0.0,Stimuli\Blank.png,0,0,0,223,223,223,,,,,,,,,,,,,134.80136270000003,0.001362700000015593,None,173.12158959999942,173.12158959999942,173.12158959999942,173.12158959999942,173.12158959999942,173.12158959999942,173.12158959999942,173.12158959999942,,001,P012,2025_Feb_08_1152,CategoryLocalizer,2021.2.3,59.9401797002514,
135.0,135.8,4,0.75,Stimuli\ImageFiles-Set1\Scenes\Scenes_040.png,0,0,0,224,224,224,,,,,,,,,,,,,135.00210979999974,0.0021097999997437,None,173.3217599999989,173.3217599999989,173.3217599999989,173.3217599999989,173.3217599999989,173.3217599999989,173.3217599999989,173.3217599999989,,001,P012,2025_Feb_08_1152,CategoryLocalizer,2021.2.3,59.9401797002514,
135.8,136.0,5,0.0,Stimuli\Blank.png,0,0,0,225,225,225,,,,,,,,,,,,,135.80450810000002,0.004508100000009563,None,174.1391526999996,174.1391526999996,174.1391526999996,174.1391526999996,174.1391526999996,174.1391526999996,174.1391526999996,174.1391526999996,,001,P012,2025_Feb_08_1152,CategoryLocalizer,2021.2.3,59.9401797002514,
136.0,136.8,2,0.75,Stimuli\ImageFiles-Set1\Bodies\Bodies_Lunging_00003.png,0,0,0,226,226,226,,,,,,,,,,,,,136.01991129999988,0.019911299999876064,None,174.3393199000002,174.3393199000002,174.3393199000002,174.3393199000002,174.3393199000002,174.3393199000002,174.3393199000002,174.3393199000002,,001,P012,2025_Feb_08_1152,CategoryLocalizer,2021.2.3,59.9401797002514,
136.8,137.0,5,0.0,Stimuli\Blank.png,0,0,0,227,227,227,,,,,,,,,,,,,136.8048945999999,0.004894599999886395,None,175.14003500000035,175.14003500000035,175.14003500000035,175.14003500000035,175.14003500000035,175.14003500000035,175.14003500000035,175.14003500000035,,001,P012,2025_Feb_08_1152,CategoryLocalizer,2021.2.3,59.9401797002514,
137.0,137.8,2,0.75,Stimuli\ImageFiles-Set1\Bodies\Bodies_SittingFloor_00003.png,0,0,0,228,228,228,,,,,,,,,,,,,137.0209261,0.02092609999999695,None,175.34020729999975,175.34020729999975,175.34020729999975,175.34020729999975,175.34020729999975,175.34020729999975,175.34020729999975,175.34020729999975,,001,P012,2025_Feb_08_1152,CategoryLocalizer,2021.2.3,59.9401797002514,
137.8,138.0,5,0.0,Stimuli\Blank.png,0,0,0,229,229,229,,,,,,,,,,,,,137.80608129999928,0.006081299999266321,None,176.12424739999915,176.12424739999915,176.12424739999915,176.12424739999915,176.12424739999915,176.12424739999915,176.12424739999915,176.12424739999915,,001,P012,2025_Feb_08_1152,CategoryLocalizer,2021.2.3,59.9401797002514,
138.0,138.8,2,0.75,Stimuli\ImageFiles-Set1\Bodies\Bodies_PushUp_00004.png,0,0,0,230,230,230,,,,,,,,,,,,,138.0053721000004,0.005372100000386126,None,176.34109549999994,176.34109549999994,176.34109549999994,176.34109549999994,176.34109549999994,176.34109549999994,176.34109549999994,176.34109549999994,,001,P012,2025_Feb_08_1152,CategoryLocalizer,2021.2.3,59.9401797002514,
138.8,139.0,5,0.0,Stimuli\Blank.png,0,0,0,231,231,231,,,,,,,,,,,,,138.82309319999877,0.0230931999987547,None,177.14183149999917,177.14183149999917,177.14183149999917,177.14183149999917,177.14183149999917,177.14183149999917,177.14183149999917,177.14183149999917,,001,P012,2025_Feb_08_1152,CategoryLocalizer,2021.2.3,59.9401797002514,
139.0,139.8,2,0.75,Stimuli\ImageFiles-Set1\Bodies\Bodies_Standing_00001.png,0,0,0,232,232,232,,,,,,,,,,,,,139.00541390000035,0.005413900000348804,None,177.32529559999966,177.32529559999966,177.32529559999966,177.32529559999966,177.32529559999966,177.32529559999966,177.32529559999966,177.32529559999966,,001,P012,2025_Feb_08_1152,CategoryLocalizer,2021.2.3,59.9401797002514,
139.8,140.0,5,0.0,Stimuli\Blank.png,0,0,0,233,233,233,,,,,,,,,,,,,139.80619569999908,0.006195699999068438,None,178.1260119999988,178.1260119999988,178.1260119999988,178.1260119999988,178.1260119999988,178.1260119999988,178.1260119999988,178.1260119999988,,001,P012,2025_Feb_08_1152,CategoryLocalizer,2021.2.3,59.9401797002514,
140.0,140.8,2,0.75,Stimuli\ImageFiles-Set1\Bodies\Bodies_Jumping_00002.png,0,0,0,234,234,234,,,,,,,,,,,,,140.0071551000001,0.007155100000090897,None,178.34286079999947,178.34286079999947,178.34286079999947,178.34286079999947,178.34286079999947,178.34286079999947,178.34286079999947,178.34286079999947,,001,P012,2025_Feb_08_1152,CategoryLocalizer,2021.2.3,59.9401797002514,
140.8,141.0,5,0.0,Stimuli\Blank.png,0,0,0,235,235,235,,,,,,,,,,,,,140.82387190000009,0.02387190000007422,None,179.14359049999985,179.14359049999985,179.14359049999985,179.14359049999985,179.14359049999985,179.14359049999985,179.14359049999985,179.14359049999985,,001,P012,2025_Feb_08_1152,CategoryLocalizer,2021.2.3,59.9401797002514,
141.0,141.8,2,0.75,Stimuli\ImageFiles-Set1\Bodies\Bodies_Jumping_00002.png,1,1,0,236,236,236,,,,,,,,,,,,,141.00672659999873,0.006726599998728489,2,179.32706549999966,179.32706549999966,179.32706549999966,179.32706549999966,179.32706549999966,179.32706549999966,179.32706549999966,179.32706549999966,0.4776268000005075,001,P012,2025_Feb_08_1152,CategoryLocalizer,2021.2.3,59.9401797002514,
141.8,142.0,5,0.0,Stimuli\Blank.png,0,0,0,237,237,237,,,,,,,,,,,,,141.80950109999867,0.009501099998658447,None,180.14449559999957,180.14449559999957,180.14449559999957,180.14449559999957,180.14449559999957,180.14449559999957,180.14449559999957,180.14449559999957,,001,P012,2025_Feb_08_1152,CategoryLocalizer,2021.2.3,59.9401797002514,
142.0,142.8,2,0.75,Stimuli\ImageFiles-Set1\Bodies\Bodies_Kicking_00007.png,0,0,0,238,238,238,,,,,,,,,,,,,142.02570419999938,0.02570419999938167,None,180.3613220999996,180.3613220999996,180.3613220999996,180.3613220999996,180.3613220999996,180.3613220999996,180.3613220999996,180.3613220999996,,001,P012,2025_Feb_08_1152,CategoryLocalizer,2021.2.3,59.9401797002514,
142.8,143.0,5,0.0,Stimuli\Blank.png,0,0,0,239,239,239,,,,,,,,,,,,,142.82557420000012,0.025574200000107794,None,181.14533680000022,181.14533680000022,181.14533680000022,181.14533680000022,181.14533680000022,181.14533680000022,181.14533680000022,181.14533680000022,,001,P012,2025_Feb_08_1152,CategoryLocalizer,2021.2.3,59.9401797002514,
143.0,143.8,2,0.75,Stimuli\ImageFiles-Set1\Bodies\Bodies_Falling_00002.png,0,0,0,240,240,240,,,,,,,,,,,,,143.0092126999989,0.009212699998897733,None,181.328845,181.328845,181.328845,181.328845,181.328845,181.328845,181.328845,181.328845,,001,P012,2025_Feb_08_1152,CategoryLocalizer,2021.2.3,59.9401797002514,
143.8,144.0,5,0.0,Stimuli\Blank.png,0,0,0,241,241,241,,,,,,,,,,,,,143.80920539999897,0.009205399998961639,None,182.12954489999902,182.12954489999902,182.12954489999902,182.12954489999902,182.12954489999902,182.12954489999902,182.12954489999902,182.12954489999902,,001,P012,2025_Feb_08_1152,CategoryLocalizer,2021.2.3,59.9401797002514,
144.0,144.8,2,0.75,Stimuli\ImageFiles-Set1\Bodies\Bodies_Crawling_00006.png,1,1,0,242,242,242,,,,,,,,,,,,,144.00975970000036,0.009759700000358862,None,182.32972080000036,182.32972080000036,182.32972080000036,182.32972080000036,182.32972080000036,182.32972080000036,182.32972080000036,182.32972080000036,,001,P012,2025_Feb_08_1152,CategoryLocalizer,2021.2.3,59.9401797002514,
144.8,145.0,5,0.0,Stimuli\Blank.png,0,0,0,243,243,243,,,,,,,,,,,,,144.81019240000023,0.010192400000221369,None,183.1304340000006,183.1304340000006,183.1304340000006,183.1304340000006,183.1304340000006,183.1304340000006,183.1304340000006,183.1304340000006,,001,P012,2025_Feb_08_1152,CategoryLocalizer,2021.2.3,59.9401797002514,
145.0,145.8,2,0.75,Stimuli\ImageFiles-Set1\Bodies\Bodies_Kneeling_00003.png,0,0,0,244,244,244,,,,,,,,,,,,,145.0103081999987,0.010308199998689815,None,183.33060529999966,183.33060529999966,183.33060529999966,183.33060529999966,183.33060529999966,183.33060529999966,183.33060529999966,183.33060529999966,,001,P012,2025_Feb_08_1152,CategoryLocalizer,2021.2.3,59.9401797002514,
145.8,146.0,5,0.0,Stimuli\Blank.png,0,0,0,245,245,245,,,,,,,,,,,,,145.81106100000034,0.011061000000324839,None,184.13131819999944,184.13131819999944,184.13131819999944,184.13131819999944,184.13131819999944,184.13131819999944,184.13131819999944,184.13131819999944,,001,P012,2025_Feb_08_1152,CategoryLocalizer,2021.2.3,59.9401797002514,
146.0,146.8,2,0.75,Stimuli\ImageFiles-Set1\Bodies\Bodies_Kneeling_00003.png,0,0,0,246,246,246,,,,,,,,,,,,,146.01150959999904,0.01150959999904444,2,184.33147449999888,184.33147449999888,184.33147449999888,184.33147449999888,184.33147449999888,184.33147449999888,184.33147449999888,184.33147449999888,0.49624709999989136,001,P012,2025_Feb_08_1152,CategoryLocalizer,2021.2.3,59.9401797002514,
146.8,147.0,5,0.0,Stimuli\Blank.png,0,0,0,247,247,247,,,,,,,,,,,,,146.81244320000042,0.012443200000404886,None,185.1322383000006,185.1322383000006,185.1322383000006,185.1322383000006,185.1322383000006,185.1322383000006,185.1322383000006,185.1322383000006,,001,P012,2025_Feb_08_1152,CategoryLocalizer,2021.2.3,59.9401797002514,
147.0,147.8,2,0.75,Stimuli\ImageFiles-Set1\Bodies\Bodies_DownwardDog_00007.png,0,0,0,248,248,248,,,,,,,,,,,,,147.0143592000004,0.014359200000399142,None,185.34903769999983,185.34903769999983,185.34903769999983,185.34903769999983,185.34903769999983,185.34903769999983,185.34903769999983,185.34903769999983,,001,P012,2025_Feb_08_1152,CategoryLocalizer,2021.2.3,59.9401797002514,
147.8,148.0,5,0.0,Stimuli\Blank.png,0,0,0,249,249,249,,,,,,,,,,,,,147.82958979999967,0.029589799999655497,None,186.1497793999988,186.1497793999988,186.1497793999988,186.1497793999988,186.1497793999988,186.1497793999988,186.1497793999988,186.1497793999988,,001,P012,2025_Feb_08_1152,CategoryLocalizer,2021.2.3,59.9401797002514,
148.0,148.8,2,0.75,Stimuli\ImageFiles-Set1\Bodies\Bodies_Punching_00003.png,0,0,0,250,250,250,,,,,,,,,,,,,148.01474979999875,0.014749799998753588,None,186.3499501999995,186.3499501999995,186.3499501999995,186.3499501999995,186.3499501999995,186.3499501999995,186.3499501999995,186.3499501999995,,001,P012,2025_Feb_08_1152,CategoryLocalizer,2021.2.3,59.9401797002514,
148.8,149.0,5,0.0,Stimuli\Blank.png,0,0,0,251,251,251,,,,,,,,,,,,,148.81539379999958,0.015393799999571911,None,187.13397009999971,187.13397009999971,187.13397009999971,187.13397009999971,187.13397009999971,187.13397009999971,187.13397009999971,187.13397009999971,,001,P012,2025_Feb_08_1152,CategoryLocalizer,2021.2.3,59.9401797002514,
149.0,149.8,2,0.75,Stimuli\ImageFiles-Set1\Bodies\Bodies_SittingChair_00005.png,0,0,0,252,252,252,,,,,,,,,,,,,149.0146850000001,0.014685000000099535,None,187.33415199999945,187.33415199999945,187.33415199999945,187.33415199999945,187.33415199999945,187.33415199999945,187.33415199999945,187.33415199999945,,001,P012,2025_Feb_08_1152,CategoryLocalizer,2021.2.3,59.9401797002514,
149.8,150.0,5,0.0,Stimuli\Blank.png,0,0,0,253,253,253,,,,,,,,,,,,,149.81517039999926,0.015170399999249184,None,188.13485880000007,188.13485880000007,188.13485880000007,188.13485880000007,188.13485880000007,188.13485880000007,188.13485880000007,188.13485880000007,,001,P012,2025_Feb_08_1152,CategoryLocalizer,2021.2.3,59.9401797002514,
150.0,150.8,2,0.75,Stimuli\ImageFiles-Set1\Bodies\Bodies_Waving_00007.png,0,0,0,254,254,254,,,,,,,,,,,,,150.01587429999927,0.01587429999926826,None,188.33503889999884,188.33503889999884,188.33503889999884,188.33503889999884,188.33503889999884,188.33503889999884,188.33503889999884,188.33503889999884,,001,P012,2025_Feb_08_1152,CategoryLocalizer,2021.2.3,59.9401797002514,
150.8,151.0,5,0.0,Stimuli\Blank.png,0,0,0,255,255,255,,,,,,,,,,,,,150.79869309999958,-0.001306900000429323,None,189.11909100000048,189.11909100000048,189.11909100000048,189.11909100000048,189.11909100000048,189.11909100000048,189.11909100000048,189.11909100000048,,001,P012,2025_Feb_08_1152,CategoryLocalizer,2021.2.3,59.9401797002514,
151.0,151.8,2,0.75,Stimuli\ImageFiles-Set1\Bodies\Bodies_Standing_00003.png,0,0,0,256,256,256,,,,,,,,,,,,,151.01569779999954,0.01569779999954335,None,189.33749080000052,189.33749080000052,189.33749080000052,189.33749080000052,189.33749080000052,189.33749080000052,189.33749080000052,189.33749080000052,,001,P012,2025_Feb_08_1152,CategoryLocalizer,2021.2.3,59.9401797002514,
151.8,152.0,5,0.0,Stimuli\Blank.png,0,0,0,257,257,257,,,,,,,,,,,,,151.8170126999994,0.01701269999938404,None,190.13671299999987,190.13671299999987,190.13671299999987,190.13671299999987,190.13671299999987,190.13671299999987,190.13671299999987,190.13671299999987,,001,P012,2025_Feb_08_1152,CategoryLocalizer,2021.2.3,59.9401797002514,
152.0,164.0,0,0.0,Stimuli\Blank.png,0,0,0,258,258,258,,,,,,,,,,,,,152.00091859999884,0.0009185999988403637,None,190.32009319999997,190.32009319999997,190.32009319999997,190.32009319999997,190.32009319999997,190.32009319999997,190.32009319999997,190.32009319999997,,001,P012,2025_Feb_08_1152,CategoryLocalizer,2021.2.3,59.9401797002514,
164.0,164.8,4,0.75,Stimuli\ImageFiles-Set1\Scenes\Scenes_006.png,0,0,0,259,259,259,,,,,,,,,,,,,164.01054529999965,0.010545299999648705,None,202.3307162000001,202.3307162000001,202.3307162000001,202.3307162000001,202.3307162000001,202.3307162000001,202.3307162000001,202.3307162000001,,001,P012,2025_Feb_08_1152,CategoryLocalizer,2021.2.3,59.9401797002514,
164.8,165.0,5,0.0,Stimuli\Blank.png,0,0,0,260,260,260,,,,,,,,,,,,,164.81188379999912,0.011883799999111488,None,203.13145389999954,203.13145389999954,203.13145389999954,203.13145389999954,203.13145389999954,203.13145389999954,203.13145389999954,203.13145389999954,,001,P012,2025_Feb_08_1152,CategoryLocalizer,2021.2.3,59.9401797002514,
165.0,165.8,4,0.75,Stimuli\ImageFiles-Set1\Scenes\Scenes_026.png,0,0,0,261,261,261,,,,,,,,,,,,,165.01205309999932,0.012053099999320693,None,203.3316345000003,203.3316345000003,203.3316345000003,203.3316345000003,203.3316345000003,203.3316345000003,203.3316345000003,203.3316345000003,,001,P012,2025_Feb_08_1152,CategoryLocalizer,2021.2.3,59.9401797002514,
165.8,166.0,5,0.0,Stimuli\Blank.png,0,0,0,262,262,262,,,,,,,,,,,,,165.81460369999877,0.014603699998758657,None,204.1490457,204.1490457,204.1490457,204.1490457,204.1490457,204.1490457,204.1490457,204.1490457,,001,P012,2025_Feb_08_1152,CategoryLocalizer,2021.2.3,59.9401797002514,
166.0,166.8,4,0.75,Stimuli\ImageFiles-Set1\Scenes\Scenes_017.png,0,0,0,263,263,263,,,,,,,,,,,,,166.03054559999873,0.030545599998731632,None,204.3659107000003,204.3659107000003,204.3659107000003,204.3659107000003,204.3659107000003,204.3659107000003,204.3659107000003,204.3659107000003,,001,P012,2025_Feb_08_1152,CategoryLocalizer,2021.2.3,59.9401797002514,
166.8,167.0,5,0.0,Stimuli\Blank.png,0,0,0,264,264,264,,,,,,,,,,,,,166.83016150000003,0.030161500000019714,None,205.14992209999946,205.14992209999946,205.14992209999946,205.14992209999946,205.14992209999946,205.14992209999946,205.14992209999946,205.14992209999946,,001,P012,2025_Feb_08_1152,CategoryLocalizer,2021.2.3,59.9401797002514,
167.0,167.8,4,0.75,Stimuli\ImageFiles-Set1\Scenes\Scenes_029.png,0,0,0,265,265,265,,,,,,,,,,,,,167.0155369999993,0.015536999999312684,None,205.35013059999983,205.35013059999983,205.35013059999983,205.35013059999983,205.35013059999983,205.35013059999983,205.35013059999983,205.35013059999983,,001,P012,2025_Feb_08_1152,CategoryLocalizer,2021.2.3,59.9401797002514,
167.8,168.0,5,0.0,Stimuli\Blank.png,0,0,0,266,266,266,,,,,,,,,,,,,167.81488600000012,0.01488600000010365,None,206.13411769999948,206.13411769999948,206.13411769999948,206.13411769999948,206.13411769999948,206.13411769999948,206.13411769999948,206.13411769999948,,001,P012,2025_Feb_08_1152,CategoryLocalizer,2021.2.3,59.9401797002514,
168.0,168.8,4,0.75,Stimuli\ImageFiles-Set1\Scenes\Scenes_018.png,0,0,0,267,267,267,,,,,,,,,,,,,168.01455319999877,0.01455319999877247,None,206.3509715,206.3509715,206.3509715,206.3509715,206.3509715,206.3509715,206.3509715,206.3509715,,001,P012,2025_Feb_08_1152,CategoryLocalizer,2021.2.3,59.9401797002514,
168.8,169.0,5,0.0,Stimuli\Blank.png,0,0,0,268,268,268,,,,,,,,,,,,,168.83136679999916,0.03136679999914804,None,207.1516776999997,207.1516776999997,207.1516776999997,207.1516776999997,207.1516776999997,207.1516776999997,207.1516776999997,207.1516776999997,,001,P012,2025_Feb_08_1152,CategoryLocalizer,2021.2.3,59.9401797002514,
169.0,169.8,4,0.75,Stimuli\ImageFiles-Set1\Scenes\Scenes_018.png,1,1,0,269,269,269,,,,,,,,,,,,,169.01546359999884,0.015463599998838617,2,207.35186219999923,207.35186219999923,207.35186219999923,207.35186219999923,207.35186219999923,207.35186219999923,207.35186219999923,207.35186219999923,0.49196779999874707,001,P012,2025_Feb_08_1152,CategoryLocalizer,2021.2.3,59.9401797002514,
169.8,170.0,5,0.0,Stimuli\Blank.png,0,0,0,270,270,270,,,,,,,,,,,,,169.815728399999,0.01572839999897724,None,208.1358777000005,208.1358777000005,208.1358777000005,208.1358777000005,208.1358777000005,208.1358777000005,208.1358777000005,208.1358777000005,,001,P012,2025_Feb_08_1152,CategoryLocalizer,2021.2.3,59.9401797002514,
170.0,170.8,4,0.75,Stimuli\ImageFiles-Set1\Scenes\Scenes_038.png,0,0,0,271,271,271,,,,,,,,,,,,,170.0001214999993,0.00012149999929533806,None,208.33606359999976,208.33606359999976,208.33606359999976,208.33606359999976,208.33606359999976,208.33606359999976,208.33606359999976,208.33606359999976,,001,P012,2025_Feb_08_1152,CategoryLocalizer,2021.2.3,59.9401797002514,
170.8,171.0,5,0.0,Stimuli\Blank.png,0,0,0,272,272,272,,,,,,,,,,,,,170.8171958999992,0.017195899999194353,None,209.13683889999993,209.13683889999993,209.13683889999993,209.13683889999993,209.13683889999993,209.13683889999993,209.13683889999993,209.13683889999993,,001,P012,2025_Feb_08_1152,CategoryLocalizer,2021.2.3,59.9401797002514,
171.0,171.8,4,0.75,Stimuli\ImageFiles-Set1\Scenes\Scenes_054.png,0,0,0,273,273,273,,,,,,,,,,,,,170.99989019999884,-0.0001098000011552358,None,209.33696950000012,209.33696950000012,209.33696950000012,209.33696950000012,209.33696950000012,209.33696950000012,209.33696950000012,209.33696950000012,,001,P012,2025_Feb_08_1152,CategoryLocalizer,2021.2.3,59.9401797002514,
171.8,172.0,5,0.0,Stimuli\Blank.png,0,0,0,274,274,274,,,,,,,,,,,,,171.8195760999988,0.019576099998801055,None,210.1544032999991,210.1544032999991,210.1544032999991,210.1544032999991,210.1544032999991,210.1544032999991,210.1544032999991,210.1544032999991,,001,P012,2025_Feb_08_1152,CategoryLocalizer,2021.2.3,59.9401797002514,
172.0,172.8,4,0.75,Stimuli\ImageFiles-Set1\Scenes\Scenes_020.png,1,1,0,275,275,275,,,,,,,,,,,,,172.02009129999897,0.02009129999896686,None,210.35451710000052,210.35451710000052,210.35451710000052,210.35451710000052,210.35451710000052,210.35451710000052,210.35451710000052,210.35451710000052,,001,P012,2025_Feb_08_1152,CategoryLocalizer,2021.2.3,59.9401797002514,
172.8,173.0,5,0.0,Stimuli\Blank.png,0,0,0,276,276,276,,,,,,,,,,,,,172.81824649999908,0.01824649999906569,None,211.1386247999999,211.1386247999999,211.1386247999999,211.1386247999999,211.1386247999999,211.1386247999999,211.1386247999999,211.1386247999999,,001,P012,2025_Feb_08_1152,CategoryLocalizer,2021.2.3,59.9401797002514,
173.0,173.8,4,0.75,Stimuli\ImageFiles-Set1\Scenes\Scenes_041.png,0,0,0,277,277,277,,,,,,,,,,,,,173.0023928999999,0.00239289999990433,None,211.3387303999989,211.3387303999989,211.3387303999989,211.3387303999989,211.3387303999989,211.3387303999989,211.3387303999989,211.3387303999989,,001,P012,2025_Feb_08_1152,CategoryLocalizer,2021.2.3,59.9401797002514,
173.8,174.0,5,0.0,Stimuli\Blank.png,0,0,0,278,278,278,,,,,,,,,,,,,173.8203771999997,0.020377199999700224,None,212.13942870000028,212.13942870000028,212.13942870000028,212.13942870000028,212.13942870000028,212.13942870000028,212.13942870000028,212.13942870000028,,001,P012,2025_Feb_08_1152,CategoryLocalizer,2021.2.3,59.9401797002514,
174.0,174.8,4,0.75,Stimuli\ImageFiles-Set1\Scenes\Scenes_041.png,0,0,0,279,279,279,,,,,,,,,,,,,174.00470320000022,0.004703200000221841,2,212.3396092999992,212.3396092999992,212.3396092999992,212.3396092999992,212.3396092999992,212.3396092999992,212.3396092999992,212.3396092999992,0.4281753999985085,001,P012,2025_Feb_08_1152,CategoryLocalizer,2021.2.3,59.9401797002514,
174.8,175.0,5,0.0,Stimuli\Blank.png,0,0,0,280,280,280,,,,,,,,,,,,,174.82090049999897,0.02090049999895882,None,213.140309299999,213.140309299999,213.140309299999,213.140309299999,213.140309299999,213.140309299999,213.140309299999,213.140309299999,,001,P012,2025_Feb_08_1152,CategoryLocalizer,2021.2.3,59.9401797002514,
175.0,175.8,4,0.75,Stimuli\ImageFiles-Set1\Scenes\Scenes_030.png,0,0,0,281,281,281,,,,,,,,,,,,,175.0042169999997,0.004216999999698601,None,213.34048269999948,213.34048269999948,213.34048269999948,213.34048269999948,213.34048269999948,213.34048269999948,213.34048269999948,213.34048269999948,,001,P012,2025_Feb_08_1152,CategoryLocalizer,2021.2.3,59.9401797002514,
175.8,176.0,5,0.0,Stimuli\Blank.png,0,0,0,282,282,282,,,,,,,,,,,,,175.8209599999991,0.020959999999092815,None,214.14119439999922,214.14119439999922,214.14119439999922,214.14119439999922,214.14119439999922,214.14119439999922,214.14119439999922,214.14119439999922,,001,P012,2025_Feb_08_1152,CategoryLocalizer,2021.2.3,59.9401797002514,
176.0,176.8,4,0.75,Stimuli\ImageFiles-Set1\Scenes\Scenes_001.png,0,0,0,283,283,283,,,,,,,,,,,,,176.00510310000027,0.005103100000269478,None,214.34132279999903,214.34132279999903,214.34132279999903,214.34132279999903,214.34132279999903,214.34132279999903,214.34132279999903,214.34132279999903,,001,P012,2025_Feb_08_1152,CategoryLocalizer,2021.2.3,59.9401797002514,
176.8,177.0,5,0.0,Stimuli\Blank.png,0,0,0,284,284,284,,,,,,,,,,,,,176.82173179999882,0.021731799998804036,None,215.14207530000022,215.14207530000022,215.14207530000022,215.14207530000022,215.14207530000022,215.14207530000022,215.14207530000022,215.14207530000022,,001,P012,2025_Feb_08_1152,CategoryLocalizer,2021.2.3,59.9401797002514,
177.0,177.8,4,0.75,Stimuli\ImageFiles-Set1\Scenes\Scenes_024.png,0,0,0,285,285,285,,,,,,,,,,,,,177.00534929999958,0.005349299999579671,None,215.34227929999906,215.34227929999906,215.34227929999906,215.34227929999906,215.34227929999906,215.34227929999906,215.34227929999906,215.34227929999906,,001,P012,2025_Feb_08_1152,CategoryLocalizer,2021.2.3,59.9401797002514,
177.8,178.0,5,0.0,Stimuli\Blank.png,0,0,0,286,286,286,,,,,,,,,,,,,177.82460030000038,0.0246003000003725,None,216.15966630000003,216.15966630000003,216.15966630000003,216.15966630000003,216.15966630000003,216.15966630000003,216.15966630000003,216.15966630000003,,001,P012,2025_Feb_08_1152,CategoryLocalizer,2021.2.3,59.9401797002514,
178.0,178.8,4,0.75,Stimuli\ImageFiles-Set1\Scenes\Scenes_047.png,0,0,0,287,287,287,,,,,,,,,,,,,178.02347329999975,0.023473299999750452,None,216.34314230000018,216.34314230000018,216.34314230000018,216.34314230000018,216.34314230000018,216.34314230000018,216.34314230000018,216.34314230000018,,001,P012,2025_Feb_08_1152,CategoryLocalizer,2021.2.3,59.9401797002514,
