eventStartTime,eventEndTime,eventCond,imSize,imFile,repeatedImage,responseEvent,Events.thisRepN,Events.thisTrialN,Events.thisN,Events.thisIndex,Instructions.started,Instructions.stopped,participantReadyResponse.keys,participantReadyResponse.rt,participantReadyResponse.started,participantReadyResponse.stopped,startWaitforTrigger,triggerResponse.keys,triggerResponse.rt,triggerResponse.started,triggerResponse.stopped,globalTimer,actualStartTime,startTimingDiff,participantResponse.keys,participantResponse.started,participantResponse.stopped,image.started,image.stopped,fixationOutside.started,fixationOutside.stopped,fixationInside.started,fixationInside.stopped,participantResponse.rt,session,participant,date,expName,psychopyVersion,frameRate,
,,,,,,,,,,,11.424099100000603,None,1,29.524536000000808,11.424099100000603,None,,,,,,,,,,,,,,,,,,,001,P013,2025_Feb_08_1505,CategoryLocalizer,2021.2.3,59.963973644305526,
,,,,,,,,,,,,,,,,,40.95550870000079,5,15.803233999999065,40.96837030000097,None,,,,,,,,,,,,,,001,P013,2025_Feb_08_1505,CategoryLocalizer,2021.2.3,59.963973644305526,
0.0,12.0,0,0.0,Stimuli\Blank.png,0,0,0,0,0,0,,,,,,,,,,,,56.784842500001105,0.03722630000265781,0.03722630000265781,None,56.83234530000118,None,56.83234530000118,None,56.83234530000118,None,56.83234530000118,None,,001,P013,2025_Feb_08_1505,CategoryLocalizer,2021.2.3,59.963973644305526,
12.0,12.8,1,0.75,Stimuli\ImageFiles-Set1\Objects\Object_Shirt_00001.png,0,0,0,1,1,1,,,,,,,,,,,,,12.011077800001658,0.011077800001658034,None,68.8096129000005,68.8096129000005,68.8096129000005,68.8096129000005,68.8096129000005,68.8096129000005,68.8096129000005,68.8096129000005,,001,P013,2025_Feb_08_1505,CategoryLocalizer,2021.2.3,59.963973644305526,
12.8,13.0,5,0.0,Stimuli\Blank.png,0,0,0,2,2,2,,,,,,,,,,,,,12.811349200001132,0.011349200001131265,None,69.61032859999978,69.61032859999978,69.61032859999978,69.61032859999978,69.61032859999978,69.61032859999978,69.61032859999978,69.61032859999978,,001,P013,2025_Feb_08_1505,CategoryLocalizer,2021.2.3,59.963973644305526,
13.0,13.8,1,0.75,Stimuli\ImageFiles-Set1\Objects\Object_Table_00001.png,0,0,0,3,3,3,,,,,,,,,,,,,13.013668900002813,0.013668900002812734,None,69.82718559999921,69.82718559999921,69.82718559999921,69.82718559999921,69.82718559999921,69.82718559999921,69.82718559999921,69.82718559999921,,001,P013,2025_Feb_08_1505,CategoryLocalizer,2021.2.3,59.963973644305526,
13.8,14.0,5,0.0,Stimuli\Blank.png,0,0,0,4,4,4,,,,,,,,,,,,,13.829283600000053,0.0292836000000527,None,70.62787970000136,70.62787970000136,70.62787970000136,70.62787970000136,70.62787970000136,70.62787970000136,70.62787970000136,70.62787970000136,,001,P013,2025_Feb_08_1505,CategoryLocalizer,2021.2.3,59.963973644305526,
14.0,14.8,1,0.75,Stimuli\ImageFiles-Set1\Objects\Object_Key_00001.png,0,0,0,5,5,5,,,,,,,,,,,,,14.013614400002552,0.01361440000255243,None,70.8288218000016,70.8288218000016,70.8288218000016,70.8288218000016,70.8288218000016,70.8288218000016,70.8288218000016,70.8288218000016,,001,P013,2025_Feb_08_1505,CategoryLocalizer,2021.2.3,59.963973644305526,
14.8,15.0,5,0.0,Stimuli\Blank.png,0,0,0,6,6,6,,,,,,,,,,,,,14.829306200001156,0.029306200001155247,None,71.62874210000155,71.62874210000155,71.62874210000155,71.62874210000155,71.62874210000155,71.62874210000155,71.62874210000155,71.62874210000155,,001,P013,2025_Feb_08_1505,CategoryLocalizer,2021.2.3,59.963973644305526,
15.0,15.8,1,0.75,Stimuli\ImageFiles-Set1\Objects\Object_Sock_00001.png,0,0,0,7,7,7,,,,,,,,,,,,,15.012719199999992,0.01271919999999227,None,71.8122637000015,71.8122637000015,71.8122637000015,71.8122637000015,71.8122637000015,71.8122637000015,71.8122637000015,71.8122637000015,,001,P013,2025_Feb_08_1505,CategoryLocalizer,2021.2.3,59.963973644305526,
15.8,16.0,5,0.0,Stimuli\Blank.png,0,0,0,8,8,8,,,,,,,,,,,,,15.813493300000118,0.013493300000117614,None,72.6129632000011,72.6129632000011,72.6129632000011,72.6129632000011,72.6129632000011,72.6129632000011,72.6129632000011,72.6129632000011,,001,P013,2025_Feb_08_1505,CategoryLocalizer,2021.2.3,59.963973644305526,
16.0,16.8,1,0.75,Stimuli\ImageFiles-Set1\Objects\Object_Dice_00001.png,0,0,0,9,9,9,,,,,,,,,,,,,16.013641700003063,0.013641700003063306,None,72.82983679999961,72.82983679999961,72.82983679999961,72.82983679999961,72.82983679999961,72.82983679999961,72.82983679999961,72.82983679999961,,001,P013,2025_Feb_08_1505,CategoryLocalizer,2021.2.3,59.963973644305526,
16.8,17.0,5,0.0,Stimuli\Blank.png,0,0,0,10,10,10,,,,,,,,,,,,,16.831354500001908,0.03135450000190687,None,73.63053990000117,73.63053990000117,73.63053990000117,73.63053990000117,73.63053990000117,73.63053990000117,73.63053990000117,73.63053990000117,,001,P013,2025_Feb_08_1505,CategoryLocalizer,2021.2.3,59.963973644305526,
17.0,17.8,1,0.75,Stimuli\ImageFiles-Set1\Objects\Object_Door_00001.png,0,0,0,11,11,11,,,,,,,,,,,,,17.01501830000052,0.015018300000519957,None,73.83075440000175,73.83075440000175,73.83075440000175,73.83075440000175,73.83075440000175,73.83075440000175,73.83075440000175,73.83075440000175,,001,P013,2025_Feb_08_1505,CategoryLocalizer,2021.2.3,59.963973644305526,
17.8,18.0,5,0.0,Stimuli\Blank.png,0,0,0,12,12,12,,,,,,,,,,,,,17.81812870000067,0.018128700000669795,None,74.6314291000017,74.6314291000017,74.6314291000017,74.6314291000017,74.6314291000017,74.6314291000017,74.6314291000017,74.6314291000017,,001,P013,2025_Feb_08_1505,CategoryLocalizer,2021.2.3,59.963973644305526,
18.0,18.8,1,0.75,Stimuli\ImageFiles-Set1\Objects\Object_Glasses_00001.png,0,0,0,13,13,13,,,,,,,,,,,,,18.016014800003177,0.016014800003176788,None,74.81492440000147,74.81492440000147,74.81492440000147,74.81492440000147,74.81492440000147,74.81492440000147,74.81492440000147,74.81492440000147,,001,P013,2025_Feb_08_1505,CategoryLocalizer,2021.2.3,59.963973644305526,
18.8,19.0,5,0.0,Stimuli\Blank.png,0,0,0,14,14,14,,,,,,,,,,,,,18.799685199999658,-0.0003148000003427853,None,75.59894400000121,75.59894400000121,75.59894400000121,75.59894400000121,75.59894400000121,75.59894400000121,75.59894400000121,75.59894400000121,,001,P013,2025_Feb_08_1505,CategoryLocalizer,2021.2.3,59.963973644305526,
19.0,19.8,1,0.75,Stimuli\ImageFiles-Set1\Objects\Object_Pencil_00001.png,0,0,0,15,15,15,,,,,,,,,,,,,19.00022910000189,0.00022910000188858248,None,75.79912369999874,75.79912369999874,75.79912369999874,75.79912369999874,75.79912369999874,75.79912369999874,75.79912369999874,75.79912369999874,,001,P013,2025_Feb_08_1505,CategoryLocalizer,2021.2.3,59.963973644305526,
19.8,20.0,5,0.0,Stimuli\Blank.png,0,0,0,16,16,16,,,,,,,,,,,,,19.800245200000063,0.00024520000006234,None,76.59982279999895,76.59982279999895,76.59982279999895,76.59982279999895,76.59982279999895,76.59982279999895,76.59982279999895,76.59982279999895,,001,P013,2025_Feb_08_1505,CategoryLocalizer,2021.2.3,59.963973644305526,
20.0,20.8,1,0.75,Stimuli\ImageFiles-Set1\Objects\Object_ShoppingCart_00001.png,0,0,0,17,17,17,,,,,,,,,,,,,20.00044120000166,0.0004412000016600359,None,76.79996830000164,76.79996830000164,76.79996830000164,76.79996830000164,76.79996830000164,76.79996830000164,76.79996830000164,76.79996830000164,,001,P013,2025_Feb_08_1505,CategoryLocalizer,2021.2.3,59.963973644305526,
20.8,21.0,5,0.0,Stimuli\Blank.png,0,0,0,18,18,18,,,,,,,,,,,,,20.80339079999976,0.003390799999760219,None,77.61739959999977,77.61739959999977,77.61739959999977,77.61739959999977,77.61739959999977,77.61739959999977,77.61739959999977,77.61739959999977,,001,P013,2025_Feb_08_1505,CategoryLocalizer,2021.2.3,59.963973644305526,
21.0,21.8,1,0.75,Stimuli\ImageFiles-Set1\Objects\Object_ShoppingCart_00001.png,1,1,0,19,19,19,,,,,,,,,,,,,21.018640199999936,0.018640199999936158,1,77.81758239999908,77.81758239999908,77.81758239999908,77.81758239999908,77.81758239999908,77.81758239999908,77.81758239999908,77.81758239999908,0.555041199997504,001,P013,2025_Feb_08_1505,CategoryLocalizer,2021.2.3,59.963973644305526,
21.8,22.0,5,0.0,Stimuli\Blank.png,0,0,0,20,20,20,,,,,,,,,,,,,21.80212460000257,0.0021246000025705314,None,78.6016767000001,78.6016767000001,78.6016767000001,78.6016767000001,78.6016767000001,78.6016767000001,78.6016767000001,78.6016767000001,,001,P013,2025_Feb_08_1505,CategoryLocalizer,2021.2.3,59.963973644305526,
22.0,22.8,1,0.75,Stimuli\ImageFiles-Set1\Objects\Object_Ring_00001.png,0,0,0,21,21,21,,,,,,,,,,,,,22.003044200002478,0.003044200002477737,None,78.80178869999872,78.80178869999872,78.80178869999872,78.80178869999872,78.80178869999872,78.80178869999872,78.80178869999872,78.80178869999872,,001,P013,2025_Feb_08_1505,CategoryLocalizer,2021.2.3,59.963973644305526,
22.8,23.0,5,0.0,Stimuli\Blank.png,0,0,0,22,22,22,,,,,,,,,,,,,22.803835300001083,0.0038353000010822313,None,79.60249539999859,79.60249539999859,79.60249539999859,79.60249539999859,79.60249539999859,79.60249539999859,79.60249539999859,79.60249539999859,,001,P013,2025_Feb_08_1505,CategoryLocalizer,2021.2.3,59.963973644305526,
23.0,23.8,1,0.75,Stimuli\ImageFiles-Set1\Objects\Object_Tool_00001.png,0,0,0,23,23,23,,,,,,,,,,,,,23.004653300002246,0.004653300002246397,1,79.81936190000124,79.81936190000124,79.81936190000124,79.81936190000124,79.81936190000124,79.81936190000124,79.81936190000124,79.81936190000124,0.47029269999984535,001,P013,2025_Feb_08_1505,CategoryLocalizer,2021.2.3,59.963973644305526,
23.8,24.0,5,0.0,Stimuli\Blank.png,0,0,0,24,24,24,,,,,,,,,,,,,23.820628700003,0.0206287000029981,None,80.62005489999865,80.62005489999865,80.62005489999865,80.62005489999865,80.62005489999865,80.62005489999865,80.62005489999865,80.62005489999865,,001,P013,2025_Feb_08_1505,CategoryLocalizer,2021.2.3,59.963973644305526,
24.0,24.8,1,0.75,Stimuli\ImageFiles-Set1\Objects\Object_Nightstand_00001.png,0,0,0,25,25,25,,,,,,,,,,,,,24.004700100002083,0.004700100002082763,None,80.80354879999868,80.80354879999868,80.80354879999868,80.80354879999868,80.80354879999868,80.80354879999868,80.80354879999868,80.80354879999868,,001,P013,2025_Feb_08_1505,CategoryLocalizer,2021.2.3,59.963973644305526,
24.8,25.0,5,0.0,Stimuli\Blank.png,0,0,0,26,26,26,,,,,,,,,,,,,24.804671300000336,0.004671300000335776,None,81.60425880000184,81.60425880000184,81.60425880000184,81.60425880000184,81.60425880000184,81.60425880000184,81.60425880000184,81.60425880000184,,001,P013,2025_Feb_08_1505,CategoryLocalizer,2021.2.3,59.963973644305526,
25.0,25.8,1,0.75,Stimuli\ImageFiles-Set1\Objects\Object_Pizza_00001.png,0,0,0,27,27,27,,,,,,,,,,,,,25.00484570000117,0.004845700001169462,None,81.82113570000001,81.82113570000001,81.82113570000001,81.82113570000001,81.82113570000001,81.82113570000001,81.82113570000001,81.82113570000001,,001,P013,2025_Feb_08_1505,CategoryLocalizer,2021.2.3,59.963973644305526,
25.8,26.0,5,0.0,Stimuli\Blank.png,0,0,0,28,28,28,,,,,,,,,,,,,25.82286390000081,0.022863900000810844,None,82.62183450000157,82.62183450000157,82.62183450000157,82.62183450000157,82.62183450000157,82.62183450000157,82.62183450000157,82.62183450000157,,001,P013,2025_Feb_08_1505,CategoryLocalizer,2021.2.3,59.963973644305526,
26.0,26.8,1,0.75,Stimuli\ImageFiles-Set1\Objects\Object_Toilet_00001.png,0,0,0,29,29,29,,,,,,,,,,,,,26.006616500002565,0.006616500002564862,None,82.80532170000151,82.80532170000151,82.80532170000151,82.80532170000151,82.80532170000151,82.80532170000151,82.80532170000151,82.80532170000151,,001,P013,2025_Feb_08_1505,CategoryLocalizer,2021.2.3,59.963973644305526,
26.8,27.0,5,0.0,Stimuli\Blank.png,0,0,0,30,30,30,,,,,,,,,,,,,26.80848280000282,0.008482800002820312,None,83.62274389999948,83.62274389999948,83.62274389999948,83.62274389999948,83.62274389999948,83.62274389999948,83.62274389999948,83.62274389999948,,001,P013,2025_Feb_08_1505,CategoryLocalizer,2021.2.3,59.963973644305526,
27.0,27.8,1,0.75,Stimuli\ImageFiles-Set1\Objects\Object_Motorcycle_00001.png,0,0,0,31,31,31,,,,,,,,,,,,,27.023886900002253,0.023886900002253242,None,83.83959030000187,83.83959030000187,83.83959030000187,83.83959030000187,83.83959030000187,83.83959030000187,83.83959030000187,83.83959030000187,,001,P013,2025_Feb_08_1505,CategoryLocalizer,2021.2.3,59.963973644305526,
27.8,28.0,5,0.0,Stimuli\Blank.png,0,0,0,32,32,32,,,,,,,,,,,,,27.824811500002397,0.024811500002396514,None,84.62359350000042,84.62359350000042,84.62359350000042,84.62359350000042,84.62359350000042,84.62359350000042,84.62359350000042,84.62359350000042,,001,P013,2025_Feb_08_1505,CategoryLocalizer,2021.2.3,59.963973644305526,
28.0,28.8,2,0.75,Stimuli\ImageFiles-Set1\Bodies\Bodies_SittingFloor_00007.png,0,0,0,33,33,33,,,,,,,,,,,,,28.00748569999996,0.007485699999961071,None,84.8070947999986,84.8070947999986,84.8070947999986,84.8070947999986,84.8070947999986,84.8070947999986,84.8070947999986,84.8070947999986,,001,P013,2025_Feb_08_1505,CategoryLocalizer,2021.2.3,59.963973644305526,
28.8,29.0,5,0.0,Stimuli\Blank.png,0,0,0,34,34,34,,,,,,,,,,,,,28.808304600002884,0.008304600002883689,None,85.60779449999973,85.60779449999973,85.60779449999973,85.60779449999973,85.60779449999973,85.60779449999973,85.60779449999973,85.60779449999973,,001,P013,2025_Feb_08_1505,CategoryLocalizer,2021.2.3,59.963973644305526,
29.0,29.8,2,0.75,Stimuli\ImageFiles-Set1\Bodies\Bodies_Kneeling_00005.png,0,0,0,35,35,35,,,,,,,,,,,,,29.00905039999998,0.009050399999978254,None,85.80799430000116,85.80799430000116,85.80799430000116,85.80799430000116,85.80799430000116,85.80799430000116,85.80799430000116,85.80799430000116,,001,P013,2025_Feb_08_1505,CategoryLocalizer,2021.2.3,59.963973644305526,
29.8,30.0,5,0.0,Stimuli\Blank.png,0,0,0,36,36,36,,,,,,,,,,,,,29.809230099999695,0.009230099999694374,None,86.60869380000076,86.60869380000076,86.60869380000076,86.60869380000076,86.60869380000076,86.60869380000076,86.60869380000076,86.60869380000076,,001,P013,2025_Feb_08_1505,CategoryLocalizer,2021.2.3,59.963973644305526,
30.0,30.8,2,0.75,Stimuli\ImageFiles-Set1\Bodies\Bodies_Punching_00001.png,0,0,0,37,37,37,,,,,,,,,,,,,30.010443600000144,0.010443600000144215,None,86.82557920000181,86.82557920000181,86.82557920000181,86.82557920000181,86.82557920000181,86.82557920000181,86.82557920000181,86.82557920000181,,001,P013,2025_Feb_08_1505,CategoryLocalizer,2021.2.3,59.963973644305526,
30.8,31.0,5,0.0,Stimuli\Blank.png,0,0,0,38,38,38,,,,,,,,,,,,,30.826957799999946,0.026957799999944854,None,87.62628659999973,87.62628659999973,87.62628659999973,87.62628659999973,87.62628659999973,87.62628659999973,87.62628659999973,87.62628659999973,,001,P013,2025_Feb_08_1505,CategoryLocalizer,2021.2.3,59.963973644305526,
31.0,31.8,2,0.75,Stimuli\ImageFiles-Set1\Bodies\Bodies_Waving_00001.png,0,0,0,39,39,39,,,,,,,,,,,,,31.011190200002602,0.011190200002602069,None,87.80975839999883,87.80975839999883,87.80975839999883,87.80975839999883,87.80975839999883,87.80975839999883,87.80975839999883,87.80975839999883,,001,P013,2025_Feb_08_1505,CategoryLocalizer,2021.2.3,59.963973644305526,
31.8,32.0,5,0.0,Stimuli\Blank.png,0,0,0,40,40,40,,,,,,,,,,,,,31.81155890000082,0.011558900000817829,None,88.61046699999861,88.61046699999861,88.61046699999861,88.61046699999861,88.61046699999861,88.61046699999861,88.61046699999861,88.61046699999861,,001,P013,2025_Feb_08_1505,CategoryLocalizer,2021.2.3,59.963973644305526,
32.0,32.8,2,0.75,Stimuli\ImageFiles-Set1\Bodies\Bodies_Kicking_00007.png,0,0,0,41,41,41,,,,,,,,,,,,,32.01199590000033,0.01199590000032913,None,88.81064310000147,88.81064310000147,88.81064310000147,88.81064310000147,88.81064310000147,88.81064310000147,88.81064310000147,88.81064310000147,,001,P013,2025_Feb_08_1505,CategoryLocalizer,2021.2.3,59.963973644305526,
32.8,33.0,5,0.0,Stimuli\Blank.png,0,0,0,42,42,42,,,,,,,,,,,,,32.81318029999966,0.01318029999966086,None,89.61134089999905,89.61134089999905,89.61134089999905,89.61134089999905,89.61134089999905,89.61134089999905,89.61134089999905,89.61134089999905,,001,P013,2025_Feb_08_1505,CategoryLocalizer,2021.2.3,59.963973644305526,
33.0,33.8,2,0.75,Stimuli\ImageFiles-Set1\Bodies\Bodies_Falling_00006.png,0,0,0,43,43,43,,,,,,,,,,,,,33.013975000001665,0.013975000001664739,None,89.82821319999857,89.82821319999857,89.82821319999857,89.82821319999857,89.82821319999857,89.82821319999857,89.82821319999857,89.82821319999857,,001,P013,2025_Feb_08_1505,CategoryLocalizer,2021.2.3,59.963973644305526,
33.8,34.0,5,0.0,Stimuli\Blank.png,0,0,0,44,44,44,,,,,,,,,,,,,33.82933720000074,0.029337200000739472,None,90.62889050000013,90.62889050000013,90.62889050000013,90.62889050000013,90.62889050000013,90.62889050000013,90.62889050000013,90.62889050000013,,001,P013,2025_Feb_08_1505,CategoryLocalizer,2021.2.3,59.963973644305526,
34.0,34.8,2,0.75,Stimuli\ImageFiles-Set1\Bodies\Bodies_Lunging_00004.png,0,0,0,45,45,45,,,,,,,,,,,,,34.01294860000053,0.012948600000527222,None,90.81240719999914,90.81240719999914,90.81240719999914,90.81240719999914,90.81240719999914,90.81240719999914,90.81240719999914,90.81240719999914,,001,P013,2025_Feb_08_1505,CategoryLocalizer,2021.2.3,59.963973644305526,
34.8,35.0,5,0.0,Stimuli\Blank.png,0,0,0,46,46,46,,,,,,,,,,,,,34.81414589999986,0.01414589999986049,None,91.6131166999985,91.6131166999985,91.6131166999985,91.6131166999985,91.6131166999985,91.6131166999985,91.6131166999985,91.6131166999985,,001,P013,2025_Feb_08_1505,CategoryLocalizer,2021.2.3,59.963973644305526,
35.0,35.8,2,0.75,Stimuli\ImageFiles-Set1\Bodies\Bodies_Hanging_00006.png,0,0,0,47,47,47,,,,,,,,,,,,,35.015194800002064,0.015194800002063857,None,91.81333779999841,91.81333779999841,91.81333779999841,91.81333779999841,91.81333779999841,91.81333779999841,91.81333779999841,91.81333779999841,,001,P013,2025_Feb_08_1505,CategoryLocalizer,2021.2.3,59.963973644305526,
35.8,36.0,5,0.0,Stimuli\Blank.png,0,0,0,48,48,48,,,,,,,,,,,,,35.79781450000155,-0.0021854999984469714,None,92.59731779999856,92.59731779999856,92.59731779999856,92.59731779999856,92.59731779999856,92.59731779999856,92.59731779999856,92.59731779999856,,001,P013,2025_Feb_08_1505,CategoryLocalizer,2021.2.3,59.963973644305526,
36.0,36.8,2,0.75,Stimuli\ImageFiles-Set1\Bodies\Bodies_SittingFloor_00005.png,0,0,0,49,49,49,,,,,,,,,,,,,36.014578000002075,0.014578000002074987,None,92.81417750000037,92.81417750000037,92.81417750000037,92.81417750000037,92.81417750000037,92.81417750000037,92.81417750000037,92.81417750000037,,001,P013,2025_Feb_08_1505,CategoryLocalizer,2021.2.3,59.963973644305526,
36.8,37.0,5,0.0,Stimuli\Blank.png,0,0,0,50,50,50,,,,,,,,,,,,,36.81809940000312,0.018099400003123378,None,93.63157420000061,93.63157420000061,93.63157420000061,93.63157420000061,93.63157420000061,93.63157420000061,93.63157420000061,93.63157420000061,,001,P013,2025_Feb_08_1505,CategoryLocalizer,2021.2.3,59.963973644305526,
37.0,37.8,2,0.75,Stimuli\ImageFiles-Set1\Bodies\Bodies_Crawling_00001.png,0,0,0,51,51,51,,,,,,,,,,,,,37.01659980000113,0.01659980000113137,None,93.81507979999878,93.81507979999878,93.81507979999878,93.81507979999878,93.81507979999878,93.81507979999878,93.81507979999878,93.81507979999878,,001,P013,2025_Feb_08_1505,CategoryLocalizer,2021.2.3,59.963973644305526,
37.8,38.0,5,0.0,Stimuli\Blank.png,0,0,0,52,52,52,,,,,,,,,,,,,37.79997150000054,-2.849999945908621e-05,None,94.5990813999997,94.5990813999997,94.5990813999997,94.5990813999997,94.5990813999997,94.5990813999997,94.5990813999997,94.5990813999997,,001,P013,2025_Feb_08_1505,CategoryLocalizer,2021.2.3,59.963973644305526,
38.0,38.8,2,0.75,Stimuli\ImageFiles-Set1\Bodies\Bodies_SittingChair_00005.png,0,0,0,53,53,53,,,,,,,,,,,,,38.00055720000091,0.0005572000009124167,None,94.79927390000012,94.79927390000012,94.79927390000012,94.79927390000012,94.79927390000012,94.79927390000012,94.79927390000012,94.79927390000012,,001,P013,2025_Feb_08_1505,CategoryLocalizer,2021.2.3,59.963973644305526,
38.8,39.0,5,0.0,Stimuli\Blank.png,0,0,0,54,54,54,,,,,,,,,,,,,38.80032900000151,0.0003290000015141459,None,95.60002750000058,95.60002750000058,95.60002750000058,95.60002750000058,95.60002750000058,95.60002750000058,95.60002750000058,95.60002750000058,,001,P013,2025_Feb_08_1505,CategoryLocalizer,2021.2.3,59.963973644305526,
39.0,39.8,2,0.75,Stimuli\ImageFiles-Set1\Bodies\Bodies_SittingChair_00005.png,1,1,0,55,55,55,,,,,,,,,,,,,39.000581100001,0.0005811000009998679,1,95.8001460000014,95.8001460000014,95.8001460000014,95.8001460000014,95.8001460000014,95.8001460000014,95.8001460000014,95.8001460000014,0.4945311999981641,001,P013,2025_Feb_08_1505,CategoryLocalizer,2021.2.3,59.963973644305526,
39.8,40.0,5,0.0,Stimuli\Blank.png,0,0,0,56,56,56,,,,,,,,,,,,,39.80325640000228,0.0032564000022858863,None,96.61757299999954,96.61757299999954,96.61757299999954,96.61757299999954,96.61757299999954,96.61757299999954,96.61757299999954,96.61757299999954,,001,P013,2025_Feb_08_1505,CategoryLocalizer,2021.2.3,59.963973644305526,
40.0,40.8,2,0.75,Stimuli\ImageFiles-Set1\Bodies\Bodies_Crawling_00006.png,0,0,0,57,57,57,,,,,,,,,,,,,40.018677000000025,0.018677000000025146,None,96.81771890000164,96.81771890000164,96.81771890000164,96.81771890000164,96.81771890000164,96.81771890000164,96.81771890000164,96.81771890000164,,001,P013,2025_Feb_08_1505,CategoryLocalizer,2021.2.3,59.963973644305526,
40.8,41.0,5,0.0,Stimuli\Blank.png,0,0,0,58,58,58,,,,,,,,,,,,,40.80216080000173,0.0021608000017323548,None,97.60179040000003,97.60179040000003,97.60179040000003,97.60179040000003,97.60179040000003,97.60179040000003,97.60179040000003,97.60179040000003,,001,P013,2025_Feb_08_1505,CategoryLocalizer,2021.2.3,59.963973644305526,
41.0,41.8,2,0.75,Stimuli\ImageFiles-Set1\Bodies\Bodies_Walking_00002.png,0,0,0,59,59,59,,,,,,,,,,,,,41.003010899999936,0.0030108999999356456,None,97.81862779999938,97.81862779999938,97.81862779999938,97.81862779999938,97.81862779999938,97.81862779999938,97.81862779999938,97.81862779999938,,001,P013,2025_Feb_08_1505,CategoryLocalizer,2021.2.3,59.963973644305526,
41.8,42.0,5,0.0,Stimuli\Blank.png,0,0,0,60,60,60,,,,,,,,,,,,,41.81970790000196,0.01970790000196132,None,98.61931499999992,98.61931499999992,98.61931499999992,98.61931499999992,98.61931499999992,98.61931499999992,98.61931499999992,98.61931499999992,,001,P013,2025_Feb_08_1505,CategoryLocalizer,2021.2.3,59.963973644305526,
42.0,42.8,2,0.75,Stimuli\ImageFiles-Set1\Bodies\Bodies_PushUp_00004.png,0,0,0,61,61,61,,,,,,,,,,,,,42.00325240000166,0.003252400001656497,None,98.80281480000122,98.80281480000122,98.80281480000122,98.80281480000122,98.80281480000122,98.80281480000122,98.80281480000122,98.80281480000122,,001,P013,2025_Feb_08_1505,CategoryLocalizer,2021.2.3,59.963973644305526,
42.8,43.0,5,0.0,Stimuli\Blank.png,0,0,0,62,62,62,,,,,,,,,,,,,42.80553870000222,0.005538700002219343,None,99.60359239999889,99.60359239999889,99.60359239999889,99.60359239999889,99.60359239999889,99.60359239999889,99.60359239999889,99.60359239999889,,001,P013,2025_Feb_08_1505,CategoryLocalizer,2021.2.3,59.963973644305526,
43.0,43.8,2,0.75,Stimuli\ImageFiles-Set1\Bodies\Bodies_Punching_00006.png,0,0,0,63,63,63,,,,,,,,,,,,,43.00411090000125,0.004110900001251139,None,99.80370709999988,99.80370709999988,99.80370709999988,99.80370709999988,99.80370709999988,99.80370709999988,99.80370709999988,99.80370709999988,,001,P013,2025_Feb_08_1505,CategoryLocalizer,2021.2.3,59.963973644305526,
43.8,44.0,5,0.0,Stimuli\Blank.png,0,0,0,64,64,64,,,,,,,,,,,,,43.805406700001186,0.005406700001188369,None,100.60440369999924,100.60440369999924,100.60440369999924,100.60440369999924,100.60440369999924,100.60440369999924,100.60440369999924,100.60440369999924,,001,P013,2025_Feb_08_1505,CategoryLocalizer,2021.2.3,59.963973644305526,
44.0,44.8,3,0.75,Stimuli\ImageFiles-Set1\Faces\Face_00009.png,0,0,0,65,65,65,,,,,,,,,,,,,44.00499630000195,0.004996300001948839,None,100.8045807999988,100.8045807999988,100.8045807999988,100.8045807999988,100.8045807999988,100.8045807999988,100.8045807999988,100.8045807999988,,001,P013,2025_Feb_08_1505,CategoryLocalizer,2021.2.3,59.963973644305526,
44.8,45.0,5,0.0,Stimuli\Blank.png,0,0,0,66,66,66,,,,,,,,,,,,,44.80569370000012,0.005693700000122703,None,101.60529339999994,101.60529339999994,101.60529339999994,101.60529339999994,101.60529339999994,101.60529339999994,101.60529339999994,101.60529339999994,,001,P013,2025_Feb_08_1505,CategoryLocalizer,2021.2.3,59.963973644305526,
45.0,45.8,3,0.75,Stimuli\ImageFiles-Set1\Faces\Face_00119.png,0,0,0,67,67,67,,,,,,,,,,,,,45.00597390000257,0.005973900002572918,None,101.80545849999908,101.80545849999908,101.80545849999908,101.80545849999908,101.80545849999908,101.80545849999908,101.80545849999908,101.80545849999908,,001,P013,2025_Feb_08_1505,CategoryLocalizer,2021.2.3,59.963973644305526,
45.8,46.0,5,0.0,Stimuli\Blank.png,0,0,0,68,68,68,,,,,,,,,,,,,45.809493500000826,0.009493500000829158,None,102.62286070000118,102.62286070000118,102.62286070000118,102.62286070000118,102.62286070000118,102.62286070000118,102.62286070000118,102.62286070000118,,001,P013,2025_Feb_08_1505,CategoryLocalizer,2021.2.3,59.963973644305526,
46.0,46.8,3,0.75,Stimuli\ImageFiles-Set1\Faces\Face_00063.png,0,0,0,69,69,69,,,,,,,,,,,,,46.02368330000172,0.023683300001721364,None,102.84038499999951,102.84038499999951,102.84038499999951,102.84038499999951,102.84038499999951,102.84038499999951,102.84038499999951,102.84038499999951,,001,P013,2025_Feb_08_1505,CategoryLocalizer,2021.2.3,59.963973644305526,
46.8,47.0,5,0.0,Stimuli\Blank.png,0,0,0,70,70,70,,,,,,,,,,,,,46.82409259999986,0.02409259999986091,None,103.62374859999909,103.62374859999909,103.62374859999909,103.62374859999909,103.62374859999909,103.62374859999909,103.62374859999909,103.62374859999909,,001,P013,2025_Feb_08_1505,CategoryLocalizer,2021.2.3,59.963973644305526,
47.0,47.8,3,0.75,Stimuli\ImageFiles-Set1\Faces\Face_00018.png,0,0,0,71,71,71,,,,,,,,,,,,,47.008575500000006,0.008575500000006286,None,103.82392560000153,103.82392560000153,103.82392560000153,103.82392560000153,103.82392560000153,103.82392560000153,103.82392560000153,103.82392560000153,,001,P013,2025_Feb_08_1505,CategoryLocalizer,2021.2.3,59.963973644305526,
47.8,48.0,5,0.0,Stimuli\Blank.png,0,0,0,72,72,72,,,,,,,,,,,,,47.82517300000109,0.025173000001089463,None,104.62462040000173,104.62462040000173,104.62462040000173,104.62462040000173,104.62462040000173,104.62462040000173,104.62462040000173,104.62462040000173,,001,P013,2025_Feb_08_1505,CategoryLocalizer,2021.2.3,59.963973644305526,
48.0,48.8,3,0.75,Stimuli\ImageFiles-Set1\Faces\Face_00073.png,0,0,0,73,73,73,,,,,,,,,,,,,48.00978440000108,0.00978440000108094,None,104.82483219999995,104.82483219999995,104.82483219999995,104.82483219999995,104.82483219999995,104.82483219999995,104.82483219999995,104.82483219999995,,001,P013,2025_Feb_08_1505,CategoryLocalizer,2021.2.3,59.963973644305526,
48.8,49.0,5,0.0,Stimuli\Blank.png,0,0,0,74,74,74,,,,,,,,,,,,,48.82792950000294,0.0279295000029407,None,105.6423864999997,105.6423864999997,105.6423864999997,105.6423864999997,105.6423864999997,105.6423864999997,105.6423864999997,105.6423864999997,,001,P013,2025_Feb_08_1505,CategoryLocalizer,2021.2.3,59.963973644305526,
49.0,49.8,3,0.75,Stimuli\ImageFiles-Set1\Faces\Face_00109.png,0,0,0,75,75,75,,,,,,,,,,,,,49.02799320000122,0.02799320000121952,None,105.84237360000043,105.84237360000043,105.84237360000043,105.84237360000043,105.84237360000043,105.84237360000043,105.84237360000043,105.84237360000043,,001,P013,2025_Feb_08_1505,CategoryLocalizer,2021.2.3,59.963973644305526,
49.8,50.0,5,0.0,Stimuli\Blank.png,0,0,0,76,76,76,,,,,,,,,,,,,49.82761970000138,0.02761970000138092,None,106.62640580000152,106.62640580000152,106.62640580000152,106.62640580000152,106.62640580000152,106.62640580000152,106.62640580000152,106.62640580000152,,001,P013,2025_Feb_08_1505,CategoryLocalizer,2021.2.3,59.963973644305526,
50.0,50.8,3,0.75,Stimuli\ImageFiles-Set1\Faces\Face_00007.png,0,0,0,77,77,77,,,,,,,,,,,,,50.01038530000005,0.010385300000052666,None,106.80988760000037,106.80988760000037,106.80988760000037,106.80988760000037,106.80988760000037,106.80988760000037,106.80988760000037,106.80988760000037,,001,P013,2025_Feb_08_1505,CategoryLocalizer,2021.2.3,59.963973644305526,
50.8,51.0,5,0.0,Stimuli\Blank.png,0,0,0,78,78,78,,,,,,,,,,,,,50.810996899999736,0.010996899999739185,None,107.61067140000159,107.61067140000159,107.61067140000159,107.61067140000159,107.61067140000159,107.61067140000159,107.61067140000159,107.61067140000159,,001,P013,2025_Feb_08_1505,CategoryLocalizer,2021.2.3,59.963973644305526,
51.0,51.8,3,0.75,Stimuli\ImageFiles-Set1\Faces\Face_00039.png,0,0,0,79,79,79,,,,,,,,,,,,,51.01358740000069,0.013587400000687921,None,107.82746549999865,107.82746549999865,107.82746549999865,107.82746549999865,107.82746549999865,107.82746549999865,107.82746549999865,107.82746549999865,,001,P013,2025_Feb_08_1505,CategoryLocalizer,2021.2.3,59.963973644305526,
51.8,52.0,5,0.0,Stimuli\Blank.png,0,0,0,80,80,80,,,,,,,,,,,,,51.82935940000243,0.0293594000024342,None,108.62817050000012,108.62817050000012,108.62817050000012,108.62817050000012,108.62817050000012,108.62817050000012,108.62817050000012,108.62817050000012,,001,P013,2025_Feb_08_1505,CategoryLocalizer,2021.2.3,59.963973644305526,
52.0,52.8,3,0.75,Stimuli\ImageFiles-Set1\Faces\Face_00039.png,1,1,0,81,81,81,,,,,,,,,,,,,52.01224900000307,0.012249000003066612,1,108.81168320000143,108.81168320000143,108.81168320000143,108.81168320000143,108.81168320000143,108.81168320000143,108.81168320000143,108.81168320000143,0.4889901999995345,001,P013,2025_Feb_08_1505,CategoryLocalizer,2021.2.3,59.963973644305526,
52.8,53.0,5,0.0,Stimuli\Blank.png,0,0,0,82,82,82,,,,,,,,,,,,,52.813431200000196,0.013431200000198373,None,109.61237999999867,109.61237999999867,109.61237999999867,109.61237999999867,109.61237999999867,109.61237999999867,109.61237999999867,109.61237999999867,,001,P013,2025_Feb_08_1505,CategoryLocalizer,2021.2.3,59.963973644305526,
53.0,53.8,3,0.75,Stimuli\ImageFiles-Set1\Faces\Face_00079.png,0,0,0,83,83,83,,,,,,,,,,,,,53.014172600000165,0.014172600000165403,None,109.8292337999992,109.8292337999992,109.8292337999992,109.8292337999992,109.8292337999992,109.8292337999992,109.8292337999992,109.8292337999992,,001,P013,2025_Feb_08_1505,CategoryLocalizer,2021.2.3,59.963973644305526,
53.8,54.0,5,0.0,Stimuli\Blank.png,0,0,0,84,84,84,,,,,,,,,,,,,53.83297830000083,0.03297830000083479,None,110.64664809999886,110.64664809999886,110.64664809999886,110.64664809999886,110.64664809999886,110.64664809999886,110.64664809999886,110.64664809999886,,001,P013,2025_Feb_08_1505,CategoryLocalizer,2021.2.3,59.963973644305526,
54.0,54.8,3,0.75,Stimuli\ImageFiles-Set1\Faces\Face_00022.png,0,0,0,85,85,85,,,,,,,,,,,,,54.01386380000258,0.013863800002582138,None,110.83014969999931,110.83014969999931,110.83014969999931,110.83014969999931,110.83014969999931,110.83014969999931,110.83014969999931,110.83014969999931,,001,P013,2025_Feb_08_1505,CategoryLocalizer,2021.2.3,59.963973644305526,
54.8,55.0,5,0.0,Stimuli\Blank.png,0,0,0,86,86,86,,,,,,,,,,,,,54.83296420000261,0.0329642000026098,None,111.64841979999983,111.64841979999983,111.64841979999983,111.64841979999983,111.64841979999983,111.64841979999983,111.64841979999983,111.64841979999983,,001,P013,2025_Feb_08_1505,CategoryLocalizer,2021.2.3,59.963973644305526,
55.0,55.8,3,0.75,Stimuli\ImageFiles-Set1\Faces\Face_00097.png,0,0,0,87,87,87,,,,,,,,,,,,,55.03327950000312,0.0332795000031183,None,111.84768479999912,111.84768479999912,111.84768479999912,111.84768479999912,111.84768479999912,111.84768479999912,111.84768479999912,111.84768479999912,,001,P013,2025_Feb_08_1505,CategoryLocalizer,2021.2.3,59.963973644305526,
55.8,56.0,5,0.0,Stimuli\Blank.png,0,0,0,88,88,88,,,,,,,,,,,,,55.81618770000205,0.01618770000204961,None,112.61503660000017,112.61503660000017,112.61503660000017,112.61503660000017,112.61503660000017,112.61503660000017,112.61503660000017,112.61503660000017,,001,P013,2025_Feb_08_1505,CategoryLocalizer,2021.2.3,59.963973644305526,
56.0,56.8,3,0.75,Stimuli\ImageFiles-Set1\Faces\Face_00095.png,0,0,0,89,89,89,,,,,,,,,,,,,55.99971390000064,-0.0002860999993572477,None,112.79848029999994,112.79848029999994,112.79848029999994,112.79848029999994,112.79848029999994,112.79848029999994,112.79848029999994,112.79848029999994,,001,P013,2025_Feb_08_1505,CategoryLocalizer,2021.2.3,59.963973644305526,
56.8,57.0,5,0.0,Stimuli\Blank.png,0,0,0,90,90,90,,,,,,,,,,,,,56.79980140000043,-0.00019859999956395313,None,113.59923609999896,113.59923609999896,113.59923609999896,113.59923609999896,113.59923609999896,113.59923609999896,113.59923609999896,113.59923609999896,,001,P013,2025_Feb_08_1505,CategoryLocalizer,2021.2.3,59.963973644305526,
57.0,57.8,3,0.75,Stimuli\ImageFiles-Set1\Faces\Face_00059.png,0,0,0,91,91,91,,,,,,,,,,,,,57.00013260000196,0.0001326000019616913,None,113.79940889999853,113.79940889999853,113.79940889999853,113.79940889999853,113.79940889999853,113.79940889999853,113.79940889999853,113.79940889999853,,001,P013,2025_Feb_08_1505,CategoryLocalizer,2021.2.3,59.963973644305526,
57.8,58.0,5,0.0,Stimuli\Blank.png,0,0,0,92,92,92,,,,,,,,,,,,,57.80100650000168,0.0010065000016794556,None,114.60012060000008,114.60012060000008,114.60012060000008,114.60012060000008,114.60012060000008,114.60012060000008,114.60012060000008,114.60012060000008,,001,P013,2025_Feb_08_1505,CategoryLocalizer,2021.2.3,59.963973644305526,
58.0,58.8,3,0.75,Stimuli\ImageFiles-Set1\Faces\Face_00099.png,0,0,0,93,93,93,,,,,,,,,,,,,58.001024200002576,0.001024200002575526,None,114.8003033999994,114.8003033999994,114.8003033999994,114.8003033999994,114.8003033999994,114.8003033999994,114.8003033999994,114.8003033999994,,001,P013,2025_Feb_08_1505,CategoryLocalizer,2021.2.3,59.963973644305526,
58.8,59.0,5,0.0,Stimuli\Blank.png,0,0,0,94,94,94,,,,,,,,,,,,,58.80402570000297,0.0040257000029697565,None,115.61770669999896,115.61770669999896,115.61770669999896,115.61770669999896,115.61770669999896,115.61770669999896,115.61770669999896,115.61770669999896,,001,P013,2025_Feb_08_1505,CategoryLocalizer,2021.2.3,59.963973644305526,
59.0,59.8,3,0.75,Stimuli\ImageFiles-Set1\Faces\Face_00065.png,0,0,0,95,95,95,,,,,,,,,,,,,59.01891220000107,0.018912200001068413,None,115.81787020000047,115.81787020000047,115.81787020000047,115.81787020000047,115.81787020000047,115.81787020000047,115.81787020000047,115.81787020000047,,001,P013,2025_Feb_08_1505,CategoryLocalizer,2021.2.3,59.963973644305526,
59.8,60.0,5,0.0,Stimuli\Blank.png,0,0,0,96,96,96,,,,,,,,,,,,,59.80405140000221,0.0040514000022113805,None,116.60189199999877,116.60189199999877,116.60189199999877,116.60189199999877,116.60189199999877,116.60189199999877,116.60189199999877,116.60189199999877,,001,P013,2025_Feb_08_1505,CategoryLocalizer,2021.2.3,59.963973644305526,
60.0,60.8,4,0.75,Stimuli\ImageFiles-Set1\Scenes\Scenes_049.png,0,0,0,97,97,97,,,,,,,,,,,,,60.00307220000104,0.003072200001042802,None,116.81876900000134,116.81876900000134,116.81876900000134,116.81876900000134,116.81876900000134,116.81876900000134,116.81876900000134,116.81876900000134,,001,P013,2025_Feb_08_1505,CategoryLocalizer,2021.2.3,59.963973644305526,
60.8,61.0,5,0.0,Stimuli\Blank.png,0,0,0,98,98,98,,,,,,,,,,,,,60.82051990000036,0.020519900000365965,None,117.61946779999926,117.61946779999926,117.61946779999926,117.61946779999926,117.61946779999926,117.61946779999926,117.61946779999926,117.61946779999926,,001,P013,2025_Feb_08_1505,CategoryLocalizer,2021.2.3,59.963973644305526,
61.0,61.8,4,0.75,Stimuli\ImageFiles-Set1\Scenes\Scenes_011.png,0,0,0,99,99,99,,,,,,,,,,,,,61.00474320000285,0.004743200002849335,None,117.81963130000076,117.81963130000076,117.81963130000076,117.81963130000076,117.81963130000076,117.81963130000076,117.81963130000076,117.81963130000076,,001,P013,2025_Feb_08_1505,CategoryLocalizer,2021.2.3,59.963973644305526,
61.8,62.0,5,0.0,Stimuli\Blank.png,0,0,0,100,100,100,,,,,,,,,,,,,61.823298300001625,0.02329830000162758,None,118.63703660000101,118.63703660000101,118.63703660000101,118.63703660000101,118.63703660000101,118.63703660000101,118.63703660000101,118.63703660000101,,001,P013,2025_Feb_08_1505,CategoryLocalizer,2021.2.3,59.963973644305526,
62.0,62.8,4,0.75,Stimuli\ImageFiles-Set1\Scenes\Scenes_023.png,0,0,0,101,101,101,,,,,,,,,,,,,62.023578300002555,0.023578300002554897,None,118.83722399999897,118.83722399999897,118.83722399999897,118.83722399999897,118.83722399999897,118.83722399999897,118.83722399999897,118.83722399999897,,001,P013,2025_Feb_08_1505,CategoryLocalizer,2021.2.3,59.963973644305526,
62.8,63.0,5,0.0,Stimuli\Blank.png,0,0,0,102,102,102,,,,,,,,,,,,,62.82341269999961,0.02341269999961071,None,119.63791470000069,119.63791470000069,119.63791470000069,119.63791470000069,119.63791470000069,119.63791470000069,119.63791470000069,119.63791470000069,,001,P013,2025_Feb_08_1505,CategoryLocalizer,2021.2.3,59.963973644305526,
63.0,63.8,4,0.75,Stimuli\ImageFiles-Set1\Scenes\Scenes_016.png,0,0,0,103,103,103,,,,,,,,,,,,,63.02254100000209,0.022541000002092915,None,119.83808399999907,119.83808399999907,119.83808399999907,119.83808399999907,119.83808399999907,119.83808399999907,119.83808399999907,119.83808399999907,,001,P013,2025_Feb_08_1505,CategoryLocalizer,2021.2.3,59.963973644305526,
63.8,64.0,5,0.0,Stimuli\Blank.png,0,0,0,104,104,104,,,,,,,,,,,,,63.82386910000059,0.023869100000595722,None,120.62211749999915,120.62211749999915,120.62211749999915,120.62211749999915,120.62211749999915,120.62211749999915,120.62211749999915,120.62211749999915,,001,P013,2025_Feb_08_1505,CategoryLocalizer,2021.2.3,59.963973644305526,
64.0,64.8,4,0.75,Stimuli\ImageFiles-Set1\Scenes\Scenes_018.png,0,0,0,105,105,105,,,,,,,,,,,,,64.00646419999975,0.006464199999754783,None,120.80561410000155,120.80561410000155,120.80561410000155,120.80561410000155,120.80561410000155,120.80561410000155,120.80561410000155,120.80561410000155,,001,P013,2025_Feb_08_1505,CategoryLocalizer,2021.2.3,59.963973644305526,
64.8,65.0,5,0.0,Stimuli\Blank.png,0,0,0,106,106,106,,,,,,,,,,,,,64.80902880000212,0.009028800002127468,None,121.62300999999934,121.62300999999934,121.62300999999934,121.62300999999934,121.62300999999934,121.62300999999934,121.62300999999934,121.62300999999934,,001,P013,2025_Feb_08_1505,CategoryLocalizer,2021.2.3,59.963973644305526,
65.0,65.8,4,0.75,Stimuli\ImageFiles-Set1\Scenes\Scenes_032.png,0,0,0,107,107,107,,,,,,,,,,,,,65.02448379999987,0.024483799999870826,None,121.83985649999886,121.83985649999886,121.83985649999886,121.83985649999886,121.83985649999886,121.83985649999886,121.83985649999886,121.83985649999886,,001,P013,2025_Feb_08_1505,CategoryLocalizer,2021.2.3,59.963973644305526,
65.8,66.0,5,0.0,Stimuli\Blank.png,0,0,0,108,108,108,,,,,,,,,,,,,65.8251072000021,0.025107200002096874,None,122.62389220000114,122.62389220000114,122.62389220000114,122.62389220000114,122.62389220000114,122.62389220000114,122.62389220000114,122.62389220000114,,001,P013,2025_Feb_08_1505,CategoryLocalizer,2021.2.3,59.963973644305526,
66.0,66.8,4,0.75,Stimuli\ImageFiles-Set1\Scenes\Scenes_021.png,0,0,0,109,109,109,,,,,,,,,,,,,66.00838080000176,0.00838080000175978,None,122.82408260000011,122.82408260000011,122.82408260000011,122.82408260000011,122.82408260000011,122.82408260000011,122.82408260000011,122.82408260000011,,001,P013,2025_Feb_08_1505,CategoryLocalizer,2021.2.3,59.963973644305526,
66.8,67.0,5,0.0,Stimuli\Blank.png,0,0,0,110,110,110,,,,,,,,,,,,,66.82796410000083,0.027964100000829717,None,123.6414979000001,123.6414979000001,123.6414979000001,123.6414979000001,123.6414979000001,123.6414979000001,123.6414979000001,123.6414979000001,,001,P013,2025_Feb_08_1505,CategoryLocalizer,2021.2.3,59.963973644305526,
67.0,67.8,4,0.75,Stimuli\ImageFiles-Set1\Scenes\Scenes_041.png,0,0,0,111,111,111,,,,,,,,,,,,,67.02623070000118,0.026230700001178775,None,123.84171079999942,123.84171079999942,123.84171079999942,123.84171079999942,123.84171079999942,123.84171079999942,123.84171079999942,123.84171079999942,,001,P013,2025_Feb_08_1505,CategoryLocalizer,2021.2.3,59.963973644305526,
67.8,68.0,5,0.0,Stimuli\Blank.png,0,0,0,112,112,112,,,,,,,,,,,,,67.82607930000086,0.026079300000859007,None,124.62566580000203,124.62566580000203,124.62566580000203,124.62566580000203,124.62566580000203,124.62566580000203,124.62566580000203,124.62566580000203,,001,P013,2025_Feb_08_1505,CategoryLocalizer,2021.2.3,59.963973644305526,
68.0,68.8,4,0.75,Stimuli\ImageFiles-Set1\Scenes\Scenes_041.png,1,1,0,113,113,113,,,,,,,,,,,,,68.00956770000266,0.009567700002662605,1,124.82584340000176,124.82584340000176,124.82584340000176,124.82584340000176,124.82584340000176,124.82584340000176,124.82584340000176,124.82584340000176,0.4267991999986407,001,P013,2025_Feb_08_1505,CategoryLocalizer,2021.2.3,59.963973644305526,
68.8,69.0,5,0.0,Stimuli\Blank.png,0,0,0,114,114,114,,,,,,,,,,,,,68.82865520000269,0.02865520000268873,None,125.62654870000188,125.62654870000188,125.62654870000188,125.62654870000188,125.62654870000188,125.62654870000188,125.62654870000188,125.62654870000188,,001,P013,2025_Feb_08_1505,CategoryLocalizer,2021.2.3,59.963973644305526,
69.0,69.8,4,0.75,Stimuli\ImageFiles-Set1\Scenes\Scenes_002.png,0,0,0,115,115,115,,,,,,,,,,,,,69.01043430000209,0.010434300002089003,None,125.81002689999877,125.81002689999877,125.81002689999877,125.81002689999877,125.81002689999877,125.81002689999877,125.81002689999877,125.81002689999877,,001,P013,2025_Feb_08_1505,CategoryLocalizer,2021.2.3,59.963973644305526,
69.8,70.0,5,0.0,Stimuli\Blank.png,0,0,0,116,116,116,,,,,,,,,,,,,69.81357460000072,0.01357460000072308,None,126.62742939999953,126.62742939999953,126.62742939999953,126.62742939999953,126.62742939999953,126.62742939999953,126.62742939999953,126.62742939999953,,001,P013,2025_Feb_08_1505,CategoryLocalizer,2021.2.3,59.963973644305526,
70.0,70.8,4,0.75,Stimuli\ImageFiles-Set1\Scenes\Scenes_024.png,0,0,0,117,117,117,,,,,,,,,,,,,70.02919370000018,0.02919370000017807,None,126.84428019999905,126.84428019999905,126.84428019999905,126.84428019999905,126.84428019999905,126.84428019999905,126.84428019999905,126.84428019999905,,001,P013,2025_Feb_08_1505,CategoryLocalizer,2021.2.3,59.963973644305526,
70.8,71.0,5,0.0,Stimuli\Blank.png,0,0,0,118,118,118,,,,,,,,,,,,,70.82983510000122,0.029835100001221804,None,127.62831509999887,127.62831509999887,127.62831509999887,127.62831509999887,127.62831509999887,127.62831509999887,127.62831509999887,127.62831509999887,,001,P013,2025_Feb_08_1505,CategoryLocalizer,2021.2.3,59.963973644305526,
71.0,71.8,4,0.75,Stimuli\ImageFiles-Set1\Scenes\Scenes_043.png,0,0,0,119,119,119,,,,,,,,,,,,,71.01293250000163,0.012932500001625158,None,127.82848699999886,127.82848699999886,127.82848699999886,127.82848699999886,127.82848699999886,127.82848699999886,127.82848699999886,127.82848699999886,,001,P013,2025_Feb_08_1505,CategoryLocalizer,2021.2.3,59.963973644305526,
71.8,72.0,5,0.0,Stimuli\Blank.png,0,0,0,120,120,120,,,,,,,,,,,,,71.83024680000017,0.030246800000170992,None,128.62919909999982,128.62919909999982,128.62919909999982,128.62919909999982,128.62919909999982,128.62919909999982,128.62919909999982,128.62919909999982,,001,P013,2025_Feb_08_1505,CategoryLocalizer,2021.2.3,59.963973644305526,
72.0,72.8,4,0.75,Stimuli\ImageFiles-Set1\Scenes\Scenes_027.png,0,0,0,121,121,121,,,,,,,,,,,,,72.01323240000056,0.013232400000561029,None,128.82939420000184,128.82939420000184,128.82939420000184,128.82939420000184,128.82939420000184,128.82939420000184,128.82939420000184,128.82939420000184,,001,P013,2025_Feb_08_1505,CategoryLocalizer,2021.2.3,59.963973644305526,
72.8,73.0,5,0.0,Stimuli\Blank.png,0,0,0,122,122,122,,,,,,,,,,,,,72.83055630000308,0.030556300003084402,None,129.6300822000012,129.6300822000012,129.6300822000012,129.6300822000012,129.6300822000012,129.6300822000012,129.6300822000012,129.6300822000012,,001,P013,2025_Feb_08_1505,CategoryLocalizer,2021.2.3,59.963973644305526,
73.0,73.8,4,0.75,Stimuli\ImageFiles-Set1\Scenes\Scenes_025.png,0,0,0,123,123,123,,,,,,,,,,,,,73.0160289000014,0.01602890000140178,None,129.83025360000102,129.83025360000102,129.83025360000102,129.83025360000102,129.83025360000102,129.83025360000102,129.83025360000102,129.83025360000102,,001,P013,2025_Feb_08_1505,CategoryLocalizer,2021.2.3,59.963973644305526,
73.8,74.0,5,0.0,Stimuli\Blank.png,0,0,0,124,124,124,,,,,,,,,,,,,73.8147936000023,0.014793600002306562,None,130.61428539999906,130.61428539999906,130.61428539999906,130.61428539999906,130.61428539999906,130.61428539999906,130.61428539999906,130.61428539999906,,001,P013,2025_Feb_08_1505,CategoryLocalizer,2021.2.3,59.963973644305526,
74.0,74.8,4,0.75,Stimuli\ImageFiles-Set1\Scenes\Scenes_015.png,0,0,0,125,125,125,,,,,,,,,,,,,74.01486990000194,0.01486990000194055,None,130.81445710000116,130.81445710000116,130.81445710000116,130.81445710000116,130.81445710000116,130.81445710000116,130.81445710000116,130.81445710000116,,001,P013,2025_Feb_08_1505,CategoryLocalizer,2021.2.3,59.963973644305526,
74.8,75.0,5,0.0,Stimuli\Blank.png,0,0,0,126,126,126,,,,,,,,,,,,,74.81587280000167,0.01587280000167368,None,131.615170699999,131.615170699999,131.615170699999,131.615170699999,131.615170699999,131.615170699999,131.615170699999,131.615170699999,,001,P013,2025_Feb_08_1505,CategoryLocalizer,2021.2.3,59.963973644305526,
75.0,75.8,4,0.75,Stimuli\ImageFiles-Set1\Scenes\Scenes_050.png,0,0,0,127,127,127,,,,,,,,,,,,,74.99987040000269,-0.00012959999730810523,None,131.81534380000085,131.81534380000085,131.81534380000085,131.81534380000085,131.81534380000085,131.81534380000085,131.81534380000085,131.81534380000085,,001,P013,2025_Feb_08_1505,CategoryLocalizer,2021.2.3,59.963973644305526,
75.8,76.0,5,0.0,Stimuli\Blank.png,0,0,0,128,128,128,,,,,,,,,,,,,75.81712200000038,0.01712200000038422,None,132.6160540000019,132.6160540000019,132.6160540000019,132.6160540000019,132.6160540000019,132.6160540000019,132.6160540000019,132.6160540000019,,001,P013,2025_Feb_08_1505,CategoryLocalizer,2021.2.3,59.963973644305526,
76.0,88.0,0,0.0,Stimuli\Blank.png,0,0,0,129,129,129,,,,,,,,,,,,,76.00016130000222,0.0001613000022189226,None,132.79955490000066,132.79955490000066,132.79955490000066,132.79955490000066,132.79955490000066,132.79955490000066,132.79955490000066,132.79955490000066,,001,P013,2025_Feb_08_1505,CategoryLocalizer,2021.2.3,59.963973644305526,
88.0,88.8,3,0.75,Stimuli\ImageFiles-Set1\Faces\Face_00053.png,0,0,0,130,130,130,,,,,,,,,,,,,88.01149290000103,0.011492900001030648,None,144.81019500000184,144.81019500000184,144.81019500000184,144.81019500000184,144.81019500000184,144.81019500000184,144.81019500000184,144.81019500000184,,001,P013,2025_Feb_08_1505,CategoryLocalizer,2021.2.3,59.963973644305526,
88.8,89.0,5,0.0,Stimuli\Blank.png,0,0,0,131,131,131,,,,,,,,,,,,,88.81321050000042,0.013210500000425895,None,145.62758060000124,145.62758060000124,145.62758060000124,145.62758060000124,145.62758060000124,145.62758060000124,145.62758060000124,145.62758060000124,,001,P013,2025_Feb_08_1505,CategoryLocalizer,2021.2.3,59.963973644305526,
89.0,89.8,3,0.75,Stimuli\ImageFiles-Set1\Faces\Face_00053.png,1,1,0,132,132,132,,,,,,,,,,,,,89.03052899999966,0.0305289999996603,1,145.84443530000135,145.84443530000135,145.84443530000135,145.84443530000135,145.84443530000135,145.84443530000135,145.84443530000135,145.84443530000135,0.4122261000011349,001,P013,2025_Feb_08_1505,CategoryLocalizer,2021.2.3,59.963973644305526,
89.8,90.0,5,0.0,Stimuli\Blank.png,0,0,0,133,133,133,,,,,,,,,,,,,89.82952520000254,0.029525200002538554,None,146.6284572000004,146.6284572000004,146.6284572000004,146.6284572000004,146.6284572000004,146.6284572000004,146.6284572000004,146.6284572000004,,001,P013,2025_Feb_08_1505,CategoryLocalizer,2021.2.3,59.963973644305526,
90.0,90.8,3,0.75,Stimuli\ImageFiles-Set1\Faces\Face_00077.png,0,0,0,134,134,134,,,,,,,,,,,,,90.01249070000267,0.012490700002672384,None,146.81194170000163,146.81194170000163,146.81194170000163,146.81194170000163,146.81194170000163,146.81194170000163,146.81194170000163,146.81194170000163,,001,P013,2025_Feb_08_1505,CategoryLocalizer,2021.2.3,59.963973644305526,
90.8,91.0,5,0.0,Stimuli\Blank.png,0,0,0,135,135,135,,,,,,,,,,,,,90.81375780000235,0.013757800002352383,None,147.61265130000174,147.61265130000174,147.61265130000174,147.61265130000174,147.61265130000174,147.61265130000174,147.61265130000174,147.61265130000174,,001,P013,2025_Feb_08_1505,CategoryLocalizer,2021.2.3,59.963973644305526,
91.0,91.8,3,0.75,Stimuli\ImageFiles-Set1\Faces\Face_00033.png,0,0,0,136,136,136,,,,,,,,,,,,,91.01392020000276,0.013920200002758065,None,147.82951989999856,147.82951989999856,147.82951989999856,147.82951989999856,147.82951989999856,147.82951989999856,147.82951989999856,147.82951989999856,,001,P013,2025_Feb_08_1505,CategoryLocalizer,2021.2.3,59.963973644305526,
91.8,92.0,5,0.0,Stimuli\Blank.png,0,0,0,137,137,137,,,,,,,,,,,,,91.83141439999963,0.03141439999963325,None,148.63022400000045,148.63022400000045,148.63022400000045,148.63022400000045,148.63022400000045,148.63022400000045,148.63022400000045,148.63022400000045,,001,P013,2025_Feb_08_1505,CategoryLocalizer,2021.2.3,59.963973644305526,
92.0,92.8,3,0.75,Stimuli\ImageFiles-Set1\Faces\Face_00101.png,0,0,0,138,138,138,,,,,,,,,,,,,92.01412090000304,0.014120900003035786,None,148.8304210999995,148.8304210999995,148.8304210999995,148.8304210999995,148.8304210999995,148.8304210999995,148.8304210999995,148.8304210999995,,001,P013,2025_Feb_08_1505,CategoryLocalizer,2021.2.3,59.963973644305526,
92.8,93.0,5,0.0,Stimuli\Blank.png,0,0,0,139,139,139,,,,,,,,,,,,,92.83398220000163,0.03398220000163121,None,149.64780569999857,149.64780569999857,149.64780569999857,149.64780569999857,149.64780569999857,149.64780569999857,149.64780569999857,149.64780569999857,,001,P013,2025_Feb_08_1505,CategoryLocalizer,2021.2.3,59.963973644305526,
93.0,93.8,3,0.75,Stimuli\ImageFiles-Set1\Faces\Face_00003.png,0,0,0,140,140,140,,,,,,,,,,,,,93.01515350000045,0.015153500000451459,None,149.81460040000093,149.81460040000093,149.81460040000093,149.81460040000093,149.81460040000093,149.81460040000093,149.81460040000093,149.81460040000093,,001,P013,2025_Feb_08_1505,CategoryLocalizer,2021.2.3,59.963973644305526,
93.8,94.0,5,0.0,Stimuli\Blank.png,0,0,0,141,141,141,,,,,,,,,,,,,93.80006510000021,6.510000021364704e-05,None,150.59862989999965,150.59862989999965,150.59862989999965,150.59862989999965,150.59862989999965,150.59862989999965,150.59862989999965,150.59862989999965,,001,P013,2025_Feb_08_1505,CategoryLocalizer,2021.2.3,59.963973644305526,
94.0,94.8,3,0.75,Stimuli\ImageFiles-Set1\Faces\Face_00103.png,0,0,0,142,142,142,,,,,,,,,,,,,93.99998720000076,-1.2799999240087345e-05,None,150.8154934999984,150.8154934999984,150.8154934999984,150.8154934999984,150.8154934999984,150.8154934999984,150.8154934999984,150.8154934999984,,001,P013,2025_Feb_08_1505,CategoryLocalizer,2021.2.3,59.963973644305526,
94.8,95.0,5,0.0,Stimuli\Blank.png,0,0,0,143,143,143,,,,,,,,,,,,,94.81852270000309,0.0185227000030892,None,151.63291200000094,151.63291200000094,151.63291200000094,151.63291200000094,151.63291200000094,151.63291200000094,151.63291200000094,151.63291200000094,,001,P013,2025_Feb_08_1505,CategoryLocalizer,2021.2.3,59.963973644305526,
95.0,95.8,3,0.75,Stimuli\ImageFiles-Set1\Faces\Face_00012.png,0,0,0,144,144,144,,,,,,,,,,,,,95.01910789999965,0.019107899999653455,None,151.8330578999994,151.8330578999994,151.8330578999994,151.8330578999994,151.8330578999994,151.8330578999994,151.8330578999994,151.8330578999994,,001,P013,2025_Feb_08_1505,CategoryLocalizer,2021.2.3,59.963973644305526,
95.8,96.0,5,0.0,Stimuli\Blank.png,0,0,0,145,145,145,,,,,,,,,,,,,95.81881760000033,0.01881760000033239,None,152.61709619999965,152.61709619999965,152.61709619999965,152.61709619999965,152.61709619999965,152.61709619999965,152.61709619999965,152.61709619999965,,001,P013,2025_Feb_08_1505,CategoryLocalizer,2021.2.3,59.963973644305526,
96.0,96.8,3,0.75,Stimuli\ImageFiles-Set1\Faces\Face_00014.png,1,1,0,146,146,146,,,,,,,,,,,,,96.00115980000191,0.0011598000019148458,None,152.8005775999991,152.8005775999991,152.8005775999991,152.8005775999991,152.8005775999991,152.8005775999991,152.8005775999991,152.8005775999991,,001,P013,2025_Feb_08_1505,CategoryLocalizer,2021.2.3,59.963973644305526,
96.8,97.0,5,0.0,Stimuli\Blank.png,0,0,0,147,147,147,,,,,,,,,,,,,96.80350470000121,0.0035047000012156104,None,153.6179916000001,153.6179916000001,153.6179916000001,153.6179916000001,153.6179916000001,153.6179916000001,153.6179916000001,153.6179916000001,,001,P013,2025_Feb_08_1505,CategoryLocalizer,2021.2.3,59.963973644305526,
97.0,97.8,3,0.75,Stimuli\ImageFiles-Set1\Faces\Face_00027.png,0,0,0,148,148,148,,,,,,,,,,,,,97.01913920000152,0.019139200001518475,None,153.83483550000165,153.83483550000165,153.83483550000165,153.83483550000165,153.83483550000165,153.83483550000165,153.83483550000165,153.83483550000165,,001,P013,2025_Feb_08_1505,CategoryLocalizer,2021.2.3,59.963973644305526,
97.8,98.0,5,0.0,Stimuli\Blank.png,0,0,0,149,149,149,,,,,,,,,,,,,97.81938720000107,0.019387200001077076,None,154.61885210000037,154.61885210000037,154.61885210000037,154.61885210000037,154.61885210000037,154.61885210000037,154.61885210000037,154.61885210000037,,001,P013,2025_Feb_08_1505,CategoryLocalizer,2021.2.3,59.963973644305526,
98.0,98.8,3,0.75,Stimuli\ImageFiles-Set1\Faces\Face_00027.png,0,0,0,150,150,150,,,,,,,,,,,,,98.00381240000206,0.0038124000020616222,1,154.8190665000002,154.8190665000002,154.8190665000002,154.8190665000002,154.8190665000002,154.8190665000002,154.8190665000002,154.8190665000002,0.48161350000009406,001,P013,2025_Feb_08_1505,CategoryLocalizer,2021.2.3,59.963973644305526,
98.8,99.0,5,0.0,Stimuli\Blank.png,0,0,0,151,151,151,,,,,,,,,,,,,98.82079350000276,0.020793500002767473,None,155.61974049999844,155.61974049999844,155.61974049999844,155.61974049999844,155.61974049999844,155.61974049999844,155.61974049999844,155.61974049999844,,001,P013,2025_Feb_08_1505,CategoryLocalizer,2021.2.3,59.963973644305526,
99.0,99.8,3,0.75,Stimuli\ImageFiles-Set1\Faces\Face_00061.png,0,0,0,152,152,152,,,,,,,,,,,,,99.00365610000154,0.0036561000015353784,None,155.80321449999974,155.80321449999974,155.80321449999974,155.80321449999974,155.80321449999974,155.80321449999974,155.80321449999974,155.80321449999974,,001,P013,2025_Feb_08_1505,CategoryLocalizer,2021.2.3,59.963973644305526,
99.8,100.0,5,0.0,Stimuli\Blank.png,0,0,0,153,153,153,,,,,,,,,,,,,99.80514410000251,0.005144100002510754,None,156.60394520000045,156.60394520000045,156.60394520000045,156.60394520000045,156.60394520000045,156.60394520000045,156.60394520000045,156.60394520000045,,001,P013,2025_Feb_08_1505,CategoryLocalizer,2021.2.3,59.963973644305526,
100.0,100.8,3,0.75,Stimuli\ImageFiles-Set1\Faces\Face_00005.png,0,0,0,154,154,154,,,,,,,,,,,,,100.00502400000187,0.005024000001867535,None,156.8208541999993,156.8208541999993,156.8208541999993,156.8208541999993,156.8208541999993,156.8208541999993,156.8208541999993,156.8208541999993,,001,P013,2025_Feb_08_1505,CategoryLocalizer,2021.2.3,59.963973644305526,
100.8,101.0,5,0.0,Stimuli\Blank.png,0,0,0,155,155,155,,,,,,,,,,,,,100.82255950000035,0.022559500000355115,None,157.6215196000012,157.6215196000012,157.6215196000012,157.6215196000012,157.6215196000012,157.6215196000012,157.6215196000012,157.6215196000012,,001,P013,2025_Feb_08_1505,CategoryLocalizer,2021.2.3,59.963973644305526,
101.0,101.8,3,0.75,Stimuli\ImageFiles-Set1\Faces\Face_00081.png,0,0,0,156,156,156,,,,,,,,,,,,,101.0054037000009,0.0054037000008975156,None,157.80499920000148,157.80499920000148,157.80499920000148,157.80499920000148,157.80499920000148,157.80499920000148,157.80499920000148,157.80499920000148,,001,P013,2025_Feb_08_1505,CategoryLocalizer,2021.2.3,59.963973644305526,
101.8,102.0,5,0.0,Stimuli\Blank.png,0,0,0,157,157,157,,,,,,,,,,,,,101.80801799999972,0.008017999999722747,None,158.6223968000013,158.6223968000013,158.6223968000013,158.6223968000013,158.6223968000013,158.6223968000013,158.6223968000013,158.6223968000013,,001,P013,2025_Feb_08_1505,CategoryLocalizer,2021.2.3,59.963973644305526,
102.0,102.8,3,0.75,Stimuli\ImageFiles-Set1\Faces\Face_00113.png,0,0,0,158,158,158,,,,,,,,,,,,,102.02367500000037,0.023675000000366708,None,158.83929709999938,158.83929709999938,158.83929709999938,158.83929709999938,158.83929709999938,158.83929709999938,158.83929709999938,158.83929709999938,,001,P013,2025_Feb_08_1505,CategoryLocalizer,2021.2.3,59.963973644305526,
102.8,103.0,5,0.0,Stimuli\Blank.png,0,0,0,159,159,159,,,,,,,,,,,,,102.82415610000317,0.024156100003168035,None,159.6232764999986,159.6232764999986,159.6232764999986,159.6232764999986,159.6232764999986,159.6232764999986,159.6232764999986,159.6232764999986,,001,P013,2025_Feb_08_1505,CategoryLocalizer,2021.2.3,59.963973644305526,
103.0,103.8,3,0.75,Stimuli\ImageFiles-Set1\Faces\Face_00057.png,0,0,0,160,160,160,,,,,,,,,,,,,103.0080584999996,0.008058499999606283,None,159.80678540000008,159.80678540000008,159.80678540000008,159.80678540000008,159.80678540000008,159.80678540000008,159.80678540000008,159.80678540000008,,001,P013,2025_Feb_08_1505,CategoryLocalizer,2021.2.3,59.963973644305526,
103.8,104.0,5,0.0,Stimuli\Blank.png,0,0,0,161,161,161,,,,,,,,,,,,,103.80944870000167,0.009448700001669863,None,160.60748869999952,160.60748869999952,160.60748869999952,160.60748869999952,160.60748869999952,160.60748869999952,160.60748869999952,160.60748869999952,,001,P013,2025_Feb_08_1505,CategoryLocalizer,2021.2.3,59.963973644305526,
104.0,104.8,1,0.75,Stimuli\ImageFiles-Set1\Objects\Object_ComputerMouse_00001.png,0,0,0,162,162,162,,,,,,,,,,,,,104.00798410000061,0.00798410000061267,None,160.80765769999925,160.80765769999925,160.80765769999925,160.80765769999925,160.80765769999925,160.80765769999925,160.80765769999925,160.80765769999925,,001,P013,2025_Feb_08_1505,CategoryLocalizer,2021.2.3,59.963973644305526,
104.8,105.0,5,0.0,Stimuli\Blank.png,0,0,0,163,163,163,,,,,,,,,,,,,104.80949959999998,0.009499599999983843,None,161.60837670000183,161.60837670000183,161.60837670000183,161.60837670000183,161.60837670000183,161.60837670000183,161.60837670000183,161.60837670000183,,001,P013,2025_Feb_08_1505,CategoryLocalizer,2021.2.3,59.963973644305526,
105.0,105.8,1,0.75,Stimuli\ImageFiles-Set1\Objects\Object_Matches_00001.png,0,0,0,164,164,164,,,,,,,,,,,,,105.00965859999997,0.0096585999999661,None,161.8252519000016,161.8252519000016,161.8252519000016,161.8252519000016,161.8252519000016,161.8252519000016,161.8252519000016,161.8252519000016,,001,P013,2025_Feb_08_1505,CategoryLocalizer,2021.2.3,59.963973644305526,
105.8,106.0,5,0.0,Stimuli\Blank.png,0,0,0,165,165,165,,,,,,,,,,,,,105.82829950000087,0.02829950000086967,None,162.64262470000176,162.64262470000176,162.64262470000176,162.64262470000176,162.64262470000176,162.64262470000176,162.64262470000176,162.64262470000176,,001,P013,2025_Feb_08_1505,CategoryLocalizer,2021.2.3,59.963973644305526,
106.0,106.8,1,0.75,Stimuli\ImageFiles-Set1\Objects\Object_Matches_00001.png,1,1,0,166,166,166,,,,,,,,,,,,,106.02712750000137,0.02712750000137021,1,162.82612380000137,162.82612380000137,162.82612380000137,162.82612380000137,162.82612380000137,162.82612380000137,162.82612380000137,162.82612380000137,0.45068430000173976,001,P013,2025_Feb_08_1505,CategoryLocalizer,2021.2.3,59.963973644305526,
106.8,107.0,5,0.0,Stimuli\Blank.png,0,0,0,167,167,167,,,,,,,,,,,,,106.81326130000161,0.013261300001616405,None,163.62684060000174,163.62684060000174,163.62684060000174,163.62684060000174,163.62684060000174,163.62684060000174,163.62684060000174,163.62684060000174,,001,P013,2025_Feb_08_1505,CategoryLocalizer,2021.2.3,59.963973644305526,
107.0,107.8,1,0.75,Stimuli\ImageFiles-Set1\Objects\Object_FileFolder_00001.png,0,0,0,168,168,168,,,,,,,,,,,,,107.02884919999997,0.028849199999967823,None,163.84368399999948,163.84368399999948,163.84368399999948,163.84368399999948,163.84368399999948,163.84368399999948,163.84368399999948,163.84368399999948,,001,P013,2025_Feb_08_1505,CategoryLocalizer,2021.2.3,59.963973644305526,
107.8,108.0,5,0.0,Stimuli\Blank.png,0,0,0,169,169,169,,,,,,,,,,,,,107.82894800000213,0.02894800000213138,None,164.6277000000009,164.6277000000009,164.6277000000009,164.6277000000009,164.6277000000009,164.6277000000009,164.6277000000009,164.6277000000009,,001,P013,2025_Feb_08_1505,CategoryLocalizer,2021.2.3,59.963973644305526,
108.0,108.8,1,0.75,Stimuli\ImageFiles-Set1\Objects\Object_IroningBoard_00001.png,0,0,0,170,170,170,,,,,,,,,,,,,108.0125113000031,0.012511300003097858,None,164.81120419999934,164.81120419999934,164.81120419999934,164.81120419999934,164.81120419999934,164.81120419999934,164.81120419999934,164.81120419999934,,001,P013,2025_Feb_08_1505,CategoryLocalizer,2021.2.3,59.963973644305526,
108.8,109.0,5,0.0,Stimuli\Blank.png,0,0,0,171,171,171,,,,,,,,,,,,,108.8129697000004,0.01296970000039721,None,165.6119174000014,165.6119174000014,165.6119174000014,165.6119174000014,165.6119174000014,165.6119174000014,165.6119174000014,165.6119174000014,,001,P013,2025_Feb_08_1505,CategoryLocalizer,2021.2.3,59.963973644305526,
109.0,109.8,1,0.75,Stimuli\ImageFiles-Set1\Objects\Object_Bottle_00001.png,0,0,0,172,172,172,,,,,,,,,,,,,109.01397510000243,0.013975100002426188,None,165.81208759999936,165.81208759999936,165.81208759999936,165.81208759999936,165.81208759999936,165.81208759999936,165.81208759999936,165.81208759999936,,001,P013,2025_Feb_08_1505,CategoryLocalizer,2021.2.3,59.963973644305526,
109.8,110.0,5,0.0,Stimuli\Blank.png,0,0,0,173,173,173,,,,,,,,,,,,,109.8140913999996,0.014091399999600185,None,166.61280400000032,166.61280400000032,166.61280400000032,166.61280400000032,166.61280400000032,166.61280400000032,166.61280400000032,166.61280400000032,,001,P013,2025_Feb_08_1505,CategoryLocalizer,2021.2.3,59.963973644305526,
110.0,110.8,1,0.75,Stimuli\ImageFiles-Set1\Objects\Object_Box_00001.png,0,0,0,174,174,174,,,,,,,,,,,,,110.0139092999998,0.013909299999795621,None,166.81296640000073,166.81296640000073,166.81296640000073,166.81296640000073,166.81296640000073,166.81296640000073,166.81296640000073,166.81296640000073,,001,P013,2025_Feb_08_1505,CategoryLocalizer,2021.2.3,59.963973644305526,
110.8,111.0,5,0.0,Stimuli\Blank.png,0,0,0,175,175,175,,,,,,,,,,,,,110.81471249999959,0.014712499999589568,None,167.61368330000187,167.61368330000187,167.61368330000187,167.61368330000187,167.61368330000187,167.61368330000187,167.61368330000187,167.61368330000187,,001,P013,2025_Feb_08_1505,CategoryLocalizer,2021.2.3,59.963973644305526,
111.0,111.8,1,0.75,Stimuli\ImageFiles-Set1\Objects\Object_Airplane_00001.png,0,0,0,176,176,176,,,,,,,,,,,,,111.01479880000261,0.014798800002608914,None,167.81385600000067,167.81385600000067,167.81385600000067,167.81385600000067,167.81385600000067,167.81385600000067,167.81385600000067,167.81385600000067,,001,P013,2025_Feb_08_1505,CategoryLocalizer,2021.2.3,59.963973644305526,
111.8,112.0,5,0.0,Stimuli\Blank.png,0,0,0,177,177,177,,,,,,,,,,,,,111.81565930000215,0.015659300002155874,None,168.61458700000003,168.61458700000003,168.61458700000003,168.61458700000003,168.61458700000003,168.61458700000003,168.61458700000003,168.61458700000003,,001,P013,2025_Feb_08_1505,CategoryLocalizer,2021.2.3,59.963973644305526,
112.0,112.8,1,0.75,Stimuli\ImageFiles-Set1\Objects\Object_Stool_00001.png,1,1,0,178,178,178,,,,,,,,,,,,,111.99915529999998,-0.0008447000000160187,None,168.81471640000018,168.81471640000018,168.81471640000018,168.81471640000018,168.81471640000018,168.81471640000018,168.81471640000018,168.81471640000018,,001,P013,2025_Feb_08_1505,CategoryLocalizer,2021.2.3,59.963973644305526,
112.8,113.0,5,0.0,Stimuli\Blank.png,0,0,0,179,179,179,,,,,,,,,,,,,112.81674639999983,0.01674639999983185,None,169.61547670000073,169.61547670000073,169.61547670000073,169.61547670000073,169.61547670000073,169.61547670000073,169.61547670000073,169.61547670000073,,001,P013,2025_Feb_08_1505,CategoryLocalizer,2021.2.3,59.963973644305526,
113.0,113.8,1,0.75,Stimuli\ImageFiles-Set1\Objects\Object_Apple_00001.png,0,0,0,180,180,180,,,,,,,,,,,,,112.99965910000174,-0.0003408999982639216,None,169.79894169999898,169.79894169999898,169.79894169999898,169.79894169999898,169.79894169999898,169.79894169999898,169.79894169999898,169.79894169999898,,001,P013,2025_Feb_08_1505,CategoryLocalizer,2021.2.3,59.963973644305526,
113.8,114.0,5,0.0,Stimuli\Blank.png,0,0,0,181,181,181,,,,,,,,,,,,,113.80062840000028,0.0006284000002807488,None,170.59967270000197,170.59967270000197,170.59967270000197,170.59967270000197,170.59967270000197,170.59967270000197,170.59967270000197,170.59967270000197,,001,P013,2025_Feb_08_1505,CategoryLocalizer,2021.2.3,59.963973644305526,
114.0,114.8,1,0.75,Stimuli\ImageFiles-Set1\Objects\Object_Apple_00001.png,0,0,0,182,182,182,,,,,,,,,,,,,114.0004622000015,0.0004622000014933292,1,170.79979730000196,170.79979730000196,170.79979730000196,170.79979730000196,170.79979730000196,170.79979730000196,170.79979730000196,170.79979730000196,0.46492310000030557,001,P013,2025_Feb_08_1505,CategoryLocalizer,2021.2.3,59.963973644305526,
114.8,115.0,5,0.0,Stimuli\Blank.png,0,0,0,183,183,183,,,,,,,,,,,,,114.8034348000001,0.0034348000001074297,None,171.61722989999907,171.61722989999907,171.61722989999907,171.61722989999907,171.61722989999907,171.61722989999907,171.61722989999907,171.61722989999907,,001,P013,2025_Feb_08_1505,CategoryLocalizer,2021.2.3,59.963973644305526,
115.0,115.8,1,0.75,Stimuli\ImageFiles-Set1\Objects\Object_Boat_00001.png,0,0,0,184,184,184,,,,,,,,,,,,,115.018861200002,0.018861200001992984,None,171.83408509999936,171.83408509999936,171.83408509999936,171.83408509999936,171.83408509999936,171.83408509999936,171.83408509999936,171.83408509999936,,001,P013,2025_Feb_08_1505,CategoryLocalizer,2021.2.3,59.963973644305526,
115.8,116.0,5,0.0,Stimuli\Blank.png,0,0,0,185,185,185,,,,,,,,,,,,,115.82034840000051,0.020348400000514744,None,172.6181288000007,172.6181288000007,172.6181288000007,172.6181288000007,172.6181288000007,172.6181288000007,172.6181288000007,172.6181288000007,,001,P013,2025_Feb_08_1505,CategoryLocalizer,2021.2.3,59.963973644305526,
116.0,116.8,1,0.75,Stimuli\ImageFiles-Set1\Objects\Object_Lamp_00001.png,0,0,0,186,186,186,,,,,,,,,,,,,116.00285860000076,0.002858600000763545,None,172.80160690000048,172.80160690000048,172.80160690000048,172.80160690000048,172.80160690000048,172.80160690000048,172.80160690000048,172.80160690000048,,001,P013,2025_Feb_08_1505,CategoryLocalizer,2021.2.3,59.963973644305526,
116.8,117.0,5,0.0,Stimuli\Blank.png,0,0,0,187,187,187,,,,,,,,,,,,,116.80302970000048,0.003029700000482194,None,173.6023114999989,173.6023114999989,173.6023114999989,173.6023114999989,173.6023114999989,173.6023114999989,173.6023114999989,173.6023114999989,,001,P013,2025_Feb_08_1505,CategoryLocalizer,2021.2.3,59.963973644305526,
117.0,117.8,1,0.75,Stimuli\ImageFiles-Set1\Objects\Object_Bed_00001.png,0,0,0,188,188,188,,,,,,,,,,,,,117.00298320000002,0.00298320000001695,None,173.80248850000135,173.80248850000135,173.80248850000135,173.80248850000135,173.80248850000135,173.80248850000135,173.80248850000135,173.80248850000135,,001,P013,2025_Feb_08_1505,CategoryLocalizer,2021.2.3,59.963973644305526,
117.8,118.0,5,0.0,Stimuli\Blank.png,0,0,0,189,189,189,,,,,,,,,,,,,117.80383000000074,0.003830000000746736,None,174.60321390000172,174.60321390000172,174.60321390000172,174.60321390000172,174.60321390000172,174.60321390000172,174.60321390000172,174.60321390000172,,001,P013,2025_Feb_08_1505,CategoryLocalizer,2021.2.3,59.963973644305526,
118.0,118.8,1,0.75,Stimuli\ImageFiles-Set1\Objects\Object_Scale_00001.png,0,0,0,190,190,190,,,,,,,,,,,,,118.00425620000169,0.004256200001691468,None,174.8033800000012,174.8033800000012,174.8033800000012,174.8033800000012,174.8033800000012,174.8033800000012,174.8033800000012,174.8033800000012,,001,P013,2025_Feb_08_1505,CategoryLocalizer,2021.2.3,59.963973644305526,
118.8,119.0,5,0.0,Stimuli\Blank.png,0,0,0,191,191,191,,,,,,,,,,,,,118.80448679999972,0.004486799999725122,None,175.60408010000174,175.60408010000174,175.60408010000174,175.60408010000174,175.60408010000174,175.60408010000174,175.60408010000174,175.60408010000174,,001,P013,2025_Feb_08_1505,CategoryLocalizer,2021.2.3,59.963973644305526,
119.0,119.8,1,0.75,Stimuli\ImageFiles-Set1\Objects\Object_Gun_00001.png,0,0,0,192,192,192,,,,,,,,,,,,,119.00574400000187,0.005744000001868699,None,175.80434719999903,175.80434719999903,175.80434719999903,175.80434719999903,175.80434719999903,175.80434719999903,175.80434719999903,175.80434719999903,,001,P013,2025_Feb_08_1505,CategoryLocalizer,2021.2.3,59.963973644305526,
119.8,120.0,5,0.0,Stimuli\Blank.png,0,0,0,193,193,193,,,,,,,,,,,,,119.80574490000072,0.005744900000721032,None,176.60496989999956,176.60496989999956,176.60496989999956,176.60496989999956,176.60496989999956,176.60496989999956,176.60496989999956,176.60496989999956,,001,P013,2025_Feb_08_1505,CategoryLocalizer,2021.2.3,59.963973644305526,
120.0,120.8,4,0.75,Stimuli\ImageFiles-Set1\Scenes\Scenes_054.png,0,0,0,194,194,194,,,,,,,,,,,,,120.00606619999962,0.006066199999622768,None,176.80512440000166,176.80512440000166,176.80512440000166,176.80512440000166,176.80512440000166,176.80512440000166,176.80512440000166,176.80512440000166,,001,P013,2025_Feb_08_1505,CategoryLocalizer,2021.2.3,59.963973644305526,
120.8,121.0,5,0.0,Stimuli\Blank.png,0,0,0,195,195,195,,,,,,,,,,,,,120.80820810000296,0.00820810000296035,None,177.62253150000106,177.62253150000106,177.62253150000106,177.62253150000106,177.62253150000106,177.62253150000106,177.62253150000106,177.62253150000106,,001,P013,2025_Feb_08_1505,CategoryLocalizer,2021.2.3,59.963973644305526,
121.0,121.8,4,0.75,Stimuli\ImageFiles-Set1\Scenes\Scenes_031.png,0,0,0,196,196,196,,,,,,,,,,,,,121.02385690000301,0.023856900003011106,None,177.84017870000025,177.84017870000025,177.84017870000025,177.84017870000025,177.84017870000025,177.84017870000025,177.84017870000025,177.84017870000025,,001,P013,2025_Feb_08_1505,CategoryLocalizer,2021.2.3,59.963973644305526,
121.8,122.0,5,0.0,Stimuli\Blank.png,0,0,0,197,197,197,,,,,,,,,,,,,121.82454470000084,0.02454470000084541,None,178.62341749999905,178.62341749999905,178.62341749999905,178.62341749999905,178.62341749999905,178.62341749999905,178.62341749999905,178.62341749999905,,001,P013,2025_Feb_08_1505,CategoryLocalizer,2021.2.3,59.963973644305526,
122.0,122.8,4,0.75,Stimuli\ImageFiles-Set1\Scenes\Scenes_028.png,0,0,0,198,198,198,,,,,,,,,,,,,122.0075211000003,0.007521100000303704,None,178.8069155000012,178.8069155000012,178.8069155000012,178.8069155000012,178.8069155000012,178.8069155000012,178.8069155000012,178.8069155000012,,001,P013,2025_Feb_08_1505,CategoryLocalizer,2021.2.3,59.963973644305526,
122.8,123.0,5,0.0,Stimuli\Blank.png,0,0,0,199,199,199,,,,,,,,,,,,,122.80862360000174,0.008623600001740783,None,179.60762370000157,179.60762370000157,179.60762370000157,179.60762370000157,179.60762370000157,179.60762370000157,179.60762370000157,179.60762370000157,,001,P013,2025_Feb_08_1505,CategoryLocalizer,2021.2.3,59.963973644305526,
123.0,123.8,4,0.75,Stimuli\ImageFiles-Set1\Scenes\Scenes_004.png,0,0,0,200,200,200,,,,,,,,,,,,,123.00885990000097,0.00885990000097081,None,179.8244835000005,179.8244835000005,179.8244835000005,179.8244835000005,179.8244835000005,179.8244835000005,179.8244835000005,179.8244835000005,,001,P013,2025_Feb_08_1505,CategoryLocalizer,2021.2.3,59.963973644305526,
123.8,124.0,5,0.0,Stimuli\Blank.png,0,0,0,201,201,201,,,,,,,,,,,,,123.82831090000036,0.028310900000363404,None,180.6418776999999,180.6418776999999,180.6418776999999,180.6418776999999,180.6418776999999,180.6418776999999,180.6418776999999,180.6418776999999,,001,P013,2025_Feb_08_1505,CategoryLocalizer,2021.2.3,59.963973644305526,
124.0,124.8,4,0.75,Stimuli\ImageFiles-Set1\Scenes\Scenes_004.png,1,1,0,202,202,202,,,,,,,,,,,,,124.02666959999988,0.02666959999987739,1,180.8420675999987,180.8420675999987,180.8420675999987,180.8420675999987,180.8420675999987,180.8420675999987,180.8420675999987,180.8420675999987,0.3608158999995794,001,P013,2025_Feb_08_1505,CategoryLocalizer,2021.2.3,59.963973644305526,
124.8,125.0,5,0.0,Stimuli\Blank.png,0,0,0,203,203,203,,,,,,,,,,,,,124.82746039999984,0.02746039999983907,None,181.62608190000174,181.62608190000174,181.62608190000174,181.62608190000174,181.62608190000174,181.62608190000174,181.62608190000174,181.62608190000174,,001,P013,2025_Feb_08_1505,CategoryLocalizer,2021.2.3,59.963973644305526,
125.0,125.8,4,0.75,Stimuli\ImageFiles-Set1\Scenes\Scenes_012.png,0,0,0,204,204,204,,,,,,,,,,,,,125.01000610000119,0.010006100001191953,None,181.80956589999914,181.80956589999914,181.80956589999914,181.80956589999914,181.80956589999914,181.80956589999914,181.80956589999914,181.80956589999914,,001,P013,2025_Feb_08_1505,CategoryLocalizer,2021.2.3,59.963973644305526,
125.8,126.0,5,0.0,Stimuli\Blank.png,0,0,0,205,205,205,,,,,,,,,,,,,125.81069250000292,0.010692500002917882,None,182.6102839999985,182.6102839999985,182.6102839999985,182.6102839999985,182.6102839999985,182.6102839999985,182.6102839999985,182.6102839999985,,001,P013,2025_Feb_08_1505,CategoryLocalizer,2021.2.3,59.963973644305526,
126.0,126.8,4,0.75,Stimuli\ImageFiles-Set1\Scenes\Scenes_006.png,0,0,0,206,206,206,,,,,,,,,,,,,126.01144520000162,0.011445200001617195,None,182.81045449999874,182.81045449999874,182.81045449999874,182.81045449999874,182.81045449999874,182.81045449999874,182.81045449999874,182.81045449999874,,001,P013,2025_Feb_08_1505,CategoryLocalizer,2021.2.3,59.963973644305526,
126.8,127.0,5,0.0,Stimuli\Blank.png,0,0,0,207,207,207,,,,,,,,,,,,,126.81291670000064,0.01291670000064471,None,183.6111764999987,183.6111764999987,183.6111764999987,183.6111764999987,183.6111764999987,183.6111764999987,183.6111764999987,183.6111764999987,,001,P013,2025_Feb_08_1505,CategoryLocalizer,2021.2.3,59.963973644305526,
127.0,127.8,4,0.75,Stimuli\ImageFiles-Set1\Scenes\Scenes_059.png,0,0,0,208,208,208,,,,,,,,,,,,,127.01260850000108,0.012608500001078937,None,183.82802190000075,183.82802190000075,183.82802190000075,183.82802190000075,183.82802190000075,183.82802190000075,183.82802190000075,183.82802190000075,,001,P013,2025_Feb_08_1505,CategoryLocalizer,2021.2.3,59.963973644305526,
127.8,128.0,5,0.0,Stimuli\Blank.png,0,0,0,209,209,209,,,,,,,,,,,,,127.82929420000073,0.02929420000073435,None,184.62873000000036,184.62873000000036,184.62873000000036,184.62873000000036,184.62873000000036,184.62873000000036,184.62873000000036,184.62873000000036,,001,P013,2025_Feb_08_1505,CategoryLocalizer,2021.2.3,59.963973644305526,
128.0,128.8,4,0.75,Stimuli\ImageFiles-Set1\Scenes\Scenes_052.png,0,0,0,210,210,210,,,,,,,,,,,,,128.01272299999982,0.012722999999823514,None,184.81222310000157,184.81222310000157,184.81222310000157,184.81222310000157,184.81222310000157,184.81222310000157,184.81222310000157,184.81222310000157,,001,P013,2025_Feb_08_1505,CategoryLocalizer,2021.2.3,59.963973644305526,
128.8,129.0,5,0.0,Stimuli\Blank.png,0,0,0,211,211,211,,,,,,,,,,,,,128.8150310000019,0.01503100000189761,None,185.61294690000068,185.61294690000068,185.61294690000068,185.61294690000068,185.61294690000068,185.61294690000068,185.61294690000068,185.61294690000068,,001,P013,2025_Feb_08_1505,CategoryLocalizer,2021.2.3,59.963973644305526,
129.0,129.8,4,0.75,Stimuli\ImageFiles-Set1\Scenes\Scenes_029.png,0,0,0,212,212,212,,,,,,,,,,,,,129.01466790000268,0.014667900002677925,None,185.82983299999978,185.82983299999978,185.82983299999978,185.82983299999978,185.82983299999978,185.82983299999978,185.82983299999978,185.82983299999978,,001,P013,2025_Feb_08_1505,CategoryLocalizer,2021.2.3,59.963973644305526,
129.8,130.0,5,0.0,Stimuli\Blank.png,0,0,0,213,213,213,,,,,,,,,,,,,129.8315954000027,0.03159540000268635,None,186.630522200001,186.630522200001,186.630522200001,186.630522200001,186.630522200001,186.630522200001,186.630522200001,186.630522200001,,001,P013,2025_Feb_08_1505,CategoryLocalizer,2021.2.3,59.963973644305526,
130.0,130.8,4,0.75,Stimuli\ImageFiles-Set1\Scenes\Scenes_038.png,1,1,0,214,214,214,,,,,,,,,,,,,130.01466380000056,0.014663800000562333,None,186.8140033999989,186.8140033999989,186.8140033999989,186.8140033999989,186.8140033999989,186.8140033999989,186.8140033999989,186.8140033999989,,001,P013,2025_Feb_08_1505,CategoryLocalizer,2021.2.3,59.963973644305526,
130.8,131.0,5,0.0,Stimuli\Blank.png,0,0,0,215,215,215,,,,,,,,,,,,,130.815228200001,0.015228200000990455,None,187.6147106999997,187.6147106999997,187.6147106999997,187.6147106999997,187.6147106999997,187.6147106999997,187.6147106999997,187.6147106999997,,001,P013,2025_Feb_08_1505,CategoryLocalizer,2021.2.3,59.963973644305526,
131.0,131.8,4,0.75,Stimuli\ImageFiles-Set1\Scenes\Scenes_003.png,0,0,0,216,216,216,,,,,,,,,,,,,131.0165691000002,0.016569100000197068,None,187.83218489999854,187.83218489999854,187.83218489999854,187.83218489999854,187.83218489999854,187.83218489999854,187.83218489999854,187.83218489999854,,001,P013,2025_Feb_08_1505,CategoryLocalizer,2021.2.3,59.963973644305526,
131.8,132.0,5,0.0,Stimuli\Blank.png,0,0,0,217,217,217,,,,,,,,,,,,,131.81815389999974,0.018153899999731493,None,188.63229249999858,188.63229249999858,188.63229249999858,188.63229249999858,188.63229249999858,188.63229249999858,188.63229249999858,188.63229249999858,,001,P013,2025_Feb_08_1505,CategoryLocalizer,2021.2.3,59.963973644305526,
132.0,132.8,4,0.75,Stimuli\ImageFiles-Set1\Scenes\Scenes_003.png,0,0,0,218,218,218,,,,,,,,,,,,,132.01725250000163,0.017252500001632143,1,188.81577190000098,188.81577190000098,188.81577190000098,188.81577190000098,188.81577190000098,188.81577190000098,188.81577190000098,188.81577190000098,0.5251199999984237,001,P013,2025_Feb_08_1505,CategoryLocalizer,2021.2.3,59.963973644305526,
132.8,133.0,5,0.0,Stimuli\Blank.png,0,0,0,219,219,219,,,,,,,,,,,,,132.80046960000254,0.00046960000253193357,None,189.59979260000182,189.59979260000182,189.59979260000182,189.59979260000182,189.59979260000182,189.59979260000182,189.59979260000182,189.59979260000182,,001,P013,2025_Feb_08_1505,CategoryLocalizer,2021.2.3,59.963973644305526,
133.0,133.8,4,0.75,Stimuli\ImageFiles-Set1\Scenes\Scenes_035.png,0,0,0,220,220,220,,,,,,,,,,,,,133.00082509999993,0.0008250999999290798,None,189.81667469999957,189.81667469999957,189.81667469999957,189.81667469999957,189.81667469999957,189.81667469999957,189.81667469999957,189.81667469999957,,001,P013,2025_Feb_08_1505,CategoryLocalizer,2021.2.3,59.963973644305526,
133.8,134.0,5,0.0,Stimuli\Blank.png,0,0,0,221,221,221,,,,,,,,,,,,,133.8178818000015,0.017881800001475767,None,190.61736240000027,190.61736240000027,190.61736240000027,190.61736240000027,190.61736240000027,190.61736240000027,190.61736240000027,190.61736240000027,,001,P013,2025_Feb_08_1505,CategoryLocalizer,2021.2.3,59.963973644305526,
134.0,134.8,4,0.75,Stimuli\ImageFiles-Set1\Scenes\Scenes_042.png,0,0,0,222,222,222,,,,,,,,,,,,,134.00150070000018,0.0015007000001787674,None,190.8008652999997,190.8008652999997,190.8008652999997,190.8008652999997,190.8008652999997,190.8008652999997,190.8008652999997,190.8008652999997,,001,P013,2025_Feb_08_1505,CategoryLocalizer,2021.2.3,59.963973644305526,
134.8,135.0,5,0.0,Stimuli\Blank.png,0,0,0,223,223,223,,,,,,,,,,,,,134.8033862000011,0.0033862000011026794,None,191.60159529999873,191.60159529999873,191.60159529999873,191.60159529999873,191.60159529999873,191.60159529999873,191.60159529999873,191.60159529999873,,001,P013,2025_Feb_08_1505,CategoryLocalizer,2021.2.3,59.963973644305526,
135.0,135.8,4,0.75,Stimuli\ImageFiles-Set1\Scenes\Scenes_044.png,0,0,0,224,224,224,,,,,,,,,,,,,135.00285630000144,0.002856300001440104,None,191.8184246000019,191.8184246000019,191.8184246000019,191.8184246000019,191.8184246000019,191.8184246000019,191.8184246000019,191.8184246000019,,001,P013,2025_Feb_08_1505,CategoryLocalizer,2021.2.3,59.963973644305526,
135.8,136.0,5,0.0,Stimuli\Blank.png,0,0,0,225,225,225,,,,,,,,,,,,,135.81957890000194,0.019578900001931743,None,192.61913300000015,192.61913300000015,192.61913300000015,192.61913300000015,192.61913300000015,192.61913300000015,192.61913300000015,192.61913300000015,,001,P013,2025_Feb_08_1505,CategoryLocalizer,2021.2.3,59.963973644305526,
136.0,136.8,2,0.75,Stimuli\ImageFiles-Set1\Bodies\Bodies_Waving_00007.png,0,0,0,226,226,226,,,,,,,,,,,,,136.00367110000298,0.003671100002975436,None,192.80263969999942,192.80263969999942,192.80263969999942,192.80263969999942,192.80263969999942,192.80263969999942,192.80263969999942,192.80263969999942,,001,P013,2025_Feb_08_1505,CategoryLocalizer,2021.2.3,59.963973644305526,
136.8,137.0,5,0.0,Stimuli\Blank.png,0,0,0,227,227,227,,,,,,,,,,,,,136.80378940000082,0.003789400000812293,None,193.60333449999962,193.60333449999962,193.60333449999962,193.60333449999962,193.60333449999962,193.60333449999962,193.60333449999962,193.60333449999962,,001,P013,2025_Feb_08_1505,CategoryLocalizer,2021.2.3,59.963973644305526,
137.0,137.8,2,0.75,Stimuli\ImageFiles-Set1\Bodies\Bodies_DownwardDog_00003.png,0,0,0,228,228,228,,,,,,,,,,,,,137.00434280000263,0.00434280000263243,None,193.80352109999876,193.80352109999876,193.80352109999876,193.80352109999876,193.80352109999876,193.80352109999876,193.80352109999876,193.80352109999876,,001,P013,2025_Feb_08_1505,CategoryLocalizer,2021.2.3,59.963973644305526,
137.8,138.0,5,0.0,Stimuli\Blank.png,0,0,0,229,229,229,,,,,,,,,,,,,137.80536230000143,0.005362300001422682,None,194.60424290000083,194.60424290000083,194.60424290000083,194.60424290000083,194.60424290000083,194.60424290000083,194.60424290000083,194.60424290000083,,001,P013,2025_Feb_08_1505,CategoryLocalizer,2021.2.3,59.963973644305526,
138.0,138.8,2,0.75,Stimuli\ImageFiles-Set1\Bodies\Bodies_SittingFloor_00003.png,0,0,0,230,230,230,,,,,,,,,,,,,138.00480130000142,0.004801300001417985,None,194.80438760000106,194.80438760000106,194.80438760000106,194.80438760000106,194.80438760000106,194.80438760000106,194.80438760000106,194.80438760000106,,001,P013,2025_Feb_08_1505,CategoryLocalizer,2021.2.3,59.963973644305526,
138.8,139.0,5,0.0,Stimuli\Blank.png,0,0,0,231,231,231,,,,,,,,,,,,,138.80551300000297,0.0055130000029635085,None,195.60510860000068,195.60510860000068,195.60510860000068,195.60510860000068,195.60510860000068,195.60510860000068,195.60510860000068,195.60510860000068,,001,P013,2025_Feb_08_1505,CategoryLocalizer,2021.2.3,59.963973644305526,
139.0,139.8,2,0.75,Stimuli\ImageFiles-Set1\Bodies\Bodies_DownwardDog_00006.png,0,0,0,232,232,232,,,,,,,,,,,,,139.00579720000314,0.0057972000031440984,None,195.8053843000016,195.8053843000016,195.8053843000016,195.8053843000016,195.8053843000016,195.8053843000016,195.8053843000016,195.8053843000016,,001,P013,2025_Feb_08_1505,CategoryLocalizer,2021.2.3,59.963973644305526,
139.8,140.0,5,0.0,Stimuli\Blank.png,0,0,0,233,233,233,,,,,,,,,,,,,139.80926300000283,0.00926300000281799,None,196.6239472999987,196.6239472999987,196.6239472999987,196.6239472999987,196.6239472999987,196.6239472999987,196.6239472999987,196.6239472999987,,001,P013,2025_Feb_08_1505,CategoryLocalizer,2021.2.3,59.963973644305526,
140.0,140.8,2,0.75,Stimuli\ImageFiles-Set1\Bodies\Bodies_CobraPose_00005.png,0,0,0,234,234,234,,,,,,,,,,,,,140.0234178999999,0.02341789999991306,None,196.822863100002,196.822863100002,196.822863100002,196.822863100002,196.822863100002,196.822863100002,196.822863100002,196.822863100002,,001,P013,2025_Feb_08_1505,CategoryLocalizer,2021.2.3,59.963973644305526,
140.8,141.0,5,0.0,Stimuli\Blank.png,0,0,0,235,235,235,,,,,,,,,,,,,140.8082291000028,0.008229100002779433,None,197.6068899999991,197.6068899999991,197.6068899999991,197.6068899999991,197.6068899999991,197.6068899999991,197.6068899999991,197.6068899999991,,001,P013,2025_Feb_08_1505,CategoryLocalizer,2021.2.3,59.963973644305526,
141.0,141.8,2,0.75,Stimuli\ImageFiles-Set1\Bodies\Bodies_Pushing_00005.png,0,0,0,236,236,236,,,,,,,,,,,,,141.00812810000207,0.008128100002068095,None,197.80706070000087,197.80706070000087,197.80706070000087,197.80706070000087,197.80706070000087,197.80706070000087,197.80706070000087,197.80706070000087,,001,P013,2025_Feb_08_1505,CategoryLocalizer,2021.2.3,59.963973644305526,
141.8,142.0,5,0.0,Stimuli\Blank.png,0,0,0,237,237,237,,,,,,,,,,,,,141.80875260000175,0.00875260000174194,None,198.60777379999854,198.60777379999854,198.60777379999854,198.60777379999854,198.60777379999854,198.60777379999854,198.60777379999854,198.60777379999854,,001,P013,2025_Feb_08_1505,CategoryLocalizer,2021.2.3,59.963973644305526,
142.0,142.8,2,0.75,Stimuli\ImageFiles-Set1\Bodies\Bodies_Kicking_00003.png,0,0,0,238,238,238,,,,,,,,,,,,,142.00861760000043,0.008617600000434322,None,198.80794969999988,198.80794969999988,198.80794969999988,198.80794969999988,198.80794969999988,198.80794969999988,198.80794969999988,198.80794969999988,,001,P013,2025_Feb_08_1505,CategoryLocalizer,2021.2.3,59.963973644305526,
142.8,143.0,5,0.0,Stimuli\Blank.png,0,0,0,239,239,239,,,,,,,,,,,,,142.80977820000044,0.00977820000042584,None,199.60865860000195,199.60865860000195,199.60865860000195,199.60865860000195,199.60865860000195,199.60865860000195,199.60865860000195,199.60865860000195,,001,P013,2025_Feb_08_1505,CategoryLocalizer,2021.2.3,59.963973644305526,
143.0,143.8,2,0.75,Stimuli\ImageFiles-Set1\Bodies\Bodies_PushUp_00002.png,0,0,0,240,240,240,,,,,,,,,,,,,143.00930860000153,0.009308600001531886,None,199.8255590000008,199.8255590000008,199.8255590000008,199.8255590000008,199.8255590000008,199.8255590000008,199.8255590000008,199.8255590000008,,001,P013,2025_Feb_08_1505,CategoryLocalizer,2021.2.3,59.963973644305526,
143.8,144.0,5,0.0,Stimuli\Blank.png,0,0,0,241,241,241,,,,,,,,,,,,,143.82937120000133,0.02937120000132154,None,200.64291159999993,200.64291159999993,200.64291159999993,200.64291159999993,200.64291159999993,200.64291159999993,200.64291159999993,200.64291159999993,,001,P013,2025_Feb_08_1505,CategoryLocalizer,2021.2.3,59.963973644305526,
144.0,144.8,2,0.75,Stimuli\ImageFiles-Set1\Bodies\Bodies_Hanging_00002.png,0,0,0,242,242,242,,,,,,,,,,,,,144.02773810000144,0.027738100001442945,None,200.82640449999963,200.82640449999963,200.82640449999963,200.82640449999963,200.82640449999963,200.82640449999963,200.82640449999963,200.82640449999963,,001,P013,2025_Feb_08_1505,CategoryLocalizer,2021.2.3,59.963973644305526,
144.8,145.0,5,0.0,Stimuli\Blank.png,0,0,0,243,243,243,,,,,,,,,,,,,144.8126437000028,0.012643700002797686,None,201.61042850000013,201.61042850000013,201.61042850000013,201.61042850000013,201.61042850000013,201.61042850000013,201.61042850000013,201.61042850000013,,001,P013,2025_Feb_08_1505,CategoryLocalizer,2021.2.3,59.963973644305526,
145.0,145.8,2,0.75,Stimuli\ImageFiles-Set1\Bodies\Bodies_Punching_00003.png,0,0,0,244,244,244,,,,,,,,,,,,,145.0109893000008,0.01098930000080145,None,201.81066949999877,201.81066949999877,201.81066949999877,201.81066949999877,201.81066949999877,201.81066949999877,201.81066949999877,201.81066949999877,,001,P013,2025_Feb_08_1505,CategoryLocalizer,2021.2.3,59.963973644305526,
145.8,146.0,5,0.0,Stimuli\Blank.png,0,0,0,245,245,245,,,,,,,,,,,,,145.812378300001,0.012378300000989384,None,202.61131240000032,202.61131240000032,202.61131240000032,202.61131240000032,202.61131240000032,202.61131240000032,202.61131240000032,202.61131240000032,,001,P013,2025_Feb_08_1505,CategoryLocalizer,2021.2.3,59.963973644305526,
146.0,146.8,2,0.75,Stimuli\ImageFiles-Set1\Bodies\Bodies_Pushing_00003.png,0,0,0,246,246,246,,,,,,,,,,,,,146.0122771000024,0.012277100002393126,None,202.81148269999903,202.81148269999903,202.81148269999903,202.81148269999903,202.81148269999903,202.81148269999903,202.81148269999903,202.81148269999903,,001,P013,2025_Feb_08_1505,CategoryLocalizer,2021.2.3,59.963973644305526,
146.8,147.0,5,0.0,Stimuli\Blank.png,0,0,0,247,247,247,,,,,,,,,,,,,146.81348570000046,0.013485700000444467,None,203.61219269999856,203.61219269999856,203.61219269999856,203.61219269999856,203.61219269999856,203.61219269999856,203.61219269999856,203.61219269999856,,001,P013,2025_Feb_08_1505,CategoryLocalizer,2021.2.3,59.963973644305526,
147.0,147.8,2,0.75,Stimuli\ImageFiles-Set1\Bodies\Bodies_Pushing_00003.png,1,1,0,248,248,248,,,,,,,,,,,,,147.01507390000188,0.015073900001880247,1,203.82909469999868,203.82909469999868,203.82909469999868,203.82909469999868,203.82909469999868,203.82909469999868,203.82909469999868,203.82909469999868,0.42763340000237804,001,P013,2025_Feb_08_1505,CategoryLocalizer,2021.2.3,59.963973644305526,
147.8,148.0,5,0.0,Stimuli\Blank.png,0,0,0,249,249,249,,,,,,,,,,,,,147.81359330000123,0.013593300001218722,None,204.6130759000007,204.6130759000007,204.6130759000007,204.6130759000007,204.6130759000007,204.6130759000007,204.6130759000007,204.6130759000007,,001,P013,2025_Feb_08_1505,CategoryLocalizer,2021.2.3,59.963973644305526,
148.0,148.8,2,0.75,Stimuli\ImageFiles-Set1\Bodies\Bodies_Lunging_00001.png,0,0,0,250,250,250,,,,,,,,,,,,,148.01418000000194,0.014180000001942972,None,204.8132536000012,204.8132536000012,204.8132536000012,204.8132536000012,204.8132536000012,204.8132536000012,204.8132536000012,204.8132536000012,,001,P013,2025_Feb_08_1505,CategoryLocalizer,2021.2.3,59.963973644305526,
148.8,149.0,5,0.0,Stimuli\Blank.png,0,0,0,251,251,251,,,,,,,,,,,,,148.8145364000011,0.014536400001077254,None,205.6139664000002,205.6139664000002,205.6139664000002,205.6139664000002,205.6139664000002,205.6139664000002,205.6139664000002,205.6139664000002,,001,P013,2025_Feb_08_1505,CategoryLocalizer,2021.2.3,59.963973644305526,
149.0,149.8,2,0.75,Stimuli\ImageFiles-Set1\Bodies\Bodies_DownwardDog_00001.png,0,0,0,252,252,252,,,,,,,,,,,,,149.015395800001,0.015395800000987947,None,205.81414170000062,205.81414170000062,205.81414170000062,205.81414170000062,205.81414170000062,205.81414170000062,205.81414170000062,205.81414170000062,,001,P013,2025_Feb_08_1505,CategoryLocalizer,2021.2.3,59.963973644305526,
149.8,150.0,5,0.0,Stimuli\Blank.png,0,0,0,253,253,253,,,,,,,,,,,,,149.7986290000008,-0.0013709999992101984,None,206.59816299999875,206.59816299999875,206.59816299999875,206.59816299999875,206.59816299999875,206.59816299999875,206.59816299999875,206.59816299999875,,001,P013,2025_Feb_08_1505,CategoryLocalizer,2021.2.3,59.963973644305526,
150.0,150.8,2,0.75,Stimuli\ImageFiles-Set1\Bodies\Bodies_CobraPose_00003.png,0,0,0,254,254,254,,,,,,,,,,,,,150.0155188000026,0.015518800002610078,None,206.8150816999987,206.8150816999987,206.8150816999987,206.8150816999987,206.8150816999987,206.8150816999987,206.8150816999987,206.8150816999987,,001,P013,2025_Feb_08_1505,CategoryLocalizer,2021.2.3,59.963973644305526,
150.8,151.0,5,0.0,Stimuli\Blank.png,0,0,0,255,255,255,,,,,,,,,,,,,150.80006810000123,6.810000121504345e-05,None,207.5990492000019,207.5990492000019,207.5990492000019,207.5990492000019,207.5990492000019,207.5990492000019,207.5990492000019,207.5990492000019,,001,P013,2025_Feb_08_1505,CategoryLocalizer,2021.2.3,59.963973644305526,
151.0,151.8,2,0.75,Stimuli\ImageFiles-Set1\Bodies\Bodies_Standing_00005.png,0,0,0,256,256,256,,,,,,,,,,,,,151.00030750000224,0.00030750000223633833,None,207.7992258000013,207.7992258000013,207.7992258000013,207.7992258000013,207.7992258000013,207.7992258000013,207.7992258000013,207.7992258000013,,001,P013,2025_Feb_08_1505,CategoryLocalizer,2021.2.3,59.963973644305526,
151.8,152.0,5,0.0,Stimuli\Blank.png,0,0,0,257,257,257,,,,,,,,,,,,,151.80042099999991,0.0004209999999034153,None,208.5999367000004,208.5999367000004,208.5999367000004,208.5999367000004,208.5999367000004,208.5999367000004,208.5999367000004,208.5999367000004,,001,P013,2025_Feb_08_1505,CategoryLocalizer,2021.2.3,59.963973644305526,
152.0,164.0,0,0.0,Stimuli\Blank.png,0,0,0,258,258,258,,,,,,,,,,,,,152.0014708000017,0.0014708000016980805,None,208.80012210000132,208.80012210000132,208.80012210000132,208.80012210000132,208.80012210000132,208.80012210000132,208.80012210000132,208.80012210000132,,001,P013,2025_Feb_08_1505,CategoryLocalizer,2021.2.3,59.963973644305526,
164.0,164.8,4,0.75,Stimuli\ImageFiles-Set1\Scenes\Scenes_048.png,0,0,0,259,259,259,,,,,,,,,,,,,164.01181999999972,0.011819999999715947,None,220.82742580000195,220.82742580000195,220.82742580000195,220.82742580000195,220.82742580000195,220.82742580000195,220.82742580000195,220.82742580000195,,001,P013,2025_Feb_08_1505,CategoryLocalizer,2021.2.3,59.963973644305526,
164.8,165.0,5,0.0,Stimuli\Blank.png,0,0,0,260,260,260,,,,,,,,,,,,,164.82916210000258,0.029162100002565694,None,221.62813610000012,221.62813610000012,221.62813610000012,221.62813610000012,221.62813610000012,221.62813610000012,221.62813610000012,221.62813610000012,,001,P013,2025_Feb_08_1505,CategoryLocalizer,2021.2.3,59.963973644305526,
165.0,165.8,4,0.75,Stimuli\ImageFiles-Set1\Scenes\Scenes_013.png,0,0,0,261,261,261,,,,,,,,,,,,,165.01301010000316,0.013010100003157277,None,221.82833480000045,221.82833480000045,221.82833480000045,221.82833480000045,221.82833480000045,221.82833480000045,221.82833480000045,221.82833480000045,,001,P013,2025_Feb_08_1505,CategoryLocalizer,2021.2.3,59.963973644305526,
165.8,166.0,5,0.0,Stimuli\Blank.png,0,0,0,262,262,262,,,,,,,,,,,,,165.8301664999999,0.030166499999893404,None,222.6290197999988,222.6290197999988,222.6290197999988,222.6290197999988,222.6290197999988,222.6290197999988,222.6290197999988,222.6290197999988,,001,P013,2025_Feb_08_1505,CategoryLocalizer,2021.2.3,59.963973644305526,
166.0,166.8,4,0.75,Stimuli\ImageFiles-Set1\Scenes\Scenes_017.png,0,0,0,263,263,263,,,,,,,,,,,,,166.0141175000026,0.01411750000261236,None,222.82919780000157,222.82919780000157,222.82919780000157,222.82919780000157,222.82919780000157,222.82919780000157,222.82919780000157,222.82919780000157,,001,P013,2025_Feb_08_1505,CategoryLocalizer,2021.2.3,59.963973644305526,
166.8,167.0,5,0.0,Stimuli\Blank.png,0,0,0,264,264,264,,,,,,,,,,,,,166.83172280000144,0.03172280000143246,None,223.62991859999966,223.62991859999966,223.62991859999966,223.62991859999966,223.62991859999966,223.62991859999966,223.62991859999966,223.62991859999966,,001,P013,2025_Feb_08_1505,CategoryLocalizer,2021.2.3,59.963973644305526,
167.0,167.8,4,0.75,Stimuli\ImageFiles-Set1\Scenes\Scenes_017.png,1,1,0,265,265,265,,,,,,,,,,,,,167.01491870000245,0.014918700002453988,1,223.83008580000023,223.83008580000023,223.83008580000023,223.83008580000023,223.83008580000023,223.83008580000023,223.83008580000023,223.83008580000023,0.3959190999994462,001,P013,2025_Feb_08_1505,CategoryLocalizer,2021.2.3,59.963973644305526,
167.8,168.0,5,0.0,Stimuli\Blank.png,0,0,0,266,266,266,,,,,,,,,,,,,167.83332950000113,0.03332950000111623,None,224.64749640000082,224.64749640000082,224.64749640000082,224.64749640000082,224.64749640000082,224.64749640000082,224.64749640000082,224.64749640000082,,001,P013,2025_Feb_08_1505,CategoryLocalizer,2021.2.3,59.963973644305526,
168.0,168.8,4,0.75,Stimuli\ImageFiles-Set1\Scenes\Scenes_055.png,0,0,0,267,267,267,,,,,,,,,,,,,168.01472220000142,0.014722200001415331,None,224.8309764000005,224.8309764000005,224.8309764000005,224.8309764000005,224.8309764000005,224.8309764000005,224.8309764000005,224.8309764000005,,001,P013,2025_Feb_08_1505,CategoryLocalizer,2021.2.3,59.963973644305526,
168.8,169.0,5,0.0,Stimuli\Blank.png,0,0,0,268,268,268,,,,,,,,,,,,,168.83211540000048,0.03211540000046398,None,225.63171539999894,225.63171539999894,225.63171539999894,225.63171539999894,225.63171539999894,225.63171539999894,225.63171539999894,225.63171539999894,,001,P013,2025_Feb_08_1505,CategoryLocalizer,2021.2.3,59.963973644305526,
169.0,169.8,4,0.75,Stimuli\ImageFiles-Set1\Scenes\Scenes_020.png,0,0,0,269,269,269,,,,,,,,,,,,,169.01811310000267,0.018113100002665306,None,225.83190169999943,225.83190169999943,225.83190169999943,225.83190169999943,225.83190169999943,225.83190169999943,225.83190169999943,225.83190169999943,,001,P013,2025_Feb_08_1505,CategoryLocalizer,2021.2.3,59.963973644305526,
169.8,170.0,5,0.0,Stimuli\Blank.png,0,0,0,270,270,270,,,,,,,,,,,,,169.8189022000006,0.01890220000058207,None,226.63256230000115,226.63256230000115,226.63256230000115,226.63256230000115,226.63256230000115,226.63256230000115,226.63256230000115,226.63256230000115,,001,P013,2025_Feb_08_1505,CategoryLocalizer,2021.2.3,59.963973644305526,
170.0,170.8,4,0.75,Stimuli\ImageFiles-Set1\Scenes\Scenes_057.png,0,0,0,271,271,271,,,,,,,,,,,,,170.01772950000304,0.01772950000304263,None,226.8327410999991,226.8327410999991,226.8327410999991,226.8327410999991,226.8327410999991,226.8327410999991,226.8327410999991,226.8327410999991,,001,P013,2025_Feb_08_1505,CategoryLocalizer,2021.2.3,59.963973644305526,
170.8,171.0,5,0.0,Stimuli\Blank.png,0,0,0,272,272,272,,,,,,,,,,,,,170.81843840000147,0.018438400001457467,None,227.6167757000003,227.6167757000003,227.6167757000003,227.6167757000003,227.6167757000003,227.6167757000003,227.6167757000003,227.6167757000003,,001,P013,2025_Feb_08_1505,CategoryLocalizer,2021.2.3,59.963973644305526,
171.0,171.8,4,0.75,Stimuli\ImageFiles-Set1\Scenes\Scenes_058.png,0,0,0,273,273,273,,,,,,,,,,,,,171.0034192000021,0.0034192000020993873,None,227.81694689999858,227.81694689999858,227.81694689999858,227.81694689999858,227.81694689999858,227.81694689999858,227.81694689999858,227.81694689999858,,001,P013,2025_Feb_08_1505,CategoryLocalizer,2021.2.3,59.963973644305526,
171.8,172.0,5,0.0,Stimuli\Blank.png,0,0,0,274,274,274,,,,,,,,,,,,,171.81949800000075,0.019498000000737647,None,228.61765210000158,228.61765210000158,228.61765210000158,228.61765210000158,228.61765210000158,228.61765210000158,228.61765210000158,228.61765210000158,,001,P013,2025_Feb_08_1505,CategoryLocalizer,2021.2.3,59.963973644305526,
172.0,172.8,4,0.75,Stimuli\ImageFiles-Set1\Scenes\Scenes_022.png,0,0,0,275,275,275,,,,,,,,,,,,,172.00244420000308,0.002444200003083097,None,228.8178509999998,228.8178509999998,228.8178509999998,228.8178509999998,228.8178509999998,228.8178509999998,228.8178509999998,228.8178509999998,,001,P013,2025_Feb_08_1505,CategoryLocalizer,2021.2.3,59.963973644305526,
172.8,173.0,5,0.0,Stimuli\Blank.png,0,0,0,276,276,276,,,,,,,,,,,,,172.8196807000022,0.019680700002197682,None,229.61854060000041,229.61854060000041,229.61854060000041,229.61854060000041,229.61854060000041,229.61854060000041,229.61854060000041,229.61854060000041,,001,P013,2025_Feb_08_1505,CategoryLocalizer,2021.2.3,59.963973644305526,
173.0,173.8,4,0.75,Stimuli\ImageFiles-Set1\Scenes\Scenes_005.png,0,0,0,277,277,277,,,,,,,,,,,,,173.00385710000046,0.003857100000459468,None,229.8186792000015,229.8186792000015,229.8186792000015,229.8186792000015,229.8186792000015,229.8186792000015,229.8186792000015,229.8186792000015,,001,P013,2025_Feb_08_1505,CategoryLocalizer,2021.2.3,59.963973644305526,
173.8,174.0,5,0.0,Stimuli\Blank.png,0,0,0,278,278,278,,,,,,,,,,,,,173.82039910000094,0.020399100000929593,None,230.61941560000196,230.61941560000196,230.61941560000196,230.61941560000196,230.61941560000196,230.61941560000196,230.61941560000196,230.61941560000196,,001,P013,2025_Feb_08_1505,CategoryLocalizer,2021.2.3,59.963973644305526,
174.0,174.8,4,0.75,Stimuli\ImageFiles-Set1\Scenes\Scenes_019.png,0,0,0,279,279,279,,,,,,,,,,,,,174.00324499999988,0.003244999999878928,None,230.81961990000127,230.81961990000127,230.81961990000127,230.81961990000127,230.81961990000127,230.81961990000127,230.81961990000127,230.81961990000127,,001,P013,2025_Feb_08_1505,CategoryLocalizer,2021.2.3,59.963973644305526,
174.8,175.0,5,0.0,Stimuli\Blank.png,0,0,0,280,280,280,,,,,,,,,,,,,174.82077050000225,0.020770500002242898,None,231.62036829999852,231.62036829999852,231.62036829999852,231.62036829999852,231.62036829999852,231.62036829999852,231.62036829999852,231.62036829999852,,001,P013,2025_Feb_08_1505,CategoryLocalizer,2021.2.3,59.963973644305526,
175.0,175.8,4,0.75,Stimuli\ImageFiles-Set1\Scenes\Scenes_047.png,0,0,0,281,281,281,,,,,,,,,,,,,175.00417089999974,0.004170899999735411,None,231.8204592000002,231.8204592000002,231.8204592000002,231.8204592000002,231.8204592000002,231.8204592000002,231.8204592000002,231.8204592000002,,001,P013,2025_Feb_08_1505,CategoryLocalizer,2021.2.3,59.963973644305526,
175.8,176.0,5,0.0,Stimuli\Blank.png,0,0,0,282,282,282,,,,,,,,,,,,,175.82404339999994,0.02404339999992544,None,232.63795839999875,232.63795839999875,232.63795839999875,232.63795839999875,232.63795839999875,232.63795839999875,232.63795839999875,232.63795839999875,,001,P013,2025_Feb_08_1505,CategoryLocalizer,2021.2.3,59.963973644305526,
176.0,176.8,4,0.75,Stimuli\ImageFiles-Set1\Scenes\Scenes_036.png,0,0,0,283,283,283,,,,,,,,,,,,,176.0236442000023,0.023644200002308935,None,232.83805579999898,232.83805579999898,232.83805579999898,232.83805579999898,232.83805579999898,232.83805579999898,232.83805579999898,232.83805579999898,,001,P013,2025_Feb_08_1505,CategoryLocalizer,2021.2.3,59.963973644305526,
