eventStartTime,eventEndTime,eventCond,imSize,imFile,repeatedImage,responseEvent,Events.thisRepN,Events.thisTrialN,Events.thisN,Events.thisIndex,Instructions.started,Instructions.stopped,participantReadyResponse.keys,participantReadyResponse.rt,participantReadyResponse.started,participantReadyResponse.stopped,startWaitforTrigger,triggerResponse.keys,triggerResponse.rt,triggerResponse.started,triggerResponse.stopped,globalTimer,actualStartTime,startTimingDiff,participantResponse.keys,participantResponse.started,participantResponse.stopped,image.started,image.stopped,fixationOutside.started,fixationOutside.stopped,fixationInside.started,fixationInside.stopped,participantResponse.rt,session,participant,date,expName,psychopyVersion,frameRate,
,,,,,,,,,,,11.875571799999307,None,1,7.968722499997966,11.875571799999307,None,,,,,,,,,,,,,,,,,,,003,P013,2025_Feb_08_1603,CategoryLocalizer,2021.2.3,59.91898952707238,
,,,,,,,,,,,,,,,,,19.858595499998046,5,14.665516400000342,19.871883399999206,None,,,,,,,,,,,,,,003,P013,2025_Feb_08_1603,CategoryLocalizer,2021.2.3,59.91898952707238,
0.0,12.0,0,0.0,Stimuli\Blank.png,0,0,0,0,0,0,,,,,,,,,,,,34.55558759999985,0.060688999998092186,0.060688999998092186,None,34.63494729999729,None,34.63494729999729,None,34.63494729999729,None,34.63494729999729,None,,003,P013,2025_Feb_08_1603,CategoryLocalizer,2021.2.3,59.91898952707238,
12.0,12.8,1,0.75,Stimuli\ImageFiles-Set1\Objects\Object_Baseball_00001.png,0,0,0,1,1,1,,,,,,,,,,,,,12.01007099999697,0.010070999996969476,None,46.57885519999763,46.57885519999763,46.57885519999763,46.57885519999763,46.57885519999763,46.57885519999763,46.57885519999763,46.57885519999763,,003,P013,2025_Feb_08_1603,CategoryLocalizer,2021.2.3,59.91898952707238,
12.8,13.0,5,0.0,Stimuli\Blank.png,0,0,0,2,2,2,,,,,,,,,,,,,12.81102639999881,0.0110263999988085,None,47.396244199997454,47.396244199997454,47.396244199997454,47.396244199997454,47.396244199997454,47.396244199997454,47.396244199997454,47.396244199997454,,003,P013,2025_Feb_08_1603,CategoryLocalizer,2021.2.3,59.91898952707238,
13.0,13.8,1,0.75,Stimuli\ImageFiles-Set1\Objects\Object_Card_00001.png,0,0,0,3,3,3,,,,,,,,,,,,,13.027282499999274,0.02728249999927357,None,47.61309429999892,47.61309429999892,47.61309429999892,47.61309429999892,47.61309429999892,47.61309429999892,47.61309429999892,47.61309429999892,,003,P013,2025_Feb_08_1603,CategoryLocalizer,2021.2.3,59.91898952707238,
13.8,14.0,5,0.0,Stimuli\Blank.png,0,0,0,4,4,4,,,,,,,,,,,,,13.827736199997162,0.027736199997161037,None,48.39711339999849,48.39711339999849,48.39711339999849,48.39711339999849,48.39711339999849,48.39711339999849,48.39711339999849,48.39711339999849,,003,P013,2025_Feb_08_1603,CategoryLocalizer,2021.2.3,59.91898952707238,
14.0,14.8,1,0.75,Stimuli\ImageFiles-Set1\Objects\Object_Door_00001.png,0,0,0,5,5,5,,,,,,,,,,,,,14.010336199997255,0.01033619999725488,None,48.58064099999683,48.58064099999683,48.58064099999683,48.58064099999683,48.58064099999683,48.58064099999683,48.58064099999683,48.58064099999683,,003,P013,2025_Feb_08_1603,CategoryLocalizer,2021.2.3,59.91898952707238,
14.8,15.0,5,0.0,Stimuli\Blank.png,0,0,0,6,6,6,,,,,,,,,,,,,14.811183199999505,0.011183199999504012,None,49.38133039999957,49.38133039999957,49.38133039999957,49.38133039999957,49.38133039999957,49.38133039999957,49.38133039999957,49.38133039999957,,003,P013,2025_Feb_08_1603,CategoryLocalizer,2021.2.3,59.91898952707238,
15.0,15.8,1,0.75,Stimuli\ImageFiles-Set1\Objects\Object_Box_00001.png,0,0,0,7,7,7,,,,,,,,,,,,,15.011206899998797,0.011206899998796871,None,49.581504799996765,49.581504799996765,49.581504799996765,49.581504799996765,49.581504799996765,49.581504799996765,49.581504799996765,49.581504799996765,,003,P013,2025_Feb_08_1603,CategoryLocalizer,2021.2.3,59.91898952707238,
15.8,16.0,5,0.0,Stimuli\Blank.png,0,0,0,8,8,8,,,,,,,,,,,,,15.811910199998238,0.011910199998236948,None,50.38220249999722,50.38220249999722,50.38220249999722,50.38220249999722,50.38220249999722,50.38220249999722,50.38220249999722,50.38220249999722,,003,P013,2025_Feb_08_1603,CategoryLocalizer,2021.2.3,59.91898952707238,
16.0,16.8,1,0.75,Stimuli\ImageFiles-Set1\Objects\Object_Gun_00001.png,0,0,0,9,9,9,,,,,,,,,,,,,16.0127238999994,0.0127238999994006,None,50.582398399998056,50.582398399998056,50.582398399998056,50.582398399998056,50.582398399998056,50.582398399998056,50.582398399998056,50.582398399998056,,003,P013,2025_Feb_08_1603,CategoryLocalizer,2021.2.3,59.91898952707238,
16.8,17.0,5,0.0,Stimuli\Blank.png,0,0,0,10,10,10,,,,,,,,,,,,,16.81355689999691,0.013556899996910232,None,51.383089299997664,51.383089299997664,51.383089299997664,51.383089299997664,51.383089299997664,51.383089299997664,51.383089299997664,51.383089299997664,,003,P013,2025_Feb_08_1603,CategoryLocalizer,2021.2.3,59.91898952707238,
17.0,17.8,1,0.75,Stimuli\ImageFiles-Set1\Objects\Object_Gun_00001.png,1,1,0,11,11,11,,,,,,,,,,,,,17.013602799997898,0.013602799997897819,1,51.58327709999867,51.58327709999867,51.58327709999867,51.58327709999867,51.58327709999867,51.58327709999867,51.58327709999867,51.58327709999867,0.44110940000246046,003,P013,2025_Feb_08_1603,CategoryLocalizer,2021.2.3,59.91898952707238,
17.8,18.0,5,0.0,Stimuli\Blank.png,0,0,0,12,12,12,,,,,,,,,,,,,17.81666319999931,0.016663199999310763,None,52.40069349999976,52.40069349999976,52.40069349999976,52.40069349999976,52.40069349999976,52.40069349999976,52.40069349999976,52.40069349999976,,003,P013,2025_Feb_08_1603,CategoryLocalizer,2021.2.3,59.91898952707238,
18.0,18.8,1,0.75,Stimuli\ImageFiles-Set1\Objects\Object_Oven_00001.png,0,0,0,13,13,13,,,,,,,,,,,,,18.014552699998603,0.014552699998603202,None,52.60086589999992,52.60086589999992,52.60086589999992,52.60086589999992,52.60086589999992,52.60086589999992,52.60086589999992,52.60086589999992,,003,P013,2025_Feb_08_1603,CategoryLocalizer,2021.2.3,59.91898952707238,
18.8,19.0,5,0.0,Stimuli\Blank.png,0,0,0,14,14,14,,,,,,,,,,,,,18.831966299996566,0.031966299996565084,None,53.40272819999882,53.40272819999882,53.40272819999882,53.40272819999882,53.40272819999882,53.40272819999882,53.40272819999882,53.40272819999882,,003,P013,2025_Feb_08_1603,CategoryLocalizer,2021.2.3,59.91898952707238,
19.0,19.8,1,0.75,Stimuli\ImageFiles-Set1\Objects\Object_Scale_00001.png,0,0,0,15,15,15,,,,,,,,,,,,,19.0163939999984,0.016393999998399522,None,53.60172479999892,53.60172479999892,53.60172479999892,53.60172479999892,53.60172479999892,53.60172479999892,53.60172479999892,53.60172479999892,,003,P013,2025_Feb_08_1603,CategoryLocalizer,2021.2.3,59.91898952707238,
19.8,20.0,5,0.0,Stimuli\Blank.png,0,0,0,16,16,16,,,,,,,,,,,,,19.816075199996703,0.016075199996702594,None,54.38574229999722,54.38574229999722,54.38574229999722,54.38574229999722,54.38574229999722,54.38574229999722,54.38574229999722,54.38574229999722,,003,P013,2025_Feb_08_1603,CategoryLocalizer,2021.2.3,59.91898952707238,
20.0,20.8,1,0.75,Stimuli\ImageFiles-Set1\Objects\Object_TeaBag_00001.png,0,0,0,17,17,17,,,,,,,,,,,,,20.001366399999824,0.0013663999998243526,None,54.585932799996954,54.585932799996954,54.585932799996954,54.585932799996954,54.585932799996954,54.585932799996954,54.585932799996954,54.585932799996954,,003,P013,2025_Feb_08_1603,CategoryLocalizer,2021.2.3,59.91898952707238,
20.8,21.0,5,0.0,Stimuli\Blank.png,0,0,0,18,18,18,,,,,,,,,,,,,20.817712899999606,0.017712899999605014,None,55.386656399998174,55.386656399998174,55.386656399998174,55.386656399998174,55.386656399998174,55.386656399998174,55.386656399998174,55.386656399998174,,003,P013,2025_Feb_08_1603,CategoryLocalizer,2021.2.3,59.91898952707238,
21.0,21.8,1,0.75,Stimuli\ImageFiles-Set1\Objects\Object_Nightstand_00001.png,0,0,0,19,19,19,,,,,,,,,,,,,21.001240999998117,0.0012409999981173314,None,55.58681329999672,55.58681329999672,55.58681329999672,55.58681329999672,55.58681329999672,55.58681329999672,55.58681329999672,55.58681329999672,,003,P013,2025_Feb_08_1603,CategoryLocalizer,2021.2.3,59.91898952707238,
21.8,22.0,5,0.0,Stimuli\Blank.png,0,0,0,20,20,20,,,,,,,,,,,,,21.817714499997237,0.017714499997236288,None,56.387521199998446,56.387521199998446,56.387521199998446,56.387521199998446,56.387521199998446,56.387521199998446,56.387521199998446,56.387521199998446,,003,P013,2025_Feb_08_1603,CategoryLocalizer,2021.2.3,59.91898952707238,
22.0,22.8,1,0.75,Stimuli\ImageFiles-Set1\Objects\Object_Dice_00001.png,0,0,0,21,21,21,,,,,,,,,,,,,22.001597699996637,0.0015976999966369476,None,56.58771259999776,56.58771259999776,56.58771259999776,56.58771259999776,56.58771259999776,56.58771259999776,56.58771259999776,56.58771259999776,,003,P013,2025_Feb_08_1603,CategoryLocalizer,2021.2.3,59.91898952707238,
22.8,23.0,5,0.0,Stimuli\Blank.png,0,0,0,22,22,22,,,,,,,,,,,,,22.819009499999083,0.019009499999082635,None,57.38840309999796,57.38840309999796,57.38840309999796,57.38840309999796,57.38840309999796,57.38840309999796,57.38840309999796,57.38840309999796,,003,P013,2025_Feb_08_1603,CategoryLocalizer,2021.2.3,59.91898952707238,
23.0,23.8,1,0.75,Stimuli\ImageFiles-Set1\Objects\Object_Toilet_00001.png,1,1,0,23,23,23,,,,,,,,,,,,,23.001689999997325,0.001689999997324776,None,57.571900099999766,57.571900099999766,57.571900099999766,57.571900099999766,57.571900099999766,57.571900099999766,57.571900099999766,57.571900099999766,,003,P013,2025_Feb_08_1603,CategoryLocalizer,2021.2.3,59.91898952707238,
23.8,24.0,5,0.0,Stimuli\Blank.png,0,0,0,24,24,24,,,,,,,,,,,,,23.80251700000008,0.0025170000000791504,None,58.37373099999968,58.37373099999968,58.37373099999968,58.37373099999968,58.37373099999968,58.37373099999968,58.37373099999968,58.37373099999968,,003,P013,2025_Feb_08_1603,CategoryLocalizer,2021.2.3,59.91898952707238,
24.0,24.8,1,0.75,Stimuli\ImageFiles-Set1\Objects\Object_Stool_00001.png,0,0,0,25,25,25,,,,,,,,,,,,,24.003251099999034,0.003251099999033613,None,58.58947409999746,58.58947409999746,58.58947409999746,58.58947409999746,58.58947409999746,58.58947409999746,58.58947409999746,58.58947409999746,,003,P013,2025_Feb_08_1603,CategoryLocalizer,2021.2.3,59.91898952707238,
24.8,25.0,5,0.0,Stimuli\Blank.png,0,0,0,26,26,26,,,,,,,,,,,,,24.821609299997363,0.02160929999736183,None,59.406885699998384,59.406885699998384,59.406885699998384,59.406885699998384,59.406885699998384,59.406885699998384,59.406885699998384,59.406885699998384,,003,P013,2025_Feb_08_1603,CategoryLocalizer,2021.2.3,59.91898952707238,
25.0,25.8,1,0.75,Stimuli\ImageFiles-Set1\Objects\Object_Stool_00001.png,0,0,0,27,27,27,,,,,,,,,,,,,25.020711299999675,0.020711299999675248,1,59.59036319999723,59.59036319999723,59.59036319999723,59.59036319999723,59.59036319999723,59.59036319999723,59.59036319999723,59.59036319999723,0.4690143000007083,003,P013,2025_Feb_08_1603,CategoryLocalizer,2021.2.3,59.91898952707238,
25.8,26.0,5,0.0,Stimuli\Blank.png,0,0,0,28,28,28,,,,,,,,,,,,,25.806262799997057,0.0062627999970565895,None,60.391080800000054,60.391080800000054,60.391080800000054,60.391080800000054,60.391080800000054,60.391080800000054,60.391080800000054,60.391080800000054,,003,P013,2025_Feb_08_1603,CategoryLocalizer,2021.2.3,59.91898952707238,
26.0,26.8,1,0.75,Stimuli\ImageFiles-Set1\Objects\Object_PepperShaker_00001.png,0,0,0,29,29,29,,,,,,,,,,,,,26.022134499999083,0.022134499999083346,None,60.591238399996655,60.591238399996655,60.591238399996655,60.591238399996655,60.591238399996655,60.591238399996655,60.591238399996655,60.591238399996655,,003,P013,2025_Feb_08_1603,CategoryLocalizer,2021.2.3,59.91898952707238,
26.8,27.0,5,0.0,Stimuli\Blank.png,0,0,0,30,30,30,,,,,,,,,,,,,26.805594499997824,0.005594499997823021,None,61.37528299999758,61.37528299999758,61.37528299999758,61.37528299999758,61.37528299999758,61.37528299999758,61.37528299999758,61.37528299999758,,003,P013,2025_Feb_08_1603,CategoryLocalizer,2021.2.3,59.91898952707238,
27.0,27.8,1,0.75,Stimuli\ImageFiles-Set1\Objects\Object_Highchair_00001.png,0,0,0,31,31,31,,,,,,,,,,,,,27.005888499999855,0.005888499999855412,None,61.57544979999875,61.57544979999875,61.57544979999875,61.57544979999875,61.57544979999875,61.57544979999875,61.57544979999875,61.57544979999875,,003,P013,2025_Feb_08_1603,CategoryLocalizer,2021.2.3,59.91898952707238,
27.8,28.0,5,0.0,Stimuli\Blank.png,0,0,0,32,32,32,,,,,,,,,,,,,27.806075899999996,0.006075899999995471,None,62.37625759999719,62.37625759999719,62.37625759999719,62.37625759999719,62.37625759999719,62.37625759999719,62.37625759999719,62.37625759999719,,003,P013,2025_Feb_08_1603,CategoryLocalizer,2021.2.3,59.91898952707238,
28.0,28.8,2,0.75,Stimuli\ImageFiles-Set1\Bodies\Bodies_SittingChair_00003.png,0,0,0,33,33,33,,,,,,,,,,,,,28.00636509999822,0.006365099998220103,None,62.57633349999742,62.57633349999742,62.57633349999742,62.57633349999742,62.57633349999742,62.57633349999742,62.57633349999742,62.57633349999742,,003,P013,2025_Feb_08_1603,CategoryLocalizer,2021.2.3,59.91898952707238,
28.8,29.0,5,0.0,Stimuli\Blank.png,0,0,0,34,34,34,,,,,,,,,,,,,28.80777129999842,0.007771299998420744,None,63.37702779999745,63.37702779999745,63.37702779999745,63.37702779999745,63.37702779999745,63.37702779999745,63.37702779999745,63.37702779999745,,003,P013,2025_Feb_08_1603,CategoryLocalizer,2021.2.3,59.91898952707238,
29.0,29.8,2,0.75,Stimuli\ImageFiles-Set1\Bodies\Bodies_Pushing_00003.png,0,0,0,35,35,35,,,,,,,,,,,,,29.007599199998367,0.007599199998367112,None,63.57721099999981,63.57721099999981,63.57721099999981,63.57721099999981,63.57721099999981,63.57721099999981,63.57721099999981,63.57721099999981,,003,P013,2025_Feb_08_1603,CategoryLocalizer,2021.2.3,59.91898952707238,
29.8,30.0,5,0.0,Stimuli\Blank.png,0,0,0,36,36,36,,,,,,,,,,,,,29.807692299997143,0.007692299997142271,None,64.37791819999984,64.37791819999984,64.37791819999984,64.37791819999984,64.37791819999984,64.37791819999984,64.37791819999984,64.37791819999984,,003,P013,2025_Feb_08_1603,CategoryLocalizer,2021.2.3,59.91898952707238,
30.0,30.8,2,0.75,Stimuli\ImageFiles-Set1\Bodies\Bodies_Waving_00005.png,0,0,0,37,37,37,,,,,,,,,,,,,30.00846359999923,0.00846359999923152,None,64.59484419999717,64.59484419999717,64.59484419999717,64.59484419999717,64.59484419999717,64.59484419999717,64.59484419999717,64.59484419999717,,003,P013,2025_Feb_08_1603,CategoryLocalizer,2021.2.3,59.91898952707238,
30.8,31.0,5,0.0,Stimuli\Blank.png,0,0,0,38,38,38,,,,,,,,,,,,,30.825802399998793,0.02580239999879197,None,65.39548439999999,65.39548439999999,65.39548439999999,65.39548439999999,65.39548439999999,65.39548439999999,65.39548439999999,65.39548439999999,,003,P013,2025_Feb_08_1603,CategoryLocalizer,2021.2.3,59.91898952707238,
31.0,31.8,2,0.75,Stimuli\ImageFiles-Set1\Bodies\Bodies_Lunging_00004.png,0,0,0,39,39,39,,,,,,,,,,,,,31.010784499998408,0.010784499998408137,None,65.59567569999854,65.59567569999854,65.59567569999854,65.59567569999854,65.59567569999854,65.59567569999854,65.59567569999854,65.59567569999854,,003,P013,2025_Feb_08_1603,CategoryLocalizer,2021.2.3,59.91898952707238,
31.8,32.0,5,0.0,Stimuli\Blank.png,0,0,0,40,40,40,,,,,,,,,,,,,31.827281499998207,0.027281499998206726,None,66.39637779999975,66.39637779999975,66.39637779999975,66.39637779999975,66.39637779999975,66.39637779999975,66.39637779999975,66.39637779999975,,003,P013,2025_Feb_08_1603,CategoryLocalizer,2021.2.3,59.91898952707238,
32.0,32.8,2,0.75,Stimuli\ImageFiles-Set1\Bodies\Bodies_Walking_00002.png,0,0,0,41,41,41,,,,,,,,,,,,,32.01048489999812,0.010484899998118635,None,66.57986889999665,66.57986889999665,66.57986889999665,66.57986889999665,66.57986889999665,66.57986889999665,66.57986889999665,66.57986889999665,,003,P013,2025_Feb_08_1603,CategoryLocalizer,2021.2.3,59.91898952707238,
32.8,33.0,5,0.0,Stimuli\Blank.png,0,0,0,42,42,42,,,,,,,,,,,,,32.81163759999981,0.011637599999815507,None,67.38062219999847,67.38062219999847,67.38062219999847,67.38062219999847,67.38062219999847,67.38062219999847,67.38062219999847,67.38062219999847,,003,P013,2025_Feb_08_1603,CategoryLocalizer,2021.2.3,59.91898952707238,
33.0,33.8,2,0.75,Stimuli\ImageFiles-Set1\Bodies\Bodies_Crawling_00001.png,0,0,0,43,43,43,,,,,,,,,,,,,33.01164989999961,0.01164989999961108,None,67.59747299999799,67.59747299999799,67.59747299999799,67.59747299999799,67.59747299999799,67.59747299999799,67.59747299999799,67.59747299999799,,003,P013,2025_Feb_08_1603,CategoryLocalizer,2021.2.3,59.91898952707238,
33.8,34.0,5,0.0,Stimuli\Blank.png,0,0,0,44,44,44,,,,,,,,,,,,,33.82860389999769,0.028603899997690974,None,68.39821819999997,68.39821819999997,68.39821819999997,68.39821819999997,68.39821819999997,68.39821819999997,68.39821819999997,68.39821819999997,,003,P013,2025_Feb_08_1603,CategoryLocalizer,2021.2.3,59.91898952707238,
34.0,34.8,2,0.75,Stimuli\ImageFiles-Set1\Bodies\Bodies_DownwardDog_00007.png,0,0,0,45,45,45,,,,,,,,,,,,,34.01186379999854,0.011863799998536706,None,68.58164609999949,68.58164609999949,68.58164609999949,68.58164609999949,68.58164609999949,68.58164609999949,68.58164609999949,68.58164609999949,,003,P013,2025_Feb_08_1603,CategoryLocalizer,2021.2.3,59.91898952707238,
34.8,35.0,5,0.0,Stimuli\Blank.png,0,0,0,46,46,46,,,,,,,,,,,,,34.81215379999776,0.012153799997761894,None,69.38234009999724,69.38234009999724,69.38234009999724,69.38234009999724,69.38234009999724,69.38234009999724,69.38234009999724,69.38234009999724,,003,P013,2025_Feb_08_1603,CategoryLocalizer,2021.2.3,59.91898952707238,
35.0,35.8,2,0.75,Stimuli\ImageFiles-Set1\Bodies\Bodies_Waving_00001.png,0,0,0,47,47,47,,,,,,,,,,,,,35.012808999999834,0.012808999999833759,None,69.58252009999705,69.58252009999705,69.58252009999705,69.58252009999705,69.58252009999705,69.58252009999705,69.58252009999705,69.58252009999705,,003,P013,2025_Feb_08_1603,CategoryLocalizer,2021.2.3,59.91898952707238,
35.8,36.0,5,0.0,Stimuli\Blank.png,0,0,0,48,48,48,,,,,,,,,,,,,35.81301069999972,0.013010699999725261,None,70.38323059999675,70.38323059999675,70.38323059999675,70.38323059999675,70.38323059999675,70.38323059999675,70.38323059999675,70.38323059999675,,003,P013,2025_Feb_08_1603,CategoryLocalizer,2021.2.3,59.91898952707238,
36.0,36.8,2,0.75,Stimuli\ImageFiles-Set1\Bodies\Bodies_CobraPose_00003.png,0,0,0,49,49,49,,,,,,,,,,,,,36.014345399999,0.014345399999001529,None,70.60021629999756,70.60021629999756,70.60021629999756,70.60021629999756,70.60021629999756,70.60021629999756,70.60021629999756,70.60021629999756,,003,P013,2025_Feb_08_1603,CategoryLocalizer,2021.2.3,59.91898952707238,
36.8,37.0,5,0.0,Stimuli\Blank.png,0,0,0,50,50,50,,,,,,,,,,,,,36.830515499998,0.030515499998003293,None,71.40084899999783,71.40084899999783,71.40084899999783,71.40084899999783,71.40084899999783,71.40084899999783,71.40084899999783,71.40084899999783,,003,P013,2025_Feb_08_1603,CategoryLocalizer,2021.2.3,59.91898952707238,
37.0,37.8,2,0.75,Stimuli\ImageFiles-Set1\Bodies\Bodies_Running_00006.png,0,0,0,51,51,51,,,,,,,,,,,,,37.015108699997654,0.015108699997654185,None,71.58429109999997,71.58429109999997,71.58429109999997,71.58429109999997,71.58429109999997,71.58429109999997,71.58429109999997,71.58429109999997,,003,P013,2025_Feb_08_1603,CategoryLocalizer,2021.2.3,59.91898952707238,
37.8,38.0,5,0.0,Stimuli\Blank.png,0,0,0,52,52,52,,,,,,,,,,,,,37.798590099999274,-0.0014099000007234963,None,72.36831829999937,72.36831829999937,72.36831829999937,72.36831829999937,72.36831829999937,72.36831829999937,72.36831829999937,72.36831829999937,,003,P013,2025_Feb_08_1603,CategoryLocalizer,2021.2.3,59.91898952707238,
38.0,38.8,2,0.75,Stimuli\ImageFiles-Set1\Bodies\Bodies_PushUp_00002.png,0,0,0,53,53,53,,,,,,,,,,,,,38.015651399997296,0.015651399997295812,None,72.60189409999657,72.60189409999657,72.60189409999657,72.60189409999657,72.60189409999657,72.60189409999657,72.60189409999657,72.60189409999657,,003,P013,2025_Feb_08_1603,CategoryLocalizer,2021.2.3,59.91898952707238,
38.8,39.0,5,0.0,Stimuli\Blank.png,0,0,0,54,54,54,,,,,,,,,,,,,38.81628329999876,0.016283299998761436,None,73.3858825999996,73.3858825999996,73.3858825999996,73.3858825999996,73.3858825999996,73.3858825999996,73.3858825999996,73.3858825999996,,003,P013,2025_Feb_08_1603,CategoryLocalizer,2021.2.3,59.91898952707238,
39.0,39.8,2,0.75,Stimuli\ImageFiles-Set1\Bodies\Bodies_PushUp_00002.png,1,1,0,55,55,55,,,,,,,,,,,,,39.00084079999942,0.0008407999994233251,1,73.5860689000001,73.5860689000001,73.5860689000001,73.5860689000001,73.5860689000001,73.5860689000001,73.5860689000001,73.5860689000001,0.3205809000028239,003,P013,2025_Feb_08_1603,CategoryLocalizer,2021.2.3,59.91898952707238,
39.8,40.0,5,0.0,Stimuli\Blank.png,0,0,0,56,56,56,,,,,,,,,,,,,39.81748269999662,0.01748269999662,None,74.38676839999971,74.38676839999971,74.38676839999971,74.38676839999971,74.38676839999971,74.38676839999971,74.38676839999971,74.38676839999971,,003,P013,2025_Feb_08_1603,CategoryLocalizer,2021.2.3,59.91898952707238,
40.0,40.8,2,0.75,Stimuli\ImageFiles-Set1\Bodies\Bodies_SittingChair_00001.png,0,0,0,57,57,57,,,,,,,,,,,,,40.00097709999682,0.0009770999968168326,None,74.58696839999902,74.58696839999902,74.58696839999902,74.58696839999902,74.58696839999902,74.58696839999902,74.58696839999902,74.58696839999902,,003,P013,2025_Feb_08_1603,CategoryLocalizer,2021.2.3,59.91898952707238,
40.8,41.0,5,0.0,Stimuli\Blank.png,0,0,0,58,58,58,,,,,,,,,,,,,40.81815309999729,0.018153099997292088,None,75.38763409999956,75.38763409999956,75.38763409999956,75.38763409999956,75.38763409999956,75.38763409999956,75.38763409999956,75.38763409999956,,003,P013,2025_Feb_08_1603,CategoryLocalizer,2021.2.3,59.91898952707238,
41.0,41.8,2,0.75,Stimuli\ImageFiles-Set1\Bodies\Bodies_SittingFloor_00007.png,0,0,0,59,59,59,,,,,,,,,,,,,41.00198839999939,0.001988399999390822,None,75.57115259999773,75.57115259999773,75.57115259999773,75.57115259999773,75.57115259999773,75.57115259999773,75.57115259999773,75.57115259999773,,003,P013,2025_Feb_08_1603,CategoryLocalizer,2021.2.3,59.91898952707238,
41.8,42.0,5,0.0,Stimuli\Blank.png,0,0,0,60,60,60,,,,,,,,,,,,,41.802056799999264,0.0020567999992664454,None,76.37187119999726,76.37187119999726,76.37187119999726,76.37187119999726,76.37187119999726,76.37187119999726,76.37187119999726,76.37187119999726,,003,P013,2025_Feb_08_1603,CategoryLocalizer,2021.2.3,59.91898952707238,
42.0,42.8,2,0.75,Stimuli\ImageFiles-Set1\Bodies\Bodies_QuadStretch_00005.png,0,0,0,61,61,61,,,,,,,,,,,,,42.001997099996515,0.001997099996515317,None,76.57204249999995,76.57204249999995,76.57204249999995,76.57204249999995,76.57204249999995,76.57204249999995,76.57204249999995,76.57204249999995,,003,P013,2025_Feb_08_1603,CategoryLocalizer,2021.2.3,59.91898952707238,
42.8,43.0,5,0.0,Stimuli\Blank.png,0,0,0,62,62,62,,,,,,,,,,,,,42.80254309999873,0.0025430999987321457,None,77.37275279999812,77.37275279999812,77.37275279999812,77.37275279999812,77.37275279999812,77.37275279999812,77.37275279999812,77.37275279999812,,003,P013,2025_Feb_08_1603,CategoryLocalizer,2021.2.3,59.91898952707238,
43.0,43.8,2,0.75,Stimuli\ImageFiles-Set1\Bodies\Bodies_Walking_00006.png,0,0,0,63,63,63,,,,,,,,,,,,,43.00272479999694,0.002724799996940419,None,77.5729227999982,77.5729227999982,77.5729227999982,77.5729227999982,77.5729227999982,77.5729227999982,77.5729227999982,77.5729227999982,,003,P013,2025_Feb_08_1603,CategoryLocalizer,2021.2.3,59.91898952707238,
43.8,44.0,5,0.0,Stimuli\Blank.png,0,0,0,64,64,64,,,,,,,,,,,,,43.80355769999733,0.0035576999973301326,None,78.37363019999975,78.37363019999975,78.37363019999975,78.37363019999975,78.37363019999975,78.37363019999975,78.37363019999975,78.37363019999975,,003,P013,2025_Feb_08_1603,CategoryLocalizer,2021.2.3,59.91898952707238,
44.0,44.8,3,0.75,Stimuli\ImageFiles-Set1\Faces\Face_00109.png,0,0,0,65,65,65,,,,,,,,,,,,,44.00445679999757,0.00445679999756976,None,78.59051599999657,78.59051599999657,78.59051599999657,78.59051599999657,78.59051599999657,78.59051599999657,78.59051599999657,78.59051599999657,,003,P013,2025_Feb_08_1603,CategoryLocalizer,2021.2.3,59.91898952707238,
44.8,45.0,5,0.0,Stimuli\Blank.png,0,0,0,66,66,66,,,,,,,,,,,,,44.82117819999985,0.021178199999852154,None,79.39120039999762,79.39120039999762,79.39120039999762,79.39120039999762,79.39120039999762,79.39120039999762,79.39120039999762,79.39120039999762,,003,P013,2025_Feb_08_1603,CategoryLocalizer,2021.2.3,59.91898952707238,
45.0,45.8,3,0.75,Stimuli\ImageFiles-Set1\Faces\Face_00089.png,0,0,0,67,67,67,,,,,,,,,,,,,45.00515019999875,0.005150199998752214,None,79.5913722999976,79.5913722999976,79.5913722999976,79.5913722999976,79.5913722999976,79.5913722999976,79.5913722999976,79.5913722999976,,003,P013,2025_Feb_08_1603,CategoryLocalizer,2021.2.3,59.91898952707238,
45.8,46.0,5,0.0,Stimuli\Blank.png,0,0,0,68,68,68,,,,,,,,,,,,,45.821906999997736,0.021906999997739263,None,80.39229349999732,80.39229349999732,80.39229349999732,80.39229349999732,80.39229349999732,80.39229349999732,80.39229349999732,80.39229349999732,,003,P013,2025_Feb_08_1603,CategoryLocalizer,2021.2.3,59.91898952707238,
46.0,46.8,3,0.75,Stimuli\ImageFiles-Set1\Faces\Face_00041.png,0,0,0,69,69,69,,,,,,,,,,,,,46.00547149999693,0.005471499996929197,None,80.57562569999936,80.57562569999936,80.57562569999936,80.57562569999936,80.57562569999936,80.57562569999936,80.57562569999936,80.57562569999936,,003,P013,2025_Feb_08_1603,CategoryLocalizer,2021.2.3,59.91898952707238,
46.8,47.0,5,0.0,Stimuli\Blank.png,0,0,0,70,70,70,,,,,,,,,,,,,46.80724999999802,0.007249999998023782,None,81.37629000000015,81.37629000000015,81.37629000000015,81.37629000000015,81.37629000000015,81.37629000000015,81.37629000000015,81.37629000000015,,003,P013,2025_Feb_08_1603,CategoryLocalizer,2021.2.3,59.91898952707238,
47.0,47.8,3,0.75,Stimuli\ImageFiles-Set1\Faces\Face_00111.png,0,0,0,71,71,71,,,,,,,,,,,,,47.00747819999742,0.0074781999974220525,None,81.59312219999993,81.59312219999993,81.59312219999993,81.59312219999993,81.59312219999993,81.59312219999993,81.59312219999993,81.59312219999993,,003,P013,2025_Feb_08_1603,CategoryLocalizer,2021.2.3,59.91898952707238,
47.8,48.0,5,0.0,Stimuli\Blank.png,0,0,0,72,72,72,,,,,,,,,,,,,47.826552399998036,0.026552399998038823,None,82.41060199999993,82.41060199999993,82.41060199999993,82.41060199999993,82.41060199999993,82.41060199999993,82.41060199999993,82.41060199999993,,003,P013,2025_Feb_08_1603,CategoryLocalizer,2021.2.3,59.91898952707238,
48.0,48.8,3,0.75,Stimuli\ImageFiles-Set1\Faces\Face_00018.png,0,0,0,73,73,73,,,,,,,,,,,,,48.02375459999894,0.02375459999893792,None,82.59403009999733,82.59403009999733,82.59403009999733,82.59403009999733,82.59403009999733,82.59403009999733,82.59403009999733,82.59403009999733,,003,P013,2025_Feb_08_1603,CategoryLocalizer,2021.2.3,59.91898952707238,
48.8,49.0,5,0.0,Stimuli\Blank.png,0,0,0,74,74,74,,,,,,,,,,,,,48.808361099996546,0.00836109999654866,None,83.3780560999985,83.3780560999985,83.3780560999985,83.3780560999985,83.3780560999985,83.3780560999985,83.3780560999985,83.3780560999985,,003,P013,2025_Feb_08_1603,CategoryLocalizer,2021.2.3,59.91898952707238,
49.0,49.8,3,0.75,Stimuli\ImageFiles-Set1\Faces\Face_00020.png,0,0,0,75,75,75,,,,,,,,,,,,,49.00859589999891,0.008595899998908862,None,83.57823839999764,83.57823839999764,83.57823839999764,83.57823839999764,83.57823839999764,83.57823839999764,83.57823839999764,83.57823839999764,,003,P013,2025_Feb_08_1603,CategoryLocalizer,2021.2.3,59.91898952707238,
49.8,50.0,5,0.0,Stimuli\Blank.png,0,0,0,76,76,76,,,,,,,,,,,,,49.810971699997026,0.01097169999702885,None,84.39676349999718,84.39676349999718,84.39676349999718,84.39676349999718,84.39676349999718,84.39676349999718,84.39676349999718,84.39676349999718,,003,P013,2025_Feb_08_1603,CategoryLocalizer,2021.2.3,59.91898952707238,
50.0,50.8,3,0.75,Stimuli\ImageFiles-Set1\Faces\Face_00039.png,0,0,0,77,77,77,,,,,,,,,,,,,50.02621499999805,0.02621499999804655,None,84.59581089999847,84.59581089999847,84.59581089999847,84.59581089999847,84.59581089999847,84.59581089999847,84.59581089999847,84.59581089999847,,003,P013,2025_Feb_08_1603,CategoryLocalizer,2021.2.3,59.91898952707238,
50.8,51.0,5,0.0,Stimuli\Blank.png,0,0,0,78,78,78,,,,,,,,,,,,,50.80997269999716,0.009972699997163659,None,85.37982419999753,85.37982419999753,85.37982419999753,85.37982419999753,85.37982419999753,85.37982419999753,85.37982419999753,85.37982419999753,,003,P013,2025_Feb_08_1603,CategoryLocalizer,2021.2.3,59.91898952707238,
51.0,51.8,3,0.75,Stimuli\ImageFiles-Set1\Faces\Face_00097.png,0,0,0,79,79,79,,,,,,,,,,,,,51.01235529999758,0.012355299997580005,None,85.59669599999688,85.59669599999688,85.59669599999688,85.59669599999688,85.59669599999688,85.59669599999688,85.59669599999688,85.59669599999688,,003,P013,2025_Feb_08_1603,CategoryLocalizer,2021.2.3,59.91898952707238,
51.8,52.0,5,0.0,Stimuli\Blank.png,0,0,0,80,80,80,,,,,,,,,,,,,51.8272094999993,0.027209499999301556,None,86.39736540000013,86.39736540000013,86.39736540000013,86.39736540000013,86.39736540000013,86.39736540000013,86.39736540000013,86.39736540000013,,003,P013,2025_Feb_08_1603,CategoryLocalizer,2021.2.3,59.91898952707238,
52.0,52.8,3,0.75,Stimuli\ImageFiles-Set1\Faces\Face_00067.png,0,0,0,81,81,81,,,,,,,,,,,,,52.010598399996525,0.010598399996524677,None,86.58086659999753,86.58086659999753,86.58086659999753,86.58086659999753,86.58086659999753,86.58086659999753,86.58086659999753,86.58086659999753,,003,P013,2025_Feb_08_1603,CategoryLocalizer,2021.2.3,59.91898952707238,
52.8,53.0,5,0.0,Stimuli\Blank.png,0,0,0,82,82,82,,,,,,,,,,,,,52.81148939999912,0.01148939999912102,None,87.38159999999698,87.38159999999698,87.38159999999698,87.38159999999698,87.38159999999698,87.38159999999698,87.38159999999698,87.38159999999698,,003,P013,2025_Feb_08_1603,CategoryLocalizer,2021.2.3,59.91898952707238,
53.0,53.8,3,0.75,Stimuli\ImageFiles-Set1\Faces\Face_00101.png,0,0,0,83,83,83,,,,,,,,,,,,,53.01273669999864,0.012736699998640688,None,87.5984669999998,87.5984669999998,87.5984669999998,87.5984669999998,87.5984669999998,87.5984669999998,87.5984669999998,87.5984669999998,,003,P013,2025_Feb_08_1603,CategoryLocalizer,2021.2.3,59.91898952707238,
53.8,54.0,5,0.0,Stimuli\Blank.png,0,0,0,84,84,84,,,,,,,,,,,,,53.8313135999997,0.03131359999970584,None,88.41585489999852,88.41585489999852,88.41585489999852,88.41585489999852,88.41585489999852,88.41585489999852,88.41585489999852,88.41585489999852,,003,P013,2025_Feb_08_1603,CategoryLocalizer,2021.2.3,59.91898952707238,
54.0,54.8,3,0.75,Stimuli\ImageFiles-Set1\Faces\Face_00093.png,0,0,0,85,85,85,,,,,,,,,,,,,54.03091739999945,0.030917399999452755,None,88.6160370999969,88.6160370999969,88.6160370999969,88.6160370999969,88.6160370999969,88.6160370999969,88.6160370999969,88.6160370999969,,003,P013,2025_Feb_08_1603,CategoryLocalizer,2021.2.3,59.91898952707238,
54.8,55.0,5,0.0,Stimuli\Blank.png,0,0,0,86,86,86,,,,,,,,,,,,,54.831666199999745,0.031666199999747846,None,89.41720119999809,89.41720119999809,89.41720119999809,89.41720119999809,89.41720119999809,89.41720119999809,89.41720119999809,89.41720119999809,,003,P013,2025_Feb_08_1603,CategoryLocalizer,2021.2.3,59.91898952707238,
55.0,55.8,3,0.75,Stimuli\ImageFiles-Set1\Faces\Face_00035.png,0,0,0,87,87,87,,,,,,,,,,,,,55.03054139999949,0.03054139999949257,None,89.61692009999751,89.61692009999751,89.61692009999751,89.61692009999751,89.61692009999751,89.61692009999751,89.61692009999751,89.61692009999751,,003,P013,2025_Feb_08_1603,CategoryLocalizer,2021.2.3,59.91898952707238,
55.8,56.0,5,0.0,Stimuli\Blank.png,0,0,0,88,88,88,,,,,,,,,,,,,55.83086619999813,0.030866199998129673,None,90.40093929999784,90.40093929999784,90.40093929999784,90.40093929999784,90.40093929999784,90.40093929999784,90.40093929999784,90.40093929999784,,003,P013,2025_Feb_08_1603,CategoryLocalizer,2021.2.3,59.91898952707238,
56.0,56.8,3,0.75,Stimuli\ImageFiles-Set1\Faces\Face_00065.png,0,0,0,89,89,89,,,,,,,,,,,,,56.01551969999855,0.015519699998549186,None,90.60112109999682,90.60112109999682,90.60112109999682,90.60112109999682,90.60112109999682,90.60112109999682,90.60112109999682,90.60112109999682,,003,P013,2025_Feb_08_1603,CategoryLocalizer,2021.2.3,59.91898952707238,
56.8,57.0,5,0.0,Stimuli\Blank.png,0,0,0,90,90,90,,,,,,,,,,,,,56.81594189999669,0.015941899996690267,None,91.38515649999681,91.38515649999681,91.38515649999681,91.38515649999681,91.38515649999681,91.38515649999681,91.38515649999681,91.38515649999681,,003,P013,2025_Feb_08_1603,CategoryLocalizer,2021.2.3,59.91898952707238,
57.0,57.8,3,0.75,Stimuli\ImageFiles-Set1\Faces\Face_00065.png,1,1,0,91,91,91,,,,,,,,,,,,,56.99835189999794,-0.0016481000020576175,1,91.56862989999718,91.56862989999718,91.56862989999718,91.56862989999718,91.56862989999718,91.56862989999718,91.56862989999718,91.56862989999718,0.4419123000006948,003,P013,2025_Feb_08_1603,CategoryLocalizer,2021.2.3,59.91898952707238,
57.8,58.0,5,0.0,Stimuli\Blank.png,0,0,0,92,92,92,,,,,,,,,,,,,57.80148169999666,0.0014816999966598132,None,92.38605949999692,92.38605949999692,92.38605949999692,92.38605949999692,92.38605949999692,92.38605949999692,92.38605949999692,92.38605949999692,,003,P013,2025_Feb_08_1603,CategoryLocalizer,2021.2.3,59.91898952707238,
58.0,58.8,3,0.75,Stimuli\ImageFiles-Set1\Faces\Face_00045.png,0,0,0,93,93,93,,,,,,,,,,,,,58.016065899999376,0.016065899999375688,None,92.58619369999724,92.58619369999724,92.58619369999724,92.58619369999724,92.58619369999724,92.58619369999724,92.58619369999724,92.58619369999724,,003,P013,2025_Feb_08_1603,CategoryLocalizer,2021.2.3,59.91898952707238,
58.8,59.0,5,0.0,Stimuli\Blank.png,0,0,0,94,94,94,,,,,,,,,,,,,58.801198599998315,0.0011985999983181728,None,93.37023429999681,93.37023429999681,93.37023429999681,93.37023429999681,93.37023429999681,93.37023429999681,93.37023429999681,93.37023429999681,,003,P013,2025_Feb_08_1603,CategoryLocalizer,2021.2.3,59.91898952707238,
59.0,59.8,3,0.75,Stimuli\ImageFiles-Set1\Faces\Face_00115.png,0,0,0,95,95,95,,,,,,,,,,,,,59.00096709999707,0.0009670999970694538,None,93.58709979999912,93.58709979999912,93.58709979999912,93.58709979999912,93.58709979999912,93.58709979999912,93.58709979999912,93.58709979999912,,003,P013,2025_Feb_08_1603,CategoryLocalizer,2021.2.3,59.91898952707238,
59.8,60.0,5,0.0,Stimuli\Blank.png,0,0,0,96,96,96,,,,,,,,,,,,,59.81761529999858,0.01761529999858169,None,94.3877943999978,94.3877943999978,94.3877943999978,94.3877943999978,94.3877943999978,94.3877943999978,94.3877943999978,94.3877943999978,,003,P013,2025_Feb_08_1603,CategoryLocalizer,2021.2.3,59.91898952707238,
60.0,60.8,4,0.75,Stimuli\ImageFiles-Set1\Scenes\Scenes_024.png,0,0,0,97,97,97,,,,,,,,,,,,,60.000850299999,0.0008502999990014359,None,94.58799119999821,94.58799119999821,94.58799119999821,94.58799119999821,94.58799119999821,94.58799119999821,94.58799119999821,94.58799119999821,,003,P013,2025_Feb_08_1603,CategoryLocalizer,2021.2.3,59.91898952707238,
60.8,61.0,5,0.0,Stimuli\Blank.png,0,0,0,98,98,98,,,,,,,,,,,,,60.81835929999943,0.018359299999431755,None,95.38867679999748,95.38867679999748,95.38867679999748,95.38867679999748,95.38867679999748,95.38867679999748,95.38867679999748,95.38867679999748,,003,P013,2025_Feb_08_1603,CategoryLocalizer,2021.2.3,59.91898952707238,
61.0,61.8,4,0.75,Stimuli\ImageFiles-Set1\Scenes\Scenes_016.png,0,0,0,99,99,99,,,,,,,,,,,,,61.00194579999879,0.0019457999987935182,None,95.5888767999968,95.5888767999968,95.5888767999968,95.5888767999968,95.5888767999968,95.5888767999968,95.5888767999968,95.5888767999968,,003,P013,2025_Feb_08_1603,CategoryLocalizer,2021.2.3,59.91898952707238,
61.8,62.0,5,0.0,Stimuli\Blank.png,0,0,0,100,100,100,,,,,,,,,,,,,61.8220674999975,0.02206749999750457,None,96.40624989999924,96.40624989999924,96.40624989999924,96.40624989999924,96.40624989999924,96.40624989999924,96.40624989999924,96.40624989999924,,003,P013,2025_Feb_08_1603,CategoryLocalizer,2021.2.3,59.91898952707238,
62.0,62.8,4,0.75,Stimuli\ImageFiles-Set1\Scenes\Scenes_035.png,0,0,0,101,101,101,,,,,,,,,,,,,62.02144199999748,0.02144199999747798,None,96.60641819999728,96.60641819999728,96.60641819999728,96.60641819999728,96.60641819999728,96.60641819999728,96.60641819999728,96.60641819999728,,003,P013,2025_Feb_08_1603,CategoryLocalizer,2021.2.3,59.91898952707238,
62.8,63.0,5,0.0,Stimuli\Blank.png,0,0,0,102,102,102,,,,,,,,,,,,,62.82068539999818,0.02068539999818597,None,97.39045139999871,97.39045139999871,97.39045139999871,97.39045139999871,97.39045139999871,97.39045139999871,97.39045139999871,97.39045139999871,,003,P013,2025_Feb_08_1603,CategoryLocalizer,2021.2.3,59.91898952707238,
63.0,63.8,4,0.75,Stimuli\ImageFiles-Set1\Scenes\Scenes_032.png,0,0,0,103,103,103,,,,,,,,,,,,,63.003646899996966,0.003646899996965658,None,97.57395529999849,97.57395529999849,97.57395529999849,97.57395529999849,97.57395529999849,97.57395529999849,97.57395529999849,97.57395529999849,,003,P013,2025_Feb_08_1603,CategoryLocalizer,2021.2.3,59.91898952707238,
63.8,64.0,5,0.0,Stimuli\Blank.png,0,0,0,104,104,104,,,,,,,,,,,,,63.80627909999748,0.006279099997485105,None,98.39135309999983,98.39135309999983,98.39135309999983,98.39135309999983,98.39135309999983,98.39135309999983,98.39135309999983,98.39135309999983,,003,P013,2025_Feb_08_1603,CategoryLocalizer,2021.2.3,59.91898952707238,
64.0,64.8,4,0.75,Stimuli\ImageFiles-Set1\Scenes\Scenes_057.png,0,0,0,105,105,105,,,,,,,,,,,,,64.0218982999977,0.021898299997701542,None,98.60833429999911,98.60833429999911,98.60833429999911,98.60833429999911,98.60833429999911,98.60833429999911,98.60833429999911,98.60833429999911,,003,P013,2025_Feb_08_1603,CategoryLocalizer,2021.2.3,59.91898952707238,
64.8,65.0,5,0.0,Stimuli\Blank.png,0,0,0,106,106,106,,,,,,,,,,,,,64.82255409999925,0.022554099999254618,None,99.39324309999938,99.39324309999938,99.39324309999938,99.39324309999938,99.39324309999938,99.39324309999938,99.39324309999938,99.39324309999938,,003,P013,2025_Feb_08_1603,CategoryLocalizer,2021.2.3,59.91898952707238,
65.0,65.8,4,0.75,Stimuli\ImageFiles-Set1\Scenes\Scenes_057.png,1,1,0,107,107,107,,,,,,,,,,,,,65.00597039999775,0.005970399997750064,1,99.59239689999959,99.59239689999959,99.59239689999959,99.59239689999959,99.59239689999959,99.59239689999959,99.59239689999959,99.59239689999959,0.5279885999989347,003,P013,2025_Feb_08_1603,CategoryLocalizer,2021.2.3,59.91898952707238,
65.8,66.0,5,0.0,Stimuli\Blank.png,0,0,0,108,108,108,,,,,,,,,,,,,65.82297449999896,0.02297449999896628,None,100.39310789999945,100.39310789999945,100.39310789999945,100.39310789999945,100.39310789999945,100.39310789999945,100.39310789999945,100.39310789999945,,003,P013,2025_Feb_08_1603,CategoryLocalizer,2021.2.3,59.91898952707238,
66.0,66.8,4,0.75,Stimuli\ImageFiles-Set1\Scenes\Scenes_046.png,0,0,0,109,109,109,,,,,,,,,,,,,66.00685989999693,0.006859899996925378,None,100.59331469999961,100.59331469999961,100.59331469999961,100.59331469999961,100.59331469999961,100.59331469999961,100.59331469999961,100.59331469999961,,003,P013,2025_Feb_08_1603,CategoryLocalizer,2021.2.3,59.91898952707238,
66.8,67.0,5,0.0,Stimuli\Blank.png,0,0,0,110,110,110,,,,,,,,,,,,,66.82611039999756,0.02611039999756315,None,101.4106799000001,101.4106799000001,101.4106799000001,101.4106799000001,101.4106799000001,101.4106799000001,101.4106799000001,101.4106799000001,,003,P013,2025_Feb_08_1603,CategoryLocalizer,2021.2.3,59.91898952707238,
67.0,67.8,4,0.75,Stimuli\ImageFiles-Set1\Scenes\Scenes_038.png,0,0,0,111,111,111,,,,,,,,,,,,,67.02450919999683,0.0245091999968281,None,101.6113701999966,101.6113701999966,101.6113701999966,101.6113701999966,101.6113701999966,101.6113701999966,101.6113701999966,101.6113701999966,,003,P013,2025_Feb_08_1603,CategoryLocalizer,2021.2.3,59.91898952707238,
67.8,68.0,5,0.0,Stimuli\Blank.png,0,0,0,112,112,112,,,,,,,,,,,,,67.82646859999659,0.02646859999659057,None,102.41158229999928,102.41158229999928,102.41158229999928,102.41158229999928,102.41158229999928,102.41158229999928,102.41158229999928,102.41158229999928,,003,P013,2025_Feb_08_1603,CategoryLocalizer,2021.2.3,59.91898952707238,
68.0,68.8,4,0.75,Stimuli\ImageFiles-Set1\Scenes\Scenes_041.png,0,0,0,113,113,113,,,,,,,,,,,,,68.02709419999883,0.027094199998828117,None,102.61173789999884,102.61173789999884,102.61173789999884,102.61173789999884,102.61173789999884,102.61173789999884,102.61173789999884,102.61173789999884,,003,P013,2025_Feb_08_1603,CategoryLocalizer,2021.2.3,59.91898952707238,
68.8,69.0,5,0.0,Stimuli\Blank.png,0,0,0,114,114,114,,,,,,,,,,,,,68.82604050000009,0.026040500000092948,None,103.39576499999748,103.39576499999748,103.39576499999748,103.39576499999748,103.39576499999748,103.39576499999748,103.39576499999748,103.39576499999748,,003,P013,2025_Feb_08_1603,CategoryLocalizer,2021.2.3,59.91898952707238,
69.0,69.8,4,0.75,Stimuli\ImageFiles-Set1\Scenes\Scenes_022.png,0,0,0,115,115,115,,,,,,,,,,,,,69.01086399999986,0.010863999999855878,None,103.59595599999739,103.59595599999739,103.59595599999739,103.59595599999739,103.59595599999739,103.59595599999739,103.59595599999739,103.59595599999739,,003,P013,2025_Feb_08_1603,CategoryLocalizer,2021.2.3,59.91898952707238,
69.8,70.0,5,0.0,Stimuli\Blank.png,0,0,0,116,116,116,,,,,,,,,,,,,69.8269853999991,0.026985399999105653,None,104.39665609999793,104.39665609999793,104.39665609999793,104.39665609999793,104.39665609999793,104.39665609999793,104.39665609999793,104.39665609999793,,003,P013,2025_Feb_08_1603,CategoryLocalizer,2021.2.3,59.91898952707238,
70.0,70.8,4,0.75,Stimuli\ImageFiles-Set1\Scenes\Scenes_028.png,0,0,0,117,117,117,,,,,,,,,,,,,70.0116154999996,0.011615499999606982,None,104.59683179999774,104.59683179999774,104.59683179999774,104.59683179999774,104.59683179999774,104.59683179999774,104.59683179999774,104.59683179999774,,003,P013,2025_Feb_08_1603,CategoryLocalizer,2021.2.3,59.91898952707238,
70.8,71.0,5,0.0,Stimuli\Blank.png,0,0,0,118,118,118,,,,,,,,,,,,,70.82725369999753,0.027253699997530134,None,105.39753070000006,105.39753070000006,105.39753070000006,105.39753070000006,105.39753070000006,105.39753070000006,105.39753070000006,105.39753070000006,,003,P013,2025_Feb_08_1603,CategoryLocalizer,2021.2.3,59.91898952707238,
71.0,71.8,4,0.75,Stimuli\ImageFiles-Set1\Scenes\Scenes_008.png,0,0,0,119,119,119,,,,,,,,,,,,,71.01159489999918,0.011594899999181507,None,105.597706499997,105.597706499997,105.597706499997,105.597706499997,105.597706499997,105.597706499997,105.597706499997,105.597706499997,,003,P013,2025_Feb_08_1603,CategoryLocalizer,2021.2.3,59.91898952707238,
71.8,72.0,5,0.0,Stimuli\Blank.png,0,0,0,120,120,120,,,,,,,,,,,,,71.8288756999973,0.02887569999730033,None,106.3984234999989,106.3984234999989,106.3984234999989,106.3984234999989,106.3984234999989,106.3984234999989,106.3984234999989,106.3984234999989,,003,P013,2025_Feb_08_1603,CategoryLocalizer,2021.2.3,59.91898952707238,
72.0,72.8,4,0.75,Stimuli\ImageFiles-Set1\Scenes\Scenes_023.png,1,1,0,121,121,121,,,,,,,,,,,,,72.0121444999968,0.012144499996793456,None,106.5819070999969,106.5819070999969,106.5819070999969,106.5819070999969,106.5819070999969,106.5819070999969,106.5819070999969,106.5819070999969,,003,P013,2025_Feb_08_1603,CategoryLocalizer,2021.2.3,59.91898952707238,
72.8,73.0,5,0.0,Stimuli\Blank.png,0,0,0,122,122,122,,,,,,,,,,,,,72.81240969999999,0.012409699999992085,None,107.38262079999913,107.38262079999913,107.38262079999913,107.38262079999913,107.38262079999913,107.38262079999913,107.38262079999913,107.38262079999913,,003,P013,2025_Feb_08_1603,CategoryLocalizer,2021.2.3,59.91898952707238,
73.0,73.8,4,0.75,Stimuli\ImageFiles-Set1\Scenes\Scenes_004.png,0,0,0,123,123,123,,,,,,,,,,,,,73.0124302999975,0.012430299997504335,None,107.58281219999844,107.58281219999844,107.58281219999844,107.58281219999844,107.58281219999844,107.58281219999844,107.58281219999844,107.58281219999844,,003,P013,2025_Feb_08_1603,CategoryLocalizer,2021.2.3,59.91898952707238,
73.8,74.0,5,0.0,Stimuli\Blank.png,0,0,0,124,124,124,,,,,,,,,,,,,73.8145678999972,0.014567899997203426,None,108.3835102999983,108.3835102999983,108.3835102999983,108.3835102999983,108.3835102999983,108.3835102999983,108.3835102999983,108.3835102999983,,003,P013,2025_Feb_08_1603,CategoryLocalizer,2021.2.3,59.91898952707238,
74.0,74.8,4,0.75,Stimuli\ImageFiles-Set1\Scenes\Scenes_004.png,0,0,0,125,125,125,,,,,,,,,,,,,74.0159102999969,0.015910299996903632,1,108.60037999999986,108.60037999999986,108.60037999999986,108.60037999999986,108.60037999999986,108.60037999999986,108.60037999999986,108.60037999999986,0.4632325000020501,003,P013,2025_Feb_08_1603,CategoryLocalizer,2021.2.3,59.91898952707238,
74.8,75.0,5,0.0,Stimuli\Blank.png,0,0,0,126,126,126,,,,,,,,,,,,,74.81503849999717,0.015038499997174881,None,109.3843902999979,109.3843902999979,109.3843902999979,109.3843902999979,109.3843902999979,109.3843902999979,109.3843902999979,109.3843902999979,,003,P013,2025_Feb_08_1603,CategoryLocalizer,2021.2.3,59.91898952707238,
75.0,75.8,4,0.75,Stimuli\ImageFiles-Set1\Scenes\Scenes_014.png,0,0,0,127,127,127,,,,,,,,,,,,,75.01622729999872,0.01622729999871808,None,109.60125379999954,109.60125379999954,109.60125379999954,109.60125379999954,109.60125379999954,109.60125379999954,109.60125379999954,109.60125379999954,,003,P013,2025_Feb_08_1603,CategoryLocalizer,2021.2.3,59.91898952707238,
75.8,76.0,5,0.0,Stimuli\Blank.png,0,0,0,128,128,128,,,,,,,,,,,,,75.81582339999659,0.015823399996591547,None,110.38528779999979,110.38528779999979,110.38528779999979,110.38528779999979,110.38528779999979,110.38528779999979,110.38528779999979,110.38528779999979,,003,P013,2025_Feb_08_1603,CategoryLocalizer,2021.2.3,59.91898952707238,
76.0,88.0,0,0.0,Stimuli\Blank.png,0,0,0,129,129,129,,,,,,,,,,,,,75.99841809999998,-0.0015819000000192318,None,110.5687721999966,110.5687721999966,110.5687721999966,110.5687721999966,110.5687721999966,110.5687721999966,110.5687721999966,110.5687721999966,,003,P013,2025_Feb_08_1603,CategoryLocalizer,2021.2.3,59.91898952707238,
88.0,88.8,3,0.75,Stimuli\ImageFiles-Set1\Faces\Face_00063.png,0,0,0,130,130,130,,,,,,,,,,,,,88.01145909999832,0.011459099998319289,None,122.59608429999935,122.59608429999935,122.59608429999935,122.59608429999935,122.59608429999935,122.59608429999935,122.59608429999935,122.59608429999935,,003,P013,2025_Feb_08_1603,CategoryLocalizer,2021.2.3,59.91898952707238,
88.8,89.0,5,0.0,Stimuli\Blank.png,0,0,0,131,131,131,,,,,,,,,,,,,88.82728129999668,0.02728129999668738,None,123.39679469999828,123.39679469999828,123.39679469999828,123.39679469999828,123.39679469999828,123.39679469999828,123.39679469999828,123.39679469999828,,003,P013,2025_Feb_08_1603,CategoryLocalizer,2021.2.3,59.91898952707238,
89.0,89.8,3,0.75,Stimuli\ImageFiles-Set1\Faces\Face_00071.png,0,0,0,132,132,132,,,,,,,,,,,,,89.01079719999689,0.010797199996886775,None,123.59696059999987,123.59696059999987,123.59696059999987,123.59696059999987,123.59696059999987,123.59696059999987,123.59696059999987,123.59696059999987,,003,P013,2025_Feb_08_1603,CategoryLocalizer,2021.2.3,59.91898952707238,
89.8,90.0,5,0.0,Stimuli\Blank.png,0,0,0,133,133,133,,,,,,,,,,,,,89.82749389999663,0.0274938999966281,None,124.39763789999779,124.39763789999779,124.39763789999779,124.39763789999779,124.39763789999779,124.39763789999779,124.39763789999779,124.39763789999779,,003,P013,2025_Feb_08_1603,CategoryLocalizer,2021.2.3,59.91898952707238,
90.0,90.8,3,0.75,Stimuli\ImageFiles-Set1\Faces\Face_00071.png,1,1,0,134,134,134,,,,,,,,,,,,,90.01103669999793,0.011036699997930555,1,124.58116229999723,124.58116229999723,124.58116229999723,124.58116229999723,124.58116229999723,124.58116229999723,124.58116229999723,124.58116229999723,0.40941409999868483,003,P013,2025_Feb_08_1603,CategoryLocalizer,2021.2.3,59.91898952707238,
90.8,91.0,5,0.0,Stimuli\Blank.png,0,0,0,135,135,135,,,,,,,,,,,,,90.81218279999666,0.012182799996665494,None,125.38186819999828,125.38186819999828,125.38186819999828,125.38186819999828,125.38186819999828,125.38186819999828,125.38186819999828,125.38186819999828,,003,P013,2025_Feb_08_1603,CategoryLocalizer,2021.2.3,59.91898952707238,
91.0,91.8,3,0.75,Stimuli\ImageFiles-Set1\Faces\Face_00027.png,0,0,0,136,136,136,,,,,,,,,,,,,91.0118266999998,0.011826699999801349,None,125.59873309999966,125.59873309999966,125.59873309999966,125.59873309999966,125.59873309999966,125.59873309999966,125.59873309999966,125.59873309999966,,003,P013,2025_Feb_08_1603,CategoryLocalizer,2021.2.3,59.91898952707238,
91.8,92.0,5,0.0,Stimuli\Blank.png,0,0,0,137,137,137,,,,,,,,,,,,,91.8309855999978,0.03098559999780548,None,126.41614799999661,126.41614799999661,126.41614799999661,126.41614799999661,126.41614799999661,126.41614799999661,126.41614799999661,126.41614799999661,,003,P013,2025_Feb_08_1603,CategoryLocalizer,2021.2.3,59.91898952707238,
92.0,92.8,3,0.75,Stimuli\ImageFiles-Set1\Faces\Face_00119.png,0,0,0,138,138,138,,,,,,,,,,,,,92.03114209999694,0.031142099996941397,None,126.6163009999982,126.6163009999982,126.6163009999982,126.6163009999982,126.6163009999982,126.6163009999982,126.6163009999982,126.6163009999982,,003,P013,2025_Feb_08_1603,CategoryLocalizer,2021.2.3,59.91898952707238,
92.8,93.0,5,0.0,Stimuli\Blank.png,0,0,0,139,139,139,,,,,,,,,,,,,92.83055639999657,0.030556399996569894,None,127.40033239999684,127.40033239999684,127.40033239999684,127.40033239999684,127.40033239999684,127.40033239999684,127.40033239999684,127.40033239999684,,003,P013,2025_Feb_08_1603,CategoryLocalizer,2021.2.3,59.91898952707238,
93.0,93.8,3,0.75,Stimuli\ImageFiles-Set1\Faces\Face_00014.png,0,0,0,140,140,140,,,,,,,,,,,,,93.01594789999945,0.015947899999446236,None,127.60051039999962,127.60051039999962,127.60051039999962,127.60051039999962,127.60051039999962,127.60051039999962,127.60051039999962,127.60051039999962,,003,P013,2025_Feb_08_1603,CategoryLocalizer,2021.2.3,59.91898952707238,
93.8,94.0,5,0.0,Stimuli\Blank.png,0,0,0,141,141,141,,,,,,,,,,,,,93.81606889999966,0.01606889999966654,None,128.40123839999796,128.40123839999796,128.40123839999796,128.40123839999796,128.40123839999796,128.40123839999796,128.40123839999796,128.40123839999796,,003,P013,2025_Feb_08_1603,CategoryLocalizer,2021.2.3,59.91898952707238,
94.0,94.8,3,0.75,Stimuli\ImageFiles-Set1\Faces\Face_00113.png,0,0,0,142,142,142,,,,,,,,,,,,,94.01624699999957,0.01624699999956647,None,128.60138789999837,128.60138789999837,128.60138789999837,128.60138789999837,128.60138789999837,128.60138789999837,128.60138789999837,128.60138789999837,,003,P013,2025_Feb_08_1603,CategoryLocalizer,2021.2.3,59.91898952707238,
94.8,95.0,5,0.0,Stimuli\Blank.png,0,0,0,143,143,143,,,,,,,,,,,,,94.81615590000001,0.016155900000015322,None,129.3854257999992,129.3854257999992,129.3854257999992,129.3854257999992,129.3854257999992,129.3854257999992,129.3854257999992,129.3854257999992,,003,P013,2025_Feb_08_1603,CategoryLocalizer,2021.2.3,59.91898952707238,
95.0,95.8,3,0.75,Stimuli\ImageFiles-Set1\Faces\Face_00007.png,0,0,0,144,144,144,,,,,,,,,,,,,94.99858399999721,-0.0014160000027914066,None,129.5689010999995,129.5689010999995,129.5689010999995,129.5689010999995,129.5689010999995,129.5689010999995,129.5689010999995,129.5689010999995,,003,P013,2025_Feb_08_1603,CategoryLocalizer,2021.2.3,59.91898952707238,
95.8,96.0,5,0.0,Stimuli\Blank.png,0,0,0,145,145,145,,,,,,,,,,,,,95.80049589999908,0.0004958999990805069,None,130.36963329999708,130.36963329999708,130.36963329999708,130.36963329999708,130.36963329999708,130.36963329999708,130.36963329999708,130.36963329999708,,003,P013,2025_Feb_08_1603,CategoryLocalizer,2021.2.3,59.91898952707238,
96.0,96.8,3,0.75,Stimuli\ImageFiles-Set1\Faces\Face_00051.png,0,0,0,146,146,146,,,,,,,,,,,,,95.99949129999732,-0.0005087000026833266,None,130.56979939999655,130.56979939999655,130.56979939999655,130.56979939999655,130.56979939999655,130.56979939999655,130.56979939999655,130.56979939999655,,003,P013,2025_Feb_08_1603,CategoryLocalizer,2021.2.3,59.91898952707238,
96.8,97.0,5,0.0,Stimuli\Blank.png,0,0,0,147,147,147,,,,,,,,,,,,,96.80141779999758,0.001417799997582847,None,131.37051269999938,131.37051269999938,131.37051269999938,131.37051269999938,131.37051269999938,131.37051269999938,131.37051269999938,131.37051269999938,,003,P013,2025_Feb_08_1603,CategoryLocalizer,2021.2.3,59.91898952707238,
97.0,97.8,3,0.75,Stimuli\ImageFiles-Set1\Faces\Face_00053.png,0,0,0,148,148,148,,,,,,,,,,,,,97.00232989999859,0.0023298999985854607,None,131.58736969999882,131.58736969999882,131.58736969999882,131.58736969999882,131.58736969999882,131.58736969999882,131.58736969999882,131.58736969999882,,003,P013,2025_Feb_08_1603,CategoryLocalizer,2021.2.3,59.91898952707238,
97.8,98.0,5,0.0,Stimuli\Blank.png,0,0,0,149,149,149,,,,,,,,,,,,,97.8185577999975,0.018557799997509505,None,132.38807749999978,132.38807749999978,132.38807749999978,132.38807749999978,132.38807749999978,132.38807749999978,132.38807749999978,132.38807749999978,,003,P013,2025_Feb_08_1603,CategoryLocalizer,2021.2.3,59.91898952707238,
98.0,98.8,3,0.75,Stimuli\ImageFiles-Set1\Faces\Face_00025.png,0,0,0,150,150,150,,,,,,,,,,,,,98.00127729999804,0.0012772999980370514,None,132.57155789999888,132.57155789999888,132.57155789999888,132.57155789999888,132.57155789999888,132.57155789999888,132.57155789999888,132.57155789999888,,003,P013,2025_Feb_08_1603,CategoryLocalizer,2021.2.3,59.91898952707238,
98.8,99.0,5,0.0,Stimuli\Blank.png,0,0,0,151,151,151,,,,,,,,,,,,,98.80198439999731,0.0019843999973119253,None,133.37227409999832,133.37227409999832,133.37227409999832,133.37227409999832,133.37227409999832,133.37227409999832,133.37227409999832,133.37227409999832,,003,P013,2025_Feb_08_1603,CategoryLocalizer,2021.2.3,59.91898952707238,
99.0,99.8,3,0.75,Stimuli\ImageFiles-Set1\Faces\Face_00069.png,0,0,0,152,152,152,,,,,,,,,,,,,99.00235279999833,0.002352799998334376,None,133.58915879999768,133.58915879999768,133.58915879999768,133.58915879999768,133.58915879999768,133.58915879999768,133.58915879999768,133.58915879999768,,003,P013,2025_Feb_08_1603,CategoryLocalizer,2021.2.3,59.91898952707238,
99.8,100.0,5,0.0,Stimuli\Blank.png,0,0,0,153,153,153,,,,,,,,,,,,,99.82230319999871,0.022303199998717105,None,134.40658379999877,134.40658379999877,134.40658379999877,134.40658379999877,134.40658379999877,134.40658379999877,134.40658379999877,134.40658379999877,,003,P013,2025_Feb_08_1603,CategoryLocalizer,2021.2.3,59.91898952707238,
100.0,100.8,3,0.75,Stimuli\ImageFiles-Set1\Faces\Face_00057.png,0,0,0,154,154,154,,,,,,,,,,,,,100.02097719999801,0.02097719999801484,None,134.5900318999993,134.5900318999993,134.5900318999993,134.5900318999993,134.5900318999993,134.5900318999993,134.5900318999993,134.5900318999993,,003,P013,2025_Feb_08_1603,CategoryLocalizer,2021.2.3,59.91898952707238,
100.8,101.0,5,0.0,Stimuli\Blank.png,0,0,0,155,155,155,,,,,,,,,,,,,100.80449479999879,0.004494799998795429,None,135.37405299999955,135.37405299999955,135.37405299999955,135.37405299999955,135.37405299999955,135.37405299999955,135.37405299999955,135.37405299999955,,003,P013,2025_Feb_08_1603,CategoryLocalizer,2021.2.3,59.91898952707238,
101.0,101.8,3,0.75,Stimuli\ImageFiles-Set1\Faces\Face_00107.png,0,0,0,156,156,156,,,,,,,,,,,,,101.00599189999775,0.0059918999977526255,None,135.59091019999687,135.59091019999687,135.59091019999687,135.59091019999687,135.59091019999687,135.59091019999687,135.59091019999687,135.59091019999687,,003,P013,2025_Feb_08_1603,CategoryLocalizer,2021.2.3,59.91898952707238,
101.8,102.0,5,0.0,Stimuli\Blank.png,0,0,0,157,157,157,,,,,,,,,,,,,101.82235819999914,0.022358199999146677,None,136.39160749999792,136.39160749999792,136.39160749999792,136.39160749999792,136.39160749999792,136.39160749999792,136.39160749999792,136.39160749999792,,003,P013,2025_Feb_08_1603,CategoryLocalizer,2021.2.3,59.91898952707238,
102.0,102.8,3,0.75,Stimuli\ImageFiles-Set1\Faces\Face_00061.png,0,0,0,158,158,158,,,,,,,,,,,,,102.00481089999812,0.004810899998119567,None,136.57509819999905,136.57509819999905,136.57509819999905,136.57509819999905,136.57509819999905,136.57509819999905,136.57509819999905,136.57509819999905,,003,P013,2025_Feb_08_1603,CategoryLocalizer,2021.2.3,59.91898952707238,
102.8,103.0,5,0.0,Stimuli\Blank.png,0,0,0,159,159,159,,,,,,,,,,,,,102.80561630000011,0.005616300000113483,None,137.37580539999908,137.37580539999908,137.37580539999908,137.37580539999908,137.37580539999908,137.37580539999908,137.37580539999908,137.37580539999908,,003,P013,2025_Feb_08_1603,CategoryLocalizer,2021.2.3,59.91898952707238,
103.0,103.8,3,0.75,Stimuli\ImageFiles-Set1\Faces\Face_00022.png,0,0,0,160,160,160,,,,,,,,,,,,,103.00670529999843,0.006705299998429837,None,137.59267209999962,137.59267209999962,137.59267209999962,137.59267209999962,137.59267209999962,137.59267209999962,137.59267209999962,137.59267209999962,,003,P013,2025_Feb_08_1603,CategoryLocalizer,2021.2.3,59.91898952707238,
103.8,104.0,5,0.0,Stimuli\Blank.png,0,0,0,161,161,161,,,,,,,,,,,,,103.82394789999671,0.023947899996713318,None,138.39345839999805,138.39345839999805,138.39345839999805,138.39345839999805,138.39345839999805,138.39345839999805,138.39345839999805,138.39345839999805,,003,P013,2025_Feb_08_1603,CategoryLocalizer,2021.2.3,59.91898952707238,
104.0,104.8,1,0.75,Stimuli\ImageFiles-Set1\Objects\Object_Bed_00001.png,0,0,0,162,162,162,,,,,,,,,,,,,104.00753229999827,0.007532299998274539,None,138.59426959999837,138.59426959999837,138.59426959999837,138.59426959999837,138.59426959999837,138.59426959999837,138.59426959999837,138.59426959999837,,003,P013,2025_Feb_08_1603,CategoryLocalizer,2021.2.3,59.91898952707238,
104.8,105.0,5,0.0,Stimuli\Blank.png,0,0,0,163,163,163,,,,,,,,,,,,,104.82492339999953,0.024923399999536855,None,139.39427799999976,139.39427799999976,139.39427799999976,139.39427799999976,139.39427799999976,139.39427799999976,139.39427799999976,139.39427799999976,,003,P013,2025_Feb_08_1603,CategoryLocalizer,2021.2.3,59.91898952707238,
105.0,105.8,1,0.75,Stimuli\ImageFiles-Set1\Objects\Object_Sock_00001.png,0,0,0,164,164,164,,,,,,,,,,,,,105.0080848999969,0.008084899996902095,None,139.57780229999844,139.57780229999844,139.57780229999844,139.57780229999844,139.57780229999844,139.57780229999844,139.57780229999844,139.57780229999844,,003,P013,2025_Feb_08_1603,CategoryLocalizer,2021.2.3,59.91898952707238,
105.8,106.0,5,0.0,Stimuli\Blank.png,0,0,0,165,165,165,,,,,,,,,,,,,105.8082665999973,0.00826659999729884,None,140.3784781999966,140.3784781999966,140.3784781999966,140.3784781999966,140.3784781999966,140.3784781999966,140.3784781999966,140.3784781999966,,003,P013,2025_Feb_08_1603,CategoryLocalizer,2021.2.3,59.91898952707238,
106.0,106.8,1,0.75,Stimuli\ImageFiles-Set1\Objects\Object_Book_00001.png,0,0,0,166,166,166,,,,,,,,,,,,,106.00856769999882,0.008567699998820899,None,140.57863639999778,140.57863639999778,140.57863639999778,140.57863639999778,140.57863639999778,140.57863639999778,140.57863639999778,140.57863639999778,,003,P013,2025_Feb_08_1603,CategoryLocalizer,2021.2.3,59.91898952707238,
106.8,107.0,5,0.0,Stimuli\Blank.png,0,0,0,167,167,167,,,,,,,,,,,,,106.80990239999664,0.00990239999664766,None,141.37938179999765,141.37938179999765,141.37938179999765,141.37938179999765,141.37938179999765,141.37938179999765,141.37938179999765,141.37938179999765,,003,P013,2025_Feb_08_1603,CategoryLocalizer,2021.2.3,59.91898952707238,
107.0,107.8,1,0.75,Stimuli\ImageFiles-Set1\Objects\Object_IroningBoard_00001.png,0,0,0,168,168,168,,,,,,,,,,,,,107.01114689999667,0.01114689999667462,None,141.59621149999657,141.59621149999657,141.59621149999657,141.59621149999657,141.59621149999657,141.59621149999657,141.59621149999657,141.59621149999657,,003,P013,2025_Feb_08_1603,CategoryLocalizer,2021.2.3,59.91898952707238,
107.8,108.0,5,0.0,Stimuli\Blank.png,0,0,0,169,169,169,,,,,,,,,,,,,107.82657629999812,0.026576299998126274,None,142.39691669999957,142.39691669999957,142.39691669999957,142.39691669999957,142.39691669999957,142.39691669999957,142.39691669999957,142.39691669999957,,003,P013,2025_Feb_08_1603,CategoryLocalizer,2021.2.3,59.91898952707238,
108.0,108.8,1,0.75,Stimuli\ImageFiles-Set1\Objects\Object_Brush_00001.png,0,0,0,170,170,170,,,,,,,,,,,,,108.01108649999878,0.011086499998782529,None,142.58041369999773,142.58041369999773,142.58041369999773,142.58041369999773,142.58041369999773,142.58041369999773,142.58041369999773,142.58041369999773,,003,P013,2025_Feb_08_1603,CategoryLocalizer,2021.2.3,59.91898952707238,
108.8,109.0,5,0.0,Stimuli\Blank.png,0,0,0,171,171,171,,,,,,,,,,,,,108.81155859999853,0.011558599998537034,None,143.38112209999963,143.38112209999963,143.38112209999963,143.38112209999963,143.38112209999963,143.38112209999963,143.38112209999963,143.38112209999963,,003,P013,2025_Feb_08_1603,CategoryLocalizer,2021.2.3,59.91898952707238,
109.0,109.8,1,0.75,Stimuli\ImageFiles-Set1\Objects\Object_Chest_00001.png,0,0,0,172,172,172,,,,,,,,,,,,,109.01313440000013,0.013134400000126334,None,143.5813051999976,143.5813051999976,143.5813051999976,143.5813051999976,143.5813051999976,143.5813051999976,143.5813051999976,143.5813051999976,,003,P013,2025_Feb_08_1603,CategoryLocalizer,2021.2.3,59.91898952707238,
109.8,110.0,5,0.0,Stimuli\Blank.png,0,0,0,173,173,173,,,,,,,,,,,,,109.81228269999701,0.012282699997015811,None,144.38201019999906,144.38201019999906,144.38201019999906,144.38201019999906,144.38201019999906,144.38201019999906,144.38201019999906,144.38201019999906,,003,P013,2025_Feb_08_1603,CategoryLocalizer,2021.2.3,59.91898952707238,
110.0,110.8,1,0.75,Stimuli\ImageFiles-Set1\Objects\Object_Lamp_00001.png,0,0,0,174,174,174,,,,,,,,,,,,,110.01190099999803,0.011900999998033512,None,144.58218080000006,144.58218080000006,144.58218080000006,144.58218080000006,144.58218080000006,144.58218080000006,144.58218080000006,144.58218080000006,,003,P013,2025_Feb_08_1603,CategoryLocalizer,2021.2.3,59.91898952707238,
110.8,111.0,5,0.0,Stimuli\Blank.png,0,0,0,175,175,175,,,,,,,,,,,,,110.81270049999875,0.012700499998757664,None,145.38289319999967,145.38289319999967,145.38289319999967,145.38289319999967,145.38289319999967,145.38289319999967,145.38289319999967,145.38289319999967,,003,P013,2025_Feb_08_1603,CategoryLocalizer,2021.2.3,59.91898952707238,
111.0,111.8,1,0.75,Stimuli\ImageFiles-Set1\Objects\Object_Tool_00001.png,0,0,0,176,176,176,,,,,,,,,,,,,111.01344059999974,0.013440599999739788,None,145.59976279999682,145.59976279999682,145.59976279999682,145.59976279999682,145.59976279999682,145.59976279999682,145.59976279999682,145.59976279999682,,003,P013,2025_Feb_08_1603,CategoryLocalizer,2021.2.3,59.91898952707238,
111.8,112.0,5,0.0,Stimuli\Blank.png,0,0,0,177,177,177,,,,,,,,,,,,,111.8307367999987,0.030736799998706488,None,146.40048129999923,146.40048129999923,146.40048129999923,146.40048129999923,146.40048129999923,146.40048129999923,146.40048129999923,146.40048129999923,,003,P013,2025_Feb_08_1603,CategoryLocalizer,2021.2.3,59.91898952707238,
112.0,112.8,1,0.75,Stimuli\ImageFiles-Set1\Objects\Object_Pizza_00001.png,0,0,0,178,178,178,,,,,,,,,,,,,112.0147444999966,0.01474449999659555,None,146.58395279999968,146.58395279999968,146.58395279999968,146.58395279999968,146.58395279999968,146.58395279999968,146.58395279999968,146.58395279999968,,003,P013,2025_Feb_08_1603,CategoryLocalizer,2021.2.3,59.91898952707238,
112.8,113.0,5,0.0,Stimuli\Blank.png,0,0,0,179,179,179,,,,,,,,,,,,,112.81644210000013,0.01644210000013402,None,147.40134879999823,147.40134879999823,147.40134879999823,147.40134879999823,147.40134879999823,147.40134879999823,147.40134879999823,147.40134879999823,,003,P013,2025_Feb_08_1603,CategoryLocalizer,2021.2.3,59.91898952707238,
113.0,113.8,1,0.75,Stimuli\ImageFiles-Set1\Objects\Object_Wagon_00001.png,0,0,0,180,180,180,,,,,,,,,,,,,113.01496499999848,0.014964999998483108,None,147.58484979999776,147.58484979999776,147.58484979999776,147.58484979999776,147.58484979999776,147.58484979999776,147.58484979999776,147.58484979999776,,003,P013,2025_Feb_08_1603,CategoryLocalizer,2021.2.3,59.91898952707238,
113.8,114.0,5,0.0,Stimuli\Blank.png,0,0,0,181,181,181,,,,,,,,,,,,,113.79925869999715,-0.000741300002843559,None,148.36888129999716,148.36888129999716,148.36888129999716,148.36888129999716,148.36888129999716,148.36888129999716,148.36888129999716,148.36888129999716,,003,P013,2025_Feb_08_1603,CategoryLocalizer,2021.2.3,59.91898952707238,
114.0,114.8,1,0.75,Stimuli\ImageFiles-Set1\Objects\Object_Knife_00001.png,0,0,0,182,182,182,,,,,,,,,,,,,113.99971729999743,-0.0002827000025718007,None,148.56903909999892,148.56903909999892,148.56903909999892,148.56903909999892,148.56903909999892,148.56903909999892,148.56903909999892,148.56903909999892,,003,P013,2025_Feb_08_1603,CategoryLocalizer,2021.2.3,59.91898952707238,
114.8,115.0,5,0.0,Stimuli\Blank.png,0,0,0,183,183,183,,,,,,,,,,,,,114.80011709999962,0.0001170999996276123,None,149.3697601999993,149.3697601999993,149.3697601999993,149.3697601999993,149.3697601999993,149.3697601999993,149.3697601999993,149.3697601999993,,003,P013,2025_Feb_08_1603,CategoryLocalizer,2021.2.3,59.91898952707238,
115.0,115.8,1,0.75,Stimuli\ImageFiles-Set1\Objects\Object_Shirt_00001.png,0,0,0,184,184,184,,,,,,,,,,,,,115.00135809999847,0.0013580999984696973,None,149.58661669999856,149.58661669999856,149.58661669999856,149.58661669999856,149.58661669999856,149.58661669999856,149.58661669999856,149.58661669999856,,003,P013,2025_Feb_08_1603,CategoryLocalizer,2021.2.3,59.91898952707238,
115.8,116.0,5,0.0,Stimuli\Blank.png,0,0,0,185,185,185,,,,,,,,,,,,,115.81700439999986,0.017004399999862585,None,150.38732159999927,150.38732159999927,150.38732159999927,150.38732159999927,150.38732159999927,150.38732159999927,150.38732159999927,150.38732159999927,,003,P013,2025_Feb_08_1603,CategoryLocalizer,2021.2.3,59.91898952707238,
116.0,116.8,1,0.75,Stimuli\ImageFiles-Set1\Objects\Object_Ring_00001.png,0,0,0,186,186,186,,,,,,,,,,,,,116.0005044999998,0.0005044999998062849,None,150.57080989999668,150.57080989999668,150.57080989999668,150.57080989999668,150.57080989999668,150.57080989999668,150.57080989999668,150.57080989999668,,003,P013,2025_Feb_08_1603,CategoryLocalizer,2021.2.3,59.91898952707238,
116.8,117.0,5,0.0,Stimuli\Blank.png,0,0,0,187,187,187,,,,,,,,,,,,,116.80105139999796,0.0010513999979622213,None,151.37153619999663,151.37153619999663,151.37153619999663,151.37153619999663,151.37153619999663,151.37153619999663,151.37153619999663,151.37153619999663,,003,P013,2025_Feb_08_1603,CategoryLocalizer,2021.2.3,59.91898952707238,
117.0,117.8,1,0.75,Stimuli\ImageFiles-Set1\Objects\Object_Apple_00001.png,0,0,0,188,188,188,,,,,,,,,,,,,117.00198469999668,0.001984699996683048,None,151.5883615999992,151.5883615999992,151.5883615999992,151.5883615999992,151.5883615999992,151.5883615999992,151.5883615999992,151.5883615999992,,003,P013,2025_Feb_08_1603,CategoryLocalizer,2021.2.3,59.91898952707238,
117.8,118.0,5,0.0,Stimuli\Blank.png,0,0,0,189,189,189,,,,,,,,,,,,,117.81870609999896,0.018706099998965442,None,152.38909819999753,152.38909819999753,152.38909819999753,152.38909819999753,152.38909819999753,152.38909819999753,152.38909819999753,152.38909819999753,,003,P013,2025_Feb_08_1603,CategoryLocalizer,2021.2.3,59.91898952707238,
118.0,118.8,1,0.75,Stimuli\ImageFiles-Set1\Objects\Object_Apple_00001.png,1,1,0,190,190,190,,,,,,,,,,,,,118.00294679999934,0.0029467999993357807,1,152.572591199998,152.572591199998,152.572591199998,152.572591199998,152.572591199998,152.572591199998,152.572591199998,152.572591199998,0.297981499999878,003,P013,2025_Feb_08_1603,CategoryLocalizer,2021.2.3,59.91898952707238,
118.8,119.0,5,0.0,Stimuli\Blank.png,0,0,0,191,191,191,,,,,,,,,,,,,118.80323059999864,0.003230599998644834,None,153.37329679999675,153.37329679999675,153.37329679999675,153.37329679999675,153.37329679999675,153.37329679999675,153.37329679999675,153.37329679999675,,003,P013,2025_Feb_08_1603,CategoryLocalizer,2021.2.3,59.91898952707238,
119.0,119.8,1,0.75,Stimuli\ImageFiles-Set1\Objects\Object_Pot_00001.png,0,0,0,192,192,192,,,,,,,,,,,,,119.00395589999971,0.0039558999997098,None,153.59012019999864,153.59012019999864,153.59012019999864,153.59012019999864,153.59012019999864,153.59012019999864,153.59012019999864,153.59012019999864,,003,P013,2025_Feb_08_1603,CategoryLocalizer,2021.2.3,59.91898952707238,
119.8,120.0,5,0.0,Stimuli\Blank.png,0,0,0,193,193,193,,,,,,,,,,,,,119.82107269999688,0.02107269999687844,None,154.3908636999986,154.3908636999986,154.3908636999986,154.3908636999986,154.3908636999986,154.3908636999986,154.3908636999986,154.3908636999986,,003,P013,2025_Feb_08_1603,CategoryLocalizer,2021.2.3,59.91898952707238,
120.0,120.8,4,0.75,Stimuli\ImageFiles-Set1\Scenes\Scenes_012.png,0,0,0,194,194,194,,,,,,,,,,,,,120.00500779999857,0.005007799998566043,None,154.57435329999862,154.57435329999862,154.57435329999862,154.57435329999862,154.57435329999862,154.57435329999862,154.57435329999862,154.57435329999862,,003,P013,2025_Feb_08_1603,CategoryLocalizer,2021.2.3,59.91898952707238,
120.8,121.0,5,0.0,Stimuli\Blank.png,0,0,0,195,195,195,,,,,,,,,,,,,120.80778729999656,0.0077872999965649115,None,155.39175609999802,155.39175609999802,155.39175609999802,155.39175609999802,155.39175609999802,155.39175609999802,155.39175609999802,155.39175609999802,,003,P013,2025_Feb_08_1603,CategoryLocalizer,2021.2.3,59.91898952707238,
121.0,121.8,4,0.75,Stimuli\ImageFiles-Set1\Scenes\Scenes_015.png,0,0,0,196,196,196,,,,,,,,,,,,,121.02212309999959,0.022123099999589613,None,155.6086116999977,155.6086116999977,155.6086116999977,155.6086116999977,155.6086116999977,155.6086116999977,155.6086116999977,155.6086116999977,,003,P013,2025_Feb_08_1603,CategoryLocalizer,2021.2.3,59.91898952707238,
121.8,122.0,5,0.0,Stimuli\Blank.png,0,0,0,197,197,197,,,,,,,,,,,,,121.82232119999753,0.02232119999753479,None,156.39263329999812,156.39263329999812,156.39263329999812,156.39263329999812,156.39263329999812,156.39263329999812,156.39263329999812,156.39263329999812,,003,P013,2025_Feb_08_1603,CategoryLocalizer,2021.2.3,59.91898952707238,
122.0,122.8,4,0.75,Stimuli\ImageFiles-Set1\Scenes\Scenes_060.png,0,0,0,198,198,198,,,,,,,,,,,,,122.00630859999728,0.006308599997282727,None,156.57611809999798,156.57611809999798,156.57611809999798,156.57611809999798,156.57611809999798,156.57611809999798,156.57611809999798,156.57611809999798,,003,P013,2025_Feb_08_1603,CategoryLocalizer,2021.2.3,59.91898952707238,
122.8,123.0,5,0.0,Stimuli\Blank.png,0,0,0,199,199,199,,,,,,,,,,,,,122.80750649999754,0.007506499997546712,None,157.37683279999692,157.37683279999692,157.37683279999692,157.37683279999692,157.37683279999692,157.37683279999692,157.37683279999692,157.37683279999692,,003,P013,2025_Feb_08_1603,CategoryLocalizer,2021.2.3,59.91898952707238,
123.0,123.8,4,0.75,Stimuli\ImageFiles-Set1\Scenes\Scenes_033.png,0,0,0,200,200,200,,,,,,,,,,,,,123.00672959999793,0.0067295999979251064,None,157.5937251999967,157.5937251999967,157.5937251999967,157.5937251999967,157.5937251999967,157.5937251999967,157.5937251999967,157.5937251999967,,003,P013,2025_Feb_08_1603,CategoryLocalizer,2021.2.3,59.91898952707238,
123.8,124.0,5,0.0,Stimuli\Blank.png,0,0,0,201,201,201,,,,,,,,,,,,,123.82613839999976,0.026138399999766193,None,158.41111309999906,158.41111309999906,158.41111309999906,158.41111309999906,158.41111309999906,158.41111309999906,158.41111309999906,158.41111309999906,,003,P013,2025_Feb_08_1603,CategoryLocalizer,2021.2.3,59.91898952707238,
124.0,124.8,4,0.75,Stimuli\ImageFiles-Set1\Scenes\Scenes_010.png,0,0,0,202,202,202,,,,,,,,,,,,,124.02515080000012,0.02515080000011949,None,158.6112566999982,158.6112566999982,158.6112566999982,158.6112566999982,158.6112566999982,158.6112566999982,158.6112566999982,158.6112566999982,,003,P013,2025_Feb_08_1603,CategoryLocalizer,2021.2.3,59.91898952707238,
124.8,125.0,5,0.0,Stimuli\Blank.png,0,0,0,203,203,203,,,,,,,,,,,,,124.826277199998,0.02627719999800604,None,159.395305799997,159.395305799997,159.395305799997,159.395305799997,159.395305799997,159.395305799997,159.395305799997,159.395305799997,,003,P013,2025_Feb_08_1603,CategoryLocalizer,2021.2.3,59.91898952707238,
125.0,125.8,4,0.75,Stimuli\ImageFiles-Set1\Scenes\Scenes_044.png,0,0,0,204,204,204,,,,,,,,,,,,,125.00879009999699,0.0087900999969861,None,159.57877689999805,159.57877689999805,159.57877689999805,159.57877689999805,159.57877689999805,159.57877689999805,159.57877689999805,159.57877689999805,,003,P013,2025_Feb_08_1603,CategoryLocalizer,2021.2.3,59.91898952707238,
125.8,126.0,5,0.0,Stimuli\Blank.png,0,0,0,205,205,205,,,,,,,,,,,,,125.81113789999654,0.011137899996541023,None,160.39617589999762,160.39617589999762,160.39617589999762,160.39617589999762,160.39617589999762,160.39617589999762,160.39617589999762,160.39617589999762,,003,P013,2025_Feb_08_1603,CategoryLocalizer,2021.2.3,59.91898952707238,
126.0,126.8,4,0.75,Stimuli\ImageFiles-Set1\Scenes\Scenes_007.png,0,0,0,206,206,206,,,,,,,,,,,,,126.02602959999786,0.026029599997855257,None,160.5963503999992,160.5963503999992,160.5963503999992,160.5963503999992,160.5963503999992,160.5963503999992,160.5963503999992,160.5963503999992,,003,P013,2025_Feb_08_1603,CategoryLocalizer,2021.2.3,59.91898952707238,
126.8,127.0,5,0.0,Stimuli\Blank.png,0,0,0,207,207,207,,,,,,,,,,,,,126.8106786999997,0.01067869999970128,None,161.38037619999886,161.38037619999886,161.38037619999886,161.38037619999886,161.38037619999886,161.38037619999886,161.38037619999886,161.38037619999886,,003,P013,2025_Feb_08_1603,CategoryLocalizer,2021.2.3,59.91898952707238,
127.0,127.8,4,0.75,Stimuli\ImageFiles-Set1\Scenes\Scenes_002.png,0,0,0,208,208,208,,,,,,,,,,,,,127.01178059999802,0.01178059999801917,None,161.59723440000016,161.59723440000016,161.59723440000016,161.59723440000016,161.59723440000016,161.59723440000016,161.59723440000016,161.59723440000016,,003,P013,2025_Feb_08_1603,CategoryLocalizer,2021.2.3,59.91898952707238,
127.8,128.0,5,0.0,Stimuli\Blank.png,0,0,0,209,209,209,,,,,,,,,,,,,127.82842909999817,0.028429099998177776,None,162.39794079999774,162.39794079999774,162.39794079999774,162.39794079999774,162.39794079999774,162.39794079999774,162.39794079999774,162.39794079999774,,003,P013,2025_Feb_08_1603,CategoryLocalizer,2021.2.3,59.91898952707238,
128.0,128.8,4,0.75,Stimuli\ImageFiles-Set1\Scenes\Scenes_029.png,0,0,0,210,210,210,,,,,,,,,,,,,128.01157369999783,0.011573699997825315,None,162.58143429999836,162.58143429999836,162.58143429999836,162.58143429999836,162.58143429999836,162.58143429999836,162.58143429999836,162.58143429999836,,003,P013,2025_Feb_08_1603,CategoryLocalizer,2021.2.3,59.91898952707238,
128.8,129.0,5,0.0,Stimuli\Blank.png,0,0,0,211,211,211,,,,,,,,,,,,,128.81188429999747,0.011884299997461767,None,163.3821515999989,163.3821515999989,163.3821515999989,163.3821515999989,163.3821515999989,163.3821515999989,163.3821515999989,163.3821515999989,,003,P013,2025_Feb_08_1603,CategoryLocalizer,2021.2.3,59.91898952707238,
129.0,129.8,4,0.75,Stimuli\ImageFiles-Set1\Scenes\Scenes_055.png,0,0,0,212,212,212,,,,,,,,,,,,,129.01206319999983,0.012063199999829521,None,163.59901869999885,163.59901869999885,163.59901869999885,163.59901869999885,163.59901869999885,163.59901869999885,163.59901869999885,163.59901869999885,,003,P013,2025_Feb_08_1603,CategoryLocalizer,2021.2.3,59.91898952707238,
129.8,130.0,5,0.0,Stimuli\Blank.png,0,0,0,213,213,213,,,,,,,,,,,,,129.83132959999784,0.03132959999783225,None,164.39971999999761,164.39971999999761,164.39971999999761,164.39971999999761,164.39971999999761,164.39971999999761,164.39971999999761,164.39971999999761,,003,P013,2025_Feb_08_1603,CategoryLocalizer,2021.2.3,59.91898952707238,
130.0,130.8,4,0.75,Stimuli\ImageFiles-Set1\Scenes\Scenes_055.png,1,1,0,214,214,214,,,,,,,,,,,,,130.01305030000003,0.013050300000031712,1,164.58319949999714,164.58319949999714,164.58319949999714,164.58319949999714,164.58319949999714,164.58319949999714,164.58319949999714,164.58319949999714,0.47322170000188635,003,P013,2025_Feb_08_1603,CategoryLocalizer,2021.2.3,59.91898952707238,
130.8,131.0,5,0.0,Stimuli\Blank.png,0,0,0,215,215,215,,,,,,,,,,,,,130.81367899999896,0.013678999998944619,None,165.38391399999819,165.38391399999819,165.38391399999819,165.38391399999819,165.38391399999819,165.38391399999819,165.38391399999819,165.38391399999819,,003,P013,2025_Feb_08_1603,CategoryLocalizer,2021.2.3,59.91898952707238,
131.0,131.8,4,0.75,Stimuli\ImageFiles-Set1\Scenes\Scenes_011.png,0,0,0,216,216,216,,,,,,,,,,,,,131.0137666999981,0.013766699998086551,None,165.58409459999893,165.58409459999893,165.58409459999893,165.58409459999893,165.58409459999893,165.58409459999893,165.58409459999893,165.58409459999893,,003,P013,2025_Feb_08_1603,CategoryLocalizer,2021.2.3,59.91898952707238,
131.8,132.0,5,0.0,Stimuli\Blank.png,0,0,0,217,217,217,,,,,,,,,,,,,131.81708249999792,0.017082499997911782,None,166.4014939999979,166.4014939999979,166.4014939999979,166.4014939999979,166.4014939999979,166.4014939999979,166.4014939999979,166.4014939999979,,003,P013,2025_Feb_08_1603,CategoryLocalizer,2021.2.3,59.91898952707238,
132.0,132.8,4,0.75,Stimuli\ImageFiles-Set1\Scenes\Scenes_018.png,0,0,0,218,218,218,,,,,,,,,,,,,132.01751869999862,0.017518699998618104,None,166.60167079999883,166.60167079999883,166.60167079999883,166.60167079999883,166.60167079999883,166.60167079999883,166.60167079999883,166.60167079999883,,003,P013,2025_Feb_08_1603,CategoryLocalizer,2021.2.3,59.91898952707238,
132.8,133.0,5,0.0,Stimuli\Blank.png,0,0,0,219,219,219,,,,,,,,,,,,,132.81629979999707,0.016299799997057107,None,167.38568969999687,167.38568969999687,167.38568969999687,167.38568969999687,167.38568969999687,167.38568969999687,167.38568969999687,167.38568969999687,,003,P013,2025_Feb_08_1603,CategoryLocalizer,2021.2.3,59.91898952707238,
133.0,133.8,4,0.75,Stimuli\ImageFiles-Set1\Scenes\Scenes_026.png,0,0,0,220,220,220,,,,,,,,,,,,,133.00115729999743,0.0011572999974305276,None,167.5858647999994,167.5858647999994,167.5858647999994,167.5858647999994,167.5858647999994,167.5858647999994,167.5858647999994,167.5858647999994,,003,P013,2025_Feb_08_1603,CategoryLocalizer,2021.2.3,59.91898952707238,
133.8,134.0,5,0.0,Stimuli\Blank.png,0,0,0,221,221,221,,,,,,,,,,,,,133.81787229999827,0.017872299998259678,None,168.40322709999964,168.40322709999964,168.40322709999964,168.40322709999964,168.40322709999964,168.40322709999964,168.40322709999964,168.40322709999964,,003,P013,2025_Feb_08_1603,CategoryLocalizer,2021.2.3,59.91898952707238,
134.0,134.8,4,0.75,Stimuli\ImageFiles-Set1\Scenes\Scenes_009.png,0,0,0,222,222,222,,,,,,,,,,,,,134.01658699999825,0.016586999998253305,None,168.58674299999984,168.58674299999984,168.58674299999984,168.58674299999984,168.58674299999984,168.58674299999984,168.58674299999984,168.58674299999984,,003,P013,2025_Feb_08_1603,CategoryLocalizer,2021.2.3,59.91898952707238,
134.8,135.0,5,0.0,Stimuli\Blank.png,0,0,0,223,223,223,,,,,,,,,,,,,134.80032559999745,0.0003255999974385304,None,169.3707789,169.3707789,169.3707789,169.3707789,169.3707789,169.3707789,169.3707789,169.3707789,,003,P013,2025_Feb_08_1603,CategoryLocalizer,2021.2.3,59.91898952707238,
135.0,135.8,4,0.75,Stimuli\ImageFiles-Set1\Scenes\Scenes_059.png,0,0,0,224,224,224,,,,,,,,,,,,,135.0006192999972,0.0006192999971972313,None,169.57095489999847,169.57095489999847,169.57095489999847,169.57095489999847,169.57095489999847,169.57095489999847,169.57095489999847,169.57095489999847,,003,P013,2025_Feb_08_1603,CategoryLocalizer,2021.2.3,59.91898952707238,
135.8,136.0,5,0.0,Stimuli\Blank.png,0,0,0,225,225,225,,,,,,,,,,,,,135.80258669999967,0.0025866999996537743,None,170.37166719999732,170.37166719999732,170.37166719999732,170.37166719999732,170.37166719999732,170.37166719999732,170.37166719999732,170.37166719999732,,003,P013,2025_Feb_08_1603,CategoryLocalizer,2021.2.3,59.91898952707238,
136.0,136.8,2,0.75,Stimuli\ImageFiles-Set1\Bodies\Bodies_PushUp_00004.png,0,0,0,226,226,226,,,,,,,,,,,,,136.00232099999994,0.002320999999938067,None,170.57184309999866,170.57184309999866,170.57184309999866,170.57184309999866,170.57184309999866,170.57184309999866,170.57184309999866,170.57184309999866,,003,P013,2025_Feb_08_1603,CategoryLocalizer,2021.2.3,59.91898952707238,
136.8,137.0,5,0.0,Stimuli\Blank.png,0,0,0,227,227,227,,,,,,,,,,,,,136.80231739999726,0.002317399997252778,None,171.37254429999666,171.37254429999666,171.37254429999666,171.37254429999666,171.37254429999666,171.37254429999666,171.37254429999666,171.37254429999666,,003,P013,2025_Feb_08_1603,CategoryLocalizer,2021.2.3,59.91898952707238,
137.0,137.8,2,0.75,Stimuli\ImageFiles-Set1\Bodies\Bodies_Falling_00006.png,0,0,0,228,228,228,,,,,,,,,,,,,137.00240929999927,0.0024092999992717523,None,171.5727279999992,171.5727279999992,171.5727279999992,171.5727279999992,171.5727279999992,171.5727279999992,171.5727279999992,171.5727279999992,,003,P013,2025_Feb_08_1603,CategoryLocalizer,2021.2.3,59.91898952707238,
137.8,138.0,5,0.0,Stimuli\Blank.png,0,0,0,229,229,229,,,,,,,,,,,,,137.80383289999736,0.0038328999973487043,None,172.37342149999677,172.37342149999677,172.37342149999677,172.37342149999677,172.37342149999677,172.37342149999677,172.37342149999677,172.37342149999677,,003,P013,2025_Feb_08_1603,CategoryLocalizer,2021.2.3,59.91898952707238,
138.0,138.8,2,0.75,Stimuli\ImageFiles-Set1\Bodies\Bodies_Hanging_00006.png,0,0,0,230,230,230,,,,,,,,,,,,,138.0035386999989,0.0035386999988986645,None,172.5903100999967,172.5903100999967,172.5903100999967,172.5903100999967,172.5903100999967,172.5903100999967,172.5903100999967,172.5903100999967,,003,P013,2025_Feb_08_1603,CategoryLocalizer,2021.2.3,59.91898952707238,
138.8,139.0,5,0.0,Stimuli\Blank.png,0,0,0,231,231,231,,,,,,,,,,,,,138.8207732999981,0.020773299998097627,None,173.39098789999844,173.39098789999844,173.39098789999844,173.39098789999844,173.39098789999844,173.39098789999844,173.39098789999844,173.39098789999844,,003,P013,2025_Feb_08_1603,CategoryLocalizer,2021.2.3,59.91898952707238,
139.0,139.8,2,0.75,Stimuli\ImageFiles-Set1\Bodies\Bodies_Pushing_00001.png,0,0,0,232,232,232,,,,,,,,,,,,,139.0061029999997,0.006102999999711756,None,173.59117389999665,173.59117389999665,173.59117389999665,173.59117389999665,173.59117389999665,173.59117389999665,173.59117389999665,173.59117389999665,,003,P013,2025_Feb_08_1603,CategoryLocalizer,2021.2.3,59.91898952707238,
139.8,140.0,5,0.0,Stimuli\Blank.png,0,0,0,233,233,233,,,,,,,,,,,,,139.82266829999935,0.022668299999338615,None,174.39197819999754,174.39197819999754,174.39197819999754,174.39197819999754,174.39197819999754,174.39197819999754,174.39197819999754,174.39197819999754,,003,P013,2025_Feb_08_1603,CategoryLocalizer,2021.2.3,59.91898952707238,
140.0,140.8,2,0.75,Stimuli\ImageFiles-Set1\Bodies\Bodies_CobraPose_00001.png,0,0,0,234,234,234,,,,,,,,,,,,,140.00665479999952,0.006654799999523675,None,174.57531139999992,174.57531139999992,174.57531139999992,174.57531139999992,174.57531139999992,174.57531139999992,174.57531139999992,174.57531139999992,,003,P013,2025_Feb_08_1603,CategoryLocalizer,2021.2.3,59.91898952707238,
140.8,141.0,5,0.0,Stimuli\Blank.png,0,0,0,235,235,235,,,,,,,,,,,,,140.8066235999977,0.00662359999768114,None,175.37608679999903,175.37608679999903,175.37608679999903,175.37608679999903,175.37608679999903,175.37608679999903,175.37608679999903,175.37608679999903,,003,P013,2025_Feb_08_1603,CategoryLocalizer,2021.2.3,59.91898952707238,
141.0,141.8,2,0.75,Stimuli\ImageFiles-Set1\Bodies\Bodies_Lunging_00001.png,0,0,0,236,236,236,,,,,,,,,,,,,141.00722779999705,0.007227799997053808,None,175.592944,175.592944,175.592944,175.592944,175.592944,175.592944,175.592944,175.592944,,003,P013,2025_Feb_08_1603,CategoryLocalizer,2021.2.3,59.91898952707238,
141.8,142.0,5,0.0,Stimuli\Blank.png,0,0,0,237,237,237,,,,,,,,,,,,,141.8236186999966,0.023618699996575288,None,176.3936459999968,176.3936459999968,176.3936459999968,176.3936459999968,176.3936459999968,176.3936459999968,176.3936459999968,176.3936459999968,,003,P013,2025_Feb_08_1603,CategoryLocalizer,2021.2.3,59.91898952707238,
142.0,142.8,2,0.75,Stimuli\ImageFiles-Set1\Bodies\Bodies_Walking_00004.png,0,0,0,238,238,238,,,,,,,,,,,,,142.0077003999977,0.007700399997702334,None,176.59386749999976,176.59386749999976,176.59386749999976,176.59386749999976,176.59386749999976,176.59386749999976,176.59386749999976,176.59386749999976,,003,P013,2025_Feb_08_1603,CategoryLocalizer,2021.2.3,59.91898952707238,
142.8,143.0,5,0.0,Stimuli\Blank.png,0,0,0,239,239,239,,,,,,,,,,,,,142.82624089999808,0.02624089999807211,None,177.41125459999967,177.41125459999967,177.41125459999967,177.41125459999967,177.41125459999967,177.41125459999967,177.41125459999967,177.41125459999967,,003,P013,2025_Feb_08_1603,CategoryLocalizer,2021.2.3,59.91898952707238,
143.0,143.8,2,0.75,Stimuli\ImageFiles-Set1\Bodies\Bodies_Walking_00004.png,1,1,0,240,240,240,,,,,,,,,,,,,143.02592869999717,0.025928699997166405,1,177.6113981999988,177.6113981999988,177.6113981999988,177.6113981999988,177.6113981999988,177.6113981999988,177.6113981999988,177.6113981999988,0.4281568000005791,003,P013,2025_Feb_08_1603,CategoryLocalizer,2021.2.3,59.91898952707238,
143.8,144.0,5,0.0,Stimuli\Blank.png,0,0,0,241,241,241,,,,,,,,,,,,,143.82582999999795,0.025829999997938557,None,178.3954277999983,178.3954277999983,178.3954277999983,178.3954277999983,178.3954277999983,178.3954277999983,178.3954277999983,178.3954277999983,,003,P013,2025_Feb_08_1603,CategoryLocalizer,2021.2.3,59.91898952707238,
144.0,144.8,2,0.75,Stimuli\ImageFiles-Set1\Bodies\Bodies_Pushing_00005.png,0,0,0,242,242,242,,,,,,,,,,,,,144.00863109999773,0.008631099997728597,None,178.578919399999,178.578919399999,178.578919399999,178.578919399999,178.578919399999,178.578919399999,178.578919399999,178.578919399999,,003,P013,2025_Feb_08_1603,CategoryLocalizer,2021.2.3,59.91898952707238,
144.8,145.0,5,0.0,Stimuli\Blank.png,0,0,0,243,243,243,,,,,,,,,,,,,144.8123444999983,0.012344499998278025,None,179.3963064999989,179.3963064999989,179.3963064999989,179.3963064999989,179.3963064999989,179.3963064999989,179.3963064999989,179.3963064999989,,003,P013,2025_Feb_08_1603,CategoryLocalizer,2021.2.3,59.91898952707238,
145.0,145.8,2,0.75,Stimuli\ImageFiles-Set1\Bodies\Bodies_SittingFloor_00005.png,0,0,0,244,244,244,,,,,,,,,,,,,145.0267684999999,0.026768499999889173,None,179.61315949999698,179.61315949999698,179.61315949999698,179.61315949999698,179.61315949999698,179.61315949999698,179.61315949999698,179.61315949999698,,003,P013,2025_Feb_08_1603,CategoryLocalizer,2021.2.3,59.91898952707238,
145.8,146.0,5,0.0,Stimuli\Blank.png,0,0,0,245,245,245,,,,,,,,,,,,,145.82701819999784,0.027018199997826287,None,180.3971934000001,180.3971934000001,180.3971934000001,180.3971934000001,180.3971934000001,180.3971934000001,180.3971934000001,180.3971934000001,,003,P013,2025_Feb_08_1603,CategoryLocalizer,2021.2.3,59.91898952707238,
146.0,146.8,2,0.75,Stimuli\ImageFiles-Set1\Bodies\Bodies_Punching_00001.png,0,0,0,246,246,246,,,,,,,,,,,,,146.01041329999862,0.010413299998617731,None,180.58068329999878,180.58068329999878,180.58068329999878,180.58068329999878,180.58068329999878,180.58068329999878,180.58068329999878,180.58068329999878,,003,P013,2025_Feb_08_1603,CategoryLocalizer,2021.2.3,59.91898952707238,
146.8,147.0,5,0.0,Stimuli\Blank.png,0,0,0,247,247,247,,,,,,,,,,,,,146.81209209999724,0.012092099997232708,None,181.3813967999995,181.3813967999995,181.3813967999995,181.3813967999995,181.3813967999995,181.3813967999995,181.3813967999995,181.3813967999995,,003,P013,2025_Feb_08_1603,CategoryLocalizer,2021.2.3,59.91898952707238,
147.0,147.8,2,0.75,Stimuli\ImageFiles-Set1\Bodies\Bodies_QuadStretch_00003.png,0,0,0,248,248,248,,,,,,,,,,,,,147.0119881999999,0.011988199999905191,None,181.5815733999989,181.5815733999989,181.5815733999989,181.5815733999989,181.5815733999989,181.5815733999989,181.5815733999989,181.5815733999989,,003,P013,2025_Feb_08_1603,CategoryLocalizer,2021.2.3,59.91898952707238,
147.8,148.0,5,0.0,Stimuli\Blank.png,0,0,0,249,249,249,,,,,,,,,,,,,147.81212699999742,0.012126999997406074,None,182.38232999999673,182.38232999999673,182.38232999999673,182.38232999999673,182.38232999999673,182.38232999999673,182.38232999999673,182.38232999999673,,003,P013,2025_Feb_08_1603,CategoryLocalizer,2021.2.3,59.91898952707238,
148.0,148.8,2,0.75,Stimuli\ImageFiles-Set1\Bodies\Bodies_Kneeling_00005.png,0,0,0,250,250,250,,,,,,,,,,,,,148.01286579999942,0.012865799999417504,None,182.5991596999993,182.5991596999993,182.5991596999993,182.5991596999993,182.5991596999993,182.5991596999993,182.5991596999993,182.5991596999993,,003,P013,2025_Feb_08_1603,CategoryLocalizer,2021.2.3,59.91898952707238,
148.8,149.0,5,0.0,Stimuli\Blank.png,0,0,0,251,251,251,,,,,,,,,,,,,148.82968269999765,0.029682699997636064,None,183.39984849999746,183.39984849999746,183.39984849999746,183.39984849999746,183.39984849999746,183.39984849999746,183.39984849999746,183.39984849999746,,003,P013,2025_Feb_08_1603,CategoryLocalizer,2021.2.3,59.91898952707238,
149.0,149.8,2,0.75,Stimuli\ImageFiles-Set1\Bodies\Bodies_QuadStretch_00001.png,0,0,0,252,252,252,,,,,,,,,,,,,149.01318329999776,0.013183299997763243,None,183.58341849999852,183.58341849999852,183.58341849999852,183.58341849999852,183.58341849999852,183.58341849999852,183.58341849999852,183.58341849999852,,003,P013,2025_Feb_08_1603,CategoryLocalizer,2021.2.3,59.91898952707238,
149.8,150.0,5,0.0,Stimuli\Blank.png,0,0,0,253,253,253,,,,,,,,,,,,,149.81608869999764,0.01608869999762419,None,184.40074289999757,184.40074289999757,184.40074289999757,184.40074289999757,184.40074289999757,184.40074289999757,184.40074289999757,184.40074289999757,,003,P013,2025_Feb_08_1603,CategoryLocalizer,2021.2.3,59.91898952707238,
150.0,150.8,2,0.75,Stimuli\ImageFiles-Set1\Bodies\Bodies_Waving_00007.png,0,0,0,254,254,254,,,,,,,,,,,,,150.01610029999938,0.016100299999379786,None,184.6009200999979,184.6009200999979,184.6009200999979,184.6009200999979,184.6009200999979,184.6009200999979,184.6009200999979,184.6009200999979,,003,P013,2025_Feb_08_1603,CategoryLocalizer,2021.2.3,59.91898952707238,
150.8,151.0,5,0.0,Stimuli\Blank.png,0,0,0,255,255,255,,,,,,,,,,,,,150.8172792999976,0.01727929999759681,None,185.40162379999674,185.40162379999674,185.40162379999674,185.40162379999674,185.40162379999674,185.40162379999674,185.40162379999674,185.40162379999674,,003,P013,2025_Feb_08_1603,CategoryLocalizer,2021.2.3,59.91898952707238,
151.0,151.8,2,0.75,Stimuli\ImageFiles-Set1\Bodies\Bodies_Kneeling_00007.png,0,0,0,256,256,256,,,,,,,,,,,,,151.01569499999823,0.01569499999823165,None,185.6018172999975,185.6018172999975,185.6018172999975,185.6018172999975,185.6018172999975,185.6018172999975,185.6018172999975,185.6018172999975,,003,P013,2025_Feb_08_1603,CategoryLocalizer,2021.2.3,59.91898952707238,
151.8,152.0,5,0.0,Stimuli\Blank.png,0,0,0,257,257,257,,,,,,,,,,,,,151.81684739999764,0.016847399997629964,None,186.38584999999875,186.38584999999875,186.38584999999875,186.38584999999875,186.38584999999875,186.38584999999875,186.38584999999875,186.38584999999875,,003,P013,2025_Feb_08_1603,CategoryLocalizer,2021.2.3,59.91898952707238,
152.0,164.0,0,0.0,Stimuli\Blank.png,0,0,0,258,258,258,,,,,,,,,,,,,151.99955709999995,-0.0004429000000527594,None,186.5693195999993,186.5693195999993,186.5693195999993,186.5693195999993,186.5693195999993,186.5693195999993,186.5693195999993,186.5693195999993,,003,P013,2025_Feb_08_1603,CategoryLocalizer,2021.2.3,59.91898952707238,
164.0,164.8,4,0.75,Stimuli\ImageFiles-Set1\Scenes\Scenes_013.png,0,0,0,259,259,259,,,,,,,,,,,,,164.0104747999976,0.010474799997609807,None,198.5966176999973,198.5966176999973,198.5966176999973,198.5966176999973,198.5966176999973,198.5966176999973,198.5966176999973,198.5966176999973,,003,P013,2025_Feb_08_1603,CategoryLocalizer,2021.2.3,59.91898952707238,
164.8,165.0,5,0.0,Stimuli\Blank.png,0,0,0,260,260,260,,,,,,,,,,,,,164.82713229999717,0.027132299997163045,None,199.3973279999991,199.3973279999991,199.3973279999991,199.3973279999991,199.3973279999991,199.3973279999991,199.3973279999991,199.3973279999991,,003,P013,2025_Feb_08_1603,CategoryLocalizer,2021.2.3,59.91898952707238,
165.0,165.8,4,0.75,Stimuli\ImageFiles-Set1\Scenes\Scenes_025.png,0,0,0,261,261,261,,,,,,,,,,,,,165.01181579999684,0.011815799996838905,None,199.59749869999723,199.59749869999723,199.59749869999723,199.59749869999723,199.59749869999723,199.59749869999723,199.59749869999723,199.59749869999723,,003,P013,2025_Feb_08_1603,CategoryLocalizer,2021.2.3,59.91898952707238,
165.8,166.0,5,0.0,Stimuli\Blank.png,0,0,0,262,262,262,,,,,,,,,,,,,165.82837049999944,0.028370499999425647,None,200.39818869999726,200.39818869999726,200.39818869999726,200.39818869999726,200.39818869999726,200.39818869999726,200.39818869999726,200.39818869999726,,003,P013,2025_Feb_08_1603,CategoryLocalizer,2021.2.3,59.91898952707238,
166.0,166.8,4,0.75,Stimuli\ImageFiles-Set1\Scenes\Scenes_025.png,1,1,0,263,263,263,,,,,,,,,,,,,166.01211919999696,0.012119199996959651,1,200.58170829999654,200.58170829999654,200.58170829999654,200.58170829999654,200.58170829999654,200.58170829999654,200.58170829999654,200.58170829999654,0.46093459999974584,003,P013,2025_Feb_08_1603,CategoryLocalizer,2021.2.3,59.91898952707238,
166.8,167.0,5,0.0,Stimuli\Blank.png,0,0,0,264,264,264,,,,,,,,,,,,,166.8126373999985,0.012637399998482124,None,201.382426199998,201.382426199998,201.382426199998,201.382426199998,201.382426199998,201.382426199998,201.382426199998,201.382426199998,,003,P013,2025_Feb_08_1603,CategoryLocalizer,2021.2.3,59.91898952707238,
167.0,167.8,4,0.75,Stimuli\ImageFiles-Set1\Scenes\Scenes_051.png,0,0,0,265,265,265,,,,,,,,,,,,,167.01225039999917,0.012250399999174988,None,201.58259319999706,201.58259319999706,201.58259319999706,201.58259319999706,201.58259319999706,201.58259319999706,201.58259319999706,201.58259319999706,,003,P013,2025_Feb_08_1603,CategoryLocalizer,2021.2.3,59.91898952707238,
167.8,168.0,5,0.0,Stimuli\Blank.png,0,0,0,266,266,266,,,,,,,,,,,,,167.81297110000014,0.012971100000129354,None,202.38330459999997,202.38330459999997,202.38330459999997,202.38330459999997,202.38330459999997,202.38330459999997,202.38330459999997,202.38330459999997,,003,P013,2025_Feb_08_1603,CategoryLocalizer,2021.2.3,59.91898952707238,
168.0,168.8,4,0.75,Stimuli\ImageFiles-Set1\Scenes\Scenes_019.png,0,0,0,267,267,267,,,,,,,,,,,,,168.01327469999887,0.013274699998873984,None,202.5834752999981,202.5834752999981,202.5834752999981,202.5834752999981,202.5834752999981,202.5834752999981,202.5834752999981,202.5834752999981,,003,P013,2025_Feb_08_1603,CategoryLocalizer,2021.2.3,59.91898952707238,
168.8,169.0,5,0.0,Stimuli\Blank.png,0,0,0,268,268,268,,,,,,,,,,,,,168.81472679999933,0.014726799999323248,None,203.3841904999972,203.3841904999972,203.3841904999972,203.3841904999972,203.3841904999972,203.3841904999972,203.3841904999972,203.3841904999972,,003,P013,2025_Feb_08_1603,CategoryLocalizer,2021.2.3,59.91898952707238,
169.0,169.8,4,0.75,Stimuli\ImageFiles-Set1\Scenes\Scenes_045.png,0,0,0,269,269,269,,,,,,,,,,,,,169.01442419999876,0.014424199998757103,None,203.60105059999842,203.60105059999842,203.60105059999842,203.60105059999842,203.60105059999842,203.60105059999842,203.60105059999842,203.60105059999842,,003,P013,2025_Feb_08_1603,CategoryLocalizer,2021.2.3,59.91898952707238,
169.8,170.0,5,0.0,Stimuli\Blank.png,0,0,0,270,270,270,,,,,,,,,,,,,169.8320105999992,0.03201059999918243,None,204.40176269999938,204.40176269999938,204.40176269999938,204.40176269999938,204.40176269999938,204.40176269999938,204.40176269999938,204.40176269999938,,003,P013,2025_Feb_08_1603,CategoryLocalizer,2021.2.3,59.91898952707238,
170.0,170.8,4,0.75,Stimuli\ImageFiles-Set1\Scenes\Scenes_049.png,0,0,0,271,271,271,,,,,,,,,,,,,170.01736649999657,0.017366499996569473,None,204.6019591999975,204.6019591999975,204.6019591999975,204.6019591999975,204.6019591999975,204.6019591999975,204.6019591999975,204.6019591999975,,003,P013,2025_Feb_08_1603,CategoryLocalizer,2021.2.3,59.91898952707238,
170.8,171.0,5,0.0,Stimuli\Blank.png,0,0,0,272,272,272,,,,,,,,,,,,,170.81696539999757,0.016965399997559416,None,205.3859605999969,205.3859605999969,205.3859605999969,205.3859605999969,205.3859605999969,205.3859605999969,205.3859605999969,205.3859605999969,,003,P013,2025_Feb_08_1603,CategoryLocalizer,2021.2.3,59.91898952707238,
171.0,171.8,4,0.75,Stimuli\ImageFiles-Set1\Scenes\Scenes_040.png,0,0,0,273,273,273,,,,,,,,,,,,,171.00114609999946,0.0011460999994596932,None,205.5861393999985,205.5861393999985,205.5861393999985,205.5861393999985,205.5861393999985,205.5861393999985,205.5861393999985,205.5861393999985,,003,P013,2025_Feb_08_1603,CategoryLocalizer,2021.2.3,59.91898952707238,
171.8,172.0,5,0.0,Stimuli\Blank.png,0,0,0,274,274,274,,,,,,,,,,,,,171.81760529999883,0.0176052999988201,None,206.40353340000001,206.40353340000001,206.40353340000001,206.40353340000001,206.40353340000001,206.40353340000001,206.40353340000001,206.40353340000001,,003,P013,2025_Feb_08_1603,CategoryLocalizer,2021.2.3,59.91898952707238,
172.0,172.8,4,0.75,Stimuli\ImageFiles-Set1\Scenes\Scenes_043.png,0,0,0,275,275,275,,,,,,,,,,,,,172.01706149999882,0.017061499998817453,None,206.6036976999967,206.6036976999967,206.6036976999967,206.6036976999967,206.6036976999967,206.6036976999967,206.6036976999967,206.6036976999967,,003,P013,2025_Feb_08_1603,CategoryLocalizer,2021.2.3,59.91898952707238,
172.8,173.0,5,0.0,Stimuli\Blank.png,0,0,0,276,276,276,,,,,,,,,,,,,172.81805069999973,0.0180506999997192,None,207.3878812999974,207.3878812999974,207.3878812999974,207.3878812999974,207.3878812999974,207.3878812999974,207.3878812999974,207.3878812999974,,003,P013,2025_Feb_08_1603,CategoryLocalizer,2021.2.3,59.91898952707238,
173.0,173.8,4,0.75,Stimuli\ImageFiles-Set1\Scenes\Scenes_058.png,0,0,0,277,277,277,,,,,,,,,,,,,173.00234679999994,0.0023467999999411404,None,207.58791679999922,207.58791679999922,207.58791679999922,207.58791679999922,207.58791679999922,207.58791679999922,207.58791679999922,207.58791679999922,,003,P013,2025_Feb_08_1603,CategoryLocalizer,2021.2.3,59.91898952707238,
173.8,174.0,5,0.0,Stimuli\Blank.png,0,0,0,278,278,278,,,,,,,,,,,,,173.8183246999979,0.018324699997890548,None,208.38858269999764,208.38858269999764,208.38858269999764,208.38858269999764,208.38858269999764,208.38858269999764,208.38858269999764,208.38858269999764,,003,P013,2025_Feb_08_1603,CategoryLocalizer,2021.2.3,59.91898952707238,
174.0,174.8,4,0.75,Stimuli\ImageFiles-Set1\Scenes\Scenes_053.png,0,0,0,279,279,279,,,,,,,,,,,,,174.00176449999708,0.001764499997079838,None,208.57210679999844,208.57210679999844,208.57210679999844,208.57210679999844,208.57210679999844,208.57210679999844,208.57210679999844,208.57210679999844,,003,P013,2025_Feb_08_1603,CategoryLocalizer,2021.2.3,59.91898952707238,
174.8,175.0,5,0.0,Stimuli\Blank.png,0,0,0,280,280,280,,,,,,,,,,,,,174.8025400999977,0.0025400999977023275,None,209.37281429999712,209.37281429999712,209.37281429999712,209.37281429999712,209.37281429999712,209.37281429999712,209.37281429999712,209.37281429999712,,003,P013,2025_Feb_08_1603,CategoryLocalizer,2021.2.3,59.91898952707238,
175.0,175.8,4,0.75,Stimuli\ImageFiles-Set1\Scenes\Scenes_021.png,1,1,0,281,281,281,,,,,,,,,,,,,175.00269379999736,0.002693799997359747,None,209.57301149999694,209.57301149999694,209.57301149999694,209.57301149999694,209.57301149999694,209.57301149999694,209.57301149999694,209.57301149999694,,003,P013,2025_Feb_08_1603,CategoryLocalizer,2021.2.3,59.91898952707238,
175.8,176.0,5,0.0,Stimuli\Blank.png,0,0,0,282,282,282,,,,,,,,,,,,,175.80338239999764,0.0033823999976334562,None,210.37370259999807,210.37370259999807,210.37370259999807,210.37370259999807,210.37370259999807,210.37370259999807,210.37370259999807,210.37370259999807,,003,P013,2025_Feb_08_1603,CategoryLocalizer,2021.2.3,59.91898952707238,
176.0,176.8,4,0.75,Stimuli\ImageFiles-Set1\Scenes\Scenes_003.png,0,0,0,283,283,283,,,,,,,,,,,,,176.0038147999985,0.0038147999985085335,None,210.57387099999687,210.57387099999687,210.57387099999687,210.57387099999687,210.57387099999687,210.57387099999687,210.57387099999687,210.57387099999687,,003,P013,2025_Feb_08_1603,CategoryLocalizer,2021.2.3,59.91898952707238,
176.8,177.0,5,0.0,Stimuli\Blank.png,0,0,0,284,284,284,,,,,,,,,,,,,176.80648709999878,0.006487099998764734,None,211.39129469999898,211.39129469999898,211.39129469999898,211.39129469999898,211.39129469999898,211.39129469999898,211.39129469999898,211.39129469999898,,003,P013,2025_Feb_08_1603,CategoryLocalizer,2021.2.3,59.91898952707238,
177.0,177.8,4,0.75,Stimuli\ImageFiles-Set1\Scenes\Scenes_003.png,0,0,0,285,285,285,,,,,,,,,,,,,177.0211853999972,0.0211853999971936,1,211.59145929999795,211.59145929999795,211.59145929999795,211.59145929999795,211.59145929999795,211.59145929999795,211.59145929999795,211.59145929999795,0.43608450000101584,003,P013,2025_Feb_08_1603,CategoryLocalizer,2021.2.3,59.91898952707238,
