eventStartTime,eventEndTime,eventCond,imSize,imFile,repeatedImage,responseEvent,Events.thisRepN,Events.thisTrialN,Events.thisN,Events.thisIndex,Instructions.started,Instructions.stopped,participantReadyResponse.keys,participantReadyResponse.rt,participantReadyResponse.started,participantReadyResponse.stopped,startWaitforTrigger,triggerResponse.keys,triggerResponse.rt,triggerResponse.started,triggerResponse.stopped,globalTimer,actualStartTime,startTimingDiff,participantResponse.keys,participantResponse.started,participantResponse.stopped,image.started,image.stopped,fixationOutside.started,fixationOutside.stopped,fixationInside.started,fixationInside.stopped,participantResponse.rt,session,participant,date,expName,psychopyVersion,frameRate,
,,,,,,,,,,,14.240899600001285,None,1,31.492802500000835,14.240899600001285,None,,,,,,,,,,,,,,,,,,,002,P013,2025_Feb_08_1534,CategoryLocalizer,2021.2.3,59.947258401301625,
,,,,,,,,,,,,,,,,,45.7381807999991,5,14.342022299999371,45.750685999999405,None,,,,,,,,,,,,,,002,P013,2025_Feb_08_1534,CategoryLocalizer,2021.2.3,59.947258401301625,
0.0,12.0,0,0.0,Stimuli\Blank.png,0,0,0,0,0,0,,,,,,,,,,,,60.100130500002706,0.04071990000011283,0.04071990000011283,None,60.16338330000144,None,60.16338330000144,None,60.16338330000144,None,60.16338330000144,None,,002,P013,2025_Feb_08_1534,CategoryLocalizer,2021.2.3,59.947258401301625,
12.0,12.8,1,0.75,Stimuli\ImageFiles-Set2\Objects\Object_Paper_00001.png,0,0,0,1,1,1,,,,,,,,,,,,,12.010161099999095,0.010161099999095313,None,72.12397219999912,72.12397219999912,72.12397219999912,72.12397219999912,72.12397219999912,72.12397219999912,72.12397219999912,72.12397219999912,,002,P013,2025_Feb_08_1534,CategoryLocalizer,2021.2.3,59.947258401301625,
12.8,13.0,5,0.0,Stimuli\Blank.png,0,0,0,2,2,2,,,,,,,,,,,,,12.810932799999136,0.010932799999135767,None,72.92470580000008,72.92470580000008,72.92470580000008,72.92470580000008,72.92470580000008,72.92470580000008,72.92470580000008,72.92470580000008,,002,P013,2025_Feb_08_1534,CategoryLocalizer,2021.2.3,59.947258401301625,
13.0,13.8,1,0.75,Stimuli\ImageFiles-Set2\Objects\Object_Button1_00001.png,0,0,0,3,3,3,,,,,,,,,,,,,13.011524499997904,0.011524499997904059,None,73.14153179999994,73.14153179999994,73.14153179999994,73.14153179999994,73.14153179999994,73.14153179999994,73.14153179999994,73.14153179999994,,002,P013,2025_Feb_08_1534,CategoryLocalizer,2021.2.3,59.947258401301625,
13.8,14.0,5,0.0,Stimuli\Blank.png,0,0,0,4,4,4,,,,,,,,,,,,,13.830115299999306,0.030115299999305734,None,73.95893020000221,73.95893020000221,73.95893020000221,73.95893020000221,73.95893020000221,73.95893020000221,73.95893020000221,73.95893020000221,,002,P013,2025_Feb_08_1534,CategoryLocalizer,2021.2.3,59.947258401301625,
14.0,14.8,1,0.75,Stimuli\ImageFiles-Set2\Objects\Object_Shovel_00001.png,0,0,0,5,5,5,,,,,,,,,,,,,14.030788500000199,0.030788500000198837,None,74.14256129999922,74.14256129999922,74.14256129999922,74.14256129999922,74.14256129999922,74.14256129999922,74.14256129999922,74.14256129999922,,002,P013,2025_Feb_08_1534,CategoryLocalizer,2021.2.3,59.947258401301625,
14.8,15.0,5,0.0,Stimuli\Blank.png,0,0,0,6,6,6,,,,,,,,,,,,,14.812589599998319,0.01258959999831788,None,74.92645330000232,74.92645330000232,74.92645330000232,74.92645330000232,74.92645330000232,74.92645330000232,74.92645330000232,74.92645330000232,,002,P013,2025_Feb_08_1534,CategoryLocalizer,2021.2.3,59.947258401301625,
15.0,15.8,1,0.75,Stimuli\ImageFiles-Set2\Objects\Object_Shoe_00001.png,0,0,0,7,7,7,,,,,,,,,,,,,15.013476100000844,0.013476100000843871,None,75.12661880000087,75.12661880000087,75.12661880000087,75.12661880000087,75.12661880000087,75.12661880000087,75.12661880000087,75.12661880000087,,002,P013,2025_Feb_08_1534,CategoryLocalizer,2021.2.3,59.947258401301625,
15.8,16.0,5,0.0,Stimuli\Blank.png,0,0,0,8,8,8,,,,,,,,,,,,,15.81247059999805,0.012470599998049892,None,75.92733290000251,75.92733290000251,75.92733290000251,75.92733290000251,75.92733290000251,75.92733290000251,75.92733290000251,75.92733290000251,,002,P013,2025_Feb_08_1534,CategoryLocalizer,2021.2.3,59.947258401301625,
16.0,16.8,1,0.75,Stimuli\ImageFiles-Set2\Objects\Object_Car_00001.png,0,0,0,9,9,9,,,,,,,,,,,,,16.01336900000024,0.013369000000238884,None,76.1441999000017,76.1441999000017,76.1441999000017,76.1441999000017,76.1441999000017,76.1441999000017,76.1441999000017,76.1441999000017,,002,P013,2025_Feb_08_1534,CategoryLocalizer,2021.2.3,59.947258401301625,
16.8,17.0,5,0.0,Stimuli\Blank.png,0,0,0,10,10,10,,,,,,,,,,,,,16.830824900000152,0.0308249000001517,None,76.94487610000215,76.94487610000215,76.94487610000215,76.94487610000215,76.94487610000215,76.94487610000215,76.94487610000215,76.94487610000215,,002,P013,2025_Feb_08_1534,CategoryLocalizer,2021.2.3,59.947258401301625,
17.0,17.8,1,0.75,Stimuli\ImageFiles-Set2\Objects\Object_Car_00001.png,1,1,0,11,11,11,,,,,,,,,,,,,17.015254199999617,0.015254199999617413,1,77.14509150000231,77.14509150000231,77.14509150000231,77.14509150000231,77.14509150000231,77.14509150000231,77.14509150000231,77.14509150000231,0.437933699999121,002,P013,2025_Feb_08_1534,CategoryLocalizer,2021.2.3,59.947258401301625,
17.8,18.0,5,0.0,Stimuli\Blank.png,0,0,0,12,12,12,,,,,,,,,,,,,17.814415400000144,0.014415400000142853,None,77.92910480000137,77.92910480000137,77.92910480000137,77.92910480000137,77.92910480000137,77.92910480000137,77.92910480000137,77.92910480000137,,002,P013,2025_Feb_08_1534,CategoryLocalizer,2021.2.3,59.947258401301625,
18.0,18.8,1,0.75,Stimuli\ImageFiles-Set2\Objects\Object_Sandal_00001.png,0,0,0,13,13,13,,,,,,,,,,,,,18.015463299998373,0.015463299998373259,None,78.12928620000093,78.12928620000093,78.12928620000093,78.12928620000093,78.12928620000093,78.12928620000093,78.12928620000093,78.12928620000093,,002,P013,2025_Feb_08_1534,CategoryLocalizer,2021.2.3,59.947258401301625,
18.8,19.0,5,0.0,Stimuli\Blank.png,0,0,0,14,14,14,,,,,,,,,,,,,18.799356600000465,-0.0006433999995358874,None,78.91331859999991,78.91331859999991,78.91331859999991,78.91331859999991,78.91331859999991,78.91331859999991,78.91331859999991,78.91331859999991,,002,P013,2025_Feb_08_1534,CategoryLocalizer,2021.2.3,59.947258401301625,
19.0,19.8,1,0.75,Stimuli\ImageFiles-Set2\Objects\Object_Sponge_00001.png,0,0,0,15,15,15,,,,,,,,,,,,,19.000440799998614,0.0004407999986142386,None,79.11341750000065,79.11341750000065,79.11341750000065,79.11341750000065,79.11341750000065,79.11341750000065,79.11341750000065,79.11341750000065,,002,P013,2025_Feb_08_1534,CategoryLocalizer,2021.2.3,59.947258401301625,
19.8,20.0,5,0.0,Stimuli\Blank.png,0,0,0,16,16,16,,,,,,,,,,,,,19.80001809999885,1.8099998850829024e-05,None,79.91420140000264,79.91420140000264,79.91420140000264,79.91420140000264,79.91420140000264,79.91420140000264,79.91420140000264,79.91420140000264,,002,P013,2025_Feb_08_1534,CategoryLocalizer,2021.2.3,59.947258401301625,
20.0,20.8,1,0.75,Stimuli\ImageFiles-Set2\Objects\Object_Strawberry_00001.png,0,0,0,17,17,17,,,,,,,,,,,,,20.000099599998066,9.959999806596898e-05,None,80.11433620000025,80.11433620000025,80.11433620000025,80.11433620000025,80.11433620000025,80.11433620000025,80.11433620000025,80.11433620000025,,002,P013,2025_Feb_08_1534,CategoryLocalizer,2021.2.3,59.947258401301625,
20.8,21.0,5,0.0,Stimuli\Blank.png,0,0,0,18,18,18,,,,,,,,,,,,,20.80086350000056,0.0008635000005590143,None,80.91509090000181,80.91509090000181,80.91509090000181,80.91509090000181,80.91509090000181,80.91509090000181,80.91509090000181,80.91509090000181,,002,P013,2025_Feb_08_1534,CategoryLocalizer,2021.2.3,59.947258401301625,
21.0,21.8,1,0.75,Stimuli\ImageFiles-Set2\Objects\Object_Battery_00001.png,0,0,0,19,19,19,,,,,,,,,,,,,21.000531800000317,0.0005318000003171619,None,81.11524800000188,81.11524800000188,81.11524800000188,81.11524800000188,81.11524800000188,81.11524800000188,81.11524800000188,81.11524800000188,,002,P013,2025_Feb_08_1534,CategoryLocalizer,2021.2.3,59.947258401301625,
21.8,22.0,5,0.0,Stimuli\Blank.png,0,0,0,20,20,20,,,,,,,,,,,,,21.80168279999998,0.0016827999999797782,None,81.9159604000015,81.9159604000015,81.9159604000015,81.9159604000015,81.9159604000015,81.9159604000015,81.9159604000015,81.9159604000015,,002,P013,2025_Feb_08_1534,CategoryLocalizer,2021.2.3,59.947258401301625,
22.0,22.8,1,0.75,Stimuli\ImageFiles-Set2\Objects\Object_Glass_00001.png,0,0,0,21,21,21,,,,,,,,,,,,,22.001365799998894,0.0013657999988936353,None,82.11614349999945,82.11614349999945,82.11614349999945,82.11614349999945,82.11614349999945,82.11614349999945,82.11614349999945,82.11614349999945,,002,P013,2025_Feb_08_1534,CategoryLocalizer,2021.2.3,59.947258401301625,
22.8,23.0,5,0.0,Stimuli\Blank.png,0,0,0,22,22,22,,,,,,,,,,,,,22.801983699999255,0.001983699999254185,None,82.9168451000005,82.9168451000005,82.9168451000005,82.9168451000005,82.9168451000005,82.9168451000005,82.9168451000005,82.9168451000005,,002,P013,2025_Feb_08_1534,CategoryLocalizer,2021.2.3,59.947258401301625,
23.0,23.8,1,0.75,Stimuli\ImageFiles-Set2\Objects\Object_Tomato_00001.png,1,1,0,23,23,23,,,,,,,,,,,,,23.004990999997972,0.004990999997971812,None,83.13370720000239,83.13370720000239,83.13370720000239,83.13370720000239,83.13370720000239,83.13370720000239,83.13370720000239,83.13370720000239,,002,P013,2025_Feb_08_1534,CategoryLocalizer,2021.2.3,59.947258401301625,
23.8,24.0,5,0.0,Stimuli\Blank.png,0,0,0,24,24,24,,,,,,,,,,,,,23.820630599999276,0.020630599999275745,None,83.93441969999913,83.93441969999913,83.93441969999913,83.93441969999913,83.93441969999913,83.93441969999913,83.93441969999913,83.93441969999913,,002,P013,2025_Feb_08_1534,CategoryLocalizer,2021.2.3,59.947258401301625,
24.0,24.8,1,0.75,Stimuli\ImageFiles-Set2\Objects\Object_Switch_00001.png,0,0,0,25,25,25,,,,,,,,,,,,,24.00474359999862,0.004743599998619175,None,84.13459789999979,84.13459789999979,84.13459789999979,84.13459789999979,84.13459789999979,84.13459789999979,84.13459789999979,84.13459789999979,,002,P013,2025_Feb_08_1534,CategoryLocalizer,2021.2.3,59.947258401301625,
24.8,25.0,5,0.0,Stimuli\Blank.png,0,0,0,26,26,26,,,,,,,,,,,,,24.82068470000013,0.02068470000012823,None,84.93529510000008,84.93529510000008,84.93529510000008,84.93529510000008,84.93529510000008,84.93529510000008,84.93529510000008,84.93529510000008,,002,P013,2025_Feb_08_1534,CategoryLocalizer,2021.2.3,59.947258401301625,
25.0,25.8,1,0.75,Stimuli\ImageFiles-Set2\Objects\Object_Switch_00001.png,0,0,0,27,27,27,,,,,,,,,,,,,25.00489799999923,0.004897999999229796,1,85.11879509999926,85.11879509999926,85.11879509999926,85.11879509999926,85.11879509999926,85.11879509999926,85.11879509999926,85.11879509999926,0.4101559000009729,002,P013,2025_Feb_08_1534,CategoryLocalizer,2021.2.3,59.947258401301625,
25.8,26.0,5,0.0,Stimuli\Blank.png,0,0,0,28,28,28,,,,,,,,,,,,,25.804625900000246,0.004625900000245764,None,85.9195002000015,85.9195002000015,85.9195002000015,85.9195002000015,85.9195002000015,85.9195002000015,85.9195002000015,85.9195002000015,,002,P013,2025_Feb_08_1534,CategoryLocalizer,2021.2.3,59.947258401301625,
26.0,26.8,1,0.75,Stimuli\ImageFiles-Set2\Objects\Object_Pen_00001.png,0,0,0,29,29,29,,,,,,,,,,,,,26.00604029999886,0.006040299998858245,None,86.11965960000089,86.11965960000089,86.11965960000089,86.11965960000089,86.11965960000089,86.11965960000089,86.11965960000089,86.11965960000089,,002,P013,2025_Feb_08_1534,CategoryLocalizer,2021.2.3,59.947258401301625,
26.8,27.0,5,0.0,Stimuli\Blank.png,0,0,0,30,30,30,,,,,,,,,,,,,26.805652299997746,0.0056522999977453026,None,86.9203574000021,86.9203574000021,86.9203574000021,86.9203574000021,86.9203574000021,86.9203574000021,86.9203574000021,86.9203574000021,,002,P013,2025_Feb_08_1534,CategoryLocalizer,2021.2.3,59.947258401301625,
27.0,27.8,1,0.75,Stimuli\ImageFiles-Set2\Objects\Object_Lawnmower_00001.png,0,0,0,31,31,31,,,,,,,,,,,,,27.006753800000297,0.006753800000296906,None,87.12056850000226,87.12056850000226,87.12056850000226,87.12056850000226,87.12056850000226,87.12056850000226,87.12056850000226,87.12056850000226,,002,P013,2025_Feb_08_1534,CategoryLocalizer,2021.2.3,59.947258401301625,
27.8,28.0,5,0.0,Stimuli\Blank.png,0,0,0,32,32,32,,,,,,,,,,,,,27.8072202000003,0.007220200000300991,None,87.92128349999984,87.92128349999984,87.92128349999984,87.92128349999984,87.92128349999984,87.92128349999984,87.92128349999984,87.92128349999984,,002,P013,2025_Feb_08_1534,CategoryLocalizer,2021.2.3,59.947258401301625,
28.0,28.8,2,0.75,Stimuli\ImageFiles-Set2\Bodies\Bodies_Running_00005.png,0,0,0,33,33,33,,,,,,,,,,,,,28.00757650000014,0.007576500000141095,None,88.13810170000215,88.13810170000215,88.13810170000215,88.13810170000215,88.13810170000215,88.13810170000215,88.13810170000215,88.13810170000215,,002,P013,2025_Feb_08_1534,CategoryLocalizer,2021.2.3,59.947258401301625,
28.8,29.0,5,0.0,Stimuli\Blank.png,0,0,0,34,34,34,,,,,,,,,,,,,28.824873400000797,0.02487340000079641,None,88.93884869999965,88.93884869999965,88.93884869999965,88.93884869999965,88.93884869999965,88.93884869999965,88.93884869999965,88.93884869999965,,002,P013,2025_Feb_08_1534,CategoryLocalizer,2021.2.3,59.947258401301625,
29.0,29.8,2,0.75,Stimuli\ImageFiles-Set2\Bodies\Bodies_Kicking_00001.png,0,0,0,35,35,35,,,,,,,,,,,,,29.00748250000106,0.007482500001060544,None,89.12232480000239,89.12232480000239,89.12232480000239,89.12232480000239,89.12232480000239,89.12232480000239,89.12232480000239,89.12232480000239,,002,P013,2025_Feb_08_1534,CategoryLocalizer,2021.2.3,59.947258401301625,
29.8,30.0,5,0.0,Stimuli\Blank.png,0,0,0,36,36,36,,,,,,,,,,,,,29.80996750000122,0.009967500001220486,None,89.93977090000044,89.93977090000044,89.93977090000044,89.93977090000044,89.93977090000044,89.93977090000044,89.93977090000044,89.93977090000044,,002,P013,2025_Feb_08_1534,CategoryLocalizer,2021.2.3,59.947258401301625,
30.0,30.8,2,0.75,Stimuli\ImageFiles-Set2\Bodies\Bodies_Kicking_00001.png,1,1,0,37,37,37,,,,,,,,,,,,,30.0257051999979,0.025705199997901218,1,90.1399033000016,90.1399033000016,90.1399033000016,90.1399033000016,90.1399033000016,90.1399033000016,90.1399033000016,90.1399033000016,0.4228694999983418,002,P013,2025_Feb_08_1534,CategoryLocalizer,2021.2.3,59.947258401301625,
30.8,31.0,5,0.0,Stimuli\Blank.png,0,0,0,38,38,38,,,,,,,,,,,,,30.810390700000426,0.010390700000424857,None,90.92393939999965,90.92393939999965,90.92393939999965,90.92393939999965,90.92393939999965,90.92393939999965,90.92393939999965,90.92393939999965,,002,P013,2025_Feb_08_1534,CategoryLocalizer,2021.2.3,59.947258401301625,
31.0,31.8,2,0.75,Stimuli\ImageFiles-Set2\Bodies\Bodies_Walking_00007.png,0,0,0,39,39,39,,,,,,,,,,,,,31.00986560000092,0.009865600000921404,None,91.12411540000176,91.12411540000176,91.12411540000176,91.12411540000176,91.12411540000176,91.12411540000176,91.12411540000176,91.12411540000176,,002,P013,2025_Feb_08_1534,CategoryLocalizer,2021.2.3,59.947258401301625,
31.8,32.0,5,0.0,Stimuli\Blank.png,0,0,0,40,40,40,,,,,,,,,,,,,31.810038200001145,0.010038200001144304,None,91.92480930000238,91.92480930000238,91.92480930000238,91.92480930000238,91.92480930000238,91.92480930000238,91.92480930000238,91.92480930000238,,002,P013,2025_Feb_08_1534,CategoryLocalizer,2021.2.3,59.947258401301625,
32.0,32.8,2,0.75,Stimuli\ImageFiles-Set2\Bodies\Bodies_Kicking_00006.png,0,0,0,41,41,41,,,,,,,,,,,,,32.0112369999988,0.011236999998800457,None,92.14167760000055,92.14167760000055,92.14167760000055,92.14167760000055,92.14167760000055,92.14167760000055,92.14167760000055,92.14167760000055,,002,P013,2025_Feb_08_1534,CategoryLocalizer,2021.2.3,59.947258401301625,
32.8,33.0,5,0.0,Stimuli\Blank.png,0,0,0,42,42,42,,,,,,,,,,,,,32.829308199998195,0.029308199998197892,None,92.94238720000067,92.94238720000067,92.94238720000067,92.94238720000067,92.94238720000067,92.94238720000067,92.94238720000067,92.94238720000067,,002,P013,2025_Feb_08_1534,CategoryLocalizer,2021.2.3,59.947258401301625,
33.0,33.8,2,0.75,Stimuli\ImageFiles-Set2\Bodies\Bodies_Pushing_00002.png,0,0,0,43,43,43,,,,,,,,,,,,,33.01174069999979,0.011740699999791104,None,93.12587580000036,93.12587580000036,93.12587580000036,93.12587580000036,93.12587580000036,93.12587580000036,93.12587580000036,93.12587580000036,,002,P013,2025_Feb_08_1534,CategoryLocalizer,2021.2.3,59.947258401301625,
33.8,34.0,5,0.0,Stimuli\Blank.png,0,0,0,44,44,44,,,,,,,,,,,,,33.81245900000067,0.012459000000674791,None,93.92658160000065,93.92658160000065,93.92658160000065,93.92658160000065,93.92658160000065,93.92658160000065,93.92658160000065,93.92658160000065,,002,P013,2025_Feb_08_1534,CategoryLocalizer,2021.2.3,59.947258401301625,
34.0,34.8,2,0.75,Stimuli\ImageFiles-Set2\Bodies\Bodies_Running_00004.png,0,0,0,45,45,45,,,,,,,,,,,,,34.01267749999897,0.012677499998972053,None,94.14346060000025,94.14346060000025,94.14346060000025,94.14346060000025,94.14346060000025,94.14346060000025,94.14346060000025,94.14346060000025,,002,P013,2025_Feb_08_1534,CategoryLocalizer,2021.2.3,59.947258401301625,
34.8,35.0,5,0.0,Stimuli\Blank.png,0,0,0,46,46,46,,,,,,,,,,,,,34.829544299998815,0.029544299998818246,None,94.94415479999952,94.94415479999952,94.94415479999952,94.94415479999952,94.94415479999952,94.94415479999952,94.94415479999952,94.94415479999952,,002,P013,2025_Feb_08_1534,CategoryLocalizer,2021.2.3,59.947258401301625,
35.0,35.8,2,0.75,Stimuli\ImageFiles-Set2\Bodies\Bodies_Jumping_00003.png,0,0,0,47,47,47,,,,,,,,,,,,,35.01484319999872,0.014843199998722412,None,95.14510390000214,95.14510390000214,95.14510390000214,95.14510390000214,95.14510390000214,95.14510390000214,95.14510390000214,95.14510390000214,,002,P013,2025_Feb_08_1534,CategoryLocalizer,2021.2.3,59.947258401301625,
35.8,36.0,5,0.0,Stimuli\Blank.png,0,0,0,48,48,48,,,,,,,,,,,,,35.83147839999947,0.03147839999947166,None,95.94505070000014,95.94505070000014,95.94505070000014,95.94505070000014,95.94505070000014,95.94505070000014,95.94505070000014,95.94505070000014,,002,P013,2025_Feb_08_1534,CategoryLocalizer,2021.2.3,59.947258401301625,
36.0,36.8,2,0.75,Stimuli\ImageFiles-Set2\Bodies\Bodies_Running_00003.png,0,0,0,49,49,49,,,,,,,,,,,,,36.01401899999837,0.014018999998370418,None,96.12853470000118,96.12853470000118,96.12853470000118,96.12853470000118,96.12853470000118,96.12853470000118,96.12853470000118,96.12853470000118,,002,P013,2025_Feb_08_1534,CategoryLocalizer,2021.2.3,59.947258401301625,
36.8,37.0,5,0.0,Stimuli\Blank.png,0,0,0,50,50,50,,,,,,,,,,,,,36.81668770000033,0.016687700000332484,None,96.92924570000105,96.92924570000105,96.92924570000105,96.92924570000105,96.92924570000105,96.92924570000105,96.92924570000105,96.92924570000105,,002,P013,2025_Feb_08_1534,CategoryLocalizer,2021.2.3,59.947258401301625,
37.0,37.8,2,0.75,Stimuli\ImageFiles-Set2\Bodies\Bodies_Crawling_00004.png,1,1,0,51,51,51,,,,,,,,,,,,,36.99978349999947,-0.000216500000533415,None,97.12942290000137,97.12942290000137,97.12942290000137,97.12942290000137,97.12942290000137,97.12942290000137,97.12942290000137,97.12942290000137,,002,P013,2025_Feb_08_1534,CategoryLocalizer,2021.2.3,59.947258401301625,
37.8,38.0,5,0.0,Stimuli\Blank.png,0,0,0,52,52,52,,,,,,,,,,,,,37.81638799999928,0.016387999999281533,None,97.93012200000157,97.93012200000157,97.93012200000157,97.93012200000157,97.93012200000157,97.93012200000157,97.93012200000157,97.93012200000157,,002,P013,2025_Feb_08_1534,CategoryLocalizer,2021.2.3,59.947258401301625,
38.0,38.8,2,0.75,Stimuli\ImageFiles-Set2\Bodies\Bodies_Running_00007.png,0,0,0,53,53,53,,,,,,,,,,,,,37.999616199998854,-0.00038380000114557333,None,98.11362809999991,98.11362809999991,98.11362809999991,98.11362809999991,98.11362809999991,98.11362809999991,98.11362809999991,98.11362809999991,,002,P013,2025_Feb_08_1534,CategoryLocalizer,2021.2.3,59.947258401301625,
38.8,39.0,5,0.0,Stimuli\Blank.png,0,0,0,54,54,54,,,,,,,,,,,,,38.800349000001006,0.0003490000010089034,None,98.91433750000215,98.91433750000215,98.91433750000215,98.91433750000215,98.91433750000215,98.91433750000215,98.91433750000215,98.91433750000215,,002,P013,2025_Feb_08_1534,CategoryLocalizer,2021.2.3,59.947258401301625,
39.0,39.8,2,0.75,Stimuli\ImageFiles-Set2\Bodies\Bodies_Running_00007.png,0,0,0,55,55,55,,,,,,,,,,,,,39.00039529999776,0.0003952999977627769,1,99.13121110000066,99.13121110000066,99.13121110000066,99.13121110000066,99.13121110000066,99.13121110000066,99.13121110000066,99.13121110000066,0.33256319999782136,002,P013,2025_Feb_08_1534,CategoryLocalizer,2021.2.3,59.947258401301625,
39.8,40.0,5,0.0,Stimuli\Blank.png,0,0,0,56,56,56,,,,,,,,,,,,,39.81702030000088,0.01702030000087973,None,99.93189840000196,99.93189840000196,99.93189840000196,99.93189840000196,99.93189840000196,99.93189840000196,99.93189840000196,99.93189840000196,,002,P013,2025_Feb_08_1534,CategoryLocalizer,2021.2.3,59.947258401301625,
40.0,40.8,2,0.75,Stimuli\ImageFiles-Set2\Bodies\Bodies_Standing_00004.png,0,0,0,57,57,57,,,,,,,,,,,,,40.0012347999982,0.001234799998201197,None,100.11536310000156,100.11536310000156,100.11536310000156,100.11536310000156,100.11536310000156,100.11536310000156,100.11536310000156,100.11536310000156,,002,P013,2025_Feb_08_1534,CategoryLocalizer,2021.2.3,59.947258401301625,
40.8,41.0,5,0.0,Stimuli\Blank.png,0,0,0,58,58,58,,,,,,,,,,,,,40.801629599998705,0.0016295999987079313,None,100.91610410000067,100.91610410000067,100.91610410000067,100.91610410000067,100.91610410000067,100.91610410000067,100.91610410000067,100.91610410000067,,002,P013,2025_Feb_08_1534,CategoryLocalizer,2021.2.3,59.947258401301625,
41.0,41.8,2,0.75,Stimuli\ImageFiles-Set2\Bodies\Bodies_SittingFloor_00001.png,0,0,0,59,59,59,,,,,,,,,,,,,41.00179769999886,0.0017976999988604803,None,101.11632979999922,101.11632979999922,101.11632979999922,101.11632979999922,101.11632979999922,101.11632979999922,101.11632979999922,101.11632979999922,,002,P013,2025_Feb_08_1534,CategoryLocalizer,2021.2.3,59.947258401301625,
41.8,42.0,5,0.0,Stimuli\Blank.png,0,0,0,60,60,60,,,,,,,,,,,,,41.80245279999872,0.002452799998721389,None,101.91699180000069,101.91699180000069,101.91699180000069,101.91699180000069,101.91699180000069,101.91699180000069,101.91699180000069,101.91699180000069,,002,P013,2025_Feb_08_1534,CategoryLocalizer,2021.2.3,59.947258401301625,
42.0,42.8,2,0.75,Stimuli\ImageFiles-Set2\Bodies\Bodies_Waving_00006.png,0,0,0,61,61,61,,,,,,,,,,,,,42.00247759999911,0.00247759999911068,None,102.11712790000092,102.11712790000092,102.11712790000092,102.11712790000092,102.11712790000092,102.11712790000092,102.11712790000092,102.11712790000092,,002,P013,2025_Feb_08_1534,CategoryLocalizer,2021.2.3,59.947258401301625,
42.8,43.0,5,0.0,Stimuli\Blank.png,0,0,0,62,62,62,,,,,,,,,,,,,42.80308890000015,0.0030889000001508293,None,102.91787380000096,102.91787380000096,102.91787380000096,102.91787380000096,102.91787380000096,102.91787380000096,102.91787380000096,102.91787380000096,,002,P013,2025_Feb_08_1534,CategoryLocalizer,2021.2.3,59.947258401301625,
43.0,43.8,2,0.75,Stimuli\ImageFiles-Set2\Bodies\Bodies_SittingChair_00006.png,0,0,0,63,63,63,,,,,,,,,,,,,43.003827500000625,0.0038275000006251503,None,103.11801980000018,103.11801980000018,103.11801980000018,103.11801980000018,103.11801980000018,103.11801980000018,103.11801980000018,103.11801980000018,,002,P013,2025_Feb_08_1534,CategoryLocalizer,2021.2.3,59.947258401301625,
43.8,44.0,5,0.0,Stimuli\Blank.png,0,0,0,64,64,64,,,,,,,,,,,,,43.804557499999646,0.00455749999964894,None,103.91876970000158,103.91876970000158,103.91876970000158,103.91876970000158,103.91876970000158,103.91876970000158,103.91876970000158,103.91876970000158,,002,P013,2025_Feb_08_1534,CategoryLocalizer,2021.2.3,59.947258401301625,
44.0,44.8,3,0.75,Stimuli\ImageFiles-Set2\Faces\Face_00106.png,0,0,0,65,65,65,,,,,,,,,,,,,44.00488509999923,0.0048850999992282595,None,104.13567279999916,104.13567279999916,104.13567279999916,104.13567279999916,104.13567279999916,104.13567279999916,104.13567279999916,104.13567279999916,,002,P013,2025_Feb_08_1534,CategoryLocalizer,2021.2.3,59.947258401301625,
44.8,45.0,5,0.0,Stimuli\Blank.png,0,0,0,66,66,66,,,,,,,,,,,,,44.82157720000032,0.021577200000322705,None,104.9363188999996,104.9363188999996,104.9363188999996,104.9363188999996,104.9363188999996,104.9363188999996,104.9363188999996,104.9363188999996,,002,P013,2025_Feb_08_1534,CategoryLocalizer,2021.2.3,59.947258401301625,
45.0,45.8,3,0.75,Stimuli\ImageFiles-Set2\Faces\Face_00028.png,0,0,0,67,67,67,,,,,,,,,,,,,45.00613809999777,0.006138099997770041,None,105.13650250000137,105.13650250000137,105.13650250000137,105.13650250000137,105.13650250000137,105.13650250000137,105.13650250000137,105.13650250000137,,002,P013,2025_Feb_08_1534,CategoryLocalizer,2021.2.3,59.947258401301625,
45.8,46.0,5,0.0,Stimuli\Blank.png,0,0,0,68,68,68,,,,,,,,,,,,,45.82234089999838,0.02234089999838318,None,105.93718620000072,105.93718620000072,105.93718620000072,105.93718620000072,105.93718620000072,105.93718620000072,105.93718620000072,105.93718620000072,,002,P013,2025_Feb_08_1534,CategoryLocalizer,2021.2.3,59.947258401301625,
46.0,46.8,3,0.75,Stimuli\ImageFiles-Set2\Faces\Face_00028.png,1,1,0,69,69,69,,,,,,,,,,,,,46.006572700000106,0.006572700000106124,1,106.13742330000241,106.13742330000241,106.13742330000241,106.13742330000241,106.13742330000241,106.13742330000241,106.13742330000241,106.13742330000241,0.4103716000026907,002,P013,2025_Feb_08_1534,CategoryLocalizer,2021.2.3,59.947258401301625,
46.8,47.0,5,0.0,Stimuli\Blank.png,0,0,0,70,70,70,,,,,,,,,,,,,46.82535250000001,0.02535250000001099,None,106.95478759999969,106.95478759999969,106.95478759999969,106.95478759999969,106.95478759999969,106.95478759999969,106.95478759999969,106.95478759999969,,002,P013,2025_Feb_08_1534,CategoryLocalizer,2021.2.3,59.947258401301625,
47.0,47.8,3,0.75,Stimuli\ImageFiles-Set2\Faces\Face_00072.png,0,0,0,71,71,71,,,,,,,,,,,,,47.0269518999994,0.026951899999403395,None,107.15496980000171,107.15496980000171,107.15496980000171,107.15496980000171,107.15496980000171,107.15496980000171,107.15496980000171,107.15496980000171,,002,P013,2025_Feb_08_1534,CategoryLocalizer,2021.2.3,59.947258401301625,
47.8,48.0,5,0.0,Stimuli\Blank.png,0,0,0,72,72,72,,,,,,,,,,,,,47.8246513999984,0.0246513999984046,None,107.93897959999958,107.93897959999958,107.93897959999958,107.93897959999958,107.93897959999958,107.93897959999958,107.93897959999958,107.93897959999958,,002,P013,2025_Feb_08_1534,CategoryLocalizer,2021.2.3,59.947258401301625,
48.0,48.8,3,0.75,Stimuli\ImageFiles-Set2\Faces\Face_00004.png,0,0,0,73,73,73,,,,,,,,,,,,,48.010230600000796,0.010230600000795675,None,108.13916130000143,108.13916130000143,108.13916130000143,108.13916130000143,108.13916130000143,108.13916130000143,108.13916130000143,108.13916130000143,,002,P013,2025_Feb_08_1534,CategoryLocalizer,2021.2.3,59.947258401301625,
48.8,49.0,5,0.0,Stimuli\Blank.png,0,0,0,74,74,74,,,,,,,,,,,,,48.82491939999818,0.024919399998182712,None,108.93986140000197,108.93986140000197,108.93986140000197,108.93986140000197,108.93986140000197,108.93986140000197,108.93986140000197,108.93986140000197,,002,P013,2025_Feb_08_1534,CategoryLocalizer,2021.2.3,59.947258401301625,
49.0,49.8,3,0.75,Stimuli\ImageFiles-Set2\Faces\Face_00100.png,0,0,0,75,75,75,,,,,,,,,,,,,49.011071199998696,0.011071199998696102,None,109.14005420000103,109.14005420000103,109.14005420000103,109.14005420000103,109.14005420000103,109.14005420000103,109.14005420000103,109.14005420000103,,002,P013,2025_Feb_08_1534,CategoryLocalizer,2021.2.3,59.947258401301625,
49.8,50.0,5,0.0,Stimuli\Blank.png,0,0,0,76,76,76,,,,,,,,,,,,,49.82671950000076,0.02671950000076606,None,109.94074539999929,109.94074539999929,109.94074539999929,109.94074539999929,109.94074539999929,109.94074539999929,109.94074539999929,109.94074539999929,,002,P013,2025_Feb_08_1534,CategoryLocalizer,2021.2.3,59.947258401301625,
50.0,50.8,3,0.75,Stimuli\ImageFiles-Set2\Faces\Face_00044.png,0,0,0,77,77,77,,,,,,,,,,,,,50.010064099999,0.010064099998999154,None,110.12423879999915,110.12423879999915,110.12423879999915,110.12423879999915,110.12423879999915,110.12423879999915,110.12423879999915,110.12423879999915,,002,P013,2025_Feb_08_1534,CategoryLocalizer,2021.2.3,59.947258401301625,
50.8,51.0,5,0.0,Stimuli\Blank.png,0,0,0,78,78,78,,,,,,,,,,,,,50.8110557,0.011055700000000002,None,110.92496380000011,110.92496380000011,110.92496380000011,110.92496380000011,110.92496380000011,110.92496380000011,110.92496380000011,110.92496380000011,,002,P013,2025_Feb_08_1534,CategoryLocalizer,2021.2.3,59.947258401301625,
51.0,51.8,3,0.75,Stimuli\ImageFiles-Set2\Faces\Face_00096.png,0,0,0,79,79,79,,,,,,,,,,,,,51.01095709999936,0.010957099999359343,None,111.14243100000022,111.14243100000022,111.14243100000022,111.14243100000022,111.14243100000022,111.14243100000022,111.14243100000022,111.14243100000022,,002,P013,2025_Feb_08_1534,CategoryLocalizer,2021.2.3,59.947258401301625,
51.8,52.0,5,0.0,Stimuli\Blank.png,0,0,0,80,80,80,,,,,,,,,,,,,51.82778590000089,0.027785900000893093,None,111.94252530000085,111.94252530000085,111.94252530000085,111.94252530000085,111.94252530000085,111.94252530000085,111.94252530000085,111.94252530000085,,002,P013,2025_Feb_08_1534,CategoryLocalizer,2021.2.3,59.947258401301625,
52.0,52.8,3,0.75,Stimuli\ImageFiles-Set2\Faces\Face_00008.png,0,0,0,81,81,81,,,,,,,,,,,,,52.01180799999929,0.011807999999291496,None,112.1260160999991,112.1260160999991,112.1260160999991,112.1260160999991,112.1260160999991,112.1260160999991,112.1260160999991,112.1260160999991,,002,P013,2025_Feb_08_1534,CategoryLocalizer,2021.2.3,59.947258401301625,
52.8,53.0,5,0.0,Stimuli\Blank.png,0,0,0,82,82,82,,,,,,,,,,,,,52.81238160000066,0.012381600000665571,None,112.92671730000075,112.92671730000075,112.92671730000075,112.92671730000075,112.92671730000075,112.92671730000075,112.92671730000075,112.92671730000075,,002,P013,2025_Feb_08_1534,CategoryLocalizer,2021.2.3,59.947258401301625,
53.0,53.8,3,0.75,Stimuli\ImageFiles-Set2\Faces\Face_00070.png,0,0,0,83,83,83,,,,,,,,,,,,,53.013520500000595,0.013520500000595348,None,113.14357910000035,113.14357910000035,113.14357910000035,113.14357910000035,113.14357910000035,113.14357910000035,113.14357910000035,113.14357910000035,,002,P013,2025_Feb_08_1534,CategoryLocalizer,2021.2.3,59.947258401301625,
53.8,54.0,5,0.0,Stimuli\Blank.png,0,0,0,84,84,84,,,,,,,,,,,,,53.82955469999797,0.029554699997973444,None,113.94425260000207,113.94425260000207,113.94425260000207,113.94425260000207,113.94425260000207,113.94425260000207,113.94425260000207,113.94425260000207,,002,P013,2025_Feb_08_1534,CategoryLocalizer,2021.2.3,59.947258401301625,
54.0,54.8,3,0.75,Stimuli\ImageFiles-Set2\Faces\Face_00110.png,0,0,0,85,85,85,,,,,,,,,,,,,54.01358270000128,0.01358270000127959,None,114.12778180000169,114.12778180000169,114.12778180000169,114.12778180000169,114.12778180000169,114.12778180000169,114.12778180000169,114.12778180000169,,002,P013,2025_Feb_08_1534,CategoryLocalizer,2021.2.3,59.947258401301625,
54.8,55.0,5,0.0,Stimuli\Blank.png,0,0,0,86,86,86,,,,,,,,,,,,,54.81427479999911,0.014274799999114407,None,114.9284989000007,114.9284989000007,114.9284989000007,114.9284989000007,114.9284989000007,114.9284989000007,114.9284989000007,114.9284989000007,,002,P013,2025_Feb_08_1534,CategoryLocalizer,2021.2.3,59.947258401301625,
55.0,55.8,3,0.75,Stimuli\ImageFiles-Set2\Faces\Face_00002.png,0,0,0,87,87,87,,,,,,,,,,,,,55.01474700000108,0.014747000001079869,None,115.14535030000116,115.14535030000116,115.14535030000116,115.14535030000116,115.14535030000116,115.14535030000116,115.14535030000116,115.14535030000116,,002,P013,2025_Feb_08_1534,CategoryLocalizer,2021.2.3,59.947258401301625,
55.8,56.0,5,0.0,Stimuli\Blank.png,0,0,0,88,88,88,,,,,,,,,,,,,55.8318059000012,0.03180590000120276,None,115.94606460000068,115.94606460000068,115.94606460000068,115.94606460000068,115.94606460000068,115.94606460000068,115.94606460000068,115.94606460000068,,002,P013,2025_Feb_08_1534,CategoryLocalizer,2021.2.3,59.947258401301625,
56.0,56.8,3,0.75,Stimuli\ImageFiles-Set2\Faces\Face_00112.png,0,0,0,89,89,89,,,,,,,,,,,,,56.01644820000001,0.016448200000013458,None,116.12946170000214,116.12946170000214,116.12946170000214,116.12946170000214,116.12946170000214,116.12946170000214,116.12946170000214,116.12946170000214,,002,P013,2025_Feb_08_1534,CategoryLocalizer,2021.2.3,59.947258401301625,
56.8,57.0,5,0.0,Stimuli\Blank.png,0,0,0,90,90,90,,,,,,,,,,,,,56.799897599998076,-0.00010240000192140997,None,116.91358659999969,116.91358659999969,116.91358659999969,116.91358659999969,116.91358659999969,116.91358659999969,116.91358659999969,116.91358659999969,,002,P013,2025_Feb_08_1534,CategoryLocalizer,2021.2.3,59.947258401301625,
57.0,57.8,3,0.75,Stimuli\ImageFiles-Set2\Faces\Face_00034.png,0,0,0,91,91,91,,,,,,,,,,,,,56.99965710000106,-0.0003428999989409931,None,117.13046140000006,117.13046140000006,117.13046140000006,117.13046140000006,117.13046140000006,117.13046140000006,117.13046140000006,117.13046140000006,,002,P013,2025_Feb_08_1534,CategoryLocalizer,2021.2.3,59.947258401301625,
57.8,58.0,5,0.0,Stimuli\Blank.png,0,0,0,92,92,92,,,,,,,,,,,,,57.8164113999992,0.016411399999199716,None,117.93113810000068,117.93113810000068,117.93113810000068,117.93113810000068,117.93113810000068,117.93113810000068,117.93113810000068,117.93113810000068,,002,P013,2025_Feb_08_1534,CategoryLocalizer,2021.2.3,59.947258401301625,
58.0,58.8,3,0.75,Stimuli\ImageFiles-Set2\Faces\Face_00082.png,0,0,0,93,93,93,,,,,,,,,,,,,58.000849500000186,0.0008495000001857989,1,118.1313207000021,118.1313207000021,118.1313207000021,118.1313207000021,118.1313207000021,118.1313207000021,118.1313207000021,118.1313207000021,0.21845789999861154,002,P013,2025_Feb_08_1534,CategoryLocalizer,2021.2.3,59.947258401301625,
58.8,59.0,5,0.0,Stimuli\Blank.png,0,0,0,94,94,94,,,,,,,,,,,,,58.817293100000825,0.01729310000082762,None,118.93207930000062,118.93207930000062,118.93207930000062,118.93207930000062,118.93207930000062,118.93207930000062,118.93207930000062,118.93207930000062,,002,P013,2025_Feb_08_1534,CategoryLocalizer,2021.2.3,59.947258401301625,
59.0,59.8,3,0.75,Stimuli\ImageFiles-Set2\Faces\Face_00058.png,0,0,0,95,95,95,,,,,,,,,,,,,59.00149799999781,0.0014979999978095293,None,119.11553439999989,119.11553439999989,119.11553439999989,119.11553439999989,119.11553439999989,119.11553439999989,119.11553439999989,119.11553439999989,,002,P013,2025_Feb_08_1534,CategoryLocalizer,2021.2.3,59.947258401301625,
59.8,60.0,5,0.0,Stimuli\Blank.png,0,0,0,96,96,96,,,,,,,,,,,,,59.801432100000966,0.0014321000009687168,None,119.9162526,119.9162526,119.9162526,119.9162526,119.9162526,119.9162526,119.9162526,119.9162526,,002,P013,2025_Feb_08_1534,CategoryLocalizer,2021.2.3,59.947258401301625,
60.0,60.8,4,0.75,Stimuli\ImageFiles-Set2\Scenes\Scenes_083.png,0,0,0,97,97,97,,,,,,,,,,,,,60.0021874999984,0.0021874999983992893,None,120.116371600001,120.116371600001,120.116371600001,120.116371600001,120.116371600001,120.116371600001,120.116371600001,120.116371600001,,002,P013,2025_Feb_08_1534,CategoryLocalizer,2021.2.3,59.947258401301625,
60.8,61.0,5,0.0,Stimuli\Blank.png,0,0,0,98,98,98,,,,,,,,,,,,,60.80345859999943,0.0034585999994334315,None,120.91712810000172,120.91712810000172,120.91712810000172,120.91712810000172,120.91712810000172,120.91712810000172,120.91712810000172,120.91712810000172,,002,P013,2025_Feb_08_1534,CategoryLocalizer,2021.2.3,59.947258401301625,
61.0,61.8,4,0.75,Stimuli\ImageFiles-Set2\Scenes\Scenes_116.png,0,0,0,99,99,99,,,,,,,,,,,,,61.00322949999827,0.0032294999982696027,None,121.13397880000048,121.13397880000048,121.13397880000048,121.13397880000048,121.13397880000048,121.13397880000048,121.13397880000048,121.13397880000048,,002,P013,2025_Feb_08_1534,CategoryLocalizer,2021.2.3,59.947258401301625,
61.8,62.0,5,0.0,Stimuli\Blank.png,0,0,0,100,100,100,,,,,,,,,,,,,61.82043390000035,0.02043390000035572,None,121.93470140000136,121.93470140000136,121.93470140000136,121.93470140000136,121.93470140000136,121.93470140000136,121.93470140000136,121.93470140000136,,002,P013,2025_Feb_08_1534,CategoryLocalizer,2021.2.3,59.947258401301625,
62.0,62.8,4,0.75,Stimuli\ImageFiles-Set2\Scenes\Scenes_097.png,0,0,0,101,101,101,,,,,,,,,,,,,62.00530889999936,0.005308899999363348,None,122.13486499999999,122.13486499999999,122.13486499999999,122.13486499999999,122.13486499999999,122.13486499999999,122.13486499999999,122.13486499999999,,002,P013,2025_Feb_08_1534,CategoryLocalizer,2021.2.3,59.947258401301625,
62.8,63.0,5,0.0,Stimuli\Blank.png,0,0,0,102,102,102,,,,,,,,,,,,,62.821500999998534,0.02150099999853694,None,122.93557169999985,122.93557169999985,122.93557169999985,122.93557169999985,122.93557169999985,122.93557169999985,122.93557169999985,122.93557169999985,,002,P013,2025_Feb_08_1534,CategoryLocalizer,2021.2.3,59.947258401301625,
63.0,63.8,4,0.75,Stimuli\ImageFiles-Set2\Scenes\Scenes_096.png,0,0,0,103,103,103,,,,,,,,,,,,,63.00499879999916,0.0049987999991572,None,123.13575069999933,123.13575069999933,123.13575069999933,123.13575069999933,123.13575069999933,123.13575069999933,123.13575069999933,123.13575069999933,,002,P013,2025_Feb_08_1534,CategoryLocalizer,2021.2.3,59.947258401301625,
63.8,64.0,5,0.0,Stimuli\Blank.png,0,0,0,104,104,104,,,,,,,,,,,,,63.82172659999924,0.021726599999240648,None,123.9364757000003,123.9364757000003,123.9364757000003,123.9364757000003,123.9364757000003,123.9364757000003,123.9364757000003,123.9364757000003,,002,P013,2025_Feb_08_1534,CategoryLocalizer,2021.2.3,59.947258401301625,
64.0,64.8,4,0.75,Stimuli\ImageFiles-Set2\Scenes\Scenes_108.png,0,0,0,105,105,105,,,,,,,,,,,,,64.00586159999875,0.005861599998752354,None,124.1366388000024,124.1366388000024,124.1366388000024,124.1366388000024,124.1366388000024,124.1366388000024,124.1366388000024,124.1366388000024,,002,P013,2025_Feb_08_1534,CategoryLocalizer,2021.2.3,59.947258401301625,
64.8,65.0,5,0.0,Stimuli\Blank.png,0,0,0,106,106,106,,,,,,,,,,,,,64.82322779999959,0.023227799999588683,None,124.93735910000032,124.93735910000032,124.93735910000032,124.93735910000032,124.93735910000032,124.93735910000032,124.93735910000032,124.93735910000032,,002,P013,2025_Feb_08_1534,CategoryLocalizer,2021.2.3,59.947258401301625,
65.0,65.8,4,0.75,Stimuli\ImageFiles-Set2\Scenes\Scenes_099.png,0,0,0,107,107,107,,,,,,,,,,,,,65.0060854000003,0.006085400000301888,None,125.12083260000145,125.12083260000145,125.12083260000145,125.12083260000145,125.12083260000145,125.12083260000145,125.12083260000145,125.12083260000145,,002,P013,2025_Feb_08_1534,CategoryLocalizer,2021.2.3,59.947258401301625,
65.8,66.0,5,0.0,Stimuli\Blank.png,0,0,0,108,108,108,,,,,,,,,,,,,65.80745319999914,0.0074531999991478415,None,125.92155439999988,125.92155439999988,125.92155439999988,125.92155439999988,125.92155439999988,125.92155439999988,125.92155439999988,125.92155439999988,,002,P013,2025_Feb_08_1534,CategoryLocalizer,2021.2.3,59.947258401301625,
66.0,66.8,4,0.75,Stimuli\ImageFiles-Set2\Scenes\Scenes_071.png,0,0,0,109,109,109,,,,,,,,,,,,,66.00710559999789,0.007105599997885292,None,126.13840320000236,126.13840320000236,126.13840320000236,126.13840320000236,126.13840320000236,126.13840320000236,126.13840320000236,126.13840320000236,,002,P013,2025_Feb_08_1534,CategoryLocalizer,2021.2.3,59.947258401301625,
66.8,67.0,5,0.0,Stimuli\Blank.png,0,0,0,110,110,110,,,,,,,,,,,,,66.8245425999994,0.02454259999940689,None,126.93908460000239,126.93908460000239,126.93908460000239,126.93908460000239,126.93908460000239,126.93908460000239,126.93908460000239,126.93908460000239,,002,P013,2025_Feb_08_1534,CategoryLocalizer,2021.2.3,59.947258401301625,
67.0,67.8,4,0.75,Stimuli\ImageFiles-Set2\Scenes\Scenes_095.png,0,0,0,111,111,111,,,,,,,,,,,,,67.0102455999986,0.010245599998597754,None,127.13930320000145,127.13930320000145,127.13930320000145,127.13930320000145,127.13930320000145,127.13930320000145,127.13930320000145,127.13930320000145,,002,P013,2025_Feb_08_1534,CategoryLocalizer,2021.2.3,59.947258401301625,
67.8,68.0,5,0.0,Stimuli\Blank.png,0,0,0,112,112,112,,,,,,,,,,,,,67.82586779999838,0.025867799998380292,None,127.94001019999996,127.94001019999996,127.94001019999996,127.94001019999996,127.94001019999996,127.94001019999996,127.94001019999996,127.94001019999996,,002,P013,2025_Feb_08_1534,CategoryLocalizer,2021.2.3,59.947258401301625,
68.0,68.8,4,0.75,Stimuli\ImageFiles-Set2\Scenes\Scenes_076.png,0,0,0,113,113,113,,,,,,,,,,,,,68.0089999999982,0.008999999998195563,None,128.12349000000177,128.12349000000177,128.12349000000177,128.12349000000177,128.12349000000177,128.12349000000177,128.12349000000177,128.12349000000177,,002,P013,2025_Feb_08_1534,CategoryLocalizer,2021.2.3,59.947258401301625,
68.8,69.0,5,0.0,Stimuli\Blank.png,0,0,0,114,114,114,,,,,,,,,,,,,68.810908200001,0.010908200000997681,None,128.9242106999991,128.9242106999991,128.9242106999991,128.9242106999991,128.9242106999991,128.9242106999991,128.9242106999991,128.9242106999991,,002,P013,2025_Feb_08_1534,CategoryLocalizer,2021.2.3,59.947258401301625,
69.0,69.8,4,0.75,Stimuli\ImageFiles-Set2\Scenes\Scenes_077.png,0,0,0,115,115,115,,,,,,,,,,,,,69.01073629999883,0.010736299998825416,None,129.14107370000056,129.14107370000056,129.14107370000056,129.14107370000056,129.14107370000056,129.14107370000056,129.14107370000056,129.14107370000056,,002,P013,2025_Feb_08_1534,CategoryLocalizer,2021.2.3,59.947258401301625,
69.8,70.0,5,0.0,Stimuli\Blank.png,0,0,0,116,116,116,,,,,,,,,,,,,69.82794229999854,0.027942299998542808,None,129.94183909999992,129.94183909999992,129.94183909999992,129.94183909999992,129.94183909999992,129.94183909999992,129.94183909999992,129.94183909999992,,002,P013,2025_Feb_08_1534,CategoryLocalizer,2021.2.3,59.947258401301625,
70.0,70.8,4,0.75,Stimuli\ImageFiles-Set2\Scenes\Scenes_077.png,1,1,0,117,117,117,,,,,,,,,,,,,70.01127269999779,0.01127269999778946,1,130.1419421999999,130.1419421999999,130.1419421999999,130.1419421999999,130.1419421999999,130.1419421999999,130.1419421999999,130.1419421999999,0.46191539999927045,002,P013,2025_Feb_08_1534,CategoryLocalizer,2021.2.3,59.947258401301625,
70.8,71.0,5,0.0,Stimuli\Blank.png,0,0,0,118,118,118,,,,,,,,,,,,,70.82789849999972,0.02789849999972205,None,130.94265480000104,130.94265480000104,130.94265480000104,130.94265480000104,130.94265480000104,130.94265480000104,130.94265480000104,130.94265480000104,,002,P013,2025_Feb_08_1534,CategoryLocalizer,2021.2.3,59.947258401301625,
71.0,71.8,4,0.75,Stimuli\ImageFiles-Set2\Scenes\Scenes_106.png,0,0,0,119,119,119,,,,,,,,,,,,,71.01136069999848,0.011360699998476775,None,131.12614229999963,131.12614229999963,131.12614229999963,131.12614229999963,131.12614229999963,131.12614229999963,131.12614229999963,131.12614229999963,,002,P013,2025_Feb_08_1534,CategoryLocalizer,2021.2.3,59.947258401301625,
71.8,72.0,5,0.0,Stimuli\Blank.png,0,0,0,120,120,120,,,,,,,,,,,,,71.81201639999927,0.012016399999268401,None,131.92683930000203,131.92683930000203,131.92683930000203,131.92683930000203,131.92683930000203,131.92683930000203,131.92683930000203,131.92683930000203,,002,P013,2025_Feb_08_1534,CategoryLocalizer,2021.2.3,59.947258401301625,
72.0,72.8,4,0.75,Stimuli\ImageFiles-Set2\Scenes\Scenes_075.png,0,0,0,121,121,121,,,,,,,,,,,,,72.01587629999995,0.01587629999994533,None,132.16040620000058,132.16040620000058,132.16040620000058,132.16040620000058,132.16040620000058,132.16040620000058,132.16040620000058,132.16040620000058,,002,P013,2025_Feb_08_1534,CategoryLocalizer,2021.2.3,59.947258401301625,
72.8,73.0,5,0.0,Stimuli\Blank.png,0,0,0,122,122,122,,,,,,,,,,,,,72.82971990000078,0.02971990000078506,None,132.94442640000125,132.94442640000125,132.94442640000125,132.94442640000125,132.94442640000125,132.94442640000125,132.94442640000125,132.94442640000125,,002,P013,2025_Feb_08_1534,CategoryLocalizer,2021.2.3,59.947258401301625,
73.0,73.8,4,0.75,Stimuli\ImageFiles-Set2\Scenes\Scenes_105.png,0,0,0,123,123,123,,,,,,,,,,,,,73.01487229999839,0.014872299998387462,None,133.14461120000124,133.14461120000124,133.14461120000124,133.14461120000124,133.14461120000124,133.14461120000124,133.14461120000124,133.14461120000124,,002,P013,2025_Feb_08_1534,CategoryLocalizer,2021.2.3,59.947258401301625,
73.8,74.0,5,0.0,Stimuli\Blank.png,0,0,0,124,124,124,,,,,,,,,,,,,73.83120249999774,0.031202499997746713,None,133.9453104000022,133.9453104000022,133.9453104000022,133.9453104000022,133.9453104000022,133.9453104000022,133.9453104000022,133.9453104000022,,002,P013,2025_Feb_08_1534,CategoryLocalizer,2021.2.3,59.947258401301625,
74.0,74.8,4,0.75,Stimuli\ImageFiles-Set2\Scenes\Scenes_073.png,0,0,0,125,125,125,,,,,,,,,,,,,74.01557110000067,0.015571100000670413,None,134.145513200001,134.145513200001,134.145513200001,134.145513200001,134.145513200001,134.145513200001,134.145513200001,134.145513200001,,002,P013,2025_Feb_08_1534,CategoryLocalizer,2021.2.3,59.947258401301625,
74.8,75.0,5,0.0,Stimuli\Blank.png,0,0,0,126,126,126,,,,,,,,,,,,,74.81587489999947,0.015874899999474223,None,134.92951539999922,134.92951539999922,134.92951539999922,134.92951539999922,134.92951539999922,134.92951539999922,134.92951539999922,134.92951539999922,,002,P013,2025_Feb_08_1534,CategoryLocalizer,2021.2.3,59.947258401301625,
75.0,75.8,4,0.75,Stimuli\ImageFiles-Set2\Scenes\Scenes_104.png,0,0,0,127,127,127,,,,,,,,,,,,,74.99942459999875,-0.0005754000012530014,None,135.1296887999997,135.1296887999997,135.1296887999997,135.1296887999997,135.1296887999997,135.1296887999997,135.1296887999997,135.1296887999997,,002,P013,2025_Feb_08_1534,CategoryLocalizer,2021.2.3,59.947258401301625,
75.8,76.0,5,0.0,Stimuli\Blank.png,0,0,0,128,128,128,,,,,,,,,,,,,75.81566639999801,0.015666399998011116,None,135.93039760000102,135.93039760000102,135.93039760000102,135.93039760000102,135.93039760000102,135.93039760000102,135.93039760000102,135.93039760000102,,002,P013,2025_Feb_08_1534,CategoryLocalizer,2021.2.3,59.947258401301625,
76.0,88.0,0,0.0,Stimuli\Blank.png,0,0,0,129,129,129,,,,,,,,,,,,,75.99977289999879,-0.00022710000121151097,None,136.11389360000248,136.11389360000248,136.11389360000248,136.11389360000248,136.11389360000248,136.11389360000248,136.11389360000248,136.11389360000248,,002,P013,2025_Feb_08_1534,CategoryLocalizer,2021.2.3,59.947258401301625,
88.0,88.8,3,0.75,Stimuli\ImageFiles-Set2\Faces\Face_00052.png,0,0,0,130,130,130,,,,,,,,,,,,,88.0110863000009,0.011086300000897609,None,148.14123090000066,148.14123090000066,148.14123090000066,148.14123090000066,148.14123090000066,148.14123090000066,148.14123090000066,148.14123090000066,,002,P013,2025_Feb_08_1534,CategoryLocalizer,2021.2.3,59.947258401301625,
88.8,89.0,5,0.0,Stimuli\Blank.png,0,0,0,131,131,131,,,,,,,,,,,,,88.8270420000008,0.027042000000804478,None,148.94190510000044,148.94190510000044,148.94190510000044,148.94190510000044,148.94190510000044,148.94190510000044,148.94190510000044,148.94190510000044,,002,P013,2025_Feb_08_1534,CategoryLocalizer,2021.2.3,59.947258401301625,
89.0,89.8,3,0.75,Stimuli\ImageFiles-Set2\Faces\Face_00054.png,0,0,0,132,132,132,,,,,,,,,,,,,89.01142099999925,0.011420999999245396,None,149.14205439999932,149.14205439999932,149.14205439999932,149.14205439999932,149.14205439999932,149.14205439999932,149.14205439999932,149.14205439999932,,002,P013,2025_Feb_08_1534,CategoryLocalizer,2021.2.3,59.947258401301625,
89.8,90.0,5,0.0,Stimuli\Blank.png,0,0,0,133,133,133,,,,,,,,,,,,,89.82998360000056,0.02998360000056266,None,149.9594771000011,149.9594771000011,149.9594771000011,149.9594771000011,149.9594771000011,149.9594771000011,149.9594771000011,149.9594771000011,,002,P013,2025_Feb_08_1534,CategoryLocalizer,2021.2.3,59.947258401301625,
90.0,90.8,3,0.75,Stimuli\ImageFiles-Set2\Faces\Face_00094.png,0,0,0,134,134,134,,,,,,,,,,,,,90.03021449999869,0.03021449999869219,None,150.15965119999964,150.15965119999964,150.15965119999964,150.15965119999964,150.15965119999964,150.15965119999964,150.15965119999964,150.15965119999964,,002,P013,2025_Feb_08_1534,CategoryLocalizer,2021.2.3,59.947258401301625,
90.8,91.0,5,0.0,Stimuli\Blank.png,0,0,0,135,135,135,,,,,,,,,,,,,90.82984969999961,0.029849699999616064,None,150.94367480000074,150.94367480000074,150.94367480000074,150.94367480000074,150.94367480000074,150.94367480000074,150.94367480000074,150.94367480000074,,002,P013,2025_Feb_08_1534,CategoryLocalizer,2021.2.3,59.947258401301625,
91.0,91.8,3,0.75,Stimuli\ImageFiles-Set2\Faces\Face_00088.png,0,0,0,136,136,136,,,,,,,,,,,,,91.01292119999925,0.012921199999254895,None,151.12716730000102,151.12716730000102,151.12716730000102,151.12716730000102,151.12716730000102,151.12716730000102,151.12716730000102,151.12716730000102,,002,P013,2025_Feb_08_1534,CategoryLocalizer,2021.2.3,59.947258401301625,
91.8,92.0,5,0.0,Stimuli\Blank.png,0,0,0,137,137,137,,,,,,,,,,,,,91.81452469999931,0.014524699999313384,None,151.92789400000038,151.92789400000038,151.92789400000038,151.92789400000038,151.92789400000038,151.92789400000038,151.92789400000038,151.92789400000038,,002,P013,2025_Feb_08_1534,CategoryLocalizer,2021.2.3,59.947258401301625,
92.0,92.8,3,0.75,Stimuli\ImageFiles-Set2\Faces\Face_00114.png,0,0,0,138,138,138,,,,,,,,,,,,,92.01317299999937,0.013172999999369495,None,152.12805990000197,152.12805990000197,152.12805990000197,152.12805990000197,152.12805990000197,152.12805990000197,152.12805990000197,152.12805990000197,,002,P013,2025_Feb_08_1534,CategoryLocalizer,2021.2.3,59.947258401301625,
92.8,93.0,5,0.0,Stimuli\Blank.png,0,0,0,139,139,139,,,,,,,,,,,,,92.81475629999841,0.014756299998410327,None,152.92876940000133,152.92876940000133,152.92876940000133,152.92876940000133,152.92876940000133,152.92876940000133,152.92876940000133,152.92876940000133,,002,P013,2025_Feb_08_1534,CategoryLocalizer,2021.2.3,59.947258401301625,
93.0,93.8,3,0.75,Stimuli\ImageFiles-Set2\Faces\Face_00114.png,1,1,0,140,140,140,,,,,,,,,,,,,93.01409779999813,0.014097799998125993,1,153.12893840000106,153.12893840000106,153.12893840000106,153.12893840000106,153.12893840000106,153.12893840000106,153.12893840000106,153.12893840000106,0.4289996000006795,002,P013,2025_Feb_08_1534,CategoryLocalizer,2021.2.3,59.947258401301625,
93.8,94.0,5,0.0,Stimuli\Blank.png,0,0,0,141,141,141,,,,,,,,,,,,,93.81644700000106,0.01644700000106525,None,153.92967169999974,153.92967169999974,153.92967169999974,153.92967169999974,153.92967169999974,153.92967169999974,153.92967169999974,153.92967169999974,,002,P013,2025_Feb_08_1534,CategoryLocalizer,2021.2.3,59.947258401301625,
94.0,94.8,3,0.75,Stimuli\ImageFiles-Set2\Faces\Face_00062.png,0,0,0,142,142,142,,,,,,,,,,,,,94.00065059999906,0.0006505999990622513,None,154.12984639999922,154.12984639999922,154.12984639999922,154.12984639999922,154.12984639999922,154.12984639999922,154.12984639999922,154.12984639999922,,002,P013,2025_Feb_08_1534,CategoryLocalizer,2021.2.3,59.947258401301625,
94.8,95.0,5,0.0,Stimuli\Blank.png,0,0,0,143,143,143,,,,,,,,,,,,,94.81649290000132,0.01649290000132453,None,154.9305361000006,154.9305361000006,154.9305361000006,154.9305361000006,154.9305361000006,154.9305361000006,154.9305361000006,154.9305361000006,,002,P013,2025_Feb_08_1534,CategoryLocalizer,2021.2.3,59.947258401301625,
95.0,95.8,3,0.75,Stimuli\ImageFiles-Set2\Faces\Face_00060.png,0,0,0,144,144,144,,,,,,,,,,,,,95.00017039999875,0.00017039999875123613,None,155.1306955,155.1306955,155.1306955,155.1306955,155.1306955,155.1306955,155.1306955,155.1306955,,002,P013,2025_Feb_08_1534,CategoryLocalizer,2021.2.3,59.947258401301625,
95.8,96.0,5,0.0,Stimuli\Blank.png,0,0,0,145,145,145,,,,,,,,,,,,,95.81667989999914,0.016679899999147096,None,155.9314207000025,155.9314207000025,155.9314207000025,155.9314207000025,155.9314207000025,155.9314207000025,155.9314207000025,155.9314207000025,,002,P013,2025_Feb_08_1534,CategoryLocalizer,2021.2.3,59.947258401301625,
96.0,96.8,3,0.75,Stimuli\ImageFiles-Set2\Faces\Face_00023.png,0,0,0,146,146,146,,,,,,,,,,,,,96.00074120000136,0.0007412000013573561,None,156.13162050000028,156.13162050000028,156.13162050000028,156.13162050000028,156.13162050000028,156.13162050000028,156.13162050000028,156.13162050000028,,002,P013,2025_Feb_08_1534,CategoryLocalizer,2021.2.3,59.947258401301625,
96.8,97.0,5,0.0,Stimuli\Blank.png,0,0,0,147,147,147,,,,,,,,,,,,,96.82016590000057,0.020165900000577608,None,156.94899799999985,156.94899799999985,156.94899799999985,156.94899799999985,156.94899799999985,156.94899799999985,156.94899799999985,156.94899799999985,,002,P013,2025_Feb_08_1534,CategoryLocalizer,2021.2.3,59.947258401301625,
97.0,97.8,3,0.75,Stimuli\ImageFiles-Set2\Faces\Face_00017.png,0,0,0,148,148,148,,,,,,,,,,,,,97.0199305999995,0.019930599999497645,None,157.1491825000012,157.1491825000012,157.1491825000012,157.1491825000012,157.1491825000012,157.1491825000012,157.1491825000012,157.1491825000012,,002,P013,2025_Feb_08_1534,CategoryLocalizer,2021.2.3,59.947258401301625,
97.8,98.0,5,0.0,Stimuli\Blank.png,0,0,0,149,149,149,,,,,,,,,,,,,97.82079909999811,0.02079909999811491,None,157.94986860000063,157.94986860000063,157.94986860000063,157.94986860000063,157.94986860000063,157.94986860000063,157.94986860000063,157.94986860000063,,002,P013,2025_Feb_08_1534,CategoryLocalizer,2021.2.3,59.947258401301625,
98.0,98.8,3,0.75,Stimuli\ImageFiles-Set2\Faces\Face_00011.png,1,1,0,150,150,150,,,,,,,,,,,,,98.01855599999908,0.018555999999080086,None,158.1333725000004,158.1333725000004,158.1333725000004,158.1333725000004,158.1333725000004,158.1333725000004,158.1333725000004,158.1333725000004,,002,P013,2025_Feb_08_1534,CategoryLocalizer,2021.2.3,59.947258401301625,
98.8,99.0,5,0.0,Stimuli\Blank.png,0,0,0,151,151,151,,,,,,,,,,,,,98.80336869999883,0.0033686999988304933,None,158.91749340000024,158.91749340000024,158.91749340000024,158.91749340000024,158.91749340000024,158.91749340000024,158.91749340000024,158.91749340000024,,002,P013,2025_Feb_08_1534,CategoryLocalizer,2021.2.3,59.947258401301625,
99.0,99.8,3,0.75,Stimuli\ImageFiles-Set2\Faces\Face_00006.png,0,0,0,152,152,152,,,,,,,,,,,,,99.00264539999989,0.0026453999998921063,None,159.11757040000157,159.11757040000157,159.11757040000157,159.11757040000157,159.11757040000157,159.11757040000157,159.11757040000157,159.11757040000157,,002,P013,2025_Feb_08_1534,CategoryLocalizer,2021.2.3,59.947258401301625,
99.8,100.0,5,0.0,Stimuli\Blank.png,0,0,0,153,153,153,,,,,,,,,,,,,99.80365009999878,0.0036500999987794103,None,159.91833820000102,159.91833820000102,159.91833820000102,159.91833820000102,159.91833820000102,159.91833820000102,159.91833820000102,159.91833820000102,,002,P013,2025_Feb_08_1534,CategoryLocalizer,2021.2.3,59.947258401301625,
100.0,100.8,3,0.75,Stimuli\ImageFiles-Set2\Faces\Face_00006.png,0,0,0,154,154,154,,,,,,,,,,,,,100.00548139999955,0.005481399999553105,1,160.13515330000155,160.13515330000155,160.13515330000155,160.13515330000155,160.13515330000155,160.13515330000155,160.13515330000155,160.13515330000155,0.42770170000221697,002,P013,2025_Feb_08_1534,CategoryLocalizer,2021.2.3,59.947258401301625,
100.8,101.0,5,0.0,Stimuli\Blank.png,0,0,0,155,155,155,,,,,,,,,,,,,100.82111050000094,0.021110500000943944,None,160.93584790000023,160.93584790000023,160.93584790000023,160.93584790000023,160.93584790000023,160.93584790000023,160.93584790000023,160.93584790000023,,002,P013,2025_Feb_08_1534,CategoryLocalizer,2021.2.3,59.947258401301625,
101.0,101.8,3,0.75,Stimuli\ImageFiles-Set2\Faces\Face_00068.png,0,0,0,156,156,156,,,,,,,,,,,,,101.0047229999982,0.0047229999981937,None,161.11934830000246,161.11934830000246,161.11934830000246,161.11934830000246,161.11934830000246,161.11934830000246,161.11934830000246,161.11934830000246,,002,P013,2025_Feb_08_1534,CategoryLocalizer,2021.2.3,59.947258401301625,
101.8,102.0,5,0.0,Stimuli\Blank.png,0,0,0,157,157,157,,,,,,,,,,,,,101.80597800000032,0.005978000000325778,None,161.9200473000019,161.9200473000019,161.9200473000019,161.9200473000019,161.9200473000019,161.9200473000019,161.9200473000019,161.9200473000019,,002,P013,2025_Feb_08_1534,CategoryLocalizer,2021.2.3,59.947258401301625,
102.0,102.8,3,0.75,Stimuli\ImageFiles-Set2\Faces\Face_00048.png,0,0,0,158,158,158,,,,,,,,,,,,,102.0054444999987,0.005444499998702668,None,162.1202269000023,162.1202269000023,162.1202269000023,162.1202269000023,162.1202269000023,162.1202269000023,162.1202269000023,162.1202269000023,,002,P013,2025_Feb_08_1534,CategoryLocalizer,2021.2.3,59.947258401301625,
102.8,103.0,5,0.0,Stimuli\Blank.png,0,0,0,159,159,159,,,,,,,,,,,,,102.80594259999998,0.005942599999983145,None,162.9209456000026,162.9209456000026,162.9209456000026,162.9209456000026,162.9209456000026,162.9209456000026,162.9209456000026,162.9209456000026,,002,P013,2025_Feb_08_1534,CategoryLocalizer,2021.2.3,59.947258401301625,
103.0,103.8,3,0.75,Stimuli\ImageFiles-Set2\Faces\Face_00038.png,0,0,0,160,160,160,,,,,,,,,,,,,103.00650559999849,0.006505599998490652,None,163.12111260000165,163.12111260000165,163.12111260000165,163.12111260000165,163.12111260000165,163.12111260000165,163.12111260000165,163.12111260000165,,002,P013,2025_Feb_08_1534,CategoryLocalizer,2021.2.3,59.947258401301625,
103.8,104.0,5,0.0,Stimuli\Blank.png,0,0,0,161,161,161,,,,,,,,,,,,,103.80755539999882,0.007555399998821599,None,163.92183600000135,163.92183600000135,163.92183600000135,163.92183600000135,163.92183600000135,163.92183600000135,163.92183600000135,163.92183600000135,,002,P013,2025_Feb_08_1534,CategoryLocalizer,2021.2.3,59.947258401301625,
104.0,104.8,1,0.75,Stimuli\ImageFiles-Set2\Objects\Object_Lock_00001.png,0,0,0,162,162,162,,,,,,,,,,,,,104.00798439999926,0.00798439999925904,None,164.13928149999992,164.13928149999992,164.13928149999992,164.13928149999992,164.13928149999992,164.13928149999992,164.13928149999992,164.13928149999992,,002,P013,2025_Feb_08_1534,CategoryLocalizer,2021.2.3,59.947258401301625,
104.8,105.0,5,0.0,Stimuli\Blank.png,0,0,0,163,163,163,,,,,,,,,,,,,104.8247100999979,0.024710099997903967,None,164.9394267000025,164.9394267000025,164.9394267000025,164.9394267000025,164.9394267000025,164.9394267000025,164.9394267000025,164.9394267000025,,002,P013,2025_Feb_08_1534,CategoryLocalizer,2021.2.3,59.947258401301625,
105.0,105.8,1,0.75,Stimuli\ImageFiles-Set2\Objects\Object_Brick_00001.png,0,0,0,164,164,164,,,,,,,,,,,,,105.0095083999986,0.009508399998594541,None,165.1395689000019,165.1395689000019,165.1395689000019,165.1395689000019,165.1395689000019,165.1395689000019,165.1395689000019,165.1395689000019,,002,P013,2025_Feb_08_1534,CategoryLocalizer,2021.2.3,59.947258401301625,
105.8,106.0,5,0.0,Stimuli\Blank.png,0,0,0,165,165,165,,,,,,,,,,,,,105.82608579999942,0.02608579999942151,None,165.9402893000006,165.9402893000006,165.9402893000006,165.9402893000006,165.9402893000006,165.9402893000006,165.9402893000006,165.9402893000006,,002,P013,2025_Feb_08_1534,CategoryLocalizer,2021.2.3,59.947258401301625,
106.0,106.8,1,0.75,Stimuli\ImageFiles-Set2\Objects\Object_Noodle_00001.png,0,0,0,166,166,166,,,,,,,,,,,,,106.0093166000006,0.009316600000602193,None,166.12377480000214,166.12377480000214,166.12377480000214,166.12377480000214,166.12377480000214,166.12377480000214,166.12377480000214,166.12377480000214,,002,P013,2025_Feb_08_1534,CategoryLocalizer,2021.2.3,59.947258401301625,
106.8,107.0,5,0.0,Stimuli\Blank.png,0,0,0,167,167,167,,,,,,,,,,,,,106.80962630000067,0.00962630000067577,None,166.9244710000021,166.9244710000021,166.9244710000021,166.9244710000021,166.9244710000021,166.9244710000021,166.9244710000021,166.9244710000021,,002,P013,2025_Feb_08_1534,CategoryLocalizer,2021.2.3,59.947258401301625,
107.0,107.8,1,0.75,Stimuli\ImageFiles-Set2\Objects\Object_Dresser_00001.png,0,0,0,168,168,168,,,,,,,,,,,,,107.00984450000033,0.009844500000326661,None,167.12465180000072,167.12465180000072,167.12465180000072,167.12465180000072,167.12465180000072,167.12465180000072,167.12465180000072,167.12465180000072,,002,P013,2025_Feb_08_1534,CategoryLocalizer,2021.2.3,59.947258401301625,
107.8,108.0,5,0.0,Stimuli\Blank.png,0,0,0,169,169,169,,,,,,,,,,,,,107.81163329999981,0.011633299999814994,None,167.92535259999931,167.92535259999931,167.92535259999931,167.92535259999931,167.92535259999931,167.92535259999931,167.92535259999931,167.92535259999931,,002,P013,2025_Feb_08_1534,CategoryLocalizer,2021.2.3,59.947258401301625,
108.0,108.8,1,0.75,Stimuli\ImageFiles-Set2\Objects\Object_Bolt_00001.png,0,0,0,170,170,170,,,,,,,,,,,,,108.01160959999834,0.011609599998337217,None,168.1422433000007,168.1422433000007,168.1422433000007,168.1422433000007,168.1422433000007,168.1422433000007,168.1422433000007,168.1422433000007,,002,P013,2025_Feb_08_1534,CategoryLocalizer,2021.2.3,59.947258401301625,
108.8,109.0,5,0.0,Stimuli\Blank.png,0,0,0,171,171,171,,,,,,,,,,,,,108.8295564,0.029556400000004146,None,168.94292730000234,168.94292730000234,168.94292730000234,168.94292730000234,168.94292730000234,168.94292730000234,168.94292730000234,168.94292730000234,,002,P013,2025_Feb_08_1534,CategoryLocalizer,2021.2.3,59.947258401301625,
109.0,109.8,1,0.75,Stimuli\ImageFiles-Set2\Objects\Object_Ambulance_00001.png,0,0,0,172,172,172,,,,,,,,,,,,,109.01215700000103,0.012157000001025153,None,169.1431177000013,169.1431177000013,169.1431177000013,169.1431177000013,169.1431177000013,169.1431177000013,169.1431177000013,169.1431177000013,,002,P013,2025_Feb_08_1534,CategoryLocalizer,2021.2.3,59.947258401301625,
109.8,110.0,5,0.0,Stimuli\Blank.png,0,0,0,173,173,173,,,,,,,,,,,,,109.8298160000013,0.029816000001304133,None,169.94386160000067,169.94386160000067,169.94386160000067,169.94386160000067,169.94386160000067,169.94386160000067,169.94386160000067,169.94386160000067,,002,P013,2025_Feb_08_1534,CategoryLocalizer,2021.2.3,59.947258401301625,
110.0,110.8,1,0.75,Stimuli\ImageFiles-Set2\Objects\Object_Dishwasher_00001.png,0,0,0,174,174,174,,,,,,,,,,,,,110.01494119999916,0.014941199999157107,None,170.14399250000133,170.14399250000133,170.14399250000133,170.14399250000133,170.14399250000133,170.14399250000133,170.14399250000133,170.14399250000133,,002,P013,2025_Feb_08_1534,CategoryLocalizer,2021.2.3,59.947258401301625,
110.8,111.0,5,0.0,Stimuli\Blank.png,0,0,0,175,175,175,,,,,,,,,,,,,110.830423899999,0.03042389999900763,None,170.94470690000162,170.94470690000162,170.94470690000162,170.94470690000162,170.94470690000162,170.94470690000162,170.94470690000162,170.94470690000162,,002,P013,2025_Feb_08_1534,CategoryLocalizer,2021.2.3,59.947258401301625,
111.0,111.8,1,0.75,Stimuli\ImageFiles-Set2\Objects\Object_Coffee_00001.png,0,0,0,176,176,176,,,,,,,,,,,,,111.01531510000132,0.01531510000131675,None,171.1449023999994,171.1449023999994,171.1449023999994,171.1449023999994,171.1449023999994,171.1449023999994,171.1449023999994,171.1449023999994,,002,P013,2025_Feb_08_1534,CategoryLocalizer,2021.2.3,59.947258401301625,
111.8,112.0,5,0.0,Stimuli\Blank.png,0,0,0,177,177,177,,,,,,,,,,,,,111.81544679999934,0.015446799999338623,None,171.92891919999965,171.92891919999965,171.92891919999965,171.92891919999965,171.92891919999965,171.92891919999965,171.92891919999965,171.92891919999965,,002,P013,2025_Feb_08_1534,CategoryLocalizer,2021.2.3,59.947258401301625,
112.0,112.8,1,0.75,Stimuli\ImageFiles-Set2\Objects\Object_Coffee_00001.png,1,1,0,178,178,178,,,,,,,,,,,,,112.01547239999854,0.015472399998543551,1,172.14575400000103,172.14575400000103,172.14575400000103,172.14575400000103,172.14575400000103,172.14575400000103,172.14575400000103,172.14575400000103,0.40724060000138707,002,P013,2025_Feb_08_1534,CategoryLocalizer,2021.2.3,59.947258401301625,
112.8,113.0,5,0.0,Stimuli\Blank.png,0,0,0,179,179,179,,,,,,,,,,,,,112.81552929999816,0.015529299998163992,None,172.9298067000018,172.9298067000018,172.9298067000018,172.9298067000018,172.9298067000018,172.9298067000018,172.9298067000018,172.9298067000018,,002,P013,2025_Feb_08_1534,CategoryLocalizer,2021.2.3,59.947258401301625,
113.0,113.8,1,0.75,Stimuli\ImageFiles-Set2\Objects\Object_Refrigerator_00001.png,0,0,0,180,180,180,,,,,,,,,,,,,113.01571279999916,0.015712799999164417,None,173.14664919999996,173.14664919999996,173.14664919999996,173.14664919999996,173.14664919999996,173.14664919999996,173.14664919999996,173.14664919999996,,002,P013,2025_Feb_08_1534,CategoryLocalizer,2021.2.3,59.947258401301625,
113.8,114.0,5,0.0,Stimuli\Blank.png,0,0,0,181,181,181,,,,,,,,,,,,,113.81581119999828,0.015811199998282177,None,173.9306777999991,173.9306777999991,173.9306777999991,173.9306777999991,173.9306777999991,173.9306777999991,173.9306777999991,173.9306777999991,,002,P013,2025_Feb_08_1534,CategoryLocalizer,2021.2.3,59.947258401301625,
114.0,114.8,1,0.75,Stimuli\ImageFiles-Set2\Objects\Object_Bicycle_00001.png,0,0,0,182,182,182,,,,,,,,,,,,,113.99996620000093,-3.3799999073380604e-05,None,174.1141349999998,174.1141349999998,174.1141349999998,174.1141349999998,174.1141349999998,174.1141349999998,174.1141349999998,174.1141349999998,,002,P013,2025_Feb_08_1534,CategoryLocalizer,2021.2.3,59.947258401301625,
114.8,115.0,5,0.0,Stimuli\Blank.png,0,0,0,183,183,183,,,,,,,,,,,,,114.80101930000092,0.001019300000919543,None,174.91488160000154,174.91488160000154,174.91488160000154,174.91488160000154,174.91488160000154,174.91488160000154,174.91488160000154,174.91488160000154,,002,P013,2025_Feb_08_1534,CategoryLocalizer,2021.2.3,59.947258401301625,
115.0,115.8,1,0.75,Stimuli\ImageFiles-Set2\Objects\Object_Pitcher_00001.png,0,0,0,184,184,184,,,,,,,,,,,,,115.00087970000095,0.0008797000009508338,None,175.11505070000203,175.11505070000203,175.11505070000203,175.11505070000203,175.11505070000203,175.11505070000203,175.11505070000203,175.11505070000203,,002,P013,2025_Feb_08_1534,CategoryLocalizer,2021.2.3,59.947258401301625,
115.8,116.0,5,0.0,Stimuli\Blank.png,0,0,0,185,185,185,,,,,,,,,,,,,115.8016807999993,0.0016807999993062595,None,175.91576290000012,175.91576290000012,175.91576290000012,175.91576290000012,175.91576290000012,175.91576290000012,175.91576290000012,175.91576290000012,,002,P013,2025_Feb_08_1534,CategoryLocalizer,2021.2.3,59.947258401301625,
116.0,116.8,1,0.75,Stimuli\ImageFiles-Set2\Objects\Object_Pepper_00001.png,0,0,0,186,186,186,,,,,,,,,,,,,116.00187829999777,0.0018782999977702275,None,176.11594479999985,176.11594479999985,176.11594479999985,176.11594479999985,176.11594479999985,176.11594479999985,176.11594479999985,176.11594479999985,,002,P013,2025_Feb_08_1534,CategoryLocalizer,2021.2.3,59.947258401301625,
116.8,117.0,5,0.0,Stimuli\Blank.png,0,0,0,187,187,187,,,,,,,,,,,,,116.8018078999994,0.001807899999406004,None,176.9166194999998,176.9166194999998,176.9166194999998,176.9166194999998,176.9166194999998,176.9166194999998,176.9166194999998,176.9166194999998,,002,P013,2025_Feb_08_1534,CategoryLocalizer,2021.2.3,59.947258401301625,
117.0,117.8,1,0.75,Stimuli\ImageFiles-Set2\Objects\Object_Shelves_00001.png,0,0,0,188,188,188,,,,,,,,,,,,,117.00268750000032,0.002687500000320142,None,177.11682199999996,177.11682199999996,177.11682199999996,177.11682199999996,177.11682199999996,177.11682199999996,177.11682199999996,177.11682199999996,,002,P013,2025_Feb_08_1534,CategoryLocalizer,2021.2.3,59.947258401301625,
117.8,118.0,5,0.0,Stimuli\Blank.png,0,0,0,189,189,189,,,,,,,,,,,,,117.80491099999927,0.004910999999268029,None,177.93421959999978,177.93421959999978,177.93421959999978,177.93421959999978,177.93421959999978,177.93421959999978,177.93421959999978,177.93421959999978,,002,P013,2025_Feb_08_1534,CategoryLocalizer,2021.2.3,59.947258401301625,
118.0,118.8,1,0.75,Stimuli\ImageFiles-Set2\Objects\Object_Truck_00001.png,0,0,0,190,190,190,,,,,,,,,,,,,118.02003400000103,0.020034000001032837,None,178.1343908000017,178.1343908000017,178.1343908000017,178.1343908000017,178.1343908000017,178.1343908000017,178.1343908000017,178.1343908000017,,002,P013,2025_Feb_08_1534,CategoryLocalizer,2021.2.3,59.947258401301625,
118.8,119.0,5,0.0,Stimuli\Blank.png,0,0,0,191,191,191,,,,,,,,,,,,,118.80623259999993,0.006232599999933086,None,178.9351260000003,178.9351260000003,178.9351260000003,178.9351260000003,178.9351260000003,178.9351260000003,178.9351260000003,178.9351260000003,,002,P013,2025_Feb_08_1534,CategoryLocalizer,2021.2.3,59.947258401301625,
119.0,119.8,1,0.75,Stimuli\ImageFiles-Set2\Objects\Object_Hook_00001.png,0,0,0,192,192,192,,,,,,,,,,,,,119.02089469999919,0.02089469999918947,None,179.13528100000258,179.13528100000258,179.13528100000258,179.13528100000258,179.13528100000258,179.13528100000258,179.13528100000258,179.13528100000258,,002,P013,2025_Feb_08_1534,CategoryLocalizer,2021.2.3,59.947258401301625,
119.8,120.0,5,0.0,Stimuli\Blank.png,0,0,0,193,193,193,,,,,,,,,,,,,119.80463469999813,0.004634699998135261,None,179.9193073000024,179.9193073000024,179.9193073000024,179.9193073000024,179.9193073000024,179.9193073000024,179.9193073000024,179.9193073000024,,002,P013,2025_Feb_08_1534,CategoryLocalizer,2021.2.3,59.947258401301625,
120.0,120.8,4,0.75,Stimuli\ImageFiles-Set2\Scenes\Scenes_074.png,0,0,0,194,194,194,,,,,,,,,,,,,120.0047095000009,0.004709500000899425,None,180.12011420000272,180.12011420000272,180.12011420000272,180.12011420000272,180.12011420000272,180.12011420000272,180.12011420000272,180.12011420000272,,002,P013,2025_Feb_08_1534,CategoryLocalizer,2021.2.3,59.947258401301625,
120.8,121.0,5,0.0,Stimuli\Blank.png,0,0,0,195,195,195,,,,,,,,,,,,,120.80602019999787,0.006020199997877285,None,180.92018850000022,180.92018850000022,180.92018850000022,180.92018850000022,180.92018850000022,180.92018850000022,180.92018850000022,180.92018850000022,,002,P013,2025_Feb_08_1534,CategoryLocalizer,2021.2.3,59.947258401301625,
121.0,121.8,4,0.75,Stimuli\ImageFiles-Set2\Scenes\Scenes_118.png,0,0,0,196,196,196,,,,,,,,,,,,,121.00629620000109,0.006296200001088437,None,181.1203647000002,181.1203647000002,181.1203647000002,181.1203647000002,181.1203647000002,181.1203647000002,181.1203647000002,181.1203647000002,,002,P013,2025_Feb_08_1534,CategoryLocalizer,2021.2.3,59.947258401301625,
121.8,122.0,5,0.0,Stimuli\Blank.png,0,0,0,197,197,197,,,,,,,,,,,,,121.80735730000015,0.0073573000001516675,None,181.92109750000236,181.92109750000236,181.92109750000236,181.92109750000236,181.92109750000236,181.92109750000236,181.92109750000236,181.92109750000236,,002,P013,2025_Feb_08_1534,CategoryLocalizer,2021.2.3,59.947258401301625,
122.0,122.8,4,0.75,Stimuli\ImageFiles-Set2\Scenes\Scenes_107.png,0,0,0,198,198,198,,,,,,,,,,,,,122.00726709999799,0.007267099997989135,None,182.12125350000133,182.12125350000133,182.12125350000133,182.12125350000133,182.12125350000133,182.12125350000133,182.12125350000133,182.12125350000133,,002,P013,2025_Feb_08_1534,CategoryLocalizer,2021.2.3,59.947258401301625,
122.8,123.0,5,0.0,Stimuli\Blank.png,0,0,0,199,199,199,,,,,,,,,,,,,122.8077157000007,0.007715700000701986,None,182.92200270000103,182.92200270000103,182.92200270000103,182.92200270000103,182.92200270000103,182.92200270000103,182.92200270000103,182.92200270000103,,002,P013,2025_Feb_08_1534,CategoryLocalizer,2021.2.3,59.947258401301625,
123.0,123.8,4,0.75,Stimuli\ImageFiles-Set2\Scenes\Scenes_089.png,0,0,0,200,200,200,,,,,,,,,,,,,123.00726600000053,0.007266000000527129,None,183.1221332999994,183.1221332999994,183.1221332999994,183.1221332999994,183.1221332999994,183.1221332999994,183.1221332999994,183.1221332999994,,002,P013,2025_Feb_08_1534,CategoryLocalizer,2021.2.3,59.947258401301625,
123.8,124.0,5,0.0,Stimuli\Blank.png,0,0,0,201,201,201,,,,,,,,,,,,,123.81098479999855,0.010984799998553285,None,183.93952790000185,183.93952790000185,183.93952790000185,183.93952790000185,183.93952790000185,183.93952790000185,183.93952790000185,183.93952790000185,,002,P013,2025_Feb_08_1534,CategoryLocalizer,2021.2.3,59.947258401301625,
124.0,124.8,4,0.75,Stimuli\ImageFiles-Set2\Scenes\Scenes_065.png,0,0,0,202,202,202,,,,,,,,,,,,,124.02546919999804,0.025469199998042313,None,184.1563814000001,184.1563814000001,184.1563814000001,184.1563814000001,184.1563814000001,184.1563814000001,184.1563814000001,184.1563814000001,,002,P013,2025_Feb_08_1534,CategoryLocalizer,2021.2.3,59.947258401301625,
124.8,125.0,5,0.0,Stimuli\Blank.png,0,0,0,203,203,203,,,,,,,,,,,,,124.82597539999915,0.025975399999154547,None,184.94041420000212,184.94041420000212,184.94041420000212,184.94041420000212,184.94041420000212,184.94041420000212,184.94041420000212,184.94041420000212,,002,P013,2025_Feb_08_1534,CategoryLocalizer,2021.2.3,59.947258401301625,
125.0,125.8,4,0.75,Stimuli\ImageFiles-Set2\Scenes\Scenes_090.png,0,0,0,204,204,204,,,,,,,,,,,,,125.00995229999899,0.009952299998985836,None,185.14104729999963,185.14104729999963,185.14104729999963,185.14104729999963,185.14104729999963,185.14104729999963,185.14104729999963,185.14104729999963,,002,P013,2025_Feb_08_1534,CategoryLocalizer,2021.2.3,59.947258401301625,
125.8,126.0,5,0.0,Stimuli\Blank.png,0,0,0,205,205,205,,,,,,,,,,,,,125.82658580000134,0.026585800001342363,None,185.94129020000037,185.94129020000037,185.94129020000037,185.94129020000037,185.94129020000037,185.94129020000037,185.94129020000037,185.94129020000037,,002,P013,2025_Feb_08_1534,CategoryLocalizer,2021.2.3,59.947258401301625,
126.0,126.8,4,0.75,Stimuli\ImageFiles-Set2\Scenes\Scenes_090.png,1,1,0,206,206,206,,,,,,,,,,,,,126.01034849999996,0.010348499999963678,1,186.14150200000222,186.14150200000222,186.14150200000222,186.14150200000222,186.14150200000222,186.14150200000222,186.14150200000222,186.14150200000222,0.43536630000016885,002,P013,2025_Feb_08_1534,CategoryLocalizer,2021.2.3,59.947258401301625,
126.8,127.0,5,0.0,Stimuli\Blank.png,0,0,0,207,207,207,,,,,,,,,,,,,126.8274124999989,0.027412499998902717,None,186.94218209999963,186.94218209999963,186.94218209999963,186.94218209999963,186.94218209999963,186.94218209999963,186.94218209999963,186.94218209999963,,002,P013,2025_Feb_08_1534,CategoryLocalizer,2021.2.3,59.947258401301625,
127.0,127.8,4,0.75,Stimuli\ImageFiles-Set2\Scenes\Scenes_069.png,0,0,0,208,208,208,,,,,,,,,,,,,127.01150469999993,0.0115046999999322,None,187.1256859999994,187.1256859999994,187.1256859999994,187.1256859999994,187.1256859999994,187.1256859999994,187.1256859999994,187.1256859999994,,002,P013,2025_Feb_08_1534,CategoryLocalizer,2021.2.3,59.947258401301625,
127.8,128.0,5,0.0,Stimuli\Blank.png,0,0,0,209,209,209,,,,,,,,,,,,,127.81302489999871,0.013024899998711703,None,187.92640129999927,187.92640129999927,187.92640129999927,187.92640129999927,187.92640129999927,187.92640129999927,187.92640129999927,187.92640129999927,,002,P013,2025_Feb_08_1534,CategoryLocalizer,2021.2.3,59.947258401301625,
128.0,128.8,4,0.75,Stimuli\ImageFiles-Set2\Scenes\Scenes_061.png,1,1,0,210,210,210,,,,,,,,,,,,,128.01212490000034,0.012124900000344496,None,188.12656079999942,188.12656079999942,188.12656079999942,188.12656079999942,188.12656079999942,188.12656079999942,188.12656079999942,188.12656079999942,,002,P013,2025_Feb_08_1534,CategoryLocalizer,2021.2.3,59.947258401301625,
128.8,129.0,5,0.0,Stimuli\Blank.png,0,0,0,211,211,211,,,,,,,,,,,,,128.81527389999974,0.015273899999726837,None,188.9439714,188.9439714,188.9439714,188.9439714,188.9439714,188.9439714,188.9439714,188.9439714,,002,P013,2025_Feb_08_1534,CategoryLocalizer,2021.2.3,59.947258401301625,
129.0,129.8,4,0.75,Stimuli\ImageFiles-Set2\Scenes\Scenes_100.png,0,0,0,212,212,212,,,,,,,,,,,,,129.03093509999962,0.03093509999962407,None,189.16081430000122,189.16081430000122,189.16081430000122,189.16081430000122,189.16081430000122,189.16081430000122,189.16081430000122,189.16081430000122,,002,P013,2025_Feb_08_1534,CategoryLocalizer,2021.2.3,59.947258401301625,
129.8,130.0,5,0.0,Stimuli\Blank.png,0,0,0,213,213,213,,,,,,,,,,,,,129.83102710000094,0.031027100000926566,None,189.94485089999944,189.94485089999944,189.94485089999944,189.94485089999944,189.94485089999944,189.94485089999944,189.94485089999944,189.94485089999944,,002,P013,2025_Feb_08_1534,CategoryLocalizer,2021.2.3,59.947258401301625,
130.0,130.8,4,0.75,Stimuli\ImageFiles-Set2\Scenes\Scenes_100.png,0,0,0,214,214,214,,,,,,,,,,,,,130.01457409999784,0.014574099997844314,1,190.12832569999955,190.12832569999955,190.12832569999955,190.12832569999955,190.12832569999955,190.12832569999955,190.12832569999955,190.12832569999955,0.43165159999989555,002,P013,2025_Feb_08_1534,CategoryLocalizer,2021.2.3,59.947258401301625,
130.8,131.0,5,0.0,Stimuli\Blank.png,0,0,0,215,215,215,,,,,,,,,,,,,130.81521069999872,0.015210699998704058,None,190.9290538000023,190.9290538000023,190.9290538000023,190.9290538000023,190.9290538000023,190.9290538000023,190.9290538000023,190.9290538000023,,002,P013,2025_Feb_08_1534,CategoryLocalizer,2021.2.3,59.947258401301625,
131.0,131.8,4,0.75,Stimuli\ImageFiles-Set2\Scenes\Scenes_093.png,0,0,0,216,216,216,,,,,,,,,,,,,131.01524290000089,0.015242900000885129,None,191.14586380000037,191.14586380000037,191.14586380000037,191.14586380000037,191.14586380000037,191.14586380000037,191.14586380000037,191.14586380000037,,002,P013,2025_Feb_08_1534,CategoryLocalizer,2021.2.3,59.947258401301625,
131.8,132.0,5,0.0,Stimuli\Blank.png,0,0,0,217,217,217,,,,,,,,,,,,,131.8161360999984,0.016136099998391273,None,191.92992180000147,191.92992180000147,191.92992180000147,191.92992180000147,191.92992180000147,191.92992180000147,191.92992180000147,191.92992180000147,,002,P013,2025_Feb_08_1534,CategoryLocalizer,2021.2.3,59.947258401301625,
132.0,132.8,4,0.75,Stimuli\ImageFiles-Set2\Scenes\Scenes_084.png,0,0,0,218,218,218,,,,,,,,,,,,,132.00135130000126,0.0013513000012608245,None,192.1300701,192.1300701,192.1300701,192.1300701,192.1300701,192.1300701,192.1300701,192.1300701,,002,P013,2025_Feb_08_1534,CategoryLocalizer,2021.2.3,59.947258401301625,
132.8,133.0,5,0.0,Stimuli\Blank.png,0,0,0,219,219,219,,,,,,,,,,,,,132.81592829999863,0.015928299998620332,None,192.9308106000026,192.9308106000026,192.9308106000026,192.9308106000026,192.9308106000026,192.9308106000026,192.9308106000026,192.9308106000026,,002,P013,2025_Feb_08_1534,CategoryLocalizer,2021.2.3,59.947258401301625,
133.0,133.8,4,0.75,Stimuli\ImageFiles-Set2\Scenes\Scenes_078.png,0,0,0,220,220,220,,,,,,,,,,,,,133.00060020000092,0.000600200000917539,None,193.13098280000122,193.13098280000122,193.13098280000122,193.13098280000122,193.13098280000122,193.13098280000122,193.13098280000122,193.13098280000122,,002,P013,2025_Feb_08_1534,CategoryLocalizer,2021.2.3,59.947258401301625,
133.8,134.0,5,0.0,Stimuli\Blank.png,0,0,0,221,221,221,,,,,,,,,,,,,133.81689529999858,0.016895299998566315,None,193.93170309999914,193.93170309999914,193.93170309999914,193.93170309999914,193.93170309999914,193.93170309999914,193.93170309999914,193.93170309999914,,002,P013,2025_Feb_08_1534,CategoryLocalizer,2021.2.3,59.947258401301625,
134.0,134.8,4,0.75,Stimuli\ImageFiles-Set2\Scenes\Scenes_085.png,0,0,0,222,222,222,,,,,,,,,,,,,134.00102119999792,0.00102119999792194,None,194.13186960000166,194.13186960000166,194.13186960000166,194.13186960000166,194.13186960000166,194.13186960000166,194.13186960000166,194.13186960000166,,002,P013,2025_Feb_08_1534,CategoryLocalizer,2021.2.3,59.947258401301625,
134.8,135.0,5,0.0,Stimuli\Blank.png,0,0,0,223,223,223,,,,,,,,,,,,,134.81774999999834,0.017749999998329713,None,194.9325783000022,194.9325783000022,194.9325783000022,194.9325783000022,194.9325783000022,194.9325783000022,194.9325783000022,194.9325783000022,,002,P013,2025_Feb_08_1534,CategoryLocalizer,2021.2.3,59.947258401301625,
135.0,135.8,4,0.75,Stimuli\ImageFiles-Set2\Scenes\Scenes_086.png,0,0,0,224,224,224,,,,,,,,,,,,,135.00270389999787,0.002703899997868575,None,195.13275790000262,195.13275790000262,195.13275790000262,195.13275790000262,195.13275790000262,195.13275790000262,195.13275790000262,195.13275790000262,,002,P013,2025_Feb_08_1534,CategoryLocalizer,2021.2.3,59.947258401301625,
135.8,136.0,5,0.0,Stimuli\Blank.png,0,0,0,225,225,225,,,,,,,,,,,,,135.82051579999825,0.02051579999823616,None,195.95016150000083,195.95016150000083,195.95016150000083,195.95016150000083,195.95016150000083,195.95016150000083,195.95016150000083,195.95016150000083,,002,P013,2025_Feb_08_1534,CategoryLocalizer,2021.2.3,59.947258401301625,
136.0,136.8,2,0.75,Stimuli\ImageFiles-Set2\Bodies\Bodies_Falling_00005.png,0,0,0,226,226,226,,,,,,,,,,,,,136.01984100000118,0.019841000001179054,None,196.1336368000011,196.1336368000011,196.1336368000011,196.1336368000011,196.1336368000011,196.1336368000011,196.1336368000011,196.1336368000011,,002,P013,2025_Feb_08_1534,CategoryLocalizer,2021.2.3,59.947258401301625,
136.8,137.0,5,0.0,Stimuli\Blank.png,0,0,0,227,227,227,,,,,,,,,,,,,136.80302139999912,0.003021399999113328,None,196.91766769999958,196.91766769999958,196.91766769999958,196.91766769999958,196.91766769999958,196.91766769999958,196.91766769999958,196.91766769999958,,002,P013,2025_Feb_08_1534,CategoryLocalizer,2021.2.3,59.947258401301625,
137.0,137.8,2,0.75,Stimuli\ImageFiles-Set2\Bodies\Bodies_Falling_00003.png,0,0,0,228,228,228,,,,,,,,,,,,,137.00446139999985,0.0044613999998546205,None,197.11787190000177,197.11787190000177,197.11787190000177,197.11787190000177,197.11787190000177,197.11787190000177,197.11787190000177,197.11787190000177,,002,P013,2025_Feb_08_1534,CategoryLocalizer,2021.2.3,59.947258401301625,
137.8,138.0,5,0.0,Stimuli\Blank.png,0,0,0,229,229,229,,,,,,,,,,,,,137.80462899999839,0.004628999998374184,None,197.91856140000164,197.91856140000164,197.91856140000164,197.91856140000164,197.91856140000164,197.91856140000164,197.91856140000164,197.91856140000164,,002,P013,2025_Feb_08_1534,CategoryLocalizer,2021.2.3,59.947258401301625,
138.0,138.8,2,0.75,Stimuli\ImageFiles-Set2\Bodies\Bodies_SittingFloor_00004.png,0,0,0,230,230,230,,,,,,,,,,,,,138.0041586999978,0.004158699997788062,None,198.11869330000263,198.11869330000263,198.11869330000263,198.11869330000263,198.11869330000263,198.11869330000263,198.11869330000263,198.11869330000263,,002,P013,2025_Feb_08_1534,CategoryLocalizer,2021.2.3,59.947258401301625,
138.8,139.0,5,0.0,Stimuli\Blank.png,0,0,0,231,231,231,,,,,,,,,,,,,138.80679679999957,0.0067967999995630635,None,198.93613860000187,198.93613860000187,198.93613860000187,198.93613860000187,198.93613860000187,198.93613860000187,198.93613860000187,198.93613860000187,,002,P013,2025_Feb_08_1534,CategoryLocalizer,2021.2.3,59.947258401301625,
139.0,139.8,2,0.75,Stimuli\ImageFiles-Set2\Bodies\Bodies_DownwardDog_00002.png,0,0,0,232,232,232,,,,,,,,,,,,,139.02215419999993,0.022154199999931734,None,199.13629100000253,199.13629100000253,199.13629100000253,199.13629100000253,199.13629100000253,199.13629100000253,199.13629100000253,199.13629100000253,,002,P013,2025_Feb_08_1534,CategoryLocalizer,2021.2.3,59.947258401301625,
139.8,140.0,5,0.0,Stimuli\Blank.png,0,0,0,233,233,233,,,,,,,,,,,,,139.80605669999932,0.0060566999993056925,None,199.92032400000244,199.92032400000244,199.92032400000244,199.92032400000244,199.92032400000244,199.92032400000244,199.92032400000244,199.92032400000244,,002,P013,2025_Feb_08_1534,CategoryLocalizer,2021.2.3,59.947258401301625,
140.0,140.8,2,0.75,Stimuli\ImageFiles-Set2\Bodies\Bodies_Running_00002.png,0,0,0,234,234,234,,,,,,,,,,,,,140.00644140000077,0.006441400000767317,None,200.1204605999992,200.1204605999992,200.1204605999992,200.1204605999992,200.1204605999992,200.1204605999992,200.1204605999992,200.1204605999992,,002,P013,2025_Feb_08_1534,CategoryLocalizer,2021.2.3,59.947258401301625,
140.8,141.0,5,0.0,Stimuli\Blank.png,0,0,0,235,235,235,,,,,,,,,,,,,140.8065005999997,0.006500599999696988,None,200.92122820000077,200.92122820000077,200.92122820000077,200.92122820000077,200.92122820000077,200.92122820000077,200.92122820000077,200.92122820000077,,002,P013,2025_Feb_08_1534,CategoryLocalizer,2021.2.3,59.947258401301625,
141.0,141.8,2,0.75,Stimuli\ImageFiles-Set2\Bodies\Bodies_Running_00001.png,0,0,0,236,236,236,,,,,,,,,,,,,141.0066752999992,0.0066752999991877005,None,201.12147940000068,201.12147940000068,201.12147940000068,201.12147940000068,201.12147940000068,201.12147940000068,201.12147940000068,201.12147940000068,,002,P013,2025_Feb_08_1534,CategoryLocalizer,2021.2.3,59.947258401301625,
141.8,142.0,5,0.0,Stimuli\Blank.png,0,0,0,237,237,237,,,,,,,,,,,,,141.81004759999996,0.010047599999950307,None,201.93877780000184,201.93877780000184,201.93877780000184,201.93877780000184,201.93877780000184,201.93877780000184,201.93877780000184,201.93877780000184,,002,P013,2025_Feb_08_1534,CategoryLocalizer,2021.2.3,59.947258401301625,
142.0,142.8,2,0.75,Stimuli\ImageFiles-Set2\Bodies\Bodies_PushUp_00003.png,0,0,0,238,238,238,,,,,,,,,,,,,142.02416119999907,0.02416119999907096,None,202.13895279999997,202.13895279999997,202.13895279999997,202.13895279999997,202.13895279999997,202.13895279999997,202.13895279999997,202.13895279999997,,002,P013,2025_Feb_08_1534,CategoryLocalizer,2021.2.3,59.947258401301625,
142.8,143.0,5,0.0,Stimuli\Blank.png,0,0,0,239,239,239,,,,,,,,,,,,,142.8100631999987,0.010063199998683103,None,202.93966910000017,202.93966910000017,202.93966910000017,202.93966910000017,202.93966910000017,202.93966910000017,202.93966910000017,202.93966910000017,,002,P013,2025_Feb_08_1534,CategoryLocalizer,2021.2.3,59.947258401301625,
143.0,143.8,2,0.75,Stimuli\ImageFiles-Set2\Bodies\Bodies_PushUp_00003.png,1,1,0,240,240,240,,,,,,,,,,,,,143.02496690000044,0.024966900000436,1,203.13984210000126,203.13984210000126,203.13984210000126,203.13984210000126,203.13984210000126,203.13984210000126,203.13984210000126,203.13984210000126,0.4010786000035296,002,P013,2025_Feb_08_1534,CategoryLocalizer,2021.2.3,59.947258401301625,
143.8,144.0,5,0.0,Stimuli\Blank.png,0,0,0,241,241,241,,,,,,,,,,,,,143.81010009999954,0.01010009999953354,None,203.92387729999973,203.92387729999973,203.92387729999973,203.92387729999973,203.92387729999973,203.92387729999973,203.92387729999973,203.92387729999973,,002,P013,2025_Feb_08_1534,CategoryLocalizer,2021.2.3,59.947258401301625,
144.0,144.8,2,0.75,Stimuli\ImageFiles-Set2\Bodies\Bodies_Lunging_00006.png,0,0,0,242,242,242,,,,,,,,,,,,,144.00981400000092,0.009814000000915257,None,204.12404000000242,204.12404000000242,204.12404000000242,204.12404000000242,204.12404000000242,204.12404000000242,204.12404000000242,204.12404000000242,,002,P013,2025_Feb_08_1534,CategoryLocalizer,2021.2.3,59.947258401301625,
144.8,145.0,5,0.0,Stimuli\Blank.png,0,0,0,243,243,243,,,,,,,,,,,,,144.8110945999979,0.01109459999787532,None,204.92475090000153,204.92475090000153,204.92475090000153,204.92475090000153,204.92475090000153,204.92475090000153,204.92475090000153,204.92475090000153,,002,P013,2025_Feb_08_1534,CategoryLocalizer,2021.2.3,59.947258401301625,
145.0,145.8,2,0.75,Stimuli\ImageFiles-Set2\Bodies\Bodies_QuadStretch_00006.png,0,0,0,244,244,244,,,,,,,,,,,,,145.01017950000096,0.010179500000958797,None,205.12492750000092,205.12492750000092,205.12492750000092,205.12492750000092,205.12492750000092,205.12492750000092,205.12492750000092,205.12492750000092,,002,P013,2025_Feb_08_1534,CategoryLocalizer,2021.2.3,59.947258401301625,
145.8,146.0,5,0.0,Stimuli\Blank.png,0,0,0,245,245,245,,,,,,,,,,,,,145.81084539999938,0.01084539999936851,None,205.9256322000001,205.9256322000001,205.9256322000001,205.9256322000001,205.9256322000001,205.9256322000001,205.9256322000001,205.9256322000001,,002,P013,2025_Feb_08_1534,CategoryLocalizer,2021.2.3,59.947258401301625,
146.0,146.8,2,0.75,Stimuli\ImageFiles-Set2\Bodies\Bodies_Pushing_00004.png,0,0,0,246,246,246,,,,,,,,,,,,,146.01167540000097,0.011675400000967784,None,206.14252359999955,206.14252359999955,206.14252359999955,206.14252359999955,206.14252359999955,206.14252359999955,206.14252359999955,206.14252359999955,,002,P013,2025_Feb_08_1534,CategoryLocalizer,2021.2.3,59.947258401301625,
146.8,147.0,5,0.0,Stimuli\Blank.png,0,0,0,247,247,247,,,,,,,,,,,,,146.82909120000113,0.029091200001118978,1,206.94319890000043,206.94319890000043,206.94319890000043,206.94319890000043,206.94319890000043,206.94319890000043,206.94319890000043,206.94319890000043,0.1517132999979367,002,P013,2025_Feb_08_1534,CategoryLocalizer,2021.2.3,59.947258401301625,
147.0,147.8,2,0.75,Stimuli\ImageFiles-Set2\Bodies\Bodies_Walking_00001.png,0,0,0,248,248,248,,,,,,,,,,,,,147.01245729999937,0.012457299999368843,None,207.14340409999932,207.14340409999932,207.14340409999932,207.14340409999932,207.14340409999932,207.14340409999932,207.14340409999932,207.14340409999932,,002,P013,2025_Feb_08_1534,CategoryLocalizer,2021.2.3,59.947258401301625,
147.8,148.0,5,0.0,Stimuli\Blank.png,0,0,0,249,249,249,,,,,,,,,,,,,147.83075729999837,0.030757299998356302,None,207.94409760000053,207.94409760000053,207.94409760000053,207.94409760000053,207.94409760000053,207.94409760000053,207.94409760000053,207.94409760000053,,002,P013,2025_Feb_08_1534,CategoryLocalizer,2021.2.3,59.947258401301625,
148.0,148.8,2,0.75,Stimuli\ImageFiles-Set2\Bodies\Bodies_CobraPose_00007.png,0,0,0,250,250,250,,,,,,,,,,,,,148.01524349999818,0.015243499998177867,None,208.14426699999967,208.14426699999967,208.14426699999967,208.14426699999967,208.14426699999967,208.14426699999967,208.14426699999967,208.14426699999967,,002,P013,2025_Feb_08_1534,CategoryLocalizer,2021.2.3,59.947258401301625,
148.8,149.0,5,0.0,Stimuli\Blank.png,0,0,0,251,251,251,,,,,,,,,,,,,148.81534530000135,0.015345300001342821,None,208.9456706000019,208.9456706000019,208.9456706000019,208.9456706000019,208.9456706000019,208.9456706000019,208.9456706000019,208.9456706000019,,002,P013,2025_Feb_08_1534,CategoryLocalizer,2021.2.3,59.947258401301625,
149.0,149.8,2,0.75,Stimuli\ImageFiles-Set2\Bodies\Bodies_Hanging_00005.png,0,0,0,252,252,252,,,,,,,,,,,,,149.03026899999895,0.030268999998952495,None,209.14512260000265,209.14512260000265,209.14512260000265,209.14512260000265,209.14512260000265,209.14512260000265,209.14512260000265,209.14512260000265,,002,P013,2025_Feb_08_1534,CategoryLocalizer,2021.2.3,59.947258401301625,
149.8,150.0,5,0.0,Stimuli\Blank.png,0,0,0,253,253,253,,,,,,,,,,,,,149.81493789999877,0.014937899998756166,None,209.92918420000206,209.92918420000206,209.92918420000206,209.92918420000206,209.92918420000206,209.92918420000206,209.92918420000206,209.92918420000206,,002,P013,2025_Feb_08_1534,CategoryLocalizer,2021.2.3,59.947258401301625,
150.0,150.8,2,0.75,Stimuli\ImageFiles-Set2\Bodies\Bodies_Hanging_00007.png,0,0,0,254,254,254,,,,,,,,,,,,,150.0152773000009,0.015277300000889227,None,210.12932060000094,210.12932060000094,210.12932060000094,210.12932060000094,210.12932060000094,210.12932060000094,210.12932060000094,210.12932060000094,,002,P013,2025_Feb_08_1534,CategoryLocalizer,2021.2.3,59.947258401301625,
150.8,151.0,5,0.0,Stimuli\Blank.png,0,0,0,255,255,255,,,,,,,,,,,,,150.80027809999956,0.00027809999954797604,None,210.93005840000114,210.93005840000114,210.93005840000114,210.93005840000114,210.93005840000114,210.93005840000114,210.93005840000114,210.93005840000114,,002,P013,2025_Feb_08_1534,CategoryLocalizer,2021.2.3,59.947258401301625,
151.0,151.8,2,0.75,Stimuli\ImageFiles-Set2\Bodies\Bodies_Kneeling_00002.png,0,0,0,256,256,256,,,,,,,,,,,,,151.01611729999786,0.016117299997858936,None,211.14692149999973,211.14692149999973,211.14692149999973,211.14692149999973,211.14692149999973,211.14692149999973,211.14692149999973,211.14692149999973,,002,P013,2025_Feb_08_1534,CategoryLocalizer,2021.2.3,59.947258401301625,
151.8,152.0,5,0.0,Stimuli\Blank.png,0,0,0,257,257,257,,,,,,,,,,,,,151.81612680000035,0.01612680000033606,None,211.93094790000032,211.93094790000032,211.93094790000032,211.93094790000032,211.93094790000032,211.93094790000032,211.93094790000032,211.93094790000032,,002,P013,2025_Feb_08_1534,CategoryLocalizer,2021.2.3,59.947258401301625,
152.0,164.0,0,0.0,Stimuli\Blank.png,0,0,0,258,258,258,,,,,,,,,,,,,152.00085989999934,0.0008598999993409961,None,212.1144185000012,212.1144185000012,212.1144185000012,212.1144185000012,212.1144185000012,212.1144185000012,212.1144185000012,212.1144185000012,,002,P013,2025_Feb_08_1534,CategoryLocalizer,2021.2.3,59.947258401301625,
164.0,164.8,4,0.75,Stimuli\ImageFiles-Set2\Scenes\Scenes_117.png,0,0,0,259,259,259,,,,,,,,,,,,,164.0118027999997,0.011802799999713898,None,224.14174769999954,224.14174769999954,224.14174769999954,224.14174769999954,224.14174769999954,224.14174769999954,224.14174769999954,224.14174769999954,,002,P013,2025_Feb_08_1534,CategoryLocalizer,2021.2.3,59.947258401301625,
164.8,165.0,5,0.0,Stimuli\Blank.png,0,0,0,260,260,260,,,,,,,,,,,,,164.828333999998,0.028333999997983028,None,224.9424755,224.9424755,224.9424755,224.9424755,224.9424755,224.9424755,224.9424755,224.9424755,,002,P013,2025_Feb_08_1534,CategoryLocalizer,2021.2.3,59.947258401301625,
165.0,165.8,4,0.75,Stimuli\ImageFiles-Set2\Scenes\Scenes_117.png,1,1,0,261,261,261,,,,,,,,,,,,,165.0116964000008,0.011696400000801077,1,225.12593820000257,225.12593820000257,225.12593820000257,225.12593820000257,225.12593820000257,225.12593820000257,225.12593820000257,225.12593820000257,0.5081205000024056,002,P013,2025_Feb_08_1534,CategoryLocalizer,2021.2.3,59.947258401301625,
165.8,166.0,5,0.0,Stimuli\Blank.png,0,0,0,262,262,262,,,,,,,,,,,,,165.8122411000004,0.012241100000380811,None,225.92666029999964,225.92666029999964,225.92666029999964,225.92666029999964,225.92666029999964,225.92666029999964,225.92666029999964,225.92666029999964,,002,P013,2025_Feb_08_1534,CategoryLocalizer,2021.2.3,59.947258401301625,
166.0,166.8,4,0.75,Stimuli\ImageFiles-Set2\Scenes\Scenes_111.png,0,0,0,263,263,263,,,,,,,,,,,,,166.01408879999872,0.01408879999871715,None,226.14351250000254,226.14351250000254,226.14351250000254,226.14351250000254,226.14351250000254,226.14351250000254,226.14351250000254,226.14351250000254,,002,P013,2025_Feb_08_1534,CategoryLocalizer,2021.2.3,59.947258401301625,
166.8,167.0,5,0.0,Stimuli\Blank.png,0,0,0,264,264,264,,,,,,,,,,,,,166.8307746999999,0.03077469999988125,None,226.9442283999997,226.9442283999997,226.9442283999997,226.9442283999997,226.9442283999997,226.9442283999997,226.9442283999997,226.9442283999997,,002,P013,2025_Feb_08_1534,CategoryLocalizer,2021.2.3,59.947258401301625,
167.0,167.8,4,0.75,Stimuli\ImageFiles-Set2\Scenes\Scenes_094.png,0,0,0,265,265,265,,,,,,,,,,,,,167.0128373999978,0.012837399997806642,None,227.12770900000032,227.12770900000032,227.12770900000032,227.12770900000032,227.12770900000032,227.12770900000032,227.12770900000032,227.12770900000032,,002,P013,2025_Feb_08_1534,CategoryLocalizer,2021.2.3,59.947258401301625,
167.8,168.0,5,0.0,Stimuli\Blank.png,0,0,0,266,266,266,,,,,,,,,,,,,167.81641559999844,0.016415599998424568,None,227.94511240000065,227.94511240000065,227.94511240000065,227.94511240000065,227.94511240000065,227.94511240000065,227.94511240000065,227.94511240000065,,002,P013,2025_Feb_08_1534,CategoryLocalizer,2021.2.3,59.947258401301625,
168.0,168.8,4,0.75,Stimuli\ImageFiles-Set2\Scenes\Scenes_119.png,0,0,0,267,267,267,,,,,,,,,,,,,168.0139448000009,0.013944800000899704,None,228.1286037000027,228.1286037000027,228.1286037000027,228.1286037000027,228.1286037000027,228.1286037000027,228.1286037000027,228.1286037000027,,002,P013,2025_Feb_08_1534,CategoryLocalizer,2021.2.3,59.947258401301625,
168.8,169.0,5,0.0,Stimuli\Blank.png,0,0,0,268,268,268,,,,,,,,,,,,,168.81449559999965,0.014495599999634123,None,228.92936030000055,228.92936030000055,228.92936030000055,228.92936030000055,228.92936030000055,228.92936030000055,228.92936030000055,228.92936030000055,,002,P013,2025_Feb_08_1534,CategoryLocalizer,2021.2.3,59.947258401301625,
169.0,169.8,4,0.75,Stimuli\ImageFiles-Set2\Scenes\Scenes_063.png,0,0,0,269,269,269,,,,,,,,,,,,,169.0166664999997,0.016666499999701045,None,229.14617890000227,229.14617890000227,229.14617890000227,229.14617890000227,229.14617890000227,229.14617890000227,229.14617890000227,229.14617890000227,,002,P013,2025_Feb_08_1534,CategoryLocalizer,2021.2.3,59.947258401301625,
169.8,170.0,5,0.0,Stimuli\Blank.png,0,0,0,270,270,270,,,,,,,,,,,,,169.81601709999813,0.016017099998123285,None,229.93020210000032,229.93020210000032,229.93020210000032,229.93020210000032,229.93020210000032,229.93020210000032,229.93020210000032,229.93020210000032,,002,P013,2025_Feb_08_1534,CategoryLocalizer,2021.2.3,59.947258401301625,
170.0,170.8,4,0.75,Stimuli\ImageFiles-Set2\Scenes\Scenes_098.png,0,0,0,271,271,271,,,,,,,,,,,,,170.00072229999932,0.0007222999993246049,None,230.13037970000005,230.13037970000005,230.13037970000005,230.13037970000005,230.13037970000005,230.13037970000005,230.13037970000005,230.13037970000005,,002,P013,2025_Feb_08_1534,CategoryLocalizer,2021.2.3,59.947258401301625,
170.8,171.0,5,0.0,Stimuli\Blank.png,0,0,0,272,272,272,,,,,,,,,,,,,170.81626630000028,0.016266300000268075,None,230.93106360000093,230.93106360000093,230.93106360000093,230.93106360000093,230.93106360000093,230.93106360000093,230.93106360000093,230.93106360000093,,002,P013,2025_Feb_08_1534,CategoryLocalizer,2021.2.3,59.947258401301625,
171.0,171.8,4,0.75,Stimuli\ImageFiles-Set2\Scenes\Scenes_068.png,0,0,0,273,273,273,,,,,,,,,,,,,171.00180349999937,0.0018034999993687961,None,231.1312543999993,231.1312543999993,231.1312543999993,231.1312543999993,231.1312543999993,231.1312543999993,231.1312543999993,231.1312543999993,,002,P013,2025_Feb_08_1534,CategoryLocalizer,2021.2.3,59.947258401301625,
171.8,172.0,5,0.0,Stimuli\Blank.png,0,0,0,274,274,274,,,,,,,,,,,,,171.81731579999905,0.017315799999039427,None,231.93196220000027,231.93196220000027,231.93196220000027,231.93196220000027,231.93196220000027,231.93196220000027,231.93196220000027,231.93196220000027,,002,P013,2025_Feb_08_1534,CategoryLocalizer,2021.2.3,59.947258401301625,
172.0,172.8,4,0.75,Stimuli\ImageFiles-Set2\Scenes\Scenes_109.png,0,0,0,275,275,275,,,,,,,,,,,,,172.0014549999978,0.001454999997804407,None,232.1321468999995,232.1321468999995,232.1321468999995,232.1321468999995,232.1321468999995,232.1321468999995,232.1321468999995,232.1321468999995,,002,P013,2025_Feb_08_1534,CategoryLocalizer,2021.2.3,59.947258401301625,
172.8,173.0,5,0.0,Stimuli\Blank.png,0,0,0,276,276,276,,,,,,,,,,,,,172.8202925000005,0.020292500000493874,None,232.94953390000228,232.94953390000228,232.94953390000228,232.94953390000228,232.94953390000228,232.94953390000228,232.94953390000228,232.94953390000228,,002,P013,2025_Feb_08_1534,CategoryLocalizer,2021.2.3,59.947258401301625,
173.0,173.8,4,0.75,Stimuli\ImageFiles-Set2\Scenes\Scenes_070.png,0,0,0,277,277,277,,,,,,,,,,,,,173.02098560000013,0.020985600000130944,None,233.1497230999994,233.1497230999994,233.1497230999994,233.1497230999994,233.1497230999994,233.1497230999994,233.1497230999994,233.1497230999994,,002,P013,2025_Feb_08_1534,CategoryLocalizer,2021.2.3,59.947258401301625,
173.8,174.0,5,0.0,Stimuli\Blank.png,0,0,0,278,278,278,,,,,,,,,,,,,173.8197446000013,0.019744600001274648,None,233.9337603999993,233.9337603999993,233.9337603999993,233.9337603999993,233.9337603999993,233.9337603999993,233.9337603999993,233.9337603999993,,002,P013,2025_Feb_08_1534,CategoryLocalizer,2021.2.3,59.947258401301625,
174.0,174.8,4,0.75,Stimuli\ImageFiles-Set2\Scenes\Scenes_092.png,0,0,0,279,279,279,,,,,,,,,,,,,174.00317979999818,0.003179799998179078,None,234.1339196000008,234.1339196000008,234.1339196000008,234.1339196000008,234.1339196000008,234.1339196000008,234.1339196000008,234.1339196000008,,002,P013,2025_Feb_08_1534,CategoryLocalizer,2021.2.3,59.947258401301625,
174.8,175.0,5,0.0,Stimuli\Blank.png,0,0,0,280,280,280,,,,,,,,,,,,,174.82026349999796,0.020263499997952295,None,234.93463560000237,234.93463560000237,234.93463560000237,234.93463560000237,234.93463560000237,234.93463560000237,234.93463560000237,234.93463560000237,,002,P013,2025_Feb_08_1534,CategoryLocalizer,2021.2.3,59.947258401301625,
175.0,175.8,4,0.75,Stimuli\ImageFiles-Set2\Scenes\Scenes_067.png,0,0,0,281,281,281,,,,,,,,,,,,,175.00601330000063,0.006013300000631716,None,235.1347999999998,235.1347999999998,235.1347999999998,235.1347999999998,235.1347999999998,235.1347999999998,235.1347999999998,235.1347999999998,,002,P013,2025_Feb_08_1534,CategoryLocalizer,2021.2.3,59.947258401301625,
175.8,176.0,5,0.0,Stimuli\Blank.png,0,0,0,282,282,282,,,,,,,,,,,,,175.82070029999886,0.02070029999885037,None,235.9355037000023,235.9355037000023,235.9355037000023,235.9355037000023,235.9355037000023,235.9355037000023,235.9355037000023,235.9355037000023,,002,P013,2025_Feb_08_1534,CategoryLocalizer,2021.2.3,59.947258401301625,
176.0,176.8,4,0.75,Stimuli\ImageFiles-Set2\Scenes\Scenes_110.png,0,0,0,283,283,283,,,,,,,,,,,,,176.00557359999948,0.005573599999479484,None,236.1357119000022,236.1357119000022,236.1357119000022,236.1357119000022,236.1357119000022,236.1357119000022,236.1357119000022,236.1357119000022,,002,P013,2025_Feb_08_1534,CategoryLocalizer,2021.2.3,59.947258401301625,
176.8,177.0,5,0.0,Stimuli\Blank.png,0,0,0,284,284,284,,,,,,,,,,,,,176.82210040000064,0.02210040000062463,None,236.93639690000055,236.93639690000055,236.93639690000055,236.93639690000055,236.93639690000055,236.93639690000055,236.93639690000055,236.93639690000055,,002,P013,2025_Feb_08_1534,CategoryLocalizer,2021.2.3,59.947258401301625,
