eventStartTime,eventEndTime,eventCond,imSize,imFile,repeatedImage,responseEvent,Events.thisRepN,Events.thisTrialN,Events.thisN,Events.thisIndex,Instructions.started,Instructions.stopped,participantReadyResponse.keys,participantReadyResponse.rt,participantReadyResponse.started,participantReadyResponse.stopped,startWaitforTrigger,triggerResponse.keys,triggerResponse.rt,triggerResponse.started,triggerResponse.stopped,globalTimer,actualStartTime,startTimingDiff,participantResponse.keys,participantResponse.started,participantResponse.stopped,image.started,image.stopped,fixationOutside.started,fixationOutside.stopped,fixationInside.started,fixationInside.stopped,participantResponse.rt,session,participant,date,expName,psychopyVersion,frameRate,
,,,,,,,,,,,11.391760299999078,None,1,51.10672320000049,11.391760299999078,None,,,,,,,,,,,,,,,,,,,001,P014,2025_Feb_28_1617,CategoryLocalizer,2021.2.3,59.950456942447865,
,,,,,,,,,,,,,,,,,62.50080039999921,5,14.207226799999262,62.514145299999655,None,,,,,,,,,,,,,,001,P014,2025_Feb_28_1617,CategoryLocalizer,2021.2.3,59.950456942447865,
0.0,12.0,0,0.0,Stimuli\Blank.png,0,0,0,0,0,0,,,,,,,,,,,,76.7302010000003,0.049765199999455945,0.049765199999455945,None,76.7934423000006,None,76.7934423000006,None,76.7934423000006,None,76.7934423000006,None,,001,P014,2025_Feb_28_1617,CategoryLocalizer,2021.2.3,59.950456942447865,
12.0,12.8,1,0.75,Stimuli\ImageFiles-Set1\Objects\Object_Toilet_00001.png,0,0,0,1,1,1,,,,,,,,,,,,,12.013236900000265,0.01323690000026545,None,88.75740910000059,88.75740910000059,88.75740910000059,88.75740910000059,88.75740910000059,88.75740910000059,88.75740910000059,88.75740910000059,,001,P014,2025_Feb_28_1617,CategoryLocalizer,2021.2.3,59.950456942447865,
12.8,13.0,5,0.0,Stimuli\Blank.png,0,0,0,2,2,2,,,,,,,,,,,,,12.81171650000033,0.011716500000328978,None,89.55565670000033,89.55565670000033,89.55565670000033,89.55565670000033,89.55565670000033,89.55565670000033,89.55565670000033,89.55565670000033,,001,P014,2025_Feb_28_1617,CategoryLocalizer,2021.2.3,59.950456942447865,
13.0,13.8,1,0.75,Stimuli\ImageFiles-Set1\Objects\Object_Highchair_00001.png,0,0,0,3,3,3,,,,,,,,,,,,,13.011841399998957,0.011841399998957058,None,89.75556730000062,89.75556730000062,89.75556730000062,89.75556730000062,89.75556730000062,89.75556730000062,89.75556730000062,89.75556730000062,,001,P014,2025_Feb_28_1617,CategoryLocalizer,2021.2.3,59.950456942447865,
13.8,14.0,5,0.0,Stimuli\Blank.png,0,0,0,4,4,4,,,,,,,,,,,,,13.81275789999927,0.012757899999268574,None,90.55629410000074,90.55629410000074,90.55629410000074,90.55629410000074,90.55629410000074,90.55629410000074,90.55629410000074,90.55629410000074,,001,P014,2025_Feb_28_1617,CategoryLocalizer,2021.2.3,59.950456942447865,
14.0,14.8,1,0.75,Stimuli\ImageFiles-Set1\Objects\Object_Boat_00001.png,0,0,0,5,5,5,,,,,,,,,,,,,14.015041999999085,0.01504199999908451,None,90.75862310000048,90.75862310000048,90.75862310000048,90.75862310000048,90.75862310000048,90.75862310000048,90.75862310000048,90.75862310000048,,001,P014,2025_Feb_28_1617,CategoryLocalizer,2021.2.3,59.950456942447865,
14.8,15.0,5,0.0,Stimuli\Blank.png,0,0,0,6,6,6,,,,,,,,,,,,,14.813521500000206,0.013521500000205577,None,91.57375320000028,91.57375320000028,91.57375320000028,91.57375320000028,91.57375320000028,91.57375320000028,91.57375320000028,91.57375320000028,,001,P014,2025_Feb_28_1617,CategoryLocalizer,2021.2.3,59.950456942447865,
15.0,15.8,1,0.75,Stimuli\ImageFiles-Set1\Objects\Object_Banana_00001.png,0,0,0,7,7,7,,,,,,,,,,,,,15.030534199999238,0.0305341999992379,None,91.77609879999909,91.77609879999909,91.77609879999909,91.77609879999909,91.77609879999909,91.77609879999909,91.77609879999909,91.77609879999909,,001,P014,2025_Feb_28_1617,CategoryLocalizer,2021.2.3,59.950456942447865,
15.8,16.0,5,0.0,Stimuli\Blank.png,0,0,0,8,8,8,,,,,,,,,,,,,15.814234100000249,0.014234100000248162,None,92.55800289999934,92.55800289999934,92.55800289999934,92.55800289999934,92.55800289999934,92.55800289999934,92.55800289999934,92.55800289999934,,001,P014,2025_Feb_28_1617,CategoryLocalizer,2021.2.3,59.950456942447865,
16.0,16.8,1,0.75,Stimuli\ImageFiles-Set1\Objects\Object_Tool_00001.png,0,0,0,9,9,9,,,,,,,,,,,,,16.01389129999916,0.013891299999158946,None,92.75810079999974,92.75810079999974,92.75810079999974,92.75810079999974,92.75810079999974,92.75810079999974,92.75810079999974,92.75810079999974,,001,P014,2025_Feb_28_1617,CategoryLocalizer,2021.2.3,59.950456942447865,
16.8,17.0,5,0.0,Stimuli\Blank.png,0,0,0,10,10,10,,,,,,,,,,,,,16.815114600000015,0.015114600000014633,None,93.55904320000081,93.55904320000081,93.55904320000081,93.55904320000081,93.55904320000081,93.55904320000081,93.55904320000081,93.55904320000081,,001,P014,2025_Feb_28_1617,CategoryLocalizer,2021.2.3,59.950456942447865,
17.0,17.8,1,0.75,Stimuli\ImageFiles-Set1\Objects\Object_Door_00001.png,0,0,0,11,11,11,,,,,,,,,,,,,17.01545719999922,0.015457199999218574,None,93.76068099999975,93.76068099999975,93.76068099999975,93.76068099999975,93.76068099999975,93.76068099999975,93.76068099999975,93.76068099999975,,001,P014,2025_Feb_28_1617,CategoryLocalizer,2021.2.3,59.950456942447865,
17.8,18.0,5,0.0,Stimuli\Blank.png,0,0,0,12,12,12,,,,,,,,,,,,,17.81576099999984,0.01576099999983782,None,94.55985879999935,94.55985879999935,94.55985879999935,94.55985879999935,94.55985879999935,94.55985879999935,94.55985879999935,94.55985879999935,,001,P014,2025_Feb_28_1617,CategoryLocalizer,2021.2.3,59.950456942447865,
18.0,18.8,1,0.75,Stimuli\ImageFiles-Set1\Objects\Object_Door_00001.png,1,1,0,13,13,13,,,,,,,,,,,,,17.99837529999968,-0.0016247000003204448,1,94.74317499999961,94.74317499999961,94.74317499999961,94.74317499999961,94.74317499999961,94.74317499999961,94.74317499999961,94.74317499999961,0.34923630000048433,001,P014,2025_Feb_28_1617,CategoryLocalizer,2021.2.3,59.950456942447865,
18.8,19.0,5,0.0,Stimuli\Blank.png,0,0,0,14,14,14,,,,,,,,,,,,,18.800653399999646,0.000653399999645643,None,95.54412500000035,95.54412500000035,95.54412500000035,95.54412500000035,95.54412500000035,95.54412500000035,95.54412500000035,95.54412500000035,,001,P014,2025_Feb_28_1617,CategoryLocalizer,2021.2.3,59.950456942447865,
19.0,19.8,1,0.75,Stimuli\ImageFiles-Set1\Objects\Object_Knife_00001.png,0,0,0,15,15,15,,,,,,,,,,,,,19.00042880000001,0.0004288000000087777,None,95.7442289999999,95.7442289999999,95.7442289999999,95.7442289999999,95.7442289999999,95.7442289999999,95.7442289999999,95.7442289999999,,001,P014,2025_Feb_28_1617,CategoryLocalizer,2021.2.3,59.950456942447865,
19.8,20.0,5,0.0,Stimuli\Blank.png,0,0,0,16,16,16,,,,,,,,,,,,,19.801038800000242,0.00103880000024148,None,96.5446983999991,96.5446983999991,96.5446983999991,96.5446983999991,96.5446983999991,96.5446983999991,96.5446983999991,96.5446983999991,,001,P014,2025_Feb_28_1617,CategoryLocalizer,2021.2.3,59.950456942447865,
20.0,20.8,1,0.75,Stimuli\ImageFiles-Set1\Objects\Object_Crib_00001.png,0,0,0,17,17,17,,,,,,,,,,,,,20.000561999999263,0.0005619999992632074,None,96.74510519999967,96.74510519999967,96.74510519999967,96.74510519999967,96.74510519999967,96.74510519999967,96.74510519999967,96.74510519999967,,001,P014,2025_Feb_28_1617,CategoryLocalizer,2021.2.3,59.950456942447865,
20.8,21.0,5,0.0,Stimuli\Blank.png,0,0,0,18,18,18,,,,,,,,,,,,,20.80216119999932,0.002161199999317631,None,97.5459009999995,97.5459009999995,97.5459009999995,97.5459009999995,97.5459009999995,97.5459009999995,97.5459009999995,97.5459009999995,,001,P014,2025_Feb_28_1617,CategoryLocalizer,2021.2.3,59.950456942447865,
21.0,21.8,1,0.75,Stimuli\ImageFiles-Set1\Objects\Object_Scale_00001.png,0,0,0,19,19,19,,,,,,,,,,,,,21.00323319999916,0.003233199999158387,None,97.74964820000059,97.74964820000059,97.74964820000059,97.74964820000059,97.74964820000059,97.74964820000059,97.74964820000059,97.74964820000059,,001,P014,2025_Feb_28_1617,CategoryLocalizer,2021.2.3,59.950456942447865,
21.8,22.0,5,0.0,Stimuli\Blank.png,0,0,0,20,20,20,,,,,,,,,,,,,21.802901799999745,0.00290179999974427,None,98.54677529999935,98.54677529999935,98.54677529999935,98.54677529999935,98.54677529999935,98.54677529999935,98.54677529999935,98.54677529999935,,001,P014,2025_Feb_28_1617,CategoryLocalizer,2021.2.3,59.950456942447865,
22.0,22.8,1,0.75,Stimuli\ImageFiles-Set1\Objects\Object_Whistle_00001.png,0,0,0,21,21,21,,,,,,,,,,,,,22.002690299999813,0.0026902999998128507,None,98.7467742000008,98.7467742000008,98.7467742000008,98.7467742000008,98.7467742000008,98.7467742000008,98.7467742000008,98.7467742000008,,001,P014,2025_Feb_28_1617,CategoryLocalizer,2021.2.3,59.950456942447865,
22.8,23.0,5,0.0,Stimuli\Blank.png,0,0,0,22,22,22,,,,,,,,,,,,,22.80390079999961,0.003900799999609461,None,99.54773390000082,99.54773390000082,99.54773390000082,99.54773390000082,99.54773390000082,99.54773390000082,99.54773390000082,99.54773390000082,,001,P014,2025_Feb_28_1617,CategoryLocalizer,2021.2.3,59.950456942447865,
23.0,23.8,1,0.75,Stimuli\ImageFiles-Set1\Objects\Object_Recliner_00001.png,0,0,0,23,23,23,,,,,,,,,,,,,23.00410600000032,0.004106000000319909,None,99.75038049999966,99.75038049999966,99.75038049999966,99.75038049999966,99.75038049999966,99.75038049999966,99.75038049999966,99.75038049999966,,001,P014,2025_Feb_28_1617,CategoryLocalizer,2021.2.3,59.950456942447865,
23.8,24.0,5,0.0,Stimuli\Blank.png,0,0,0,24,24,24,,,,,,,,,,,,,23.80477140000039,0.0047714000003900026,None,100.54835699999967,100.54835699999967,100.54835699999967,100.54835699999967,100.54835699999967,100.54835699999967,100.54835699999967,100.54835699999967,,001,P014,2025_Feb_28_1617,CategoryLocalizer,2021.2.3,59.950456942447865,
24.0,24.8,1,0.75,Stimuli\ImageFiles-Set1\Objects\Object_Pot_00001.png,0,0,0,25,25,25,,,,,,,,,,,,,24.003857399999106,0.003857399999105837,None,100.74825769999916,100.74825769999916,100.74825769999916,100.74825769999916,100.74825769999916,100.74825769999916,100.74825769999916,100.74825769999916,,001,P014,2025_Feb_28_1617,CategoryLocalizer,2021.2.3,59.950456942447865,
24.8,25.0,5,0.0,Stimuli\Blank.png,0,0,0,26,26,26,,,,,,,,,,,,,24.80417320000015,0.004173200000149535,None,101.54888310000024,101.54888310000024,101.54888310000024,101.54888310000024,101.54888310000024,101.54888310000024,101.54888310000024,101.54888310000024,,001,P014,2025_Feb_28_1617,CategoryLocalizer,2021.2.3,59.950456942447865,
25.0,25.8,1,0.75,Stimuli\ImageFiles-Set1\Objects\Object_Stool_00001.png,0,0,0,27,27,27,,,,,,,,,,,,,25.004757900000186,0.004757900000186055,None,101.74905840000065,101.74905840000065,101.74905840000065,101.74905840000065,101.74905840000065,101.74905840000065,101.74905840000065,101.74905840000065,,001,P014,2025_Feb_28_1617,CategoryLocalizer,2021.2.3,59.950456942447865,
25.8,26.0,5,0.0,Stimuli\Blank.png,0,0,0,28,28,28,,,,,,,,,,,,,25.805775499999072,0.005775499999071343,None,102.54971839999962,102.54971839999962,102.54971839999962,102.54971839999962,102.54971839999962,102.54971839999962,102.54971839999962,102.54971839999962,,001,P014,2025_Feb_28_1617,CategoryLocalizer,2021.2.3,59.950456942447865,
26.0,26.8,1,0.75,Stimuli\ImageFiles-Set1\Objects\Object_Wagon_00001.png,0,0,0,29,29,29,,,,,,,,,,,,,26.00663539999914,0.006635399999140645,None,102.75031599999966,102.75031599999966,102.75031599999966,102.75031599999966,102.75031599999966,102.75031599999966,102.75031599999966,102.75031599999966,,001,P014,2025_Feb_28_1617,CategoryLocalizer,2021.2.3,59.950456942447865,
26.8,27.0,5,0.0,Stimuli\Blank.png,0,0,0,30,30,30,,,,,,,,,,,,,26.808449399999517,0.008449399999516771,None,103.55091019999963,103.55091019999963,103.55091019999963,103.55091019999963,103.55091019999963,103.55091019999963,103.55091019999963,103.55091019999963,,001,P014,2025_Feb_28_1617,CategoryLocalizer,2021.2.3,59.950456942447865,
27.0,27.8,1,0.75,Stimuli\ImageFiles-Set1\Objects\Object_Bench_00001.png,0,0,0,31,31,31,,,,,,,,,,,,,27.00797590000002,0.007975900000019465,1,103.75435169999946,103.75435169999946,103.75435169999946,103.75435169999946,103.75435169999946,103.75435169999946,103.75435169999946,103.75435169999946,0.030227700000978075,001,P014,2025_Feb_28_1617,CategoryLocalizer,2021.2.3,59.950456942447865,
27.8,28.0,5,0.0,Stimuli\Blank.png,0,0,0,32,32,32,,,,,,,,,,,,,27.80836570000065,0.008365700000648957,None,104.55215139999927,104.55215139999927,104.55215139999927,104.55215139999927,104.55215139999927,104.55215139999927,104.55215139999927,104.55215139999927,,001,P014,2025_Feb_28_1617,CategoryLocalizer,2021.2.3,59.950456942447865,
28.0,28.8,2,0.75,Stimuli\ImageFiles-Set1\Bodies\Bodies_Hanging_00002.png,0,0,0,33,33,33,,,,,,,,,,,,,28.007845500000258,0.007845500000257744,None,104.75219330000073,104.75219330000073,104.75219330000073,104.75219330000073,104.75219330000073,104.75219330000073,104.75219330000073,104.75219330000073,,001,P014,2025_Feb_28_1617,CategoryLocalizer,2021.2.3,59.950456942447865,
28.8,29.0,5,0.0,Stimuli\Blank.png,0,0,0,34,34,34,,,,,,,,,,,,,28.80952830000024,0.009528300000237522,None,105.55273809999926,105.55273809999926,105.55273809999926,105.55273809999926,105.55273809999926,105.55273809999926,105.55273809999926,105.55273809999926,,001,P014,2025_Feb_28_1617,CategoryLocalizer,2021.2.3,59.950456942447865,
29.0,29.8,2,0.75,Stimuli\ImageFiles-Set1\Bodies\Bodies_SittingChair_00001.png,0,0,0,35,35,35,,,,,,,,,,,,,29.009724800000185,0.009724800000185496,None,105.75594319999982,105.75594319999982,105.75594319999982,105.75594319999982,105.75594319999982,105.75594319999982,105.75594319999982,105.75594319999982,,001,P014,2025_Feb_28_1617,CategoryLocalizer,2021.2.3,59.950456942447865,
29.8,30.0,5,0.0,Stimuli\Blank.png,0,0,0,36,36,36,,,,,,,,,,,,,29.810250799999267,0.010250799999266036,None,106.55465379999987,106.55465379999987,106.55465379999987,106.55465379999987,106.55465379999987,106.55465379999987,106.55465379999987,106.55465379999987,,001,P014,2025_Feb_28_1617,CategoryLocalizer,2021.2.3,59.950456942447865,
30.0,30.8,2,0.75,Stimuli\ImageFiles-Set1\Bodies\Bodies_DownwardDog_00006.png,0,0,0,37,37,37,,,,,,,,,,,,,30.010140899999897,0.010140899999896646,None,106.75357059999988,106.75357059999988,106.75357059999988,106.75357059999988,106.75357059999988,106.75357059999988,106.75357059999988,106.75357059999988,,001,P014,2025_Feb_28_1617,CategoryLocalizer,2021.2.3,59.950456942447865,
30.8,31.0,5,0.0,Stimuli\Blank.png,0,0,0,38,38,38,,,,,,,,,,,,,30.810777400000006,0.0107774000000056,None,107.55500329999995,107.55500329999995,107.55500329999995,107.55500329999995,107.55500329999995,107.55500329999995,107.55500329999995,107.55500329999995,,001,P014,2025_Feb_28_1617,CategoryLocalizer,2021.2.3,59.950456942447865,
31.0,31.8,2,0.75,Stimuli\ImageFiles-Set1\Bodies\Bodies_SittingChair_00003.png,0,0,0,39,39,39,,,,,,,,,,,,,31.011787899999035,0.01178789999903529,None,107.7548655999999,107.7548655999999,107.7548655999999,107.7548655999999,107.7548655999999,107.7548655999999,107.7548655999999,107.7548655999999,,001,P014,2025_Feb_28_1617,CategoryLocalizer,2021.2.3,59.950456942447865,
31.8,32.0,5,0.0,Stimuli\Blank.png,0,0,0,40,40,40,,,,,,,,,,,,,31.81120120000014,0.011201200000140688,None,108.5558901000004,108.5558901000004,108.5558901000004,108.5558901000004,108.5558901000004,108.5558901000004,108.5558901000004,108.5558901000004,,001,P014,2025_Feb_28_1617,CategoryLocalizer,2021.2.3,59.950456942447865,
32.0,32.8,2,0.75,Stimuli\ImageFiles-Set1\Bodies\Bodies_SittingChair_00003.png,1,1,0,41,41,41,,,,,,,,,,,,,32.01277619999928,0.012776199999279925,1,108.75577440000052,108.75577440000052,108.75577440000052,108.75577440000052,108.75577440000052,108.75577440000052,108.75577440000052,108.75577440000052,0.4111525000007532,001,P014,2025_Feb_28_1617,CategoryLocalizer,2021.2.3,59.950456942447865,
32.8,33.0,5,0.0,Stimuli\Blank.png,0,0,0,42,42,42,,,,,,,,,,,,,32.813723199999004,0.013723199999006397,None,109.55657480000082,109.55657480000082,109.55657480000082,109.55657480000082,109.55657480000082,109.55657480000082,109.55657480000082,109.55657480000082,,001,P014,2025_Feb_28_1617,CategoryLocalizer,2021.2.3,59.950456942447865,
33.0,33.8,2,0.75,Stimuli\ImageFiles-Set1\Bodies\Bodies_Punching_00003.png,0,0,0,43,43,43,,,,,,,,,,,,,33.01271040000029,0.012710400000287336,None,109.75758619999942,109.75758619999942,109.75758619999942,109.75758619999942,109.75758619999942,109.75758619999942,109.75758619999942,109.75758619999942,,001,P014,2025_Feb_28_1617,CategoryLocalizer,2021.2.3,59.950456942447865,
33.8,34.0,5,0.0,Stimuli\Blank.png,0,0,0,44,44,44,,,,,,,,,,,,,33.814301700000215,0.014301700000217465,None,110.55731379999997,110.55731379999997,110.55731379999997,110.55731379999997,110.55731379999997,110.55731379999997,110.55731379999997,110.55731379999997,,001,P014,2025_Feb_28_1617,CategoryLocalizer,2021.2.3,59.950456942447865,
34.0,34.8,2,0.75,Stimuli\ImageFiles-Set1\Bodies\Bodies_Kicking_00007.png,0,0,0,45,45,45,,,,,,,,,,,,,34.013924200000474,0.01392420000047423,None,110.75745889999962,110.75745889999962,110.75745889999962,110.75745889999962,110.75745889999962,110.75745889999962,110.75745889999962,110.75745889999962,,001,P014,2025_Feb_28_1617,CategoryLocalizer,2021.2.3,59.950456942447865,
34.8,35.0,5,0.0,Stimuli\Blank.png,0,0,0,46,46,46,,,,,,,,,,,,,34.81403649999993,0.014036499999932062,None,111.5579558999998,111.5579558999998,111.5579558999998,111.5579558999998,111.5579558999998,111.5579558999998,111.5579558999998,111.5579558999998,,001,P014,2025_Feb_28_1617,CategoryLocalizer,2021.2.3,59.950456942447865,
35.0,35.8,2,0.75,Stimuli\ImageFiles-Set1\Bodies\Bodies_Kneeling_00003.png,0,0,0,47,47,47,,,,,,,,,,,,,35.01435979999951,0.01435979999951087,None,111.7581257999991,111.7581257999991,111.7581257999991,111.7581257999991,111.7581257999991,111.7581257999991,111.7581257999991,111.7581257999991,,001,P014,2025_Feb_28_1617,CategoryLocalizer,2021.2.3,59.950456942447865,
35.8,36.0,5,0.0,Stimuli\Blank.png,0,0,0,48,48,48,,,,,,,,,,,,,35.815183000000616,0.015183000000618563,None,112.55902290000085,112.55902290000085,112.55902290000085,112.55902290000085,112.55902290000085,112.55902290000085,112.55902290000085,112.55902290000085,,001,P014,2025_Feb_28_1617,CategoryLocalizer,2021.2.3,59.950456942447865,
36.0,36.8,2,0.75,Stimuli\ImageFiles-Set1\Bodies\Bodies_CobraPose_00003.png,0,0,0,49,49,49,,,,,,,,,,,,,36.01425079999899,0.01425079999899026,None,112.75915139999961,112.75915139999961,112.75915139999961,112.75915139999961,112.75915139999961,112.75915139999961,112.75915139999961,112.75915139999961,,001,P014,2025_Feb_28_1617,CategoryLocalizer,2021.2.3,59.950456942447865,
36.8,37.0,5,0.0,Stimuli\Blank.png,0,0,0,50,50,50,,,,,,,,,,,,,36.81588659999943,0.015886599999433315,None,113.55999899999915,113.55999899999915,113.55999899999915,113.55999899999915,113.55999899999915,113.55999899999915,113.55999899999915,113.55999899999915,,001,P014,2025_Feb_28_1617,CategoryLocalizer,2021.2.3,59.950456942447865,
37.0,37.8,2,0.75,Stimuli\ImageFiles-Set1\Bodies\Bodies_Lunging_00001.png,0,0,0,51,51,51,,,,,,,,,,,,,36.999631200000294,-0.0003687999997055158,None,113.74353469999915,113.74353469999915,113.74353469999915,113.74353469999915,113.74353469999915,113.74353469999915,113.74353469999915,113.74353469999915,,001,P014,2025_Feb_28_1617,CategoryLocalizer,2021.2.3,59.950456942447865,
37.8,38.0,5,0.0,Stimuli\Blank.png,0,0,0,52,52,52,,,,,,,,,,,,,37.80037909999919,0.00037909999919349957,None,114.54426819999935,114.54426819999935,114.54426819999935,114.54426819999935,114.54426819999935,114.54426819999935,114.54426819999935,114.54426819999935,,001,P014,2025_Feb_28_1617,CategoryLocalizer,2021.2.3,59.950456942447865,
38.0,38.8,2,0.75,Stimuli\ImageFiles-Set1\Bodies\Bodies_CobraPose_00001.png,1,1,0,53,53,53,,,,,,,,,,,,,38.00041229999988,0.00041229999987990595,None,114.74436609999975,114.74436609999975,114.74436609999975,114.74436609999975,114.74436609999975,114.74436609999975,114.74436609999975,114.74436609999975,,001,P014,2025_Feb_28_1617,CategoryLocalizer,2021.2.3,59.950456942447865,
38.8,39.0,5,0.0,Stimuli\Blank.png,0,0,0,54,54,54,,,,,,,,,,,,,38.800546999998915,0.0005469999989173857,None,115.54500539999935,115.54500539999935,115.54500539999935,115.54500539999935,115.54500539999935,115.54500539999935,115.54500539999935,115.54500539999935,,001,P014,2025_Feb_28_1617,CategoryLocalizer,2021.2.3,59.950456942447865,
39.0,39.8,2,0.75,Stimuli\ImageFiles-Set1\Bodies\Bodies_SittingFloor_00007.png,0,0,0,55,55,55,,,,,,,,,,,,,39.001338599999144,0.0013385999991442077,None,115.74516620000031,115.74516620000031,115.74516620000031,115.74516620000031,115.74516620000031,115.74516620000031,115.74516620000031,115.74516620000031,,001,P014,2025_Feb_28_1617,CategoryLocalizer,2021.2.3,59.950456942447865,
39.8,40.0,5,0.0,Stimuli\Blank.png,0,0,0,56,56,56,,,,,,,,,,,,,39.801938799999334,0.001938799999336993,None,116.5460192999999,116.5460192999999,116.5460192999999,116.5460192999999,116.5460192999999,116.5460192999999,116.5460192999999,116.5460192999999,,001,P014,2025_Feb_28_1617,CategoryLocalizer,2021.2.3,59.950456942447865,
40.0,40.8,2,0.75,Stimuli\ImageFiles-Set1\Bodies\Bodies_SittingFloor_00007.png,0,0,0,57,57,57,,,,,,,,,,,,,40.00093720000041,0.0009372000004077563,1,116.7460360999994,116.7460360999994,116.7460360999994,116.7460360999994,116.7460360999994,116.7460360999994,116.7460360999994,116.7460360999994,0.4920040000015433,001,P014,2025_Feb_28_1617,CategoryLocalizer,2021.2.3,59.950456942447865,
40.8,41.0,5,0.0,Stimuli\Blank.png,0,0,0,58,58,58,,,,,,,,,,,,,40.80297059999975,0.0029705999997560184,None,117.54666990000078,117.54666990000078,117.54666990000078,117.54666990000078,117.54666990000078,117.54666990000078,117.54666990000078,117.54666990000078,,001,P014,2025_Feb_28_1617,CategoryLocalizer,2021.2.3,59.950456942447865,
41.0,41.8,2,0.75,Stimuli\ImageFiles-Set1\Bodies\Bodies_Standing_00005.png,0,0,0,59,59,59,,,,,,,,,,,,,41.00350389999949,0.003503899999486748,None,117.74672470000041,117.74672470000041,117.74672470000041,117.74672470000041,117.74672470000041,117.74672470000041,117.74672470000041,117.74672470000041,,001,P014,2025_Feb_28_1617,CategoryLocalizer,2021.2.3,59.950456942447865,
41.8,42.0,5,0.0,Stimuli\Blank.png,0,0,0,60,60,60,,,,,,,,,,,,,41.803838100000576,0.0038381000005784927,None,118.54763850000018,118.54763850000018,118.54763850000018,118.54763850000018,118.54763850000018,118.54763850000018,118.54763850000018,118.54763850000018,,001,P014,2025_Feb_28_1617,CategoryLocalizer,2021.2.3,59.950456942447865,
42.0,42.8,2,0.75,Stimuli\ImageFiles-Set1\Bodies\Bodies_Walking_00006.png,0,0,0,61,61,61,,,,,,,,,,,,,42.00293169999895,0.0029316999989532633,None,118.74794590000056,118.74794590000056,118.74794590000056,118.74794590000056,118.74794590000056,118.74794590000056,118.74794590000056,118.74794590000056,,001,P014,2025_Feb_28_1617,CategoryLocalizer,2021.2.3,59.950456942447865,
42.8,43.0,5,0.0,Stimuli\Blank.png,0,0,0,62,62,62,,,,,,,,,,,,,42.80479539999942,0.004795399999423466,None,119.54808310000044,119.54808310000044,119.54808310000044,119.54808310000044,119.54808310000044,119.54808310000044,119.54808310000044,119.54808310000044,,001,P014,2025_Feb_28_1617,CategoryLocalizer,2021.2.3,59.950456942447865,
43.0,43.8,2,0.75,Stimuli\ImageFiles-Set1\Bodies\Bodies_DownwardDog_00007.png,0,0,0,63,63,63,,,,,,,,,,,,,43.004606200000126,0.004606200000125682,None,119.7487801999996,119.7487801999996,119.7487801999996,119.7487801999996,119.7487801999996,119.7487801999996,119.7487801999996,119.7487801999996,,001,P014,2025_Feb_28_1617,CategoryLocalizer,2021.2.3,59.950456942447865,
43.8,44.0,5,0.0,Stimuli\Blank.png,0,0,0,64,64,64,,,,,,,,,,,,,43.805988799998886,0.005988799998888794,None,120.5493105000005,120.5493105000005,120.5493105000005,120.5493105000005,120.5493105000005,120.5493105000005,120.5493105000005,120.5493105000005,,001,P014,2025_Feb_28_1617,CategoryLocalizer,2021.2.3,59.950456942447865,
44.0,44.8,3,0.75,Stimuli\ImageFiles-Set1\Faces\Face_00035.png,0,0,0,65,65,65,,,,,,,,,,,,,44.00475220000044,0.0047522000004391884,None,120.74958220000008,120.74958220000008,120.74958220000008,120.74958220000008,120.74958220000008,120.74958220000008,120.74958220000008,120.74958220000008,,001,P014,2025_Feb_28_1617,CategoryLocalizer,2021.2.3,59.950456942447865,
44.8,45.0,5,0.0,Stimuli\Blank.png,0,0,0,66,66,66,,,,,,,,,,,,,44.806017599999905,0.006017599999907475,None,121.55043699999987,121.55043699999987,121.55043699999987,121.55043699999987,121.55043699999987,121.55043699999987,121.55043699999987,121.55043699999987,,001,P014,2025_Feb_28_1617,CategoryLocalizer,2021.2.3,59.950456942447865,
45.0,45.8,3,0.75,Stimuli\ImageFiles-Set1\Faces\Face_00085.png,0,0,0,67,67,67,,,,,,,,,,,,,45.007349800000156,0.007349800000156392,None,121.75208019999991,121.75208019999991,121.75208019999991,121.75208019999991,121.75208019999991,121.75208019999991,121.75208019999991,121.75208019999991,,001,P014,2025_Feb_28_1617,CategoryLocalizer,2021.2.3,59.950456942447865,
45.8,46.0,5,0.0,Stimuli\Blank.png,0,0,0,68,68,68,,,,,,,,,,,,,45.80854069999987,0.008540699999869616,None,122.55111880000004,122.55111880000004,122.55111880000004,122.55111880000004,122.55111880000004,122.55111880000004,122.55111880000004,122.55111880000004,,001,P014,2025_Feb_28_1617,CategoryLocalizer,2021.2.3,59.950456942447865,
46.0,46.8,3,0.75,Stimuli\ImageFiles-Set1\Faces\Face_00117.png,0,0,0,69,69,69,,,,,,,,,,,,,46.00693460000002,0.0069346000000223285,None,122.75138779999907,122.75138779999907,122.75138779999907,122.75138779999907,122.75138779999907,122.75138779999907,122.75138779999907,122.75138779999907,,001,P014,2025_Feb_28_1617,CategoryLocalizer,2021.2.3,59.950456942447865,
46.8,47.0,5,0.0,Stimuli\Blank.png,0,0,0,70,70,70,,,,,,,,,,,,,46.80921099999978,0.009210999999780256,None,123.55278429999998,123.55278429999998,123.55278429999998,123.55278429999998,123.55278429999998,123.55278429999998,123.55278429999998,123.55278429999998,,001,P014,2025_Feb_28_1617,CategoryLocalizer,2021.2.3,59.950456942447865,
47.0,47.8,3,0.75,Stimuli\ImageFiles-Set1\Faces\Face_00117.png,1,1,0,71,71,71,,,,,,,,,,,,,47.00875579999956,0.008755799999562441,1,123.75523129999965,123.75523129999965,123.75523129999965,123.75523129999965,123.75523129999965,123.75523129999965,123.75523129999965,123.75523129999965,0.3653489999996964,001,P014,2025_Feb_28_1617,CategoryLocalizer,2021.2.3,59.950456942447865,
47.8,48.0,5,0.0,Stimuli\Blank.png,0,0,0,72,72,72,,,,,,,,,,,,,47.811105299999326,0.011105299999329077,None,124.55422689999978,124.55422689999978,124.55422689999978,124.55422689999978,124.55422689999978,124.55422689999978,124.55422689999978,124.55422689999978,,001,P014,2025_Feb_28_1617,CategoryLocalizer,2021.2.3,59.950456942447865,
48.0,48.8,3,0.75,Stimuli\ImageFiles-Set1\Faces\Face_00071.png,0,0,0,73,73,73,,,,,,,,,,,,,48.00843270000041,0.008432700000412297,None,124.75282890000017,124.75282890000017,124.75282890000017,124.75282890000017,124.75282890000017,124.75282890000017,124.75282890000017,124.75282890000017,,001,P014,2025_Feb_28_1617,CategoryLocalizer,2021.2.3,59.950456942447865,
48.8,49.0,5,0.0,Stimuli\Blank.png,0,0,0,74,74,74,,,,,,,,,,,,,48.809335300000384,0.009335300000387292,None,125.55421969999952,125.55421969999952,125.55421969999952,125.55421969999952,125.55421969999952,125.55421969999952,125.55421969999952,125.55421969999952,,001,P014,2025_Feb_28_1617,CategoryLocalizer,2021.2.3,59.950456942447865,
49.0,49.8,3,0.75,Stimuli\ImageFiles-Set1\Faces\Face_00059.png,0,0,0,75,75,75,,,,,,,,,,,,,49.010648800000126,0.010648800000126357,None,125.7540984999996,125.7540984999996,125.7540984999996,125.7540984999996,125.7540984999996,125.7540984999996,125.7540984999996,125.7540984999996,,001,P014,2025_Feb_28_1617,CategoryLocalizer,2021.2.3,59.950456942447865,
49.8,50.0,5,0.0,Stimuli\Blank.png,0,0,0,76,76,76,,,,,,,,,,,,,49.81076639999992,0.010766399999923237,None,126.55493439999918,126.55493439999918,126.55493439999918,126.55493439999918,126.55493439999918,126.55493439999918,126.55493439999918,126.55493439999918,,001,P014,2025_Feb_28_1617,CategoryLocalizer,2021.2.3,59.950456942447865,
50.0,50.8,3,0.75,Stimuli\ImageFiles-Set1\Faces\Face_00025.png,0,0,0,77,77,77,,,,,,,,,,,,,50.01265570000032,0.012655700000323122,None,126.75612030000048,126.75612030000048,126.75612030000048,126.75612030000048,126.75612030000048,126.75612030000048,126.75612030000048,126.75612030000048,,001,P014,2025_Feb_28_1617,CategoryLocalizer,2021.2.3,59.950456942447865,
50.8,51.0,5,0.0,Stimuli\Blank.png,0,0,0,78,78,78,,,,,,,,,,,,,50.81170569999995,0.011705699999950525,None,127.55599219999931,127.55599219999931,127.55599219999931,127.55599219999931,127.55599219999931,127.55599219999931,127.55599219999931,127.55599219999931,,001,P014,2025_Feb_28_1617,CategoryLocalizer,2021.2.3,59.950456942447865,
51.0,51.8,3,0.75,Stimuli\ImageFiles-Set1\Faces\Face_00065.png,0,0,0,79,79,79,,,,,,,,,,,,,51.011872699999,0.011872699999003089,None,127.75577630000043,127.75577630000043,127.75577630000043,127.75577630000043,127.75577630000043,127.75577630000043,127.75577630000043,127.75577630000043,,001,P014,2025_Feb_28_1617,CategoryLocalizer,2021.2.3,59.950456942447865,
51.8,52.0,5,0.0,Stimuli\Blank.png,0,0,0,80,80,80,,,,,,,,,,,,,51.81277199999931,0.012771999999316108,None,128.55679819999932,128.55679819999932,128.55679819999932,128.55679819999932,128.55679819999932,128.55679819999932,128.55679819999932,128.55679819999932,,001,P014,2025_Feb_28_1617,CategoryLocalizer,2021.2.3,59.950456942447865,
52.0,52.8,3,0.75,Stimuli\ImageFiles-Set1\Faces\Face_00009.png,0,0,0,81,81,81,,,,,,,,,,,,,52.01271699999961,0.01271699999961129,None,128.7561743999995,128.7561743999995,128.7561743999995,128.7561743999995,128.7561743999995,128.7561743999995,128.7561743999995,128.7561743999995,,001,P014,2025_Feb_28_1617,CategoryLocalizer,2021.2.3,59.950456942447865,
52.8,53.0,5,0.0,Stimuli\Blank.png,0,0,0,82,82,82,,,,,,,,,,,,,52.814066699998875,0.014066699998878107,None,129.55756859999929,129.55756859999929,129.55756859999929,129.55756859999929,129.55756859999929,129.55756859999929,129.55756859999929,129.55756859999929,,001,P014,2025_Feb_28_1617,CategoryLocalizer,2021.2.3,59.950456942447865,
53.0,53.8,3,0.75,Stimuli\ImageFiles-Set1\Faces\Face_00089.png,0,0,0,83,83,83,,,,,,,,,,,,,53.01376820000041,0.013768200000413344,None,129.75919889999932,129.75919889999932,129.75919889999932,129.75919889999932,129.75919889999932,129.75919889999932,129.75919889999932,129.75919889999932,,001,P014,2025_Feb_28_1617,CategoryLocalizer,2021.2.3,59.950456942447865,
53.8,54.0,5,0.0,Stimuli\Blank.png,0,0,0,84,84,84,,,,,,,,,,,,,53.813906499999575,0.013906499999578159,None,130.5580102999993,130.5580102999993,130.5580102999993,130.5580102999993,130.5580102999993,130.5580102999993,130.5580102999993,130.5580102999993,,001,P014,2025_Feb_28_1617,CategoryLocalizer,2021.2.3,59.950456942447865,
54.0,54.8,3,0.75,Stimuli\ImageFiles-Set1\Faces\Face_00105.png,1,1,0,85,85,85,,,,,,,,,,,,,54.01414900000054,0.01414900000054331,None,130.7581439000005,130.7581439000005,130.7581439000005,130.7581439000005,130.7581439000005,130.7581439000005,130.7581439000005,130.7581439000005,,001,P014,2025_Feb_28_1617,CategoryLocalizer,2021.2.3,59.950456942447865,
54.8,55.0,5,0.0,Stimuli\Blank.png,0,0,0,86,86,86,,,,,,,,,,,,,54.814617399999406,0.014617399999409031,None,131.55922509999982,131.55922509999982,131.55922509999982,131.55922509999982,131.55922509999982,131.55922509999982,131.55922509999982,131.55922509999982,,001,P014,2025_Feb_28_1617,CategoryLocalizer,2021.2.3,59.950456942447865,
55.0,55.8,3,0.75,Stimuli\ImageFiles-Set1\Faces\Face_00037.png,0,0,0,87,87,87,,,,,,,,,,,,,55.01576059999934,0.01576059999933932,None,131.77626260000034,131.77626260000034,131.77626260000034,131.77626260000034,131.77626260000034,131.77626260000034,131.77626260000034,131.77626260000034,,001,P014,2025_Feb_28_1617,CategoryLocalizer,2021.2.3,59.950456942447865,
55.8,56.0,5,0.0,Stimuli\Blank.png,0,0,0,88,88,88,,,,,,,,,,,,,55.81767989999935,0.017679899999350823,None,132.57721250000031,132.57721250000031,132.57721250000031,132.57721250000031,132.57721250000031,132.57721250000031,132.57721250000031,132.57721250000031,,001,P014,2025_Feb_28_1617,CategoryLocalizer,2021.2.3,59.950456942447865,
56.0,56.8,3,0.75,Stimuli\ImageFiles-Set1\Faces\Face_00037.png,0,0,0,89,89,89,,,,,,,,,,,,,56.016093599999294,0.016093599999294383,1,132.760225,132.760225,132.760225,132.760225,132.760225,132.760225,132.760225,132.760225,0.388282199999594,001,P014,2025_Feb_28_1617,CategoryLocalizer,2021.2.3,59.950456942447865,
56.8,57.0,5,0.0,Stimuli\Blank.png,0,0,0,90,90,90,,,,,,,,,,,,,56.800067399999534,6.739999953708775e-05,None,133.54435919999923,133.54435919999923,133.54435919999923,133.54435919999923,133.54435919999923,133.54435919999923,133.54435919999923,133.54435919999923,,001,P014,2025_Feb_28_1617,CategoryLocalizer,2021.2.3,59.950456942447865,
57.0,57.8,3,0.75,Stimuli\ImageFiles-Set1\Faces\Face_00107.png,0,0,0,91,91,91,,,,,,,,,,,,,57.00147409999954,0.0014740999995410675,None,133.75048400000014,133.75048400000014,133.75048400000014,133.75048400000014,133.75048400000014,133.75048400000014,133.75048400000014,133.75048400000014,,001,P014,2025_Feb_28_1617,CategoryLocalizer,2021.2.3,59.950456942447865,
57.8,58.0,5,0.0,Stimuli\Blank.png,0,0,0,92,92,92,,,,,,,,,,,,,57.81758119999904,0.01758119999904295,None,134.56150420000085,134.56150420000085,134.56150420000085,134.56150420000085,134.56150420000085,134.56150420000085,134.56150420000085,134.56150420000085,,001,P014,2025_Feb_28_1617,CategoryLocalizer,2021.2.3,59.950456942447865,
58.0,58.8,3,0.75,Stimuli\ImageFiles-Set1\Faces\Face_00039.png,0,0,0,93,93,93,,,,,,,,,,,,,58.00064779999957,0.0006477999995695427,None,134.74527540000054,134.74527540000054,134.74527540000054,134.74527540000054,134.74527540000054,134.74527540000054,134.74527540000054,134.74527540000054,,001,P014,2025_Feb_28_1617,CategoryLocalizer,2021.2.3,59.950456942447865,
58.8,59.0,5,0.0,Stimuli\Blank.png,0,0,0,94,94,94,,,,,,,,,,,,,58.802543499999956,0.0025434999999589536,None,135.54614279999987,135.54614279999987,135.54614279999987,135.54614279999987,135.54614279999987,135.54614279999987,135.54614279999987,135.54614279999987,,001,P014,2025_Feb_28_1617,CategoryLocalizer,2021.2.3,59.950456942447865,
59.0,59.8,3,0.75,Stimuli\ImageFiles-Set1\Faces\Face_00016.png,0,0,0,95,95,95,,,,,,,,,,,,,59.002195299999585,0.0021952999995846767,None,135.74845800000003,135.74845800000003,135.74845800000003,135.74845800000003,135.74845800000003,135.74845800000003,135.74845800000003,135.74845800000003,,001,P014,2025_Feb_28_1617,CategoryLocalizer,2021.2.3,59.950456942447865,
59.8,60.0,5,0.0,Stimuli\Blank.png,0,0,0,96,96,96,,,,,,,,,,,,,59.8022863999995,0.0022863999995053064,None,136.54682289999982,136.54682289999982,136.54682289999982,136.54682289999982,136.54682289999982,136.54682289999982,136.54682289999982,136.54682289999982,,001,P014,2025_Feb_28_1617,CategoryLocalizer,2021.2.3,59.950456942447865,
60.0,60.8,4,0.75,Stimuli\ImageFiles-Set1\Scenes\Scenes_040.png,0,0,0,97,97,97,,,,,,,,,,,,,60.00215299999945,0.0021529999994527316,None,136.7469815000004,136.7469815000004,136.7469815000004,136.7469815000004,136.7469815000004,136.7469815000004,136.7469815000004,136.7469815000004,,001,P014,2025_Feb_28_1617,CategoryLocalizer,2021.2.3,59.950456942447865,
60.8,61.0,5,0.0,Stimuli\Blank.png,0,0,0,98,98,98,,,,,,,,,,,,,60.80449839999892,0.004498399998922764,None,137.5478108999996,137.5478108999996,137.5478108999996,137.5478108999996,137.5478108999996,137.5478108999996,137.5478108999996,137.5478108999996,,001,P014,2025_Feb_28_1617,CategoryLocalizer,2021.2.3,59.950456942447865,
61.0,61.8,4,0.75,Stimuli\ImageFiles-Set1\Scenes\Scenes_052.png,0,0,0,99,99,99,,,,,,,,,,,,,61.0044113999993,0.004411399999298737,None,137.75152309999976,137.75152309999976,137.75152309999976,137.75152309999976,137.75152309999976,137.75152309999976,137.75152309999976,137.75152309999976,,001,P014,2025_Feb_28_1617,CategoryLocalizer,2021.2.3,59.950456942447865,
61.8,62.0,5,0.0,Stimuli\Blank.png,0,0,0,100,100,100,,,,,,,,,,,,,61.80409680000048,0.0040968000004824034,None,138.54872980000073,138.54872980000073,138.54872980000073,138.54872980000073,138.54872980000073,138.54872980000073,138.54872980000073,138.54872980000073,,001,P014,2025_Feb_28_1617,CategoryLocalizer,2021.2.3,59.950456942447865,
62.0,62.8,4,0.75,Stimuli\ImageFiles-Set1\Scenes\Scenes_045.png,0,0,0,101,101,101,,,,,,,,,,,,,62.00446399999964,0.00446399999964342,None,138.74850920000063,138.74850920000063,138.74850920000063,138.74850920000063,138.74850920000063,138.74850920000063,138.74850920000063,138.74850920000063,,001,P014,2025_Feb_28_1617,CategoryLocalizer,2021.2.3,59.950456942447865,
62.8,63.0,5,0.0,Stimuli\Blank.png,0,0,0,102,102,102,,,,,,,,,,,,,62.80578819999937,0.005788199999372523,None,139.5497465999997,139.5497465999997,139.5497465999997,139.5497465999997,139.5497465999997,139.5497465999997,139.5497465999997,139.5497465999997,,001,P014,2025_Feb_28_1617,CategoryLocalizer,2021.2.3,59.950456942447865,
63.0,63.8,4,0.75,Stimuli\ImageFiles-Set1\Scenes\Scenes_021.png,0,0,0,103,103,103,,,,,,,,,,,,,63.00634009999885,0.006340099998851656,None,139.77080360000036,139.77080360000036,139.77080360000036,139.77080360000036,139.77080360000036,139.77080360000036,139.77080360000036,139.77080360000036,,001,P014,2025_Feb_28_1617,CategoryLocalizer,2021.2.3,59.950456942447865,
63.8,64.0,5,0.0,Stimuli\Blank.png,0,0,0,104,104,104,,,,,,,,,,,,,63.82361639999908,0.023616399999085047,None,140.56700679999994,140.56700679999994,140.56700679999994,140.56700679999994,140.56700679999994,140.56700679999994,140.56700679999994,140.56700679999994,,001,P014,2025_Feb_28_1617,CategoryLocalizer,2021.2.3,59.950456942447865,
64.0,64.8,4,0.75,Stimuli\ImageFiles-Set1\Scenes\Scenes_051.png,0,0,0,105,105,105,,,,,,,,,,,,,64.00632039999982,0.006320399999822257,None,140.7577953,140.7577953,140.7577953,140.7577953,140.7577953,140.7577953,140.7577953,140.7577953,,001,P014,2025_Feb_28_1617,CategoryLocalizer,2021.2.3,59.950456942447865,
64.8,65.0,5,0.0,Stimuli\Blank.png,0,0,0,106,106,106,,,,,,,,,,,,,64.80856239999957,0.008562399999576087,None,141.5513864000004,141.5513864000004,141.5513864000004,141.5513864000004,141.5513864000004,141.5513864000004,141.5513864000004,141.5513864000004,,001,P014,2025_Feb_28_1617,CategoryLocalizer,2021.2.3,59.950456942447865,
65.0,65.8,4,0.75,Stimuli\ImageFiles-Set1\Scenes\Scenes_017.png,0,0,0,107,107,107,,,,,,,,,,,,,65.0084296999994,0.00842969999939669,None,141.7690074000002,141.7690074000002,141.7690074000002,141.7690074000002,141.7690074000002,141.7690074000002,141.7690074000002,141.7690074000002,,001,P014,2025_Feb_28_1617,CategoryLocalizer,2021.2.3,59.950456942447865,
65.8,66.0,5,0.0,Stimuli\Blank.png,0,0,0,108,108,108,,,,,,,,,,,,,65.8268748999999,0.02687489999989623,None,142.5691227999996,142.5691227999996,142.5691227999996,142.5691227999996,142.5691227999996,142.5691227999996,142.5691227999996,142.5691227999996,,001,P014,2025_Feb_28_1617,CategoryLocalizer,2021.2.3,59.950456942447865,
66.0,66.8,4,0.75,Stimuli\ImageFiles-Set1\Scenes\Scenes_048.png,0,0,0,109,109,109,,,,,,,,,,,,,66.0076981000002,0.007698100000197883,None,142.75578400000086,142.75578400000086,142.75578400000086,142.75578400000086,142.75578400000086,142.75578400000086,142.75578400000086,142.75578400000086,,001,P014,2025_Feb_28_1617,CategoryLocalizer,2021.2.3,59.950456942447865,
66.8,67.0,5,0.0,Stimuli\Blank.png,0,0,0,110,110,110,,,,,,,,,,,,,66.80948890000036,0.009488900000363287,None,143.55361339999945,143.55361339999945,143.55361339999945,143.55361339999945,143.55361339999945,143.55361339999945,143.55361339999945,143.55361339999945,,001,P014,2025_Feb_28_1617,CategoryLocalizer,2021.2.3,59.950456942447865,
67.0,67.8,4,0.75,Stimuli\ImageFiles-Set1\Scenes\Scenes_056.png,0,0,0,111,111,111,,,,,,,,,,,,,67.00987559999885,0.009875599998849793,None,143.7631433000006,143.7631433000006,143.7631433000006,143.7631433000006,143.7631433000006,143.7631433000006,143.7631433000006,143.7631433000006,,001,P014,2025_Feb_28_1617,CategoryLocalizer,2021.2.3,59.950456942447865,
67.8,68.0,5,0.0,Stimuli\Blank.png,0,0,0,112,112,112,,,,,,,,,,,,,67.81043030000001,0.010430300000010106,None,144.55460680000033,144.55460680000033,144.55460680000033,144.55460680000033,144.55460680000033,144.55460680000033,144.55460680000033,144.55460680000033,,001,P014,2025_Feb_28_1617,CategoryLocalizer,2021.2.3,59.950456942447865,
68.0,68.8,4,0.75,Stimuli\ImageFiles-Set1\Scenes\Scenes_047.png,0,0,0,113,113,113,,,,,,,,,,,,,68.0093839000001,0.009383900000102585,None,144.76342750000003,144.76342750000003,144.76342750000003,144.76342750000003,144.76342750000003,144.76342750000003,144.76342750000003,144.76342750000003,,001,P014,2025_Feb_28_1617,CategoryLocalizer,2021.2.3,59.950456942447865,
68.8,69.0,5,0.0,Stimuli\Blank.png,0,0,0,114,114,114,,,,,,,,,,,,,68.81056689999969,0.010566899999687962,None,145.5550435999994,145.5550435999994,145.5550435999994,145.5550435999994,145.5550435999994,145.5550435999994,145.5550435999994,145.5550435999994,,001,P014,2025_Feb_28_1617,CategoryLocalizer,2021.2.3,59.950456942447865,
69.0,69.8,4,0.75,Stimuli\ImageFiles-Set1\Scenes\Scenes_059.png,0,0,0,115,115,115,,,,,,,,,,,,,69.0121822000001,0.01218220000009751,None,145.7740692999996,145.7740692999996,145.7740692999996,145.7740692999996,145.7740692999996,145.7740692999996,145.7740692999996,145.7740692999996,,001,P014,2025_Feb_28_1617,CategoryLocalizer,2021.2.3,59.950456942447865,
69.8,70.0,5,0.0,Stimuli\Blank.png,0,0,0,116,116,116,,,,,,,,,,,,,69.82894680000027,0.028946800000269945,None,146.57223189999968,146.57223189999968,146.57223189999968,146.57223189999968,146.57223189999968,146.57223189999968,146.57223189999968,146.57223189999968,,001,P014,2025_Feb_28_1617,CategoryLocalizer,2021.2.3,59.950456942447865,
70.0,70.8,4,0.75,Stimuli\ImageFiles-Set1\Scenes\Scenes_022.png,0,0,0,117,117,117,,,,,,,,,,,,,70.01221830000031,0.01221830000031332,None,146.76514379999935,146.76514379999935,146.76514379999935,146.76514379999935,146.76514379999935,146.76514379999935,146.76514379999935,146.76514379999935,,001,P014,2025_Feb_28_1617,CategoryLocalizer,2021.2.3,59.950456942447865,
70.8,71.0,5,0.0,Stimuli\Blank.png,0,0,0,118,118,118,,,,,,,,,,,,,70.81404189999921,0.01404189999921357,None,147.558266,147.558266,147.558266,147.558266,147.558266,147.558266,147.558266,147.558266,,001,P014,2025_Feb_28_1617,CategoryLocalizer,2021.2.3,59.950456942447865,
71.0,71.8,4,0.75,Stimuli\ImageFiles-Set1\Scenes\Scenes_057.png,0,0,0,119,119,119,,,,,,,,,,,,,71.01306859999931,0.013068599999314756,None,147.76391999999942,147.76391999999942,147.76391999999942,147.76391999999942,147.76391999999942,147.76391999999942,147.76391999999942,147.76391999999942,,001,P014,2025_Feb_28_1617,CategoryLocalizer,2021.2.3,59.950456942447865,
71.8,72.0,5,0.0,Stimuli\Blank.png,0,0,0,120,120,120,,,,,,,,,,,,,71.81394499999988,0.01394499999987886,None,148.55761449999954,148.55761449999954,148.55761449999954,148.55761449999954,148.55761449999954,148.55761449999954,148.55761449999954,148.55761449999954,,001,P014,2025_Feb_28_1617,CategoryLocalizer,2021.2.3,59.950456942447865,
72.0,72.8,4,0.75,Stimuli\ImageFiles-Set1\Scenes\Scenes_019.png,0,0,0,121,121,121,,,,,,,,,,,,,72.01280719999886,0.012807199998860597,None,148.7649025999999,148.7649025999999,148.7649025999999,148.7649025999999,148.7649025999999,148.7649025999999,148.7649025999999,148.7649025999999,,001,P014,2025_Feb_28_1617,CategoryLocalizer,2021.2.3,59.950456942447865,
72.8,73.0,5,0.0,Stimuli\Blank.png,0,0,0,122,122,122,,,,,,,,,,,,,72.81475839999985,0.014758399999848848,None,149.55862969999907,149.55862969999907,149.55862969999907,149.55862969999907,149.55862969999907,149.55862969999907,149.55862969999907,149.55862969999907,,001,P014,2025_Feb_28_1617,CategoryLocalizer,2021.2.3,59.950456942447865,
73.0,73.8,4,0.75,Stimuli\ImageFiles-Set1\Scenes\Scenes_019.png,1,1,0,123,123,123,,,,,,,,,,,,,73.0152306,0.01523059999999532,1,149.76445710000007,149.76445710000007,149.76445710000007,149.76445710000007,149.76445710000007,149.76445710000007,149.76445710000007,149.76445710000007,0.4121427999998559,001,P014,2025_Feb_28_1617,CategoryLocalizer,2021.2.3,59.950456942447865,
73.8,74.0,5,0.0,Stimuli\Blank.png,0,0,0,124,124,124,,,,,,,,,,,,,73.81545759999972,0.015457599999720628,None,150.5590878999992,150.5590878999992,150.5590878999992,150.5590878999992,150.5590878999992,150.5590878999992,150.5590878999992,150.5590878999992,,001,P014,2025_Feb_28_1617,CategoryLocalizer,2021.2.3,59.950456942447865,
74.0,74.8,4,0.75,Stimuli\ImageFiles-Set1\Scenes\Scenes_015.png,0,0,0,125,125,125,,,,,,,,,,,,,73.99859149999975,-0.0014085000002523884,None,150.75312730000041,150.75312730000041,150.75312730000041,150.75312730000041,150.75312730000041,150.75312730000041,150.75312730000041,150.75312730000041,,001,P014,2025_Feb_28_1617,CategoryLocalizer,2021.2.3,59.950456942447865,
74.8,75.0,5,0.0,Stimuli\Blank.png,0,0,0,126,126,126,,,,,,,,,,,,,74.81564719999915,0.015647199999150985,None,151.56034809999983,151.56034809999983,151.56034809999983,151.56034809999983,151.56034809999983,151.56034809999983,151.56034809999983,151.56034809999983,,001,P014,2025_Feb_28_1617,CategoryLocalizer,2021.2.3,59.950456942447865,
75.0,75.8,4,0.75,Stimuli\ImageFiles-Set1\Scenes\Scenes_001.png,0,0,0,127,127,127,,,,,,,,,,,,,75.01541559999896,0.015415599998959806,None,151.75987039999927,151.75987039999927,151.75987039999927,151.75987039999927,151.75987039999927,151.75987039999927,151.75987039999927,151.75987039999927,,001,P014,2025_Feb_28_1617,CategoryLocalizer,2021.2.3,59.950456942447865,
75.8,76.0,5,0.0,Stimuli\Blank.png,0,0,0,128,128,128,,,,,,,,,,,,,75.80040960000042,0.0004096000004238931,None,152.54451250000056,152.54451250000056,152.54451250000056,152.54451250000056,152.54451250000056,152.54451250000056,152.54451250000056,152.54451250000056,,001,P014,2025_Feb_28_1617,CategoryLocalizer,2021.2.3,59.950456942447865,
76.0,88.0,0,0.0,Stimuli\Blank.png,0,0,0,129,129,129,,,,,,,,,,,,,75.99956329999986,-0.000436700000136625,None,152.74458439999944,152.74458439999944,152.74458439999944,152.74458439999944,152.74458439999944,152.74458439999944,152.74458439999944,152.74458439999944,,001,P014,2025_Feb_28_1617,CategoryLocalizer,2021.2.3,59.950456942447865,
88.0,88.8,3,0.75,Stimuli\ImageFiles-Set1\Faces\Face_00109.png,0,0,0,130,130,130,,,,,,,,,,,,,88.0110939999995,0.011093999999502557,1,164.76358160000018,164.76358160000018,164.76358160000018,164.76358160000018,164.76358160000018,164.76358160000018,164.76358160000018,164.76358160000018,0.6873542000012094,001,P014,2025_Feb_28_1617,CategoryLocalizer,2021.2.3,59.950456942447865,
88.8,89.0,5,0.0,Stimuli\Blank.png,0,0,0,131,131,131,,,,,,,,,,,,,88.81180829999903,0.011808299999032101,None,165.5561333000005,165.5561333000005,165.5561333000005,165.5561333000005,165.5561333000005,165.5561333000005,165.5561333000005,165.5561333000005,,001,P014,2025_Feb_28_1617,CategoryLocalizer,2021.2.3,59.950456942447865,
89.0,89.8,3,0.75,Stimuli\ImageFiles-Set1\Faces\Face_00020.png,0,0,0,132,132,132,,,,,,,,,,,,,89.01228710000032,0.012287100000321516,None,165.76138250000076,165.76138250000076,165.76138250000076,165.76138250000076,165.76138250000076,165.76138250000076,165.76138250000076,165.76138250000076,,001,P014,2025_Feb_28_1617,CategoryLocalizer,2021.2.3,59.950456942447865,
89.8,90.0,5,0.0,Stimuli\Blank.png,0,0,0,133,133,133,,,,,,,,,,,,,89.81268269999964,0.012682699999643887,None,166.55694760000006,166.55694760000006,166.55694760000006,166.55694760000006,166.55694760000006,166.55694760000006,166.55694760000006,166.55694760000006,,001,P014,2025_Feb_28_1617,CategoryLocalizer,2021.2.3,59.950456942447865,
90.0,90.8,3,0.75,Stimuli\ImageFiles-Set1\Faces\Face_00063.png,0,0,0,134,134,134,,,,,,,,,,,,,90.01276890000008,0.012768900000082795,None,166.75668779999978,166.75668779999978,166.75668779999978,166.75668779999978,166.75668779999978,166.75668779999978,166.75668779999978,166.75668779999978,,001,P014,2025_Feb_28_1617,CategoryLocalizer,2021.2.3,59.950456942447865,
90.8,91.0,5,0.0,Stimuli\Blank.png,0,0,0,135,135,135,,,,,,,,,,,,,90.81386949999978,0.013869499999785262,None,167.55784010000025,167.55784010000025,167.55784010000025,167.55784010000025,167.55784010000025,167.55784010000025,167.55784010000025,167.55784010000025,,001,P014,2025_Feb_28_1617,CategoryLocalizer,2021.2.3,59.950456942447865,
91.0,91.8,3,0.75,Stimuli\ImageFiles-Set1\Faces\Face_00103.png,0,0,0,136,136,136,,,,,,,,,,,,,91.01409609999973,0.01409609999973327,None,167.76140169999962,167.76140169999962,167.76140169999962,167.76140169999962,167.76140169999962,167.76140169999962,167.76140169999962,167.76140169999962,,001,P014,2025_Feb_28_1617,CategoryLocalizer,2021.2.3,59.950456942447865,
91.8,92.0,5,0.0,Stimuli\Blank.png,0,0,0,137,137,137,,,,,,,,,,,,,91.81445089999943,0.014450899999431499,None,168.55873280000014,168.55873280000014,168.55873280000014,168.55873280000014,168.55873280000014,168.55873280000014,168.55873280000014,168.55873280000014,,001,P014,2025_Feb_28_1617,CategoryLocalizer,2021.2.3,59.950456942447865,
92.0,92.8,3,0.75,Stimuli\ImageFiles-Set1\Faces\Face_00103.png,1,1,0,138,138,138,,,,,,,,,,,,,92.01507970000057,0.015079700000569574,1,168.7588054000007,168.7588054000007,168.7588054000007,168.7588054000007,168.7588054000007,168.7588054000007,168.7588054000007,168.7588054000007,0.5837566000009247,001,P014,2025_Feb_28_1617,CategoryLocalizer,2021.2.3,59.950456942447865,
92.8,93.0,5,0.0,Stimuli\Blank.png,0,0,0,139,139,139,,,,,,,,,,,,,92.7986490000003,-0.00135099999970123,None,169.54269439999916,169.54269439999916,169.54269439999916,169.54269439999916,169.54269439999916,169.54269439999916,169.54269439999916,169.54269439999916,,001,P014,2025_Feb_28_1617,CategoryLocalizer,2021.2.3,59.950456942447865,
93.0,93.8,3,0.75,Stimuli\ImageFiles-Set1\Faces\Face_00043.png,0,0,0,140,140,140,,,,,,,,,,,,,92.99893639999937,-0.0010636000006343238,None,169.75321819999954,169.75321819999954,169.75321819999954,169.75321819999954,169.75321819999954,169.75321819999954,169.75321819999954,169.75321819999954,,001,P014,2025_Feb_28_1617,CategoryLocalizer,2021.2.3,59.950456942447865,
93.8,94.0,5,0.0,Stimuli\Blank.png,0,0,0,141,141,141,,,,,,,,,,,,,93.81626599999981,0.016265999999816927,None,170.56047580000086,170.56047580000086,170.56047580000086,170.56047580000086,170.56047580000086,170.56047580000086,170.56047580000086,170.56047580000086,,001,P014,2025_Feb_28_1617,CategoryLocalizer,2021.2.3,59.950456942447865,
94.0,94.8,3,0.75,Stimuli\ImageFiles-Set1\Faces\Face_00073.png,0,0,0,142,142,142,,,,,,,,,,,,,93.99900659999912,-0.0009934000008797739,None,170.75286849999975,170.75286849999975,170.75286849999975,170.75286849999975,170.75286849999975,170.75286849999975,170.75286849999975,170.75286849999975,,001,P014,2025_Feb_28_1617,CategoryLocalizer,2021.2.3,59.950456942447865,
94.8,95.0,5,0.0,Stimuli\Blank.png,0,0,0,143,143,143,,,,,,,,,,,,,94.81715869999971,0.017158699999711757,None,171.5611683999996,171.5611683999996,171.5611683999996,171.5611683999996,171.5611683999996,171.5611683999996,171.5611683999996,171.5611683999996,,001,P014,2025_Feb_28_1617,CategoryLocalizer,2021.2.3,59.950456942447865,
95.0,95.8,3,0.75,Stimuli\ImageFiles-Set1\Faces\Face_00031.png,0,0,0,144,144,144,,,,,,,,,,,,,95.0004530999995,0.00045309999950404745,None,171.74479319999955,171.74479319999955,171.74479319999955,171.74479319999955,171.74479319999955,171.74479319999955,171.74479319999955,171.74479319999955,,001,P014,2025_Feb_28_1617,CategoryLocalizer,2021.2.3,59.950456942447865,
95.8,96.0,5,0.0,Stimuli\Blank.png,0,0,0,145,145,145,,,,,,,,,,,,,95.80236700000023,0.002367000000234043,None,172.54525099999955,172.54525099999955,172.54525099999955,172.54525099999955,172.54525099999955,172.54525099999955,172.54525099999955,172.54525099999955,,001,P014,2025_Feb_28_1617,CategoryLocalizer,2021.2.3,59.950456942447865,
96.0,96.8,3,0.75,Stimuli\ImageFiles-Set1\Faces\Face_00014.png,0,0,0,146,146,146,,,,,,,,,,,,,96.00072059999911,0.000720599999112892,None,172.74673020000046,172.74673020000046,172.74673020000046,172.74673020000046,172.74673020000046,172.74673020000046,172.74673020000046,172.74673020000046,,001,P014,2025_Feb_28_1617,CategoryLocalizer,2021.2.3,59.950456942447865,
96.8,97.0,5,0.0,Stimuli\Blank.png,0,0,0,147,147,147,,,,,,,,,,,,,96.80261149999933,0.0026114999993325227,None,173.54646839999987,173.54646839999987,173.54646839999987,173.54646839999987,173.54646839999987,173.54646839999987,173.54646839999987,173.54646839999987,,001,P014,2025_Feb_28_1617,CategoryLocalizer,2021.2.3,59.950456942447865,
97.0,97.8,3,0.75,Stimuli\ImageFiles-Set1\Faces\Face_00057.png,0,0,0,148,148,148,,,,,,,,,,,,,97.00322109999979,0.003221099999791477,None,173.7563114000004,173.7563114000004,173.7563114000004,173.7563114000004,173.7563114000004,173.7563114000004,173.7563114000004,173.7563114000004,,001,P014,2025_Feb_28_1617,CategoryLocalizer,2021.2.3,59.950456942447865,
97.8,98.0,5,0.0,Stimuli\Blank.png,0,0,0,149,149,149,,,,,,,,,,,,,97.82099079999898,0.02099079999898379,None,174.56371079999917,174.56371079999917,174.56371079999917,174.56371079999917,174.56371079999917,174.56371079999917,174.56371079999917,174.56371079999917,,001,P014,2025_Feb_28_1617,CategoryLocalizer,2021.2.3,59.950456942447865,
98.0,98.8,3,0.75,Stimuli\ImageFiles-Set1\Faces\Face_00111.png,0,0,0,150,150,150,,,,,,,,,,,,,98.00370870000006,0.0037087000000610715,None,174.7559798000002,174.7559798000002,174.7559798000002,174.7559798000002,174.7559798000002,174.7559798000002,174.7559798000002,174.7559798000002,,001,P014,2025_Feb_28_1617,CategoryLocalizer,2021.2.3,59.950456942447865,
98.8,99.0,5,0.0,Stimuli\Blank.png,0,0,0,151,151,151,,,,,,,,,,,,,98.82078790000014,0.020787900000144077,None,175.5645014999991,175.5645014999991,175.5645014999991,175.5645014999991,175.5645014999991,175.5645014999991,175.5645014999991,175.5645014999991,,001,P014,2025_Feb_28_1617,CategoryLocalizer,2021.2.3,59.950456942447865,
99.0,99.8,3,0.75,Stimuli\ImageFiles-Set1\Faces\Face_00093.png,0,0,0,152,152,152,,,,,,,,,,,,,99.00467779999963,0.004677799999626586,None,175.76125850000062,175.76125850000062,175.76125850000062,175.76125850000062,175.76125850000062,175.76125850000062,175.76125850000062,175.76125850000062,,001,P014,2025_Feb_28_1617,CategoryLocalizer,2021.2.3,59.950456942447865,
99.8,100.0,5,0.0,Stimuli\Blank.png,0,0,0,153,153,153,,,,,,,,,,,,,99.82207740000013,0.022077400000128478,None,176.56591219999973,176.56591219999973,176.56591219999973,176.56591219999973,176.56591219999973,176.56591219999973,176.56591219999973,176.56591219999973,,001,P014,2025_Feb_28_1617,CategoryLocalizer,2021.2.3,59.950456942447865,
100.0,100.8,3,0.75,Stimuli\ImageFiles-Set1\Faces\Face_00115.png,0,0,0,154,154,154,,,,,,,,,,,,,100.00488719999885,0.004887199998847791,None,176.74907069999972,176.74907069999972,176.74907069999972,176.74907069999972,176.74907069999972,176.74907069999972,176.74907069999972,176.74907069999972,,001,P014,2025_Feb_28_1617,CategoryLocalizer,2021.2.3,59.950456942447865,
100.8,101.0,5,0.0,Stimuli\Blank.png,0,0,0,155,155,155,,,,,,,,,,,,,100.80563849999999,0.005638499999989222,None,177.54992759999914,177.54992759999914,177.54992759999914,177.54992759999914,177.54992759999914,177.54992759999914,177.54992759999914,177.54992759999914,,001,P014,2025_Feb_28_1617,CategoryLocalizer,2021.2.3,59.950456942447865,
101.0,101.8,3,0.75,Stimuli\ImageFiles-Set1\Faces\Face_00029.png,0,0,0,156,156,156,,,,,,,,,,,,,101.00633740000012,0.006337400000120397,None,177.75271749999956,177.75271749999956,177.75271749999956,177.75271749999956,177.75271749999956,177.75271749999956,177.75271749999956,177.75271749999956,,001,P014,2025_Feb_28_1617,CategoryLocalizer,2021.2.3,59.950456942447865,
101.8,102.0,5,0.0,Stimuli\Blank.png,0,0,0,157,157,157,,,,,,,,,,,,,101.80678739999894,0.006787399998941623,None,178.55062980000002,178.55062980000002,178.55062980000002,178.55062980000002,178.55062980000002,178.55062980000002,178.55062980000002,178.55062980000002,,001,P014,2025_Feb_28_1617,CategoryLocalizer,2021.2.3,59.950456942447865,
102.0,102.8,3,0.75,Stimuli\ImageFiles-Set1\Faces\Face_00033.png,0,0,0,158,158,158,,,,,,,,,,,,,102.00612059999912,0.006120599999121623,None,178.75063559999944,178.75063559999944,178.75063559999944,178.75063559999944,178.75063559999944,178.75063559999944,178.75063559999944,178.75063559999944,,001,P014,2025_Feb_28_1617,CategoryLocalizer,2021.2.3,59.950456942447865,
102.8,103.0,5,0.0,Stimuli\Blank.png,0,0,0,159,159,159,,,,,,,,,,,,,102.80861089999962,0.008610899999624166,None,179.55242080000062,179.55242080000062,179.55242080000062,179.55242080000062,179.55242080000062,179.55242080000062,179.55242080000062,179.55242080000062,,001,P014,2025_Feb_28_1617,CategoryLocalizer,2021.2.3,59.950456942447865,
103.0,103.8,3,0.75,Stimuli\ImageFiles-Set1\Faces\Face_00069.png,0,0,0,160,160,160,,,,,,,,,,,,,103.00928740000018,0.009287400000175694,None,179.7664287000007,179.7664287000007,179.7664287000007,179.7664287000007,179.7664287000007,179.7664287000007,179.7664287000007,179.7664287000007,,001,P014,2025_Feb_28_1617,CategoryLocalizer,2021.2.3,59.950456942447865,
103.8,104.0,5,0.0,Stimuli\Blank.png,0,0,0,161,161,161,,,,,,,,,,,,,103.82624000000033,0.026240000000328223,None,180.56955279999966,180.56955279999966,180.56955279999966,180.56955279999966,180.56955279999966,180.56955279999966,180.56955279999966,180.56955279999966,,001,P014,2025_Feb_28_1617,CategoryLocalizer,2021.2.3,59.950456942447865,
104.0,104.8,1,0.75,Stimuli\ImageFiles-Set1\Objects\Object_Gun_00001.png,0,0,0,162,162,162,,,,,,,,,,,,,104.01092570000037,0.010925700000370853,None,180.76076619999913,180.76076619999913,180.76076619999913,180.76076619999913,180.76076619999913,180.76076619999913,180.76076619999913,180.76076619999913,,001,P014,2025_Feb_28_1617,CategoryLocalizer,2021.2.3,59.950456942447865,
104.8,105.0,5,0.0,Stimuli\Blank.png,0,0,0,163,163,163,,,,,,,,,,,,,104.80928010000025,0.00928010000025381,None,181.5534478999998,181.5534478999998,181.5534478999998,181.5534478999998,181.5534478999998,181.5534478999998,181.5534478999998,181.5534478999998,,001,P014,2025_Feb_28_1617,CategoryLocalizer,2021.2.3,59.950456942447865,
105.0,105.8,1,0.75,Stimuli\ImageFiles-Set1\Objects\Object_Screw_00001.png,0,0,0,164,164,164,,,,,,,,,,,,,105.00870229999964,0.008702299999640672,None,181.75368170000002,181.75368170000002,181.75368170000002,181.75368170000002,181.75368170000002,181.75368170000002,181.75368170000002,181.75368170000002,,001,P014,2025_Feb_28_1617,CategoryLocalizer,2021.2.3,59.950456942447865,
105.8,106.0,5,0.0,Stimuli\Blank.png,0,0,0,165,165,165,,,,,,,,,,,,,105.81015429999934,0.010154299999342697,None,182.55443519999972,182.55443519999972,182.55443519999972,182.55443519999972,182.55443519999972,182.55443519999972,182.55443519999972,182.55443519999972,,001,P014,2025_Feb_28_1617,CategoryLocalizer,2021.2.3,59.950456942447865,
106.0,106.8,1,0.75,Stimuli\ImageFiles-Set1\Objects\Object_Apple_00001.png,0,0,0,166,166,166,,,,,,,,,,,,,106.01021600000058,0.010216000000582426,None,182.75657239999964,182.75657239999964,182.75657239999964,182.75657239999964,182.75657239999964,182.75657239999964,182.75657239999964,182.75657239999964,,001,P014,2025_Feb_28_1617,CategoryLocalizer,2021.2.3,59.950456942447865,
106.8,107.0,5,0.0,Stimuli\Blank.png,0,0,0,167,167,167,,,,,,,,,,,,,106.81237340000007,0.012373400000072365,None,183.57189839999955,183.57189839999955,183.57189839999955,183.57189839999955,183.57189839999955,183.57189839999955,183.57189839999955,183.57189839999955,,001,P014,2025_Feb_28_1617,CategoryLocalizer,2021.2.3,59.950456942447865,
107.0,107.8,1,0.75,Stimuli\ImageFiles-Set1\Objects\Object_Ring_00001.png,0,0,0,168,168,168,,,,,,,,,,,,,107.02846479999971,0.02846479999971052,None,183.78655470000012,183.78655470000012,183.78655470000012,183.78655470000012,183.78655470000012,183.78655470000012,183.78655470000012,183.78655470000012,,001,P014,2025_Feb_28_1617,CategoryLocalizer,2021.2.3,59.950456942447865,
107.8,108.0,5,0.0,Stimuli\Blank.png,0,0,0,169,169,169,,,,,,,,,,,,,107.82845009999983,0.02845009999983006,None,184.57270040000003,184.57270040000003,184.57270040000003,184.57270040000003,184.57270040000003,184.57270040000003,184.57270040000003,184.57270040000003,,001,P014,2025_Feb_28_1617,CategoryLocalizer,2021.2.3,59.950456942447865,
108.0,108.8,1,0.75,Stimuli\ImageFiles-Set1\Objects\Object_Box_00001.png,0,0,0,170,170,170,,,,,,,,,,,,,108.0122066999993,0.012206699999296688,None,184.76263570000083,184.76263570000083,184.76263570000083,184.76263570000083,184.76263570000083,184.76263570000083,184.76263570000083,184.76263570000083,,001,P014,2025_Feb_28_1617,CategoryLocalizer,2021.2.3,59.950456942447865,
108.8,109.0,5,0.0,Stimuli\Blank.png,0,0,0,171,171,171,,,,,,,,,,,,,108.8129270999998,0.012927099999799907,None,185.55707470000016,185.55707470000016,185.55707470000016,185.55707470000016,185.55707470000016,185.55707470000016,185.55707470000016,185.55707470000016,,001,P014,2025_Feb_28_1617,CategoryLocalizer,2021.2.3,59.950456942447865,
109.0,109.8,1,0.75,Stimuli\ImageFiles-Set1\Objects\Object_Box_00001.png,1,1,0,172,172,172,,,,,,,,,,,,,109.0129022000001,0.012902200000098674,2,185.75808159999906,185.75808159999906,185.75808159999906,185.75808159999906,185.75808159999906,185.75808159999906,185.75808159999906,185.75808159999906,0.6407156000004761,001,P014,2025_Feb_28_1617,CategoryLocalizer,2021.2.3,59.950456942447865,
109.8,110.0,5,0.0,Stimuli\Blank.png,0,0,0,173,173,173,,,,,,,,,,,,,109.8139940000001,0.013994000000096207,None,186.55798850000065,186.55798850000065,186.55798850000065,186.55798850000065,186.55798850000065,186.55798850000065,186.55798850000065,186.55798850000065,,001,P014,2025_Feb_28_1617,CategoryLocalizer,2021.2.3,59.950456942447865,
110.0,110.8,1,0.75,Stimuli\ImageFiles-Set1\Objects\Object_ComputerMouse_00001.png,0,0,0,174,174,174,,,,,,,,,,,,,110.01382840000042,0.013828400000420515,None,186.76422970000021,186.76422970000021,186.76422970000021,186.76422970000021,186.76422970000021,186.76422970000021,186.76422970000021,186.76422970000021,,001,P014,2025_Feb_28_1617,CategoryLocalizer,2021.2.3,59.950456942447865,
110.8,111.0,5,0.0,Stimuli\Blank.png,0,0,0,175,175,175,,,,,,,,,,,,,110.81498040000042,0.01498040000042522,None,187.55853340000067,187.55853340000067,187.55853340000067,187.55853340000067,187.55853340000067,187.55853340000067,187.55853340000067,187.55853340000067,,001,P014,2025_Feb_28_1617,CategoryLocalizer,2021.2.3,59.950456942447865,
111.0,111.8,1,0.75,Stimuli\ImageFiles-Set1\Objects\Object_Nightstand_00001.png,0,0,0,176,176,176,,,,,,,,,,,,,111.01553169999897,0.015531699998973636,None,187.77029109999967,187.77029109999967,187.77029109999967,187.77029109999967,187.77029109999967,187.77029109999967,187.77029109999967,187.77029109999967,,001,P014,2025_Feb_28_1617,CategoryLocalizer,2021.2.3,59.950456942447865,
111.8,112.0,5,0.0,Stimuli\Blank.png,0,0,0,177,177,177,,,,,,,,,,,,,111.81548420000036,0.015484200000358328,None,188.55977709999934,188.55977709999934,188.55977709999934,188.55977709999934,188.55977709999934,188.55977709999934,188.55977709999934,188.55977709999934,,001,P014,2025_Feb_28_1617,CategoryLocalizer,2021.2.3,59.950456942447865,
112.0,112.8,1,0.75,Stimuli\ImageFiles-Set1\Objects\Object_Key_00001.png,0,0,0,178,178,178,,,,,,,,,,,,,112.01538049999908,0.01538049999908253,None,188.76557610000054,188.76557610000054,188.76557610000054,188.76557610000054,188.76557610000054,188.76557610000054,188.76557610000054,188.76557610000054,,001,P014,2025_Feb_28_1617,CategoryLocalizer,2021.2.3,59.950456942447865,
112.8,113.0,5,0.0,Stimuli\Blank.png,0,0,0,179,179,179,,,,,,,,,,,,,112.81669340000008,0.01669340000007935,None,189.56055500000002,189.56055500000002,189.56055500000002,189.56055500000002,189.56055500000002,189.56055500000002,189.56055500000002,189.56055500000002,,001,P014,2025_Feb_28_1617,CategoryLocalizer,2021.2.3,59.950456942447865,
113.0,113.8,1,0.75,Stimuli\ImageFiles-Set1\Objects\Object_Matches_00001.png,0,0,0,180,180,180,,,,,,,,,,,,,113.00072139999975,0.0007213999997475185,None,189.7475274999997,189.7475274999997,189.7475274999997,189.7475274999997,189.7475274999997,189.7475274999997,189.7475274999997,189.7475274999997,,001,P014,2025_Feb_28_1617,CategoryLocalizer,2021.2.3,59.950456942447865,
113.8,114.0,5,0.0,Stimuli\Blank.png,0,0,0,181,181,181,,,,,,,,,,,,,113.81788219999908,0.017882199999078807,None,190.56151350000073,190.56151350000073,190.56151350000073,190.56151350000073,190.56151350000073,190.56151350000073,190.56151350000073,190.56151350000073,,001,P014,2025_Feb_28_1617,CategoryLocalizer,2021.2.3,59.950456942447865,
114.0,114.8,1,0.75,Stimuli\ImageFiles-Set1\Objects\Object_FileFolder_00001.png,0,0,0,182,182,182,,,,,,,,,,,,,114.00078810000014,0.0007881000001361826,None,190.74555949999922,190.74555949999922,190.74555949999922,190.74555949999922,190.74555949999922,190.74555949999922,190.74555949999922,190.74555949999922,,001,P014,2025_Feb_28_1617,CategoryLocalizer,2021.2.3,59.950456942447865,
114.8,115.0,5,0.0,Stimuli\Blank.png,0,0,0,183,183,183,,,,,,,,,,,,,114.80169810000007,0.0016981000000697577,None,191.54572499999995,191.54572499999995,191.54572499999995,191.54572499999995,191.54572499999995,191.54572499999995,191.54572499999995,191.54572499999995,,001,P014,2025_Feb_28_1617,CategoryLocalizer,2021.2.3,59.950456942447865,
115.0,115.8,1,0.75,Stimuli\ImageFiles-Set1\Objects\Object_Pencil_00001.png,0,0,0,184,184,184,,,,,,,,,,,,,115.00245510000059,0.0024551000005885726,None,191.74688419999984,191.74688419999984,191.74688419999984,191.74688419999984,191.74688419999984,191.74688419999984,191.74688419999984,191.74688419999984,,001,P014,2025_Feb_28_1617,CategoryLocalizer,2021.2.3,59.950456942447865,
115.8,116.0,5,0.0,Stimuli\Blank.png,0,0,0,185,185,185,,,,,,,,,,,,,115.80274300000019,0.002743000000194229,None,192.54657600000064,192.54657600000064,192.54657600000064,192.54657600000064,192.54657600000064,192.54657600000064,192.54657600000064,192.54657600000064,,001,P014,2025_Feb_28_1617,CategoryLocalizer,2021.2.3,59.950456942447865,
116.0,116.8,1,0.75,Stimuli\ImageFiles-Set1\Objects\Object_PepperShaker_00001.png,0,0,0,186,186,186,,,,,,,,,,,,,116.00285970000004,0.0028597000000445405,None,192.75490940000054,192.75490940000054,192.75490940000054,192.75490940000054,192.75490940000054,192.75490940000054,192.75490940000054,192.75490940000054,,001,P014,2025_Feb_28_1617,CategoryLocalizer,2021.2.3,59.950456942447865,
116.8,117.0,5,0.0,Stimuli\Blank.png,0,0,0,187,187,187,,,,,,,,,,,,,116.82039330000043,0.020393300000435488,None,193.56423390000054,193.56423390000054,193.56423390000054,193.56423390000054,193.56423390000054,193.56423390000054,193.56423390000054,193.56423390000054,,001,P014,2025_Feb_28_1617,CategoryLocalizer,2021.2.3,59.950456942447865,
117.0,117.8,1,0.75,Stimuli\ImageFiles-Set1\Objects\Object_GarbageCan_00001.png,0,0,0,188,188,188,,,,,,,,,,,,,117.0041784999994,0.0041784999993979,None,193.75825350000014,193.75825350000014,193.75825350000014,193.75825350000014,193.75825350000014,193.75825350000014,193.75825350000014,193.75825350000014,,001,P014,2025_Feb_28_1617,CategoryLocalizer,2021.2.3,59.950456942447865,
117.8,118.0,5,0.0,Stimuli\Blank.png,0,0,0,189,189,189,,,,,,,,,,,,,117.82047059999968,0.02047059999968326,None,194.56464899999992,194.56464899999992,194.56464899999992,194.56464899999992,194.56464899999992,194.56464899999992,194.56464899999992,194.56464899999992,,001,P014,2025_Feb_28_1617,CategoryLocalizer,2021.2.3,59.950456942447865,
118.0,118.8,1,0.75,Stimuli\ImageFiles-Set1\Objects\Object_Table_00001.png,0,0,0,190,190,190,,,,,,,,,,,,,118.0043712000006,0.004371200000605313,None,194.75488360000054,194.75488360000054,194.75488360000054,194.75488360000054,194.75488360000054,194.75488360000054,194.75488360000054,194.75488360000054,,001,P014,2025_Feb_28_1617,CategoryLocalizer,2021.2.3,59.950456942447865,
118.8,119.0,5,0.0,Stimuli\Blank.png,0,0,0,191,191,191,,,,,,,,,,,,,118.82225239999934,0.022252399999345585,None,195.58247309999933,195.58247309999933,195.58247309999933,195.58247309999933,195.58247309999933,195.58247309999933,195.58247309999933,195.58247309999933,,001,P014,2025_Feb_28_1617,CategoryLocalizer,2021.2.3,59.950456942447865,
119.0,119.8,1,0.75,Stimuli\ImageFiles-Set1\Objects\Object_Book_00001.png,0,0,0,192,192,192,,,,,,,,,,,,,119.02294470000015,0.022944700000152807,None,195.77065679999941,195.77065679999941,195.77065679999941,195.77065679999941,195.77065679999941,195.77065679999941,195.77065679999941,195.77065679999941,,001,P014,2025_Feb_28_1617,CategoryLocalizer,2021.2.3,59.950456942447865,
119.8,120.0,5,0.0,Stimuli\Blank.png,0,0,0,193,193,193,,,,,,,,,,,,,119.80554889999985,0.005548899999851642,None,196.55007099999966,196.55007099999966,196.55007099999966,196.55007099999966,196.55007099999966,196.55007099999966,196.55007099999966,196.55007099999966,,001,P014,2025_Feb_28_1617,CategoryLocalizer,2021.2.3,59.950456942447865,
120.0,120.8,4,0.75,Stimuli\ImageFiles-Set1\Scenes\Scenes_009.png,0,0,0,194,194,194,,,,,,,,,,,,,120.00550629999998,0.005506299999979092,None,196.7552083999999,196.7552083999999,196.7552083999999,196.7552083999999,196.7552083999999,196.7552083999999,196.7552083999999,196.7552083999999,,001,P014,2025_Feb_28_1617,CategoryLocalizer,2021.2.3,59.950456942447865,
120.8,121.0,5,0.0,Stimuli\Blank.png,0,0,0,195,195,195,,,,,,,,,,,,,120.80834479999976,0.008344799999761676,None,197.5516506999993,197.5516506999993,197.5516506999993,197.5516506999993,197.5516506999993,197.5516506999993,197.5516506999993,197.5516506999993,,001,P014,2025_Feb_28_1617,CategoryLocalizer,2021.2.3,59.950456942447865,
121.0,121.8,4,0.75,Stimuli\ImageFiles-Set1\Scenes\Scenes_036.png,0,0,0,196,196,196,,,,,,,,,,,,,121.00786100000005,0.00786100000004808,None,197.76261069999964,197.76261069999964,197.76261069999964,197.76261069999964,197.76261069999964,197.76261069999964,197.76261069999964,197.76261069999964,,001,P014,2025_Feb_28_1617,CategoryLocalizer,2021.2.3,59.950456942447865,
121.8,122.0,5,0.0,Stimuli\Blank.png,0,0,0,197,197,197,,,,,,,,,,,,,121.82550009999977,0.02550009999977476,None,198.56832770000074,198.56832770000074,198.56832770000074,198.56832770000074,198.56832770000074,198.56832770000074,198.56832770000074,198.56832770000074,,001,P014,2025_Feb_28_1617,CategoryLocalizer,2021.2.3,59.950456942447865,
122.0,122.8,4,0.75,Stimuli\ImageFiles-Set1\Scenes\Scenes_055.png,0,0,0,198,198,198,,,,,,,,,,,,,122.00960660000055,0.009606600000552135,None,198.76247429999967,198.76247429999967,198.76247429999967,198.76247429999967,198.76247429999967,198.76247429999967,198.76247429999967,198.76247429999967,,001,P014,2025_Feb_28_1617,CategoryLocalizer,2021.2.3,59.950456942447865,
122.8,123.0,5,0.0,Stimuli\Blank.png,0,0,0,199,199,199,,,,,,,,,,,,,122.81007019999925,0.010070199999248075,None,199.55283090000012,199.55283090000012,199.55283090000012,199.55283090000012,199.55283090000012,199.55283090000012,199.55283090000012,199.55283090000012,,001,P014,2025_Feb_28_1617,CategoryLocalizer,2021.2.3,59.950456942447865,
123.0,123.8,4,0.75,Stimuli\ImageFiles-Set1\Scenes\Scenes_039.png,0,0,0,200,200,200,,,,,,,,,,,,,123.00871290000032,0.008712900000318768,None,199.7669779000007,199.7669779000007,199.7669779000007,199.7669779000007,199.7669779000007,199.7669779000007,199.7669779000007,199.7669779000007,,001,P014,2025_Feb_28_1617,CategoryLocalizer,2021.2.3,59.950456942447865,
123.8,124.0,5,0.0,Stimuli\Blank.png,0,0,0,201,201,201,,,,,,,,,,,,,123.82616749999943,0.026167499999431243,None,200.57053129999986,200.57053129999986,200.57053129999986,200.57053129999986,200.57053129999986,200.57053129999986,200.57053129999986,200.57053129999986,,001,P014,2025_Feb_28_1617,CategoryLocalizer,2021.2.3,59.950456942447865,
124.0,124.8,4,0.75,Stimuli\ImageFiles-Set1\Scenes\Scenes_006.png,0,0,0,202,202,202,,,,,,,,,,,,,124.00954029999957,0.009540299999571289,None,200.76437710000027,200.76437710000027,200.76437710000027,200.76437710000027,200.76437710000027,200.76437710000027,200.76437710000027,200.76437710000027,,001,P014,2025_Feb_28_1617,CategoryLocalizer,2021.2.3,59.950456942447865,
124.8,125.0,5,0.0,Stimuli\Blank.png,0,0,0,203,203,203,,,,,,,,,,,,,124.80996149999919,0.009961499999192824,None,201.55473569999958,201.55473569999958,201.55473569999958,201.55473569999958,201.55473569999958,201.55473569999958,201.55473569999958,201.55473569999958,,001,P014,2025_Feb_28_1617,CategoryLocalizer,2021.2.3,59.950456942447865,
125.0,125.8,4,0.75,Stimuli\ImageFiles-Set1\Scenes\Scenes_031.png,0,0,0,204,204,204,,,,,,,,,,,,,125.01078009999947,0.010780099999465165,None,201.76607030000014,201.76607030000014,201.76607030000014,201.76607030000014,201.76607030000014,201.76607030000014,201.76607030000014,201.76607030000014,,001,P014,2025_Feb_28_1617,CategoryLocalizer,2021.2.3,59.950456942447865,
125.8,126.0,5,0.0,Stimuli\Blank.png,0,0,0,205,205,205,,,,,,,,,,,,,125.8113484000005,0.011348400000500192,None,202.5555005999995,202.5555005999995,202.5555005999995,202.5555005999995,202.5555005999995,202.5555005999995,202.5555005999995,202.5555005999995,,001,P014,2025_Feb_28_1617,CategoryLocalizer,2021.2.3,59.950456942447865,
126.0,126.8,4,0.75,Stimuli\ImageFiles-Set1\Scenes\Scenes_007.png,0,0,0,206,206,206,,,,,,,,,,,,,126.01146920000065,0.011469200000647106,None,202.7624577000006,202.7624577000006,202.7624577000006,202.7624577000006,202.7624577000006,202.7624577000006,202.7624577000006,202.7624577000006,,001,P014,2025_Feb_28_1617,CategoryLocalizer,2021.2.3,59.950456942447865,
126.8,127.0,5,0.0,Stimuli\Blank.png,0,0,0,207,207,207,,,,,,,,,,,,,126.81148039999971,0.011480399999712176,None,203.55629249999947,203.55629249999947,203.55629249999947,203.55629249999947,203.55629249999947,203.55629249999947,203.55629249999947,203.55629249999947,,001,P014,2025_Feb_28_1617,CategoryLocalizer,2021.2.3,59.950456942447865,
127.0,127.8,4,0.75,Stimuli\ImageFiles-Set1\Scenes\Scenes_049.png,0,0,0,208,208,208,,,,,,,,,,,,,127.0127782999989,0.012778299998899456,None,203.76890190000086,203.76890190000086,203.76890190000086,203.76890190000086,203.76890190000086,203.76890190000086,203.76890190000086,203.76890190000086,,001,P014,2025_Feb_28_1617,CategoryLocalizer,2021.2.3,59.950456942447865,
127.8,128.0,5,0.0,Stimuli\Blank.png,0,0,0,209,209,209,,,,,,,,,,,,,127.81286619999992,0.012866199999919559,None,204.55695960000048,204.55695960000048,204.55695960000048,204.55695960000048,204.55695960000048,204.55695960000048,204.55695960000048,204.55695960000048,,001,P014,2025_Feb_28_1617,CategoryLocalizer,2021.2.3,59.950456942447865,
128.0,128.8,4,0.75,Stimuli\ImageFiles-Set1\Scenes\Scenes_058.png,0,0,0,210,210,210,,,,,,,,,,,,,128.01347589999932,0.013475899999320973,None,204.76611760000014,204.76611760000014,204.76611760000014,204.76611760000014,204.76611760000014,204.76611760000014,204.76611760000014,204.76611760000014,,001,P014,2025_Feb_28_1617,CategoryLocalizer,2021.2.3,59.950456942447865,
128.8,129.0,5,0.0,Stimuli\Blank.png,0,0,0,211,211,211,,,,,,,,,,,,,128.81391339999936,0.01391339999935326,None,205.55807359999926,205.55807359999926,205.55807359999926,205.55807359999926,205.55807359999926,205.55807359999926,205.55807359999926,205.55807359999926,,001,P014,2025_Feb_28_1617,CategoryLocalizer,2021.2.3,59.950456942447865,
129.0,129.8,4,0.75,Stimuli\ImageFiles-Set1\Scenes\Scenes_058.png,1,1,0,212,212,212,,,,,,,,,,,,,129.01452249999966,0.014522499999657157,1,205.76305879999927,205.76305879999927,205.76305879999927,205.76305879999927,205.76305879999927,205.76305879999927,205.76305879999927,205.76305879999927,0.7029375000001892,001,P014,2025_Feb_28_1617,CategoryLocalizer,2021.2.3,59.950456942447865,
129.8,130.0,5,0.0,Stimuli\Blank.png,0,0,0,213,213,213,,,,,,,,,,,,,129.81403599999976,0.014035999999748583,None,206.5589961000005,206.5589961000005,206.5589961000005,206.5589961000005,206.5589961000005,206.5589961000005,206.5589961000005,206.5589961000005,,001,P014,2025_Feb_28_1617,CategoryLocalizer,2021.2.3,59.950456942447865,
130.0,130.8,4,0.75,Stimuli\ImageFiles-Set1\Scenes\Scenes_060.png,0,0,0,214,214,214,,,,,,,,,,,,,130.0140962000005,0.014096200000494719,None,206.7670567999994,206.7670567999994,206.7670567999994,206.7670567999994,206.7670567999994,206.7670567999994,206.7670567999994,206.7670567999994,,001,P014,2025_Feb_28_1617,CategoryLocalizer,2021.2.3,59.950456942447865,
130.8,131.0,5,0.0,Stimuli\Blank.png,0,0,0,215,215,215,,,,,,,,,,,,,130.81618999999955,0.01618999999953985,None,207.5592773999997,207.5592773999997,207.5592773999997,207.5592773999997,207.5592773999997,207.5592773999997,207.5592773999997,207.5592773999997,,001,P014,2025_Feb_28_1617,CategoryLocalizer,2021.2.3,59.950456942447865,
131.0,131.8,4,0.75,Stimuli\ImageFiles-Set1\Scenes\Scenes_010.png,0,0,0,216,216,216,,,,,,,,,,,,,130.99937899999895,-0.000621000001046923,None,207.75639760000013,207.75639760000013,207.75639760000013,207.75639760000013,207.75639760000013,207.75639760000013,207.75639760000013,207.75639760000013,,001,P014,2025_Feb_28_1617,CategoryLocalizer,2021.2.3,59.950456942447865,
131.8,132.0,5,0.0,Stimuli\Blank.png,0,0,0,217,217,217,,,,,,,,,,,,,131.81739430000016,0.017394300000148633,None,208.56055129999913,208.56055129999913,208.56055129999913,208.56055129999913,208.56055129999913,208.56055129999913,208.56055129999913,208.56055129999913,,001,P014,2025_Feb_28_1617,CategoryLocalizer,2021.2.3,59.950456942447865,
132.0,132.8,4,0.75,Stimuli\ImageFiles-Set1\Scenes\Scenes_002.png,0,0,0,218,218,218,,,,,,,,,,,,,132.00003970000034,3.97000003431458e-05,None,208.75474190000023,208.75474190000023,208.75474190000023,208.75474190000023,208.75474190000023,208.75474190000023,208.75474190000023,208.75474190000023,,001,P014,2025_Feb_28_1617,CategoryLocalizer,2021.2.3,59.950456942447865,
132.8,133.0,5,0.0,Stimuli\Blank.png,0,0,0,219,219,219,,,,,,,,,,,,,132.81746550000025,0.017465500000241718,None,209.56175079999957,209.56175079999957,209.56175079999957,209.56175079999957,209.56175079999957,209.56175079999957,209.56175079999957,209.56175079999957,,001,P014,2025_Feb_28_1617,CategoryLocalizer,2021.2.3,59.950456942447865,
133.0,133.8,4,0.75,Stimuli\ImageFiles-Set1\Scenes\Scenes_028.png,0,0,0,220,220,220,,,,,,,,,,,,,133.00115189999997,0.001151899999968009,None,209.76090590000058,209.76090590000058,209.76090590000058,209.76090590000058,209.76090590000058,209.76090590000058,209.76090590000058,209.76090590000058,,001,P014,2025_Feb_28_1617,CategoryLocalizer,2021.2.3,59.950456942447865,
133.8,134.0,5,0.0,Stimuli\Blank.png,0,0,0,221,221,221,,,,,,,,,,,,,133.8188224000005,0.01882240000048796,None,210.56253619999916,210.56253619999916,210.56253619999916,210.56253619999916,210.56253619999916,210.56253619999916,210.56253619999916,210.56253619999916,,001,P014,2025_Feb_28_1617,CategoryLocalizer,2021.2.3,59.950456942447865,
134.0,134.8,4,0.75,Stimuli\ImageFiles-Set1\Scenes\Scenes_011.png,0,0,0,222,222,222,,,,,,,,,,,,,134.00160119999964,0.0016011999996408122,None,210.7469447000003,210.7469447000003,210.7469447000003,210.7469447000003,210.7469447000003,210.7469447000003,210.7469447000003,210.7469447000003,,001,P014,2025_Feb_28_1617,CategoryLocalizer,2021.2.3,59.950456942447865,
134.8,135.0,5,0.0,Stimuli\Blank.png,0,0,0,223,223,223,,,,,,,,,,,,,134.8021045000005,0.002104500000484677,None,211.5469334999998,211.5469334999998,211.5469334999998,211.5469334999998,211.5469334999998,211.5469334999998,211.5469334999998,211.5469334999998,,001,P014,2025_Feb_28_1617,CategoryLocalizer,2021.2.3,59.950456942447865,
135.0,135.8,4,0.75,Stimuli\ImageFiles-Set1\Scenes\Scenes_024.png,0,0,0,224,224,224,,,,,,,,,,,,,135.00318619999962,0.003186199999618111,None,211.75971670000035,211.75971670000035,211.75971670000035,211.75971670000035,211.75971670000035,211.75971670000035,211.75971670000035,211.75971670000035,,001,P014,2025_Feb_28_1617,CategoryLocalizer,2021.2.3,59.950456942447865,
135.8,136.0,5,0.0,Stimuli\Blank.png,0,0,0,225,225,225,,,,,,,,,,,,,135.82012779999968,0.020127799999670515,None,212.56433990000005,212.56433990000005,212.56433990000005,212.56433990000005,212.56433990000005,212.56433990000005,212.56433990000005,212.56433990000005,,001,P014,2025_Feb_28_1617,CategoryLocalizer,2021.2.3,59.950456942447865,
136.0,136.8,2,0.75,Stimuli\ImageFiles-Set1\Bodies\Bodies_DownwardDog_00001.png,0,0,0,226,226,226,,,,,,,,,,,,,136.00408629999947,0.004086299999471521,None,212.74837950000074,212.74837950000074,212.74837950000074,212.74837950000074,212.74837950000074,212.74837950000074,212.74837950000074,212.74837950000074,,001,P014,2025_Feb_28_1617,CategoryLocalizer,2021.2.3,59.950456942447865,
136.8,137.0,5,0.0,Stimuli\Blank.png,0,0,0,227,227,227,,,,,,,,,,,,,136.80489409999973,0.0048940999997171275,None,213.5488091999996,213.5488091999996,213.5488091999996,213.5488091999996,213.5488091999996,213.5488091999996,213.5488091999996,213.5488091999996,,001,P014,2025_Feb_28_1617,CategoryLocalizer,2021.2.3,59.950456942447865,
137.0,137.8,2,0.75,Stimuli\ImageFiles-Set1\Bodies\Bodies_Crawling_00003.png,0,0,0,228,228,228,,,,,,,,,,,,,137.00454379999974,0.00454379999973753,None,213.74856250000084,213.74856250000084,213.74856250000084,213.74856250000084,213.74856250000084,213.74856250000084,213.74856250000084,213.74856250000084,,001,P014,2025_Feb_28_1617,CategoryLocalizer,2021.2.3,59.950456942447865,
137.8,138.0,5,0.0,Stimuli\Blank.png,0,0,0,229,229,229,,,,,,,,,,,,,137.80996349999987,0.009963499999855685,None,214.5502835999996,214.5502835999996,214.5502835999996,214.5502835999996,214.5502835999996,214.5502835999996,214.5502835999996,214.5502835999996,,001,P014,2025_Feb_28_1617,CategoryLocalizer,2021.2.3,59.950456942447865,
138.0,138.8,2,0.75,Stimuli\ImageFiles-Set1\Bodies\Bodies_Waving_00003.png,0,0,0,230,230,230,,,,,,,,,,,,,138.0053294999998,0.005329499999788823,None,214.75796590000027,214.75796590000027,214.75796590000027,214.75796590000027,214.75796590000027,214.75796590000027,214.75796590000027,214.75796590000027,,001,P014,2025_Feb_28_1617,CategoryLocalizer,2021.2.3,59.950456942447865,
138.8,139.0,5,0.0,Stimuli\Blank.png,0,0,0,231,231,231,,,,,,,,,,,,,138.82507540000006,0.025075400000048376,None,215.56756630000018,215.56756630000018,215.56756630000018,215.56756630000018,215.56756630000018,215.56756630000018,215.56756630000018,215.56756630000018,,001,P014,2025_Feb_28_1617,CategoryLocalizer,2021.2.3,59.950456942447865,
139.0,139.8,2,0.75,Stimuli\ImageFiles-Set1\Bodies\Bodies_Kneeling_00007.png,0,0,0,232,232,232,,,,,,,,,,,,,139.00590929999998,0.005909299999984796,None,215.75116189999972,215.75116189999972,215.75116189999972,215.75116189999972,215.75116189999972,215.75116189999972,215.75116189999972,215.75116189999972,,001,P014,2025_Feb_28_1617,CategoryLocalizer,2021.2.3,59.950456942447865,
139.8,140.0,5,0.0,Stimuli\Blank.png,0,0,0,233,233,233,,,,,,,,,,,,,139.80814999999893,0.00814999999892052,None,216.55089190000035,216.55089190000035,216.55089190000035,216.55089190000035,216.55089190000035,216.55089190000035,216.55089190000035,216.55089190000035,,001,P014,2025_Feb_28_1617,CategoryLocalizer,2021.2.3,59.950456942447865,
140.0,140.8,2,0.75,Stimuli\ImageFiles-Set1\Bodies\Bodies_Crawling_00001.png,0,0,0,234,234,234,,,,,,,,,,,,,140.0069294999994,0.00692949999938719,None,216.7554215,216.7554215,216.7554215,216.7554215,216.7554215,216.7554215,216.7554215,216.7554215,,001,P014,2025_Feb_28_1617,CategoryLocalizer,2021.2.3,59.950456942447865,
140.8,141.0,5,0.0,Stimuli\Blank.png,0,0,0,235,235,235,,,,,,,,,,,,,140.80837979999887,0.008379799998863291,None,217.5528962999997,217.5528962999997,217.5528962999997,217.5528962999997,217.5528962999997,217.5528962999997,217.5528962999997,217.5528962999997,,001,P014,2025_Feb_28_1617,CategoryLocalizer,2021.2.3,59.950456942447865,
141.0,141.8,2,0.75,Stimuli\ImageFiles-Set1\Bodies\Bodies_PushUp_00002.png,0,0,0,236,236,236,,,,,,,,,,,,,141.00930870000047,0.009308700000474346,None,217.7605996000002,217.7605996000002,217.7605996000002,217.7605996000002,217.7605996000002,217.7605996000002,217.7605996000002,217.7605996000002,,001,P014,2025_Feb_28_1617,CategoryLocalizer,2021.2.3,59.950456942447865,
141.8,142.0,5,0.0,Stimuli\Blank.png,0,0,0,237,237,237,,,,,,,,,,,,,141.80998199999885,0.009981999998842639,None,218.5530921999998,218.5530921999998,218.5530921999998,218.5530921999998,218.5530921999998,218.5530921999998,218.5530921999998,218.5530921999998,,001,P014,2025_Feb_28_1617,CategoryLocalizer,2021.2.3,59.950456942447865,
142.0,142.8,2,0.75,Stimuli\ImageFiles-Set1\Bodies\Bodies_SittingFloor_00005.png,0,0,0,238,238,238,,,,,,,,,,,,,142.00829329999942,0.008293299999422743,None,218.76141029999962,218.76141029999962,218.76141029999962,218.76141029999962,218.76141029999962,218.76141029999962,218.76141029999962,218.76141029999962,,001,P014,2025_Feb_28_1617,CategoryLocalizer,2021.2.3,59.950456942447865,
142.8,143.0,5,0.0,Stimuli\Blank.png,0,0,0,239,239,239,,,,,,,,,,,,,142.80986089999897,0.00986089999895512,None,219.55365469999924,219.55365469999924,219.55365469999924,219.55365469999924,219.55365469999924,219.55365469999924,219.55365469999924,219.55365469999924,,001,P014,2025_Feb_28_1617,CategoryLocalizer,2021.2.3,59.950456942447865,
143.0,143.8,2,0.75,Stimuli\ImageFiles-Set1\Bodies\Bodies_Standing_00003.png,0,0,0,240,240,240,,,,,,,,,,,,,143.00956190000034,0.0095619000003353,None,219.75420359999953,219.75420359999953,219.75420359999953,219.75420359999953,219.75420359999953,219.75420359999953,219.75420359999953,219.75420359999953,,001,P014,2025_Feb_28_1617,CategoryLocalizer,2021.2.3,59.950456942447865,
143.8,144.0,5,0.0,Stimuli\Blank.png,0,0,0,241,241,241,,,,,,,,,,,,,143.81108610000047,0.011086100000454735,None,220.55430589999924,220.55430589999924,220.55430589999924,220.55430589999924,220.55430589999924,220.55430589999924,220.55430589999924,220.55430589999924,,001,P014,2025_Feb_28_1617,CategoryLocalizer,2021.2.3,59.950456942447865,
144.0,144.8,2,0.75,Stimuli\ImageFiles-Set1\Bodies\Bodies_SittingChair_00005.png,0,0,0,242,242,242,,,,,,,,,,,,,144.0104226000003,0.010422600000310922,None,220.7609582999994,220.7609582999994,220.7609582999994,220.7609582999994,220.7609582999994,220.7609582999994,220.7609582999994,220.7609582999994,,001,P014,2025_Feb_28_1617,CategoryLocalizer,2021.2.3,59.950456942447865,
144.8,145.0,5,0.0,Stimuli\Blank.png,0,0,0,243,243,243,,,,,,,,,,,,,144.81202080000003,0.012020800000016152,None,221.55562629999986,221.55562629999986,221.55562629999986,221.55562629999986,221.55562629999986,221.55562629999986,221.55562629999986,221.55562629999986,,001,P014,2025_Feb_28_1617,CategoryLocalizer,2021.2.3,59.950456942447865,
145.0,145.8,2,0.75,Stimuli\ImageFiles-Set1\Bodies\Bodies_DownwardDog_00003.png,0,0,0,244,244,244,,,,,,,,,,,,,145.01234479999948,0.012344799999482348,None,221.7659177000005,221.7659177000005,221.7659177000005,221.7659177000005,221.7659177000005,221.7659177000005,221.7659177000005,221.7659177000005,,001,P014,2025_Feb_28_1617,CategoryLocalizer,2021.2.3,59.950456942447865,
145.8,146.0,5,0.0,Stimuli\Blank.png,0,0,0,245,245,245,,,,,,,,,,,,,145.8117817000002,0.01178170000019918,None,222.5562174000006,222.5562174000006,222.5562174000006,222.5562174000006,222.5562174000006,222.5562174000006,222.5562174000006,222.5562174000006,,001,P014,2025_Feb_28_1617,CategoryLocalizer,2021.2.3,59.950456942447865,
146.0,146.8,2,0.75,Stimuli\ImageFiles-Set1\Bodies\Bodies_DownwardDog_00003.png,1,1,0,246,246,246,,,,,,,,,,,,,146.01286339999933,0.012863399999332614,1,222.75663180000083,222.75663180000083,222.75663180000083,222.75663180000083,222.75663180000083,222.75663180000083,222.75663180000083,222.75663180000083,0.5023404999992636,001,P014,2025_Feb_28_1617,CategoryLocalizer,2021.2.3,59.950456942447865,
146.8,147.0,5,0.0,Stimuli\Blank.png,0,0,0,247,247,247,,,,,,,,,,,,,146.81376210000053,0.013762100000519695,None,223.55747039999915,223.55747039999915,223.55747039999915,223.55747039999915,223.55747039999915,223.55747039999915,223.55747039999915,223.55747039999915,,001,P014,2025_Feb_28_1617,CategoryLocalizer,2021.2.3,59.950456942447865,
147.0,147.8,2,0.75,Stimuli\ImageFiles-Set1\Bodies\Bodies_Walking_00002.png,0,0,0,248,248,248,,,,,,,,,,,,,147.01410000000033,0.014100000000325963,None,223.76849690000017,223.76849690000017,223.76849690000017,223.76849690000017,223.76849690000017,223.76849690000017,223.76849690000017,223.76849690000017,,001,P014,2025_Feb_28_1617,CategoryLocalizer,2021.2.3,59.950456942447865,
147.8,148.0,5,0.0,Stimuli\Blank.png,0,0,0,249,249,249,,,,,,,,,,,,,147.81433319999996,0.014333199999953194,None,224.5580599999994,224.5580599999994,224.5580599999994,224.5580599999994,224.5580599999994,224.5580599999994,224.5580599999994,224.5580599999994,,001,P014,2025_Feb_28_1617,CategoryLocalizer,2021.2.3,59.950456942447865,
148.0,148.8,2,0.75,Stimuli\ImageFiles-Set1\Bodies\Bodies_SittingStretch_00005.png,0,0,0,250,250,250,,,,,,,,,,,,,148.01590749999923,0.015907499999229913,None,224.77519229999962,224.77519229999962,224.77519229999962,224.77519229999962,224.77519229999962,224.77519229999962,224.77519229999962,224.77519229999962,,001,P014,2025_Feb_28_1617,CategoryLocalizer,2021.2.3,59.950456942447865,
148.8,149.0,5,0.0,Stimuli\Blank.png,0,0,0,251,251,251,,,,,,,,,,,,,148.8153782999998,0.015378299999781575,None,225.55924640000012,225.55924640000012,225.55924640000012,225.55924640000012,225.55924640000012,225.55924640000012,225.55924640000012,225.55924640000012,,001,P014,2025_Feb_28_1617,CategoryLocalizer,2021.2.3,59.950456942447865,
149.0,149.8,2,0.75,Stimuli\ImageFiles-Set1\Bodies\Bodies_Kneeling_00005.png,0,0,0,252,252,252,,,,,,,,,,,,,149.01524169999902,0.015241699999023695,None,225.76894270000048,225.76894270000048,225.76894270000048,225.76894270000048,225.76894270000048,225.76894270000048,225.76894270000048,225.76894270000048,,001,P014,2025_Feb_28_1617,CategoryLocalizer,2021.2.3,59.950456942447865,
149.8,150.0,5,0.0,Stimuli\Blank.png,0,0,0,253,253,253,,,,,,,,,,,,,149.81603329999962,0.016033299999605788,None,226.56004009999924,226.56004009999924,226.56004009999924,226.56004009999924,226.56004009999924,226.56004009999924,226.56004009999924,226.56004009999924,,001,P014,2025_Feb_28_1617,CategoryLocalizer,2021.2.3,59.950456942447865,
150.0,150.8,2,0.75,Stimuli\ImageFiles-Set1\Bodies\Bodies_Jumping_00006.png,0,0,0,254,254,254,,,,,,,,,,,,,149.9997330999995,-0.0002669000004971167,None,226.7546485999992,226.7546485999992,226.7546485999992,226.7546485999992,226.7546485999992,226.7546485999992,226.7546485999992,226.7546485999992,,001,P014,2025_Feb_28_1617,CategoryLocalizer,2021.2.3,59.950456942447865,
150.8,151.0,5,0.0,Stimuli\Blank.png,0,0,0,255,255,255,,,,,,,,,,,,,150.81782679999924,0.017826799999227205,None,227.5623472999996,227.5623472999996,227.5623472999996,227.5623472999996,227.5623472999996,227.5623472999996,227.5623472999996,227.5623472999996,,001,P014,2025_Feb_28_1617,CategoryLocalizer,2021.2.3,59.950456942447865,
151.0,151.8,2,0.75,Stimuli\ImageFiles-Set1\Bodies\Bodies_QuadStretch_00001.png,0,0,0,256,256,256,,,,,,,,,,,,,151.00068259999898,0.0006825999989814591,None,227.74864180000077,227.74864180000077,227.74864180000077,227.74864180000077,227.74864180000077,227.74864180000077,227.74864180000077,227.74864180000077,,001,P014,2025_Feb_28_1617,CategoryLocalizer,2021.2.3,59.950456942447865,
151.8,152.0,5,0.0,Stimuli\Blank.png,0,0,0,257,257,257,,,,,,,,,,,,,151.81787880000047,0.01787880000046016,None,228.56156379999993,228.56156379999993,228.56156379999993,228.56156379999993,228.56156379999993,228.56156379999993,228.56156379999993,228.56156379999993,,001,P014,2025_Feb_28_1617,CategoryLocalizer,2021.2.3,59.950456942447865,
152.0,164.0,0,0.0,Stimuli\Blank.png,0,0,0,258,258,258,,,,,,,,,,,,,152.00064139999995,0.000641399999949499,None,228.74513649999972,228.74513649999972,228.74513649999972,228.74513649999972,228.74513649999972,228.74513649999972,228.74513649999972,228.74513649999972,,001,P014,2025_Feb_28_1617,CategoryLocalizer,2021.2.3,59.950456942447865,
164.0,164.8,4,0.75,Stimuli\ImageFiles-Set1\Scenes\Scenes_012.png,0,0,0,259,259,259,,,,,,,,,,,,,164.0117726999997,0.011772699999710312,None,240.77267399999982,240.77267399999982,240.77267399999982,240.77267399999982,240.77267399999982,240.77267399999982,240.77267399999982,240.77267399999982,,001,P014,2025_Feb_28_1617,CategoryLocalizer,2021.2.3,59.950456942447865,
164.8,165.0,5,0.0,Stimuli\Blank.png,0,0,0,260,260,260,,,,,,,,,,,,,164.8293307999993,0.029330799999286228,None,241.5733982999991,241.5733982999991,241.5733982999991,241.5733982999991,241.5733982999991,241.5733982999991,241.5733982999991,241.5733982999991,,001,P014,2025_Feb_28_1617,CategoryLocalizer,2021.2.3,59.950456942447865,
165.0,165.8,4,0.75,Stimuli\ImageFiles-Set1\Scenes\Scenes_013.png,0,0,0,261,261,261,,,,,,,,,,,,,165.01290460000018,0.012904600000183564,None,241.76981410000008,241.76981410000008,241.76981410000008,241.76981410000008,241.76981410000008,241.76981410000008,241.76981410000008,241.76981410000008,,001,P014,2025_Feb_28_1617,CategoryLocalizer,2021.2.3,59.950456942447865,
165.8,166.0,5,0.0,Stimuli\Blank.png,0,0,0,262,262,262,,,,,,,,,,,,,165.81283189999886,0.01283189999884371,None,242.5571756999998,242.5571756999998,242.5571756999998,242.5571756999998,242.5571756999998,242.5571756999998,242.5571756999998,242.5571756999998,,001,P014,2025_Feb_28_1617,CategoryLocalizer,2021.2.3,59.950456942447865,
166.0,166.8,4,0.75,Stimuli\ImageFiles-Set1\Scenes\Scenes_043.png,0,0,0,263,263,263,,,,,,,,,,,,,166.01418229999945,0.014182299999447423,None,242.76331000000027,242.76331000000027,242.76331000000027,242.76331000000027,242.76331000000027,242.76331000000027,242.76331000000027,242.76331000000027,,001,P014,2025_Feb_28_1617,CategoryLocalizer,2021.2.3,59.950456942447865,
166.8,167.0,5,0.0,Stimuli\Blank.png,0,0,0,264,264,264,,,,,,,,,,,,,166.81395890000022,0.013958900000204721,None,243.5580848999998,243.5580848999998,243.5580848999998,243.5580848999998,243.5580848999998,243.5580848999998,243.5580848999998,243.5580848999998,,001,P014,2025_Feb_28_1617,CategoryLocalizer,2021.2.3,59.950456942447865,
167.0,167.8,4,0.75,Stimuli\ImageFiles-Set1\Scenes\Scenes_003.png,0,0,0,265,265,265,,,,,,,,,,,,,167.01437429999896,0.01437429999896267,None,243.7704950999996,243.7704950999996,243.7704950999996,243.7704950999996,243.7704950999996,243.7704950999996,243.7704950999996,243.7704950999996,,001,P014,2025_Feb_28_1617,CategoryLocalizer,2021.2.3,59.950456942447865,
167.8,168.0,5,0.0,Stimuli\Blank.png,0,0,0,266,266,266,,,,,,,,,,,,,167.81531679999898,0.01531679999897051,None,244.55914210000083,244.55914210000083,244.55914210000083,244.55914210000083,244.55914210000083,244.55914210000083,244.55914210000083,244.55914210000083,,001,P014,2025_Feb_28_1617,CategoryLocalizer,2021.2.3,59.950456942447865,
168.0,168.8,4,0.75,Stimuli\ImageFiles-Set1\Scenes\Scenes_033.png,0,0,0,267,267,267,,,,,,,,,,,,,168.01525439999932,0.015254399999321322,None,244.76200299999982,244.76200299999982,244.76200299999982,244.76200299999982,244.76200299999982,244.76200299999982,244.76200299999982,244.76200299999982,,001,P014,2025_Feb_28_1617,CategoryLocalizer,2021.2.3,59.950456942447865,
168.8,169.0,5,0.0,Stimuli\Blank.png,0,0,0,268,268,268,,,,,,,,,,,,,168.81596340000033,0.015963400000316597,None,245.56020519999947,245.56020519999947,245.56020519999947,245.56020519999947,245.56020519999947,245.56020519999947,245.56020519999947,245.56020519999947,,001,P014,2025_Feb_28_1617,CategoryLocalizer,2021.2.3,59.950456942447865,
169.0,169.8,4,0.75,Stimuli\ImageFiles-Set1\Scenes\Scenes_018.png,0,0,0,269,269,269,,,,,,,,,,,,,169.0163207000005,0.016320700000505894,None,245.7714844000002,245.7714844000002,245.7714844000002,245.7714844000002,245.7714844000002,245.7714844000002,245.7714844000002,245.7714844000002,,001,P014,2025_Feb_28_1617,CategoryLocalizer,2021.2.3,59.950456942447865,
169.8,170.0,5,0.0,Stimuli\Blank.png,0,0,0,270,270,270,,,,,,,,,,,,,169.8171571999992,0.017157199999189743,None,246.56110500000068,246.56110500000068,246.56110500000068,246.56110500000068,246.56110500000068,246.56110500000068,246.56110500000068,246.56110500000068,,001,P014,2025_Feb_28_1617,CategoryLocalizer,2021.2.3,59.950456942447865,
170.0,170.8,4,0.75,Stimuli\ImageFiles-Set1\Scenes\Scenes_018.png,1,1,0,271,271,271,,,,,,,,,,,,,170.00012699999934,0.0001269999993382953,1,246.74668179999935,246.74668179999935,246.74668179999935,246.74668179999935,246.74668179999935,246.74668179999935,246.74668179999935,246.74668179999935,0.47005710000121326,001,P014,2025_Feb_28_1617,CategoryLocalizer,2021.2.3,59.950456942447865,
170.8,171.0,5,0.0,Stimuli\Blank.png,0,0,0,272,272,272,,,,,,,,,,,,,170.81789240000035,0.017892400000334874,None,247.5615969999999,247.5615969999999,247.5615969999999,247.5615969999999,247.5615969999999,247.5615969999999,247.5615969999999,247.5615969999999,,001,P014,2025_Feb_28_1617,CategoryLocalizer,2021.2.3,59.950456942447865,
171.0,171.8,4,0.75,Stimuli\ImageFiles-Set1\Scenes\Scenes_046.png,0,0,0,273,273,273,,,,,,,,,,,,,171.00161200000002,0.0016120000000228174,None,247.75857089999954,247.75857089999954,247.75857089999954,247.75857089999954,247.75857089999954,247.75857089999954,247.75857089999954,247.75857089999954,,001,P014,2025_Feb_28_1617,CategoryLocalizer,2021.2.3,59.950456942447865,
171.8,172.0,5,0.0,Stimuli\Blank.png,0,0,0,274,274,274,,,,,,,,,,,,,171.81880640000054,0.018806400000528356,None,248.56283190000067,248.56283190000067,248.56283190000067,248.56283190000067,248.56283190000067,248.56283190000067,248.56283190000067,248.56283190000067,,001,P014,2025_Feb_28_1617,CategoryLocalizer,2021.2.3,59.950456942447865,
172.0,172.8,4,0.75,Stimuli\ImageFiles-Set1\Scenes\Scenes_037.png,0,0,0,275,275,275,,,,,,,,,,,,,172.00257359999887,0.0025735999988683034,None,248.76387520000026,248.76387520000026,248.76387520000026,248.76387520000026,248.76387520000026,248.76387520000026,248.76387520000026,248.76387520000026,,001,P014,2025_Feb_28_1617,CategoryLocalizer,2021.2.3,59.950456942447865,
172.8,173.0,5,0.0,Stimuli\Blank.png,0,0,0,276,276,276,,,,,,,,,,,,,172.81908759999897,0.019087599998954374,None,249.5637588999998,249.5637588999998,249.5637588999998,249.5637588999998,249.5637588999998,249.5637588999998,249.5637588999998,249.5637588999998,,001,P014,2025_Feb_28_1617,CategoryLocalizer,2021.2.3,59.950456942447865,
173.0,173.8,4,0.75,Stimuli\ImageFiles-Set1\Scenes\Scenes_042.png,0,0,0,277,277,277,,,,,,,,,,,,,173.00302779999947,0.003027799999472336,None,249.7610767999995,249.7610767999995,249.7610767999995,249.7610767999995,249.7610767999995,249.7610767999995,249.7610767999995,249.7610767999995,,001,P014,2025_Feb_28_1617,CategoryLocalizer,2021.2.3,59.950456942447865,
173.8,174.0,5,0.0,Stimuli\Blank.png,0,0,0,278,278,278,,,,,,,,,,,,,173.82020120000016,0.02020120000014458,None,250.5645538000008,250.5645538000008,250.5645538000008,250.5645538000008,250.5645538000008,250.5645538000008,250.5645538000008,250.5645538000008,,001,P014,2025_Feb_28_1617,CategoryLocalizer,2021.2.3,59.950456942447865,
174.0,174.8,4,0.75,Stimuli\ImageFiles-Set1\Scenes\Scenes_026.png,0,0,0,279,279,279,,,,,,,,,,,,,174.00409659999968,0.004096599999684258,None,250.75703489999978,250.75703489999978,250.75703489999978,250.75703489999978,250.75703489999978,250.75703489999978,250.75703489999978,250.75703489999978,,001,P014,2025_Feb_28_1617,CategoryLocalizer,2021.2.3,59.950456942447865,
174.8,175.0,5,0.0,Stimuli\Blank.png,0,0,0,280,280,280,,,,,,,,,,,,,174.8215710000004,0.02157100000039236,None,251.56630079999923,251.56630079999923,251.56630079999923,251.56630079999923,251.56630079999923,251.56630079999923,251.56630079999923,251.56630079999923,,001,P014,2025_Feb_28_1617,CategoryLocalizer,2021.2.3,59.950456942447865,
175.0,175.8,4,0.75,Stimuli\ImageFiles-Set1\Scenes\Scenes_053.png,0,0,0,281,281,281,,,,,,,,,,,,,175.00605919999907,0.006059199999072007,None,251.75987429999986,251.75987429999986,251.75987429999986,251.75987429999986,251.75987429999986,251.75987429999986,251.75987429999986,251.75987429999986,,001,P014,2025_Feb_28_1617,CategoryLocalizer,2021.2.3,59.950456942447865,
175.8,176.0,5,0.0,Stimuli\Blank.png,0,0,0,282,282,282,,,,,,,,,,,,,175.82216549999976,0.022165499999744043,None,252.5663428000007,252.5663428000007,252.5663428000007,252.5663428000007,252.5663428000007,252.5663428000007,252.5663428000007,252.5663428000007,,001,P014,2025_Feb_28_1617,CategoryLocalizer,2021.2.3,59.950456942447865,
176.0,176.8,4,0.75,Stimuli\ImageFiles-Set1\Scenes\Scenes_030.png,1,1,0,283,283,283,,,,,,,,,,,,,176.00692460000027,0.00692460000027495,None,252.76726430000053,252.76726430000053,252.76726430000053,252.76726430000053,252.76726430000053,252.76726430000053,252.76726430000053,252.76726430000053,,001,P014,2025_Feb_28_1617,CategoryLocalizer,2021.2.3,59.950456942447865,
