eventStartTime,eventEndTime,eventCond,imSize,imFile,repeatedImage,responseEvent,Events.thisRepN,Events.thisTrialN,Events.thisN,Events.thisIndex,Instructions.started,Instructions.stopped,participantReadyResponse.keys,participantReadyResponse.rt,participantReadyResponse.started,participantReadyResponse.stopped,startWaitforTrigger,triggerResponse.keys,triggerResponse.rt,triggerResponse.started,triggerResponse.stopped,globalTimer,actualStartTime,startTimingDiff,participantResponse.keys,participantResponse.started,participantResponse.stopped,image.started,image.stopped,fixationOutside.started,fixationOutside.stopped,fixationInside.started,fixationInside.stopped,participantResponse.rt,session,participant,date,expName,psychopyVersion,frameRate,
,,,,,,,,,,,11.408432500000345,None,1,22.44361730000128,11.408432500000345,None,,,,,,,,,,,,,,,,,,,003,P014,2025_Feb_28_1715,CategoryLocalizer,2021.2.3,59.919707591675646,
,,,,,,,,,,,,,,,,,33.86987550000049,5,13.892495500000223,33.88320600000043,None,,,,,,,,,,,,,,003,P014,2025_Feb_28_1715,CategoryLocalizer,2021.2.3,59.919707591675646,
0.0,12.0,0,0.0,Stimuli\Blank.png,0,0,0,0,0,0,,,,,,,,,,,,47.782093600000735,0.0657214999991993,0.0657214999991993,None,47.86225999999988,None,47.86225999999988,None,47.86225999999988,None,47.86225999999988,None,,003,P014,2025_Feb_28_1715,CategoryLocalizer,2021.2.3,59.919707591675646,
12.0,12.8,1,0.75,Stimuli\ImageFiles-Set1\Objects\Object_Glasses_00001.png,0,0,0,1,1,1,,,,,,,,,,,,,12.01025320000008,0.010253200000079232,None,59.82271969999965,59.82271969999965,59.82271969999965,59.82271969999965,59.82271969999965,59.82271969999965,59.82271969999965,59.82271969999965,,003,P014,2025_Feb_28_1715,CategoryLocalizer,2021.2.3,59.919707591675646,
12.8,13.0,5,0.0,Stimuli\Blank.png,0,0,0,2,2,2,,,,,,,,,,,,,12.826935699999012,0.026935699999011575,None,60.623409199999514,60.623409199999514,60.623409199999514,60.623409199999514,60.623409199999514,60.623409199999514,60.623409199999514,60.623409199999514,,003,P014,2025_Feb_28_1715,CategoryLocalizer,2021.2.3,59.919707591675646,
13.0,13.8,1,0.75,Stimuli\ImageFiles-Set1\Objects\Object_ShoppingCart_00001.png,0,0,0,3,3,3,,,,,,,,,,,,,13.012173099999927,0.012173099999927217,None,60.82359120000001,60.82359120000001,60.82359120000001,60.82359120000001,60.82359120000001,60.82359120000001,60.82359120000001,60.82359120000001,,003,P014,2025_Feb_28_1715,CategoryLocalizer,2021.2.3,59.919707591675646,
13.8,14.0,5,0.0,Stimuli\Blank.png,0,0,0,4,4,4,,,,,,,,,,,,,13.82806889999847,0.028068899998469732,None,61.624312899999495,61.624312899999495,61.624312899999495,61.624312899999495,61.624312899999495,61.624312899999495,61.624312899999495,61.624312899999495,,003,P014,2025_Feb_28_1715,CategoryLocalizer,2021.2.3,59.919707591675646,
14.0,14.8,1,0.75,Stimuli\ImageFiles-Set1\Objects\Object_Football_00001.png,0,0,0,5,5,5,,,,,,,,,,,,,14.012828999999329,0.012828999999328516,None,61.82447839999986,61.82447839999986,61.82447839999986,61.82447839999986,61.82447839999986,61.82447839999986,61.82447839999986,61.82447839999986,,003,P014,2025_Feb_28_1715,CategoryLocalizer,2021.2.3,59.919707591675646,
14.8,15.0,5,0.0,Stimuli\Blank.png,0,0,0,6,6,6,,,,,,,,,,,,,14.828961799999888,0.02896179999988746,None,62.62517889999981,62.62517889999981,62.62517889999981,62.62517889999981,62.62517889999981,62.62517889999981,62.62517889999981,62.62517889999981,,003,P014,2025_Feb_28_1715,CategoryLocalizer,2021.2.3,59.919707591675646,
15.0,15.8,1,0.75,Stimuli\ImageFiles-Set1\Objects\Object_Gun_00001.png,0,0,0,7,7,7,,,,,,,,,,,,,15.012815299998692,0.012815299998692353,None,62.808677799999714,62.808677799999714,62.808677799999714,62.808677799999714,62.808677799999714,62.808677799999714,62.808677799999714,62.808677799999714,,003,P014,2025_Feb_28_1715,CategoryLocalizer,2021.2.3,59.919707591675646,
15.8,16.0,5,0.0,Stimuli\Blank.png,0,0,0,8,8,8,,,,,,,,,,,,,15.813192499999786,0.013192499999785667,None,63.60939999999937,63.60939999999937,63.60939999999937,63.60939999999937,63.60939999999937,63.60939999999937,63.60939999999937,63.60939999999937,,003,P014,2025_Feb_28_1715,CategoryLocalizer,2021.2.3,59.919707591675646,
16.0,16.8,1,0.75,Stimuli\ImageFiles-Set1\Objects\Object_Gun_00001.png,1,1,0,9,9,9,,,,,,,,,,,,,16.012878999999884,0.0128789999998844,1,63.80956719999995,63.80956719999995,63.80956719999995,63.80956719999995,63.80956719999995,63.80956719999995,63.80956719999995,63.80956719999995,0.41331759999957285,003,P014,2025_Feb_28_1715,CategoryLocalizer,2021.2.3,59.919707591675646,
16.8,17.0,5,0.0,Stimuli\Blank.png,0,0,0,10,10,10,,,,,,,,,,,,,16.81407119999858,0.014071199998578976,None,64.61027579999973,64.61027579999973,64.61027579999973,64.61027579999973,64.61027579999973,64.61027579999973,64.61027579999973,64.61027579999973,,003,P014,2025_Feb_28_1715,CategoryLocalizer,2021.2.3,59.919707591675646,
17.0,17.8,1,0.75,Stimuli\ImageFiles-Set1\Objects\Object_Stroller_00001.png,0,0,0,11,11,11,,,,,,,,,,,,,17.01431429999866,0.014314299998659408,None,64.82713139999942,64.82713139999942,64.82713139999942,64.82713139999942,64.82713139999942,64.82713139999942,64.82713139999942,64.82713139999942,,003,P014,2025_Feb_28_1715,CategoryLocalizer,2021.2.3,59.919707591675646,
17.8,18.0,5,0.0,Stimuli\Blank.png,0,0,0,12,12,12,,,,,,,,,,,,,17.83353889999853,0.033538899998529104,None,65.64455369999996,65.64455369999996,65.64455369999996,65.64455369999996,65.64455369999996,65.64455369999996,65.64455369999996,65.64455369999996,,003,P014,2025_Feb_28_1715,CategoryLocalizer,2021.2.3,59.919707591675646,
18.0,18.8,1,0.75,Stimuli\ImageFiles-Set1\Objects\Object_Highchair_00001.png,0,0,0,13,13,13,,,,,,,,,,,,,18.015280199999324,0.015280199999324395,None,65.81133489999957,65.81133489999957,65.81133489999957,65.81133489999957,65.81133489999957,65.81133489999957,65.81133489999957,65.81133489999957,,003,P014,2025_Feb_28_1715,CategoryLocalizer,2021.2.3,59.919707591675646,
18.8,19.0,5,0.0,Stimuli\Blank.png,0,0,0,14,14,14,,,,,,,,,,,,,18.799133399999846,-0.0008666000001547047,None,66.59537269999964,66.59537269999964,66.59537269999964,66.59537269999964,66.59537269999964,66.59537269999964,66.59537269999964,66.59537269999964,,003,P014,2025_Feb_28_1715,CategoryLocalizer,2021.2.3,59.919707591675646,
19.0,19.8,1,0.75,Stimuli\ImageFiles-Set1\Objects\Object_Bed_00001.png,0,0,0,15,15,15,,,,,,,,,,,,,19.00029109999923,0.0002910999992309371,None,66.81222630000048,66.81222630000048,66.81222630000048,66.81222630000048,66.81222630000048,66.81222630000048,66.81222630000048,66.81222630000048,,003,P014,2025_Feb_28_1715,CategoryLocalizer,2021.2.3,59.919707591675646,
19.8,20.0,5,0.0,Stimuli\Blank.png,0,0,0,16,16,16,,,,,,,,,,,,,19.818147999998473,0.018147999998472386,None,67.62961700000051,67.62961700000051,67.62961700000051,67.62961700000051,67.62961700000051,67.62961700000051,67.62961700000051,67.62961700000051,,003,P014,2025_Feb_28_1715,CategoryLocalizer,2021.2.3,59.919707591675646,
20.0,20.8,1,0.75,Stimuli\ImageFiles-Set1\Objects\Object_Recliner_00001.png,0,0,0,17,17,17,,,,,,,,,,,,,20.018036099998426,0.018036099998425925,None,67.82979449999948,67.82979449999948,67.82979449999948,67.82979449999948,67.82979449999948,67.82979449999948,67.82979449999948,67.82979449999948,,003,P014,2025_Feb_28_1715,CategoryLocalizer,2021.2.3,59.919707591675646,
20.8,21.0,5,0.0,Stimuli\Blank.png,0,0,0,18,18,18,,,,,,,,,,,,,20.817644599999767,0.017644599999766086,None,68.61383530000057,68.61383530000057,68.61383530000057,68.61383530000057,68.61383530000057,68.61383530000057,68.61383530000057,68.61383530000057,,003,P014,2025_Feb_28_1715,CategoryLocalizer,2021.2.3,59.919707591675646,
21.0,21.8,1,0.75,Stimuli\ImageFiles-Set1\Objects\Object_Apple_00001.png,0,0,0,19,19,19,,,,,,,,,,,,,21.00126249999994,0.001262499999938882,None,68.81398900000022,68.81398900000022,68.81398900000022,68.81398900000022,68.81398900000022,68.81398900000022,68.81398900000022,68.81398900000022,,003,P014,2025_Feb_28_1715,CategoryLocalizer,2021.2.3,59.919707591675646,
21.8,22.0,5,0.0,Stimuli\Blank.png,0,0,0,20,20,20,,,,,,,,,,,,,21.81793419999849,0.01793419999848922,None,69.61469939999915,69.61469939999915,69.61469939999915,69.61469939999915,69.61469939999915,69.61469939999915,69.61469939999915,69.61469939999915,,003,P014,2025_Feb_28_1715,CategoryLocalizer,2021.2.3,59.919707591675646,
22.0,22.8,1,0.75,Stimuli\ImageFiles-Set1\Objects\Object_Watch_00001.png,0,0,0,21,21,21,,,,,,,,,,,,,22.003560600000128,0.0035606000001280336,None,69.81490640000084,69.81490640000084,69.81490640000084,69.81490640000084,69.81490640000084,69.81490640000084,69.81490640000084,69.81490640000084,,003,P014,2025_Feb_28_1715,CategoryLocalizer,2021.2.3,59.919707591675646,
22.8,23.0,5,0.0,Stimuli\Blank.png,0,0,0,22,22,22,,,,,,,,,,,,,22.81981049999922,0.019810499999220355,None,70.61558859999968,70.61558859999968,70.61558859999968,70.61558859999968,70.61558859999968,70.61558859999968,70.61558859999968,70.61558859999968,,003,P014,2025_Feb_28_1715,CategoryLocalizer,2021.2.3,59.919707591675646,
23.0,23.8,1,0.75,Stimuli\ImageFiles-Set1\Objects\Object_Dryer_00001.png,0,0,0,23,23,23,,,,,,,,,,,,,23.002984299999298,0.0029842999992979458,None,70.79908199999954,70.79908199999954,70.79908199999954,70.79908199999954,70.79908199999954,70.79908199999954,70.79908199999954,70.79908199999954,,003,P014,2025_Feb_28_1715,CategoryLocalizer,2021.2.3,59.919707591675646,
23.8,24.0,5,0.0,Stimuli\Blank.png,0,0,0,24,24,24,,,,,,,,,,,,,23.804394899998442,0.004394899998441559,None,71.61649430000034,71.61649430000034,71.61649430000034,71.61649430000034,71.61649430000034,71.61649430000034,71.61649430000034,71.61649430000034,,003,P014,2025_Feb_28_1715,CategoryLocalizer,2021.2.3,59.919707591675646,
24.0,24.8,1,0.75,Stimuli\ImageFiles-Set1\Objects\Object_Pizza_00001.png,0,0,0,25,25,25,,,,,,,,,,,,,24.02094930000021,0.020949300000211224,None,71.81664900000033,71.81664900000033,71.81664900000033,71.81664900000033,71.81664900000033,71.81664900000033,71.81664900000033,71.81664900000033,,003,P014,2025_Feb_28_1715,CategoryLocalizer,2021.2.3,59.919707591675646,
24.8,25.0,5,0.0,Stimuli\Blank.png,0,0,0,26,26,26,,,,,,,,,,,,,24.80463669999881,0.00463669999880878,None,72.60067680000066,72.60067680000066,72.60067680000066,72.60067680000066,72.60067680000066,72.60067680000066,72.60067680000066,72.60067680000066,,003,P014,2025_Feb_28_1715,CategoryLocalizer,2021.2.3,59.919707591675646,
25.0,25.8,1,0.75,Stimuli\ImageFiles-Set1\Objects\Object_Nightstand_00001.png,0,0,0,27,27,27,,,,,,,,,,,,,25.00425720000021,0.004257200000211014,None,72.80085329999929,72.80085329999929,72.80085329999929,72.80085329999929,72.80085329999929,72.80085329999929,72.80085329999929,72.80085329999929,,003,P014,2025_Feb_28_1715,CategoryLocalizer,2021.2.3,59.919707591675646,
25.8,26.0,5,0.0,Stimuli\Blank.png,0,0,0,28,28,28,,,,,,,,,,,,,25.80491819999952,0.004918199999519146,None,73.6015623000003,73.6015623000003,73.6015623000003,73.6015623000003,73.6015623000003,73.6015623000003,73.6015623000003,73.6015623000003,,003,P014,2025_Feb_28_1715,CategoryLocalizer,2021.2.3,59.919707591675646,
26.0,26.8,1,0.75,Stimuli\ImageFiles-Set1\Objects\Object_Dice_00001.png,0,0,0,29,29,29,,,,,,,,,,,,,26.005434900000182,0.005434900000182097,None,73.80173780000041,73.80173780000041,73.80173780000041,73.80173780000041,73.80173780000041,73.80173780000041,73.80173780000041,73.80173780000041,,003,P014,2025_Feb_28_1715,CategoryLocalizer,2021.2.3,59.919707591675646,
26.8,27.0,5,0.0,Stimuli\Blank.png,0,0,0,30,30,30,,,,,,,,,,,,,26.805664599998636,0.005664599998635111,None,74.60244339999917,74.60244339999917,74.60244339999917,74.60244339999917,74.60244339999917,74.60244339999917,74.60244339999917,74.60244339999917,,003,P014,2025_Feb_28_1715,CategoryLocalizer,2021.2.3,59.919707591675646,
27.0,27.8,1,0.75,Stimuli\ImageFiles-Set1\Objects\Object_Pot_00001.png,0,0,0,31,31,31,,,,,,,,,,,,,27.008244299999205,0.008244299999205396,None,74.81931769999937,74.81931769999937,74.81931769999937,74.81931769999937,74.81931769999937,74.81931769999937,74.81931769999937,74.81931769999937,,003,P014,2025_Feb_28_1715,CategoryLocalizer,2021.2.3,59.919707591675646,
27.8,28.0,5,0.0,Stimuli\Blank.png,0,0,0,32,32,32,,,,,,,,,,,,,27.823900299999877,0.02390029999987675,None,75.62001469999996,75.62001469999996,75.62001469999996,75.62001469999996,75.62001469999996,75.62001469999996,75.62001469999996,75.62001469999996,,003,P014,2025_Feb_28_1715,CategoryLocalizer,2021.2.3,59.919707591675646,
28.0,28.8,2,0.75,Stimuli\ImageFiles-Set1\Bodies\Bodies_Crawling_00003.png,0,0,0,33,33,33,,,,,,,,,,,,,28.00736340000003,0.007363400000031106,None,75.8035106999996,75.8035106999996,75.8035106999996,75.8035106999996,75.8035106999996,75.8035106999996,75.8035106999996,75.8035106999996,,003,P014,2025_Feb_28_1715,CategoryLocalizer,2021.2.3,59.919707591675646,
28.8,29.0,5,0.0,Stimuli\Blank.png,0,0,0,34,34,34,,,,,,,,,,,,,28.80804739999985,0.008047399999849603,None,76.6042381999996,76.6042381999996,76.6042381999996,76.6042381999996,76.6042381999996,76.6042381999996,76.6042381999996,76.6042381999996,,003,P014,2025_Feb_28_1715,CategoryLocalizer,2021.2.3,59.919707591675646,
29.0,29.8,2,0.75,Stimuli\ImageFiles-Set1\Bodies\Bodies_Kicking_00007.png,0,0,0,35,35,35,,,,,,,,,,,,,29.008655499999804,0.008655499999804306,None,76.82108230000085,76.82108230000085,76.82108230000085,76.82108230000085,76.82108230000085,76.82108230000085,76.82108230000085,76.82108230000085,,003,P014,2025_Feb_28_1715,CategoryLocalizer,2021.2.3,59.919707591675646,
29.8,30.0,5,0.0,Stimuli\Blank.png,0,0,0,36,36,36,,,,,,,,,,,,,29.82587489999969,0.02587489999968895,None,77.6217775999994,77.6217775999994,77.6217775999994,77.6217775999994,77.6217775999994,77.6217775999994,77.6217775999994,77.6217775999994,,003,P014,2025_Feb_28_1715,CategoryLocalizer,2021.2.3,59.919707591675646,
30.0,30.8,2,0.75,Stimuli\ImageFiles-Set1\Bodies\Bodies_Falling_00002.png,0,0,0,37,37,37,,,,,,,,,,,,,30.009203899999193,0.0092038999991928,None,77.80529009999918,77.80529009999918,77.80529009999918,77.80529009999918,77.80529009999918,77.80529009999918,77.80529009999918,77.80529009999918,,003,P014,2025_Feb_28_1715,CategoryLocalizer,2021.2.3,59.919707591675646,
30.8,31.0,5,0.0,Stimuli\Blank.png,0,0,0,38,38,38,,,,,,,,,,,,,30.80926349999936,0.009263499999359937,None,78.60598279999977,78.60598279999977,78.60598279999977,78.60598279999977,78.60598279999977,78.60598279999977,78.60598279999977,78.60598279999977,,003,P014,2025_Feb_28_1715,CategoryLocalizer,2021.2.3,59.919707591675646,
31.0,31.8,2,0.75,Stimuli\ImageFiles-Set1\Bodies\Bodies_Falling_00002.png,1,1,0,39,39,39,,,,,,,,,,,,,31.009761199999048,0.009761199999047676,1,78.80616139999984,78.80616139999984,78.80616139999984,78.80616139999984,78.80616139999984,78.80616139999984,78.80616139999984,78.80616139999984,0.36677509999935864,003,P014,2025_Feb_28_1715,CategoryLocalizer,2021.2.3,59.919707591675646,
31.8,32.0,5,0.0,Stimuli\Blank.png,0,0,0,40,40,40,,,,,,,,,,,,,31.8102162999985,0.010216299998500489,None,79.60686879999957,79.60686879999957,79.60686879999957,79.60686879999957,79.60686879999957,79.60686879999957,79.60686879999957,79.60686879999957,,003,P014,2025_Feb_28_1715,CategoryLocalizer,2021.2.3,59.919707591675646,
32.0,32.8,2,0.75,Stimuli\ImageFiles-Set1\Bodies\Bodies_Punching_00003.png,0,0,0,41,41,41,,,,,,,,,,,,,32.010975499999404,0.010975499999403837,None,79.8237523000007,79.8237523000007,79.8237523000007,79.8237523000007,79.8237523000007,79.8237523000007,79.8237523000007,79.8237523000007,,003,P014,2025_Feb_28_1715,CategoryLocalizer,2021.2.3,59.919707591675646,
32.8,33.0,5,0.0,Stimuli\Blank.png,0,0,0,42,42,42,,,,,,,,,,,,,32.827756799999406,0.027756799999409054,None,80.62444350000078,80.62444350000078,80.62444350000078,80.62444350000078,80.62444350000078,80.62444350000078,80.62444350000078,80.62444350000078,,003,P014,2025_Feb_28_1715,CategoryLocalizer,2021.2.3,59.919707591675646,
33.0,33.8,2,0.75,Stimuli\ImageFiles-Set1\Bodies\Bodies_DownwardDog_00007.png,0,0,0,43,43,43,,,,,,,,,,,,,33.011794899999586,0.01179489999958605,None,80.80793540000013,80.80793540000013,80.80793540000013,80.80793540000013,80.80793540000013,80.80793540000013,80.80793540000013,80.80793540000013,,003,P014,2025_Feb_28_1715,CategoryLocalizer,2021.2.3,59.919707591675646,
33.8,34.0,5,0.0,Stimuli\Blank.png,0,0,0,44,44,44,,,,,,,,,,,,,33.81181849999848,0.01181849999848339,None,81.60865299999932,81.60865299999932,81.60865299999932,81.60865299999932,81.60865299999932,81.60865299999932,81.60865299999932,81.60865299999932,,003,P014,2025_Feb_28_1715,CategoryLocalizer,2021.2.3,59.919707591675646,
34.0,34.8,2,0.75,Stimuli\ImageFiles-Set1\Bodies\Bodies_Pushing_00001.png,0,0,0,45,45,45,,,,,,,,,,,,,34.013086699998894,0.013086699998893891,None,81.80883469999935,81.80883469999935,81.80883469999935,81.80883469999935,81.80883469999935,81.80883469999935,81.80883469999935,81.80883469999935,,003,P014,2025_Feb_28_1715,CategoryLocalizer,2021.2.3,59.919707591675646,
34.8,35.0,5,0.0,Stimuli\Blank.png,0,0,0,46,46,46,,,,,,,,,,,,,34.812617699999464,0.012617699999466936,None,82.60953119999976,82.60953119999976,82.60953119999976,82.60953119999976,82.60953119999976,82.60953119999976,82.60953119999976,82.60953119999976,,003,P014,2025_Feb_28_1715,CategoryLocalizer,2021.2.3,59.919707591675646,
35.0,35.8,2,0.75,Stimuli\ImageFiles-Set1\Bodies\Bodies_Walking_00004.png,0,0,0,47,47,47,,,,,,,,,,,,,35.01489380000021,0.014893800000209012,None,82.82639390000077,82.82639390000077,82.82639390000077,82.82639390000077,82.82639390000077,82.82639390000077,82.82639390000077,82.82639390000077,,003,P014,2025_Feb_28_1715,CategoryLocalizer,2021.2.3,59.919707591675646,
35.8,36.0,5,0.0,Stimuli\Blank.png,0,0,0,48,48,48,,,,,,,,,,,,,35.8304492999996,0.030449299999602886,None,83.62711440000021,83.62711440000021,83.62711440000021,83.62711440000021,83.62711440000021,83.62711440000021,83.62711440000021,83.62711440000021,,003,P014,2025_Feb_28_1715,CategoryLocalizer,2021.2.3,59.919707591675646,
36.0,36.8,2,0.75,Stimuli\ImageFiles-Set1\Bodies\Bodies_PushUp_00004.png,0,0,0,49,49,49,,,,,,,,,,,,,36.014684199999465,0.014684199999464909,None,83.82730550000088,83.82730550000088,83.82730550000088,83.82730550000088,83.82730550000088,83.82730550000088,83.82730550000088,83.82730550000088,,003,P014,2025_Feb_28_1715,CategoryLocalizer,2021.2.3,59.919707591675646,
36.8,37.0,5,0.0,Stimuli\Blank.png,0,0,0,50,50,50,,,,,,,,,,,,,36.83281170000009,0.03281170000009581,None,84.62800179999977,84.62800179999977,84.62800179999977,84.62800179999977,84.62800179999977,84.62800179999977,84.62800179999977,84.62800179999977,,003,P014,2025_Feb_28_1715,CategoryLocalizer,2021.2.3,59.919707591675646,
37.0,37.8,2,0.75,Stimuli\ImageFiles-Set1\Bodies\Bodies_QuadStretch_00001.png,1,1,0,51,51,51,,,,,,,,,,,,,36.999275499998475,-0.0007245000015245751,None,84.79480119999971,84.79480119999971,84.79480119999971,84.79480119999971,84.79480119999971,84.79480119999971,84.79480119999971,84.79480119999971,,003,P014,2025_Feb_28_1715,CategoryLocalizer,2021.2.3,59.919707591675646,
37.8,38.0,5,0.0,Stimuli\Blank.png,0,0,0,52,52,52,,,,,,,,,,,,,37.79899909999949,-0.0010009000005055668,None,85.59552540000004,85.59552540000004,85.59552540000004,85.59552540000004,85.59552540000004,85.59552540000004,85.59552540000004,85.59552540000004,,003,P014,2025_Feb_28_1715,CategoryLocalizer,2021.2.3,59.919707591675646,
38.0,38.8,2,0.75,Stimuli\ImageFiles-Set1\Bodies\Bodies_SittingChair_00003.png,0,0,0,53,53,53,,,,,,,,,,,,,37.999788799999806,-0.00021120000019436702,None,85.81239389999973,85.81239389999973,85.81239389999973,85.81239389999973,85.81239389999973,85.81239389999973,85.81239389999973,85.81239389999973,,003,P014,2025_Feb_28_1715,CategoryLocalizer,2021.2.3,59.919707591675646,
38.8,39.0,5,0.0,Stimuli\Blank.png,0,0,0,54,54,54,,,,,,,,,,,,,38.816860499999166,0.01686049999916861,None,86.61307669999951,86.61307669999951,86.61307669999951,86.61307669999951,86.61307669999951,86.61307669999951,86.61307669999951,86.61307669999951,,003,P014,2025_Feb_28_1715,CategoryLocalizer,2021.2.3,59.919707591675646,
39.0,39.8,2,0.75,Stimuli\ImageFiles-Set1\Bodies\Bodies_SittingChair_00003.png,0,0,0,55,55,55,,,,,,,,,,,,,39.000147499999,0.0001474999990023207,1,86.79657279999992,86.79657279999992,86.79657279999992,86.79657279999992,86.79657279999992,86.79657279999992,86.79657279999992,86.79657279999992,0.3153356000002532,003,P014,2025_Feb_28_1715,CategoryLocalizer,2021.2.3,59.919707591675646,
39.8,40.0,5,0.0,Stimuli\Blank.png,0,0,0,56,56,56,,,,,,,,,,,,,39.80135319999863,0.0013531999986327037,None,87.59727749999911,87.59727749999911,87.59727749999911,87.59727749999911,87.59727749999911,87.59727749999911,87.59727749999911,87.59727749999911,,003,P014,2025_Feb_28_1715,CategoryLocalizer,2021.2.3,59.919707591675646,
40.0,40.8,2,0.75,Stimuli\ImageFiles-Set1\Bodies\Bodies_SittingFloor_00005.png,0,0,0,57,57,57,,,,,,,,,,,,,40.00123509999867,0.0012350999986665556,None,87.79741819999981,87.79741819999981,87.79741819999981,87.79741819999981,87.79741819999981,87.79741819999981,87.79741819999981,87.79741819999981,,003,P014,2025_Feb_28_1715,CategoryLocalizer,2021.2.3,59.919707591675646,
40.8,41.0,5,0.0,Stimuli\Blank.png,0,0,0,58,58,58,,,,,,,,,,,,,40.80156089999946,0.001560899999461185,None,88.59817140000087,88.59817140000087,88.59817140000087,88.59817140000087,88.59817140000087,88.59817140000087,88.59817140000087,88.59817140000087,,003,P014,2025_Feb_28_1715,CategoryLocalizer,2021.2.3,59.919707591675646,
41.0,41.8,2,0.75,Stimuli\ImageFiles-Set1\Bodies\Bodies_SittingStretch_00005.png,0,0,0,59,59,59,,,,,,,,,,,,,41.00221199999942,0.0022119999994174577,None,88.81504870000026,88.81504870000026,88.81504870000026,88.81504870000026,88.81504870000026,88.81504870000026,88.81504870000026,88.81504870000026,,003,P014,2025_Feb_28_1715,CategoryLocalizer,2021.2.3,59.919707591675646,
41.8,42.0,5,0.0,Stimuli\Blank.png,0,0,0,60,60,60,,,,,,,,,,,,,41.818949699998484,0.018949699998486835,None,89.61573060000046,89.61573060000046,89.61573060000046,89.61573060000046,89.61573060000046,89.61573060000046,89.61573060000046,89.61573060000046,,003,P014,2025_Feb_28_1715,CategoryLocalizer,2021.2.3,59.919707591675646,
42.0,42.8,2,0.75,Stimuli\ImageFiles-Set1\Bodies\Bodies_Punching_00006.png,0,0,0,61,61,61,,,,,,,,,,,,,42.00473449999845,0.004734499998448882,None,89.81591760000083,89.81591760000083,89.81591760000083,89.81591760000083,89.81591760000083,89.81591760000083,89.81591760000083,89.81591760000083,,003,P014,2025_Feb_28_1715,CategoryLocalizer,2021.2.3,59.919707591675646,
42.8,43.0,5,0.0,Stimuli\Blank.png,0,0,0,62,62,62,,,,,,,,,,,,,42.81992889999856,0.019928899998561178,None,90.61661420000019,90.61661420000019,90.61661420000019,90.61661420000019,90.61661420000019,90.61661420000019,90.61661420000019,90.61661420000019,,003,P014,2025_Feb_28_1715,CategoryLocalizer,2021.2.3,59.919707591675646,
43.0,43.8,2,0.75,Stimuli\ImageFiles-Set1\Bodies\Bodies_DownwardDog_00005.png,0,0,0,63,63,63,,,,,,,,,,,,,43.004217899999276,0.004217899999275687,None,90.8001193,90.8001193,90.8001193,90.8001193,90.8001193,90.8001193,90.8001193,90.8001193,,003,P014,2025_Feb_28_1715,CategoryLocalizer,2021.2.3,59.919707591675646,
43.8,44.0,5,0.0,Stimuli\Blank.png,0,0,0,64,64,64,,,,,,,,,,,,,43.804596899999524,0.004596899999526727,None,91.60081610000088,91.60081610000088,91.60081610000088,91.60081610000088,91.60081610000088,91.60081610000088,91.60081610000088,91.60081610000088,,003,P014,2025_Feb_28_1715,CategoryLocalizer,2021.2.3,59.919707591675646,
44.0,44.8,3,0.75,Stimuli\ImageFiles-Set1\Faces\Face_00035.png,0,0,0,65,65,65,,,,,,,,,,,,,44.00487339999927,0.004873399999269168,None,91.80102280000028,91.80102280000028,91.80102280000028,91.80102280000028,91.80102280000028,91.80102280000028,91.80102280000028,91.80102280000028,,003,P014,2025_Feb_28_1715,CategoryLocalizer,2021.2.3,59.919707591675646,
44.8,45.0,5,0.0,Stimuli\Blank.png,0,0,0,66,66,66,,,,,,,,,,,,,44.80518799999845,0.005187999998454984,None,92.60170560000006,92.60170560000006,92.60170560000006,92.60170560000006,92.60170560000006,92.60170560000006,92.60170560000006,92.60170560000006,,003,P014,2025_Feb_28_1715,CategoryLocalizer,2021.2.3,59.919707591675646,
45.0,45.8,3,0.75,Stimuli\ImageFiles-Set1\Faces\Face_00027.png,0,0,0,67,67,67,,,,,,,,,,,,,45.00512079999862,0.005120799998621806,None,92.80187970000043,92.80187970000043,92.80187970000043,92.80187970000043,92.80187970000043,92.80187970000043,92.80187970000043,92.80187970000043,,003,P014,2025_Feb_28_1715,CategoryLocalizer,2021.2.3,59.919707591675646,
45.8,46.0,5,0.0,Stimuli\Blank.png,0,0,0,68,68,68,,,,,,,,,,,,,45.8059220999985,0.00592209999850013,None,93.60260170000038,93.60260170000038,93.60260170000038,93.60260170000038,93.60260170000038,93.60260170000038,93.60260170000038,93.60260170000038,,003,P014,2025_Feb_28_1715,CategoryLocalizer,2021.2.3,59.919707591675646,
46.0,46.8,3,0.75,Stimuli\ImageFiles-Set1\Faces\Face_00099.png,0,0,0,69,69,69,,,,,,,,,,,,,46.00598480000008,0.005984800000078394,None,93.8027660000007,93.8027660000007,93.8027660000007,93.8027660000007,93.8027660000007,93.8027660000007,93.8027660000007,93.8027660000007,,003,P014,2025_Feb_28_1715,CategoryLocalizer,2021.2.3,59.919707591675646,
46.8,47.0,5,0.0,Stimuli\Blank.png,0,0,0,70,70,70,,,,,,,,,,,,,46.8066775999996,0.006677599999605377,None,94.6034808000004,94.6034808000004,94.6034808000004,94.6034808000004,94.6034808000004,94.6034808000004,94.6034808000004,94.6034808000004,,003,P014,2025_Feb_28_1715,CategoryLocalizer,2021.2.3,59.919707591675646,
47.0,47.8,3,0.75,Stimuli\ImageFiles-Set1\Faces\Face_00005.png,0,0,0,71,71,71,,,,,,,,,,,,,47.009054499998456,0.009054499998455867,None,94.82035170000017,94.82035170000017,94.82035170000017,94.82035170000017,94.82035170000017,94.82035170000017,94.82035170000017,94.82035170000017,,003,P014,2025_Feb_28_1715,CategoryLocalizer,2021.2.3,59.919707591675646,
47.8,48.0,5,0.0,Stimuli\Blank.png,0,0,0,72,72,72,,,,,,,,,,,,,47.824567799998476,0.024567799998479245,None,95.62104980000004,95.62104980000004,95.62104980000004,95.62104980000004,95.62104980000004,95.62104980000004,95.62104980000004,95.62104980000004,,003,P014,2025_Feb_28_1715,CategoryLocalizer,2021.2.3,59.919707591675646,
48.0,48.8,3,0.75,Stimuli\ImageFiles-Set1\Faces\Face_00005.png,1,1,0,73,73,73,,,,,,,,,,,,,48.008799199998975,0.008799199998975382,1,95.82122530000015,95.82122530000015,95.82122530000015,95.82122530000015,95.82122530000015,95.82122530000015,95.82122530000015,95.82122530000015,0.38257770000018354,003,P014,2025_Feb_28_1715,CategoryLocalizer,2021.2.3,59.919707591675646,
48.8,49.0,5,0.0,Stimuli\Blank.png,0,0,0,74,74,74,,,,,,,,,,,,,48.82621370000015,0.026213700000155882,None,96.62193300000035,96.62193300000035,96.62193300000035,96.62193300000035,96.62193300000035,96.62193300000035,96.62193300000035,96.62193300000035,,003,P014,2025_Feb_28_1715,CategoryLocalizer,2021.2.3,59.919707591675646,
49.0,49.8,3,0.75,Stimuli\ImageFiles-Set1\Faces\Face_00001.png,0,0,0,75,75,75,,,,,,,,,,,,,49.010083099999974,0.010083099999974365,None,96.8221078000006,96.8221078000006,96.8221078000006,96.8221078000006,96.8221078000006,96.8221078000006,96.8221078000006,96.8221078000006,,003,P014,2025_Feb_28_1715,CategoryLocalizer,2021.2.3,59.919707591675646,
49.8,50.0,5,0.0,Stimuli\Blank.png,0,0,0,76,76,76,,,,,,,,,,,,,49.825949899999614,0.025949899999616832,None,97.62282029999915,97.62282029999915,97.62282029999915,97.62282029999915,97.62282029999915,97.62282029999915,97.62282029999915,97.62282029999915,,003,P014,2025_Feb_28_1715,CategoryLocalizer,2021.2.3,59.919707591675646,
50.0,50.8,3,0.75,Stimuli\ImageFiles-Set1\Faces\Face_00037.png,0,0,0,77,77,77,,,,,,,,,,,,,50.00960750000013,0.009607500000129221,None,97.8230352999999,97.8230352999999,97.8230352999999,97.8230352999999,97.8230352999999,97.8230352999999,97.8230352999999,97.8230352999999,,003,P014,2025_Feb_28_1715,CategoryLocalizer,2021.2.3,59.919707591675646,
50.8,51.0,5,0.0,Stimuli\Blank.png,0,0,0,78,78,78,,,,,,,,,,,,,50.82798240000011,0.02798240000011276,None,98.62370349999946,98.62370349999946,98.62370349999946,98.62370349999946,98.62370349999946,98.62370349999946,98.62370349999946,98.62370349999946,,003,P014,2025_Feb_28_1715,CategoryLocalizer,2021.2.3,59.919707591675646,
51.0,51.8,3,0.75,Stimuli\ImageFiles-Set1\Faces\Face_00093.png,0,0,0,79,79,79,,,,,,,,,,,,,51.01184999999896,0.011849999998958083,None,98.82389230000081,98.82389230000081,98.82389230000081,98.82389230000081,98.82389230000081,98.82389230000081,98.82389230000081,98.82389230000081,,003,P014,2025_Feb_28_1715,CategoryLocalizer,2021.2.3,59.919707591675646,
51.8,52.0,5,0.0,Stimuli\Blank.png,0,0,0,80,80,80,,,,,,,,,,,,,51.82817609999984,0.02817609999983972,None,99.62459640000088,99.62459640000088,99.62459640000088,99.62459640000088,99.62459640000088,99.62459640000088,99.62459640000088,99.62459640000088,,003,P014,2025_Feb_28_1715,CategoryLocalizer,2021.2.3,59.919707591675646,
52.0,52.8,3,0.75,Stimuli\ImageFiles-Set1\Faces\Face_00075.png,0,0,0,81,81,81,,,,,,,,,,,,,52.011293899999146,0.011293899999145651,None,99.80810179999935,99.80810179999935,99.80810179999935,99.80810179999935,99.80810179999935,99.80810179999935,99.80810179999935,99.80810179999935,,003,P014,2025_Feb_28_1715,CategoryLocalizer,2021.2.3,59.919707591675646,
52.8,53.0,5,0.0,Stimuli\Blank.png,0,0,0,82,82,82,,,,,,,,,,,,,52.814409099999466,0.014409099999468822,None,100.62547450000056,100.62547450000056,100.62547450000056,100.62547450000056,100.62547450000056,100.62547450000056,100.62547450000056,100.62547450000056,,003,P014,2025_Feb_28_1715,CategoryLocalizer,2021.2.3,59.919707591675646,
53.0,53.8,3,0.75,Stimuli\ImageFiles-Set1\Faces\Face_00065.png,0,0,0,83,83,83,,,,,,,,,,,,,53.02872500000012,0.028725000000122236,None,100.82562130000042,100.82562130000042,100.82562130000042,100.82562130000042,100.82562130000042,100.82562130000042,100.82562130000042,100.82562130000042,,003,P014,2025_Feb_28_1715,CategoryLocalizer,2021.2.3,59.919707591675646,
53.8,54.0,5,0.0,Stimuli\Blank.png,0,0,0,84,84,84,,,,,,,,,,,,,53.8129656000001,0.012965600000100608,None,101.60967809999966,101.60967809999966,101.60967809999966,101.60967809999966,101.60967809999966,101.60967809999966,101.60967809999966,101.60967809999966,,003,P014,2025_Feb_28_1715,CategoryLocalizer,2021.2.3,59.919707591675646,
54.0,54.8,3,0.75,Stimuli\ImageFiles-Set1\Faces\Face_00077.png,0,0,0,85,85,85,,,,,,,,,,,,,54.013383199999225,0.013383199999225326,None,101.80983419999939,101.80983419999939,101.80983419999939,101.80983419999939,101.80983419999939,101.80983419999939,101.80983419999939,101.80983419999939,,003,P014,2025_Feb_28_1715,CategoryLocalizer,2021.2.3,59.919707591675646,
54.8,55.0,5,0.0,Stimuli\Blank.png,0,0,0,86,86,86,,,,,,,,,,,,,54.81501939999907,0.0150193999990762,None,102.61056319999989,102.61056319999989,102.61056319999989,102.61056319999989,102.61056319999989,102.61056319999989,102.61056319999989,102.61056319999989,,003,P014,2025_Feb_28_1715,CategoryLocalizer,2021.2.3,59.919707591675646,
55.0,55.8,3,0.75,Stimuli\ImageFiles-Set1\Faces\Face_00043.png,0,0,0,87,87,87,,,,,,,,,,,,,55.014253699999244,0.014253699999244418,None,102.82746179999958,102.82746179999958,102.82746179999958,102.82746179999958,102.82746179999958,102.82746179999958,102.82746179999958,102.82746179999958,,003,P014,2025_Feb_28_1715,CategoryLocalizer,2021.2.3,59.919707591675646,
55.8,56.0,5,0.0,Stimuli\Blank.png,0,0,0,88,88,88,,,,,,,,,,,,,55.83322599999883,0.0332259999988338,None,103.64482719999978,103.64482719999978,103.64482719999978,103.64482719999978,103.64482719999978,103.64482719999978,103.64482719999978,103.64482719999978,,003,P014,2025_Feb_28_1715,CategoryLocalizer,2021.2.3,59.919707591675646,
56.0,56.8,3,0.75,Stimuli\ImageFiles-Set1\Faces\Face_00087.png,0,0,0,89,89,89,,,,,,,,,,,,,56.0147694999996,0.014769499999601976,None,103.81162559999939,103.81162559999939,103.81162559999939,103.81162559999939,103.81162559999939,103.81162559999939,103.81162559999939,103.81162559999939,,003,P014,2025_Feb_28_1715,CategoryLocalizer,2021.2.3,59.919707591675646,
56.8,57.0,5,0.0,Stimuli\Blank.png,0,0,0,90,90,90,,,,,,,,,,,,,56.815532200000234,0.01553220000023714,None,104.61233329999959,104.61233329999959,104.61233329999959,104.61233329999959,104.61233329999959,104.61233329999959,104.61233329999959,104.61233329999959,,003,P014,2025_Feb_28_1715,CategoryLocalizer,2021.2.3,59.919707591675646,
57.0,57.8,3,0.75,Stimuli\ImageFiles-Set1\Faces\Face_00045.png,0,0,0,91,91,91,,,,,,,,,,,,,56.99978649999866,-0.00021350000133679714,None,104.8125156999995,104.8125156999995,104.8125156999995,104.8125156999995,104.8125156999995,104.8125156999995,104.8125156999995,104.8125156999995,,003,P014,2025_Feb_28_1715,CategoryLocalizer,2021.2.3,59.919707591675646,
57.8,58.0,5,0.0,Stimuli\Blank.png,0,0,0,92,92,92,,,,,,,,,,,,,57.8186171999987,0.01861719999870104,None,105.62995179999962,105.62995179999962,105.62995179999962,105.62995179999962,105.62995179999962,105.62995179999962,105.62995179999962,105.62995179999962,,003,P014,2025_Feb_28_1715,CategoryLocalizer,2021.2.3,59.919707591675646,
58.0,58.8,3,0.75,Stimuli\ImageFiles-Set1\Faces\Face_00091.png,0,0,0,93,93,93,,,,,,,,,,,,,58.01841659999991,0.018416599999909522,None,105.84676720000061,105.84676720000061,105.84676720000061,105.84676720000061,105.84676720000061,105.84676720000061,105.84676720000061,105.84676720000061,,003,P014,2025_Feb_28_1715,CategoryLocalizer,2021.2.3,59.919707591675646,
58.8,59.0,5,0.0,Stimuli\Blank.png,0,0,0,94,94,94,,,,,,,,,,,,,58.83452500000021,0.0345250000002153,None,106.6307940000006,106.6307940000006,106.6307940000006,106.6307940000006,106.6307940000006,106.6307940000006,106.6307940000006,106.6307940000006,,003,P014,2025_Feb_28_1715,CategoryLocalizer,2021.2.3,59.919707591675646,
59.0,59.8,3,0.75,Stimuli\ImageFiles-Set1\Faces\Face_00089.png,0,0,0,95,95,95,,,,,,,,,,,,,59.00327389999984,0.0032738999998400686,None,106.81431739999971,106.81431739999971,106.81431739999971,106.81431739999971,106.81431739999971,106.81431739999971,106.81431739999971,106.81431739999971,,003,P014,2025_Feb_28_1715,CategoryLocalizer,2021.2.3,59.919707591675646,
59.8,60.0,5,0.0,Stimuli\Blank.png,0,0,0,96,96,96,,,,,,,,,,,,,59.81909279999854,0.019092799998546184,None,107.61499700000059,107.61499700000059,107.61499700000059,107.61499700000059,107.61499700000059,107.61499700000059,107.61499700000059,107.61499700000059,,003,P014,2025_Feb_28_1715,CategoryLocalizer,2021.2.3,59.919707591675646,
60.0,60.8,4,0.75,Stimuli\ImageFiles-Set1\Scenes\Scenes_008.png,0,0,0,97,97,97,,,,,,,,,,,,,60.00458669999898,0.004586699998981203,None,107.81516940000074,107.81516940000074,107.81516940000074,107.81516940000074,107.81516940000074,107.81516940000074,107.81516940000074,107.81516940000074,,003,P014,2025_Feb_28_1715,CategoryLocalizer,2021.2.3,59.919707591675646,
60.8,61.0,5,0.0,Stimuli\Blank.png,0,0,0,98,98,98,,,,,,,,,,,,,60.81939319999947,0.019393199999470312,None,108.61586979999993,108.61586979999993,108.61586979999993,108.61586979999993,108.61586979999993,108.61586979999993,108.61586979999993,108.61586979999993,,003,P014,2025_Feb_28_1715,CategoryLocalizer,2021.2.3,59.919707591675646,
61.0,61.8,4,0.75,Stimuli\ImageFiles-Set1\Scenes\Scenes_058.png,0,0,0,99,99,99,,,,,,,,,,,,,61.00388129999919,0.0038812999991932884,None,108.81605710000076,108.81605710000076,108.81605710000076,108.81605710000076,108.81605710000076,108.81605710000076,108.81605710000076,108.81605710000076,,003,P014,2025_Feb_28_1715,CategoryLocalizer,2021.2.3,59.919707591675646,
61.8,62.0,5,0.0,Stimuli\Blank.png,0,0,0,100,100,100,,,,,,,,,,,,,61.820127999999386,0.020127999999388635,None,109.61677100000088,109.61677100000088,109.61677100000088,109.61677100000088,109.61677100000088,109.61677100000088,109.61677100000088,109.61677100000088,,003,P014,2025_Feb_28_1715,CategoryLocalizer,2021.2.3,59.919707591675646,
62.0,62.8,4,0.75,Stimuli\ImageFiles-Set1\Scenes\Scenes_001.png,0,0,0,101,101,101,,,,,,,,,,,,,62.00411840000015,0.004118400000152178,None,109.81694550000066,109.81694550000066,109.81694550000066,109.81694550000066,109.81694550000066,109.81694550000066,109.81694550000066,109.81694550000066,,003,P014,2025_Feb_28_1715,CategoryLocalizer,2021.2.3,59.919707591675646,
62.8,63.0,5,0.0,Stimuli\Blank.png,0,0,0,102,102,102,,,,,,,,,,,,,62.821176299999934,0.021176299999936532,None,110.61764799999946,110.61764799999946,110.61764799999946,110.61764799999946,110.61764799999946,110.61764799999946,110.61764799999946,110.61764799999946,,003,P014,2025_Feb_28_1715,CategoryLocalizer,2021.2.3,59.919707591675646,
63.0,63.8,4,0.75,Stimuli\ImageFiles-Set1\Scenes\Scenes_059.png,0,0,0,103,103,103,,,,,,,,,,,,,63.0055683999999,0.005568399999901885,None,110.81782380000004,110.81782380000004,110.81782380000004,110.81782380000004,110.81782380000004,110.81782380000004,110.81782380000004,110.81782380000004,,003,P014,2025_Feb_28_1715,CategoryLocalizer,2021.2.3,59.919707591675646,
63.8,64.0,5,0.0,Stimuli\Blank.png,0,0,0,104,104,104,,,,,,,,,,,,,63.82249779999984,0.02249779999984014,None,111.6186175999992,111.6186175999992,111.6186175999992,111.6186175999992,111.6186175999992,111.6186175999992,111.6186175999992,111.6186175999992,,003,P014,2025_Feb_28_1715,CategoryLocalizer,2021.2.3,59.919707591675646,
64.0,64.8,4,0.75,Stimuli\ImageFiles-Set1\Scenes\Scenes_004.png,0,0,0,105,105,105,,,,,,,,,,,,,64.00582629999917,0.0058262999991711695,None,111.8021048999999,111.8021048999999,111.8021048999999,111.8021048999999,111.8021048999999,111.8021048999999,111.8021048999999,111.8021048999999,,003,P014,2025_Feb_28_1715,CategoryLocalizer,2021.2.3,59.919707591675646,
64.8,65.0,5,0.0,Stimuli\Blank.png,0,0,0,106,106,106,,,,,,,,,,,,,64.80944999999883,0.009449999998835779,None,112.61945019999985,112.61945019999985,112.61945019999985,112.61945019999985,112.61945019999985,112.61945019999985,112.61945019999985,112.61945019999985,,003,P014,2025_Feb_28_1715,CategoryLocalizer,2021.2.3,59.919707591675646,
65.0,65.8,4,0.75,Stimuli\ImageFiles-Set1\Scenes\Scenes_021.png,0,0,0,107,107,107,,,,,,,,,,,,,65.02398840000023,0.023988400000234833,None,112.83632790000047,112.83632790000047,112.83632790000047,112.83632790000047,112.83632790000047,112.83632790000047,112.83632790000047,112.83632790000047,,003,P014,2025_Feb_28_1715,CategoryLocalizer,2021.2.3,59.919707591675646,
65.8,66.0,5,0.0,Stimuli\Blank.png,0,0,0,108,108,108,,,,,,,,,,,,,65.82417779999923,0.024177799999236527,None,113.62032080000063,113.62032080000063,113.62032080000063,113.62032080000063,113.62032080000063,113.62032080000063,113.62032080000063,113.62032080000063,,003,P014,2025_Feb_28_1715,CategoryLocalizer,2021.2.3,59.919707591675646,
66.0,66.8,4,0.75,Stimuli\ImageFiles-Set1\Scenes\Scenes_039.png,0,0,0,109,109,109,,,,,,,,,,,,,66.00823109999874,0.0082310999987385,None,113.8204525000001,113.8204525000001,113.8204525000001,113.8204525000001,113.8204525000001,113.8204525000001,113.8204525000001,113.8204525000001,,003,P014,2025_Feb_28_1715,CategoryLocalizer,2021.2.3,59.919707591675646,
66.8,67.0,5,0.0,Stimuli\Blank.png,0,0,0,110,110,110,,,,,,,,,,,,,66.82509949999985,0.025099499999853947,None,114.62118790000022,114.62118790000022,114.62118790000022,114.62118790000022,114.62118790000022,114.62118790000022,114.62118790000022,114.62118790000022,,003,P014,2025_Feb_28_1715,CategoryLocalizer,2021.2.3,59.919707591675646,
67.0,67.8,4,0.75,Stimuli\ImageFiles-Set1\Scenes\Scenes_020.png,0,0,0,111,111,111,,,,,,,,,,,,,67.00788539999849,0.00788539999848581,None,114.80468420000034,114.80468420000034,114.80468420000034,114.80468420000034,114.80468420000034,114.80468420000034,114.80468420000034,114.80468420000034,,003,P014,2025_Feb_28_1715,CategoryLocalizer,2021.2.3,59.919707591675646,
67.8,68.0,5,0.0,Stimuli\Blank.png,0,0,0,112,112,112,,,,,,,,,,,,,67.80912360000002,0.009123600000023657,None,115.60540209999999,115.60540209999999,115.60540209999999,115.60540209999999,115.60540209999999,115.60540209999999,115.60540209999999,115.60540209999999,,003,P014,2025_Feb_28_1715,CategoryLocalizer,2021.2.3,59.919707591675646,
68.0,68.8,4,0.75,Stimuli\ImageFiles-Set1\Scenes\Scenes_024.png,0,0,0,113,113,113,,,,,,,,,,,,,68.00936959999854,0.009369599998535705,None,115.8222607000007,115.8222607000007,115.8222607000007,115.8222607000007,115.8222607000007,115.8222607000007,115.8222607000007,115.8222607000007,,003,P014,2025_Feb_28_1715,CategoryLocalizer,2021.2.3,59.919707591675646,
68.8,69.0,5,0.0,Stimuli\Blank.png,0,0,0,114,114,114,,,,,,,,,,,,,68.8262141999985,0.02621419999850616,None,116.6229629999998,116.6229629999998,116.6229629999998,116.6229629999998,116.6229629999998,116.6229629999998,116.6229629999998,116.6229629999998,,003,P014,2025_Feb_28_1715,CategoryLocalizer,2021.2.3,59.919707591675646,
69.0,69.8,4,0.75,Stimuli\ImageFiles-Set1\Scenes\Scenes_048.png,0,0,0,115,115,115,,,,,,,,,,,,,69.01165140000012,0.011651400000118883,None,116.8231539999997,116.8231539999997,116.8231539999997,116.8231539999997,116.8231539999997,116.8231539999997,116.8231539999997,116.8231539999997,,003,P014,2025_Feb_28_1715,CategoryLocalizer,2021.2.3,59.919707591675646,
69.8,70.0,5,0.0,Stimuli\Blank.png,0,0,0,116,116,116,,,,,,,,,,,,,69.82956259999992,0.02956259999992028,None,117.64054270000088,117.64054270000088,117.64054270000088,117.64054270000088,117.64054270000088,117.64054270000088,117.64054270000088,117.64054270000088,,003,P014,2025_Feb_28_1715,CategoryLocalizer,2021.2.3,59.919707591675646,
70.0,70.8,4,0.75,Stimuli\ImageFiles-Set1\Scenes\Scenes_025.png,0,0,0,117,117,117,,,,,,,,,,,,,70.02931129999888,0.029311299998880713,None,117.84070969999993,117.84070969999993,117.84070969999993,117.84070969999993,117.84070969999993,117.84070969999993,117.84070969999993,117.84070969999993,,003,P014,2025_Feb_28_1715,CategoryLocalizer,2021.2.3,59.919707591675646,
70.8,71.0,5,0.0,Stimuli\Blank.png,0,0,0,118,118,118,,,,,,,,,,,,,70.83000939999874,0.030009399998746744,None,118.64142589999938,118.64142589999938,118.64142589999938,118.64142589999938,118.64142589999938,118.64142589999938,118.64142589999938,118.64142589999938,,003,P014,2025_Feb_28_1715,CategoryLocalizer,2021.2.3,59.919707591675646,
71.0,71.8,4,0.75,Stimuli\ImageFiles-Set1\Scenes\Scenes_025.png,1,1,0,119,119,119,,,,,,,,,,,,,71.02866979999999,0.028669799999988754,1,118.84159790000012,118.84159790000012,118.84159790000012,118.84159790000012,118.84159790000012,118.84159790000012,118.84159790000012,118.84159790000012,0.4523305000002438,003,P014,2025_Feb_28_1715,CategoryLocalizer,2021.2.3,59.919707591675646,
71.8,72.0,5,0.0,Stimuli\Blank.png,0,0,0,120,120,120,,,,,,,,,,,,,71.82925869999963,0.029258699999630267,None,119.62563070000033,119.62563070000033,119.62563070000033,119.62563070000033,119.62563070000033,119.62563070000033,119.62563070000033,119.62563070000033,,003,P014,2025_Feb_28_1715,CategoryLocalizer,2021.2.3,59.919707591675646,
72.0,72.8,4,0.75,Stimuli\ImageFiles-Set1\Scenes\Scenes_042.png,0,0,0,121,121,121,,,,,,,,,,,,,72.01275139999962,0.012751399999615387,None,119.80911630000082,119.80911630000082,119.80911630000082,119.80911630000082,119.80911630000082,119.80911630000082,119.80911630000082,119.80911630000082,,003,P014,2025_Feb_28_1715,CategoryLocalizer,2021.2.3,59.919707591675646,
72.8,73.0,5,0.0,Stimuli\Blank.png,0,0,0,122,122,122,,,,,,,,,,,,,72.81500079999932,0.015000799999327796,None,120.62653150000006,120.62653150000006,120.62653150000006,120.62653150000006,120.62653150000006,120.62653150000006,120.62653150000006,120.62653150000006,,003,P014,2025_Feb_28_1715,CategoryLocalizer,2021.2.3,59.919707591675646,
73.0,73.8,4,0.75,Stimuli\ImageFiles-Set1\Scenes\Scenes_029.png,0,0,0,123,123,123,,,,,,,,,,,,,73.03018879999945,0.030188799999450566,None,120.82667430000038,120.82667430000038,120.82667430000038,120.82667430000038,120.82667430000038,120.82667430000038,120.82667430000038,120.82667430000038,,003,P014,2025_Feb_28_1715,CategoryLocalizer,2021.2.3,59.919707591675646,
73.8,74.0,5,0.0,Stimuli\Blank.png,0,0,0,124,124,124,,,,,,,,,,,,,73.81480339999871,0.014803399998712052,None,121.61071389999961,121.61071389999961,121.61071389999961,121.61071389999961,121.61071389999961,121.61071389999961,121.61071389999961,121.61071389999961,,003,P014,2025_Feb_28_1715,CategoryLocalizer,2021.2.3,59.919707591675646,
74.0,74.8,4,0.75,Stimuli\ImageFiles-Set1\Scenes\Scenes_032.png,0,0,0,125,125,125,,,,,,,,,,,,,74.0144081999988,0.0144081999987975,None,121.82759249999981,121.82759249999981,121.82759249999981,121.82759249999981,121.82759249999981,121.82759249999981,121.82759249999981,121.82759249999981,,003,P014,2025_Feb_28_1715,CategoryLocalizer,2021.2.3,59.919707591675646,
74.8,75.0,5,0.0,Stimuli\Blank.png,0,0,0,126,126,126,,,,,,,,,,,,,74.83148849999998,0.03148849999998049,None,122.62827640000069,122.62827640000069,122.62827640000069,122.62827640000069,122.62827640000069,122.62827640000069,122.62827640000069,122.62827640000069,,003,P014,2025_Feb_28_1715,CategoryLocalizer,2021.2.3,59.919707591675646,
75.0,75.8,4,0.75,Stimuli\ImageFiles-Set1\Scenes\Scenes_003.png,0,0,0,127,127,127,,,,,,,,,,,,,75.01500159999887,0.015001599998868187,None,122.82845930000076,122.82845930000076,122.82845930000076,122.82845930000076,122.82845930000076,122.82845930000076,122.82845930000076,122.82845930000076,,003,P014,2025_Feb_28_1715,CategoryLocalizer,2021.2.3,59.919707591675646,
75.8,76.0,5,0.0,Stimuli\Blank.png,0,0,0,128,128,128,,,,,,,,,,,,,75.81569499999932,0.015694999999325887,None,123.61248080000041,123.61248080000041,123.61248080000041,123.61248080000041,123.61248080000041,123.61248080000041,123.61248080000041,123.61248080000041,,003,P014,2025_Feb_28_1715,CategoryLocalizer,2021.2.3,59.919707591675646,
76.0,88.0,0,0.0,Stimuli\Blank.png,0,0,0,129,129,129,,,,,,,,,,,,,75.9998642999999,-0.0001357000001007691,None,123.7959764999996,123.7959764999996,123.7959764999996,123.7959764999996,123.7959764999996,123.7959764999996,123.7959764999996,123.7959764999996,,003,P014,2025_Feb_28_1715,CategoryLocalizer,2021.2.3,59.919707591675646,
88.0,88.8,3,0.75,Stimuli\ImageFiles-Set1\Faces\Face_00083.png,0,0,0,130,130,130,,,,,,,,,,,,,88.01008179999917,0.010081799999170471,None,135.80660180000086,135.80660180000086,135.80660180000086,135.80660180000086,135.80660180000086,135.80660180000086,135.80660180000086,135.80660180000086,,003,P014,2025_Feb_28_1715,CategoryLocalizer,2021.2.3,59.919707591675646,
88.8,89.0,5,0.0,Stimuli\Blank.png,0,0,0,131,131,131,,,,,,,,,,,,,88.81208530000004,0.012085300000038046,None,136.6072839999997,136.6072839999997,136.6072839999997,136.6072839999997,136.6072839999997,136.6072839999997,136.6072839999997,136.6072839999997,,003,P014,2025_Feb_28_1715,CategoryLocalizer,2021.2.3,59.919707591675646,
89.0,89.8,3,0.75,Stimuli\ImageFiles-Set1\Faces\Face_00097.png,0,0,0,132,132,132,,,,,,,,,,,,,89.01118339999994,0.011183399999936228,None,136.84084950000033,136.84084950000033,136.84084950000033,136.84084950000033,136.84084950000033,136.84084950000033,136.84084950000033,136.84084950000033,,003,P014,2025_Feb_28_1715,CategoryLocalizer,2021.2.3,59.919707591675646,
89.8,90.0,5,0.0,Stimuli\Blank.png,0,0,0,133,133,133,,,,,,,,,,,,,89.84565279999879,0.04565279999879124,None,137.64156700000058,137.64156700000058,137.64156700000058,137.64156700000058,137.64156700000058,137.64156700000058,137.64156700000058,137.64156700000058,,003,P014,2025_Feb_28_1715,CategoryLocalizer,2021.2.3,59.919707591675646,
90.0,90.8,3,0.75,Stimuli\ImageFiles-Set1\Faces\Face_00012.png,0,0,0,134,134,134,,,,,,,,,,,,,90.01193929999863,0.011939299998630304,None,137.82508280000002,137.82508280000002,137.82508280000002,137.82508280000002,137.82508280000002,137.82508280000002,137.82508280000002,137.82508280000002,,003,P014,2025_Feb_28_1715,CategoryLocalizer,2021.2.3,59.919707591675646,
90.8,91.0,5,0.0,Stimuli\Blank.png,0,0,0,135,135,135,,,,,,,,,,,,,90.8314921000001,0.031492100000107826,None,138.64255589999993,138.64255589999993,138.64255589999993,138.64255589999993,138.64255589999993,138.64255589999993,138.64255589999993,138.64255589999993,,003,P014,2025_Feb_28_1715,CategoryLocalizer,2021.2.3,59.919707591675646,
91.0,91.8,3,0.75,Stimuli\ImageFiles-Set1\Faces\Face_00109.png,0,0,0,136,136,136,,,,,,,,,,,,,91.03093079999962,0.03093079999962356,None,138.84263049999936,138.84263049999936,138.84263049999936,138.84263049999936,138.84263049999936,138.84263049999936,138.84263049999936,138.84263049999936,,003,P014,2025_Feb_28_1715,CategoryLocalizer,2021.2.3,59.919707591675646,
91.8,92.0,5,0.0,Stimuli\Blank.png,0,0,0,137,137,137,,,,,,,,,,,,,91.82987849999881,0.029878499998815755,None,139.6266543999991,139.6266543999991,139.6266543999991,139.6266543999991,139.6266543999991,139.6266543999991,139.6266543999991,139.6266543999991,,003,P014,2025_Feb_28_1715,CategoryLocalizer,2021.2.3,59.919707591675646,
92.0,92.8,3,0.75,Stimuli\ImageFiles-Set1\Faces\Face_00069.png,0,0,0,138,138,138,,,,,,,,,,,,,92.01454359999843,0.01454359999843291,None,139.82683329999963,139.82683329999963,139.82683329999963,139.82683329999963,139.82683329999963,139.82683329999963,139.82683329999963,139.82683329999963,,003,P014,2025_Feb_28_1715,CategoryLocalizer,2021.2.3,59.919707591675646,
92.8,93.0,5,0.0,Stimuli\Blank.png,0,0,0,139,139,139,,,,,,,,,,,,,92.8313292999992,0.03132929999920009,None,140.6275415,140.6275415,140.6275415,140.6275415,140.6275415,140.6275415,140.6275415,140.6275415,,003,P014,2025_Feb_28_1715,CategoryLocalizer,2021.2.3,59.919707591675646,
93.0,93.8,3,0.75,Stimuli\ImageFiles-Set1\Faces\Face_00069.png,1,1,0,140,140,140,,,,,,,,,,,,,93.01450459999978,0.01450459999978193,1,140.81102629999987,140.81102629999987,140.81102629999987,140.81102629999987,140.81102629999987,140.81102629999987,140.81102629999987,140.81102629999987,0.3998233000002074,003,P014,2025_Feb_28_1715,CategoryLocalizer,2021.2.3,59.919707591675646,
93.8,94.0,5,0.0,Stimuli\Blank.png,0,0,0,141,141,141,,,,,,,,,,,,,93.81638190000012,0.016381900000126848,None,141.6117477000007,141.6117477000007,141.6117477000007,141.6117477000007,141.6117477000007,141.6117477000007,141.6117477000007,141.6117477000007,,003,P014,2025_Feb_28_1715,CategoryLocalizer,2021.2.3,59.919707591675646,
94.0,94.8,3,0.75,Stimuli\ImageFiles-Set1\Faces\Face_00039.png,0,0,0,142,142,142,,,,,,,,,,,,,94.00012769999921,0.00012769999921147246,None,141.8119186999993,141.8119186999993,141.8119186999993,141.8119186999993,141.8119186999993,141.8119186999993,141.8119186999993,141.8119186999993,,003,P014,2025_Feb_28_1715,CategoryLocalizer,2021.2.3,59.919707591675646,
94.8,95.0,5,0.0,Stimuli\Blank.png,0,0,0,143,143,143,,,,,,,,,,,,,94.8159629999991,0.015962999999104,None,142.6126292000008,142.6126292000008,142.6126292000008,142.6126292000008,142.6126292000008,142.6126292000008,142.6126292000008,142.6126292000008,,003,P014,2025_Feb_28_1715,CategoryLocalizer,2021.2.3,59.919707591675646,
95.0,95.8,3,0.75,Stimuli\ImageFiles-Set1\Faces\Face_00067.png,0,0,0,144,144,144,,,,,,,,,,,,,95.00005879999844,5.8799998441827483e-05,None,142.81283620000067,142.81283620000067,142.81283620000067,142.81283620000067,142.81283620000067,142.81283620000067,142.81283620000067,142.81283620000067,,003,P014,2025_Feb_28_1715,CategoryLocalizer,2021.2.3,59.919707591675646,
95.8,96.0,5,0.0,Stimuli\Blank.png,0,0,0,145,145,145,,,,,,,,,,,,,95.8167228000002,0.01672280000020976,None,143.61350649999986,143.61350649999986,143.61350649999986,143.61350649999986,143.61350649999986,143.61350649999986,143.61350649999986,143.61350649999986,,003,P014,2025_Feb_28_1715,CategoryLocalizer,2021.2.3,59.919707591675646,
96.0,96.8,3,0.75,Stimuli\ImageFiles-Set1\Faces\Face_00024.png,0,0,0,146,146,146,,,,,,,,,,,,,96.00155479999921,0.001554799999212264,None,143.81369579999955,143.81369579999955,143.81369579999955,143.81369579999955,143.81369579999955,143.81369579999955,143.81369579999955,143.81369579999955,,003,P014,2025_Feb_28_1715,CategoryLocalizer,2021.2.3,59.919707591675646,
96.8,97.0,5,0.0,Stimuli\Blank.png,0,0,0,147,147,147,,,,,,,,,,,,,96.81815610000012,0.018156100000126685,None,144.61439280000013,144.61439280000013,144.61439280000013,144.61439280000013,144.61439280000013,144.61439280000013,144.61439280000013,144.61439280000013,,003,P014,2025_Feb_28_1715,CategoryLocalizer,2021.2.3,59.919707591675646,
97.0,97.8,3,0.75,Stimuli\ImageFiles-Set1\Faces\Face_00061.png,0,0,0,148,148,148,,,,,,,,,,,,,97.00147909999941,0.001479099999414757,None,144.79790219999995,144.79790219999995,144.79790219999995,144.79790219999995,144.79790219999995,144.79790219999995,144.79790219999995,144.79790219999995,,003,P014,2025_Feb_28_1715,CategoryLocalizer,2021.2.3,59.919707591675646,
97.8,98.0,5,0.0,Stimuli\Blank.png,0,0,0,149,149,149,,,,,,,,,,,,,97.80250359999991,0.0025035999999118985,None,145.59859379999943,145.59859379999943,145.59859379999943,145.59859379999943,145.59859379999943,145.59859379999943,145.59859379999943,145.59859379999943,,003,P014,2025_Feb_28_1715,CategoryLocalizer,2021.2.3,59.919707591675646,
98.0,98.8,3,0.75,Stimuli\ImageFiles-Set1\Faces\Face_00047.png,0,0,0,150,150,150,,,,,,,,,,,,,98.00215109999954,0.0021510999995371094,None,145.79880559999947,145.79880559999947,145.79880559999947,145.79880559999947,145.79880559999947,145.79880559999947,145.79880559999947,145.79880559999947,,003,P014,2025_Feb_28_1715,CategoryLocalizer,2021.2.3,59.919707591675646,
98.8,99.0,5,0.0,Stimuli\Blank.png,0,0,0,151,151,151,,,,,,,,,,,,,98.80326229999991,0.0032622999999176727,None,146.59959039999922,146.59959039999922,146.59959039999922,146.59959039999922,146.59959039999922,146.59959039999922,146.59959039999922,146.59959039999922,,003,P014,2025_Feb_28_1715,CategoryLocalizer,2021.2.3,59.919707591675646,
99.0,99.8,3,0.75,Stimuli\ImageFiles-Set1\Faces\Face_00020.png,0,0,0,152,152,152,,,,,,,,,,,,,99.00521769999978,0.005217699999775505,None,146.81635880000067,146.81635880000067,146.81635880000067,146.81635880000067,146.81635880000067,146.81635880000067,146.81635880000067,146.81635880000067,,003,P014,2025_Feb_28_1715,CategoryLocalizer,2021.2.3,59.919707591675646,
99.8,100.0,5,0.0,Stimuli\Blank.png,0,0,0,153,153,153,,,,,,,,,,,,,99.82083849999981,0.020838499999811688,None,147.61701820000053,147.61701820000053,147.61701820000053,147.61701820000053,147.61701820000053,147.61701820000053,147.61701820000053,147.61701820000053,,003,P014,2025_Feb_28_1715,CategoryLocalizer,2021.2.3,59.919707591675646,
100.0,100.8,3,0.75,Stimuli\ImageFiles-Set1\Faces\Face_00053.png,0,0,0,154,154,154,,,,,,,,,,,,,100.0056769999992,0.0056769999991956865,None,147.8172281999996,147.8172281999996,147.8172281999996,147.8172281999996,147.8172281999996,147.8172281999996,147.8172281999996,147.8172281999996,,003,P014,2025_Feb_28_1715,CategoryLocalizer,2021.2.3,59.919707591675646,
100.8,101.0,5,0.0,Stimuli\Blank.png,0,0,0,155,155,155,,,,,,,,,,,,,100.82133189999877,0.02133189999877061,None,148.61794910000026,148.61794910000026,148.61794910000026,148.61794910000026,148.61794910000026,148.61794910000026,148.61794910000026,148.61794910000026,,003,P014,2025_Feb_28_1715,CategoryLocalizer,2021.2.3,59.919707591675646,
101.0,101.8,3,0.75,Stimuli\ImageFiles-Set1\Faces\Face_00033.png,1,1,0,156,156,156,,,,,,,,,,,,,101.00516189999871,0.005161899998711306,None,148.8181222000003,148.8181222000003,148.8181222000003,148.8181222000003,148.8181222000003,148.8181222000003,148.8181222000003,148.8181222000003,,003,P014,2025_Feb_28_1715,CategoryLocalizer,2021.2.3,59.919707591675646,
101.8,102.0,5,0.0,Stimuli\Blank.png,0,0,0,157,157,157,,,,,,,,,,,,,101.82214999999997,0.022149999999967918,None,149.61882949999926,149.61882949999926,149.61882949999926,149.61882949999926,149.61882949999926,149.61882949999926,149.61882949999926,149.61882949999926,,003,P014,2025_Feb_28_1715,CategoryLocalizer,2021.2.3,59.919707591675646,
102.0,102.8,3,0.75,Stimuli\ImageFiles-Set1\Faces\Face_00113.png,0,0,0,158,158,158,,,,,,,,,,,,,102.00617819999934,0.006178199999339995,None,149.81899890000022,149.81899890000022,149.81899890000022,149.81899890000022,149.81899890000022,149.81899890000022,149.81899890000022,149.81899890000022,,003,P014,2025_Feb_28_1715,CategoryLocalizer,2021.2.3,59.919707591675646,
102.8,103.0,5,0.0,Stimuli\Blank.png,0,0,0,159,159,159,,,,,,,,,,,,,102.82466049999857,0.024660499998574892,None,150.63638979999996,150.63638979999996,150.63638979999996,150.63638979999996,150.63638979999996,150.63638979999996,150.63638979999996,150.63638979999996,,003,P014,2025_Feb_28_1715,CategoryLocalizer,2021.2.3,59.919707591675646,
103.0,103.8,3,0.75,Stimuli\ImageFiles-Set1\Faces\Face_00113.png,0,0,0,160,160,160,,,,,,,,,,,,,103.02485879999949,0.024858799999492476,1,150.8365732000002,150.8365732000002,150.8365732000002,150.8365732000002,150.8365732000002,150.8365732000002,150.8365732000002,150.8365732000002,0.33324699999866425,003,P014,2025_Feb_28_1715,CategoryLocalizer,2021.2.3,59.919707591675646,
103.8,104.0,5,0.0,Stimuli\Blank.png,0,0,0,161,161,161,,,,,,,,,,,,,103.82505229999879,0.025052299998790772,None,151.6206048999993,151.6206048999993,151.6206048999993,151.6206048999993,151.6206048999993,151.6206048999993,151.6206048999993,151.6206048999993,,003,P014,2025_Feb_28_1715,CategoryLocalizer,2021.2.3,59.919707591675646,
104.0,104.8,1,0.75,Stimuli\ImageFiles-Set1\Objects\Object_Locker_00001.png,0,0,0,162,162,162,,,,,,,,,,,,,104.00999419999971,0.009994199999709963,None,151.82077240000035,151.82077240000035,151.82077240000035,151.82077240000035,151.82077240000035,151.82077240000035,151.82077240000035,151.82077240000035,,003,P014,2025_Feb_28_1715,CategoryLocalizer,2021.2.3,59.919707591675646,
104.8,105.0,5,0.0,Stimuli\Blank.png,0,0,0,163,163,163,,,,,,,,,,,,,104.8255552999999,0.025555299999908243,None,152.6214818999997,152.6214818999997,152.6214818999997,152.6214818999997,152.6214818999997,152.6214818999997,152.6214818999997,152.6214818999997,,003,P014,2025_Feb_28_1715,CategoryLocalizer,2021.2.3,59.919707591675646,
105.0,105.8,1,0.75,Stimuli\ImageFiles-Set1\Objects\Object_Peanut_00001.png,0,0,0,164,164,164,,,,,,,,,,,,,105.00934459999917,0.009344599999167258,None,152.82168789999923,152.82168789999923,152.82168789999923,152.82168789999923,152.82168789999923,152.82168789999923,152.82168789999923,152.82168789999923,,003,P014,2025_Feb_28_1715,CategoryLocalizer,2021.2.3,59.919707591675646,
105.8,106.0,5,0.0,Stimuli\Blank.png,0,0,0,165,165,165,,,,,,,,,,,,,105.82566339999903,0.025663399999032777,None,153.62237260000074,153.62237260000074,153.62237260000074,153.62237260000074,153.62237260000074,153.62237260000074,153.62237260000074,153.62237260000074,,003,P014,2025_Feb_28_1715,CategoryLocalizer,2021.2.3,59.919707591675646,
106.0,106.8,1,0.75,Stimuli\ImageFiles-Set1\Objects\Object_Pillow_00001.png,0,0,0,166,166,166,,,,,,,,,,,,,106.00932749999993,0.009327499999926658,None,153.80585910000082,153.80585910000082,153.80585910000082,153.80585910000082,153.80585910000082,153.80585910000082,153.80585910000082,153.80585910000082,,003,P014,2025_Feb_28_1715,CategoryLocalizer,2021.2.3,59.919707591675646,
106.8,107.0,5,0.0,Stimuli\Blank.png,0,0,0,167,167,167,,,,,,,,,,,,,106.80995269999949,0.00995269999948789,None,154.6065739000005,154.6065739000005,154.6065739000005,154.6065739000005,154.6065739000005,154.6065739000005,154.6065739000005,154.6065739000005,,003,P014,2025_Feb_28_1715,CategoryLocalizer,2021.2.3,59.919707591675646,
107.0,107.8,1,0.75,Stimuli\ImageFiles-Set1\Objects\Object_Shirt_00001.png,0,0,0,168,168,168,,,,,,,,,,,,,107.00985739999851,0.009857399998509209,None,154.82347850000042,154.82347850000042,154.82347850000042,154.82347850000042,154.82347850000042,154.82347850000042,154.82347850000042,154.82347850000042,,003,P014,2025_Feb_28_1715,CategoryLocalizer,2021.2.3,59.919707591675646,
107.8,108.0,5,0.0,Stimuli\Blank.png,0,0,0,169,169,169,,,,,,,,,,,,,107.82955769999899,0.02955769999898905,None,155.64083500000015,155.64083500000015,155.64083500000015,155.64083500000015,155.64083500000015,155.64083500000015,155.64083500000015,155.64083500000015,,003,P014,2025_Feb_28_1715,CategoryLocalizer,2021.2.3,59.919707591675646,
108.0,108.8,1,0.75,Stimuli\ImageFiles-Set1\Objects\Object_Door_00001.png,0,0,0,170,170,170,,,,,,,,,,,,,108.02961559999858,0.029615599998578546,None,155.84102519999942,155.84102519999942,155.84102519999942,155.84102519999942,155.84102519999942,155.84102519999942,155.84102519999942,155.84102519999942,,003,P014,2025_Feb_28_1715,CategoryLocalizer,2021.2.3,59.919707591675646,
108.8,109.0,5,0.0,Stimuli\Blank.png,0,0,0,171,171,171,,,,,,,,,,,,,108.83073030000014,0.030730300000143984,None,156.6419349000007,156.6419349000007,156.6419349000007,156.6419349000007,156.6419349000007,156.6419349000007,156.6419349000007,156.6419349000007,,003,P014,2025_Feb_28_1715,CategoryLocalizer,2021.2.3,59.919707591675646,
109.0,109.8,1,0.75,Stimuli\ImageFiles-Set1\Objects\Object_Oven_00001.png,0,0,0,172,172,172,,,,,,,,,,,,,109.03069009999854,0.030690099998537335,None,156.8419419999991,156.8419419999991,156.8419419999991,156.8419419999991,156.8419419999991,156.8419419999991,156.8419419999991,156.8419419999991,,003,P014,2025_Feb_28_1715,CategoryLocalizer,2021.2.3,59.919707591675646,
109.8,110.0,5,0.0,Stimuli\Blank.png,0,0,0,173,173,173,,,,,,,,,,,,,109.82911999999851,0.02911999999851389,None,157.62590529999943,157.62590529999943,157.62590529999943,157.62590529999943,157.62590529999943,157.62590529999943,157.62590529999943,157.62590529999943,,003,P014,2025_Feb_28_1715,CategoryLocalizer,2021.2.3,59.919707591675646,
110.0,110.8,1,0.75,Stimuli\ImageFiles-Set1\Objects\Object_Scale_00001.png,0,0,0,174,174,174,,,,,,,,,,,,,110.01267430000007,0.012674300000071526,None,157.80939969999963,157.80939969999963,157.80939969999963,157.80939969999963,157.80939969999963,157.80939969999963,157.80939969999963,157.80939969999963,,003,P014,2025_Feb_28_1715,CategoryLocalizer,2021.2.3,59.919707591675646,
110.8,111.0,5,0.0,Stimuli\Blank.png,0,0,0,175,175,175,,,,,,,,,,,,,110.81438739999976,0.014387399999762351,None,158.61010739999983,158.61010739999983,158.61010739999983,158.61010739999983,158.61010739999983,158.61010739999983,158.61010739999983,158.61010739999983,,003,P014,2025_Feb_28_1715,CategoryLocalizer,2021.2.3,59.919707591675646,
111.0,111.8,1,0.75,Stimuli\ImageFiles-Set1\Objects\Object_Scale_00001.png,1,1,0,176,176,176,,,,,,,,,,,,,111.01347439999881,0.013474399998813169,1,158.8102904999996,158.8102904999996,158.8102904999996,158.8102904999996,158.8102904999996,158.8102904999996,158.8102904999996,158.8102904999996,0.38165180000032706,003,P014,2025_Feb_28_1715,CategoryLocalizer,2021.2.3,59.919707591675646,
111.8,112.0,5,0.0,Stimuli\Blank.png,0,0,0,177,177,177,,,,,,,,,,,,,111.8142399999997,0.01423999999970249,None,159.61100219999935,159.61100219999935,159.61100219999935,159.61100219999935,159.61100219999935,159.61100219999935,159.61100219999935,159.61100219999935,,003,P014,2025_Feb_28_1715,CategoryLocalizer,2021.2.3,59.919707591675646,
112.0,112.8,1,0.75,Stimuli\ImageFiles-Set1\Objects\Object_Tool_00001.png,0,0,0,178,178,178,,,,,,,,,,,,,112.0149010999994,0.014901099999406142,None,159.81117470000027,159.81117470000027,159.81117470000027,159.81117470000027,159.81117470000027,159.81117470000027,159.81117470000027,159.81117470000027,,003,P014,2025_Feb_28_1715,CategoryLocalizer,2021.2.3,59.919707591675646,
112.8,113.0,5,0.0,Stimuli\Blank.png,0,0,0,179,179,179,,,,,,,,,,,,,112.81796349999968,0.01796349999968072,None,160.62858939999933,160.62858939999933,160.62858939999933,160.62858939999933,160.62858939999933,160.62858939999933,160.62858939999933,160.62858939999933,,003,P014,2025_Feb_28_1715,CategoryLocalizer,2021.2.3,59.919707591675646,
113.0,113.8,1,0.75,Stimuli\ImageFiles-Set1\Objects\Object_Toilet_00001.png,0,0,0,180,180,180,,,,,,,,,,,,,113.01725559999977,0.01725559999977122,None,160.82875280000007,160.82875280000007,160.82875280000007,160.82875280000007,160.82875280000007,160.82875280000007,160.82875280000007,160.82875280000007,,003,P014,2025_Feb_28_1715,CategoryLocalizer,2021.2.3,59.919707591675646,
113.8,114.0,5,0.0,Stimuli\Blank.png,0,0,0,181,181,181,,,,,,,,,,,,,113.81844349999847,0.018443499998468837,None,161.62946790000024,161.62946790000024,161.62946790000024,161.62946790000024,161.62946790000024,161.62946790000024,161.62946790000024,161.62946790000024,,003,P014,2025_Feb_28_1715,CategoryLocalizer,2021.2.3,59.919707591675646,
114.0,114.8,1,0.75,Stimuli\ImageFiles-Set1\Objects\Object_Matches_00001.png,0,0,0,182,182,182,,,,,,,,,,,,,114.01735009999902,0.01735009999902104,None,161.82963460000065,161.82963460000065,161.82963460000065,161.82963460000065,161.82963460000065,161.82963460000065,161.82963460000065,161.82963460000065,,003,P014,2025_Feb_28_1715,CategoryLocalizer,2021.2.3,59.919707591675646,
114.8,115.0,5,0.0,Stimuli\Blank.png,0,0,0,183,183,183,,,,,,,,,,,,,114.81686889999946,0.016868899999465725,None,162.61370010000064,162.61370010000064,162.61370010000064,162.61370010000064,162.61370010000064,162.61370010000064,162.61370010000064,162.61370010000064,,003,P014,2025_Feb_28_1715,CategoryLocalizer,2021.2.3,59.919707591675646,
115.0,115.8,1,0.75,Stimuli\ImageFiles-Set1\Objects\Object_Wagon_00001.png,0,0,0,184,184,184,,,,,,,,,,,,,115.00238059999901,0.002380599999014521,None,162.8138326999997,162.8138326999997,162.8138326999997,162.8138326999997,162.8138326999997,162.8138326999997,162.8138326999997,162.8138326999997,,003,P014,2025_Feb_28_1715,CategoryLocalizer,2021.2.3,59.919707591675646,
115.8,116.0,5,0.0,Stimuli\Blank.png,0,0,0,185,185,185,,,,,,,,,,,,,115.8200027999992,0.020002799999204512,None,163.61457159999918,163.61457159999918,163.61457159999918,163.61457159999918,163.61457159999918,163.61457159999918,163.61457159999918,163.61457159999918,,003,P014,2025_Feb_28_1715,CategoryLocalizer,2021.2.3,59.919707591675646,
116.0,116.8,1,0.75,Stimuli\ImageFiles-Set1\Objects\Object_Chest_00001.png,0,0,0,186,186,186,,,,,,,,,,,,,116.00205099999948,0.002050999999482883,None,163.81474850000086,163.81474850000086,163.81474850000086,163.81474850000086,163.81474850000086,163.81474850000086,163.81474850000086,163.81474850000086,,003,P014,2025_Feb_28_1715,CategoryLocalizer,2021.2.3,59.919707591675646,
116.8,117.0,5,0.0,Stimuli\Blank.png,0,0,0,187,187,187,,,,,,,,,,,,,116.81915189999927,0.01915189999927236,None,164.61543359999996,164.61543359999996,164.61543359999996,164.61543359999996,164.61543359999996,164.61543359999996,164.61543359999996,164.61543359999996,,003,P014,2025_Feb_28_1715,CategoryLocalizer,2021.2.3,59.919707591675646,
117.0,117.8,1,0.75,Stimuli\ImageFiles-Set1\Objects\Object_TeaBag_00001.png,0,0,0,188,188,188,,,,,,,,,,,,,117.00286349999988,0.002863499999875785,None,164.81560829999944,164.81560829999944,164.81560829999944,164.81560829999944,164.81560829999944,164.81560829999944,164.81560829999944,164.81560829999944,,003,P014,2025_Feb_28_1715,CategoryLocalizer,2021.2.3,59.919707591675646,
117.8,118.0,5,0.0,Stimuli\Blank.png,0,0,0,189,189,189,,,,,,,,,,,,,117.82027329999983,0.020273299999828964,None,165.61637569999948,165.61637569999948,165.61637569999948,165.61637569999948,165.61637569999948,165.61637569999948,165.61637569999948,165.61637569999948,,003,P014,2025_Feb_28_1715,CategoryLocalizer,2021.2.3,59.919707591675646,
118.0,118.8,1,0.75,Stimuli\ImageFiles-Set1\Objects\Object_Baseball_00001.png,0,0,0,190,190,190,,,,,,,,,,,,,118.00350409999919,0.0035040999991906574,None,165.8165179000007,165.8165179000007,165.8165179000007,165.8165179000007,165.8165179000007,165.8165179000007,165.8165179000007,165.8165179000007,,003,P014,2025_Feb_28_1715,CategoryLocalizer,2021.2.3,59.919707591675646,
118.8,119.0,5,0.0,Stimuli\Blank.png,0,0,0,191,191,191,,,,,,,,,,,,,118.82235189999847,0.022351899998469094,None,166.6338895000008,166.6338895000008,166.6338895000008,166.6338895000008,166.6338895000008,166.6338895000008,166.6338895000008,166.6338895000008,,003,P014,2025_Feb_28_1715,CategoryLocalizer,2021.2.3,59.919707591675646,
119.0,119.8,1,0.75,Stimuli\ImageFiles-Set1\Objects\Object_ComputerMouse_00001.png,0,0,0,192,192,192,,,,,,,,,,,,,119.02357239999947,0.023572399999466143,None,166.83405830000083,166.83405830000083,166.83405830000083,166.83405830000083,166.83405830000083,166.83405830000083,166.83405830000083,166.83405830000083,,003,P014,2025_Feb_28_1715,CategoryLocalizer,2021.2.3,59.919707591675646,
119.8,120.0,5,0.0,Stimuli\Blank.png,0,0,0,193,193,193,,,,,,,,,,,,,119.82252329999938,0.022523299999377855,None,167.61808940000083,167.61808940000083,167.61808940000083,167.61808940000083,167.61808940000083,167.61808940000083,167.61808940000083,167.61808940000083,,003,P014,2025_Feb_28_1715,CategoryLocalizer,2021.2.3,59.919707591675646,
120.0,120.8,4,0.75,Stimuli\ImageFiles-Set1\Scenes\Scenes_037.png,0,0,0,194,194,194,,,,,,,,,,,,,120.00750340000013,0.0075034000001323875,None,167.8182639000006,167.8182639000006,167.8182639000006,167.8182639000006,167.8182639000006,167.8182639000006,167.8182639000006,167.8182639000006,,003,P014,2025_Feb_28_1715,CategoryLocalizer,2021.2.3,59.919707591675646,
120.8,121.0,5,0.0,Stimuli\Blank.png,0,0,0,195,195,195,,,,,,,,,,,,,120.82337120000011,0.02337120000011339,None,168.61899070000072,168.61899070000072,168.61899070000072,168.61899070000072,168.61899070000072,168.61899070000072,168.61899070000072,168.61899070000072,,003,P014,2025_Feb_28_1715,CategoryLocalizer,2021.2.3,59.919707591675646,
121.0,121.8,4,0.75,Stimuli\ImageFiles-Set1\Scenes\Scenes_031.png,0,0,0,196,196,196,,,,,,,,,,,,,121.007569899999,0.007569899998998153,None,168.81914309999956,168.81914309999956,168.81914309999956,168.81914309999956,168.81914309999956,168.81914309999956,168.81914309999956,168.81914309999956,,003,P014,2025_Feb_28_1715,CategoryLocalizer,2021.2.3,59.919707591675646,
121.8,122.0,5,0.0,Stimuli\Blank.png,0,0,0,197,197,197,,,,,,,,,,,,,121.82378229999995,0.02378229999995085,None,169.61983650000002,169.61983650000002,169.61983650000002,169.61983650000002,169.61983650000002,169.61983650000002,169.61983650000002,169.61983650000002,,003,P014,2025_Feb_28_1715,CategoryLocalizer,2021.2.3,59.919707591675646,
122.0,122.8,4,0.75,Stimuli\ImageFiles-Set1\Scenes\Scenes_043.png,0,0,0,198,198,198,,,,,,,,,,,,,122.00886419999915,0.008864199999152333,None,169.8200278000004,169.8200278000004,169.8200278000004,169.8200278000004,169.8200278000004,169.8200278000004,169.8200278000004,169.8200278000004,,003,P014,2025_Feb_28_1715,CategoryLocalizer,2021.2.3,59.919707591675646,
122.8,123.0,5,0.0,Stimuli\Blank.png,0,0,0,199,199,199,,,,,,,,,,,,,122.82398469999862,0.023984699998621295,None,170.6207372000008,170.6207372000008,170.6207372000008,170.6207372000008,170.6207372000008,170.6207372000008,170.6207372000008,170.6207372000008,,003,P014,2025_Feb_28_1715,CategoryLocalizer,2021.2.3,59.919707591675646,
123.0,123.8,4,0.75,Stimuli\ImageFiles-Set1\Scenes\Scenes_015.png,0,0,0,200,200,200,,,,,,,,,,,,,123.00806099999863,0.008060999998633633,None,170.82092310000007,170.82092310000007,170.82092310000007,170.82092310000007,170.82092310000007,170.82092310000007,170.82092310000007,170.82092310000007,,003,P014,2025_Feb_28_1715,CategoryLocalizer,2021.2.3,59.919707591675646,
123.8,124.0,5,0.0,Stimuli\Blank.png,0,0,0,201,201,201,,,,,,,,,,,,,123.82543169999917,0.025431699999174384,None,171.62163320000036,171.62163320000036,171.62163320000036,171.62163320000036,171.62163320000036,171.62163320000036,171.62163320000036,171.62163320000036,,003,P014,2025_Feb_28_1715,CategoryLocalizer,2021.2.3,59.919707591675646,
124.0,124.8,4,0.75,Stimuli\ImageFiles-Set1\Scenes\Scenes_011.png,0,0,0,202,202,202,,,,,,,,,,,,,124.00948160000007,0.009481600000071921,None,171.82180359999984,171.82180359999984,171.82180359999984,171.82180359999984,171.82180359999984,171.82180359999984,171.82180359999984,171.82180359999984,,003,P014,2025_Feb_28_1715,CategoryLocalizer,2021.2.3,59.919707591675646,
124.8,125.0,5,0.0,Stimuli\Blank.png,0,0,0,203,203,203,,,,,,,,,,,,,124.82583499999964,0.025834999999645447,None,172.62251359999937,172.62251359999937,172.62251359999937,172.62251359999937,172.62251359999937,172.62251359999937,172.62251359999937,172.62251359999937,,003,P014,2025_Feb_28_1715,CategoryLocalizer,2021.2.3,59.919707591675646,
125.0,125.8,4,0.75,Stimuli\ImageFiles-Set1\Scenes\Scenes_054.png,0,0,0,204,204,204,,,,,,,,,,,,,125.01020909999897,0.010209099998974125,None,172.8393873999994,172.8393873999994,172.8393873999994,172.8393873999994,172.8393873999994,172.8393873999994,172.8393873999994,172.8393873999994,,003,P014,2025_Feb_28_1715,CategoryLocalizer,2021.2.3,59.919707591675646,
125.8,126.0,5,0.0,Stimuli\Blank.png,0,0,0,205,205,205,,,,,,,,,,,,,125.84408529999928,0.04408529999928135,None,173.64009869999973,173.64009869999973,173.64009869999973,173.64009869999973,173.64009869999973,173.64009869999973,173.64009869999973,173.64009869999973,,003,P014,2025_Feb_28_1715,CategoryLocalizer,2021.2.3,59.919707591675646,
126.0,126.8,4,0.75,Stimuli\ImageFiles-Set1\Scenes\Scenes_047.png,0,0,0,206,206,206,,,,,,,,,,,,,126.01022209999974,0.010222099999737111,None,173.8235963999996,173.8235963999996,173.8235963999996,173.8235963999996,173.8235963999996,173.8235963999996,173.8235963999996,173.8235963999996,,003,P014,2025_Feb_28_1715,CategoryLocalizer,2021.2.3,59.919707591675646,
126.8,127.0,5,0.0,Stimuli\Blank.png,0,0,0,207,207,207,,,,,,,,,,,,,126.82961759999853,0.029617599998530864,None,174.64099700000043,174.64099700000043,174.64099700000043,174.64099700000043,174.64099700000043,174.64099700000043,174.64099700000043,174.64099700000043,,003,P014,2025_Feb_28_1715,CategoryLocalizer,2021.2.3,59.919707591675646,
127.0,127.8,4,0.75,Stimuli\ImageFiles-Set1\Scenes\Scenes_022.png,0,0,0,208,208,208,,,,,,,,,,,,,127.03047599999991,0.0304759999999078,None,174.84128649999911,174.84128649999911,174.84128649999911,174.84128649999911,174.84128649999911,174.84128649999911,174.84128649999911,174.84128649999911,,003,P014,2025_Feb_28_1715,CategoryLocalizer,2021.2.3,59.919707591675646,
127.8,128.0,5,0.0,Stimuli\Blank.png,0,0,0,209,209,209,,,,,,,,,,,,,127.82964809999976,0.029648099999761257,None,175.62518420000015,175.62518420000015,175.62518420000015,175.62518420000015,175.62518420000015,175.62518420000015,175.62518420000015,175.62518420000015,,003,P014,2025_Feb_28_1715,CategoryLocalizer,2021.2.3,59.919707591675646,
128.0,128.8,4,0.75,Stimuli\ImageFiles-Set1\Scenes\Scenes_012.png,0,0,0,210,210,210,,,,,,,,,,,,,128.01424229999975,0.014242299999750685,None,175.82535459999963,175.82535459999963,175.82535459999963,175.82535459999963,175.82535459999963,175.82535459999963,175.82535459999963,175.82535459999963,,003,P014,2025_Feb_28_1715,CategoryLocalizer,2021.2.3,59.919707591675646,
128.8,129.0,5,0.0,Stimuli\Blank.png,0,0,0,211,211,211,,,,,,,,,,,,,128.83025899999848,0.030258999998466152,None,176.62606179999966,176.62606179999966,176.62606179999966,176.62606179999966,176.62606179999966,176.62606179999966,176.62606179999966,176.62606179999966,,003,P014,2025_Feb_28_1715,CategoryLocalizer,2021.2.3,59.919707591675646,
129.0,129.8,4,0.75,Stimuli\ImageFiles-Set1\Scenes\Scenes_046.png,0,0,0,212,212,212,,,,,,,,,,,,,129.0139965999988,0.01399659999879077,None,176.82623140000032,176.82623140000032,176.82623140000032,176.82623140000032,176.82623140000032,176.82623140000032,176.82623140000032,176.82623140000032,,003,P014,2025_Feb_28_1715,CategoryLocalizer,2021.2.3,59.919707591675646,
129.8,130.0,5,0.0,Stimuli\Blank.png,0,0,0,213,213,213,,,,,,,,,,,,,129.830680699999,0.03068069999898171,None,177.62695200000053,177.62695200000053,177.62695200000053,177.62695200000053,177.62695200000053,177.62695200000053,177.62695200000053,177.62695200000053,,003,P014,2025_Feb_28_1715,CategoryLocalizer,2021.2.3,59.919707591675646,
130.0,130.8,4,0.75,Stimuli\ImageFiles-Set1\Scenes\Scenes_019.png,0,0,0,214,214,214,,,,,,,,,,,,,130.01374549999855,0.013745499998549349,None,177.8104373999995,177.8104373999995,177.8104373999995,177.8104373999995,177.8104373999995,177.8104373999995,177.8104373999995,177.8104373999995,,003,P014,2025_Feb_28_1715,CategoryLocalizer,2021.2.3,59.919707591675646,
130.8,131.0,5,0.0,Stimuli\Blank.png,0,0,0,215,215,215,,,,,,,,,,,,,130.8149130999991,0.014913099999091628,None,178.61114380000072,178.61114380000072,178.61114380000072,178.61114380000072,178.61114380000072,178.61114380000072,178.61114380000072,178.61114380000072,,003,P014,2025_Feb_28_1715,CategoryLocalizer,2021.2.3,59.919707591675646,
131.0,131.8,4,0.75,Stimuli\ImageFiles-Set1\Scenes\Scenes_033.png,0,0,0,216,216,216,,,,,,,,,,,,,131.01553819999936,0.015538199999355129,None,178.82800710000083,178.82800710000083,178.82800710000083,178.82800710000083,178.82800710000083,178.82800710000083,178.82800710000083,178.82800710000083,,003,P014,2025_Feb_28_1715,CategoryLocalizer,2021.2.3,59.919707591675646,
131.8,132.0,5,0.0,Stimuli\Blank.png,0,0,0,217,217,217,,,,,,,,,,,,,131.8157539999993,0.015753999999276402,None,179.61203989999922,179.61203989999922,179.61203989999922,179.61203989999922,179.61203989999922,179.61203989999922,179.61203989999922,179.61203989999922,,003,P014,2025_Feb_28_1715,CategoryLocalizer,2021.2.3,59.919707591675646,
132.0,132.8,4,0.75,Stimuli\ImageFiles-Set1\Scenes\Scenes_045.png,0,0,0,218,218,218,,,,,,,,,,,,,132.00068229999852,0.0006822999985161005,None,179.81220329999996,179.81220329999996,179.81220329999996,179.81220329999996,179.81220329999996,179.81220329999996,179.81220329999996,179.81220329999996,,003,P014,2025_Feb_28_1715,CategoryLocalizer,2021.2.3,59.919707591675646,
132.8,133.0,5,0.0,Stimuli\Blank.png,0,0,0,219,219,219,,,,,,,,,,,,,132.8161259999997,0.016125999999701435,None,180.6129123999999,180.6129123999999,180.6129123999999,180.6129123999999,180.6129123999999,180.6129123999999,180.6129123999999,180.6129123999999,,003,P014,2025_Feb_28_1715,CategoryLocalizer,2021.2.3,59.919707591675646,
133.0,133.8,4,0.75,Stimuli\ImageFiles-Set1\Scenes\Scenes_036.png,0,0,0,220,220,220,,,,,,,,,,,,,133.00168639999902,0.0016863999990164302,None,180.8130928999999,180.8130928999999,180.8130928999999,180.8130928999999,180.8130928999999,180.8130928999999,180.8130928999999,180.8130928999999,,003,P014,2025_Feb_28_1715,CategoryLocalizer,2021.2.3,59.919707591675646,
133.8,134.0,5,0.0,Stimuli\Blank.png,0,0,0,221,221,221,,,,,,,,,,,,,133.8170855999997,0.01708559999968884,None,181.61379999999917,181.61379999999917,181.61379999999917,181.61379999999917,181.61379999999917,181.61379999999917,181.61379999999917,181.61379999999917,,003,P014,2025_Feb_28_1715,CategoryLocalizer,2021.2.3,59.919707591675646,
134.0,134.8,4,0.75,Stimuli\ImageFiles-Set1\Scenes\Scenes_036.png,1,1,0,222,222,222,,,,,,,,,,,,,134.00112679999984,0.0011267999998381129,1,181.81398470000022,181.81398470000022,181.81398470000022,181.81398470000022,181.81398470000022,181.81398470000022,181.81398470000022,181.81398470000022,0.37389749999965716,003,P014,2025_Feb_28_1715,CategoryLocalizer,2021.2.3,59.919707591675646,
134.8,135.0,5,0.0,Stimuli\Blank.png,0,0,0,223,223,223,,,,,,,,,,,,,134.81838999999854,0.018389999998532858,None,182.61467959999936,182.61467959999936,182.61467959999936,182.61467959999936,182.61467959999936,182.61467959999936,182.61467959999936,182.61467959999936,,003,P014,2025_Feb_28_1715,CategoryLocalizer,2021.2.3,59.919707591675646,
135.0,135.8,4,0.75,Stimuli\ImageFiles-Set1\Scenes\Scenes_014.png,0,0,0,224,224,224,,,,,,,,,,,,,135.00183399999878,0.0018339999987802003,None,182.79817720000028,182.79817720000028,182.79817720000028,182.79817720000028,182.79817720000028,182.79817720000028,182.79817720000028,182.79817720000028,,003,P014,2025_Feb_28_1715,CategoryLocalizer,2021.2.3,59.919707591675646,
135.8,136.0,5,0.0,Stimuli\Blank.png,0,0,0,225,225,225,,,,,,,,,,,,,135.80215989999851,0.0021598999985030787,None,183.59888900000078,183.59888900000078,183.59888900000078,183.59888900000078,183.59888900000078,183.59888900000078,183.59888900000078,183.59888900000078,,003,P014,2025_Feb_28_1715,CategoryLocalizer,2021.2.3,59.919707591675646,
136.0,136.8,2,0.75,Stimuli\ImageFiles-Set1\Bodies\Bodies_Waving_00007.png,0,0,0,226,226,226,,,,,,,,,,,,,136.0033696999999,0.0033696999998937827,None,183.8157527000003,183.8157527000003,183.8157527000003,183.8157527000003,183.8157527000003,183.8157527000003,183.8157527000003,183.8157527000003,,003,P014,2025_Feb_28_1715,CategoryLocalizer,2021.2.3,59.919707591675646,
136.8,137.0,5,0.0,Stimuli\Blank.png,0,0,0,227,227,227,,,,,,,,,,,,,136.8214909999988,0.02149099999877535,None,184.63314340000034,184.63314340000034,184.63314340000034,184.63314340000034,184.63314340000034,184.63314340000034,184.63314340000034,184.63314340000034,,003,P014,2025_Feb_28_1715,CategoryLocalizer,2021.2.3,59.919707591675646,
137.0,137.8,2,0.75,Stimuli\ImageFiles-Set1\Bodies\Bodies_CobraPose_00005.png,0,0,0,228,228,228,,,,,,,,,,,,,137.0203548999998,0.020354899999802,None,184.8166254000007,184.8166254000007,184.8166254000007,184.8166254000007,184.8166254000007,184.8166254000007,184.8166254000007,184.8166254000007,,003,P014,2025_Feb_28_1715,CategoryLocalizer,2021.2.3,59.919707591675646,
137.8,138.0,5,0.0,Stimuli\Blank.png,0,0,0,229,229,229,,,,,,,,,,,,,137.80396739999924,0.003967399999226018,None,185.60066030000053,185.60066030000053,185.60066030000053,185.60066030000053,185.60066030000053,185.60066030000053,185.60066030000053,185.60066030000053,,003,P014,2025_Feb_28_1715,CategoryLocalizer,2021.2.3,59.919707591675646,
138.0,138.8,2,0.75,Stimuli\ImageFiles-Set1\Bodies\Bodies_Walking_00002.png,0,0,0,230,230,230,,,,,,,,,,,,,138.00659559999986,0.00659559999985504,None,185.81754639999963,185.81754639999963,185.81754639999963,185.81754639999963,185.81754639999963,185.81754639999963,185.81754639999963,185.81754639999963,,003,P014,2025_Feb_28_1715,CategoryLocalizer,2021.2.3,59.919707591675646,
138.8,139.0,5,0.0,Stimuli\Blank.png,0,0,0,231,231,231,,,,,,,,,,,,,138.821595899999,0.021595899998999357,None,186.61822829999983,186.61822829999983,186.61822829999983,186.61822829999983,186.61822829999983,186.61822829999983,186.61822829999983,186.61822829999983,,003,P014,2025_Feb_28_1715,CategoryLocalizer,2021.2.3,59.919707591675646,
139.0,139.8,2,0.75,Stimuli\ImageFiles-Set1\Bodies\Bodies_SittingStretch_00002.png,0,0,0,232,232,232,,,,,,,,,,,,,139.00530269999945,0.0053026999994472135,None,186.80172130000028,186.80172130000028,186.80172130000028,186.80172130000028,186.80172130000028,186.80172130000028,186.80172130000028,186.80172130000028,,003,P014,2025_Feb_28_1715,CategoryLocalizer,2021.2.3,59.919707591675646,
139.8,140.0,5,0.0,Stimuli\Blank.png,0,0,0,233,233,233,,,,,,,,,,,,,139.80661839999993,0.006618399999922531,None,187.60246290000032,187.60246290000032,187.60246290000032,187.60246290000032,187.60246290000032,187.60246290000032,187.60246290000032,187.60246290000032,,003,P014,2025_Feb_28_1715,CategoryLocalizer,2021.2.3,59.919707591675646,
140.0,140.8,2,0.75,Stimuli\ImageFiles-Set1\Bodies\Bodies_Lunging_00004.png,0,0,0,234,234,234,,,,,,,,,,,,,140.00704289999885,0.007042899998850771,None,187.8192885999997,187.8192885999997,187.8192885999997,187.8192885999997,187.8192885999997,187.8192885999997,187.8192885999997,187.8192885999997,,003,P014,2025_Feb_28_1715,CategoryLocalizer,2021.2.3,59.919707591675646,
140.8,141.0,5,0.0,Stimuli\Blank.png,0,0,0,235,235,235,,,,,,,,,,,,,140.82312039999852,0.023120399998504126,None,188.62000590000025,188.62000590000025,188.62000590000025,188.62000590000025,188.62000590000025,188.62000590000025,188.62000590000025,188.62000590000025,,003,P014,2025_Feb_28_1715,CategoryLocalizer,2021.2.3,59.919707591675646,
141.0,141.8,2,0.75,Stimuli\ImageFiles-Set1\Bodies\Bodies_Punching_00001.png,0,0,0,236,236,236,,,,,,,,,,,,,141.0066165999997,0.006616599999688333,None,188.80348980000053,188.80348980000053,188.80348980000053,188.80348980000053,188.80348980000053,188.80348980000053,188.80348980000053,188.80348980000053,,003,P014,2025_Feb_28_1715,CategoryLocalizer,2021.2.3,59.919707591675646,
141.8,142.0,5,0.0,Stimuli\Blank.png,0,0,0,237,237,237,,,,,,,,,,,,,141.8088431999986,0.008843199998580076,None,189.6042182000001,189.6042182000001,189.6042182000001,189.6042182000001,189.6042182000001,189.6042182000001,189.6042182000001,189.6042182000001,,003,P014,2025_Feb_28_1715,CategoryLocalizer,2021.2.3,59.919707591675646,
142.0,142.8,2,0.75,Stimuli\ImageFiles-Set1\Bodies\Bodies_Punching_00001.png,1,1,0,238,238,238,,,,,,,,,,,,,142.00823519999904,0.008235199999035103,1,189.8043761000008,189.8043761000008,189.8043761000008,189.8043761000008,189.8043761000008,189.8043761000008,189.8043761000008,189.8043761000008,0.40966410000146425,003,P014,2025_Feb_28_1715,CategoryLocalizer,2021.2.3,59.919707591675646,
142.8,143.0,5,0.0,Stimuli\Blank.png,0,0,0,239,239,239,,,,,,,,,,,,,142.8089401999987,0.008940199998676235,None,190.6050997000002,190.6050997000002,190.6050997000002,190.6050997000002,190.6050997000002,190.6050997000002,190.6050997000002,190.6050997000002,,003,P014,2025_Feb_28_1715,CategoryLocalizer,2021.2.3,59.919707591675646,
143.0,143.8,2,0.75,Stimuli\ImageFiles-Set1\Bodies\Bodies_PushUp_00002.png,0,0,0,240,240,240,,,,,,,,,,,,,143.00905499999863,0.009054999998625135,None,190.82195560000036,190.82195560000036,190.82195560000036,190.82195560000036,190.82195560000036,190.82195560000036,190.82195560000036,190.82195560000036,,003,P014,2025_Feb_28_1715,CategoryLocalizer,2021.2.3,59.919707591675646,
143.8,144.0,5,0.0,Stimuli\Blank.png,0,0,0,241,241,241,,,,,,,,,,,,,143.82770789999995,0.027707899999938945,None,191.63936739999917,191.63936739999917,191.63936739999917,191.63936739999917,191.63936739999917,191.63936739999917,191.63936739999917,191.63936739999917,,003,P014,2025_Feb_28_1715,CategoryLocalizer,2021.2.3,59.919707591675646,
144.0,144.8,2,0.75,Stimuli\ImageFiles-Set1\Bodies\Bodies_DownwardDog_00006.png,0,0,0,242,242,242,,,,,,,,,,,,,144.02663229999962,0.026632299999619136,None,191.82281209999928,191.82281209999928,191.82281209999928,191.82281209999928,191.82281209999928,191.82281209999928,191.82281209999928,191.82281209999928,,003,P014,2025_Feb_28_1715,CategoryLocalizer,2021.2.3,59.919707591675646,
144.8,145.0,5,0.0,Stimuli\Blank.png,0,0,0,243,243,243,,,,,,,,,,,,,144.81067939999957,0.010679399999560246,None,192.60687359999974,192.60687359999974,192.60687359999974,192.60687359999974,192.60687359999974,192.60687359999974,192.60687359999974,192.60687359999974,,003,P014,2025_Feb_28_1715,CategoryLocalizer,2021.2.3,59.919707591675646,
145.0,145.8,2,0.75,Stimuli\ImageFiles-Set1\Bodies\Bodies_Standing_00007.png,0,0,0,244,244,244,,,,,,,,,,,,,145.0108285999995,0.010828599999513244,None,192.8237277999997,192.8237277999997,192.8237277999997,192.8237277999997,192.8237277999997,192.8237277999997,192.8237277999997,192.8237277999997,,003,P014,2025_Feb_28_1715,CategoryLocalizer,2021.2.3,59.919707591675646,
145.8,146.0,5,0.0,Stimuli\Blank.png,0,0,0,245,245,245,,,,,,,,,,,,,145.82767710000007,0.027677100000062183,None,193.62442720000035,193.62442720000035,193.62442720000035,193.62442720000035,193.62442720000035,193.62442720000035,193.62442720000035,193.62442720000035,,003,P014,2025_Feb_28_1715,CategoryLocalizer,2021.2.3,59.919707591675646,
146.0,146.8,2,0.75,Stimuli\ImageFiles-Set1\Bodies\Bodies_Lunging_00001.png,0,0,0,246,246,246,,,,,,,,,,,,,146.01167999999961,0.011679999999614665,None,193.8246409000003,193.8246409000003,193.8246409000003,193.8246409000003,193.8246409000003,193.8246409000003,193.8246409000003,193.8246409000003,,003,P014,2025_Feb_28_1715,CategoryLocalizer,2021.2.3,59.919707591675646,
146.8,147.0,5,0.0,Stimuli\Blank.png,0,0,0,247,247,247,,,,,,,,,,,,,146.83139999999912,0.031399999999109696,None,194.64200820000042,194.64200820000042,194.64200820000042,194.64200820000042,194.64200820000042,194.64200820000042,194.64200820000042,194.64200820000042,,003,P014,2025_Feb_28_1715,CategoryLocalizer,2021.2.3,59.919707591675646,
147.0,147.8,2,0.75,Stimuli\ImageFiles-Set1\Bodies\Bodies_QuadStretch_00003.png,0,0,0,248,248,248,,,,,,,,,,,,,147.02925629999845,0.02925629999845114,None,194.8254925000001,194.8254925000001,194.8254925000001,194.8254925000001,194.8254925000001,194.8254925000001,194.8254925000001,194.8254925000001,,003,P014,2025_Feb_28_1715,CategoryLocalizer,2021.2.3,59.919707591675646,
147.8,148.0,5,0.0,Stimuli\Blank.png,0,0,0,249,249,249,,,,,,,,,,,,,147.81336740000006,0.013367400000049656,None,195.60952890000044,195.60952890000044,195.60952890000044,195.60952890000044,195.60952890000044,195.60952890000044,195.60952890000044,195.60952890000044,,003,P014,2025_Feb_28_1715,CategoryLocalizer,2021.2.3,59.919707591675646,
148.0,148.8,2,0.75,Stimuli\ImageFiles-Set1\Bodies\Bodies_Running_00006.png,1,1,0,250,250,250,,,,,,,,,,,,,148.01289539999925,0.012895399999251822,None,195.82645290000073,195.82645290000073,195.82645290000073,195.82645290000073,195.82645290000073,195.82645290000073,195.82645290000073,195.82645290000073,,003,P014,2025_Feb_28_1715,CategoryLocalizer,2021.2.3,59.919707591675646,
148.8,149.0,5,0.0,Stimuli\Blank.png,0,0,0,251,251,251,,,,,,,,,,,,,148.83029429999988,0.030294299999866325,None,196.62708799999928,196.62708799999928,196.62708799999928,196.62708799999928,196.62708799999928,196.62708799999928,196.62708799999928,196.62708799999928,,003,P014,2025_Feb_28_1715,CategoryLocalizer,2021.2.3,59.919707591675646,
149.0,149.8,2,0.75,Stimuli\ImageFiles-Set1\Bodies\Bodies_Walking_00006.png,0,0,0,252,252,252,,,,,,,,,,,,,149.01501749999989,0.015017499999885331,None,196.81058529999973,196.81058529999973,196.81058529999973,196.81058529999973,196.81058529999973,196.81058529999973,196.81058529999973,196.81058529999973,,003,P014,2025_Feb_28_1715,CategoryLocalizer,2021.2.3,59.919707591675646,
149.8,150.0,5,0.0,Stimuli\Blank.png,0,0,0,253,253,253,,,,,,,,,,,,,149.79836299999988,-0.0016370000001302287,None,197.59467640000003,197.59467640000003,197.59467640000003,197.59467640000003,197.59467640000003,197.59467640000003,197.59467640000003,197.59467640000003,,003,P014,2025_Feb_28_1715,CategoryLocalizer,2021.2.3,59.919707591675646,
150.0,150.8,2,0.75,Stimuli\ImageFiles-Set1\Bodies\Bodies_Walking_00006.png,0,0,0,254,254,254,,,,,,,,,,,,,150.0153455999989,0.015345599998909165,1,197.81147330000022,197.81147330000022,197.81147330000022,197.81147330000022,197.81147330000022,197.81147330000022,197.81147330000022,197.81147330000022,0.36185889999978826,003,P014,2025_Feb_28_1715,CategoryLocalizer,2021.2.3,59.919707591675646,
150.8,151.0,5,0.0,Stimuli\Blank.png,0,0,0,255,255,255,,,,,,,,,,,,,150.80160999999862,0.0016099999986067814,None,198.61218069999995,198.61218069999995,198.61218069999995,198.61218069999995,198.61218069999995,198.61218069999995,198.61218069999995,198.61218069999995,,003,P014,2025_Feb_28_1715,CategoryLocalizer,2021.2.3,59.919707591675646,
151.0,151.8,2,0.75,Stimuli\ImageFiles-Set1\Bodies\Bodies_Kicking_00003.png,0,0,0,256,256,256,,,,,,,,,,,,,151.01558889999978,0.01558889999978419,None,198.8123531000001,198.8123531000001,198.8123531000001,198.8123531000001,198.8123531000001,198.8123531000001,198.8123531000001,198.8123531000001,,003,P014,2025_Feb_28_1715,CategoryLocalizer,2021.2.3,59.919707591675646,
151.8,152.0,5,0.0,Stimuli\Blank.png,0,0,0,257,257,257,,,,,,,,,,,,,151.79958540000007,-0.0004145999999423111,None,199.5963738999999,199.5963738999999,199.5963738999999,199.5963738999999,199.5963738999999,199.5963738999999,199.5963738999999,199.5963738999999,,003,P014,2025_Feb_28_1715,CategoryLocalizer,2021.2.3,59.919707591675646,
152.0,164.0,0,0.0,Stimuli\Blank.png,0,0,0,258,258,258,,,,,,,,,,,,,152.00104629999987,0.0010462999998708256,None,199.79656160000013,199.79656160000013,199.79656160000013,199.79656160000013,199.79656160000013,199.79656160000013,199.79656160000013,199.79656160000013,,003,P014,2025_Feb_28_1715,CategoryLocalizer,2021.2.3,59.919707591675646,
164.0,164.8,4,0.75,Stimuli\ImageFiles-Set1\Scenes\Scenes_023.png,0,0,0,259,259,259,,,,,,,,,,,,,164.01100469999983,0.011004699999830336,None,211.8238841000002,211.8238841000002,211.8238841000002,211.8238841000002,211.8238841000002,211.8238841000002,211.8238841000002,211.8238841000002,,003,P014,2025_Feb_28_1715,CategoryLocalizer,2021.2.3,59.919707591675646,
164.8,165.0,5,0.0,Stimuli\Blank.png,0,0,0,260,260,260,,,,,,,,,,,,,164.8280251999986,0.028025199998580774,None,212.62457859999995,212.62457859999995,212.62457859999995,212.62457859999995,212.62457859999995,212.62457859999995,212.62457859999995,212.62457859999995,,003,P014,2025_Feb_28_1715,CategoryLocalizer,2021.2.3,59.919707591675646,
165.0,165.8,4,0.75,Stimuli\ImageFiles-Set1\Scenes\Scenes_051.png,0,0,0,261,261,261,,,,,,,,,,,,,165.01221729999997,0.012217299999974784,None,212.82475850000083,212.82475850000083,212.82475850000083,212.82475850000083,212.82475850000083,212.82475850000083,212.82475850000083,212.82475850000083,,003,P014,2025_Feb_28_1715,CategoryLocalizer,2021.2.3,59.919707591675646,
165.8,166.0,5,0.0,Stimuli\Blank.png,0,0,0,262,262,262,,,,,,,,,,,,,165.82980719999978,0.029807199999766,None,213.62546920000023,213.62546920000023,213.62546920000023,213.62546920000023,213.62546920000023,213.62546920000023,213.62546920000023,213.62546920000023,,003,P014,2025_Feb_28_1715,CategoryLocalizer,2021.2.3,59.919707591675646,
166.0,166.8,4,0.75,Stimuli\ImageFiles-Set1\Scenes\Scenes_051.png,1,1,0,263,263,263,,,,,,,,,,,,,166.01328889999968,0.013288899999679415,None,213.82564479999928,213.82564479999928,213.82564479999928,213.82564479999928,213.82564479999928,213.82564479999928,213.82564479999928,213.82564479999928,,003,P014,2025_Feb_28_1715,CategoryLocalizer,2021.2.3,59.919707591675646,
166.8,167.0,5,0.0,Stimuli\Blank.png,0,0,0,264,264,264,,,,,,,,,,,,,166.82975739999893,0.029757399998914025,None,214.62636120000025,214.62636120000025,214.62636120000025,214.62636120000025,214.62636120000025,214.62636120000025,214.62636120000025,214.62636120000025,,003,P014,2025_Feb_28_1715,CategoryLocalizer,2021.2.3,59.919707591675646,
167.0,167.8,4,0.75,Stimuli\ImageFiles-Set1\Scenes\Scenes_034.png,0,0,0,265,265,265,,,,,,,,,,,,,167.01352049999878,0.013520499998776359,None,214.80984060000083,214.80984060000083,214.80984060000083,214.80984060000083,214.80984060000083,214.80984060000083,214.80984060000083,214.80984060000083,,003,P014,2025_Feb_28_1715,CategoryLocalizer,2021.2.3,59.919707591675646,
167.8,168.0,5,0.0,Stimuli\Blank.png,0,0,0,266,266,266,,,,,,,,,,,,,167.81384789999902,0.01384789999900704,None,215.61054970000077,215.61054970000077,215.61054970000077,215.61054970000077,215.61054970000077,215.61054970000077,215.61054970000077,215.61054970000077,,003,P014,2025_Feb_28_1715,CategoryLocalizer,2021.2.3,59.919707591675646,
168.0,168.8,4,0.75,Stimuli\ImageFiles-Set1\Scenes\Scenes_002.png,0,0,0,267,267,267,,,,,,,,,,,,,168.0145253999999,0.014525399999911315,None,215.81072270000004,215.81072270000004,215.81072270000004,215.81072270000004,215.81072270000004,215.81072270000004,215.81072270000004,215.81072270000004,,003,P014,2025_Feb_28_1715,CategoryLocalizer,2021.2.3,59.919707591675646,
168.8,169.0,5,0.0,Stimuli\Blank.png,0,0,0,268,268,268,,,,,,,,,,,,,168.81462289999945,0.014622899999437777,None,216.6114448999997,216.6114448999997,216.6114448999997,216.6114448999997,216.6114448999997,216.6114448999997,216.6114448999997,216.6114448999997,,003,P014,2025_Feb_28_1715,CategoryLocalizer,2021.2.3,59.919707591675646,
169.0,169.8,4,0.75,Stimuli\ImageFiles-Set1\Scenes\Scenes_044.png,0,0,0,269,269,269,,,,,,,,,,,,,169.0174079999997,0.01740799999970477,None,216.8282995999998,216.8282995999998,216.8282995999998,216.8282995999998,216.8282995999998,216.8282995999998,216.8282995999998,216.8282995999998,,003,P014,2025_Feb_28_1715,CategoryLocalizer,2021.2.3,59.919707591675646,
169.8,170.0,5,0.0,Stimuli\Blank.png,0,0,0,270,270,270,,,,,,,,,,,,,169.81778699999995,0.0177869999999416,None,217.62903369999913,217.62903369999913,217.62903369999913,217.62903369999913,217.62903369999913,217.62903369999913,217.62903369999913,217.62903369999913,,003,P014,2025_Feb_28_1715,CategoryLocalizer,2021.2.3,59.919707591675646,
170.0,170.8,4,0.75,Stimuli\ImageFiles-Set1\Scenes\Scenes_049.png,0,0,0,271,271,271,,,,,,,,,,,,,170.0163689000001,0.016368900000088615,None,217.82918769999924,217.82918769999924,217.82918769999924,217.82918769999924,217.82918769999924,217.82918769999924,217.82918769999924,217.82918769999924,,003,P014,2025_Feb_28_1715,CategoryLocalizer,2021.2.3,59.919707591675646,
170.8,171.0,5,0.0,Stimuli\Blank.png,0,0,0,272,272,272,,,,,,,,,,,,,170.8164087999994,0.016408799999396706,None,218.61325270000088,218.61325270000088,218.61325270000088,218.61325270000088,218.61325270000088,218.61325270000088,218.61325270000088,218.61325270000088,,003,P014,2025_Feb_28_1715,CategoryLocalizer,2021.2.3,59.919707591675646,
171.0,171.8,4,0.75,Stimuli\ImageFiles-Set1\Scenes\Scenes_007.png,0,0,0,273,273,273,,,,,,,,,,,,,171.00241259999893,0.002412599998933729,None,218.81339040000057,218.81339040000057,218.81339040000057,218.81339040000057,218.81339040000057,218.81339040000057,218.81339040000057,218.81339040000057,,003,P014,2025_Feb_28_1715,CategoryLocalizer,2021.2.3,59.919707591675646,
171.8,172.0,5,0.0,Stimuli\Blank.png,0,0,0,274,274,274,,,,,,,,,,,,,171.81787590000022,0.017875900000206002,None,219.6141023,219.6141023,219.6141023,219.6141023,219.6141023,219.6141023,219.6141023,219.6141023,,003,P014,2025_Feb_28_1715,CategoryLocalizer,2021.2.3,59.919707591675646,
172.0,172.8,4,0.75,Stimuli\ImageFiles-Set1\Scenes\Scenes_009.png,0,0,0,275,275,275,,,,,,,,,,,,,172.00338489999922,0.00338489999921876,None,219.81431349999912,219.81431349999912,219.81431349999912,219.81431349999912,219.81431349999912,219.81431349999912,219.81431349999912,219.81431349999912,,003,P014,2025_Feb_28_1715,CategoryLocalizer,2021.2.3,59.919707591675646,
172.8,173.0,5,0.0,Stimuli\Blank.png,0,0,0,276,276,276,,,,,,,,,,,,,172.81904779999968,0.01904779999966877,None,220.61498240000037,220.61498240000037,220.61498240000037,220.61498240000037,220.61498240000037,220.61498240000037,220.61498240000037,220.61498240000037,,003,P014,2025_Feb_28_1715,CategoryLocalizer,2021.2.3,59.919707591675646,
173.0,173.8,4,0.75,Stimuli\ImageFiles-Set1\Scenes\Scenes_005.png,1,1,0,277,277,277,,,,,,,,,,,,,173.00244229999953,0.002442299999529496,None,220.81515039999977,220.81515039999977,220.81515039999977,220.81515039999977,220.81515039999977,220.81515039999977,220.81515039999977,220.81515039999977,,003,P014,2025_Feb_28_1715,CategoryLocalizer,2021.2.3,59.919707591675646,
173.8,174.0,5,0.0,Stimuli\Blank.png,0,0,0,278,278,278,,,,,,,,,,,,,173.81917059999978,0.019170599999768,None,221.61586510000052,221.61586510000052,221.61586510000052,221.61586510000052,221.61586510000052,221.61586510000052,221.61586510000052,221.61586510000052,,003,P014,2025_Feb_28_1715,CategoryLocalizer,2021.2.3,59.919707591675646,
174.0,174.8,4,0.75,Stimuli\ImageFiles-Set1\Scenes\Scenes_006.png,0,0,0,279,279,279,,,,,,,,,,,,,174.00271629999952,0.0027162999995198334,None,221.81604719999996,221.81604719999996,221.81604719999996,221.81604719999996,221.81604719999996,221.81604719999996,221.81604719999996,221.81604719999996,,003,P014,2025_Feb_28_1715,CategoryLocalizer,2021.2.3,59.919707591675646,
174.8,175.0,5,0.0,Stimuli\Blank.png,0,0,0,280,280,280,,,,,,,,,,,,,174.8199808999998,0.019980899999779922,None,222.61674850000054,222.61674850000054,222.61674850000054,222.61674850000054,222.61674850000054,222.61674850000054,222.61674850000054,222.61674850000054,,003,P014,2025_Feb_28_1715,CategoryLocalizer,2021.2.3,59.919707591675646,
175.0,175.8,4,0.75,Stimuli\ImageFiles-Set1\Scenes\Scenes_006.png,0,0,0,281,281,281,,,,,,,,,,,,,175.00459059999957,0.004590599999573897,1,222.81692730000032,222.81692730000032,222.81692730000032,222.81692730000032,222.81692730000032,222.81692730000032,222.81692730000032,222.81692730000032,0.37143899999864516,003,P014,2025_Feb_28_1715,CategoryLocalizer,2021.2.3,59.919707591675646,
175.8,176.0,5,0.0,Stimuli\Blank.png,0,0,0,282,282,282,,,,,,,,,,,,,175.82376010000007,0.023760100000060902,None,223.63432210000065,223.63432210000065,223.63432210000065,223.63432210000065,223.63432210000065,223.63432210000065,223.63432210000065,223.63432210000065,,003,P014,2025_Feb_28_1715,CategoryLocalizer,2021.2.3,59.919707591675646,
176.0,176.8,4,0.75,Stimuli\ImageFiles-Set1\Scenes\Scenes_027.png,0,0,0,283,283,283,,,,,,,,,,,,,176.02198599999974,0.02198599999974249,None,223.83449870000004,223.83449870000004,223.83449870000004,223.83449870000004,223.83449870000004,223.83449870000004,223.83449870000004,223.83449870000004,,003,P014,2025_Feb_28_1715,CategoryLocalizer,2021.2.3,59.919707591675646,
176.8,177.0,5,0.0,Stimuli\Blank.png,0,0,0,284,284,284,,,,,,,,,,,,,176.82299299999977,0.022992999999758013,None,224.61853789999986,224.61853789999986,224.61853789999986,224.61853789999986,224.61853789999986,224.61853789999986,224.61853789999986,224.61853789999986,,003,P014,2025_Feb_28_1715,CategoryLocalizer,2021.2.3,59.919707591675646,
