eventStartTime,eventEndTime,eventCond,imSize,imFile,repeatedImage,responseEvent,Events.thisRepN,Events.thisTrialN,Events.thisN,Events.thisIndex,Instructions.started,Instructions.stopped,participantReadyResponse.keys,participantReadyResponse.rt,participantReadyResponse.started,participantReadyResponse.stopped,startWaitforTrigger,triggerResponse.keys,triggerResponse.rt,triggerResponse.started,triggerResponse.stopped,globalTimer,actualStartTime,startTimingDiff,participantResponse.keys,participantResponse.started,participantResponse.stopped,image.started,image.stopped,fixationOutside.started,fixationOutside.stopped,fixationInside.started,fixationInside.stopped,participantResponse.rt,session,participant,date,expName,psychopyVersion,frameRate,
,,,,,,,,,,,12.151316299999962,None,1,2.0680897000002005,12.151316299999962,None,,,,,,,,,,,,,,,,,,,002,P014,2025_Feb_28_1648,CategoryLocalizer,2021.2.3,59.96052199252341,
,,,,,,,,,,,,,,,,,14.235438399999111,5,23.2470517999991,14.24906369999917,None,,,,,,,,,,,,,,002,P014,2025_Feb_28_1648,CategoryLocalizer,2021.2.3,59.96052199252341,
0.0,12.0,0,0.0,Stimuli\Blank.png,0,0,0,0,0,0,,,,,,,,,,,,37.507030799999484,0.06443709999985003,0.06443709999985003,None,37.58646289999888,None,37.58646289999888,None,37.58646289999888,None,37.58646289999888,None,,002,P014,2025_Feb_28_1648,CategoryLocalizer,2021.2.3,59.96052199252341,
12.0,12.8,1,0.75,Stimuli\ImageFiles-Set2\Objects\Object_Pen_00001.png,0,0,0,1,1,1,,,,,,,,,,,,,12.00970480000069,0.009704800000690739,None,49.53036549999888,49.53036549999888,49.53036549999888,49.53036549999888,49.53036549999888,49.53036549999888,49.53036549999888,49.53036549999888,,002,P014,2025_Feb_28_1648,CategoryLocalizer,2021.2.3,59.96052199252341,
12.8,13.0,5,0.0,Stimuli\Blank.png,0,0,0,2,2,2,,,,,,,,,,,,,12.80940069999997,0.00940069999996851,None,50.33107139999993,50.33107139999993,50.33107139999993,50.33107139999993,50.33107139999993,50.33107139999993,50.33107139999993,50.33107139999993,,002,P014,2025_Feb_28_1648,CategoryLocalizer,2021.2.3,59.96052199252341,
13.0,13.8,1,0.75,Stimuli\ImageFiles-Set2\Objects\Object_Shovel_00001.png,0,0,0,3,3,3,,,,,,,,,,,,,13.009505800000625,0.009505800000624731,None,50.5312627000003,50.5312627000003,50.5312627000003,50.5312627000003,50.5312627000003,50.5312627000003,50.5312627000003,50.5312627000003,,002,P014,2025_Feb_28_1648,CategoryLocalizer,2021.2.3,59.96052199252341,
13.8,14.0,5,0.0,Stimuli\Blank.png,0,0,0,4,4,4,,,,,,,,,,,,,13.811017300000458,0.011017300000457197,None,51.33196300000054,51.33196300000054,51.33196300000054,51.33196300000054,51.33196300000054,51.33196300000054,51.33196300000054,51.33196300000054,,002,P014,2025_Feb_28_1648,CategoryLocalizer,2021.2.3,59.96052199252341,
14.0,14.8,1,0.75,Stimuli\ImageFiles-Set2\Objects\Object_Dishwasher_00001.png,0,0,0,5,5,5,,,,,,,,,,,,,14.011122100000648,0.01112210000064806,None,51.56550459999926,51.56550459999926,51.56550459999926,51.56550459999926,51.56550459999926,51.56550459999926,51.56550459999926,51.56550459999926,,002,P014,2025_Feb_28_1648,CategoryLocalizer,2021.2.3,59.96052199252341,
14.8,15.0,5,0.0,Stimuli\Blank.png,0,0,0,6,6,6,,,,,,,,,,,,,14.845674700000018,0.045674700000017054,None,52.36621650000052,52.36621650000052,52.36621650000052,52.36621650000052,52.36621650000052,52.36621650000052,52.36621650000052,52.36621650000052,,002,P014,2025_Feb_28_1648,CategoryLocalizer,2021.2.3,59.96052199252341,
15.0,15.8,1,0.75,Stimuli\ImageFiles-Set2\Objects\Object_Paper_00001.png,0,0,0,7,7,7,,,,,,,,,,,,,15.012511200000517,0.01251120000051742,None,52.54977289999988,52.54977289999988,52.54977289999988,52.54977289999988,52.54977289999988,52.54977289999988,52.54977289999988,52.54977289999988,,002,P014,2025_Feb_28_1648,CategoryLocalizer,2021.2.3,59.96052199252341,
15.8,16.0,5,0.0,Stimuli\Blank.png,0,0,0,8,8,8,,,,,,,,,,,,,15.829319799999212,0.02931979999921097,None,53.35042860000067,53.35042860000067,53.35042860000067,53.35042860000067,53.35042860000067,53.35042860000067,53.35042860000067,53.35042860000067,,002,P014,2025_Feb_28_1648,CategoryLocalizer,2021.2.3,59.96052199252341,
16.0,16.8,1,0.75,Stimuli\ImageFiles-Set2\Objects\Object_Pitcher_00001.png,0,0,0,9,9,9,,,,,,,,,,,,,16.012470499999836,0.012470499999835738,None,53.567273900000146,53.567273900000146,53.567273900000146,53.567273900000146,53.567273900000146,53.567273900000146,53.567273900000146,53.567273900000146,,002,P014,2025_Feb_28_1648,CategoryLocalizer,2021.2.3,59.96052199252341,
16.8,17.0,5,0.0,Stimuli\Blank.png,0,0,0,10,10,10,,,,,,,,,,,,,16.847391699999207,0.04739169999920634,None,54.36798479999925,54.36798479999925,54.36798479999925,54.36798479999925,54.36798479999925,54.36798479999925,54.36798479999925,54.36798479999925,,002,P014,2025_Feb_28_1648,CategoryLocalizer,2021.2.3,59.96052199252341,
17.0,17.8,1,0.75,Stimuli\ImageFiles-Set2\Objects\Object_Champagne_00001.png,0,0,0,11,11,11,,,,,,,,,,,,,17.015547400000287,0.01554740000028687,None,54.55153959999916,54.55153959999916,54.55153959999916,54.55153959999916,54.55153959999916,54.55153959999916,54.55153959999916,54.55153959999916,,002,P014,2025_Feb_28_1648,CategoryLocalizer,2021.2.3,59.96052199252341,
17.8,18.0,5,0.0,Stimuli\Blank.png,0,0,0,12,12,12,,,,,,,,,,,,,17.814503100000366,0.01450310000036481,None,55.33560299999954,55.33560299999954,55.33560299999954,55.33560299999954,55.33560299999954,55.33560299999954,55.33560299999954,55.33560299999954,,002,P014,2025_Feb_28_1648,CategoryLocalizer,2021.2.3,59.96052199252341,
18.0,18.8,1,0.75,Stimuli\ImageFiles-Set2\Objects\Object_Champagne_00001.png,1,1,0,13,13,13,,,,,,,,,,,,,18.01402229999985,0.014022299999851384,1,55.53568649999943,55.53568649999943,55.53568649999943,55.53568649999943,55.53568649999943,55.53568649999943,55.53568649999943,55.53568649999943,0.37832650000018475,002,P014,2025_Feb_28_1648,CategoryLocalizer,2021.2.3,59.96052199252341,
18.8,19.0,5,0.0,Stimuli\Blank.png,0,0,0,14,14,14,,,,,,,,,,,,,18.815558799999053,0.015558799999052297,None,56.336402900000394,56.336402900000394,56.336402900000394,56.336402900000394,56.336402900000394,56.336402900000394,56.336402900000394,56.336402900000394,,002,P014,2025_Feb_28_1648,CategoryLocalizer,2021.2.3,59.96052199252341,
19.0,19.8,1,0.75,Stimuli\ImageFiles-Set2\Objects\Object_Hook_00001.png,0,0,0,15,15,15,,,,,,,,,,,,,18.99808800000028,-0.0019119999997201376,None,56.519885600000634,56.519885600000634,56.519885600000634,56.519885600000634,56.519885600000634,56.519885600000634,56.519885600000634,56.519885600000634,,002,P014,2025_Feb_28_1648,CategoryLocalizer,2021.2.3,59.96052199252341,
19.8,20.0,5,0.0,Stimuli\Blank.png,0,0,0,16,16,16,,,,,,,,,,,,,19.816675300000497,0.016675300000496662,None,57.33728619999965,57.33728619999965,57.33728619999965,57.33728619999965,57.33728619999965,57.33728619999965,57.33728619999965,57.33728619999965,,002,P014,2025_Feb_28_1648,CategoryLocalizer,2021.2.3,59.96052199252341,
20.0,20.8,1,0.75,Stimuli\ImageFiles-Set2\Objects\Object_Truck_00001.png,0,0,0,17,17,17,,,,,,,,,,,,,20.0016887999991,0.0016887999991013203,None,57.554161199999726,57.554161199999726,57.554161199999726,57.554161199999726,57.554161199999726,57.554161199999726,57.554161199999726,57.554161199999726,,002,P014,2025_Feb_28_1648,CategoryLocalizer,2021.2.3,59.96052199252341,
20.8,21.0,5,0.0,Stimuli\Blank.png,0,0,0,18,18,18,,,,,,,,,,,,,20.835516499999358,0.03551649999935691,None,58.37155410000014,58.37155410000014,58.37155410000014,58.37155410000014,58.37155410000014,58.37155410000014,58.37155410000014,58.37155410000014,,002,P014,2025_Feb_28_1648,CategoryLocalizer,2021.2.3,59.96052199252341,
21.0,21.8,1,0.75,Stimuli\ImageFiles-Set2\Objects\Object_Flashlight_00001.png,0,0,0,19,19,19,,,,,,,,,,,,,21.01764430000003,0.017644300000029034,None,58.55502359999991,58.55502359999991,58.55502359999991,58.55502359999991,58.55502359999991,58.55502359999991,58.55502359999991,58.55502359999991,,002,P014,2025_Feb_28_1648,CategoryLocalizer,2021.2.3,59.96052199252341,
21.8,22.0,5,0.0,Stimuli\Blank.png,0,0,0,20,20,20,,,,,,,,,,,,,21.817225299999336,0.01722529999933542,None,59.33904359999906,59.33904359999906,59.33904359999906,59.33904359999906,59.33904359999906,59.33904359999906,59.33904359999906,59.33904359999906,,002,P014,2025_Feb_28_1648,CategoryLocalizer,2021.2.3,59.96052199252341,
22.0,22.8,1,0.75,Stimuli\ImageFiles-Set2\Objects\Object_Coffee_00001.png,0,0,0,21,21,21,,,,,,,,,,,,,22.00146979999954,0.0014697999995405553,None,59.539229899999555,59.539229899999555,59.539229899999555,59.539229899999555,59.539229899999555,59.539229899999555,59.539229899999555,59.539229899999555,,002,P014,2025_Feb_28_1648,CategoryLocalizer,2021.2.3,59.96052199252341,
22.8,23.0,5,0.0,Stimuli\Blank.png,0,0,0,22,22,22,,,,,,,,,,,,,22.818736200000785,0.018736200000784464,None,60.33990989999984,60.33990989999984,60.33990989999984,60.33990989999984,60.33990989999984,60.33990989999984,60.33990989999984,60.33990989999984,,002,P014,2025_Feb_28_1648,CategoryLocalizer,2021.2.3,59.96052199252341,
23.0,23.8,1,0.75,Stimuli\ImageFiles-Set2\Objects\Object_Ladder_00001.png,0,0,0,23,23,23,,,,,,,,,,,,,23.00184310000077,0.001843100000769482,None,60.540086099999826,60.540086099999826,60.540086099999826,60.540086099999826,60.540086099999826,60.540086099999826,60.540086099999826,60.540086099999826,,002,P014,2025_Feb_28_1648,CategoryLocalizer,2021.2.3,59.96052199252341,
23.8,24.0,5,0.0,Stimuli\Blank.png,0,0,0,24,24,24,,,,,,,,,,,,,23.819168199999694,0.01916819999969377,None,61.34082339999986,61.34082339999986,61.34082339999986,61.34082339999986,61.34082339999986,61.34082339999986,61.34082339999986,61.34082339999986,,002,P014,2025_Feb_28_1648,CategoryLocalizer,2021.2.3,59.96052199252341,
24.0,24.8,1,0.75,Stimuli\ImageFiles-Set2\Objects\Object_Tomato_00001.png,0,0,0,25,25,25,,,,,,,,,,,,,24.002880399999412,0.002880399999412475,None,61.5576889999993,61.5576889999993,61.5576889999993,61.5576889999993,61.5576889999993,61.5576889999993,61.5576889999993,61.5576889999993,,002,P014,2025_Feb_28_1648,CategoryLocalizer,2021.2.3,59.96052199252341,
24.8,25.0,5,0.0,Stimuli\Blank.png,0,0,0,26,26,26,,,,,,,,,,,,,24.83763739999995,0.037637399999947974,None,62.35839750000014,62.35839750000014,62.35839750000014,62.35839750000014,62.35839750000014,62.35839750000014,62.35839750000014,62.35839750000014,,002,P014,2025_Feb_28_1648,CategoryLocalizer,2021.2.3,59.96052199252341,
25.0,25.8,1,0.75,Stimuli\ImageFiles-Set2\Objects\Object_Couch_00001.png,0,0,0,27,27,27,,,,,,,,,,,,,25.004279200000383,0.004279200000382843,None,62.541889099999025,62.541889099999025,62.541889099999025,62.541889099999025,62.541889099999025,62.541889099999025,62.541889099999025,62.541889099999025,,002,P014,2025_Feb_28_1648,CategoryLocalizer,2021.2.3,59.96052199252341,
25.8,26.0,5,0.0,Stimuli\Blank.png,0,0,0,28,28,28,,,,,,,,,,,,,25.823673299999427,0.02367329999942669,None,63.35937120000017,63.35937120000017,63.35937120000017,63.35937120000017,63.35937120000017,63.35937120000017,63.35937120000017,63.35937120000017,,002,P014,2025_Feb_28_1648,CategoryLocalizer,2021.2.3,59.96052199252341,
26.0,26.8,1,0.75,Stimuli\ImageFiles-Set2\Objects\Object_Button1_00001.png,0,0,0,29,29,29,,,,,,,,,,,,,26.0238262999992,0.023826299999200273,None,63.57621610000024,63.57621610000024,63.57621610000024,63.57621610000024,63.57621610000024,63.57621610000024,63.57621610000024,63.57621610000024,,002,P014,2025_Feb_28_1648,CategoryLocalizer,2021.2.3,59.96052199252341,
26.8,27.0,5,0.0,Stimuli\Blank.png,0,0,0,30,30,30,,,,,,,,,,,,,26.8384317,0.03843170000000029,None,64.36015330000009,64.36015330000009,64.36015330000009,64.36015330000009,64.36015330000009,64.36015330000009,64.36015330000009,64.36015330000009,,002,P014,2025_Feb_28_1648,CategoryLocalizer,2021.2.3,59.96052199252341,
27.0,27.8,1,0.75,Stimuli\ImageFiles-Set2\Objects\Object_WaterCooler_00001.png,0,0,0,31,31,31,,,,,,,,,,,,,27.005718500000512,0.005718500000511995,None,64.54366339999979,64.54366339999979,64.54366339999979,64.54366339999979,64.54366339999979,64.54366339999979,64.54366339999979,64.54366339999979,,002,P014,2025_Feb_28_1648,CategoryLocalizer,2021.2.3,59.96052199252341,
27.8,28.0,5,0.0,Stimuli\Blank.png,0,0,0,32,32,32,,,,,,,,,,,,,27.823870899999747,0.023870899999746342,None,65.34437889999936,65.34437889999936,65.34437889999936,65.34437889999936,65.34437889999936,65.34437889999936,65.34437889999936,65.34437889999936,,002,P014,2025_Feb_28_1648,CategoryLocalizer,2021.2.3,59.96052199252341,
28.0,28.8,2,0.75,Stimuli\ImageFiles-Set2\Bodies\Bodies_SittingFloor_00004.png,0,0,0,33,33,33,,,,,,,,,,,,,28.006293200000073,0.006293200000072829,None,65.56122999999934,65.56122999999934,65.56122999999934,65.56122999999934,65.56122999999934,65.56122999999934,65.56122999999934,65.56122999999934,,002,P014,2025_Feb_28_1648,CategoryLocalizer,2021.2.3,59.96052199252341,
28.8,29.0,5,0.0,Stimuli\Blank.png,0,0,0,34,34,34,,,,,,,,,,,,,28.841189900000245,0.04118990000024425,None,66.36194419999993,66.36194419999993,66.36194419999993,66.36194419999993,66.36194419999993,66.36194419999993,66.36194419999993,66.36194419999993,,002,P014,2025_Feb_28_1648,CategoryLocalizer,2021.2.3,59.96052199252341,
29.0,29.8,2,0.75,Stimuli\ImageFiles-Set2\Bodies\Bodies_DownwardDog_00002.png,0,0,0,35,35,35,,,,,,,,,,,,,29.007647899999938,0.00764789999993809,None,66.54545030000008,66.54545030000008,66.54545030000008,66.54545030000008,66.54545030000008,66.54545030000008,66.54545030000008,66.54545030000008,,002,P014,2025_Feb_28_1648,CategoryLocalizer,2021.2.3,59.96052199252341,
29.8,30.0,5,0.0,Stimuli\Blank.png,0,0,0,36,36,36,,,,,,,,,,,,,29.824377999999342,0.024377999999341426,None,67.34614109999893,67.34614109999893,67.34614109999893,67.34614109999893,67.34614109999893,67.34614109999893,67.34614109999893,67.34614109999893,,002,P014,2025_Feb_28_1648,CategoryLocalizer,2021.2.3,59.96052199252341,
30.0,30.8,2,0.75,Stimuli\ImageFiles-Set2\Bodies\Bodies_Waving_00002.png,0,0,0,37,37,37,,,,,,,,,,,,,30.00788359999933,0.007883599999331636,None,67.5463237999993,67.5463237999993,67.5463237999993,67.5463237999993,67.5463237999993,67.5463237999993,67.5463237999993,67.5463237999993,,002,P014,2025_Feb_28_1648,CategoryLocalizer,2021.2.3,59.96052199252341,
30.8,31.0,5,0.0,Stimuli\Blank.png,0,0,0,38,38,38,,,,,,,,,,,,,30.82542049999938,0.025420499999381008,None,68.3470326000006,68.3470326000006,68.3470326000006,68.3470326000006,68.3470326000006,68.3470326000006,68.3470326000006,68.3470326000006,,002,P014,2025_Feb_28_1648,CategoryLocalizer,2021.2.3,59.96052199252341,
31.0,31.8,2,0.75,Stimuli\ImageFiles-Set2\Bodies\Bodies_Falling_00005.png,0,0,0,39,39,39,,,,,,,,,,,,,31.009611100000257,0.009611100000256556,None,68.54728539999996,68.54728539999996,68.54728539999996,68.54728539999996,68.54728539999996,68.54728539999996,68.54728539999996,68.54728539999996,,002,P014,2025_Feb_28_1648,CategoryLocalizer,2021.2.3,59.96052199252341,
31.8,32.0,5,0.0,Stimuli\Blank.png,0,0,0,40,40,40,,,,,,,,,,,,,31.82802459999948,0.028024599999479705,None,69.36460049999914,69.36460049999914,69.36460049999914,69.36460049999914,69.36460049999914,69.36460049999914,69.36460049999914,69.36460049999914,,002,P014,2025_Feb_28_1648,CategoryLocalizer,2021.2.3,59.96052199252341,
32.0,32.8,2,0.75,Stimuli\ImageFiles-Set2\Bodies\Bodies_Running_00007.png,0,0,0,41,41,41,,,,,,,,,,,,,32.02763950000008,0.027639500000077533,None,69.5647726999996,69.5647726999996,69.5647726999996,69.5647726999996,69.5647726999996,69.5647726999996,69.5647726999996,69.5647726999996,,002,P014,2025_Feb_28_1648,CategoryLocalizer,2021.2.3,59.96052199252341,
32.8,33.0,5,0.0,Stimuli\Blank.png,0,0,0,42,42,42,,,,,,,,,,,,,32.82850529999996,0.02850529999996354,None,70.34880370000064,70.34880370000064,70.34880370000064,70.34880370000064,70.34880370000064,70.34880370000064,70.34880370000064,70.34880370000064,,002,P014,2025_Feb_28_1648,CategoryLocalizer,2021.2.3,59.96052199252341,
33.0,33.8,2,0.75,Stimuli\ImageFiles-Set2\Bodies\Bodies_SittingFloor_00006.png,0,0,0,43,43,43,,,,,,,,,,,,,33.012923399999636,0.012923399999635876,None,70.54897809999966,70.54897809999966,70.54897809999966,70.54897809999966,70.54897809999966,70.54897809999966,70.54897809999966,70.54897809999966,,002,P014,2025_Feb_28_1648,CategoryLocalizer,2021.2.3,59.96052199252341,
33.8,34.0,5,0.0,Stimuli\Blank.png,0,0,0,44,44,44,,,,,,,,,,,,,33.82856399999946,0.028563999999462908,None,71.34968089999893,71.34968089999893,71.34968089999893,71.34968089999893,71.34968089999893,71.34968089999893,71.34968089999893,71.34968089999893,,002,P014,2025_Feb_28_1648,CategoryLocalizer,2021.2.3,59.96052199252341,
34.0,34.8,2,0.75,Stimuli\ImageFiles-Set2\Bodies\Bodies_Pushing_00006.png,0,0,0,45,45,45,,,,,,,,,,,,,34.012160199999926,0.01216019999992568,None,71.5498647000004,71.5498647000004,71.5498647000004,71.5498647000004,71.5498647000004,71.5498647000004,71.5498647000004,71.5498647000004,,002,P014,2025_Feb_28_1648,CategoryLocalizer,2021.2.3,59.96052199252341,
34.8,35.0,5,0.0,Stimuli\Blank.png,0,0,0,46,46,46,,,,,,,,,,,,,34.82889339999929,0.028893399999290637,None,72.35060639999938,72.35060639999938,72.35060639999938,72.35060639999938,72.35060639999938,72.35060639999938,72.35060639999938,72.35060639999938,,002,P014,2025_Feb_28_1648,CategoryLocalizer,2021.2.3,59.96052199252341,
35.0,35.8,2,0.75,Stimuli\ImageFiles-Set2\Bodies\Bodies_Walking_00005.png,0,0,0,47,47,47,,,,,,,,,,,,,35.012937199999214,0.0129371999992145,None,72.55075120000038,72.55075120000038,72.55075120000038,72.55075120000038,72.55075120000038,72.55075120000038,72.55075120000038,72.55075120000038,,002,P014,2025_Feb_28_1648,CategoryLocalizer,2021.2.3,59.96052199252341,
35.8,36.0,5,0.0,Stimuli\Blank.png,0,0,0,48,48,48,,,,,,,,,,,,,35.83043990000078,0.030439900000786224,None,73.35147329999927,73.35147329999927,73.35147329999927,73.35147329999927,73.35147329999927,73.35147329999927,73.35147329999927,73.35147329999927,,002,P014,2025_Feb_28_1648,CategoryLocalizer,2021.2.3,59.96052199252341,
36.0,36.8,2,0.75,Stimuli\ImageFiles-Set2\Bodies\Bodies_PushUp_00001.png,0,0,0,49,49,49,,,,,,,,,,,,,36.01432030000069,0.014320300000690622,None,73.56833609999921,73.56833609999921,73.56833609999921,73.56833609999921,73.56833609999921,73.56833609999921,73.56833609999921,73.56833609999921,,002,P014,2025_Feb_28_1648,CategoryLocalizer,2021.2.3,59.96052199252341,
36.8,37.0,5,0.0,Stimuli\Blank.png,0,0,0,50,50,50,,,,,,,,,,,,,36.84787469999901,0.047874699999013615,None,74.36901389999912,74.36901389999912,74.36901389999912,74.36901389999912,74.36901389999912,74.36901389999912,74.36901389999912,74.36901389999912,,002,P014,2025_Feb_28_1648,CategoryLocalizer,2021.2.3,59.96052199252341,
37.0,37.8,2,0.75,Stimuli\ImageFiles-Set2\Bodies\Bodies_PushUp_00001.png,1,1,0,51,51,51,,,,,,,,,,,,,37.01468229999955,0.014682299999549286,1,74.5525204000005,74.5525204000005,74.5525204000005,74.5525204000005,74.5525204000005,74.5525204000005,74.5525204000005,74.5525204000005,0.3897006999995938,002,P014,2025_Feb_28_1648,CategoryLocalizer,2021.2.3,59.96052199252341,
37.8,38.0,5,0.0,Stimuli\Blank.png,0,0,0,52,52,52,,,,,,,,,,,,,37.83202859999983,0.03202859999983332,None,75.35322020000058,75.35322020000058,75.35322020000058,75.35322020000058,75.35322020000058,75.35322020000058,75.35322020000058,75.35322020000058,,002,P014,2025_Feb_28_1648,CategoryLocalizer,2021.2.3,59.96052199252341,
38.0,38.8,2,0.75,Stimuli\ImageFiles-Set2\Bodies\Bodies_PushUp_00006.png,0,0,0,53,53,53,,,,,,,,,,,,,38.01741199999924,0.017411999999239924,None,75.55347230000007,75.55347230000007,75.55347230000007,75.55347230000007,75.55347230000007,75.55347230000007,75.55347230000007,75.55347230000007,,002,P014,2025_Feb_28_1648,CategoryLocalizer,2021.2.3,59.96052199252341,
38.8,39.0,5,0.0,Stimuli\Blank.png,0,0,0,54,54,54,,,,,,,,,,,,,38.81754159999946,0.017541599999461255,None,76.35412739999992,76.35412739999992,76.35412739999992,76.35412739999992,76.35412739999992,76.35412739999992,76.35412739999992,76.35412739999992,,002,P014,2025_Feb_28_1648,CategoryLocalizer,2021.2.3,59.96052199252341,
39.0,39.8,2,0.75,Stimuli\ImageFiles-Set2\Bodies\Bodies_Kneeling_00004.png,0,0,0,55,55,55,,,,,,,,,,,,,39.01876119999906,0.018761199999062228,None,76.55433079999966,76.55433079999966,76.55433079999966,76.55433079999966,76.55433079999966,76.55433079999966,76.55433079999966,76.55433079999966,,002,P014,2025_Feb_28_1648,CategoryLocalizer,2021.2.3,59.96052199252341,
39.8,40.0,5,0.0,Stimuli\Blank.png,0,0,0,56,56,56,,,,,,,,,,,,,39.817160099999455,0.01716009999945811,None,77.33832280000024,77.33832280000024,77.33832280000024,77.33832280000024,77.33832280000024,77.33832280000024,77.33832280000024,77.33832280000024,,002,P014,2025_Feb_28_1648,CategoryLocalizer,2021.2.3,59.96052199252341,
40.0,40.8,2,0.75,Stimuli\ImageFiles-Set2\Bodies\Bodies_Falling_00003.png,0,0,0,57,57,57,,,,,,,,,,,,,40.00015309999981,0.00015309999980672728,None,77.52181729999938,77.52181729999938,77.52181729999938,77.52181729999938,77.52181729999938,77.52181729999938,77.52181729999938,77.52181729999938,,002,P014,2025_Feb_28_1648,CategoryLocalizer,2021.2.3,59.96052199252341,
40.8,41.0,5,0.0,Stimuli\Blank.png,0,0,0,58,58,58,,,,,,,,,,,,,40.80465670000012,0.004656700000126079,None,78.3392786000004,78.3392786000004,78.3392786000004,78.3392786000004,78.3392786000004,78.3392786000004,78.3392786000004,78.3392786000004,,002,P014,2025_Feb_28_1648,CategoryLocalizer,2021.2.3,59.96052199252341,
41.0,41.8,2,0.75,Stimuli\ImageFiles-Set2\Bodies\Bodies_Walking_00007.png,0,0,0,59,59,59,,,,,,,,,,,,,41.01810160000059,0.018101600000591134,None,78.55613420000009,78.55613420000009,78.55613420000009,78.55613420000009,78.55613420000009,78.55613420000009,78.55613420000009,78.55613420000009,,002,P014,2025_Feb_28_1648,CategoryLocalizer,2021.2.3,59.96052199252341,
41.8,42.0,5,0.0,Stimuli\Blank.png,0,0,0,60,60,60,,,,,,,,,,,,,41.81915610000033,0.01915610000033041,None,79.34005849999994,79.34005849999994,79.34005849999994,79.34005849999994,79.34005849999994,79.34005849999994,79.34005849999994,79.34005849999994,,002,P014,2025_Feb_28_1648,CategoryLocalizer,2021.2.3,59.96052199252341,
42.0,42.8,2,0.75,Stimuli\ImageFiles-Set2\Bodies\Bodies_Kneeling_00001.png,0,0,0,61,61,61,,,,,,,,,,,,,42.002493899999536,0.0024938999995356426,None,79.54028920000019,79.54028920000019,79.54028920000019,79.54028920000019,79.54028920000019,79.54028920000019,79.54028920000019,79.54028920000019,,002,P014,2025_Feb_28_1648,CategoryLocalizer,2021.2.3,59.96052199252341,
42.8,43.0,5,0.0,Stimuli\Blank.png,0,0,0,62,62,62,,,,,,,,,,,,,42.820114699999976,0.02011469999997928,None,80.34097019999899,80.34097019999899,80.34097019999899,80.34097019999899,80.34097019999899,80.34097019999899,80.34097019999899,80.34097019999899,,002,P014,2025_Feb_28_1648,CategoryLocalizer,2021.2.3,59.96052199252341,
43.0,43.8,2,0.75,Stimuli\ImageFiles-Set2\Bodies\Bodies_DownwardDog_00004.png,0,0,0,63,63,63,,,,,,,,,,,,,43.00343729999986,0.0034372999998595333,None,80.52447209999991,80.52447209999991,80.52447209999991,80.52447209999991,80.52447209999991,80.52447209999991,80.52447209999991,80.52447209999991,,002,P014,2025_Feb_28_1648,CategoryLocalizer,2021.2.3,59.96052199252341,
43.8,44.0,5,0.0,Stimuli\Blank.png,0,0,0,64,64,64,,,,,,,,,,,,,43.803522399999565,0.003522399999567938,None,81.32517019999977,81.32517019999977,81.32517019999977,81.32517019999977,81.32517019999977,81.32517019999977,81.32517019999977,81.32517019999977,,002,P014,2025_Feb_28_1648,CategoryLocalizer,2021.2.3,59.96052199252341,
44.0,44.8,3,0.75,Stimuli\ImageFiles-Set2\Faces\Face_00034.png,0,0,0,65,65,65,,,,,,,,,,,,,44.00433899999916,0.004338999999163207,None,81.5422497999989,81.5422497999989,81.5422497999989,81.5422497999989,81.5422497999989,81.5422497999989,81.5422497999989,81.5422497999989,,002,P014,2025_Feb_28_1648,CategoryLocalizer,2021.2.3,59.96052199252341,
44.8,45.0,5,0.0,Stimuli\Blank.png,0,0,0,66,66,66,,,,,,,,,,,,,44.82151519999934,0.02151519999934237,None,82.34279009999955,82.34279009999955,82.34279009999955,82.34279009999955,82.34279009999955,82.34279009999955,82.34279009999955,82.34279009999955,,002,P014,2025_Feb_28_1648,CategoryLocalizer,2021.2.3,59.96052199252341,
45.0,45.8,3,0.75,Stimuli\ImageFiles-Set2\Faces\Face_00008.png,0,0,0,67,67,67,,,,,,,,,,,,,45.00504480000018,0.005044800000177929,None,82.54292159999932,82.54292159999932,82.54292159999932,82.54292159999932,82.54292159999932,82.54292159999932,82.54292159999932,82.54292159999932,,002,P014,2025_Feb_28_1648,CategoryLocalizer,2021.2.3,59.96052199252341,
45.8,46.0,5,0.0,Stimuli\Blank.png,0,0,0,68,68,68,,,,,,,,,,,,,45.82285109999975,0.02285109999975532,None,83.34363060000032,83.34363060000032,83.34363060000032,83.34363060000032,83.34363060000032,83.34363060000032,83.34363060000032,83.34363060000032,,002,P014,2025_Feb_28_1648,CategoryLocalizer,2021.2.3,59.96052199252341,
46.0,46.8,3,0.75,Stimuli\ImageFiles-Set2\Faces\Face_00120.png,0,0,0,69,69,69,,,,,,,,,,,,,46.00530430000072,0.0053043000007164665,None,83.56049979999989,83.56049979999989,83.56049979999989,83.56049979999989,83.56049979999989,83.56049979999989,83.56049979999989,83.56049979999989,,002,P014,2025_Feb_28_1648,CategoryLocalizer,2021.2.3,59.96052199252341,
46.8,47.0,5,0.0,Stimuli\Blank.png,0,0,0,70,70,70,,,,,,,,,,,,,46.83957869999904,0.03957869999904062,None,84.36119159999907,84.36119159999907,84.36119159999907,84.36119159999907,84.36119159999907,84.36119159999907,84.36119159999907,84.36119159999907,,002,P014,2025_Feb_28_1648,CategoryLocalizer,2021.2.3,59.96052199252341,
47.0,47.8,3,0.75,Stimuli\ImageFiles-Set2\Faces\Face_00023.png,0,0,0,71,71,71,,,,,,,,,,,,,47.00719679999929,0.007196799999292125,None,84.54470579999906,84.54470579999906,84.54470579999906,84.54470579999906,84.54470579999906,84.54470579999906,84.54470579999906,84.54470579999906,,002,P014,2025_Feb_28_1648,CategoryLocalizer,2021.2.3,59.96052199252341,
47.8,48.0,5,0.0,Stimuli\Blank.png,0,0,0,72,72,72,,,,,,,,,,,,,47.82435000000078,0.024350000000779914,None,85.34539720000066,85.34539720000066,85.34539720000066,85.34539720000066,85.34539720000066,85.34539720000066,85.34539720000066,85.34539720000066,,002,P014,2025_Feb_28_1648,CategoryLocalizer,2021.2.3,59.96052199252341,
48.0,48.8,3,0.75,Stimuli\ImageFiles-Set2\Faces\Face_00013.png,0,0,0,73,73,73,,,,,,,,,,,,,48.00721060000069,0.0072106000006897375,None,85.52889229999892,85.52889229999892,85.52889229999892,85.52889229999892,85.52889229999892,85.52889229999892,85.52889229999892,85.52889229999892,,002,P014,2025_Feb_28_1648,CategoryLocalizer,2021.2.3,59.96052199252341,
48.8,49.0,5,0.0,Stimuli\Blank.png,0,0,0,74,74,74,,,,,,,,,,,,,48.80858520000038,0.008585200000382542,None,86.32961979999891,86.32961979999891,86.32961979999891,86.32961979999891,86.32961979999891,86.32961979999891,86.32961979999891,86.32961979999891,,002,P014,2025_Feb_28_1648,CategoryLocalizer,2021.2.3,59.96052199252341,
49.0,49.8,3,0.75,Stimuli\ImageFiles-Set2\Faces\Face_00013.png,1,1,0,75,75,75,,,,,,,,,,,,,49.00815800000055,0.008158000000548782,1,86.52979099999902,86.52979099999902,86.52979099999902,86.52979099999902,86.52979099999902,86.52979099999902,86.52979099999902,86.52979099999902,0.32118500000069616,002,P014,2025_Feb_28_1648,CategoryLocalizer,2021.2.3,59.96052199252341,
49.8,50.0,5,0.0,Stimuli\Blank.png,0,0,0,76,76,76,,,,,,,,,,,,,49.808805000000575,0.008805000000577934,None,87.33049930000016,87.33049930000016,87.33049930000016,87.33049930000016,87.33049930000016,87.33049930000016,87.33049930000016,87.33049930000016,,002,P014,2025_Feb_28_1648,CategoryLocalizer,2021.2.3,59.96052199252341,
50.0,50.8,3,0.75,Stimuli\ImageFiles-Set2\Faces\Face_00011.png,0,0,0,77,77,77,,,,,,,,,,,,,50.00906480000049,0.009064800000487594,None,87.54735529999925,87.54735529999925,87.54735529999925,87.54735529999925,87.54735529999925,87.54735529999925,87.54735529999925,87.54735529999925,,002,P014,2025_Feb_28_1648,CategoryLocalizer,2021.2.3,59.96052199252341,
50.8,51.0,5,0.0,Stimuli\Blank.png,0,0,0,78,78,78,,,,,,,,,,,,,50.82694850000007,0.026948500000074205,None,88.34805500000039,88.34805500000039,88.34805500000039,88.34805500000039,88.34805500000039,88.34805500000039,88.34805500000039,88.34805500000039,,002,P014,2025_Feb_28_1648,CategoryLocalizer,2021.2.3,59.96052199252341,
51.0,51.8,3,0.75,Stimuli\ImageFiles-Set2\Faces\Face_00084.png,0,0,0,79,79,79,,,,,,,,,,,,,51.009791500000574,0.00979150000057416,None,88.53154790000008,88.53154790000008,88.53154790000008,88.53154790000008,88.53154790000008,88.53154790000008,88.53154790000008,88.53154790000008,,002,P014,2025_Feb_28_1648,CategoryLocalizer,2021.2.3,59.96052199252341,
51.8,52.0,5,0.0,Stimuli\Blank.png,0,0,0,80,80,80,,,,,,,,,,,,,51.81300530000044,0.013005300000443754,None,89.3489755999999,89.3489755999999,89.3489755999999,89.3489755999999,89.3489755999999,89.3489755999999,89.3489755999999,89.3489755999999,,002,P014,2025_Feb_28_1648,CategoryLocalizer,2021.2.3,59.96052199252341,
52.0,52.8,3,0.75,Stimuli\ImageFiles-Set2\Faces\Face_00070.png,0,0,0,81,81,81,,,,,,,,,,,,,52.0273916999995,0.027391699999498087,None,89.58249660000001,89.58249660000001,89.58249660000001,89.58249660000001,89.58249660000001,89.58249660000001,89.58249660000001,89.58249660000001,,002,P014,2025_Feb_28_1648,CategoryLocalizer,2021.2.3,59.96052199252341,
52.8,53.0,5,0.0,Stimuli\Blank.png,0,0,0,82,82,82,,,,,,,,,,,,,52.84527549999984,0.04527549999984615,None,90.36656559999938,90.36656559999938,90.36656559999938,90.36656559999938,90.36656559999938,90.36656559999938,90.36656559999938,90.36656559999938,,002,P014,2025_Feb_28_1648,CategoryLocalizer,2021.2.3,59.96052199252341,
53.0,53.8,3,0.75,Stimuli\ImageFiles-Set2\Faces\Face_00060.png,0,0,0,83,83,83,,,,,,,,,,,,,53.011819400000604,0.011819400000604219,None,90.56669329999932,90.56669329999932,90.56669329999932,90.56669329999932,90.56669329999932,90.56669329999932,90.56669329999932,90.56669329999932,,002,P014,2025_Feb_28_1648,CategoryLocalizer,2021.2.3,59.96052199252341,
53.8,54.0,5,0.0,Stimuli\Blank.png,0,0,0,84,84,84,,,,,,,,,,,,,53.84740299999976,0.047402999999761164,None,91.38412769999923,91.38412769999923,91.38412769999923,91.38412769999923,91.38412769999923,91.38412769999923,91.38412769999923,91.38412769999923,,002,P014,2025_Feb_28_1648,CategoryLocalizer,2021.2.3,59.96052199252341,
54.0,54.8,3,0.75,Stimuli\ImageFiles-Set2\Faces\Face_00116.png,0,0,0,85,85,85,,,,,,,,,,,,,54.029100100000505,0.029100100000505336,None,91.56761689999985,91.56761689999985,91.56761689999985,91.56761689999985,91.56761689999985,91.56761689999985,91.56761689999985,91.56761689999985,,002,P014,2025_Feb_28_1648,CategoryLocalizer,2021.2.3,59.96052199252341,
54.8,55.0,5,0.0,Stimuli\Blank.png,0,0,0,86,86,86,,,,,,,,,,,,,54.82984740000029,0.029847400000292623,None,92.35160449999967,92.35160449999967,92.35160449999967,92.35160449999967,92.35160449999967,92.35160449999967,92.35160449999967,92.35160449999967,,002,P014,2025_Feb_28_1648,CategoryLocalizer,2021.2.3,59.96052199252341,
55.0,55.8,3,0.75,Stimuli\ImageFiles-Set2\Faces\Face_00098.png,0,0,0,87,87,87,,,,,,,,,,,,,55.01494140000068,0.014941400000680005,None,92.56846489999953,92.56846489999953,92.56846489999953,92.56846489999953,92.56846489999953,92.56846489999953,92.56846489999953,92.56846489999953,,002,P014,2025_Feb_28_1648,CategoryLocalizer,2021.2.3,59.96052199252341,
55.8,56.0,5,0.0,Stimuli\Blank.png,0,0,0,88,88,88,,,,,,,,,,,,,55.83151010000074,0.0315101000007445,None,93.35256649999974,93.35256649999974,93.35256649999974,93.35256649999974,93.35256649999974,93.35256649999974,93.35256649999974,93.35256649999974,,002,P014,2025_Feb_28_1648,CategoryLocalizer,2021.2.3,59.96052199252341,
56.0,56.8,3,0.75,Stimuli\ImageFiles-Set2\Faces\Face_00076.png,0,0,0,89,89,89,,,,,,,,,,,,,56.01496849999967,0.014968499999667984,None,93.5526676999998,93.5526676999998,93.5526676999998,93.5526676999998,93.5526676999998,93.5526676999998,93.5526676999998,93.5526676999998,,002,P014,2025_Feb_28_1648,CategoryLocalizer,2021.2.3,59.96052199252341,
56.8,57.0,5,0.0,Stimuli\Blank.png,0,0,0,90,90,90,,,,,,,,,,,,,56.83357149999938,0.03357149999938258,None,94.37008400000013,94.37008400000013,94.37008400000013,94.37008400000013,94.37008400000013,94.37008400000013,94.37008400000013,94.37008400000013,,002,P014,2025_Feb_28_1648,CategoryLocalizer,2021.2.3,59.96052199252341,
57.0,57.8,3,0.75,Stimuli\ImageFiles-Set2\Faces\Face_00046.png,1,1,0,91,91,91,,,,,,,,,,,,,57.015960599999744,0.015960599999743863,None,94.55355509999936,94.55355509999936,94.55355509999936,94.55355509999936,94.55355509999936,94.55355509999936,94.55355509999936,94.55355509999936,,002,P014,2025_Feb_28_1648,CategoryLocalizer,2021.2.3,59.96052199252341,
57.8,58.0,5,0.0,Stimuli\Blank.png,0,0,0,92,92,92,,,,,,,,,,,,,57.8165098999998,0.01650989999980368,None,95.33759509999982,95.33759509999982,95.33759509999982,95.33759509999982,95.33759509999982,95.33759509999982,95.33759509999982,95.33759509999982,,002,P014,2025_Feb_28_1648,CategoryLocalizer,2021.2.3,59.96052199252341,
58.0,58.8,3,0.75,Stimuli\ImageFiles-Set2\Faces\Face_00078.png,0,0,0,93,93,93,,,,,,,,,,,,,57.99984530000074,-0.00015469999925699085,None,95.53775639999913,95.53775639999913,95.53775639999913,95.53775639999913,95.53775639999913,95.53775639999913,95.53775639999913,95.53775639999913,,002,P014,2025_Feb_28_1648,CategoryLocalizer,2021.2.3,59.96052199252341,
58.8,59.0,5,0.0,Stimuli\Blank.png,0,0,0,94,94,94,,,,,,,,,,,,,58.81848770000033,0.018487700000335394,None,96.35515739999937,96.35515739999937,96.35515739999937,96.35515739999937,96.35515739999937,96.35515739999937,96.35515739999937,96.35515739999937,,002,P014,2025_Feb_28_1648,CategoryLocalizer,2021.2.3,59.96052199252341,
59.0,59.8,3,0.75,Stimuli\ImageFiles-Set2\Faces\Face_00078.png,0,0,0,95,95,95,,,,,,,,,,,,,59.017458199999965,0.017458199999964563,1,96.5386385999991,96.5386385999991,96.5386385999991,96.5386385999991,96.5386385999991,96.5386385999991,96.5386385999991,96.5386385999991,0.4723379000006389,002,P014,2025_Feb_28_1648,CategoryLocalizer,2021.2.3,59.96052199252341,
59.8,60.0,5,0.0,Stimuli\Blank.png,0,0,0,96,96,96,,,,,,,,,,,,,59.80159850000018,0.0015985000001847993,None,97.32266859999982,97.32266859999982,97.32266859999982,97.32266859999982,97.32266859999982,97.32266859999982,97.32266859999982,97.32266859999982,,002,P014,2025_Feb_28_1648,CategoryLocalizer,2021.2.3,59.96052199252341,
60.0,60.8,4,0.75,Stimuli\ImageFiles-Set2\Scenes\Scenes_080.png,0,0,0,97,97,97,,,,,,,,,,,,,60.001454600000216,0.001454600000215578,None,97.5395284999995,97.5395284999995,97.5395284999995,97.5395284999995,97.5395284999995,97.5395284999995,97.5395284999995,97.5395284999995,,002,P014,2025_Feb_28_1648,CategoryLocalizer,2021.2.3,59.96052199252341,
60.8,61.0,5,0.0,Stimuli\Blank.png,0,0,0,98,98,98,,,,,,,,,,,,,60.8190596000004,0.01905960000040352,None,98.34023750000051,98.34023750000051,98.34023750000051,98.34023750000051,98.34023750000051,98.34023750000051,98.34023750000051,98.34023750000051,,002,P014,2025_Feb_28_1648,CategoryLocalizer,2021.2.3,59.96052199252341,
61.0,61.8,4,0.75,Stimuli\ImageFiles-Set2\Scenes\Scenes_119.png,0,0,0,99,99,99,,,,,,,,,,,,,61.00202639999952,0.002026399999522255,None,98.54041859999961,98.54041859999961,98.54041859999961,98.54041859999961,98.54041859999961,98.54041859999961,98.54041859999961,98.54041859999961,,002,P014,2025_Feb_28_1648,CategoryLocalizer,2021.2.3,59.96052199252341,
61.8,62.0,5,0.0,Stimuli\Blank.png,0,0,0,100,100,100,,,,,,,,,,,,,61.81993879999936,0.019938799999366097,None,99.34113509999952,99.34113509999952,99.34113509999952,99.34113509999952,99.34113509999952,99.34113509999952,99.34113509999952,99.34113509999952,,002,P014,2025_Feb_28_1648,CategoryLocalizer,2021.2.3,59.96052199252341,
62.0,62.8,4,0.75,Stimuli\ImageFiles-Set2\Scenes\Scenes_119.png,1,1,0,101,101,101,,,,,,,,,,,,,62.0032355000003,0.003235500000300817,1,99.54132439999921,99.54132439999921,99.54132439999921,99.54132439999921,99.54132439999921,99.54132439999921,99.54132439999921,99.54132439999921,0.3836133000004338,002,P014,2025_Feb_28_1648,CategoryLocalizer,2021.2.3,59.96052199252341,
62.8,63.0,5,0.0,Stimuli\Blank.png,0,0,0,102,102,102,,,,,,,,,,,,,62.82118099999934,0.021180999999344863,None,100.34200839999903,100.34200839999903,100.34200839999903,100.34200839999903,100.34200839999903,100.34200839999903,100.34200839999903,100.34200839999903,,002,P014,2025_Feb_28_1648,CategoryLocalizer,2021.2.3,59.96052199252341,
63.0,63.8,4,0.75,Stimuli\ImageFiles-Set2\Scenes\Scenes_075.png,0,0,0,103,103,103,,,,,,,,,,,,,63.00489749999906,0.004897499999060528,None,100.54219550000016,100.54219550000016,100.54219550000016,100.54219550000016,100.54219550000016,100.54219550000016,100.54219550000016,100.54219550000016,,002,P014,2025_Feb_28_1648,CategoryLocalizer,2021.2.3,59.96052199252341,
63.8,64.0,5,0.0,Stimuli\Blank.png,0,0,0,104,104,104,,,,,,,,,,,,,63.82356400000026,0.023564000000263263,None,101.35958220000066,101.35958220000066,101.35958220000066,101.35958220000066,101.35958220000066,101.35958220000066,101.35958220000066,101.35958220000066,,002,P014,2025_Feb_28_1648,CategoryLocalizer,2021.2.3,59.96052199252341,
64.0,64.8,4,0.75,Stimuli\ImageFiles-Set2\Scenes\Scenes_094.png,0,0,0,105,105,105,,,,,,,,,,,,,64.02450780000072,0.024507800000719726,None,101.55976159999955,101.55976159999955,101.55976159999955,101.55976159999955,101.55976159999955,101.55976159999955,101.55976159999955,101.55976159999955,,002,P014,2025_Feb_28_1648,CategoryLocalizer,2021.2.3,59.96052199252341,
64.8,65.0,5,0.0,Stimuli\Blank.png,0,0,0,106,106,106,,,,,,,,,,,,,64.82217370000035,0.02217370000035146,None,102.34377709999899,102.34377709999899,102.34377709999899,102.34377709999899,102.34377709999899,102.34377709999899,102.34377709999899,102.34377709999899,,002,P014,2025_Feb_28_1648,CategoryLocalizer,2021.2.3,59.96052199252341,
65.0,65.8,4,0.75,Stimuli\ImageFiles-Set2\Scenes\Scenes_102.png,0,0,0,107,107,107,,,,,,,,,,,,,65.00552719999905,0.005527199999050936,None,102.5439852999989,102.5439852999989,102.5439852999989,102.5439852999989,102.5439852999989,102.5439852999989,102.5439852999989,102.5439852999989,,002,P014,2025_Feb_28_1648,CategoryLocalizer,2021.2.3,59.96052199252341,
65.8,66.0,5,0.0,Stimuli\Blank.png,0,0,0,108,108,108,,,,,,,,,,,,,65.82408469999973,0.02408469999973306,None,103.34467179999956,103.34467179999956,103.34467179999956,103.34467179999956,103.34467179999956,103.34467179999956,103.34467179999956,103.34467179999956,,002,P014,2025_Feb_28_1648,CategoryLocalizer,2021.2.3,59.96052199252341,
66.0,66.8,4,0.75,Stimuli\ImageFiles-Set2\Scenes\Scenes_090.png,0,0,0,109,109,109,,,,,,,,,,,,,66.00738029999957,0.0073802999995677965,None,103.54484020000018,103.54484020000018,103.54484020000018,103.54484020000018,103.54484020000018,103.54484020000018,103.54484020000018,103.54484020000018,,002,P014,2025_Feb_28_1648,CategoryLocalizer,2021.2.3,59.96052199252341,
66.8,67.0,5,0.0,Stimuli\Blank.png,0,0,0,110,110,110,,,,,,,,,,,,,66.82462750000013,0.024627500000136138,None,104.34552669999903,104.34552669999903,104.34552669999903,104.34552669999903,104.34552669999903,104.34552669999903,104.34552669999903,104.34552669999903,,002,P014,2025_Feb_28_1648,CategoryLocalizer,2021.2.3,59.96052199252341,
67.0,67.8,4,0.75,Stimuli\ImageFiles-Set2\Scenes\Scenes_096.png,0,0,0,111,111,111,,,,,,,,,,,,,67.00739509999948,0.007395099999484955,None,104.54573399999936,104.54573399999936,104.54573399999936,104.54573399999936,104.54573399999936,104.54573399999936,104.54573399999936,104.54573399999936,,002,P014,2025_Feb_28_1648,CategoryLocalizer,2021.2.3,59.96052199252341,
67.8,68.0,5,0.0,Stimuli\Blank.png,0,0,0,112,112,112,,,,,,,,,,,,,67.82548839999981,0.02548839999981567,None,105.34643759999926,105.34643759999926,105.34643759999926,105.34643759999926,105.34643759999926,105.34643759999926,105.34643759999926,105.34643759999926,,002,P014,2025_Feb_28_1648,CategoryLocalizer,2021.2.3,59.96052199252341,
68.0,68.8,4,0.75,Stimuli\ImageFiles-Set2\Scenes\Scenes_114.png,0,0,0,113,113,113,,,,,,,,,,,,,68.00900170000023,0.009001700000226265,None,105.54662300000018,105.54662300000018,105.54662300000018,105.54662300000018,105.54662300000018,105.54662300000018,105.54662300000018,105.54662300000018,,002,P014,2025_Feb_28_1648,CategoryLocalizer,2021.2.3,59.96052199252341,
68.8,69.0,5,0.0,Stimuli\Blank.png,0,0,0,114,114,114,,,,,,,,,,,,,68.82613549999951,0.026135499999512035,None,106.34733849999975,106.34733849999975,106.34733849999975,106.34733849999975,106.34733849999975,106.34733849999975,106.34733849999975,106.34733849999975,,002,P014,2025_Feb_28_1648,CategoryLocalizer,2021.2.3,59.96052199252341,
69.0,69.8,4,0.75,Stimuli\ImageFiles-Set2\Scenes\Scenes_101.png,0,0,0,115,115,115,,,,,,,,,,,,,69.0092022000008,0.009202200000800076,None,106.54749850000007,106.54749850000007,106.54749850000007,106.54749850000007,106.54749850000007,106.54749850000007,106.54749850000007,106.54749850000007,,002,P014,2025_Feb_28_1648,CategoryLocalizer,2021.2.3,59.96052199252341,
69.8,70.0,5,0.0,Stimuli\Blank.png,0,0,0,116,116,116,,,,,,,,,,,,,69.82702289999906,0.027022899999067818,None,107.34820369999943,107.34820369999943,107.34820369999943,107.34820369999943,107.34820369999943,107.34820369999943,107.34820369999943,107.34820369999943,,002,P014,2025_Feb_28_1648,CategoryLocalizer,2021.2.3,59.96052199252341,
70.0,70.8,4,0.75,Stimuli\ImageFiles-Set2\Scenes\Scenes_065.png,0,0,0,117,117,117,,,,,,,,,,,,,70.00990420000016,0.009904200000164565,None,107.54838899999959,107.54838899999959,107.54838899999959,107.54838899999959,107.54838899999959,107.54838899999959,107.54838899999959,107.54838899999959,,002,P014,2025_Feb_28_1648,CategoryLocalizer,2021.2.3,59.96052199252341,
70.8,71.0,5,0.0,Stimuli\Blank.png,0,0,0,118,118,118,,,,,,,,,,,,,70.82744500000081,0.027445000000810182,None,108.34908759999962,108.34908759999962,108.34908759999962,108.34908759999962,108.34908759999962,108.34908759999962,108.34908759999962,108.34908759999962,,002,P014,2025_Feb_28_1648,CategoryLocalizer,2021.2.3,59.96052199252341,
71.0,71.8,4,0.75,Stimuli\ImageFiles-Set2\Scenes\Scenes_066.png,0,0,0,119,119,119,,,,,,,,,,,,,71.0114250000006,0.011425000000599539,None,108.54927709999902,108.54927709999902,108.54927709999902,108.54927709999902,108.54927709999902,108.54927709999902,108.54927709999902,108.54927709999902,,002,P014,2025_Feb_28_1648,CategoryLocalizer,2021.2.3,59.96052199252341,
71.8,72.0,5,0.0,Stimuli\Blank.png,0,0,0,120,120,120,,,,,,,,,,,,,71.82870379999986,0.02870379999986028,None,109.34998319999977,109.34998319999977,109.34998319999977,109.34998319999977,109.34998319999977,109.34998319999977,109.34998319999977,109.34998319999977,,002,P014,2025_Feb_28_1648,CategoryLocalizer,2021.2.3,59.96052199252341,
72.0,72.8,4,0.75,Stimuli\ImageFiles-Set2\Scenes\Scenes_113.png,0,0,0,121,121,121,,,,,,,,,,,,,72.01238469999953,0.012384699999529403,None,109.56684359999963,109.56684359999963,109.56684359999963,109.56684359999963,109.56684359999963,109.56684359999963,109.56684359999963,109.56684359999963,,002,P014,2025_Feb_28_1648,CategoryLocalizer,2021.2.3,59.96052199252341,
72.8,73.0,5,0.0,Stimuli\Blank.png,0,0,0,122,122,122,,,,,,,,,,,,,72.84632480000073,0.04632480000073258,None,110.3675504999992,110.3675504999992,110.3675504999992,110.3675504999992,110.3675504999992,110.3675504999992,110.3675504999992,110.3675504999992,,002,P014,2025_Feb_28_1648,CategoryLocalizer,2021.2.3,59.96052199252341,
73.0,73.8,4,0.75,Stimuli\ImageFiles-Set2\Scenes\Scenes_098.png,1,1,0,123,123,123,,,,,,,,,,,,,73.01536830000077,0.01536830000077316,None,110.55104290000054,110.55104290000054,110.55104290000054,110.55104290000054,110.55104290000054,110.55104290000054,110.55104290000054,110.55104290000054,,002,P014,2025_Feb_28_1648,CategoryLocalizer,2021.2.3,59.96052199252341,
73.8,74.0,5,0.0,Stimuli\Blank.png,0,0,0,124,124,124,,,,,,,,,,,,,73.81352779999906,0.013527799999067724,None,111.33516539999982,111.33516539999982,111.33516539999982,111.33516539999982,111.33516539999982,111.33516539999982,111.33516539999982,111.33516539999982,,002,P014,2025_Feb_28_1648,CategoryLocalizer,2021.2.3,59.96052199252341,
74.0,74.8,4,0.75,Stimuli\ImageFiles-Set2\Scenes\Scenes_108.png,0,0,0,125,125,125,,,,,,,,,,,,,74.01539140000023,0.015391400000225985,None,111.55194149999988,111.55194149999988,111.55194149999988,111.55194149999988,111.55194149999988,111.55194149999988,111.55194149999988,111.55194149999988,,002,P014,2025_Feb_28_1648,CategoryLocalizer,2021.2.3,59.96052199252341,
74.8,75.0,5,0.0,Stimuli\Blank.png,0,0,0,126,126,126,,,,,,,,,,,,,74.8164897000006,0.016489700000605012,None,112.35264459999962,112.35264459999962,112.35264459999962,112.35264459999962,112.35264459999962,112.35264459999962,112.35264459999962,112.35264459999962,,002,P014,2025_Feb_28_1648,CategoryLocalizer,2021.2.3,59.96052199252341,
75.0,75.8,4,0.75,Stimuli\ImageFiles-Set2\Scenes\Scenes_108.png,0,0,0,127,127,127,,,,,,,,,,,,,75.01520619999974,0.015206199999738601,1,112.55281739999918,112.55281739999918,112.55281739999918,112.55281739999918,112.55281739999918,112.55281739999918,112.55281739999918,112.55281739999918,0.323394000000917,002,P014,2025_Feb_28_1648,CategoryLocalizer,2021.2.3,59.96052199252341,
75.8,76.0,5,0.0,Stimuli\Blank.png,0,0,0,128,128,128,,,,,,,,,,,,,75.81601000000046,0.016010000000463265,None,113.33685299999888,113.33685299999888,113.33685299999888,113.33685299999888,113.33685299999888,113.33685299999888,113.33685299999888,113.33685299999888,,002,P014,2025_Feb_28_1648,CategoryLocalizer,2021.2.3,59.96052199252341,
76.0,88.0,0,0.0,Stimuli\Blank.png,0,0,0,129,129,129,,,,,,,,,,,,,75.99916029999986,-0.0008397000001423294,None,113.52033630000005,113.52033630000005,113.52033630000005,113.52033630000005,113.52033630000005,113.52033630000005,113.52033630000005,113.52033630000005,,002,P014,2025_Feb_28_1648,CategoryLocalizer,2021.2.3,59.96052199252341,
88.0,88.8,3,0.75,Stimuli\ImageFiles-Set2\Faces\Face_00056.png,0,0,0,130,130,130,,,,,,,,,,,,,88.00928019999992,0.009280199999921024,1,125.5309574999992,125.5309574999992,125.5309574999992,125.5309574999992,125.5309574999992,125.5309574999992,125.5309574999992,125.5309574999992,0.3520205000004353,002,P014,2025_Feb_28_1648,CategoryLocalizer,2021.2.3,59.96052199252341,
88.8,89.0,5,0.0,Stimuli\Blank.png,0,0,0,131,131,131,,,,,,,,,,,,,88.81205410000075,0.012054100000753465,None,126.34836940000059,126.34836940000059,126.34836940000059,126.34836940000059,126.34836940000059,126.34836940000059,126.34836940000059,126.34836940000059,,002,P014,2025_Feb_28_1648,CategoryLocalizer,2021.2.3,59.96052199252341,
89.0,89.8,3,0.75,Stimuli\ImageFiles-Set2\Faces\Face_00058.png,0,0,0,132,132,132,,,,,,,,,,,,,89.02747570000065,0.02747570000065025,None,126.5818949000004,126.5818949000004,126.5818949000004,126.5818949000004,126.5818949000004,126.5818949000004,126.5818949000004,126.5818949000004,,002,P014,2025_Feb_28_1648,CategoryLocalizer,2021.2.3,59.96052199252341,
89.8,90.0,5,0.0,Stimuli\Blank.png,0,0,0,133,133,133,,,,,,,,,,,,,89.84532790000048,0.04532790000048692,None,127.36593039999934,127.36593039999934,127.36593039999934,127.36593039999934,127.36593039999934,127.36593039999934,127.36593039999934,127.36593039999934,,002,P014,2025_Feb_28_1648,CategoryLocalizer,2021.2.3,59.96052199252341,
90.0,90.8,3,0.75,Stimuli\ImageFiles-Set2\Faces\Face_00068.png,0,0,0,134,134,134,,,,,,,,,,,,,90.01119440000002,0.011194400000022142,None,127.56610329999967,127.56610329999967,127.56610329999967,127.56610329999967,127.56610329999967,127.56610329999967,127.56610329999967,127.56610329999967,,002,P014,2025_Feb_28_1648,CategoryLocalizer,2021.2.3,59.96052199252341,
90.8,91.0,5,0.0,Stimuli\Blank.png,0,0,0,135,135,135,,,,,,,,,,,,,90.84680329999901,0.04680329999901289,None,128.38350369999898,128.38350369999898,128.38350369999898,128.38350369999898,128.38350369999898,128.38350369999898,128.38350369999898,128.38350369999898,,002,P014,2025_Feb_28_1648,CategoryLocalizer,2021.2.3,59.96052199252341,
91.0,91.8,3,0.75,Stimuli\ImageFiles-Set2\Faces\Face_00021.png,0,0,0,136,136,136,,,,,,,,,,,,,91.03027549999933,0.030275499999333988,None,128.56703039999957,128.56703039999957,128.56703039999957,128.56703039999957,128.56703039999957,128.56703039999957,128.56703039999957,128.56703039999957,,002,P014,2025_Feb_28_1648,CategoryLocalizer,2021.2.3,59.96052199252341,
91.8,92.0,5,0.0,Stimuli\Blank.png,0,0,0,137,137,137,,,,,,,,,,,,,91.8313677999995,0.03136779999950079,None,129.35103849999905,129.35103849999905,129.35103849999905,129.35103849999905,129.35103849999905,129.35103849999905,129.35103849999905,129.35103849999905,,002,P014,2025_Feb_28_1648,CategoryLocalizer,2021.2.3,59.96052199252341,
92.0,92.8,3,0.75,Stimuli\ImageFiles-Set2\Faces\Face_00042.png,0,0,0,138,138,138,,,,,,,,,,,,,92.0134225999991,0.013422599999103113,None,129.53453660000014,129.53453660000014,129.53453660000014,129.53453660000014,129.53453660000014,129.53453660000014,129.53453660000014,129.53453660000014,,002,P014,2025_Feb_28_1648,CategoryLocalizer,2021.2.3,59.96052199252341,
92.8,93.0,5,0.0,Stimuli\Blank.png,0,0,0,139,139,139,,,,,,,,,,,,,92.81460080000033,0.0146008000003377,None,130.33523109999987,130.33523109999987,130.33523109999987,130.33523109999987,130.33523109999987,130.33523109999987,130.33523109999987,130.33523109999987,,002,P014,2025_Feb_28_1648,CategoryLocalizer,2021.2.3,59.96052199252341,
93.0,93.8,3,0.75,Stimuli\ImageFiles-Set2\Faces\Face_00096.png,0,0,0,140,140,140,,,,,,,,,,,,,93.01447120000012,0.014471200000116369,None,130.55209420000028,130.55209420000028,130.55209420000028,130.55209420000028,130.55209420000028,130.55209420000028,130.55209420000028,130.55209420000028,,002,P014,2025_Feb_28_1648,CategoryLocalizer,2021.2.3,59.96052199252341,
93.8,94.0,5,0.0,Stimuli\Blank.png,0,0,0,141,141,141,,,,,,,,,,,,,93.83190809999905,0.031908099999057526,None,131.3527880999991,131.3527880999991,131.3527880999991,131.3527880999991,131.3527880999991,131.3527880999991,131.3527880999991,131.3527880999991,,002,P014,2025_Feb_28_1648,CategoryLocalizer,2021.2.3,59.96052199252341,
94.0,94.8,3,0.75,Stimuli\ImageFiles-Set2\Faces\Face_00050.png,0,0,0,142,142,142,,,,,,,,,,,,,94.01445690000037,0.014456900000368478,None,131.55299249999916,131.55299249999916,131.55299249999916,131.55299249999916,131.55299249999916,131.55299249999916,131.55299249999916,131.55299249999916,,002,P014,2025_Feb_28_1648,CategoryLocalizer,2021.2.3,59.96052199252341,
94.8,95.0,5,0.0,Stimuli\Blank.png,0,0,0,143,143,143,,,,,,,,,,,,,94.83194220000041,0.031942200000415255,None,132.3536753999997,132.3536753999997,132.3536753999997,132.3536753999997,132.3536753999997,132.3536753999997,132.3536753999997,132.3536753999997,,002,P014,2025_Feb_28_1648,CategoryLocalizer,2021.2.3,59.96052199252341,
95.0,95.8,3,0.75,Stimuli\ImageFiles-Set2\Faces\Face_00104.png,0,0,0,144,144,144,,,,,,,,,,,,,95.01569600000039,0.015696000000389176,None,132.57058789999974,132.57058789999974,132.57058789999974,132.57058789999974,132.57058789999974,132.57058789999974,132.57058789999974,132.57058789999974,,002,P014,2025_Feb_28_1648,CategoryLocalizer,2021.2.3,59.96052199252341,
95.8,96.0,5,0.0,Stimuli\Blank.png,0,0,0,145,145,145,,,,,,,,,,,,,95.8346376999998,0.034637699999805704,None,133.3712703000001,133.3712703000001,133.3712703000001,133.3712703000001,133.3712703000001,133.3712703000001,133.3712703000001,133.3712703000001,,002,P014,2025_Feb_28_1648,CategoryLocalizer,2021.2.3,59.96052199252341,
96.0,96.8,3,0.75,Stimuli\ImageFiles-Set2\Faces\Face_00118.png,0,0,0,146,146,146,,,,,,,,,,,,,96.01642229999925,0.016422299999248935,None,133.5714465000001,133.5714465000001,133.5714465000001,133.5714465000001,133.5714465000001,133.5714465000001,133.5714465000001,133.5714465000001,,002,P014,2025_Feb_28_1648,CategoryLocalizer,2021.2.3,59.96052199252341,
96.8,97.0,5,0.0,Stimuli\Blank.png,0,0,0,147,147,147,,,,,,,,,,,,,96.83470970000053,0.03470970000053342,None,134.35545830000046,134.35545830000046,134.35545830000046,134.35545830000046,134.35545830000046,134.35545830000046,134.35545830000046,134.35545830000046,,002,P014,2025_Feb_28_1648,CategoryLocalizer,2021.2.3,59.96052199252341,
97.0,97.8,3,0.75,Stimuli\ImageFiles-Set2\Faces\Face_00112.png,0,0,0,148,148,148,,,,,,,,,,,,,97.00159800000074,0.001598000000740285,None,134.5389725999994,134.5389725999994,134.5389725999994,134.5389725999994,134.5389725999994,134.5389725999994,134.5389725999994,134.5389725999994,,002,P014,2025_Feb_28_1648,CategoryLocalizer,2021.2.3,59.96052199252341,
97.8,98.0,5,0.0,Stimuli\Blank.png,0,0,0,149,149,149,,,,,,,,,,,,,97.81865330000073,0.01865330000073584,None,135.33966119999968,135.33966119999968,135.33966119999968,135.33966119999968,135.33966119999968,135.33966119999968,135.33966119999968,135.33966119999968,,002,P014,2025_Feb_28_1648,CategoryLocalizer,2021.2.3,59.96052199252341,
98.0,98.8,3,0.75,Stimuli\ImageFiles-Set2\Faces\Face_00066.png,0,0,0,150,150,150,,,,,,,,,,,,,98.00149020000026,0.0014902000002621207,None,135.55650629999946,135.55650629999946,135.55650629999946,135.55650629999946,135.55650629999946,135.55650629999946,135.55650629999946,135.55650629999946,,002,P014,2025_Feb_28_1648,CategoryLocalizer,2021.2.3,59.96052199252341,
98.8,99.0,5,0.0,Stimuli\Blank.png,0,0,0,151,151,151,,,,,,,,,,,,,98.83547770000041,0.03547770000041339,None,136.35721410000042,136.35721410000042,136.35721410000042,136.35721410000042,136.35721410000042,136.35721410000042,136.35721410000042,136.35721410000042,,002,P014,2025_Feb_28_1648,CategoryLocalizer,2021.2.3,59.96052199252341,
99.0,99.8,3,0.75,Stimuli\ImageFiles-Set2\Faces\Face_00028.png,0,0,0,152,152,152,,,,,,,,,,,,,99.00483820000045,0.004838200000449433,None,136.55741149999994,136.55741149999994,136.55741149999994,136.55741149999994,136.55741149999994,136.55741149999994,136.55741149999994,136.55741149999994,,002,P014,2025_Feb_28_1648,CategoryLocalizer,2021.2.3,59.96052199252341,
99.8,100.0,5,0.0,Stimuli\Blank.png,0,0,0,153,153,153,,,,,,,,,,,,,99.83724729999994,0.03724729999994736,None,137.35810499999934,137.35810499999934,137.35810499999934,137.35810499999934,137.35810499999934,137.35810499999934,137.35810499999934,137.35810499999934,,002,P014,2025_Feb_28_1648,CategoryLocalizer,2021.2.3,59.96052199252341,
100.0,100.8,3,0.75,Stimuli\ImageFiles-Set2\Faces\Face_00094.png,0,0,0,154,154,154,,,,,,,,,,,,,100.00417170000037,0.004171700000370038,None,137.55828479999946,137.55828479999946,137.55828479999946,137.55828479999946,137.55828479999946,137.55828479999946,137.55828479999946,137.55828479999946,,002,P014,2025_Feb_28_1648,CategoryLocalizer,2021.2.3,59.96052199252341,
100.8,101.0,5,0.0,Stimuli\Blank.png,0,0,0,155,155,155,,,,,,,,,,,,,100.83980220000012,0.0398022000001248,None,138.37567560000025,138.37567560000025,138.37567560000025,138.37567560000025,138.37567560000025,138.37567560000025,138.37567560000025,138.37567560000025,,002,P014,2025_Feb_28_1648,CategoryLocalizer,2021.2.3,59.96052199252341,
101.0,101.8,3,0.75,Stimuli\ImageFiles-Set2\Faces\Face_00094.png,1,1,0,156,156,156,,,,,,,,,,,,,101.02078169999913,0.020781699999133707,1,138.55916839999918,138.55916839999918,138.55916839999918,138.55916839999918,138.55916839999918,138.55916839999918,138.55916839999918,138.55916839999918,0.3862018999989232,002,P014,2025_Feb_28_1648,CategoryLocalizer,2021.2.3,59.96052199252341,
101.8,102.0,5,0.0,Stimuli\Blank.png,0,0,0,157,157,157,,,,,,,,,,,,,101.8222953000004,0.022295300000408247,None,139.3431939000002,139.3431939000002,139.3431939000002,139.3431939000002,139.3431939000002,139.3431939000002,139.3431939000002,139.3431939000002,,002,P014,2025_Feb_28_1648,CategoryLocalizer,2021.2.3,59.96052199252341,
102.0,102.8,3,0.75,Stimuli\ImageFiles-Set2\Faces\Face_00015.png,0,0,0,158,158,158,,,,,,,,,,,,,102.00553319999926,0.005533199999263161,None,139.54337769999984,139.54337769999984,139.54337769999984,139.54337769999984,139.54337769999984,139.54337769999984,139.54337769999984,139.54337769999984,,002,P014,2025_Feb_28_1648,CategoryLocalizer,2021.2.3,59.96052199252341,
102.8,103.0,5,0.0,Stimuli\Blank.png,0,0,0,159,159,159,,,,,,,,,,,,,102.82453619999978,0.024536199999786845,None,140.36080070000025,140.36080070000025,140.36080070000025,140.36080070000025,140.36080070000025,140.36080070000025,140.36080070000025,140.36080070000025,,002,P014,2025_Feb_28_1648,CategoryLocalizer,2021.2.3,59.96052199252341,
103.0,103.8,3,0.75,Stimuli\ImageFiles-Set2\Faces\Face_00040.png,0,0,0,160,160,160,,,,,,,,,,,,,103.02484929999991,0.024849299999914365,None,140.56096489999982,140.56096489999982,140.56096489999982,140.56096489999982,140.56096489999982,140.56096489999982,140.56096489999982,140.56096489999982,,002,P014,2025_Feb_28_1648,CategoryLocalizer,2021.2.3,59.96052199252341,
103.8,104.0,5,0.0,Stimuli\Blank.png,0,0,0,161,161,161,,,,,,,,,,,,,103.82498950000081,0.02498950000081379,None,141.36164850000023,141.36164850000023,141.36164850000023,141.36164850000023,141.36164850000023,141.36164850000023,141.36164850000023,141.36164850000023,,002,P014,2025_Feb_28_1648,CategoryLocalizer,2021.2.3,59.96052199252341,
104.0,104.8,1,0.75,Stimuli\ImageFiles-Set2\Objects\Object_Barrel_00001.png,0,0,0,162,162,162,,,,,,,,,,,,,104.02599249999912,0.0259924999991199,None,141.57854959999895,141.57854959999895,141.57854959999895,141.57854959999895,141.57854959999895,141.57854959999895,141.57854959999895,141.57854959999895,,002,P014,2025_Feb_28_1648,CategoryLocalizer,2021.2.3,59.96052199252341,
104.8,105.0,5,0.0,Stimuli\Blank.png,0,0,0,163,163,163,,,,,,,,,,,,,104.84103649999997,0.04103649999997572,None,142.3625374000003,142.3625374000003,142.3625374000003,142.3625374000003,142.3625374000003,142.3625374000003,142.3625374000003,142.3625374000003,,002,P014,2025_Feb_28_1648,CategoryLocalizer,2021.2.3,59.96052199252341,
105.0,105.8,1,0.75,Stimuli\ImageFiles-Set2\Objects\Object_Sandal_00001.png,0,0,0,164,164,164,,,,,,,,,,,,,105.00783729999966,0.007837299999664538,None,142.5293485000002,142.5293485000002,142.5293485000002,142.5293485000002,142.5293485000002,142.5293485000002,142.5293485000002,142.5293485000002,,002,P014,2025_Feb_28_1648,CategoryLocalizer,2021.2.3,59.96052199252341,
105.8,106.0,5,0.0,Stimuli\Blank.png,0,0,0,165,165,165,,,,,,,,,,,,,105.80826239999988,0.008262399999878767,None,143.33005029999913,143.33005029999913,143.33005029999913,143.33005029999913,143.33005029999913,143.33005029999913,143.33005029999913,143.33005029999913,,002,P014,2025_Feb_28_1648,CategoryLocalizer,2021.2.3,59.96052199252341,
106.0,106.8,1,0.75,Stimuli\ImageFiles-Set2\Objects\Object_Car_00001.png,0,0,0,166,166,166,,,,,,,,,,,,,106.00851159999911,0.00851159999911033,None,143.54701319999913,143.54701319999913,143.54701319999913,143.54701319999913,143.54701319999913,143.54701319999913,143.54701319999913,143.54701319999913,,002,P014,2025_Feb_28_1648,CategoryLocalizer,2021.2.3,59.96052199252341,
106.8,107.0,5,0.0,Stimuli\Blank.png,0,0,0,167,167,167,,,,,,,,,,,,,106.8272992000002,0.027299200000200585,None,144.34762729999966,144.34762729999966,144.34762729999966,144.34762729999966,144.34762729999966,144.34762729999966,144.34762729999966,144.34762729999966,,002,P014,2025_Feb_28_1648,CategoryLocalizer,2021.2.3,59.96052199252341,
107.0,107.8,1,0.75,Stimuli\ImageFiles-Set2\Objects\Object_Fork_00001.png,0,0,0,168,168,168,,,,,,,,,,,,,107.01188580000053,0.011885800000527524,None,144.5477934999999,144.5477934999999,144.5477934999999,144.5477934999999,144.5477934999999,144.5477934999999,144.5477934999999,144.5477934999999,,002,P014,2025_Feb_28_1648,CategoryLocalizer,2021.2.3,59.96052199252341,
107.8,108.0,5,0.0,Stimuli\Blank.png,0,0,0,169,169,169,,,,,,,,,,,,,107.82703330000004,0.027033300000042004,None,145.34850259999985,145.34850259999985,145.34850259999985,145.34850259999985,145.34850259999985,145.34850259999985,145.34850259999985,145.34850259999985,,002,P014,2025_Feb_28_1648,CategoryLocalizer,2021.2.3,59.96052199252341,
108.0,108.8,1,0.75,Stimuli\ImageFiles-Set2\Objects\Object_WashingMachine_00001.png,0,0,0,170,170,170,,,,,,,,,,,,,108.01320730000043,0.013207300000431133,None,145.56540639999912,145.56540639999912,145.56540639999912,145.56540639999912,145.56540639999912,145.56540639999912,145.56540639999912,145.56540639999912,,002,P014,2025_Feb_28_1648,CategoryLocalizer,2021.2.3,59.96052199252341,
108.8,109.0,5,0.0,Stimuli\Blank.png,0,0,0,171,171,171,,,,,,,,,,,,,108.84501789999922,0.04501789999922323,None,146.3660689999997,146.3660689999997,146.3660689999997,146.3660689999997,146.3660689999997,146.3660689999997,146.3660689999997,146.3660689999997,,002,P014,2025_Feb_28_1648,CategoryLocalizer,2021.2.3,59.96052199252341,
109.0,109.8,1,0.75,Stimuli\ImageFiles-Set2\Objects\Object_WashingMachine_00001.png,1,1,0,172,172,172,,,,,,,,,,,,,109.01191359999939,0.01191359999938868,1,146.53289089999998,146.53289089999998,146.53289089999998,146.53289089999998,146.53289089999998,146.53289089999998,146.53289089999998,146.53289089999998,0.39721470000040426,002,P014,2025_Feb_28_1648,CategoryLocalizer,2021.2.3,59.96052199252341,
109.8,110.0,5,0.0,Stimuli\Blank.png,0,0,0,173,173,173,,,,,,,,,,,,,109.81304219999947,0.013042199999475201,None,147.33359579999888,147.33359579999888,147.33359579999888,147.33359579999888,147.33359579999888,147.33359579999888,147.33359579999888,147.33359579999888,,002,P014,2025_Feb_28_1648,CategoryLocalizer,2021.2.3,59.96052199252341,
110.0,110.8,1,0.75,Stimuli\ImageFiles-Set2\Objects\Object_Lock_00001.png,0,0,0,174,174,174,,,,,,,,,,,,,110.01283110000077,0.012831100000767037,None,147.5504808000005,147.5504808000005,147.5504808000005,147.5504808000005,147.5504808000005,147.5504808000005,147.5504808000005,147.5504808000005,,002,P014,2025_Feb_28_1648,CategoryLocalizer,2021.2.3,59.96052199252341,
110.8,111.0,5,0.0,Stimuli\Blank.png,0,0,0,175,175,175,,,,,,,,,,,,,110.83173379999971,0.0317337999997136,None,148.36786369999936,148.36786369999936,148.36786369999936,148.36786369999936,148.36786369999936,148.36786369999936,148.36786369999936,148.36786369999936,,002,P014,2025_Feb_28_1648,CategoryLocalizer,2021.2.3,59.96052199252341,
111.0,111.8,1,0.75,Stimuli\ImageFiles-Set2\Objects\Object_Mug_00001.png,0,0,0,176,176,176,,,,,,,,,,,,,111.0295857000001,0.02958570000009786,None,148.56804980000015,148.56804980000015,148.56804980000015,148.56804980000015,148.56804980000015,148.56804980000015,148.56804980000015,148.56804980000015,,002,P014,2025_Feb_28_1648,CategoryLocalizer,2021.2.3,59.96052199252341,
111.8,112.0,5,0.0,Stimuli\Blank.png,0,0,0,177,177,177,,,,,,,,,,,,,111.83271550000063,0.03271550000063428,None,149.3687422999992,149.3687422999992,149.3687422999992,149.3687422999992,149.3687422999992,149.3687422999992,149.3687422999992,149.3687422999992,,002,P014,2025_Feb_28_1648,CategoryLocalizer,2021.2.3,59.96052199252341,
112.0,112.8,1,0.75,Stimuli\ImageFiles-Set2\Objects\Object_Perfume_00001.png,1,1,0,178,178,178,,,,,,,,,,,,,112.01440790000015,0.01440790000015113,None,149.5522431999998,149.5522431999998,149.5522431999998,149.5522431999998,149.5522431999998,149.5522431999998,149.5522431999998,149.5522431999998,,002,P014,2025_Feb_28_1648,CategoryLocalizer,2021.2.3,59.96052199252341,
112.8,113.0,5,0.0,Stimuli\Blank.png,0,0,0,179,179,179,,,,,,,,,,,,,112.83188920000066,0.031889200000662754,None,150.35293850000016,150.35293850000016,150.35293850000016,150.35293850000016,150.35293850000016,150.35293850000016,150.35293850000016,150.35293850000016,,002,P014,2025_Feb_28_1648,CategoryLocalizer,2021.2.3,59.96052199252341,
113.0,113.8,1,0.75,Stimuli\ImageFiles-Set2\Objects\Object_Desk_00001.png,0,0,0,180,180,180,,,,,,,,,,,,,113.01645610000014,0.016456100000141305,None,150.5531050999998,150.5531050999998,150.5531050999998,150.5531050999998,150.5531050999998,150.5531050999998,150.5531050999998,150.5531050999998,,002,P014,2025_Feb_28_1648,CategoryLocalizer,2021.2.3,59.96052199252341,
113.8,114.0,5,0.0,Stimuli\Blank.png,0,0,0,181,181,181,,,,,,,,,,,,,113.81780740000067,0.017807400000677376,None,151.35382220000065,151.35382220000065,151.35382220000065,151.35382220000065,151.35382220000065,151.35382220000065,151.35382220000065,151.35382220000065,,002,P014,2025_Feb_28_1648,CategoryLocalizer,2021.2.3,59.96052199252341,
114.0,114.8,1,0.75,Stimuli\ImageFiles-Set2\Objects\Object_Desk_00001.png,0,0,0,182,182,182,,,,,,,,,,,,,114.01608180000039,0.016081800000392832,1,151.53728760000013,151.53728760000013,151.53728760000013,151.53728760000013,151.53728760000013,151.53728760000013,151.53728760000013,151.53728760000013,0.436735299999782,002,P014,2025_Feb_28_1648,CategoryLocalizer,2021.2.3,59.96052199252341,
114.8,115.0,5,0.0,Stimuli\Blank.png,0,0,0,183,183,183,,,,,,,,,,,,,114.80045369999971,0.00045369999971001107,None,152.32136600000013,152.32136600000013,152.32136600000013,152.32136600000013,152.32136600000013,152.32136600000013,152.32136600000013,152.32136600000013,,002,P014,2025_Feb_28_1648,CategoryLocalizer,2021.2.3,59.96052199252341,
115.0,115.8,1,0.75,Stimuli\ImageFiles-Set2\Objects\Object_Battery_00001.png,0,0,0,184,184,184,,,,,,,,,,,,,115.00085880000006,0.0008588000000600005,None,152.52152670000032,152.52152670000032,152.52152670000032,152.52152670000032,152.52152670000032,152.52152670000032,152.52152670000032,152.52152670000032,,002,P014,2025_Feb_28_1648,CategoryLocalizer,2021.2.3,59.96052199252341,
115.8,116.0,5,0.0,Stimuli\Blank.png,0,0,0,185,185,185,,,,,,,,,,,,,115.80131690000053,0.001316900000531973,None,153.3224076000006,153.3224076000006,153.3224076000006,153.3224076000006,153.3224076000006,153.3224076000006,153.3224076000006,153.3224076000006,,002,P014,2025_Feb_28_1648,CategoryLocalizer,2021.2.3,59.96052199252341,
116.0,116.8,1,0.75,Stimuli\ImageFiles-Set2\Objects\Object_Dresser_00001.png,0,0,0,186,186,186,,,,,,,,,,,,,116.00144770000043,0.0014477000004262663,None,153.53909749999912,153.53909749999912,153.53909749999912,153.53909749999912,153.53909749999912,153.53909749999912,153.53909749999912,153.53909749999912,,002,P014,2025_Feb_28_1648,CategoryLocalizer,2021.2.3,59.96052199252341,
116.8,117.0,5,0.0,Stimuli\Blank.png,0,0,0,187,187,187,,,,,,,,,,,,,116.81895110000005,0.01895110000005218,None,154.33980119999978,154.33980119999978,154.33980119999978,154.33980119999978,154.33980119999978,154.33980119999978,154.33980119999978,154.33980119999978,,002,P014,2025_Feb_28_1648,CategoryLocalizer,2021.2.3,59.96052199252341,
117.0,117.8,1,0.75,Stimuli\ImageFiles-Set2\Objects\Object_Refrigerator_00001.png,0,0,0,188,188,188,,,,,,,,,,,,,117.00194759999977,0.0019475999997666804,None,154.55664909999905,154.55664909999905,154.55664909999905,154.55664909999905,154.55664909999905,154.55664909999905,154.55664909999905,154.55664909999905,,002,P014,2025_Feb_28_1648,CategoryLocalizer,2021.2.3,59.96052199252341,
117.8,118.0,5,0.0,Stimuli\Blank.png,0,0,0,189,189,189,,,,,,,,,,,,,117.83659119999902,0.03659119999902316,None,155.3573770999992,155.3573770999992,155.3573770999992,155.3573770999992,155.3573770999992,155.3573770999992,155.3573770999992,155.3573770999992,,002,P014,2025_Feb_28_1648,CategoryLocalizer,2021.2.3,59.96052199252341,
118.0,118.8,1,0.75,Stimuli\ImageFiles-Set2\Objects\Object_Sponge_00001.png,0,0,0,190,190,190,,,,,,,,,,,,,118.0024224000008,0.0024224000007961877,None,155.52417269999933,155.52417269999933,155.52417269999933,155.52417269999933,155.52417269999933,155.52417269999933,155.52417269999933,155.52417269999933,,002,P014,2025_Feb_28_1648,CategoryLocalizer,2021.2.3,59.96052199252341,
118.8,119.0,5,0.0,Stimuli\Blank.png,0,0,0,191,191,191,,,,,,,,,,,,,118.80405020000035,0.004050200000349946,None,156.32488310000008,156.32488310000008,156.32488310000008,156.32488310000008,156.32488310000008,156.32488310000008,156.32488310000008,156.32488310000008,,002,P014,2025_Feb_28_1648,CategoryLocalizer,2021.2.3,59.96052199252341,
119.0,119.8,1,0.75,Stimuli\ImageFiles-Set2\Objects\Object_Razor_00001.png,0,0,0,192,192,192,,,,,,,,,,,,,119.00402519999989,0.004025199999887263,None,156.55843219999952,156.55843219999952,156.55843219999952,156.55843219999952,156.55843219999952,156.55843219999952,156.55843219999952,156.55843219999952,,002,P014,2025_Feb_28_1648,CategoryLocalizer,2021.2.3,59.96052199252341,
119.8,120.0,5,0.0,Stimuli\Blank.png,0,0,0,193,193,193,,,,,,,,,,,,,119.83777320000081,0.037773200000813745,None,157.35913979999896,157.35913979999896,157.35913979999896,157.35913979999896,157.35913979999896,157.35913979999896,157.35913979999896,157.35913979999896,,002,P014,2025_Feb_28_1648,CategoryLocalizer,2021.2.3,59.96052199252341,
120.0,120.8,4,0.75,Stimuli\ImageFiles-Set2\Scenes\Scenes_083.png,0,0,0,194,194,194,,,,,,,,,,,,,120.0046325000003,0.004632500000298023,None,157.5426341000002,157.5426341000002,157.5426341000002,157.5426341000002,157.5426341000002,157.5426341000002,157.5426341000002,157.5426341000002,,002,P014,2025_Feb_28_1648,CategoryLocalizer,2021.2.3,59.96052199252341,
120.8,121.0,5,0.0,Stimuli\Blank.png,0,0,0,195,195,195,,,,,,,,,,,,,120.82166139999936,0.021661399999359787,None,158.34342280000055,158.34342280000055,158.34342280000055,158.34342280000055,158.34342280000055,158.34342280000055,158.34342280000055,158.34342280000055,,002,P014,2025_Feb_28_1648,CategoryLocalizer,2021.2.3,59.96052199252341,
121.0,121.8,4,0.75,Stimuli\ImageFiles-Set2\Scenes\Scenes_074.png,0,0,0,196,196,196,,,,,,,,,,,,,121.0053695000006,0.005369500000597327,None,158.54351999999926,158.54351999999926,158.54351999999926,158.54351999999926,158.54351999999926,158.54351999999926,158.54351999999926,158.54351999999926,,002,P014,2025_Feb_28_1648,CategoryLocalizer,2021.2.3,59.96052199252341,
121.8,122.0,5,0.0,Stimuli\Blank.png,0,0,0,197,197,197,,,,,,,,,,,,,121.82333069999913,0.023330699999135618,None,159.3442481000002,159.3442481000002,159.3442481000002,159.3442481000002,159.3442481000002,159.3442481000002,159.3442481000002,159.3442481000002,,002,P014,2025_Feb_28_1648,CategoryLocalizer,2021.2.3,59.96052199252341,
122.0,122.8,4,0.75,Stimuli\ImageFiles-Set2\Scenes\Scenes_072.png,0,0,0,198,198,198,,,,,,,,,,,,,122.00675989999945,0.006759899999451591,None,159.54445829999895,159.54445829999895,159.54445829999895,159.54445829999895,159.54445829999895,159.54445829999895,159.54445829999895,159.54445829999895,,002,P014,2025_Feb_28_1648,CategoryLocalizer,2021.2.3,59.96052199252341,
122.8,123.0,5,0.0,Stimuli\Blank.png,0,0,0,199,199,199,,,,,,,,,,,,,122.82354769999984,0.0235476999998383,None,160.3451559999994,160.3451559999994,160.3451559999994,160.3451559999994,160.3451559999994,160.3451559999994,160.3451559999994,160.3451559999994,,002,P014,2025_Feb_28_1648,CategoryLocalizer,2021.2.3,59.96052199252341,
123.0,123.8,4,0.75,Stimuli\ImageFiles-Set2\Scenes\Scenes_077.png,0,0,0,200,200,200,,,,,,,,,,,,,123.00757449999946,0.007574499999464024,None,160.5620282,160.5620282,160.5620282,160.5620282,160.5620282,160.5620282,160.5620282,160.5620282,,002,P014,2025_Feb_28_1648,CategoryLocalizer,2021.2.3,59.96052199252341,
123.8,124.0,5,0.0,Stimuli\Blank.png,0,0,0,201,201,201,,,,,,,,,,,,,123.84279830000014,0.042798300000143286,None,161.37937819999934,161.37937819999934,161.37937819999934,161.37937819999934,161.37937819999934,161.37937819999934,161.37937819999934,161.37937819999934,,002,P014,2025_Feb_28_1648,CategoryLocalizer,2021.2.3,59.96052199252341,
124.0,124.8,4,0.75,Stimuli\ImageFiles-Set2\Scenes\Scenes_070.png,0,0,0,202,202,202,,,,,,,,,,,,,124.02519140000004,0.02519140000003972,None,161.56286460000047,161.56286460000047,161.56286460000047,161.56286460000047,161.56286460000047,161.56286460000047,161.56286460000047,161.56286460000047,,002,P014,2025_Feb_28_1648,CategoryLocalizer,2021.2.3,59.96052199252341,
124.8,125.0,5,0.0,Stimuli\Blank.png,0,0,0,203,203,203,,,,,,,,,,,,,124.8251737999999,0.0251737999999051,None,162.34688789999927,162.34688789999927,162.34688789999927,162.34688789999927,162.34688789999927,162.34688789999927,162.34688789999927,162.34688789999927,,002,P014,2025_Feb_28_1648,CategoryLocalizer,2021.2.3,59.96052199252341,
125.0,125.8,4,0.75,Stimuli\ImageFiles-Set2\Scenes\Scenes_104.png,0,0,0,204,204,204,,,,,,,,,,,,,125.00878000000012,0.008780000000115251,None,162.54705759999888,162.54705759999888,162.54705759999888,162.54705759999888,162.54705759999888,162.54705759999888,162.54705759999888,162.54705759999888,,002,P014,2025_Feb_28_1648,CategoryLocalizer,2021.2.3,59.96052199252341,
125.8,126.0,5,0.0,Stimuli\Blank.png,0,0,0,205,205,205,,,,,,,,,,,,,125.82871759999944,0.028717599999438903,None,163.36445979999917,163.36445979999917,163.36445979999917,163.36445979999917,163.36445979999917,163.36445979999917,163.36445979999917,163.36445979999917,,002,P014,2025_Feb_28_1648,CategoryLocalizer,2021.2.3,59.96052199252341,
126.0,126.8,4,0.75,Stimuli\ImageFiles-Set2\Scenes\Scenes_079.png,0,0,0,206,206,206,,,,,,,,,,,,,126.02880000000005,0.028800000000046566,None,163.58132819999992,163.58132819999992,163.58132819999992,163.58132819999992,163.58132819999992,163.58132819999992,163.58132819999992,163.58132819999992,,002,P014,2025_Feb_28_1648,CategoryLocalizer,2021.2.3,59.96052199252341,
126.8,127.0,5,0.0,Stimuli\Blank.png,0,0,0,207,207,207,,,,,,,,,,,,,126.84417699999904,0.04417699999903846,None,164.3653364999991,164.3653364999991,164.3653364999991,164.3653364999991,164.3653364999991,164.3653364999991,164.3653364999991,164.3653364999991,,002,P014,2025_Feb_28_1648,CategoryLocalizer,2021.2.3,59.96052199252341,
127.0,127.8,4,0.75,Stimuli\ImageFiles-Set2\Scenes\Scenes_097.png,0,0,0,208,208,208,,,,,,,,,,,,,127.01039259999925,0.010392599999249796,None,164.5488337000006,164.5488337000006,164.5488337000006,164.5488337000006,164.5488337000006,164.5488337000006,164.5488337000006,164.5488337000006,,002,P014,2025_Feb_28_1648,CategoryLocalizer,2021.2.3,59.96052199252341,
127.8,128.0,5,0.0,Stimuli\Blank.png,0,0,0,209,209,209,,,,,,,,,,,,,127.8292333999998,0.02923339999979646,None,165.36619500000052,165.36619500000052,165.36619500000052,165.36619500000052,165.36619500000052,165.36619500000052,165.36619500000052,165.36619500000052,,002,P014,2025_Feb_28_1648,CategoryLocalizer,2021.2.3,59.96052199252341,
128.0,128.8,4,0.75,Stimuli\ImageFiles-Set2\Scenes\Scenes_097.png,1,1,0,210,210,210,,,,,,,,,,,,,128.02858770000057,0.028587700000571203,1,165.54971119999936,165.54971119999936,165.54971119999936,165.54971119999936,165.54971119999936,165.54971119999936,165.54971119999936,165.54971119999936,0.4597987000015564,002,P014,2025_Feb_28_1648,CategoryLocalizer,2021.2.3,59.96052199252341,
128.8,129.0,5,0.0,Stimuli\Blank.png,0,0,0,211,211,211,,,,,,,,,,,,,128.81265460000031,0.012654600000303162,None,166.3337515000003,166.3337515000003,166.3337515000003,166.3337515000003,166.3337515000003,166.3337515000003,166.3337515000003,166.3337515000003,,002,P014,2025_Feb_28_1648,CategoryLocalizer,2021.2.3,59.96052199252341,
129.0,129.8,4,0.75,Stimuli\ImageFiles-Set2\Scenes\Scenes_068.png,0,0,0,212,212,212,,,,,,,,,,,,,129.01282059999903,0.012820599999031401,None,166.5506002000002,166.5506002000002,166.5506002000002,166.5506002000002,166.5506002000002,166.5506002000002,166.5506002000002,166.5506002000002,,002,P014,2025_Feb_28_1648,CategoryLocalizer,2021.2.3,59.96052199252341,
129.8,130.0,5,0.0,Stimuli\Blank.png,0,0,0,213,213,213,,,,,,,,,,,,,129.82966879999913,0.02966879999911498,None,167.35130819999904,167.35130819999904,167.35130819999904,167.35130819999904,167.35130819999904,167.35130819999904,167.35130819999904,167.35130819999904,,002,P014,2025_Feb_28_1648,CategoryLocalizer,2021.2.3,59.96052199252341,
130.0,130.8,4,0.75,Stimuli\ImageFiles-Set2\Scenes\Scenes_073.png,0,0,0,214,214,214,,,,,,,,,,,,,130.01399479999964,0.013994799999636598,None,167.55149170000004,167.55149170000004,167.55149170000004,167.55149170000004,167.55149170000004,167.55149170000004,167.55149170000004,167.55149170000004,,002,P014,2025_Feb_28_1648,CategoryLocalizer,2021.2.3,59.96052199252341,
130.8,131.0,5,0.0,Stimuli\Blank.png,0,0,0,215,215,215,,,,,,,,,,,,,130.83346259999962,0.03346259999960921,None,168.36889390000033,168.36889390000033,168.36889390000033,168.36889390000033,168.36889390000033,168.36889390000033,168.36889390000033,168.36889390000033,,002,P014,2025_Feb_28_1648,CategoryLocalizer,2021.2.3,59.96052199252341,
131.0,131.8,4,0.75,Stimuli\ImageFiles-Set2\Scenes\Scenes_099.png,0,0,0,216,216,216,,,,,,,,,,,,,131.01394269999946,0.013942699999461183,None,168.55237540000053,168.55237540000053,168.55237540000053,168.55237540000053,168.55237540000053,168.55237540000053,168.55237540000053,168.55237540000053,,002,P014,2025_Feb_28_1648,CategoryLocalizer,2021.2.3,59.96052199252341,
131.8,132.0,5,0.0,Stimuli\Blank.png,0,0,0,217,217,217,,,,,,,,,,,,,131.83146529999976,0.031465299999752006,None,169.35305289999997,169.35305289999997,169.35305289999997,169.35305289999997,169.35305289999997,169.35305289999997,169.35305289999997,169.35305289999997,,002,P014,2025_Feb_28_1648,CategoryLocalizer,2021.2.3,59.96052199252341,
132.0,132.8,4,0.75,Stimuli\ImageFiles-Set2\Scenes\Scenes_087.png,0,0,0,218,218,218,,,,,,,,,,,,,132.01591460000054,0.015914600000542123,None,169.55326810000042,169.55326810000042,169.55326810000042,169.55326810000042,169.55326810000042,169.55326810000042,169.55326810000042,169.55326810000042,,002,P014,2025_Feb_28_1648,CategoryLocalizer,2021.2.3,59.96052199252341,
132.8,133.0,5,0.0,Stimuli\Blank.png,0,0,0,219,219,219,,,,,,,,,,,,,132.81617050000023,0.01617050000021436,None,170.33728940000037,170.33728940000037,170.33728940000037,170.33728940000037,170.33728940000037,170.33728940000037,170.33728940000037,170.33728940000037,,002,P014,2025_Feb_28_1648,CategoryLocalizer,2021.2.3,59.96052199252341,
133.0,133.8,4,0.75,Stimuli\ImageFiles-Set2\Scenes\Scenes_084.png,0,0,0,220,220,220,,,,,,,,,,,,,132.99988529999973,-0.00011470000026747584,None,170.537487399999,170.537487399999,170.537487399999,170.537487399999,170.537487399999,170.537487399999,170.537487399999,170.537487399999,,002,P014,2025_Feb_28_1648,CategoryLocalizer,2021.2.3,59.96052199252341,
133.8,134.0,5,0.0,Stimuli\Blank.png,0,0,0,221,221,221,,,,,,,,,,,,,133.81699990000016,0.016999900000143953,None,171.33818129999963,171.33818129999963,171.33818129999963,171.33818129999963,171.33818129999963,171.33818129999963,171.33818129999963,171.33818129999963,,002,P014,2025_Feb_28_1648,CategoryLocalizer,2021.2.3,59.96052199252341,
134.0,134.8,4,0.75,Stimuli\ImageFiles-Set2\Scenes\Scenes_081.png,0,0,0,222,222,222,,,,,,,,,,,,,134.0025984999993,0.0025984999992942903,None,171.55503359999966,171.55503359999966,171.55503359999966,171.55503359999966,171.55503359999966,171.55503359999966,171.55503359999966,171.55503359999966,,002,P014,2025_Feb_28_1648,CategoryLocalizer,2021.2.3,59.96052199252341,
134.8,135.0,5,0.0,Stimuli\Blank.png,0,0,0,223,223,223,,,,,,,,,,,,,134.83412019999923,0.03412019999922222,None,172.3558334999998,172.3558334999998,172.3558334999998,172.3558334999998,172.3558334999998,172.3558334999998,172.3558334999998,172.3558334999998,,002,P014,2025_Feb_28_1648,CategoryLocalizer,2021.2.3,59.96052199252341,
135.0,135.8,4,0.75,Stimuli\ImageFiles-Set2\Scenes\Scenes_089.png,0,0,0,224,224,224,,,,,,,,,,,,,135.00191769999947,0.001917699999467004,None,172.5392570999993,172.5392570999993,172.5392570999993,172.5392570999993,172.5392570999993,172.5392570999993,172.5392570999993,172.5392570999993,,002,P014,2025_Feb_28_1648,CategoryLocalizer,2021.2.3,59.96052199252341,
135.8,136.0,5,0.0,Stimuli\Blank.png,0,0,0,225,225,225,,,,,,,,,,,,,135.8189910000001,0.018991000000085023,None,173.33994259999963,173.33994259999963,173.33994259999963,173.33994259999963,173.33994259999963,173.33994259999963,173.33994259999963,173.33994259999963,,002,P014,2025_Feb_28_1648,CategoryLocalizer,2021.2.3,59.96052199252341,
136.0,136.8,2,0.75,Stimuli\ImageFiles-Set2\Bodies\Bodies_SittingStretch_00003.png,0,0,0,226,226,226,,,,,,,,,,,,,136.00275929999952,0.0027592999995249556,None,173.54011469999932,173.54011469999932,173.54011469999932,173.54011469999932,173.54011469999932,173.54011469999932,173.54011469999932,173.54011469999932,,002,P014,2025_Feb_28_1648,CategoryLocalizer,2021.2.3,59.96052199252341,
136.8,137.0,5,0.0,Stimuli\Blank.png,0,0,0,227,227,227,,,,,,,,,,,,,136.8198842999991,0.01988429999909158,None,174.34082579999995,174.34082579999995,174.34082579999995,174.34082579999995,174.34082579999995,174.34082579999995,174.34082579999995,174.34082579999995,,002,P014,2025_Feb_28_1648,CategoryLocalizer,2021.2.3,59.96052199252341,
137.0,137.8,2,0.75,Stimuli\ImageFiles-Set2\Bodies\Bodies_SittingStretch_00003.png,1,1,0,228,228,228,,,,,,,,,,,,,137.00395469999967,0.003954699999667355,1,174.5410069999998,174.5410069999998,174.5410069999998,174.5410069999998,174.5410069999998,174.5410069999998,174.5410069999998,174.5410069999998,0.4315502999997989,002,P014,2025_Feb_28_1648,CategoryLocalizer,2021.2.3,59.96052199252341,
137.8,138.0,5,0.0,Stimuli\Blank.png,0,0,0,229,229,229,,,,,,,,,,,,,137.82014549999985,0.02014549999984183,None,175.34171369999967,175.34171369999967,175.34171369999967,175.34171369999967,175.34171369999967,175.34171369999967,175.34171369999967,175.34171369999967,,002,P014,2025_Feb_28_1648,CategoryLocalizer,2021.2.3,59.96052199252341,
138.0,138.8,2,0.75,Stimuli\ImageFiles-Set2\Bodies\Bodies_Pushing_00004.png,0,0,0,230,230,230,,,,,,,,,,,,,138.0038930999999,0.0038930999999138294,None,175.52521689999958,175.52521689999958,175.52521689999958,175.52521689999958,175.52521689999958,175.52521689999958,175.52521689999958,175.52521689999958,,002,P014,2025_Feb_28_1648,CategoryLocalizer,2021.2.3,59.96052199252341,
138.8,139.0,5,0.0,Stimuli\Blank.png,0,0,0,231,231,231,,,,,,,,,,,,,138.80470539999988,0.004705399999863857,None,176.32598779999898,176.32598779999898,176.32598779999898,176.32598779999898,176.32598779999898,176.32598779999898,176.32598779999898,176.32598779999898,,002,P014,2025_Feb_28_1648,CategoryLocalizer,2021.2.3,59.96052199252341,
139.0,139.8,2,0.75,Stimuli\ImageFiles-Set2\Bodies\Bodies_Walking_00003.png,0,0,0,232,232,232,,,,,,,,,,,,,139.00607820000005,0.006078200000047218,None,176.54280859999926,176.54280859999926,176.54280859999926,176.54280859999926,176.54280859999926,176.54280859999926,176.54280859999926,176.54280859999926,,002,P014,2025_Feb_28_1648,CategoryLocalizer,2021.2.3,59.96052199252341,
139.8,140.0,5,0.0,Stimuli\Blank.png,0,0,0,233,233,233,,,,,,,,,,,,,139.82238150000012,0.02238150000010819,None,177.34348370000043,177.34348370000043,177.34348370000043,177.34348370000043,177.34348370000043,177.34348370000043,177.34348370000043,177.34348370000043,,002,P014,2025_Feb_28_1648,CategoryLocalizer,2021.2.3,59.96052199252341,
140.0,140.8,2,0.75,Stimuli\ImageFiles-Set2\Bodies\Bodies_Running_00005.png,0,0,0,234,234,234,,,,,,,,,,,,,140.00528590000067,0.0052859000006719725,None,177.52697939999962,177.52697939999962,177.52697939999962,177.52697939999962,177.52697939999962,177.52697939999962,177.52697939999962,177.52697939999962,,002,P014,2025_Feb_28_1648,CategoryLocalizer,2021.2.3,59.96052199252341,
140.8,141.0,5,0.0,Stimuli\Blank.png,0,0,0,235,235,235,,,,,,,,,,,,,140.8068261999997,0.006826199999693472,None,178.32770100000016,178.32770100000016,178.32770100000016,178.32770100000016,178.32770100000016,178.32770100000016,178.32770100000016,178.32770100000016,,002,P014,2025_Feb_28_1648,CategoryLocalizer,2021.2.3,59.96052199252341,
141.0,141.8,2,0.75,Stimuli\ImageFiles-Set2\Bodies\Bodies_Standing_00006.png,0,0,0,236,236,236,,,,,,,,,,,,,141.00712770000064,0.00712770000063756,None,178.54455419999977,178.54455419999977,178.54455419999977,178.54455419999977,178.54455419999977,178.54455419999977,178.54455419999977,178.54455419999977,,002,P014,2025_Feb_28_1648,CategoryLocalizer,2021.2.3,59.96052199252341,
141.8,142.0,5,0.0,Stimuli\Blank.png,0,0,0,237,237,237,,,,,,,,,,,,,141.82594830000016,0.025948300000152358,None,179.3619593000003,179.3619593000003,179.3619593000003,179.3619593000003,179.3619593000003,179.3619593000003,179.3619593000003,179.3619593000003,,002,P014,2025_Feb_28_1648,CategoryLocalizer,2021.2.3,59.96052199252341,
142.0,142.8,2,0.75,Stimuli\ImageFiles-Set2\Bodies\Bodies_Kneeling_00002.png,0,0,0,238,238,238,,,,,,,,,,,,,142.02500789999976,0.02500789999976405,None,179.56208010000046,179.56208010000046,179.56208010000046,179.56208010000046,179.56208010000046,179.56208010000046,179.56208010000046,179.56208010000046,,002,P014,2025_Feb_28_1648,CategoryLocalizer,2021.2.3,59.96052199252341,
142.8,143.0,5,0.0,Stimuli\Blank.png,0,0,0,239,239,239,,,,,,,,,,,,,142.82705499999975,0.027054999999734264,None,180.36283530000037,180.36283530000037,180.36283530000037,180.36283530000037,180.36283530000037,180.36283530000037,180.36283530000037,180.36283530000037,,002,P014,2025_Feb_28_1648,CategoryLocalizer,2021.2.3,59.96052199252341,
143.0,143.8,2,0.75,Stimuli\ImageFiles-Set2\Bodies\Bodies_Crawling_00002.png,0,0,0,240,240,240,,,,,,,,,,,,,143.02764220000063,0.02764220000062778,None,180.56303219999972,180.56303219999972,180.56303219999972,180.56303219999972,180.56303219999972,180.56303219999972,180.56303219999972,180.56303219999972,,002,P014,2025_Feb_28_1648,CategoryLocalizer,2021.2.3,59.96052199252341,
143.8,144.0,5,0.0,Stimuli\Blank.png,0,0,0,241,241,241,,,,,,,,,,,,,143.82753769999908,0.02753769999907263,None,181.3637429999999,181.3637429999999,181.3637429999999,181.3637429999999,181.3637429999999,181.3637429999999,181.3637429999999,181.3637429999999,,002,P014,2025_Feb_28_1648,CategoryLocalizer,2021.2.3,59.96052199252341,
144.0,144.8,2,0.75,Stimuli\ImageFiles-Set2\Bodies\Bodies_Standing_00004.png,0,0,0,242,242,242,,,,,,,,,,,,,144.02698050000072,0.026980500000718166,None,181.5806107999997,181.5806107999997,181.5806107999997,181.5806107999997,181.5806107999997,181.5806107999997,181.5806107999997,181.5806107999997,,002,P014,2025_Feb_28_1648,CategoryLocalizer,2021.2.3,59.96052199252341,
144.8,145.0,5,0.0,Stimuli\Blank.png,0,0,0,243,243,243,,,,,,,,,,,,,144.84346030000052,0.04346030000050405,None,182.36461559999952,182.36461559999952,182.36461559999952,182.36461559999952,182.36461559999952,182.36461559999952,182.36461559999952,182.36461559999952,,002,P014,2025_Feb_28_1648,CategoryLocalizer,2021.2.3,59.96052199252341,
145.0,145.8,2,0.75,Stimuli\ImageFiles-Set2\Bodies\Bodies_SittingFloor_00001.png,1,1,0,244,244,244,,,,,,,,,,,,,145.00992170000063,0.009921700000631972,None,182.53140659999917,182.53140659999917,182.53140659999917,182.53140659999917,182.53140659999917,182.53140659999917,182.53140659999917,182.53140659999917,,002,P014,2025_Feb_28_1648,CategoryLocalizer,2021.2.3,59.96052199252341,
145.8,146.0,5,0.0,Stimuli\Blank.png,0,0,0,245,245,245,,,,,,,,,,,,,145.81172250000054,0.011722500000530545,None,183.3321225999989,183.3321225999989,183.3321225999989,183.3321225999989,183.3321225999989,183.3321225999989,183.3321225999989,183.3321225999989,,002,P014,2025_Feb_28_1648,CategoryLocalizer,2021.2.3,59.96052199252341,
146.0,146.8,2,0.75,Stimuli\ImageFiles-Set2\Bodies\Bodies_PushUp_00003.png,0,0,0,246,246,246,,,,,,,,,,,,,146.01144079999904,0.011440799999036244,None,183.54898279999907,183.54898279999907,183.54898279999907,183.54898279999907,183.54898279999907,183.54898279999907,183.54898279999907,183.54898279999907,,002,P014,2025_Feb_28_1648,CategoryLocalizer,2021.2.3,59.96052199252341,
146.8,147.0,5,0.0,Stimuli\Blank.png,0,0,0,247,247,247,,,,,,,,,,,,,146.8287665000007,0.02876650000069958,None,184.3496925999989,184.3496925999989,184.3496925999989,184.3496925999989,184.3496925999989,184.3496925999989,184.3496925999989,184.3496925999989,,002,P014,2025_Feb_28_1648,CategoryLocalizer,2021.2.3,59.96052199252341,
147.0,147.8,2,0.75,Stimuli\ImageFiles-Set2\Bodies\Bodies_PushUp_00003.png,0,0,0,248,248,248,,,,,,,,,,,,,147.01213839999946,0.01213839999945776,1,184.53316180000002,184.53316180000002,184.53316180000002,184.53316180000002,184.53316180000002,184.53316180000002,184.53316180000002,184.53316180000002,0.43899059999966994,002,P014,2025_Feb_28_1648,CategoryLocalizer,2021.2.3,59.96052199252341,
147.8,148.0,5,0.0,Stimuli\Blank.png,0,0,0,249,249,249,,,,,,,,,,,,,147.81259099999988,0.012590999999872565,None,185.33390270000018,185.33390270000018,185.33390270000018,185.33390270000018,185.33390270000018,185.33390270000018,185.33390270000018,185.33390270000018,,002,P014,2025_Feb_28_1648,CategoryLocalizer,2021.2.3,59.96052199252341,
148.0,148.8,2,0.75,Stimuli\ImageFiles-Set2\Bodies\Bodies_Punching_00005.png,0,0,0,250,250,250,,,,,,,,,,,,,148.0124751000003,0.012475100000301609,None,185.5507538999991,185.5507538999991,185.5507538999991,185.5507538999991,185.5507538999991,185.5507538999991,185.5507538999991,185.5507538999991,,002,P014,2025_Feb_28_1648,CategoryLocalizer,2021.2.3,59.96052199252341,
148.8,149.0,5,0.0,Stimuli\Blank.png,0,0,0,251,251,251,,,,,,,,,,,,,148.83291049999934,0.03291049999933193,None,186.3681486000005,186.3681486000005,186.3681486000005,186.3681486000005,186.3681486000005,186.3681486000005,186.3681486000005,186.3681486000005,,002,P014,2025_Feb_28_1648,CategoryLocalizer,2021.2.3,59.96052199252341,
149.0,149.8,2,0.75,Stimuli\ImageFiles-Set2\Bodies\Bodies_Falling_00001.png,0,0,0,252,252,252,,,,,,,,,,,,,149.01419549999991,0.014195499999914318,None,186.55164409999998,186.55164409999998,186.55164409999998,186.55164409999998,186.55164409999998,186.55164409999998,186.55164409999998,186.55164409999998,,002,P014,2025_Feb_28_1648,CategoryLocalizer,2021.2.3,59.96052199252341,
149.8,150.0,5,0.0,Stimuli\Blank.png,0,0,0,253,253,253,,,,,,,,,,,,,149.83386579999933,0.033865799999318824,None,187.36904460000005,187.36904460000005,187.36904460000005,187.36904460000005,187.36904460000005,187.36904460000005,187.36904460000005,187.36904460000005,,002,P014,2025_Feb_28_1648,CategoryLocalizer,2021.2.3,59.96052199252341,
150.0,150.8,2,0.75,Stimuli\ImageFiles-Set2\Bodies\Bodies_Standing_00002.png,0,0,0,254,254,254,,,,,,,,,,,,,150.0141982999994,0.014198299999407027,None,187.55252819999987,187.55252819999987,187.55252819999987,187.55252819999987,187.55252819999987,187.55252819999987,187.55252819999987,187.55252819999987,,002,P014,2025_Feb_28_1648,CategoryLocalizer,2021.2.3,59.96052199252341,
150.8,151.0,5,0.0,Stimuli\Blank.png,0,0,0,255,255,255,,,,,,,,,,,,,150.83292020000044,0.03292020000043294,None,188.35324480000054,188.35324480000054,188.35324480000054,188.35324480000054,188.35324480000054,188.35324480000054,188.35324480000054,188.35324480000054,,002,P014,2025_Feb_28_1648,CategoryLocalizer,2021.2.3,59.96052199252341,
151.0,151.8,2,0.75,Stimuli\ImageFiles-Set2\Bodies\Bodies_Hanging_00001.png,0,0,0,256,256,256,,,,,,,,,,,,,150.99836069999947,-0.0016393000005336944,None,188.53674010000032,188.53674010000032,188.53674010000032,188.53674010000032,188.53674010000032,188.53674010000032,188.53674010000032,188.53674010000032,,002,P014,2025_Feb_28_1648,CategoryLocalizer,2021.2.3,59.96052199252341,
151.8,152.0,5,0.0,Stimuli\Blank.png,0,0,0,257,257,257,,,,,,,,,,,,,151.81800830000066,0.018008300000644795,None,189.35540430000037,189.35540430000037,189.35540430000037,189.35540430000037,189.35540430000037,189.35540430000037,189.35540430000037,189.35540430000037,,002,P014,2025_Feb_28_1648,CategoryLocalizer,2021.2.3,59.96052199252341,
152.0,164.0,0,0.0,Stimuli\Blank.png,0,0,0,258,258,258,,,,,,,,,,,,,152.01695289999952,0.016952899999523652,None,189.53761399999894,189.53761399999894,189.53761399999894,189.53761399999894,189.53761399999894,189.53761399999894,189.53761399999894,189.53761399999894,,002,P014,2025_Feb_28_1648,CategoryLocalizer,2021.2.3,59.96052199252341,
164.0,164.8,4,0.75,Stimuli\ImageFiles-Set2\Scenes\Scenes_111.png,0,0,0,259,259,259,,,,,,,,,,,,,164.01087759999973,0.010877599999730592,None,201.5482422999994,201.5482422999994,201.5482422999994,201.5482422999994,201.5482422999994,201.5482422999994,201.5482422999994,201.5482422999994,,002,P014,2025_Feb_28_1648,CategoryLocalizer,2021.2.3,59.96052199252341,
164.8,165.0,5,0.0,Stimuli\Blank.png,0,0,0,260,260,260,,,,,,,,,,,,,164.82977840000058,0.029778400000566307,None,202.36565969999901,202.36565969999901,202.36565969999901,202.36565969999901,202.36565969999901,202.36565969999901,202.36565969999901,202.36565969999901,,002,P014,2025_Feb_28_1648,CategoryLocalizer,2021.2.3,59.96052199252341,
165.0,165.8,4,0.75,Stimuli\ImageFiles-Set2\Scenes\Scenes_112.png,0,0,0,261,261,261,,,,,,,,,,,,,165.02734260000034,0.02734260000033828,None,202.54912309999963,202.54912309999963,202.54912309999963,202.54912309999963,202.54912309999963,202.54912309999963,202.54912309999963,202.54912309999963,,002,P014,2025_Feb_28_1648,CategoryLocalizer,2021.2.3,59.96052199252341,
165.8,166.0,5,0.0,Stimuli\Blank.png,0,0,0,262,262,262,,,,,,,,,,,,,165.81200220000028,0.012002200000267749,None,203.34986639999988,203.34986639999988,203.34986639999988,203.34986639999988,203.34986639999988,203.34986639999988,203.34986639999988,203.34986639999988,,002,P014,2025_Feb_28_1648,CategoryLocalizer,2021.2.3,59.96052199252341,
166.0,166.8,4,0.75,Stimuli\ImageFiles-Set2\Scenes\Scenes_063.png,0,0,0,263,263,263,,,,,,,,,,,,,166.0302976999992,0.030297699999209726,None,203.58341119999932,203.58341119999932,203.58341119999932,203.58341119999932,203.58341119999932,203.58341119999932,203.58341119999932,203.58341119999932,,002,P014,2025_Feb_28_1648,CategoryLocalizer,2021.2.3,59.96052199252341,
166.8,167.0,5,0.0,Stimuli\Blank.png,0,0,0,264,264,264,,,,,,,,,,,,,166.84583890000067,0.04583890000066049,None,204.36738030000015,204.36738030000015,204.36738030000015,204.36738030000015,204.36738030000015,204.36738030000015,204.36738030000015,204.36738030000015,,002,P014,2025_Feb_28_1648,CategoryLocalizer,2021.2.3,59.96052199252341,
167.0,167.8,4,0.75,Stimuli\ImageFiles-Set2\Scenes\Scenes_088.png,0,0,0,265,265,265,,,,,,,,,,,,,167.01241320000008,0.012413200000082725,None,204.56760649999887,204.56760649999887,204.56760649999887,204.56760649999887,204.56760649999887,204.56760649999887,204.56760649999887,204.56760649999887,,002,P014,2025_Feb_28_1648,CategoryLocalizer,2021.2.3,59.96052199252341,
167.8,168.0,5,0.0,Stimuli\Blank.png,0,0,0,266,266,266,,,,,,,,,,,,,167.84665160000077,0.0466516000007573,None,205.36827129999983,205.36827129999983,205.36827129999983,205.36827129999983,205.36827129999983,205.36827129999983,205.36827129999983,205.36827129999983,,002,P014,2025_Feb_28_1648,CategoryLocalizer,2021.2.3,59.96052199252341,
168.0,168.8,4,0.75,Stimuli\ImageFiles-Set2\Scenes\Scenes_118.png,0,0,0,267,267,267,,,,,,,,,,,,,168.01608130000022,0.016081300000223564,None,205.55179569999927,205.55179569999927,205.55179569999927,205.55179569999927,205.55179569999927,205.55179569999927,205.55179569999927,205.55179569999927,,002,P014,2025_Feb_28_1648,CategoryLocalizer,2021.2.3,59.96052199252341,
168.8,169.0,5,0.0,Stimuli\Blank.png,0,0,0,268,268,268,,,,,,,,,,,,,168.81667299999935,0.016672999999343574,None,206.35250570000062,206.35250570000062,206.35250570000062,206.35250570000062,206.35250570000062,206.35250570000062,206.35250570000062,206.35250570000062,,002,P014,2025_Feb_28_1648,CategoryLocalizer,2021.2.3,59.96052199252341,
169.0,169.8,4,0.75,Stimuli\ImageFiles-Set2\Scenes\Scenes_110.png,0,0,0,269,269,269,,,,,,,,,,,,,169.01629350000076,0.016293500000756467,None,206.56938760000048,206.56938760000048,206.56938760000048,206.56938760000048,206.56938760000048,206.56938760000048,206.56938760000048,206.56938760000048,,002,P014,2025_Feb_28_1648,CategoryLocalizer,2021.2.3,59.96052199252341,
169.8,170.0,5,0.0,Stimuli\Blank.png,0,0,0,270,270,270,,,,,,,,,,,,,169.83229240000037,0.03229240000035816,None,207.3533735000001,207.3533735000001,207.3533735000001,207.3533735000001,207.3533735000001,207.3533735000001,207.3533735000001,207.3533735000001,,002,P014,2025_Feb_28_1648,CategoryLocalizer,2021.2.3,59.96052199252341,
170.0,170.8,4,0.75,Stimuli\ImageFiles-Set2\Scenes\Scenes_069.png,0,0,0,271,271,271,,,,,,,,,,,,,170.00109130000055,0.0010913000005530193,None,207.53689119999945,207.53689119999945,207.53689119999945,207.53689119999945,207.53689119999945,207.53689119999945,207.53689119999945,207.53689119999945,,002,P014,2025_Feb_28_1648,CategoryLocalizer,2021.2.3,59.96052199252341,
170.8,171.0,5,0.0,Stimuli\Blank.png,0,0,0,272,272,272,,,,,,,,,,,,,170.81641579999996,0.016415799999947467,None,208.3376004999991,208.3376004999991,208.3376004999991,208.3376004999991,208.3376004999991,208.3376004999991,208.3376004999991,208.3376004999991,,002,P014,2025_Feb_28_1648,CategoryLocalizer,2021.2.3,59.96052199252341,
171.0,171.8,4,0.75,Stimuli\ImageFiles-Set2\Scenes\Scenes_109.png,0,0,0,273,273,273,,,,,,,,,,,,,171.0001487999998,0.00014879999980621506,None,208.53792199999953,208.53792199999953,208.53792199999953,208.53792199999953,208.53792199999953,208.53792199999953,208.53792199999953,208.53792199999953,,002,P014,2025_Feb_28_1648,CategoryLocalizer,2021.2.3,59.96052199252341,
171.8,172.0,5,0.0,Stimuli\Blank.png,0,0,0,274,274,274,,,,,,,,,,,,,171.81786180000017,0.01786180000016202,None,209.33847199999946,209.33847199999946,209.33847199999946,209.33847199999946,209.33847199999946,209.33847199999946,209.33847199999946,209.33847199999946,,002,P014,2025_Feb_28_1648,CategoryLocalizer,2021.2.3,59.96052199252341,
172.0,172.8,4,0.75,Stimuli\ImageFiles-Set2\Scenes\Scenes_062.png,0,0,0,275,275,275,,,,,,,,,,,,,172.0004675,0.00046750000001338776,None,209.55533730000025,209.55533730000025,209.55533730000025,209.55533730000025,209.55533730000025,209.55533730000025,209.55533730000025,209.55533730000025,,002,P014,2025_Feb_28_1648,CategoryLocalizer,2021.2.3,59.96052199252341,
172.8,173.0,5,0.0,Stimuli\Blank.png,0,0,0,276,276,276,,,,,,,,,,,,,172.83669709999958,0.03669709999957149,None,210.37272870000015,210.37272870000015,210.37272870000015,210.37272870000015,210.37272870000015,210.37272870000015,210.37272870000015,210.37272870000015,,002,P014,2025_Feb_28_1648,CategoryLocalizer,2021.2.3,59.96052199252341,
173.0,173.8,4,0.75,Stimuli\ImageFiles-Set2\Scenes\Scenes_117.png,0,0,0,277,277,277,,,,,,,,,,,,,173.0183538000001,0.01835380000011355,None,210.57291629999963,210.57291629999963,210.57291629999963,210.57291629999963,210.57291629999963,210.57291629999963,210.57291629999963,210.57291629999963,,002,P014,2025_Feb_28_1648,CategoryLocalizer,2021.2.3,59.96052199252341,
173.8,174.0,5,0.0,Stimuli\Blank.png,0,0,0,278,278,278,,,,,,,,,,,,,173.83570099999997,0.03570099999996046,None,211.35692539999945,211.35692539999945,211.35692539999945,211.35692539999945,211.35692539999945,211.35692539999945,211.35692539999945,211.35692539999945,,002,P014,2025_Feb_28_1648,CategoryLocalizer,2021.2.3,59.96052199252341,
174.0,174.8,4,0.75,Stimuli\ImageFiles-Set2\Scenes\Scenes_117.png,1,1,0,279,279,279,,,,,,,,,,,,,174.0020760999996,0.0020760999996127794,1,211.54045659999974,211.54045659999974,211.54045659999974,211.54045659999974,211.54045659999974,211.54045659999974,211.54045659999974,211.54045659999974,0.40172359999996843,002,P014,2025_Feb_28_1648,CategoryLocalizer,2021.2.3,59.96052199252341,
174.8,175.0,5,0.0,Stimuli\Blank.png,0,0,0,280,280,280,,,,,,,,,,,,,174.82035410000026,0.0203541000002474,None,212.34113239999897,212.34113239999897,212.34113239999897,212.34113239999897,212.34113239999897,212.34113239999897,212.34113239999897,212.34113239999897,,002,P014,2025_Feb_28_1648,CategoryLocalizer,2021.2.3,59.96052199252341,
175.0,175.8,4,0.75,Stimuli\ImageFiles-Set2\Scenes\Scenes_107.png,0,0,0,281,281,281,,,,,,,,,,,,,175.0031111999997,0.003111199999693781,None,212.54131450000023,212.54131450000023,212.54131450000023,212.54131450000023,212.54131450000023,212.54131450000023,212.54131450000023,212.54131450000023,,002,P014,2025_Feb_28_1648,CategoryLocalizer,2021.2.3,59.96052199252341,
175.8,176.0,5,0.0,Stimuli\Blank.png,0,0,0,282,282,282,,,,,,,,,,,,,175.82159730000058,0.0215973000005647,None,213.34201399999984,213.34201399999984,213.34201399999984,213.34201399999984,213.34201399999984,213.34201399999984,213.34201399999984,213.34201399999984,,002,P014,2025_Feb_28_1648,CategoryLocalizer,2021.2.3,59.96052199252341,
176.0,176.8,4,0.75,Stimuli\ImageFiles-Set2\Scenes\Scenes_061.png,0,0,0,283,283,283,,,,,,,,,,,,,176.0061936000002,0.006193600000187871,None,213.5588843000005,213.5588843000005,213.5588843000005,213.5588843000005,213.5588843000005,213.5588843000005,213.5588843000005,213.5588843000005,,002,P014,2025_Feb_28_1648,CategoryLocalizer,2021.2.3,59.96052199252341,
176.8,177.0,5,0.0,Stimuli\Blank.png,0,0,0,284,284,284,,,,,,,,,,,,,176.8386434999993,0.03864349999929573,None,214.35957919999964,214.35957919999964,214.35957919999964,214.35957919999964,214.35957919999964,214.35957919999964,214.35957919999964,214.35957919999964,,002,P014,2025_Feb_28_1648,CategoryLocalizer,2021.2.3,59.96052199252341,
