eventStartTime,eventEndTime,eventCond,imSize,imFile,repeatedImage,responseEvent,Events.thisRepN,Events.thisTrialN,Events.thisN,Events.thisIndex,Instructions.started,Instructions.stopped,participantReadyResponse.keys,participantReadyResponse.rt,participantReadyResponse.started,participantReadyResponse.stopped,startWaitforTrigger,triggerResponse.keys,triggerResponse.rt,triggerResponse.started,triggerResponse.stopped,globalTimer,actualStartTime,startTimingDiff,participantResponse.keys,participantResponse.started,participantResponse.stopped,image.started,image.stopped,fixationOutside.started,fixationOutside.stopped,fixationInside.started,fixationInside.stopped,session,participant,date,expName,psychopyVersion,frameRate,
,,,,,,,,,,,12.52338620000046,None,1,10.379399299999932,12.52338620000046,None,,,,,,,,,,,,,,,,,,001,P014,2025_Feb_28_1529,CategoryLocalizer,2021.2.3,59.940826416104265,
,,,,,,,,,,,,,,,,,22.9076385999997,5,0.6692741000006208,22.921481200000926,None,,,,,,,,,,,,,001,P014,2025_Feb_28_1529,CategoryLocalizer,2021.2.3,59.940826416104265,
0.0,12.0,0,0.0,Stimuli\Blank.png,0,0,0,0,0,0,,,,,,,,,,,,23.608877000000575,0.04533660000015516,0.04533660000015516,None,23.672099999999773,None,23.672099999999773,None,23.672099999999773,None,23.672099999999773,None,001,P014,2025_Feb_28_1529,CategoryLocalizer,2021.2.3,59.940826416104265,
12.0,12.8,1,0.75,Stimuli\ImageFiles-Set1\Objects\Object_Toilet_00001.png,0,0,0,1,1,1,,,,,,,,,,,,,12.010759700000563,0.010759700000562589,None,35.64936940000007,35.64936940000007,35.64936940000007,35.64936940000007,35.64936940000007,35.64936940000007,35.64936940000007,35.64936940000007,001,P014,2025_Feb_28_1529,CategoryLocalizer,2021.2.3,59.940826416104265,
12.8,13.0,5,0.0,Stimuli\Blank.png,0,0,0,2,2,2,,,,,,,,,,,,,12.82849030000034,0.02849030000033892,None,36.45030179999958,36.45030179999958,36.45030179999958,36.45030179999958,36.45030179999958,36.45030179999958,36.45030179999958,36.45030179999958,001,P014,2025_Feb_28_1529,CategoryLocalizer,2021.2.3,59.940826416104265,
13.0,13.8,1,0.75,Stimuli\ImageFiles-Set1\Objects\Object_Highchair_00001.png,0,0,0,3,3,3,,,,,,,,,,,,,13.012546899999506,0.012546899999506422,None,36.65029970000069,36.65029970000069,36.65029970000069,36.65029970000069,36.65029970000069,36.65029970000069,36.65029970000069,36.65029970000069,001,P014,2025_Feb_28_1529,CategoryLocalizer,2021.2.3,59.940826416104265,
13.8,14.0,5,0.0,Stimuli\Blank.png,0,0,0,4,4,4,,,,,,,,,,,,,13.828372100000706,0.028372100000705558,None,37.45094280000012,37.45094280000012,37.45094280000012,37.45094280000012,37.45094280000012,37.45094280000012,37.45094280000012,37.45094280000012,001,P014,2025_Feb_28_1529,CategoryLocalizer,2021.2.3,59.940826416104265,
14.0,14.8,1,0.75,Stimuli\ImageFiles-Set1\Objects\Object_Boat_00001.png,0,0,0,5,5,5,,,,,,,,,,,,,14.012755499999912,0.01275549999991199,None,37.66782150000108,37.66782150000108,37.66782150000108,37.66782150000108,37.66782150000108,37.66782150000108,37.66782150000108,37.66782150000108,001,P014,2025_Feb_28_1529,CategoryLocalizer,2021.2.3,59.940826416104265,
14.8,15.0,5,0.0,Stimuli\Blank.png,0,0,0,6,6,6,,,,,,,,,,,,,14.844903499999418,0.04490349999941756,None,38.46853630000078,38.46853630000078,38.46853630000078,38.46853630000078,38.46853630000078,38.46853630000078,38.46853630000078,38.46853630000078,001,P014,2025_Feb_28_1529,CategoryLocalizer,2021.2.3,59.940826416104265,
15.0,15.8,1,0.75,Stimuli\ImageFiles-Set1\Objects\Object_Banana_00001.png,0,0,0,7,7,7,,,,,,,,,,,,,15.014164599999276,0.014164599999276106,None,38.652034200000344,38.652034200000344,38.652034200000344,38.652034200000344,38.652034200000344,38.652034200000344,38.652034200000344,38.652034200000344,001,P014,2025_Feb_28_1529,CategoryLocalizer,2021.2.3,59.940826416104265,
15.8,16.0,5,0.0,Stimuli\Blank.png,0,0,0,8,8,8,,,,,,,,,,,,,15.829863999999361,0.029863999999360402,None,39.452734300000884,39.452734300000884,39.452734300000884,39.452734300000884,39.452734300000884,39.452734300000884,39.452734300000884,39.452734300000884,001,P014,2025_Feb_28_1529,CategoryLocalizer,2021.2.3,59.940826416104265,
16.0,16.8,1,0.75,Stimuli\ImageFiles-Set1\Objects\Object_Tool_00001.png,0,0,0,9,9,9,,,,,,,,,,,,,16.013242699998955,0.013242699998954777,None,39.65297029999965,39.65297029999965,39.65297029999965,39.65297029999965,39.65297029999965,39.65297029999965,39.65297029999965,39.65297029999965,001,P014,2025_Feb_28_1529,CategoryLocalizer,2021.2.3,59.940826416104265,
16.8,17.0,5,0.0,Stimuli\Blank.png,0,0,0,10,10,10,,,,,,,,,,,,,16.830276400000002,0.030276400000001757,None,40.45362440000099,40.45362440000099,40.45362440000099,40.45362440000099,40.45362440000099,40.45362440000099,40.45362440000099,40.45362440000099,001,P014,2025_Feb_28_1529,CategoryLocalizer,2021.2.3,59.940826416104265,
17.0,17.8,1,0.75,Stimuli\ImageFiles-Set1\Objects\Object_Door_00001.png,0,0,0,11,11,11,,,,,,,,,,,,,17.014133499998934,0.014133499998933985,None,40.65381850000085,40.65381850000085,40.65381850000085,40.65381850000085,40.65381850000085,40.65381850000085,40.65381850000085,40.65381850000085,001,P014,2025_Feb_28_1529,CategoryLocalizer,2021.2.3,59.940826416104265,
17.8,18.0,5,0.0,Stimuli\Blank.png,0,0,0,12,12,12,,,,,,,,,,,,,17.83351219999895,0.033512199998948944,None,41.47119920000114,41.47119920000114,41.47119920000114,41.47119920000114,41.47119920000114,41.47119920000114,41.47119920000114,41.47119920000114,001,P014,2025_Feb_28_1529,CategoryLocalizer,2021.2.3,59.940826416104265,
18.0,18.8,1,0.75,Stimuli\ImageFiles-Set1\Objects\Object_Door_00001.png,1,1,0,13,13,13,,,,,,,,,,,,,18.01466249999976,0.014662499999758438,None,41.63800380000066,41.63800380000066,41.63800380000066,41.63800380000066,41.63800380000066,41.63800380000066,41.63800380000066,41.63800380000066,001,P014,2025_Feb_28_1529,CategoryLocalizer,2021.2.3,59.940826416104265,
18.8,19.0,5,0.0,Stimuli\Blank.png,0,0,0,14,14,14,,,,,,,,,,,,,18.815319299999828,0.015319299999827507,None,42.43871790000048,42.43871790000048,42.43871790000048,42.43871790000048,42.43871790000048,42.43871790000048,42.43871790000048,42.43871790000048,001,P014,2025_Feb_28_1529,CategoryLocalizer,2021.2.3,59.940826416104265,
19.0,19.8,1,0.75,Stimuli\ImageFiles-Set1\Objects\Object_Knife_00001.png,0,0,0,15,15,15,,,,,,,,,,,,,19.015400899999804,0.015400899999804096,None,42.65558280000005,42.65558280000005,42.65558280000005,42.65558280000005,42.65558280000005,42.65558280000005,42.65558280000005,42.65558280000005,001,P014,2025_Feb_28_1529,CategoryLocalizer,2021.2.3,59.940826416104265,
19.8,20.0,5,0.0,Stimuli\Blank.png,0,0,0,16,16,16,,,,,,,,,,,,,19.818247100000008,0.018247100000007066,None,43.4562889000008,43.4562889000008,43.4562889000008,43.4562889000008,43.4562889000008,43.4562889000008,43.4562889000008,43.4562889000008,001,P014,2025_Feb_28_1529,CategoryLocalizer,2021.2.3,59.940826416104265,
20.0,20.8,1,0.75,Stimuli\ImageFiles-Set1\Objects\Object_Crib_00001.png,0,0,0,17,17,17,,,,,,,,,,,,,20.018605900000694,0.01860590000069351,None,43.67314120000083,43.67314120000083,43.67314120000083,43.67314120000083,43.67314120000083,43.67314120000083,43.67314120000083,43.67314120000083,001,P014,2025_Feb_28_1529,CategoryLocalizer,2021.2.3,59.940826416104265,
20.8,21.0,5,0.0,Stimuli\Blank.png,0,0,0,18,18,18,,,,,,,,,,,,,20.83365109999977,0.03365109999976923,None,44.45717239999976,44.45717239999976,44.45717239999976,44.45717239999976,44.45717239999976,44.45717239999976,44.45717239999976,44.45717239999976,001,P014,2025_Feb_28_1529,CategoryLocalizer,2021.2.3,59.940826416104265,
21.0,21.8,1,0.75,Stimuli\ImageFiles-Set1\Objects\Object_Scale_00001.png,0,0,0,19,19,19,,,,,,,,,,,,,21.001140399999713,0.0011403999997128267,None,44.64067700000123,44.64067700000123,44.64067700000123,44.64067700000123,44.64067700000123,44.64067700000123,44.64067700000123,44.64067700000123,001,P014,2025_Feb_28_1529,CategoryLocalizer,2021.2.3,59.940826416104265,
21.8,22.0,5,0.0,Stimuli\Blank.png,0,0,0,20,20,20,,,,,,,,,,,,,21.8185713999992,0.018571399999199656,None,45.441392700000506,45.441392700000506,45.441392700000506,45.441392700000506,45.441392700000506,45.441392700000506,45.441392700000506,45.441392700000506,001,P014,2025_Feb_28_1529,CategoryLocalizer,2021.2.3,59.940826416104265,
22.0,22.8,1,0.75,Stimuli\ImageFiles-Set1\Objects\Object_Whistle_00001.png,0,0,0,21,21,21,,,,,,,,,,,,,22.001796399999876,0.0017963999998755753,None,45.64159880000079,45.64159880000079,45.64159880000079,45.64159880000079,45.64159880000079,45.64159880000079,45.64159880000079,45.64159880000079,001,P014,2025_Feb_28_1529,CategoryLocalizer,2021.2.3,59.940826416104265,
22.8,23.0,5,0.0,Stimuli\Blank.png,0,0,0,22,22,22,,,,,,,,,,,,,22.819348799999716,0.019348799999715283,None,46.44225540000116,46.44225540000116,46.44225540000116,46.44225540000116,46.44225540000116,46.44225540000116,46.44225540000116,46.44225540000116,001,P014,2025_Feb_28_1529,CategoryLocalizer,2021.2.3,59.940826416104265,
23.0,23.8,1,0.75,Stimuli\ImageFiles-Set1\Objects\Object_Recliner_00001.png,0,0,0,23,23,23,,,,,,,,,,,,,23.004373300000225,0.0043733000002248446,None,46.65916079999988,46.65916079999988,46.65916079999988,46.65916079999988,46.65916079999988,46.65916079999988,46.65916079999988,46.65916079999988,001,P014,2025_Feb_28_1529,CategoryLocalizer,2021.2.3,59.940826416104265,
23.8,24.0,5,0.0,Stimuli\Blank.png,0,0,0,24,24,24,,,,,,,,,,,,,23.837031600000046,0.03703160000004502,None,47.459825800000544,47.459825800000544,47.459825800000544,47.459825800000544,47.459825800000544,47.459825800000544,47.459825800000544,47.459825800000544,001,P014,2025_Feb_28_1529,CategoryLocalizer,2021.2.3,59.940826416104265,
24.0,24.8,1,0.75,Stimuli\ImageFiles-Set1\Objects\Object_Pot_00001.png,0,0,0,25,25,25,,,,,,,,,,,,,24.005740599999626,0.0057405999996262835,None,47.643326100000195,47.643326100000195,47.643326100000195,47.643326100000195,47.643326100000195,47.643326100000195,47.643326100000195,47.643326100000195,001,P014,2025_Feb_28_1529,CategoryLocalizer,2021.2.3,59.940826416104265,
24.8,25.0,5,0.0,Stimuli\Blank.png,0,0,0,26,26,26,,,,,,,,,,,,,24.821025799999916,0.02102579999991505,None,48.4440295000004,48.4440295000004,48.4440295000004,48.4440295000004,48.4440295000004,48.4440295000004,48.4440295000004,48.4440295000004,001,P014,2025_Feb_28_1529,CategoryLocalizer,2021.2.3,59.940826416104265,
25.0,25.8,1,0.75,Stimuli\ImageFiles-Set1\Objects\Object_Stool_00001.png,0,0,0,27,27,27,,,,,,,,,,,,,25.00406230000044,0.00406230000044161,None,48.64424070000132,48.64424070000132,48.64424070000132,48.64424070000132,48.64424070000132,48.64424070000132,48.64424070000132,48.64424070000132,001,P014,2025_Feb_28_1529,CategoryLocalizer,2021.2.3,59.940826416104265,
25.8,26.0,5,0.0,Stimuli\Blank.png,0,0,0,28,28,28,,,,,,,,,,,,,25.821468399999503,0.021468399999502452,None,49.44491550000021,49.44491550000021,49.44491550000021,49.44491550000021,49.44491550000021,49.44491550000021,49.44491550000021,49.44491550000021,001,P014,2025_Feb_28_1529,CategoryLocalizer,2021.2.3,59.940826416104265,
26.0,26.8,1,0.75,Stimuli\ImageFiles-Set1\Objects\Object_Wagon_00001.png,0,0,0,29,29,29,,,,,,,,,,,,,26.005313300000125,0.0053133000001253095,None,49.6451104000007,49.6451104000007,49.6451104000007,49.6451104000007,49.6451104000007,49.6451104000007,49.6451104000007,49.6451104000007,001,P014,2025_Feb_28_1529,CategoryLocalizer,2021.2.3,59.940826416104265,
26.8,27.0,5,0.0,Stimuli\Blank.png,0,0,0,30,30,30,,,,,,,,,,,,,26.822410000000673,0.02241000000067217,None,50.445873000000574,50.445873000000574,50.445873000000574,50.445873000000574,50.445873000000574,50.445873000000574,50.445873000000574,50.445873000000574,001,P014,2025_Feb_28_1529,CategoryLocalizer,2021.2.3,59.940826416104265,
27.0,27.8,1,0.75,Stimuli\ImageFiles-Set1\Objects\Object_Bench_00001.png,0,0,0,31,31,31,,,,,,,,,,,,,27.00647089999984,0.006470899999840185,None,50.62929660000009,50.62929660000009,50.62929660000009,50.62929660000009,50.62929660000009,50.62929660000009,50.62929660000009,50.62929660000009,001,P014,2025_Feb_28_1529,CategoryLocalizer,2021.2.3,59.940826416104265,
27.8,28.0,5,0.0,Stimuli\Blank.png,0,0,0,32,32,32,,,,,,,,,,,,,27.80670149999969,0.0067014999996892755,None,51.43000410000059,51.43000410000059,51.43000410000059,51.43000410000059,51.43000410000059,51.43000410000059,51.43000410000059,51.43000410000059,001,P014,2025_Feb_28_1529,CategoryLocalizer,2021.2.3,59.940826416104265,
28.0,28.8,2,0.75,Stimuli\ImageFiles-Set1\Bodies\Bodies_Hanging_00002.png,0,0,0,33,33,33,,,,,,,,,,,,,28.007185200000094,0.007185200000094483,None,51.646908800001256,51.646908800001256,51.646908800001256,51.646908800001256,51.646908800001256,51.646908800001256,51.646908800001256,51.646908800001256,001,P014,2025_Feb_28_1529,CategoryLocalizer,2021.2.3,59.940826416104265,
28.8,29.0,5,0.0,Stimuli\Blank.png,0,0,0,34,34,34,,,,,,,,,,,,,28.82448680000016,0.024486800000158127,None,52.447568700001284,52.447568700001284,52.447568700001284,52.447568700001284,52.447568700001284,52.447568700001284,52.447568700001284,52.447568700001284,001,P014,2025_Feb_28_1529,CategoryLocalizer,2021.2.3,59.940826416104265,
29.0,29.8,2,0.75,Stimuli\ImageFiles-Set1\Bodies\Bodies_SittingChair_00001.png,0,0,0,35,35,35,,,,,,,,,,,,,29.008165100000042,0.008165100000042003,None,52.647755800000596,52.647755800000596,52.647755800000596,52.647755800000596,52.647755800000596,52.647755800000596,52.647755800000596,52.647755800000596,001,P014,2025_Feb_28_1529,CategoryLocalizer,2021.2.3,59.940826416104265,
29.8,30.0,5,0.0,Stimuli\Blank.png,0,0,0,36,36,36,,,,,,,,,,,,,29.826041099999202,0.026041099999201123,None,53.44845830000122,53.44845830000122,53.44845830000122,53.44845830000122,53.44845830000122,53.44845830000122,53.44845830000122,53.44845830000122,001,P014,2025_Feb_28_1529,CategoryLocalizer,2021.2.3,59.940826416104265,
30.0,30.8,2,0.75,Stimuli\ImageFiles-Set1\Bodies\Bodies_DownwardDog_00006.png,0,0,0,37,37,37,,,,,,,,,,,,,30.00901569999951,0.009015699999508797,None,53.66534420000062,53.66534420000062,53.66534420000062,53.66534420000062,53.66534420000062,53.66534420000062,53.66534420000062,53.66534420000062,001,P014,2025_Feb_28_1529,CategoryLocalizer,2021.2.3,59.940826416104265,
30.8,31.0,5,0.0,Stimuli\Blank.png,0,0,0,38,38,38,,,,,,,,,,,,,30.84390919999896,0.0439091999989607,None,54.46640860000116,54.46640860000116,54.46640860000116,54.46640860000116,54.46640860000116,54.46640860000116,54.46640860000116,54.46640860000116,001,P014,2025_Feb_28_1529,CategoryLocalizer,2021.2.3,59.940826416104265,
31.0,31.8,2,0.75,Stimuli\ImageFiles-Set1\Bodies\Bodies_SittingChair_00003.png,0,0,0,39,39,39,,,,,,,,,,,,,31.00993589999962,0.009935899999618414,None,54.64967590000015,54.64967590000015,54.64967590000015,54.64967590000015,54.64967590000015,54.64967590000015,54.64967590000015,54.64967590000015,001,P014,2025_Feb_28_1529,CategoryLocalizer,2021.2.3,59.940826416104265,
31.8,32.0,5,0.0,Stimuli\Blank.png,0,0,0,40,40,40,,,,,,,,,,,,,31.826894199999515,0.026894199999514257,None,55.450233200001094,55.450233200001094,55.450233200001094,55.450233200001094,55.450233200001094,55.450233200001094,55.450233200001094,55.450233200001094,001,P014,2025_Feb_28_1529,CategoryLocalizer,2021.2.3,59.940826416104265,
32.0,32.8,2,0.75,Stimuli\ImageFiles-Set1\Bodies\Bodies_SittingChair_00003.png,1,1,0,41,41,41,,,,,,,,,,,,,32.010195900000326,0.010195900000326219,None,55.633728200000405,55.633728200000405,55.633728200000405,55.633728200000405,55.633728200000405,55.633728200000405,55.633728200000405,55.633728200000405,001,P014,2025_Feb_28_1529,CategoryLocalizer,2021.2.3,59.940826416104265,
32.8,33.0,5,0.0,Stimuli\Blank.png,0,0,0,42,42,42,,,,,,,,,,,,,32.81094789999952,0.010947899999521837,None,56.43443169999955,56.43443169999955,56.43443169999955,56.43443169999955,56.43443169999955,56.43443169999955,56.43443169999955,56.43443169999955,001,P014,2025_Feb_28_1529,CategoryLocalizer,2021.2.3,59.940826416104265,
33.0,33.8,2,0.75,Stimuli\ImageFiles-Set1\Bodies\Bodies_Punching_00003.png,0,0,0,43,43,43,,,,,,,,,,,,,33.011960899999394,0.011960899999394314,None,56.65131050000127,56.65131050000127,56.65131050000127,56.65131050000127,56.65131050000127,56.65131050000127,56.65131050000127,56.65131050000127,001,P014,2025_Feb_28_1529,CategoryLocalizer,2021.2.3,59.940826416104265,
33.8,34.0,5,0.0,Stimuli\Blank.png,0,0,0,44,44,44,,,,,,,,,,,,,33.82977629999914,0.029776299999141997,None,57.4520033000008,57.4520033000008,57.4520033000008,57.4520033000008,57.4520033000008,57.4520033000008,57.4520033000008,57.4520033000008,001,P014,2025_Feb_28_1529,CategoryLocalizer,2021.2.3,59.940826416104265,
34.0,34.8,2,0.75,Stimuli\ImageFiles-Set1\Bodies\Bodies_Kicking_00007.png,0,0,0,45,45,45,,,,,,,,,,,,,34.01187860000027,0.011878600000272854,None,57.635498100000405,57.635498100000405,57.635498100000405,57.635498100000405,57.635498100000405,57.635498100000405,57.635498100000405,57.635498100000405,001,P014,2025_Feb_28_1529,CategoryLocalizer,2021.2.3,59.940826416104265,
34.8,35.0,5,0.0,Stimuli\Blank.png,0,0,0,46,46,46,,,,,,,,,,,,,34.814830499999516,0.01483049999951902,None,58.452894000000015,58.452894000000015,58.452894000000015,58.452894000000015,58.452894000000015,58.452894000000015,58.452894000000015,58.452894000000015,001,P014,2025_Feb_28_1529,CategoryLocalizer,2021.2.3,59.940826416104265,
35.0,35.8,2,0.75,Stimuli\ImageFiles-Set1\Bodies\Bodies_Kneeling_00003.png,0,0,0,47,47,47,,,,,,,,,,,,,35.030134599999656,0.03013459999965562,None,58.669818100001066,58.669818100001066,58.669818100001066,58.669818100001066,58.669818100001066,58.669818100001066,58.669818100001066,58.669818100001066,001,P014,2025_Feb_28_1529,CategoryLocalizer,2021.2.3,59.940826416104265,
35.8,36.0,5,0.0,Stimuli\Blank.png,0,0,0,48,48,48,,,,,,,,,,,,,35.83032739999908,0.03032739999908074,None,59.45377250000092,59.45377250000092,59.45377250000092,59.45377250000092,59.45377250000092,59.45377250000092,59.45377250000092,59.45377250000092,001,P014,2025_Feb_28_1529,CategoryLocalizer,2021.2.3,59.940826416104265,
36.0,36.8,2,0.75,Stimuli\ImageFiles-Set1\Bodies\Bodies_CobraPose_00003.png,0,0,0,49,49,49,,,,,,,,,,,,,36.01419250000072,0.0141925000007177,None,59.670690500001,59.670690500001,59.670690500001,59.670690500001,59.670690500001,59.670690500001,59.670690500001,59.670690500001,001,P014,2025_Feb_28_1529,CategoryLocalizer,2021.2.3,59.940826416104265,
36.8,37.0,5,0.0,Stimuli\Blank.png,0,0,0,50,50,50,,,,,,,,,,,,,36.84910200000013,0.04910200000013276,None,60.47135309999976,60.47135309999976,60.47135309999976,60.47135309999976,60.47135309999976,60.47135309999976,60.47135309999976,60.47135309999976,001,P014,2025_Feb_28_1529,CategoryLocalizer,2021.2.3,59.940826416104265,
37.0,37.8,2,0.75,Stimuli\ImageFiles-Set1\Bodies\Bodies_Lunging_00001.png,0,0,0,51,51,51,,,,,,,,,,,,,36.99978969999938,-0.0002103000006172806,None,60.63816770000085,60.63816770000085,60.63816770000085,60.63816770000085,60.63816770000085,60.63816770000085,60.63816770000085,60.63816770000085,001,P014,2025_Feb_28_1529,CategoryLocalizer,2021.2.3,59.940826416104265,
37.8,38.0,5,0.0,Stimuli\Blank.png,0,0,0,52,52,52,,,,,,,,,,,,,37.81647089999933,0.01647089999933371,None,61.43895309999971,61.43895309999971,61.43895309999971,61.43895309999971,61.43895309999971,61.43895309999971,61.43895309999971,61.43895309999971,001,P014,2025_Feb_28_1529,CategoryLocalizer,2021.2.3,59.940826416104265,
38.0,38.8,2,0.75,Stimuli\ImageFiles-Set1\Bodies\Bodies_CobraPose_00001.png,1,1,0,53,53,53,,,,,,,,,,,,,37.99959459999991,-0.0004054000000905944,None,61.63904470000125,61.63904470000125,61.63904470000125,61.63904470000125,61.63904470000125,61.63904470000125,61.63904470000125,61.63904470000125,001,P014,2025_Feb_28_1529,CategoryLocalizer,2021.2.3,59.940826416104265,
38.8,39.0,5,0.0,Stimuli\Blank.png,0,0,0,54,54,54,,,,,,,,,,,,,38.81679310000072,0.016793100000725758,None,62.43972610000128,62.43972610000128,62.43972610000128,62.43972610000128,62.43972610000128,62.43972610000128,62.43972610000128,62.43972610000128,001,P014,2025_Feb_28_1529,CategoryLocalizer,2021.2.3,59.940826416104265,
39.0,39.8,2,0.75,Stimuli\ImageFiles-Set1\Bodies\Bodies_SittingFloor_00007.png,0,0,0,55,55,55,,,,,,,,,,,,,39.000183500000276,0.00018350000027567148,None,62.63993090000076,62.63993090000076,62.63993090000076,62.63993090000076,62.63993090000076,62.63993090000076,62.63993090000076,62.63993090000076,001,P014,2025_Feb_28_1529,CategoryLocalizer,2021.2.3,59.940826416104265,
39.8,40.0,5,0.0,Stimuli\Blank.png,0,0,0,56,56,56,,,,,,,,,,,,,39.81764010000006,0.017640100000065218,None,63.440636400000585,63.440636400000585,63.440636400000585,63.440636400000585,63.440636400000585,63.440636400000585,63.440636400000585,63.440636400000585,001,P014,2025_Feb_28_1529,CategoryLocalizer,2021.2.3,59.940826416104265,
40.0,40.8,2,0.75,Stimuli\ImageFiles-Set1\Bodies\Bodies_SittingFloor_00007.png,0,0,0,57,57,57,,,,,,,,,,,,,40.001279899999645,0.0012798999996448401,None,63.640817499999685,63.640817499999685,63.640817499999685,63.640817499999685,63.640817499999685,63.640817499999685,63.640817499999685,63.640817499999685,001,P014,2025_Feb_28_1529,CategoryLocalizer,2021.2.3,59.940826416104265,
40.8,41.0,5,0.0,Stimuli\Blank.png,0,0,0,58,58,58,,,,,,,,,,,,,40.82039140000052,0.020391400000519866,None,64.45823110000129,64.45823110000129,64.45823110000129,64.45823110000129,64.45823110000129,64.45823110000129,64.45823110000129,64.45823110000129,001,P014,2025_Feb_28_1529,CategoryLocalizer,2021.2.3,59.940826416104265,
41.0,41.8,2,0.75,Stimuli\ImageFiles-Set1\Bodies\Bodies_Standing_00005.png,0,0,0,59,59,59,,,,,,,,,,,,,41.02055350000046,0.02055350000046019,None,64.65839530000085,64.65839530000085,64.65839530000085,64.65839530000085,64.65839530000085,64.65839530000085,64.65839530000085,64.65839530000085,001,P014,2025_Feb_28_1529,CategoryLocalizer,2021.2.3,59.940826416104265,
41.8,42.0,5,0.0,Stimuli\Blank.png,0,0,0,60,60,60,,,,,,,,,,,,,41.81941109999934,0.019411099999345538,None,65.4424755,65.4424755,65.4424755,65.4424755,65.4424755,65.4424755,65.4424755,65.4424755,001,P014,2025_Feb_28_1529,CategoryLocalizer,2021.2.3,59.940826416104265,
42.0,42.8,2,0.75,Stimuli\ImageFiles-Set1\Bodies\Bodies_Walking_00006.png,0,0,0,61,61,61,,,,,,,,,,,,,42.00274979999995,0.0027497999999468448,None,65.64259620000121,65.64259620000121,65.64259620000121,65.64259620000121,65.64259620000121,65.64259620000121,65.64259620000121,65.64259620000121,001,P014,2025_Feb_28_1529,CategoryLocalizer,2021.2.3,59.940826416104265,
42.8,43.0,5,0.0,Stimuli\Blank.png,0,0,0,62,62,62,,,,,,,,,,,,,42.82020340000054,0.020203400000539773,None,66.44330079999963,66.44330079999963,66.44330079999963,66.44330079999963,66.44330079999963,66.44330079999963,66.44330079999963,66.44330079999963,001,P014,2025_Feb_28_1529,CategoryLocalizer,2021.2.3,59.940826416104265,
43.0,43.8,2,0.75,Stimuli\ImageFiles-Set1\Bodies\Bodies_DownwardDog_00007.png,0,0,0,63,63,63,,,,,,,,,,,,,43.00377320000007,0.003773200000068755,None,66.62679190000017,66.62679190000017,66.62679190000017,66.62679190000017,66.62679190000017,66.62679190000017,66.62679190000017,66.62679190000017,001,P014,2025_Feb_28_1529,CategoryLocalizer,2021.2.3,59.940826416104265,
43.8,44.0,5,0.0,Stimuli\Blank.png,0,0,0,64,64,64,,,,,,,,,,,,,43.80635880000045,0.006358800000455744,None,67.4442078000011,67.4442078000011,67.4442078000011,67.4442078000011,67.4442078000011,67.4442078000011,67.4442078000011,67.4442078000011,001,P014,2025_Feb_28_1529,CategoryLocalizer,2021.2.3,59.940826416104265,
44.0,44.8,3,0.75,Stimuli\ImageFiles-Set1\Faces\Face_00035.png,0,0,0,65,65,65,,,,,,,,,,,,,44.02201799999966,0.022017999999661697,None,67.67772090000108,67.67772090000108,67.67772090000108,67.67772090000108,67.67772090000108,67.67772090000108,67.67772090000108,67.67772090000108,001,P014,2025_Feb_28_1529,CategoryLocalizer,2021.2.3,59.940826416104265,
44.8,45.0,5,0.0,Stimuli\Blank.png,0,0,0,66,66,66,,,,,,,,,,,,,44.838276000000405,0.03827600000040832,None,68.46174249999967,68.46174249999967,68.46174249999967,68.46174249999967,68.46174249999967,68.46174249999967,68.46174249999967,68.46174249999967,001,P014,2025_Feb_28_1529,CategoryLocalizer,2021.2.3,59.940826416104265,
45.0,45.8,3,0.75,Stimuli\ImageFiles-Set1\Faces\Face_00085.png,0,0,0,67,67,67,,,,,,,,,,,,,45.005423900000096,0.005423900000096182,None,68.66196400000081,68.66196400000081,68.66196400000081,68.66196400000081,68.66196400000081,68.66196400000081,68.66196400000081,68.66196400000081,001,P014,2025_Feb_28_1529,CategoryLocalizer,2021.2.3,59.940826416104265,
45.8,46.0,5,0.0,Stimuli\Blank.png,0,0,0,68,68,68,,,,,,,,,,,,,45.83994949999942,0.03994949999942321,None,69.46265210000092,69.46265210000092,69.46265210000092,69.46265210000092,69.46265210000092,69.46265210000092,69.46265210000092,69.46265210000092,001,P014,2025_Feb_28_1529,CategoryLocalizer,2021.2.3,59.940826416104265,
46.0,46.8,3,0.75,Stimuli\ImageFiles-Set1\Faces\Face_00117.png,0,0,0,69,69,69,,,,,,,,,,,,,46.006037499999366,0.0060374999993655365,None,69.6628340999996,69.6628340999996,69.6628340999996,69.6628340999996,69.6628340999996,69.6628340999996,69.6628340999996,69.6628340999996,001,P014,2025_Feb_28_1529,CategoryLocalizer,2021.2.3,59.940826416104265,
46.8,47.0,5,0.0,Stimuli\Blank.png,0,0,0,70,70,70,,,,,,,,,,,,,46.84168189999946,0.04168189999946037,None,70.48021960000005,70.48021960000005,70.48021960000005,70.48021960000005,70.48021960000005,70.48021960000005,70.48021960000005,70.48021960000005,001,P014,2025_Feb_28_1529,CategoryLocalizer,2021.2.3,59.940826416104265,
47.0,47.8,3,0.75,Stimuli\ImageFiles-Set1\Faces\Face_00117.png,1,1,0,71,71,71,,,,,,,,,,,,,47.02398369999901,0.023983699999007513,None,70.64701799999966,70.64701799999966,70.64701799999966,70.64701799999966,70.64701799999966,70.64701799999966,70.64701799999966,70.64701799999966,001,P014,2025_Feb_28_1529,CategoryLocalizer,2021.2.3,59.940826416104265,
47.8,48.0,5,0.0,Stimuli\Blank.png,0,0,0,72,72,72,,,,,,,,,,,,,47.80787330000021,0.007873300000213135,None,71.43104160000075,71.43104160000075,71.43104160000075,71.43104160000075,71.43104160000075,71.43104160000075,71.43104160000075,71.43104160000075,001,P014,2025_Feb_28_1529,CategoryLocalizer,2021.2.3,59.940826416104265,
48.0,48.8,3,0.75,Stimuli\ImageFiles-Set1\Faces\Face_00071.png,0,0,0,73,73,73,,,,,,,,,,,,,48.008073400000285,0.008073400000284892,None,71.66459279999981,71.66459279999981,71.66459279999981,71.66459279999981,71.66459279999981,71.66459279999981,71.66459279999981,71.66459279999981,001,P014,2025_Feb_28_1529,CategoryLocalizer,2021.2.3,59.940826416104265,
48.8,49.0,5,0.0,Stimuli\Blank.png,0,0,0,74,74,74,,,,,,,,,,,,,48.842327000000296,0.042327000000298654,None,72.4653040000012,72.4653040000012,72.4653040000012,72.4653040000012,72.4653040000012,72.4653040000012,72.4653040000012,72.4653040000012,001,P014,2025_Feb_28_1529,CategoryLocalizer,2021.2.3,59.940826416104265,
49.0,49.8,3,0.75,Stimuli\ImageFiles-Set1\Faces\Face_00059.png,0,0,0,75,75,75,,,,,,,,,,,,,49.0097638999996,0.009763899999597925,None,72.64934670000002,72.64934670000002,72.64934670000002,72.64934670000002,72.64934670000002,72.64934670000002,72.64934670000002,72.64934670000002,001,P014,2025_Feb_28_1529,CategoryLocalizer,2021.2.3,59.940826416104265,
49.8,50.0,5,0.0,Stimuli\Blank.png,0,0,0,76,76,76,,,,,,,,,,,,,49.82839570000033,0.028395700000331203,None,73.46618680000029,73.46618680000029,73.46618680000029,73.46618680000029,73.46618680000029,73.46618680000029,73.46618680000029,73.46618680000029,001,P014,2025_Feb_28_1529,CategoryLocalizer,2021.2.3,59.940826416104265,
50.0,50.8,3,0.75,Stimuli\ImageFiles-Set1\Faces\Face_00025.png,0,0,0,77,77,77,,,,,,,,,,,,,50.027950699999565,0.027950699999564677,None,73.68304739999985,73.68304739999985,73.68304739999985,73.68304739999985,73.68304739999985,73.68304739999985,73.68304739999985,73.68304739999985,001,P014,2025_Feb_28_1529,CategoryLocalizer,2021.2.3,59.940826416104265,
50.8,51.0,5,0.0,Stimuli\Blank.png,0,0,0,78,78,78,,,,,,,,,,,,,50.84408799999983,0.044087999999831595,None,74.46706000000086,74.46706000000086,74.46706000000086,74.46706000000086,74.46706000000086,74.46706000000086,74.46706000000086,74.46706000000086,001,P014,2025_Feb_28_1529,CategoryLocalizer,2021.2.3,59.940826416104265,
51.0,51.8,3,0.75,Stimuli\ImageFiles-Set1\Faces\Face_00065.png,0,0,0,79,79,79,,,,,,,,,,,,,51.01020079999944,0.010200799999438459,None,74.65052629999991,74.65052629999991,74.65052629999991,74.65052629999991,74.65052629999991,74.65052629999991,74.65052629999991,74.65052629999991,001,P014,2025_Feb_28_1529,CategoryLocalizer,2021.2.3,59.940826416104265,
51.8,52.0,5,0.0,Stimuli\Blank.png,0,0,0,80,80,80,,,,,,,,,,,,,51.829181200000676,0.029181200000678587,None,75.4512752999999,75.4512752999999,75.4512752999999,75.4512752999999,75.4512752999999,75.4512752999999,75.4512752999999,75.4512752999999,001,P014,2025_Feb_28_1529,CategoryLocalizer,2021.2.3,59.940826416104265,
52.0,52.8,3,0.75,Stimuli\ImageFiles-Set1\Faces\Face_00009.png,0,0,0,81,81,81,,,,,,,,,,,,,52.011885699999766,0.011885699999766075,None,75.65144880000116,75.65144880000116,75.65144880000116,75.65144880000116,75.65144880000116,75.65144880000116,75.65144880000116,75.65144880000116,001,P014,2025_Feb_28_1529,CategoryLocalizer,2021.2.3,59.940826416104265,
52.8,53.0,5,0.0,Stimuli\Blank.png,0,0,0,82,82,82,,,,,,,,,,,,,52.828518300000724,0.028518300000726526,None,76.45215400000052,76.45215400000052,76.45215400000052,76.45215400000052,76.45215400000052,76.45215400000052,76.45215400000052,76.45215400000052,001,P014,2025_Feb_28_1529,CategoryLocalizer,2021.2.3,59.940826416104265,
53.0,53.8,3,0.75,Stimuli\ImageFiles-Set1\Faces\Face_00089.png,0,0,0,83,83,83,,,,,,,,,,,,,53.012924399999974,0.012924399999974412,None,76.66901789999974,76.66901789999974,76.66901789999974,76.66901789999974,76.66901789999974,76.66901789999974,76.66901789999974,76.66901789999974,001,P014,2025_Feb_28_1529,CategoryLocalizer,2021.2.3,59.940826416104265,
53.8,54.0,5,0.0,Stimuli\Blank.png,0,0,0,84,84,84,,,,,,,,,,,,,53.84699340000043,0.04699340000043151,None,77.46972720000122,77.46972720000122,77.46972720000122,77.46972720000122,77.46972720000122,77.46972720000122,77.46972720000122,77.46972720000122,001,P014,2025_Feb_28_1529,CategoryLocalizer,2021.2.3,59.940826416104265,
54.0,54.8,3,0.75,Stimuli\ImageFiles-Set1\Faces\Face_00105.png,1,1,0,85,85,85,,,,,,,,,,,,,54.013085700000374,0.013085700000374345,None,77.63653239999985,77.63653239999985,77.63653239999985,77.63653239999985,77.63653239999985,77.63653239999985,77.63653239999985,77.63653239999985,001,P014,2025_Feb_28_1529,CategoryLocalizer,2021.2.3,59.940826416104265,
54.8,55.0,5,0.0,Stimuli\Blank.png,0,0,0,86,86,86,,,,,,,,,,,,,54.81403599999976,0.014035999999762794,None,78.4372555000009,78.4372555000009,78.4372555000009,78.4372555000009,78.4372555000009,78.4372555000009,78.4372555000009,78.4372555000009,001,P014,2025_Feb_28_1529,CategoryLocalizer,2021.2.3,59.940826416104265,
55.0,55.8,3,0.75,Stimuli\ImageFiles-Set1\Faces\Face_00037.png,0,0,0,87,87,87,,,,,,,,,,,,,55.014658000000054,0.014658000000054017,None,78.67081599999983,78.67081599999983,78.67081599999983,78.67081599999983,78.67081599999983,78.67081599999983,78.67081599999983,78.67081599999983,001,P014,2025_Feb_28_1529,CategoryLocalizer,2021.2.3,59.940826416104265,
55.8,56.0,5,0.0,Stimuli\Blank.png,0,0,0,88,88,88,,,,,,,,,,,,,55.84788230000049,0.04788230000049509,None,79.47154059999957,79.47154059999957,79.47154059999957,79.47154059999957,79.47154059999957,79.47154059999957,79.47154059999957,79.47154059999957,001,P014,2025_Feb_28_1529,CategoryLocalizer,2021.2.3,59.940826416104265,
56.0,56.8,3,0.75,Stimuli\ImageFiles-Set1\Faces\Face_00037.png,0,0,0,89,89,89,,,,,,,,,,,,,56.014754800000446,0.014754800000446266,None,79.63830400000006,79.63830400000006,79.63830400000006,79.63830400000006,79.63830400000006,79.63830400000006,79.63830400000006,79.63830400000006,001,P014,2025_Feb_28_1529,CategoryLocalizer,2021.2.3,59.940826416104265,
56.8,57.0,5,0.0,Stimuli\Blank.png,0,0,0,90,90,90,,,,,,,,,,,,,56.816714200000206,0.016714200000208734,None,80.43901840000035,80.43901840000035,80.43901840000035,80.43901840000035,80.43901840000035,80.43901840000035,80.43901840000035,80.43901840000035,001,P014,2025_Feb_28_1529,CategoryLocalizer,2021.2.3,59.940826416104265,
57.0,57.8,3,0.75,Stimuli\ImageFiles-Set1\Faces\Face_00107.png,0,0,0,91,91,91,,,,,,,,,,,,,56.99993039999936,-6.960000064282212e-05,None,80.63919590000114,80.63919590000114,80.63919590000114,80.63919590000114,80.63919590000114,80.63919590000114,80.63919590000114,80.63919590000114,001,P014,2025_Feb_28_1529,CategoryLocalizer,2021.2.3,59.940826416104265,
57.8,58.0,5,0.0,Stimuli\Blank.png,0,0,0,92,92,92,,,,,,,,,,,,,57.81675299999915,0.016752999999155804,None,81.43994580000071,81.43994580000071,81.43994580000071,81.43994580000071,81.43994580000071,81.43994580000071,81.43994580000071,81.43994580000071,001,P014,2025_Feb_28_1529,CategoryLocalizer,2021.2.3,59.940826416104265,
58.0,58.8,3,0.75,Stimuli\ImageFiles-Set1\Faces\Face_00039.png,0,0,0,93,93,93,,,,,,,,,,,,,58.00029840000025,0.0002984000002470566,None,81.62339790000078,81.62339790000078,81.62339790000078,81.62339790000078,81.62339790000078,81.62339790000078,81.62339790000078,81.62339790000078,001,P014,2025_Feb_28_1529,CategoryLocalizer,2021.2.3,59.940826416104265,
58.8,59.0,5,0.0,Stimuli\Blank.png,0,0,0,94,94,94,,,,,,,,,,,,,58.80230780000056,0.0023078000005654076,None,82.44079760000022,82.44079760000022,82.44079760000022,82.44079760000022,82.44079760000022,82.44079760000022,82.44079760000022,82.44079760000022,001,P014,2025_Feb_28_1529,CategoryLocalizer,2021.2.3,59.940826416104265,
59.0,59.8,3,0.75,Stimuli\ImageFiles-Set1\Faces\Face_00016.png,0,0,0,95,95,95,,,,,,,,,,,,,59.01831949999905,0.018319499999051914,None,82.67434510000021,82.67434510000021,82.67434510000021,82.67434510000021,82.67434510000021,82.67434510000021,82.67434510000021,82.67434510000021,001,P014,2025_Feb_28_1529,CategoryLocalizer,2021.2.3,59.940826416104265,
59.8,60.0,5,0.0,Stimuli\Blank.png,0,0,0,96,96,96,,,,,,,,,,,,,59.83475019999969,0.0347501999996922,None,83.45835690000058,83.45835690000058,83.45835690000058,83.45835690000058,83.45835690000058,83.45835690000058,83.45835690000058,83.45835690000058,001,P014,2025_Feb_28_1529,CategoryLocalizer,2021.2.3,59.940826416104265,
60.0,60.8,4,0.75,Stimuli\ImageFiles-Set1\Scenes\Scenes_040.png,0,0,0,97,97,97,,,,,,,,,,,,,60.00266809999994,0.0026680999999371124,None,83.65856150000036,83.65856150000036,83.65856150000036,83.65856150000036,83.65856150000036,83.65856150000036,83.65856150000036,83.65856150000036,001,P014,2025_Feb_28_1529,CategoryLocalizer,2021.2.3,59.940826416104265,
60.8,61.0,5,0.0,Stimuli\Blank.png,0,0,0,98,98,98,,,,,,,,,,,,,60.83723330000066,0.037233300000664826,None,84.47594560000107,84.47594560000107,84.47594560000107,84.47594560000107,84.47594560000107,84.47594560000107,84.47594560000107,84.47594560000107,001,P014,2025_Feb_28_1529,CategoryLocalizer,2021.2.3,59.940826416104265,
61.0,61.8,4,0.75,Stimuli\ImageFiles-Set1\Scenes\Scenes_052.png,0,0,0,99,99,99,,,,,,,,,,,,,61.01921260000017,0.019212600000173552,None,84.65948229999958,84.65948229999958,84.65948229999958,84.65948229999958,84.65948229999958,84.65948229999958,84.65948229999958,84.65948229999958,001,P014,2025_Feb_28_1529,CategoryLocalizer,2021.2.3,59.940826416104265,
61.8,62.0,5,0.0,Stimuli\Blank.png,0,0,0,100,100,100,,,,,,,,,,,,,61.81995239999924,0.01995239999924081,None,85.44344450000062,85.44344450000062,85.44344450000062,85.44344450000062,85.44344450000062,85.44344450000062,85.44344450000062,85.44344450000062,001,P014,2025_Feb_28_1529,CategoryLocalizer,2021.2.3,59.940826416104265,
,,,,,,,,,,,,,,,,,,,,,,,62.00413259999914,0.00413259999913862,,,,,,,,,,,,,,,,
