eventStartTime,eventEndTime,eventCond,imSize,imFile,repeatedImage,responseEvent,Events.thisRepN,Events.thisTrialN,Events.thisN,Events.thisIndex,Instructions.started,Instructions.stopped,participantReadyResponse.keys,participantReadyResponse.rt,participantReadyResponse.started,participantReadyResponse.stopped,startWaitforTrigger,triggerResponse.keys,triggerResponse.rt,triggerResponse.started,triggerResponse.stopped,globalTimer,actualStartTime,startTimingDiff,participantResponse.keys,participantResponse.started,participantResponse.stopped,image.started,image.stopped,fixationOutside.started,fixationOutside.stopped,fixationInside.started,fixationInside.stopped,participantResponse.rt,session,participant,date,expName,psychopyVersion,frameRate,
,,,,,,,,,,,10.908622700000706,None,1,14.716304900000978,10.908622700000706,None,,,,,,,,,,,,,,,,,,,001,P015,2025_Feb_28_1812,CategoryLocalizer,2021.2.3,59.93339003114303,
,,,,,,,,,,,,,,,,,25.639085099999647,5,13.44648579999921,25.653233299999556,None,,,,,,,,,,,,,,001,P015,2025_Feb_28_1812,CategoryLocalizer,2021.2.3,59.93339003114303,
0.0,12.0,0,0.0,Stimuli\Blank.png,0,0,0,0,0,0,,,,,,,,,,,,39.102323800001614,0.03138109999781591,0.03138109999781591,None,39.14862990000256,None,39.14862990000256,None,39.14862990000256,None,39.14862990000256,None,,001,P015,2025_Feb_28_1812,CategoryLocalizer,2021.2.3,59.93339003114303,
12.0,12.8,1,0.75,Stimuli\ImageFiles-Set1\Objects\Object_Table_00001.png,0,0,0,1,1,1,,,,,,,,,,,,,12.01031619999776,0.010316199997760123,None,51.12602180000249,51.12602180000249,51.12602180000249,51.12602180000249,51.12602180000249,51.12602180000249,51.12602180000249,51.12602180000249,,001,P015,2025_Feb_28_1812,CategoryLocalizer,2021.2.3,59.93339003114303,
12.8,13.0,5,0.0,Stimuli\Blank.png,0,0,0,2,2,2,,,,,,,,,,,,,12.811593999998877,0.011593999998876114,None,51.94344049999927,51.94344049999927,51.94344049999927,51.94344049999927,51.94344049999927,51.94344049999927,51.94344049999927,51.94344049999927,,001,P015,2025_Feb_28_1812,CategoryLocalizer,2021.2.3,59.93339003114303,
13.0,13.8,1,0.75,Stimuli\ImageFiles-Set1\Objects\Object_Dryer_00001.png,0,0,0,3,3,3,,,,,,,,,,,,,13.027424699997937,0.02742469999793684,None,52.16029290000006,52.16029290000006,52.16029290000006,52.16029290000006,52.16029290000006,52.16029290000006,52.16029290000006,52.16029290000006,,001,P015,2025_Feb_28_1812,CategoryLocalizer,2021.2.3,59.93339003114303,
13.8,14.0,5,0.0,Stimuli\Blank.png,0,0,0,4,4,4,,,,,,,,,,,,,13.827377299996442,0.02737729999644145,None,52.944289499999286,52.944289499999286,52.944289499999286,52.944289499999286,52.944289499999286,52.944289499999286,52.944289499999286,52.944289499999286,,001,P015,2025_Feb_28_1812,CategoryLocalizer,2021.2.3,59.93339003114303,
14.0,14.8,1,0.75,Stimuli\ImageFiles-Set1\Objects\Object_Bench_00001.png,0,0,0,5,5,5,,,,,,,,,,,,,14.011241299998801,0.011241299998800969,None,53.127791500002786,53.127791500002786,53.127791500002786,53.127791500002786,53.127791500002786,53.127791500002786,53.127791500002786,53.127791500002786,,001,P015,2025_Feb_28_1812,CategoryLocalizer,2021.2.3,59.93339003114303,
14.8,15.0,5,0.0,Stimuli\Blank.png,0,0,0,6,6,6,,,,,,,,,,,,,14.812085299996397,0.012085299996396515,None,53.92850550000003,53.92850550000003,53.92850550000003,53.92850550000003,53.92850550000003,53.92850550000003,53.92850550000003,53.92850550000003,,001,P015,2025_Feb_28_1812,CategoryLocalizer,2021.2.3,59.93339003114303,
15.0,15.8,1,0.75,Stimuli\ImageFiles-Set1\Objects\Object_Chest_00001.png,0,0,0,7,7,7,,,,,,,,,,,,,15.011687299996993,0.011687299996992806,None,54.12866610000128,54.12866610000128,54.12866610000128,54.12866610000128,54.12866610000128,54.12866610000128,54.12866610000128,54.12866610000128,,001,P015,2025_Feb_28_1812,CategoryLocalizer,2021.2.3,59.93339003114303,
15.8,16.0,5,0.0,Stimuli\Blank.png,0,0,0,8,8,8,,,,,,,,,,,,,15.812829099999362,0.01282909999936166,None,54.92938409999988,54.92938409999988,54.92938409999988,54.92938409999988,54.92938409999988,54.92938409999988,54.92938409999988,54.92938409999988,,001,P015,2025_Feb_28_1812,CategoryLocalizer,2021.2.3,59.93339003114303,
16.0,16.8,1,0.75,Stimuli\ImageFiles-Set1\Objects\Object_Chest_00001.png,1,1,0,9,9,9,,,,,,,,,,,,,16.01265179999973,0.012651799999730429,1,55.14627920000203,55.14627920000203,55.14627920000203,55.14627920000203,55.14627920000203,55.14627920000203,55.14627920000203,55.14627920000203,0.47853800000302726,001,P015,2025_Feb_28_1812,CategoryLocalizer,2021.2.3,59.93339003114303,
16.8,17.0,5,0.0,Stimuli\Blank.png,0,0,0,10,10,10,,,,,,,,,,,,,16.830122599996685,0.030122599996683874,None,55.94696230000045,55.94696230000045,55.94696230000045,55.94696230000045,55.94696230000045,55.94696230000045,55.94696230000045,55.94696230000045,,001,P015,2025_Feb_28_1812,CategoryLocalizer,2021.2.3,59.93339003114303,
17.0,17.8,1,0.75,Stimuli\ImageFiles-Set1\Objects\Object_Brush_00001.png,0,0,0,11,11,11,,,,,,,,,,,,,17.013407699996606,0.013407699996605515,None,56.13052500000049,56.13052500000049,56.13052500000049,56.13052500000049,56.13052500000049,56.13052500000049,56.13052500000049,56.13052500000049,,001,P015,2025_Feb_28_1812,CategoryLocalizer,2021.2.3,59.93339003114303,
17.8,18.0,5,0.0,Stimuli\Blank.png,0,0,0,12,12,12,,,,,,,,,,,,,17.815989999999147,0.015989999999145965,None,56.94785430000047,56.94785430000047,56.94785430000047,56.94785430000047,56.94785430000047,56.94785430000047,56.94785430000047,56.94785430000047,,001,P015,2025_Feb_28_1812,CategoryLocalizer,2021.2.3,59.93339003114303,
18.0,18.8,1,0.75,Stimuli\ImageFiles-Set1\Objects\Object_Glasses_00001.png,0,0,0,13,13,13,,,,,,,,,,,,,18.015445099998033,0.015445099998032674,None,57.13133490000109,57.13133490000109,57.13133490000109,57.13133490000109,57.13133490000109,57.13133490000109,57.13133490000109,57.13133490000109,,001,P015,2025_Feb_28_1812,CategoryLocalizer,2021.2.3,59.93339003114303,
18.8,19.0,5,0.0,Stimuli\Blank.png,0,0,0,14,14,14,,,,,,,,,,,,,18.798763199996756,-0.0012368000032445536,None,57.91535490000024,57.91535490000024,57.91535490000024,57.91535490000024,57.91535490000024,57.91535490000024,57.91535490000024,57.91535490000024,,001,P015,2025_Feb_28_1812,CategoryLocalizer,2021.2.3,59.93339003114303,
19.0,19.8,1,0.75,Stimuli\ImageFiles-Set1\Objects\Object_Pot_00001.png,0,0,0,15,15,15,,,,,,,,,,,,,19.01579039999706,0.015790399997058557,None,58.13221770000018,58.13221770000018,58.13221770000018,58.13221770000018,58.13221770000018,58.13221770000018,58.13221770000018,58.13221770000018,,001,P015,2025_Feb_28_1812,CategoryLocalizer,2021.2.3,59.93339003114303,
19.8,20.0,5,0.0,Stimuli\Blank.png,0,0,0,16,16,16,,,,,,,,,,,,,19.80109139999695,0.0010913999969481836,None,58.93293410000115,58.93293410000115,58.93293410000115,58.93293410000115,58.93293410000115,58.93293410000115,58.93293410000115,58.93293410000115,,001,P015,2025_Feb_28_1812,CategoryLocalizer,2021.2.3,59.93339003114303,
20.0,20.8,1,0.75,Stimuli\ImageFiles-Set1\Objects\Object_Banana_00001.png,1,1,0,17,17,17,,,,,,,,,,,,,20.016811499997857,0.016811499997857027,None,59.13312320000114,59.13312320000114,59.13312320000114,59.13312320000114,59.13312320000114,59.13312320000114,59.13312320000114,59.13312320000114,,001,P015,2025_Feb_28_1812,CategoryLocalizer,2021.2.3,59.93339003114303,
20.8,21.0,5,0.0,Stimuli\Blank.png,0,0,0,18,18,18,,,,,,,,,,,,,20.800920299996505,0.0009202999965047809,None,59.91715770000155,59.91715770000155,59.91715770000155,59.91715770000155,59.91715770000155,59.91715770000155,59.91715770000155,59.91715770000155,,001,P015,2025_Feb_28_1812,CategoryLocalizer,2021.2.3,59.93339003114303,
21.0,21.8,1,0.75,Stimuli\ImageFiles-Set1\Objects\Object_Walnut_00001.png,0,0,0,19,19,19,,,,,,,,,,,,,21.000413099998696,0.00041309999869554304,None,60.11730770000213,60.11730770000213,60.11730770000213,60.11730770000213,60.11730770000213,60.11730770000213,60.11730770000213,60.11730770000213,,001,P015,2025_Feb_28_1812,CategoryLocalizer,2021.2.3,59.93339003114303,
21.8,22.0,5,0.0,Stimuli\Blank.png,0,0,0,20,20,20,,,,,,,,,,,,,21.802872799999022,0.00287279999902168,None,60.934709200002544,60.934709200002544,60.934709200002544,60.934709200002544,60.934709200002544,60.934709200002544,60.934709200002544,60.934709200002544,,001,P015,2025_Feb_28_1812,CategoryLocalizer,2021.2.3,59.93339003114303,
22.0,22.8,1,0.75,Stimuli\ImageFiles-Set1\Objects\Object_Walnut_00001.png,0,0,0,21,21,21,,,,,,,,,,,,,22.018869299998187,0.01886929999818676,1,61.13485280000168,61.13485280000168,61.13485280000168,61.13485280000168,61.13485280000168,61.13485280000168,61.13485280000168,61.13485280000168,0.3388383999990765,001,P015,2025_Feb_28_1812,CategoryLocalizer,2021.2.3,59.93339003114303,
22.8,23.0,5,0.0,Stimuli\Blank.png,0,0,0,22,22,22,,,,,,,,,,,,,22.802492599999823,0.0024925999998224313,None,61.9189088000021,61.9189088000021,61.9189088000021,61.9189088000021,61.9189088000021,61.9189088000021,61.9189088000021,61.9189088000021,,001,P015,2025_Feb_28_1812,CategoryLocalizer,2021.2.3,59.93339003114303,
23.0,23.8,1,0.75,Stimuli\ImageFiles-Set1\Objects\Object_Crib_00001.png,0,0,0,23,23,23,,,,,,,,,,,,,23.001969899996766,0.0019698999967658892,None,62.11906219999946,62.11906219999946,62.11906219999946,62.11906219999946,62.11906219999946,62.11906219999946,62.11906219999946,62.11906219999946,,001,P015,2025_Feb_28_1812,CategoryLocalizer,2021.2.3,59.93339003114303,
23.8,24.0,5,0.0,Stimuli\Blank.png,0,0,0,24,24,24,,,,,,,,,,,,,23.802760299997317,0.0027602999973161957,None,62.91981730000043,62.91981730000043,62.91981730000043,62.91981730000043,62.91981730000043,62.91981730000043,62.91981730000043,62.91981730000043,,001,P015,2025_Feb_28_1812,CategoryLocalizer,2021.2.3,59.93339003114303,
24.0,24.8,1,0.75,Stimuli\ImageFiles-Set1\Objects\Object_GarbageCan_00001.png,0,0,0,25,25,25,,,,,,,,,,,,,24.00294689999646,0.0029468999964592513,None,63.13665540000147,63.13665540000147,63.13665540000147,63.13665540000147,63.13665540000147,63.13665540000147,63.13665540000147,63.13665540000147,,001,P015,2025_Feb_28_1812,CategoryLocalizer,2021.2.3,59.93339003114303,
24.8,25.0,5,0.0,Stimuli\Blank.png,0,0,0,26,26,26,,,,,,,,,,,,,24.820902499999647,0.02090249999964655,None,63.93737390000024,63.93737390000024,63.93737390000024,63.93737390000024,63.93737390000024,63.93737390000024,63.93737390000024,63.93737390000024,,001,P015,2025_Feb_28_1812,CategoryLocalizer,2021.2.3,59.93339003114303,
25.0,25.8,1,0.75,Stimuli\ImageFiles-Set1\Objects\Object_Bottle_00001.png,0,0,0,27,27,27,,,,,,,,,,,,,25.006503699998575,0.00650369999857503,None,64.1375506000004,64.1375506000004,64.1375506000004,64.1375506000004,64.1375506000004,64.1375506000004,64.1375506000004,64.1375506000004,,001,P015,2025_Feb_28_1812,CategoryLocalizer,2021.2.3,59.93339003114303,
25.8,26.0,5,0.0,Stimuli\Blank.png,0,0,0,28,28,28,,,,,,,,,,,,,25.822364099996776,0.02236409999677491,None,64.93825310000102,64.93825310000102,64.93825310000102,64.93825310000102,64.93825310000102,64.93825310000102,64.93825310000102,64.93825310000102,,001,P015,2025_Feb_28_1812,CategoryLocalizer,2021.2.3,59.93339003114303,
26.0,26.8,1,0.75,Stimuli\ImageFiles-Set1\Objects\Object_Oven_00001.png,0,0,0,29,29,29,,,,,,,,,,,,,26.0056044999983,0.0056044999982987065,None,65.13844690000042,65.13844690000042,65.13844690000042,65.13844690000042,65.13844690000042,65.13844690000042,65.13844690000042,65.13844690000042,,001,P015,2025_Feb_28_1812,CategoryLocalizer,2021.2.3,59.93339003114303,
26.8,27.0,5,0.0,Stimuli\Blank.png,0,0,0,30,30,30,,,,,,,,,,,,,26.822139399999287,0.02213939999928627,None,65.93914059999952,65.93914059999952,65.93914059999952,65.93914059999952,65.93914059999952,65.93914059999952,65.93914059999952,65.93914059999952,,001,P015,2025_Feb_28_1812,CategoryLocalizer,2021.2.3,59.93339003114303,
27.0,27.8,1,0.75,Stimuli\ImageFiles-Set1\Objects\Object_Screw_00001.png,0,0,0,31,31,31,,,,,,,,,,,,,27.006035199996404,0.006035199996404117,None,66.12262530000226,66.12262530000226,66.12262530000226,66.12262530000226,66.12262530000226,66.12262530000226,66.12262530000226,66.12262530000226,,001,P015,2025_Feb_28_1812,CategoryLocalizer,2021.2.3,59.93339003114303,
27.8,28.0,5,0.0,Stimuli\Blank.png,0,0,0,32,32,32,,,,,,,,,,,,,27.80695569999807,0.006955699998069775,None,66.92334850000043,66.92334850000043,66.92334850000043,66.92334850000043,66.92334850000043,66.92334850000043,66.92334850000043,66.92334850000043,,001,P015,2025_Feb_28_1812,CategoryLocalizer,2021.2.3,59.93339003114303,
28.0,28.8,2,0.75,Stimuli\ImageFiles-Set1\Bodies\Bodies_Pushing_00005.png,0,0,0,33,33,33,,,,,,,,,,,,,28.00738569999885,0.007385699998849304,None,67.12351350000245,67.12351350000245,67.12351350000245,67.12351350000245,67.12351350000245,67.12351350000245,67.12351350000245,67.12351350000245,,001,P015,2025_Feb_28_1812,CategoryLocalizer,2021.2.3,59.93339003114303,
28.8,29.0,5,0.0,Stimuli\Blank.png,0,0,0,34,34,34,,,,,,,,,,,,,28.807759199997236,0.007759199997234845,None,67.92423310000231,67.92423310000231,67.92423310000231,67.92423310000231,67.92423310000231,67.92423310000231,67.92423310000231,67.92423310000231,,001,P015,2025_Feb_28_1812,CategoryLocalizer,2021.2.3,59.93339003114303,
29.0,29.8,2,0.75,Stimuli\ImageFiles-Set1\Bodies\Bodies_DownwardDog_00006.png,0,0,0,35,35,35,,,,,,,,,,,,,29.007745399998385,0.007745399998384528,None,68.1243953000012,68.1243953000012,68.1243953000012,68.1243953000012,68.1243953000012,68.1243953000012,68.1243953000012,68.1243953000012,,001,P015,2025_Feb_28_1812,CategoryLocalizer,2021.2.3,59.93339003114303,
29.8,30.0,5,0.0,Stimuli\Blank.png,0,0,0,36,36,36,,,,,,,,,,,,,29.80871539999862,0.008715399998617812,None,68.92510860000039,68.92510860000039,68.92510860000039,68.92510860000039,68.92510860000039,68.92510860000039,68.92510860000039,68.92510860000039,,001,P015,2025_Feb_28_1812,CategoryLocalizer,2021.2.3,59.93339003114303,
30.0,30.8,2,0.75,Stimuli\ImageFiles-Set1\Bodies\Bodies_SittingChair_00003.png,0,0,0,37,37,37,,,,,,,,,,,,,30.009339099997305,0.009339099997305311,None,69.12527469999986,69.12527469999986,69.12527469999986,69.12527469999986,69.12527469999986,69.12527469999986,69.12527469999986,69.12527469999986,,001,P015,2025_Feb_28_1812,CategoryLocalizer,2021.2.3,59.93339003114303,
30.8,31.0,5,0.0,Stimuli\Blank.png,0,0,0,38,38,38,,,,,,,,,,,,,30.809084099997563,0.009084099997561879,None,69.92600310000125,69.92600310000125,69.92600310000125,69.92600310000125,69.92600310000125,69.92600310000125,69.92600310000125,69.92600310000125,,001,P015,2025_Feb_28_1812,CategoryLocalizer,2021.2.3,59.93339003114303,
31.0,31.8,2,0.75,Stimuli\ImageFiles-Set1\Bodies\Bodies_Kneeling_00005.png,0,0,0,39,39,39,,,,,,,,,,,,,31.00964659999954,0.00964659999954165,None,70.12620080000124,70.12620080000124,70.12620080000124,70.12620080000124,70.12620080000124,70.12620080000124,70.12620080000124,70.12620080000124,,001,P015,2025_Feb_28_1812,CategoryLocalizer,2021.2.3,59.93339003114303,
31.8,32.0,5,0.0,Stimuli\Blank.png,0,0,0,40,40,40,,,,,,,,,,,,,31.81189469999663,0.011894699996627622,None,70.92691449999984,70.92691449999984,70.92691449999984,70.92691449999984,70.92691449999984,70.92691449999984,70.92691449999984,70.92691449999984,,001,P015,2025_Feb_28_1812,CategoryLocalizer,2021.2.3,59.93339003114303,
32.0,32.8,2,0.75,Stimuli\ImageFiles-Set1\Bodies\Bodies_SittingStretch_00005.png,0,0,0,41,41,41,,,,,,,,,,,,,32.010913099999016,0.010913099999015685,None,71.12707020000016,71.12707020000016,71.12707020000016,71.12707020000016,71.12707020000016,71.12707020000016,71.12707020000016,71.12707020000016,,001,P015,2025_Feb_28_1812,CategoryLocalizer,2021.2.3,59.93339003114303,
32.8,33.0,5,0.0,Stimuli\Blank.png,0,0,0,42,42,42,,,,,,,,,,,,,32.81216279999717,0.012162799997170737,None,71.92778230000113,71.92778230000113,71.92778230000113,71.92778230000113,71.92778230000113,71.92778230000113,71.92778230000113,71.92778230000113,,001,P015,2025_Feb_28_1812,CategoryLocalizer,2021.2.3,59.93339003114303,
33.0,33.8,2,0.75,Stimuli\ImageFiles-Set1\Bodies\Bodies_DownwardDog_00005.png,0,0,0,43,43,43,,,,,,,,,,,,,33.0115380999996,0.011538099999597762,None,72.12794610000128,72.12794610000128,72.12794610000128,72.12794610000128,72.12794610000128,72.12794610000128,72.12794610000128,72.12794610000128,,001,P015,2025_Feb_28_1812,CategoryLocalizer,2021.2.3,59.93339003114303,
33.8,34.0,5,0.0,Stimuli\Blank.png,0,0,0,44,44,44,,,,,,,,,,,,,33.8123001999993,0.012300199999302208,None,72.92867150000166,72.92867150000166,72.92867150000166,72.92867150000166,72.92867150000166,72.92867150000166,72.92867150000166,72.92867150000166,,001,P015,2025_Feb_28_1812,CategoryLocalizer,2021.2.3,59.93339003114303,
34.0,34.8,2,0.75,Stimuli\ImageFiles-Set1\Bodies\Bodies_Kicking_00005.png,0,0,0,45,45,45,,,,,,,,,,,,,34.011788499999966,0.011788499999966007,None,73.12882790000003,73.12882790000003,73.12882790000003,73.12882790000003,73.12882790000003,73.12882790000003,73.12882790000003,73.12882790000003,,001,P015,2025_Feb_28_1812,CategoryLocalizer,2021.2.3,59.93339003114303,
34.8,35.0,5,0.0,Stimuli\Blank.png,0,0,0,46,46,46,,,,,,,,,,,,,34.813809699997364,0.01380969999736692,None,73.92954160000227,73.92954160000227,73.92954160000227,73.92954160000227,73.92954160000227,73.92954160000227,73.92954160000227,73.92954160000227,,001,P015,2025_Feb_28_1812,CategoryLocalizer,2021.2.3,59.93339003114303,
35.0,35.8,2,0.75,Stimuli\ImageFiles-Set1\Bodies\Bodies_Kicking_00005.png,1,1,0,47,47,47,,,,,,,,,,,,,35.01330439999947,0.013304399999469751,1,74.1464255000028,74.1464255000028,74.1464255000028,74.1464255000028,74.1464255000028,74.1464255000028,74.1464255000028,74.1464255000028,0.6232189999973343,001,P015,2025_Feb_28_1812,CategoryLocalizer,2021.2.3,59.93339003114303,
35.8,36.0,5,0.0,Stimuli\Blank.png,0,0,0,48,48,48,,,,,,,,,,,,,35.83039349999672,0.030393499996719697,None,74.94711390000157,74.94711390000157,74.94711390000157,74.94711390000157,74.94711390000157,74.94711390000157,74.94711390000157,74.94711390000157,,001,P015,2025_Feb_28_1812,CategoryLocalizer,2021.2.3,59.93339003114303,
36.0,36.8,2,0.75,Stimuli\ImageFiles-Set1\Bodies\Bodies_Pushing_00001.png,0,0,0,49,49,49,,,,,,,,,,,,,36.01356289999967,0.013562899999669753,None,75.13060300000143,75.13060300000143,75.13060300000143,75.13060300000143,75.13060300000143,75.13060300000143,75.13060300000143,75.13060300000143,,001,P015,2025_Feb_28_1812,CategoryLocalizer,2021.2.3,59.93339003114303,
36.8,37.0,5,0.0,Stimuli\Blank.png,0,0,0,50,50,50,,,,,,,,,,,,,36.815337,0.015337000000002377,None,75.9313155000018,75.9313155000018,75.9313155000018,75.9313155000018,75.9313155000018,75.9313155000018,75.9313155000018,75.9313155000018,,001,P015,2025_Feb_28_1812,CategoryLocalizer,2021.2.3,59.93339003114303,
37.0,37.8,2,0.75,Stimuli\ImageFiles-Set1\Bodies\Bodies_Waving_00007.png,0,0,0,51,51,51,,,,,,,,,,,,,37.014468999997916,0.014468999997916399,None,76.1314932000023,76.1314932000023,76.1314932000023,76.1314932000023,76.1314932000023,76.1314932000023,76.1314932000023,76.1314932000023,,001,P015,2025_Feb_28_1812,CategoryLocalizer,2021.2.3,59.93339003114303,
37.8,38.0,5,0.0,Stimuli\Blank.png,0,0,0,52,52,52,,,,,,,,,,,,,37.81794279999667,0.017942799996674808,None,76.94888750000246,76.94888750000246,76.94888750000246,76.94888750000246,76.94888750000246,76.94888750000246,76.94888750000246,76.94888750000246,,001,P015,2025_Feb_28_1812,CategoryLocalizer,2021.2.3,59.93339003114303,
38.0,38.8,2,0.75,Stimuli\ImageFiles-Set1\Bodies\Bodies_Walking_00002.png,0,0,0,53,53,53,,,,,,,,,,,,,38.015418499999214,0.015418499999213964,None,77.13247290000072,77.13247290000072,77.13247290000072,77.13247290000072,77.13247290000072,77.13247290000072,77.13247290000072,77.13247290000072,,001,P015,2025_Feb_28_1812,CategoryLocalizer,2021.2.3,59.93339003114303,
38.8,39.0,5,0.0,Stimuli\Blank.png,0,0,0,54,54,54,,,,,,,,,,,,,38.7998540999979,-0.00014590000209580012,None,77.91641080000045,77.91641080000045,77.91641080000045,77.91641080000045,77.91641080000045,77.91641080000045,77.91641080000045,77.91641080000045,,001,P015,2025_Feb_28_1812,CategoryLocalizer,2021.2.3,59.93339003114303,
39.0,39.8,2,0.75,Stimuli\ImageFiles-Set1\Bodies\Bodies_Running_00006.png,0,0,0,55,55,55,,,,,,,,,,,,,38.99975839999752,-0.00024160000248230062,None,78.13328019999972,78.13328019999972,78.13328019999972,78.13328019999972,78.13328019999972,78.13328019999972,78.13328019999972,78.13328019999972,,001,P015,2025_Feb_28_1812,CategoryLocalizer,2021.2.3,59.93339003114303,
39.8,40.0,5,0.0,Stimuli\Blank.png,0,0,0,56,56,56,,,,,,,,,,,,,39.81779329999699,0.017793299996995415,None,78.93398150000212,78.93398150000212,78.93398150000212,78.93398150000212,78.93398150000212,78.93398150000212,78.93398150000212,78.93398150000212,,001,P015,2025_Feb_28_1812,CategoryLocalizer,2021.2.3,59.93339003114303,
40.0,40.8,2,0.75,Stimuli\ImageFiles-Set1\Bodies\Bodies_Jumping_00002.png,0,0,0,57,57,57,,,,,,,,,,,,,40.00355169999966,0.0035516999996616505,None,79.13415870000244,79.13415870000244,79.13415870000244,79.13415870000244,79.13415870000244,79.13415870000244,79.13415870000244,79.13415870000244,,001,P015,2025_Feb_28_1812,CategoryLocalizer,2021.2.3,59.93339003114303,
40.8,41.0,5,0.0,Stimuli\Blank.png,0,0,0,58,58,58,,,,,,,,,,,,,40.81856229999903,0.018562299999032916,None,79.93486430000121,79.93486430000121,79.93486430000121,79.93486430000121,79.93486430000121,79.93486430000121,79.93486430000121,79.93486430000121,,001,P015,2025_Feb_28_1812,CategoryLocalizer,2021.2.3,59.93339003114303,
41.0,41.8,2,0.75,Stimuli\ImageFiles-Set1\Bodies\Bodies_SittingChair_00001.png,0,0,0,59,59,59,,,,,,,,,,,,,41.002064999996946,0.002064999996946426,None,80.1183560999998,80.1183560999998,80.1183560999998,80.1183560999998,80.1183560999998,80.1183560999998,80.1183560999998,80.1183560999998,,001,P015,2025_Feb_28_1812,CategoryLocalizer,2021.2.3,59.93339003114303,
41.8,42.0,5,0.0,Stimuli\Blank.png,0,0,0,60,60,60,,,,,,,,,,,,,41.80421849999766,0.004218499997662661,None,80.93575590000182,80.93575590000182,80.93575590000182,80.93575590000182,80.93575590000182,80.93575590000182,80.93575590000182,80.93575590000182,,001,P015,2025_Feb_28_1812,CategoryLocalizer,2021.2.3,59.93339003114303,
42.0,42.8,2,0.75,Stimuli\ImageFiles-Set1\Bodies\Bodies_QuadStretch_00001.png,0,0,0,61,61,61,,,,,,,,,,,,,42.01925309999933,0.019253099999332335,None,81.13592390000122,81.13592390000122,81.13592390000122,81.13592390000122,81.13592390000122,81.13592390000122,81.13592390000122,81.13592390000122,,001,P015,2025_Feb_28_1812,CategoryLocalizer,2021.2.3,59.93339003114303,
42.8,43.0,5,0.0,Stimuli\Blank.png,0,0,0,62,62,62,,,,,,,,,,,,,42.804171799998585,0.004171799998587744,None,81.91996250000011,81.91996250000011,81.91996250000011,81.91996250000011,81.91996250000011,81.91996250000011,81.91996250000011,81.91996250000011,,001,P015,2025_Feb_28_1812,CategoryLocalizer,2021.2.3,59.93339003114303,
43.0,43.8,2,0.75,Stimuli\ImageFiles-Set1\Bodies\Bodies_Crawling_00006.png,0,0,0,63,63,63,,,,,,,,,,,,,43.003887199996825,0.0038871999968250748,None,82.13681310000175,82.13681310000175,82.13681310000175,82.13681310000175,82.13681310000175,82.13681310000175,82.13681310000175,82.13681310000175,,001,P015,2025_Feb_28_1812,CategoryLocalizer,2021.2.3,59.93339003114303,
43.8,44.0,5,0.0,Stimuli\Blank.png,0,0,0,64,64,64,,,,,,,,,,,,,43.820585199999186,0.020585199999189285,None,82.93752529999983,82.93752529999983,82.93752529999983,82.93752529999983,82.93752529999983,82.93752529999983,82.93752529999983,82.93752529999983,,001,P015,2025_Feb_28_1812,CategoryLocalizer,2021.2.3,59.93339003114303,
44.0,44.8,3,0.75,Stimuli\ImageFiles-Set1\Faces\Face_00075.png,0,0,0,65,65,65,,,,,,,,,,,,,44.005564299997786,0.005564299997786293,None,83.13770040000236,83.13770040000236,83.13770040000236,83.13770040000236,83.13770040000236,83.13770040000236,83.13770040000236,83.13770040000236,,001,P015,2025_Feb_28_1812,CategoryLocalizer,2021.2.3,59.93339003114303,
44.8,45.0,5,0.0,Stimuli\Blank.png,0,0,0,66,66,66,,,,,,,,,,,,,44.821490299997095,0.021490299997097395,None,83.93841360000079,83.93841360000079,83.93841360000079,83.93841360000079,83.93841360000079,83.93841360000079,83.93841360000079,83.93841360000079,,001,P015,2025_Feb_28_1812,CategoryLocalizer,2021.2.3,59.93339003114303,
45.0,45.8,3,0.75,Stimuli\ImageFiles-Set1\Faces\Face_00039.png,0,0,0,67,67,67,,,,,,,,,,,,,45.004966099997546,0.004966099997545825,None,84.12190539999938,84.12190539999938,84.12190539999938,84.12190539999938,84.12190539999938,84.12190539999938,84.12190539999938,84.12190539999938,,001,P015,2025_Feb_28_1812,CategoryLocalizer,2021.2.3,59.93339003114303,
45.8,46.0,5,0.0,Stimuli\Blank.png,0,0,0,68,68,68,,,,,,,,,,,,,45.80614049999713,0.006140499997130178,None,84.92260710000119,84.92260710000119,84.92260710000119,84.92260710000119,84.92260710000119,84.92260710000119,84.92260710000119,84.92260710000119,,001,P015,2025_Feb_28_1812,CategoryLocalizer,2021.2.3,59.93339003114303,
46.0,46.8,3,0.75,Stimuli\ImageFiles-Set1\Faces\Face_00065.png,0,0,0,69,69,69,,,,,,,,,,,,,46.00645129999975,0.006451299999753246,None,85.12278510000033,85.12278510000033,85.12278510000033,85.12278510000033,85.12278510000033,85.12278510000033,85.12278510000033,85.12278510000033,,001,P015,2025_Feb_28_1812,CategoryLocalizer,2021.2.3,59.93339003114303,
46.8,47.0,5,0.0,Stimuli\Blank.png,0,0,0,70,70,70,,,,,,,,,,,,,46.80659049999667,0.006590499996676158,None,85.92349680000189,85.92349680000189,85.92349680000189,85.92349680000189,85.92349680000189,85.92349680000189,85.92349680000189,85.92349680000189,,001,P015,2025_Feb_28_1812,CategoryLocalizer,2021.2.3,59.93339003114303,
47.0,47.8,3,0.75,Stimuli\ImageFiles-Set1\Faces\Face_00085.png,0,0,0,71,71,71,,,,,,,,,,,,,47.00695429999905,0.006954299999051727,None,86.1236678000023,86.1236678000023,86.1236678000023,86.1236678000023,86.1236678000023,86.1236678000023,86.1236678000023,86.1236678000023,,001,P015,2025_Feb_28_1812,CategoryLocalizer,2021.2.3,59.93339003114303,
47.8,48.0,5,0.0,Stimuli\Blank.png,0,0,0,72,72,72,,,,,,,,,,,,,47.80962449999788,0.009624499997883618,None,86.92440850000276,86.92440850000276,86.92440850000276,86.92440850000276,86.92440850000276,86.92440850000276,86.92440850000276,86.92440850000276,,001,P015,2025_Feb_28_1812,CategoryLocalizer,2021.2.3,59.93339003114303,
48.0,48.8,3,0.75,Stimuli\ImageFiles-Set1\Faces\Face_00085.png,1,1,0,73,73,73,,,,,,,,,,,,,48.007569299999886,0.007569299999886425,1,87.12455810000029,87.12455810000029,87.12455810000029,87.12455810000029,87.12455810000029,87.12455810000029,87.12455810000029,87.12455810000029,0.3452976000007766,001,P015,2025_Feb_28_1812,CategoryLocalizer,2021.2.3,59.93339003114303,
48.8,49.0,5,0.0,Stimuli\Blank.png,0,0,0,74,74,74,,,,,,,,,,,,,48.810103799998615,0.010103799998617546,None,87.9419646000024,87.9419646000024,87.9419646000024,87.9419646000024,87.9419646000024,87.9419646000024,87.9419646000024,87.9419646000024,,001,P015,2025_Feb_28_1812,CategoryLocalizer,2021.2.3,59.93339003114303,
49.0,49.8,3,0.75,Stimuli\ImageFiles-Set1\Faces\Face_00003.png,0,0,0,75,75,75,,,,,,,,,,,,,49.026060999996844,0.026060999996843748,None,88.15887719999955,88.15887719999955,88.15887719999955,88.15887719999955,88.15887719999955,88.15887719999955,88.15887719999955,88.15887719999955,,001,P015,2025_Feb_28_1812,CategoryLocalizer,2021.2.3,59.93339003114303,
49.8,50.0,5,0.0,Stimuli\Blank.png,0,0,0,76,76,76,,,,,,,,,,,,,49.8263612999981,0.026361299998100662,None,88.94284700000208,88.94284700000208,88.94284700000208,88.94284700000208,88.94284700000208,88.94284700000208,88.94284700000208,88.94284700000208,,001,P015,2025_Feb_28_1812,CategoryLocalizer,2021.2.3,59.93339003114303,
50.0,50.8,3,0.75,Stimuli\ImageFiles-Set1\Faces\Face_00081.png,0,0,0,77,77,77,,,,,,,,,,,,,50.009730699999636,0.009730699999636272,None,89.14306679999936,89.14306679999936,89.14306679999936,89.14306679999936,89.14306679999936,89.14306679999936,89.14306679999936,89.14306679999936,,001,P015,2025_Feb_28_1812,CategoryLocalizer,2021.2.3,59.93339003114303,
50.8,51.0,5,0.0,Stimuli\Blank.png,0,0,0,78,78,78,,,,,,,,,,,,,50.827000899997074,0.027000899997077,None,89.94372680000015,89.94372680000015,89.94372680000015,89.94372680000015,89.94372680000015,89.94372680000015,89.94372680000015,89.94372680000015,,001,P015,2025_Feb_28_1812,CategoryLocalizer,2021.2.3,59.93339003114303,
51.0,51.8,3,0.75,Stimuli\ImageFiles-Set1\Faces\Face_00103.png,0,0,0,79,79,79,,,,,,,,,,,,,51.01108799999929,0.011087999999290332,None,90.12721710000187,90.12721710000187,90.12721710000187,90.12721710000187,90.12721710000187,90.12721710000187,90.12721710000187,90.12721710000187,,001,P015,2025_Feb_28_1812,CategoryLocalizer,2021.2.3,59.93339003114303,
51.8,52.0,5,0.0,Stimuli\Blank.png,0,0,0,80,80,80,,,,,,,,,,,,,51.81229109999913,0.012291099999131916,None,90.92796660000022,90.92796660000022,90.92796660000022,90.92796660000022,90.92796660000022,90.92796660000022,90.92796660000022,90.92796660000022,,001,P015,2025_Feb_28_1812,CategoryLocalizer,2021.2.3,59.93339003114303,
52.0,52.8,3,0.75,Stimuli\ImageFiles-Set1\Faces\Face_00105.png,0,0,0,81,81,81,,,,,,,,,,,,,52.01132989999678,0.011329899996781023,None,91.12810240000181,91.12810240000181,91.12810240000181,91.12810240000181,91.12810240000181,91.12810240000181,91.12810240000181,91.12810240000181,,001,P015,2025_Feb_28_1812,CategoryLocalizer,2021.2.3,59.93339003114303,
52.8,53.0,5,0.0,Stimuli\Blank.png,0,0,0,82,82,82,,,,,,,,,,,,,52.81203169999935,0.012031699999354828,None,91.92881160000252,91.92881160000252,91.92881160000252,91.92881160000252,91.92881160000252,91.92881160000252,91.92881160000252,91.92881160000252,,001,P015,2025_Feb_28_1812,CategoryLocalizer,2021.2.3,59.93339003114303,
53.0,53.8,3,0.75,Stimuli\ImageFiles-Set1\Faces\Face_00009.png,0,0,0,83,83,83,,,,,,,,,,,,,53.01208249999763,0.012082499997632112,None,92.12899330000073,92.12899330000073,92.12899330000073,92.12899330000073,92.12899330000073,92.12899330000073,92.12899330000073,92.12899330000073,,001,P015,2025_Feb_28_1812,CategoryLocalizer,2021.2.3,59.93339003114303,
53.8,54.0,5,0.0,Stimuli\Blank.png,0,0,0,84,84,84,,,,,,,,,,,,,53.81265119999807,0.012651199998074958,None,92.92968979999932,92.92968979999932,92.92968979999932,92.92968979999932,92.92968979999932,92.92968979999932,92.92968979999932,92.92968979999932,,001,P015,2025_Feb_28_1812,CategoryLocalizer,2021.2.3,59.93339003114303,
54.0,54.8,3,0.75,Stimuli\ImageFiles-Set1\Faces\Face_00113.png,0,0,0,85,85,85,,,,,,,,,,,,,54.012883699997474,0.012883699997473741,None,93.1298721000021,93.1298721000021,93.1298721000021,93.1298721000021,93.1298721000021,93.1298721000021,93.1298721000021,93.1298721000021,,001,P015,2025_Feb_28_1812,CategoryLocalizer,2021.2.3,59.93339003114303,
54.8,55.0,5,0.0,Stimuli\Blank.png,0,0,0,86,86,86,,,,,,,,,,,,,54.815989799997624,0.01598979999762662,None,93.94727250000142,93.94727250000142,93.94727250000142,93.94727250000142,93.94727250000142,93.94727250000142,93.94727250000142,93.94727250000142,,001,P015,2025_Feb_28_1812,CategoryLocalizer,2021.2.3,59.93339003114303,
55.0,55.8,3,0.75,Stimuli\ImageFiles-Set1\Faces\Face_00045.png,0,0,0,87,87,87,,,,,,,,,,,,,55.014813899997534,0.014813899997534463,None,94.14745770000081,94.14745770000081,94.14745770000081,94.14745770000081,94.14745770000081,94.14745770000081,94.14745770000081,94.14745770000081,,001,P015,2025_Feb_28_1812,CategoryLocalizer,2021.2.3,59.93339003114303,
55.8,56.0,5,0.0,Stimuli\Blank.png,0,0,0,88,88,88,,,,,,,,,,,,,55.831927799998084,0.031927799998086925,None,94.94817680000051,94.94817680000051,94.94817680000051,94.94817680000051,94.94817680000051,94.94817680000051,94.94817680000051,94.94817680000051,,001,P015,2025_Feb_28_1812,CategoryLocalizer,2021.2.3,59.93339003114303,
56.0,56.8,3,0.75,Stimuli\ImageFiles-Set1\Faces\Face_00031.png,0,0,0,89,89,89,,,,,,,,,,,,,56.01554169999872,0.015541699998721015,None,95.1316794000013,95.1316794000013,95.1316794000013,95.1316794000013,95.1316794000013,95.1316794000013,95.1316794000013,95.1316794000013,,001,P015,2025_Feb_28_1812,CategoryLocalizer,2021.2.3,59.93339003114303,
56.8,57.0,5,0.0,Stimuli\Blank.png,0,0,0,90,90,90,,,,,,,,,,,,,56.798992399999406,-0.001007600000590969,None,95.91572040000028,95.91572040000028,95.91572040000028,95.91572040000028,95.91572040000028,95.91572040000028,95.91572040000028,95.91572040000028,,001,P015,2025_Feb_28_1812,CategoryLocalizer,2021.2.3,59.93339003114303,
57.0,57.8,3,0.75,Stimuli\ImageFiles-Set1\Faces\Face_00024.png,0,0,0,91,91,91,,,,,,,,,,,,,56.998824699996476,-0.0011753000035241712,None,96.11582760000238,96.11582760000238,96.11582760000238,96.11582760000238,96.11582760000238,96.11582760000238,96.11582760000238,96.11582760000238,,001,P015,2025_Feb_28_1812,CategoryLocalizer,2021.2.3,59.93339003114303,
57.8,58.0,5,0.0,Stimuli\Blank.png,0,0,0,92,92,92,,,,,,,,,,,,,57.800318299996434,0.00031829999643662177,None,96.9166124000003,96.9166124000003,96.9166124000003,96.9166124000003,96.9166124000003,96.9166124000003,96.9166124000003,96.9166124000003,,001,P015,2025_Feb_28_1812,CategoryLocalizer,2021.2.3,59.93339003114303,
58.0,58.8,3,0.75,Stimuli\ImageFiles-Set1\Faces\Face_00071.png,0,0,0,93,93,93,,,,,,,,,,,,,58.00027249999766,0.0002724999976635445,None,97.1334253999994,97.1334253999994,97.1334253999994,97.1334253999994,97.1334253999994,97.1334253999994,97.1334253999994,97.1334253999994,,001,P015,2025_Feb_28_1812,CategoryLocalizer,2021.2.3,59.93339003114303,
58.8,59.0,5,0.0,Stimuli\Blank.png,0,0,0,94,94,94,,,,,,,,,,,,,58.81792499999938,0.01792499999938002,None,97.93413000000146,97.93413000000146,97.93413000000146,97.93413000000146,97.93413000000146,97.93413000000146,97.93413000000146,97.93413000000146,,001,P015,2025_Feb_28_1812,CategoryLocalizer,2021.2.3,59.93339003114303,
59.0,59.8,3,0.75,Stimuli\ImageFiles-Set1\Faces\Face_00111.png,0,0,0,95,95,95,,,,,,,,,,,,,59.00180689999979,0.001806899999792222,None,98.11763300000166,98.11763300000166,98.11763300000166,98.11763300000166,98.11763300000166,98.11763300000166,98.11763300000166,98.11763300000166,,001,P015,2025_Feb_28_1812,CategoryLocalizer,2021.2.3,59.93339003114303,
59.8,60.0,5,0.0,Stimuli\Blank.png,0,0,0,96,96,96,,,,,,,,,,,,,59.80187029999797,0.0018702999979751667,None,98.91832730000169,98.91832730000169,98.91832730000169,98.91832730000169,98.91832730000169,98.91832730000169,98.91832730000169,98.91832730000169,,001,P015,2025_Feb_28_1812,CategoryLocalizer,2021.2.3,59.93339003114303,
60.0,60.8,4,0.75,Stimuli\ImageFiles-Set1\Scenes\Scenes_032.png,0,0,0,97,97,97,,,,,,,,,,,,,60.002112999998644,0.002112999998644227,None,99.13520140000037,99.13520140000037,99.13520140000037,99.13520140000037,99.13520140000037,99.13520140000037,99.13520140000037,99.13520140000037,,001,P015,2025_Feb_28_1812,CategoryLocalizer,2021.2.3,59.93339003114303,
60.8,61.0,5,0.0,Stimuli\Blank.png,0,0,0,98,98,98,,,,,,,,,,,,,60.82060929999716,0.020609299997161656,None,99.93591890000243,99.93591890000243,99.93591890000243,99.93591890000243,99.93591890000243,99.93591890000243,99.93591890000243,99.93591890000243,,001,P015,2025_Feb_28_1812,CategoryLocalizer,2021.2.3,59.93339003114303,
61.0,61.8,4,0.75,Stimuli\ImageFiles-Set1\Scenes\Scenes_001.png,0,0,0,99,99,99,,,,,,,,,,,,,61.00494059999983,0.0049405999998271,None,100.13609030000225,100.13609030000225,100.13609030000225,100.13609030000225,100.13609030000225,100.13609030000225,100.13609030000225,100.13609030000225,,001,P015,2025_Feb_28_1812,CategoryLocalizer,2021.2.3,59.93339003114303,
61.8,62.0,5,0.0,Stimuli\Blank.png,0,0,0,100,100,100,,,,,,,,,,,,,61.82033099999899,0.020330999998989796,None,100.93680420000237,100.93680420000237,100.93680420000237,100.93680420000237,100.93680420000237,100.93680420000237,100.93680420000237,100.93680420000237,,001,P015,2025_Feb_28_1812,CategoryLocalizer,2021.2.3,59.93339003114303,
62.0,62.8,4,0.75,Stimuli\ImageFiles-Set1\Scenes\Scenes_013.png,0,0,0,101,101,101,,,,,,,,,,,,,62.00524669999868,0.005246699998679105,None,101.13697370000227,101.13697370000227,101.13697370000227,101.13697370000227,101.13697370000227,101.13697370000227,101.13697370000227,101.13697370000227,,001,P015,2025_Feb_28_1812,CategoryLocalizer,2021.2.3,59.93339003114303,
62.8,63.0,5,0.0,Stimuli\Blank.png,0,0,0,102,102,102,,,,,,,,,,,,,62.82060139999885,0.0206013999988528,None,101.93766710000273,101.93766710000273,101.93766710000273,101.93766710000273,101.93766710000273,101.93766710000273,101.93766710000273,101.93766710000273,,001,P015,2025_Feb_28_1812,CategoryLocalizer,2021.2.3,59.93339003114303,
63.0,63.8,4,0.75,Stimuli\ImageFiles-Set1\Scenes\Scenes_020.png,0,0,0,103,103,103,,,,,,,,,,,,,63.004750899999635,0.004750899999635294,None,102.13785070000085,102.13785070000085,102.13785070000085,102.13785070000085,102.13785070000085,102.13785070000085,102.13785070000085,102.13785070000085,,001,P015,2025_Feb_28_1812,CategoryLocalizer,2021.2.3,59.93339003114303,
63.8,64.0,5,0.0,Stimuli\Blank.png,0,0,0,104,104,104,,,,,,,,,,,,,63.82213279999996,0.02213279999996587,None,102.9385540000003,102.9385540000003,102.9385540000003,102.9385540000003,102.9385540000003,102.9385540000003,102.9385540000003,102.9385540000003,,001,P015,2025_Feb_28_1812,CategoryLocalizer,2021.2.3,59.93339003114303,
64.0,64.8,4,0.75,Stimuli\ImageFiles-Set1\Scenes\Scenes_005.png,0,0,0,105,105,105,,,,,,,,,,,,,64.00504249999722,0.00504249999721651,None,103.12205510000058,103.12205510000058,103.12205510000058,103.12205510000058,103.12205510000058,103.12205510000058,103.12205510000058,103.12205510000058,,001,P015,2025_Feb_28_1812,CategoryLocalizer,2021.2.3,59.93339003114303,
64.8,65.0,5,0.0,Stimuli\Blank.png,0,0,0,106,106,106,,,,,,,,,,,,,64.80569089999699,0.005690899996992016,None,103.92276760000095,103.92276760000095,103.92276760000095,103.92276760000095,103.92276760000095,103.92276760000095,103.92276760000095,103.92276760000095,,001,P015,2025_Feb_28_1812,CategoryLocalizer,2021.2.3,59.93339003114303,
65.0,65.8,4,0.75,Stimuli\ImageFiles-Set1\Scenes\Scenes_005.png,1,1,0,107,107,107,,,,,,,,,,,,,65.00650039999891,0.006500399998913053,1,104.13964029999988,104.13964029999988,104.13964029999988,104.13964029999988,104.13964029999988,104.13964029999988,104.13964029999988,104.13964029999988,0.4051048000001174,001,P015,2025_Feb_28_1812,CategoryLocalizer,2021.2.3,59.93339003114303,
65.8,66.0,5,0.0,Stimuli\Blank.png,0,0,0,108,108,108,,,,,,,,,,,,,65.82444509999914,0.024445099999141462,None,104.94034550000288,104.94034550000288,104.94034550000288,104.94034550000288,104.94034550000288,104.94034550000288,104.94034550000288,104.94034550000288,,001,P015,2025_Feb_28_1812,CategoryLocalizer,2021.2.3,59.93339003114303,
66.0,66.8,4,0.75,Stimuli\ImageFiles-Set1\Scenes\Scenes_045.png,0,0,0,109,109,109,,,,,,,,,,,,,66.00672239999767,0.006722399997670436,None,105.12382649999927,105.12382649999927,105.12382649999927,105.12382649999927,105.12382649999927,105.12382649999927,105.12382649999927,105.12382649999927,,001,P015,2025_Feb_28_1812,CategoryLocalizer,2021.2.3,59.93339003114303,
66.8,67.0,5,0.0,Stimuli\Blank.png,0,0,0,110,110,110,,,,,,,,,,,,,66.81073849999666,0.010738499996662654,None,105.9412521000013,105.9412521000013,105.9412521000013,105.9412521000013,105.9412521000013,105.9412521000013,105.9412521000013,105.9412521000013,,001,P015,2025_Feb_28_1812,CategoryLocalizer,2021.2.3,59.93339003114303,
67.0,67.8,4,0.75,Stimuli\ImageFiles-Set1\Scenes\Scenes_034.png,0,0,0,111,111,111,,,,,,,,,,,,,67.02444549999927,0.024445499999274034,None,106.14140100000077,106.14140100000077,106.14140100000077,106.14140100000077,106.14140100000077,106.14140100000077,106.14140100000077,106.14140100000077,,001,P015,2025_Feb_28_1812,CategoryLocalizer,2021.2.3,59.93339003114303,
67.8,68.0,5,0.0,Stimuli\Blank.png,0,0,0,112,112,112,,,,,,,,,,,,,67.80903549999857,0.009035499998574892,None,106.92547270000068,106.92547270000068,106.92547270000068,106.92547270000068,106.92547270000068,106.92547270000068,106.92547270000068,106.92547270000068,,001,P015,2025_Feb_28_1812,CategoryLocalizer,2021.2.3,59.93339003114303,
68.0,68.8,4,0.75,Stimuli\ImageFiles-Set1\Scenes\Scenes_024.png,0,0,0,113,113,113,,,,,,,,,,,,,68.00927109999975,0.009271099999750732,None,107.1423242000019,107.1423242000019,107.1423242000019,107.1423242000019,107.1423242000019,107.1423242000019,107.1423242000019,107.1423242000019,,001,P015,2025_Feb_28_1812,CategoryLocalizer,2021.2.3,59.93339003114303,
68.8,69.0,5,0.0,Stimuli\Blank.png,0,0,0,114,114,114,,,,,,,,,,,,,68.8260412999989,0.026041299998908585,None,107.94298880000133,107.94298880000133,107.94298880000133,107.94298880000133,107.94298880000133,107.94298880000133,107.94298880000133,107.94298880000133,,001,P015,2025_Feb_28_1812,CategoryLocalizer,2021.2.3,59.93339003114303,
69.0,69.8,4,0.75,Stimuli\ImageFiles-Set1\Scenes\Scenes_058.png,1,1,0,115,115,115,,,,,,,,,,,,,69.01006389999748,0.010063899997476256,None,108.1431760000014,108.1431760000014,108.1431760000014,108.1431760000014,108.1431760000014,108.1431760000014,108.1431760000014,108.1431760000014,,001,P015,2025_Feb_28_1812,CategoryLocalizer,2021.2.3,59.93339003114303,
69.8,70.0,5,0.0,Stimuli\Blank.png,0,0,0,116,116,116,,,,,,,,,,,,,69.82770219999657,0.02770219999656831,None,108.94386690000101,108.94386690000101,108.94386690000101,108.94386690000101,108.94386690000101,108.94386690000101,108.94386690000101,108.94386690000101,,001,P015,2025_Feb_28_1812,CategoryLocalizer,2021.2.3,59.93339003114303,
70.0,70.8,4,0.75,Stimuli\ImageFiles-Set1\Scenes\Scenes_008.png,0,0,0,117,117,117,,,,,,,,,,,,,70.01040869999997,0.01040869999997085,None,109.14405610000176,109.14405610000176,109.14405610000176,109.14405610000176,109.14405610000176,109.14405610000176,109.14405610000176,109.14405610000176,,001,P015,2025_Feb_28_1812,CategoryLocalizer,2021.2.3,59.93339003114303,
70.8,71.0,5,0.0,Stimuli\Blank.png,0,0,0,118,118,118,,,,,,,,,,,,,70.83021419999932,0.030214199999321067,None,109.96146980000049,109.96146980000049,109.96146980000049,109.96146980000049,109.96146980000049,109.96146980000049,109.96146980000049,109.96146980000049,,001,P015,2025_Feb_28_1812,CategoryLocalizer,2021.2.3,59.93339003114303,
71.0,71.8,4,0.75,Stimuli\ImageFiles-Set1\Scenes\Scenes_008.png,0,0,0,119,119,119,,,,,,,,,,,,,71.02855459999773,0.02855459999773302,1,110.16164470000149,110.16164470000149,110.16164470000149,110.16164470000149,110.16164470000149,110.16164470000149,110.16164470000149,110.16164470000149,0.388364399997954,001,P015,2025_Feb_28_1812,CategoryLocalizer,2021.2.3,59.93339003114303,
71.8,72.0,5,0.0,Stimuli\Blank.png,0,0,0,120,120,120,,,,,,,,,,,,,71.82886899999721,0.028868999997214928,None,110.9456422000003,110.9456422000003,110.9456422000003,110.9456422000003,110.9456422000003,110.9456422000003,110.9456422000003,110.9456422000003,,001,P015,2025_Feb_28_1812,CategoryLocalizer,2021.2.3,59.93339003114303,
72.0,72.8,4,0.75,Stimuli\ImageFiles-Set1\Scenes\Scenes_011.png,0,0,0,121,121,121,,,,,,,,,,,,,72.01305299999876,0.01305299999876297,None,111.1291420000016,111.1291420000016,111.1291420000016,111.1291420000016,111.1291420000016,111.1291420000016,111.1291420000016,111.1291420000016,,001,P015,2025_Feb_28_1812,CategoryLocalizer,2021.2.3,59.93339003114303,
72.8,73.0,5,0.0,Stimuli\Blank.png,0,0,0,122,122,122,,,,,,,,,,,,,72.81516399999964,0.015163999999643352,None,111.9465420000015,111.9465420000015,111.9465420000015,111.9465420000015,111.9465420000015,111.9465420000015,111.9465420000015,111.9465420000015,,001,P015,2025_Feb_28_1812,CategoryLocalizer,2021.2.3,59.93339003114303,
73.0,73.8,4,0.75,Stimuli\ImageFiles-Set1\Scenes\Scenes_012.png,0,0,0,123,123,123,,,,,,,,,,,,,73.03024689999802,0.030246899998019217,None,112.16339250000237,112.16339250000237,112.16339250000237,112.16339250000237,112.16339250000237,112.16339250000237,112.16339250000237,112.16339250000237,,001,P015,2025_Feb_28_1812,CategoryLocalizer,2021.2.3,59.93339003114303,
73.8,74.0,5,0.0,Stimuli\Blank.png,0,0,0,124,124,124,,,,,,,,,,,,,73.83173679999891,0.031736799998910215,None,112.96412840000266,112.96412840000266,112.96412840000266,112.96412840000266,112.96412840000266,112.96412840000266,112.96412840000266,112.96412840000266,,001,P015,2025_Feb_28_1812,CategoryLocalizer,2021.2.3,59.93339003114303,
74.0,74.8,4,0.75,Stimuli\ImageFiles-Set1\Scenes\Scenes_043.png,0,0,0,125,125,125,,,,,,,,,,,,,74.0315993999975,0.0315993999975035,None,113.16428050000104,113.16428050000104,113.16428050000104,113.16428050000104,113.16428050000104,113.16428050000104,113.16428050000104,113.16428050000104,,001,P015,2025_Feb_28_1812,CategoryLocalizer,2021.2.3,59.93339003114303,
74.8,75.0,5,0.0,Stimuli\Blank.png,0,0,0,126,126,126,,,,,,,,,,,,,74.83119389999774,0.03119389999774569,None,113.94830490000095,113.94830490000095,113.94830490000095,113.94830490000095,113.94830490000095,113.94830490000095,113.94830490000095,113.94830490000095,,001,P015,2025_Feb_28_1812,CategoryLocalizer,2021.2.3,59.93339003114303,
75.0,75.8,4,0.75,Stimuli\ImageFiles-Set1\Scenes\Scenes_031.png,0,0,0,127,127,127,,,,,,,,,,,,,75.01662229999783,0.01662229999783449,None,114.14848510000229,114.14848510000229,114.14848510000229,114.14848510000229,114.14848510000229,114.14848510000229,114.14848510000229,114.14848510000229,,001,P015,2025_Feb_28_1812,CategoryLocalizer,2021.2.3,59.93339003114303,
75.8,76.0,5,0.0,Stimuli\Blank.png,0,0,0,128,128,128,,,,,,,,,,,,,75.81652699999904,0.01652699999904428,None,114.93251450000025,114.93251450000025,114.93251450000025,114.93251450000025,114.93251450000025,114.93251450000025,114.93251450000025,114.93251450000025,,001,P015,2025_Feb_28_1812,CategoryLocalizer,2021.2.3,59.93339003114303,
76.0,88.0,0,0.0,Stimuli\Blank.png,0,0,0,129,129,129,,,,,,,,,,,,,75.99901889999819,-0.0009811000018089544,None,115.1160727000024,115.1160727000024,115.1160727000024,115.1160727000024,115.1160727000024,115.1160727000024,115.1160727000024,115.1160727000024,,001,P015,2025_Feb_28_1812,CategoryLocalizer,2021.2.3,59.93339003114303,
88.0,88.8,3,0.75,Stimuli\ImageFiles-Set1\Faces\Face_00041.png,0,0,0,130,130,130,,,,,,,,,,,,,88.0114168,0.011416800000006333,None,127.14331900000252,127.14331900000252,127.14331900000252,127.14331900000252,127.14331900000252,127.14331900000252,127.14331900000252,127.14331900000252,,001,P015,2025_Feb_28_1812,CategoryLocalizer,2021.2.3,59.93339003114303,
88.8,89.0,5,0.0,Stimuli\Blank.png,0,0,0,131,131,131,,,,,,,,,,,,,88.82759589999841,0.02759589999841694,None,127.94403210000019,127.94403210000019,127.94403210000019,127.94403210000019,127.94403210000019,127.94403210000019,127.94403210000019,127.94403210000019,,001,P015,2025_Feb_28_1812,CategoryLocalizer,2021.2.3,59.93339003114303,
89.0,89.8,3,0.75,Stimuli\ImageFiles-Set1\Faces\Face_00061.png,0,0,0,132,132,132,,,,,,,,,,,,,89.01059059999898,0.010590599998977268,None,128.12752000000182,128.12752000000182,128.12752000000182,128.12752000000182,128.12752000000182,128.12752000000182,128.12752000000182,128.12752000000182,,001,P015,2025_Feb_28_1812,CategoryLocalizer,2021.2.3,59.93339003114303,
89.8,90.0,5,0.0,Stimuli\Blank.png,0,0,0,133,133,133,,,,,,,,,,,,,89.81174609999653,0.01174609999652887,None,128.92823300000236,128.92823300000236,128.92823300000236,128.92823300000236,128.92823300000236,128.92823300000236,128.92823300000236,128.92823300000236,,001,P015,2025_Feb_28_1812,CategoryLocalizer,2021.2.3,59.93339003114303,
90.0,90.8,3,0.75,Stimuli\ImageFiles-Set1\Faces\Face_00033.png,0,0,0,134,134,134,,,,,,,,,,,,,90.01142639999671,0.011426399996707914,None,129.14511979999952,129.14511979999952,129.14511979999952,129.14511979999952,129.14511979999952,129.14511979999952,129.14511979999952,129.14511979999952,,001,P015,2025_Feb_28_1812,CategoryLocalizer,2021.2.3,59.93339003114303,
90.8,91.0,5,0.0,Stimuli\Blank.png,0,0,0,135,135,135,,,,,,,,,,,,,90.83123749999868,0.03123749999868153,None,129.9624954000028,129.9624954000028,129.9624954000028,129.9624954000028,129.9624954000028,129.9624954000028,129.9624954000028,129.9624954000028,,001,P015,2025_Feb_28_1812,CategoryLocalizer,2021.2.3,59.93339003114303,
91.0,91.8,3,0.75,Stimuli\ImageFiles-Set1\Faces\Face_00007.png,0,0,0,136,136,136,,,,,,,,,,,,,91.02901209999982,0.02901209999981802,None,130.1460068000015,130.1460068000015,130.1460068000015,130.1460068000015,130.1460068000015,130.1460068000015,130.1460068000015,130.1460068000015,,001,P015,2025_Feb_28_1812,CategoryLocalizer,2021.2.3,59.93339003114303,
91.8,92.0,5,0.0,Stimuli\Blank.png,0,0,0,137,137,137,,,,,,,,,,,,,91.81317339999805,0.01317339999805256,None,130.93000890000258,130.93000890000258,130.93000890000258,130.93000890000258,130.93000890000258,130.93000890000258,130.93000890000258,130.93000890000258,,001,P015,2025_Feb_28_1812,CategoryLocalizer,2021.2.3,59.93339003114303,
92.0,92.8,3,0.75,Stimuli\ImageFiles-Set1\Faces\Face_00014.png,0,0,0,138,138,138,,,,,,,,,,,,,92.01379369999995,0.013793699999951059,None,131.1301863000008,131.1301863000008,131.1301863000008,131.1301863000008,131.1301863000008,131.1301863000008,131.1301863000008,131.1301863000008,,001,P015,2025_Feb_28_1812,CategoryLocalizer,2021.2.3,59.93339003114303,
92.8,93.0,5,0.0,Stimuli\Blank.png,0,0,0,139,139,139,,,,,,,,,,,,,92.81633349999902,0.016333499999021228,None,131.94760060000044,131.94760060000044,131.94760060000044,131.94760060000044,131.94760060000044,131.94760060000044,131.94760060000044,131.94760060000044,,001,P015,2025_Feb_28_1812,CategoryLocalizer,2021.2.3,59.93339003114303,
93.0,93.8,3,0.75,Stimuli\ImageFiles-Set1\Faces\Face_00014.png,1,1,0,140,140,140,,,,,,,,,,,,,93.01648069999646,0.016480699996463954,1,132.14776540000094,132.14776540000094,132.14776540000094,132.14776540000094,132.14776540000094,132.14776540000094,132.14776540000094,132.14776540000094,0.5879581000008329,001,P015,2025_Feb_28_1812,CategoryLocalizer,2021.2.3,59.93339003114303,
93.8,94.0,5,0.0,Stimuli\Blank.png,0,0,0,141,141,141,,,,,,,,,,,,,93.81537049999679,0.015370499996791409,None,132.93178220000118,132.93178220000118,132.93178220000118,132.93178220000118,132.93178220000118,132.93178220000118,132.93178220000118,132.93178220000118,,001,P015,2025_Feb_28_1812,CategoryLocalizer,2021.2.3,59.93339003114303,
94.0,94.8,3,0.75,Stimuli\ImageFiles-Set1\Faces\Face_00018.png,0,0,0,142,142,142,,,,,,,,,,,,,94.01568989999942,0.015689899999415502,None,133.13195090000227,133.13195090000227,133.13195090000227,133.13195090000227,133.13195090000227,133.13195090000227,133.13195090000227,133.13195090000227,,001,P015,2025_Feb_28_1812,CategoryLocalizer,2021.2.3,59.93339003114303,
94.8,95.0,5,0.0,Stimuli\Blank.png,0,0,0,143,143,143,,,,,,,,,,,,,94.80133149999892,0.0013314999989262333,None,133.9326906999995,133.9326906999995,133.9326906999995,133.9326906999995,133.9326906999995,133.9326906999995,133.9326906999995,133.9326906999995,,001,P015,2025_Feb_28_1812,CategoryLocalizer,2021.2.3,59.93339003114303,
95.0,95.8,3,0.75,Stimuli\ImageFiles-Set1\Faces\Face_00025.png,0,0,0,144,144,144,,,,,,,,,,,,,95.01704039999822,0.01704039999822271,None,134.14953530000275,134.14953530000275,134.14953530000275,134.14953530000275,134.14953530000275,134.14953530000275,134.14953530000275,134.14953530000275,,001,P015,2025_Feb_28_1812,CategoryLocalizer,2021.2.3,59.93339003114303,
95.8,96.0,5,0.0,Stimuli\Blank.png,0,0,0,145,145,145,,,,,,,,,,,,,95.81729239999913,0.017292399999135455,None,134.9335568000024,134.9335568000024,134.9335568000024,134.9335568000024,134.9335568000024,134.9335568000024,134.9335568000024,134.9335568000024,,001,P015,2025_Feb_28_1812,CategoryLocalizer,2021.2.3,59.93339003114303,
96.0,96.8,3,0.75,Stimuli\ImageFiles-Set1\Faces\Face_00012.png,0,0,0,146,146,146,,,,,,,,,,,,,96.00144519999958,0.001445199999579927,None,135.13375310000265,135.13375310000265,135.13375310000265,135.13375310000265,135.13375310000265,135.13375310000265,135.13375310000265,135.13375310000265,,001,P015,2025_Feb_28_1812,CategoryLocalizer,2021.2.3,59.93339003114303,
96.8,97.0,5,0.0,Stimuli\Blank.png,0,0,0,147,147,147,,,,,,,,,,,,,96.81751059999806,0.017510599998061593,None,135.93443320000006,135.93443320000006,135.93443320000006,135.93443320000006,135.93443320000006,135.93443320000006,135.93443320000006,135.93443320000006,,001,P015,2025_Feb_28_1812,CategoryLocalizer,2021.2.3,59.93339003114303,
97.0,97.8,3,0.75,Stimuli\ImageFiles-Set1\Faces\Face_00057.png,0,0,0,148,148,148,,,,,,,,,,,,,97.00170539999817,0.001705399998172652,None,136.1346102000025,136.1346102000025,136.1346102000025,136.1346102000025,136.1346102000025,136.1346102000025,136.1346102000025,136.1346102000025,,001,P015,2025_Feb_28_1812,CategoryLocalizer,2021.2.3,59.93339003114303,
97.8,98.0,5,0.0,Stimuli\Blank.png,0,0,0,149,149,149,,,,,,,,,,,,,97.81843539999682,0.01843539999681809,None,136.93532300000152,136.93532300000152,136.93532300000152,136.93532300000152,136.93532300000152,136.93532300000152,136.93532300000152,136.93532300000152,,001,P015,2025_Feb_28_1812,CategoryLocalizer,2021.2.3,59.93339003114303,
98.0,98.8,3,0.75,Stimuli\ImageFiles-Set1\Faces\Face_00020.png,1,1,0,150,150,150,,,,,,,,,,,,,98.00320219999776,0.0032021999977587257,None,137.13550360000227,137.13550360000227,137.13550360000227,137.13550360000227,137.13550360000227,137.13550360000227,137.13550360000227,137.13550360000227,,001,P015,2025_Feb_28_1812,CategoryLocalizer,2021.2.3,59.93339003114303,
98.8,99.0,5,0.0,Stimuli\Blank.png,0,0,0,151,151,151,,,,,,,,,,,,,98.81909529999757,0.019095299997573534,None,137.9362069000017,137.9362069000017,137.9362069000017,137.9362069000017,137.9362069000017,137.9362069000017,137.9362069000017,137.9362069000017,,001,P015,2025_Feb_28_1812,CategoryLocalizer,2021.2.3,59.93339003114303,
99.0,99.8,3,0.75,Stimuli\ImageFiles-Set1\Faces\Face_00035.png,0,0,0,152,152,152,,,,,,,,,,,,,99.00259639999786,0.0025963999978557695,None,138.1196983000009,138.1196983000009,138.1196983000009,138.1196983000009,138.1196983000009,138.1196983000009,138.1196983000009,138.1196983000009,,001,P015,2025_Feb_28_1812,CategoryLocalizer,2021.2.3,59.93339003114303,
99.8,100.0,5,0.0,Stimuli\Blank.png,0,0,0,153,153,153,,,,,,,,,,,,,99.80404679999992,0.00404679999992652,None,138.92041940000126,138.92041940000126,138.92041940000126,138.92041940000126,138.92041940000126,138.92041940000126,138.92041940000126,138.92041940000126,,001,P015,2025_Feb_28_1812,CategoryLocalizer,2021.2.3,59.93339003114303,
100.0,100.8,3,0.75,Stimuli\ImageFiles-Set1\Faces\Face_00035.png,0,0,0,154,154,154,,,,,,,,,,,,,100.00354399999924,0.0035439999992377125,1,139.13728529999935,139.13728529999935,139.13728529999935,139.13728529999935,139.13728529999935,139.13728529999935,139.13728529999935,139.13728529999935,0.5007197000013548,001,P015,2025_Feb_28_1812,CategoryLocalizer,2021.2.3,59.93339003114303,
100.8,101.0,5,0.0,Stimuli\Blank.png,0,0,0,155,155,155,,,,,,,,,,,,,100.82165919999898,0.021659199998978806,None,139.9379783000004,139.9379783000004,139.9379783000004,139.9379783000004,139.9379783000004,139.9379783000004,139.9379783000004,139.9379783000004,,001,P015,2025_Feb_28_1812,CategoryLocalizer,2021.2.3,59.93339003114303,
101.0,101.8,3,0.75,Stimuli\ImageFiles-Set1\Faces\Face_00027.png,0,0,0,156,156,156,,,,,,,,,,,,,101.00693259999753,0.0069325999975262675,None,140.1381586000025,140.1381586000025,140.1381586000025,140.1381586000025,140.1381586000025,140.1381586000025,140.1381586000025,140.1381586000025,,001,P015,2025_Feb_28_1812,CategoryLocalizer,2021.2.3,59.93339003114303,
101.8,102.0,5,0.0,Stimuli\Blank.png,0,0,0,157,157,157,,,,,,,,,,,,,101.82244069999797,0.022440699997972047,None,140.93887040000118,140.93887040000118,140.93887040000118,140.93887040000118,140.93887040000118,140.93887040000118,140.93887040000118,140.93887040000118,,001,P015,2025_Feb_28_1812,CategoryLocalizer,2021.2.3,59.93339003114303,
102.0,102.8,3,0.75,Stimuli\ImageFiles-Set1\Faces\Face_00055.png,0,0,0,158,158,158,,,,,,,,,,,,,102.00594349999665,0.005943499996647006,None,141.13904820000243,141.13904820000243,141.13904820000243,141.13904820000243,141.13904820000243,141.13904820000243,141.13904820000243,141.13904820000243,,001,P015,2025_Feb_28_1812,CategoryLocalizer,2021.2.3,59.93339003114303,
102.8,103.0,5,0.0,Stimuli\Blank.png,0,0,0,159,159,159,,,,,,,,,,,,,102.82305169999745,0.0230516999974526,None,141.93975940000018,141.93975940000018,141.93975940000018,141.93975940000018,141.93975940000018,141.93975940000018,141.93975940000018,141.93975940000018,,001,P015,2025_Feb_28_1812,CategoryLocalizer,2021.2.3,59.93339003114303,
103.0,103.8,3,0.75,Stimuli\ImageFiles-Set1\Faces\Face_00073.png,0,0,0,160,160,160,,,,,,,,,,,,,103.00751129999844,0.007511299998441245,None,142.13993309999933,142.13993309999933,142.13993309999933,142.13993309999933,142.13993309999933,142.13993309999933,142.13993309999933,142.13993309999933,,001,P015,2025_Feb_28_1812,CategoryLocalizer,2021.2.3,59.93339003114303,
103.8,104.0,5,0.0,Stimuli\Blank.png,0,0,0,161,161,161,,,,,,,,,,,,,103.82546509999884,0.025465099998839946,None,142.9414923000004,142.9414923000004,142.9414923000004,142.9414923000004,142.9414923000004,142.9414923000004,142.9414923000004,142.9414923000004,,001,P015,2025_Feb_28_1812,CategoryLocalizer,2021.2.3,59.93339003114303,
104.0,104.8,1,0.75,Stimuli\ImageFiles-Set1\Objects\Object_Recliner_00001.png,0,0,0,162,162,162,,,,,,,,,,,,,104.00753419999819,0.007534199998190161,None,143.12427160000152,143.12427160000152,143.12427160000152,143.12427160000152,143.12427160000152,143.12427160000152,143.12427160000152,143.12427160000152,,001,P015,2025_Feb_28_1812,CategoryLocalizer,2021.2.3,59.93339003114303,
104.8,105.0,5,0.0,Stimuli\Blank.png,0,0,0,163,163,163,,,,,,,,,,,,,104.80917149999732,0.00917149999732203,None,143.92485120000129,143.92485120000129,143.92485120000129,143.92485120000129,143.92485120000129,143.92485120000129,143.92485120000129,143.92485120000129,,001,P015,2025_Feb_28_1812,CategoryLocalizer,2021.2.3,59.93339003114303,
105.0,105.8,1,0.75,Stimuli\ImageFiles-Set1\Objects\Object_Recliner_00001.png,1,1,0,164,164,164,,,,,,,,,,,,,105.00800619999791,0.00800619999790797,1,144.12502460000178,144.12502460000178,144.12502460000178,144.12502460000178,144.12502460000178,144.12502460000178,144.12502460000178,144.12502460000178,0.4977039999976114,001,P015,2025_Feb_28_1812,CategoryLocalizer,2021.2.3,59.93339003114303,
105.8,106.0,5,0.0,Stimuli\Blank.png,0,0,0,165,165,165,,,,,,,,,,,,,105.80883969999923,0.008839699999228401,None,144.92572680000012,144.92572680000012,144.92572680000012,144.92572680000012,144.92572680000012,144.92572680000012,144.92572680000012,144.92572680000012,,001,P015,2025_Feb_28_1812,CategoryLocalizer,2021.2.3,59.93339003114303,
106.0,106.8,1,0.75,Stimuli\ImageFiles-Set1\Objects\Object_Football_00001.png,0,0,0,166,166,166,,,,,,,,,,,,,106.0099558999973,0.009955899997294182,None,145.14258540000083,145.14258540000083,145.14258540000083,145.14258540000083,145.14258540000083,145.14258540000083,145.14258540000083,145.14258540000083,,001,P015,2025_Feb_28_1812,CategoryLocalizer,2021.2.3,59.93339003114303,
106.8,107.0,5,0.0,Stimuli\Blank.png,0,0,0,167,167,167,,,,,,,,,,,,,106.82820489999722,0.028204899997220423,None,145.95998500000132,145.95998500000132,145.95998500000132,145.95998500000132,145.95998500000132,145.95998500000132,145.95998500000132,145.95998500000132,,001,P015,2025_Feb_28_1812,CategoryLocalizer,2021.2.3,59.93339003114303,
107.0,107.8,1,0.75,Stimuli\ImageFiles-Set1\Objects\Object_ShoppingCart_00001.png,0,0,0,168,168,168,,,,,,,,,,,,,107.02808789999835,0.02808789999835426,None,146.16016650000165,146.16016650000165,146.16016650000165,146.16016650000165,146.16016650000165,146.16016650000165,146.16016650000165,146.16016650000165,,001,P015,2025_Feb_28_1812,CategoryLocalizer,2021.2.3,59.93339003114303,
107.8,108.0,5,0.0,Stimuli\Blank.png,0,0,0,169,169,169,,,,,,,,,,,,,107.82901269999638,0.029012699996386004,None,146.9608898000006,146.9608898000006,146.9608898000006,146.9608898000006,146.9608898000006,146.9608898000006,146.9608898000006,146.9608898000006,,001,P015,2025_Feb_28_1812,CategoryLocalizer,2021.2.3,59.93339003114303,
108.0,108.8,1,0.75,Stimuli\ImageFiles-Set1\Objects\Object_Pillow_00001.png,0,0,0,170,170,170,,,,,,,,,,,,,108.02932269999656,0.029322699996555457,None,147.16104760000235,147.16104760000235,147.16104760000235,147.16104760000235,147.16104760000235,147.16104760000235,147.16104760000235,147.16104760000235,,001,P015,2025_Feb_28_1812,CategoryLocalizer,2021.2.3,59.93339003114303,
108.8,109.0,5,0.0,Stimuli\Blank.png,0,0,0,171,171,171,,,,,,,,,,,,,108.82938469999863,0.029384699998630026,None,147.94508510000014,147.94508510000014,147.94508510000014,147.94508510000014,147.94508510000014,147.94508510000014,147.94508510000014,147.94508510000014,,001,P015,2025_Feb_28_1812,CategoryLocalizer,2021.2.3,59.93339003114303,
109.0,109.8,1,0.75,Stimuli\ImageFiles-Set1\Objects\Object_Book_00001.png,0,0,0,172,172,172,,,,,,,,,,,,,109.011587099998,0.01158709999799612,None,148.12862660000246,148.12862660000246,148.12862660000246,148.12862660000246,148.12862660000246,148.12862660000246,148.12862660000246,148.12862660000246,,001,P015,2025_Feb_28_1812,CategoryLocalizer,2021.2.3,59.93339003114303,
109.8,110.0,5,0.0,Stimuli\Blank.png,0,0,0,173,173,173,,,,,,,,,,,,,109.81368939999811,0.013689399998114027,None,148.92929260000165,148.92929260000165,148.92929260000165,148.92929260000165,148.92929260000165,148.92929260000165,148.92929260000165,148.92929260000165,,001,P015,2025_Feb_28_1812,CategoryLocalizer,2021.2.3,59.93339003114303,
110.0,110.8,1,0.75,Stimuli\ImageFiles-Set1\Objects\Object_Canoe_00001.png,0,0,0,174,174,174,,,,,,,,,,,,,110.01321929999904,0.013219299999036593,None,149.14613200000167,149.14613200000167,149.14613200000167,149.14613200000167,149.14613200000167,149.14613200000167,149.14613200000167,149.14613200000167,,001,P015,2025_Feb_28_1812,CategoryLocalizer,2021.2.3,59.93339003114303,
110.8,111.0,5,0.0,Stimuli\Blank.png,0,0,0,175,175,175,,,,,,,,,,,,,110.82981639999707,0.029816399997073972,None,149.9468126000029,149.9468126000029,149.9468126000029,149.9468126000029,149.9468126000029,149.9468126000029,149.9468126000029,149.9468126000029,,001,P015,2025_Feb_28_1812,CategoryLocalizer,2021.2.3,59.93339003114303,
111.0,111.8,1,0.75,Stimuli\ImageFiles-Set1\Objects\Object_Baseball_00001.png,0,0,0,176,176,176,,,,,,,,,,,,,111.01389719999861,0.013897199998609722,None,150.14702680000119,150.14702680000119,150.14702680000119,150.14702680000119,150.14702680000119,150.14702680000119,150.14702680000119,150.14702680000119,,001,P015,2025_Feb_28_1812,CategoryLocalizer,2021.2.3,59.93339003114303,
111.8,112.0,5,0.0,Stimuli\Blank.png,0,0,0,177,177,177,,,,,,,,,,,,,111.83079599999837,0.030795999998375123,None,150.94773160000113,150.94773160000113,150.94773160000113,150.94773160000113,150.94773160000113,150.94773160000113,150.94773160000113,150.94773160000113,,001,P015,2025_Feb_28_1812,CategoryLocalizer,2021.2.3,59.93339003114303,
112.0,112.8,1,0.75,Stimuli\ImageFiles-Set1\Objects\Object_Card_00001.png,0,0,0,178,178,178,,,,,,,,,,,,,112.01484889999847,0.014848899998469278,None,151.14791230000264,151.14791230000264,151.14791230000264,151.14791230000264,151.14791230000264,151.14791230000264,151.14791230000264,151.14791230000264,,001,P015,2025_Feb_28_1812,CategoryLocalizer,2021.2.3,59.93339003114303,
112.8,113.0,5,0.0,Stimuli\Blank.png,0,0,0,179,179,179,,,,,,,,,,,,,112.83149229999981,0.031492299999811735,None,151.9486246000015,151.9486246000015,151.9486246000015,151.9486246000015,151.9486246000015,151.9486246000015,151.9486246000015,151.9486246000015,,001,P015,2025_Feb_28_1812,CategoryLocalizer,2021.2.3,59.93339003114303,
113.0,113.8,1,0.75,Stimuli\ImageFiles-Set1\Objects\Object_Boat_00001.png,0,0,0,180,180,180,,,,,,,,,,,,,113.01563739999983,0.01563739999983227,None,152.13209930000085,152.13209930000085,152.13209930000085,152.13209930000085,152.13209930000085,152.13209930000085,152.13209930000085,152.13209930000085,,001,P015,2025_Feb_28_1812,CategoryLocalizer,2021.2.3,59.93339003114303,
113.8,114.0,5,0.0,Stimuli\Blank.png,0,0,0,181,181,181,,,,,,,,,,,,,113.79922329999681,-0.0007767000031861926,None,152.9161344000022,152.9161344000022,152.9161344000022,152.9161344000022,152.9161344000022,152.9161344000022,152.9161344000022,152.9161344000022,,001,P015,2025_Feb_28_1812,CategoryLocalizer,2021.2.3,59.93339003114303,
114.0,114.8,1,0.75,Stimuli\ImageFiles-Set1\Objects\Object_Pencil_00001.png,0,0,0,182,182,182,,,,,,,,,,,,,114.00017869999647,0.00017869999646791257,None,153.13299280000138,153.13299280000138,153.13299280000138,153.13299280000138,153.13299280000138,153.13299280000138,153.13299280000138,153.13299280000138,,001,P015,2025_Feb_28_1812,CategoryLocalizer,2021.2.3,59.93339003114303,
114.8,115.0,5,0.0,Stimuli\Blank.png,0,0,0,183,183,183,,,,,,,,,,,,,114.81689449999976,0.01689449999976489,None,153.93370920000234,153.93370920000234,153.93370920000234,153.93370920000234,153.93370920000234,153.93370920000234,153.93370920000234,153.93370920000234,,001,P015,2025_Feb_28_1812,CategoryLocalizer,2021.2.3,59.93339003114303,
115.0,115.8,1,0.75,Stimuli\ImageFiles-Set1\Objects\Object_Sock_00001.png,0,0,0,184,184,184,,,,,,,,,,,,,115.00111329999709,0.0011132999970868696,None,154.1171918,154.1171918,154.1171918,154.1171918,154.1171918,154.1171918,154.1171918,154.1171918,,001,P015,2025_Feb_28_1812,CategoryLocalizer,2021.2.3,59.93339003114303,
115.8,116.0,5,0.0,Stimuli\Blank.png,0,0,0,185,185,185,,,,,,,,,,,,,115.80167909999727,0.0016790999972755571,None,154.91791210000156,154.91791210000156,154.91791210000156,154.91791210000156,154.91791210000156,154.91791210000156,154.91791210000156,154.91791210000156,,001,P015,2025_Feb_28_1812,CategoryLocalizer,2021.2.3,59.93339003114303,
116.0,116.8,1,0.75,Stimuli\ImageFiles-Set1\Objects\Object_Matches_00001.png,1,1,0,186,186,186,,,,,,,,,,,,,116.00226359999942,0.0022635999994236045,None,155.13476500000252,155.13476500000252,155.13476500000252,155.13476500000252,155.13476500000252,155.13476500000252,155.13476500000252,155.13476500000252,,001,P015,2025_Feb_28_1812,CategoryLocalizer,2021.2.3,59.93339003114303,
116.8,117.0,5,0.0,Stimuli\Blank.png,0,0,0,187,187,187,,,,,,,,,,,,,116.81984699999884,0.019846999998847537,None,155.93547810000018,155.93547810000018,155.93547810000018,155.93547810000018,155.93547810000018,155.93547810000018,155.93547810000018,155.93547810000018,,001,P015,2025_Feb_28_1812,CategoryLocalizer,2021.2.3,59.93339003114303,
117.0,117.8,1,0.75,Stimuli\ImageFiles-Set1\Objects\Object_Bed_00001.png,0,0,0,188,188,188,,,,,,,,,,,,,117.00495529999898,0.0049552999989828095,None,156.13565910000034,156.13565910000034,156.13565910000034,156.13565910000034,156.13565910000034,156.13565910000034,156.13565910000034,156.13565910000034,,001,P015,2025_Feb_28_1812,CategoryLocalizer,2021.2.3,59.93339003114303,
117.8,118.0,5,0.0,Stimuli\Blank.png,0,0,0,189,189,189,,,,,,,,,,,,,117.8200786999987,0.02007869999870593,None,156.93636490000063,156.93636490000063,156.93636490000063,156.93636490000063,156.93636490000063,156.93636490000063,156.93636490000063,156.93636490000063,,001,P015,2025_Feb_28_1812,CategoryLocalizer,2021.2.3,59.93339003114303,
118.0,118.8,1,0.75,Stimuli\ImageFiles-Set1\Objects\Object_Bed_00001.png,0,0,0,190,190,190,,,,,,,,,,,,,118.00498289999814,0.004982899998140056,1,157.1365506000002,157.1365506000002,157.1365506000002,157.1365506000002,157.1365506000002,157.1365506000002,157.1365506000002,157.1365506000002,0.46021209999889834,001,P015,2025_Feb_28_1812,CategoryLocalizer,2021.2.3,59.93339003114303,
118.8,119.0,5,0.0,Stimuli\Blank.png,0,0,0,191,191,191,,,,,,,,,,,,,118.82087799999863,0.020877999998631935,None,157.93725650000124,157.93725650000124,157.93725650000124,157.93725650000124,157.93725650000124,157.93725650000124,157.93725650000124,157.93725650000124,,001,P015,2025_Feb_28_1812,CategoryLocalizer,2021.2.3,59.93339003114303,
119.0,119.8,1,0.75,Stimuli\ImageFiles-Set1\Objects\Object_Stroller_00001.png,0,0,0,192,192,192,,,,,,,,,,,,,119.00540719999844,0.005407199998444412,None,158.13743420000174,158.13743420000174,158.13743420000174,158.13743420000174,158.13743420000174,158.13743420000174,158.13743420000174,158.13743420000174,,001,P015,2025_Feb_28_1812,CategoryLocalizer,2021.2.3,59.93339003114303,
119.8,120.0,5,0.0,Stimuli\Blank.png,0,0,0,193,193,193,,,,,,,,,,,,,119.82169619999695,0.021696199996952714,None,158.93812850000177,158.93812850000177,158.93812850000177,158.93812850000177,158.93812850000177,158.93812850000177,158.93812850000177,158.93812850000177,,001,P015,2025_Feb_28_1812,CategoryLocalizer,2021.2.3,59.93339003114303,
120.0,120.8,4,0.75,Stimuli\ImageFiles-Set1\Scenes\Scenes_002.png,0,0,0,194,194,194,,,,,,,,,,,,,120.00492649999796,0.004926499997964129,None,159.13830510000116,159.13830510000116,159.13830510000116,159.13830510000116,159.13830510000116,159.13830510000116,159.13830510000116,159.13830510000116,,001,P015,2025_Feb_28_1812,CategoryLocalizer,2021.2.3,59.93339003114303,
120.8,121.0,5,0.0,Stimuli\Blank.png,0,0,0,195,195,195,,,,,,,,,,,,,120.821904299999,0.021904299999008003,None,159.93901800000094,159.93901800000094,159.93901800000094,159.93901800000094,159.93901800000094,159.93901800000094,159.93901800000094,159.93901800000094,,001,P015,2025_Feb_28_1812,CategoryLocalizer,2021.2.3,59.93339003114303,
121.0,121.8,4,0.75,Stimuli\ImageFiles-Set1\Scenes\Scenes_017.png,0,0,0,196,196,196,,,,,,,,,,,,,121.00575999999637,0.005759999996371334,None,160.13919499999975,160.13919499999975,160.13919499999975,160.13919499999975,160.13919499999975,160.13919499999975,160.13919499999975,160.13919499999975,,001,P015,2025_Feb_28_1812,CategoryLocalizer,2021.2.3,59.93339003114303,
121.8,122.0,5,0.0,Stimuli\Blank.png,0,0,0,197,197,197,,,,,,,,,,,,,121.8235042999986,0.02350429999860637,None,160.93991930000266,160.93991930000266,160.93991930000266,160.93991930000266,160.93991930000266,160.93991930000266,160.93991930000266,160.93991930000266,,001,P015,2025_Feb_28_1812,CategoryLocalizer,2021.2.3,59.93339003114303,
122.0,122.8,4,0.75,Stimuli\ImageFiles-Set1\Scenes\Scenes_017.png,1,1,0,198,198,198,,,,,,,,,,,,,122.00645719999739,0.0064571999973850325,1,161.12367730000187,161.12367730000187,161.12367730000187,161.12367730000187,161.12367730000187,161.12367730000187,161.12367730000187,161.12367730000187,0.570149200000742,001,P015,2025_Feb_28_1812,CategoryLocalizer,2021.2.3,59.93339003114303,
122.8,123.0,5,0.0,Stimuli\Blank.png,0,0,0,199,199,199,,,,,,,,,,,,,122.80919869999707,0.009198699997071458,None,161.94079730000158,161.94079730000158,161.94079730000158,161.94079730000158,161.94079730000158,161.94079730000158,161.94079730000158,161.94079730000158,,001,P015,2025_Feb_28_1812,CategoryLocalizer,2021.2.3,59.93339003114303,
123.0,123.8,4,0.75,Stimuli\ImageFiles-Set1\Scenes\Scenes_014.png,0,0,0,200,200,200,,,,,,,,,,,,,123.02499549999993,0.02499549999993178,None,162.15764409999974,162.15764409999974,162.15764409999974,162.15764409999974,162.15764409999974,162.15764409999974,162.15764409999974,162.15764409999974,,001,P015,2025_Feb_28_1812,CategoryLocalizer,2021.2.3,59.93339003114303,
123.8,124.0,5,0.0,Stimuli\Blank.png,0,0,0,201,201,201,,,,,,,,,,,,,123.82520859999931,0.025208599999317016,None,162.9416784999994,162.9416784999994,162.9416784999994,162.9416784999994,162.9416784999994,162.9416784999994,162.9416784999994,162.9416784999994,,001,P015,2025_Feb_28_1812,CategoryLocalizer,2021.2.3,59.93339003114303,
124.0,124.8,4,0.75,Stimuli\ImageFiles-Set1\Scenes\Scenes_057.png,0,0,0,202,202,202,,,,,,,,,,,,,124.0080876999964,0.008087699996394804,None,163.1251641000017,163.1251641000017,163.1251641000017,163.1251641000017,163.1251641000017,163.1251641000017,163.1251641000017,163.1251641000017,,001,P015,2025_Feb_28_1812,CategoryLocalizer,2021.2.3,59.93339003114303,
124.8,125.0,5,0.0,Stimuli\Blank.png,0,0,0,203,203,203,,,,,,,,,,,,,124.80981339999926,0.009813399999259786,None,163.92588840000099,163.92588840000099,163.92588840000099,163.92588840000099,163.92588840000099,163.92588840000099,163.92588840000099,163.92588840000099,,001,P015,2025_Feb_28_1812,CategoryLocalizer,2021.2.3,59.93339003114303,
125.0,125.8,4,0.75,Stimuli\ImageFiles-Set1\Scenes\Scenes_052.png,0,0,0,204,204,204,,,,,,,,,,,,,125.01006049999705,0.01006049999705283,None,164.1427395000028,164.1427395000028,164.1427395000028,164.1427395000028,164.1427395000028,164.1427395000028,164.1427395000028,164.1427395000028,,001,P015,2025_Feb_28_1812,CategoryLocalizer,2021.2.3,59.93339003114303,
125.8,126.0,5,0.0,Stimuli\Blank.png,0,0,0,205,205,205,,,,,,,,,,,,,125.82759519999672,0.027595199996724773,None,164.9434493000008,164.9434493000008,164.9434493000008,164.9434493000008,164.9434493000008,164.9434493000008,164.9434493000008,164.9434493000008,,001,P015,2025_Feb_28_1812,CategoryLocalizer,2021.2.3,59.93339003114303,
126.0,126.8,4,0.75,Stimuli\ImageFiles-Set1\Scenes\Scenes_055.png,0,0,0,206,206,206,,,,,,,,,,,,,126.01081239999985,0.010812399999849731,None,165.12694650000049,165.12694650000049,165.12694650000049,165.12694650000049,165.12694650000049,165.12694650000049,165.12694650000049,165.12694650000049,,001,P015,2025_Feb_28_1812,CategoryLocalizer,2021.2.3,59.93339003114303,
126.8,127.0,5,0.0,Stimuli\Blank.png,0,0,0,207,207,207,,,,,,,,,,,,,126.81345449999935,0.013454499999355107,None,165.9443425999998,165.9443425999998,165.9443425999998,165.9443425999998,165.9443425999998,165.9443425999998,165.9443425999998,165.9443425999998,,001,P015,2025_Feb_28_1812,CategoryLocalizer,2021.2.3,59.93339003114303,
127.0,127.8,4,0.75,Stimuli\ImageFiles-Set1\Scenes\Scenes_060.png,0,0,0,208,208,208,,,,,,,,,,,,,127.02862269999969,0.02862269999968703,None,166.1611883000005,166.1611883000005,166.1611883000005,166.1611883000005,166.1611883000005,166.1611883000005,166.1611883000005,166.1611883000005,,001,P015,2025_Feb_28_1812,CategoryLocalizer,2021.2.3,59.93339003114303,
127.8,128.0,5,0.0,Stimuli\Blank.png,0,0,0,209,209,209,,,,,,,,,,,,,127.82894329999908,0.02894329999908507,None,166.94521710000117,166.94521710000117,166.94521710000117,166.94521710000117,166.94521710000117,166.94521710000117,166.94521710000117,166.94521710000117,,001,P015,2025_Feb_28_1812,CategoryLocalizer,2021.2.3,59.93339003114303,
128.0,128.8,4,0.75,Stimuli\ImageFiles-Set1\Scenes\Scenes_033.png,0,0,0,210,210,210,,,,,,,,,,,,,128.0127582999994,0.012758299999404699,None,167.14540280000074,167.14540280000074,167.14540280000074,167.14540280000074,167.14540280000074,167.14540280000074,167.14540280000074,167.14540280000074,,001,P015,2025_Feb_28_1812,CategoryLocalizer,2021.2.3,59.93339003114303,
128.8,129.0,5,0.0,Stimuli\Blank.png,0,0,0,211,211,211,,,,,,,,,,,,,128.82943009999872,0.029430099998705828,None,167.94620550000036,167.94620550000036,167.94620550000036,167.94620550000036,167.94620550000036,167.94620550000036,167.94620550000036,167.94620550000036,,001,P015,2025_Feb_28_1812,CategoryLocalizer,2021.2.3,59.93339003114303,
129.0,129.8,4,0.75,Stimuli\ImageFiles-Set1\Scenes\Scenes_025.png,0,0,0,212,212,212,,,,,,,,,,,,,129.01334909999787,0.013349099997867597,None,168.14627870000186,168.14627870000186,168.14627870000186,168.14627870000186,168.14627870000186,168.14627870000186,168.14627870000186,168.14627870000186,,001,P015,2025_Feb_28_1812,CategoryLocalizer,2021.2.3,59.93339003114303,
129.8,130.0,5,0.0,Stimuli\Blank.png,0,0,0,213,213,213,,,,,,,,,,,,,129.83062489999793,0.03062489999791751,None,168.94701010000063,168.94701010000063,168.94701010000063,168.94701010000063,168.94701010000063,168.94701010000063,168.94701010000063,168.94701010000063,,001,P015,2025_Feb_28_1812,CategoryLocalizer,2021.2.3,59.93339003114303,
130.0,130.8,4,0.75,Stimuli\ImageFiles-Set1\Scenes\Scenes_018.png,0,0,0,214,214,214,,,,,,,,,,,,,130.01425569999992,0.01425569999992149,None,169.14716849999968,169.14716849999968,169.14716849999968,169.14716849999968,169.14716849999968,169.14716849999968,169.14716849999968,169.14716849999968,,001,P015,2025_Feb_28_1812,CategoryLocalizer,2021.2.3,59.93339003114303,
130.8,131.0,5,0.0,Stimuli\Blank.png,0,0,0,215,215,215,,,,,,,,,,,,,130.8315670999982,0.031567099998198955,None,169.9478820000004,169.9478820000004,169.9478820000004,169.9478820000004,169.9478820000004,169.9478820000004,169.9478820000004,169.9478820000004,,001,P015,2025_Feb_28_1812,CategoryLocalizer,2021.2.3,59.93339003114303,
131.0,131.8,4,0.75,Stimuli\ImageFiles-Set1\Scenes\Scenes_006.png,0,0,0,216,216,216,,,,,,,,,,,,,131.0156031999977,0.01560319999771309,None,170.14804880000156,170.14804880000156,170.14804880000156,170.14804880000156,170.14804880000156,170.14804880000156,170.14804880000156,170.14804880000156,,001,P015,2025_Feb_28_1812,CategoryLocalizer,2021.2.3,59.93339003114303,
131.8,132.0,5,0.0,Stimuli\Blank.png,0,0,0,217,217,217,,,,,,,,,,,,,131.8169734999974,0.016973499997391173,None,170.9487719000026,170.9487719000026,170.9487719000026,170.9487719000026,170.9487719000026,170.9487719000026,170.9487719000026,170.9487719000026,,001,P015,2025_Feb_28_1812,CategoryLocalizer,2021.2.3,59.93339003114303,
132.0,132.8,4,0.75,Stimuli\ImageFiles-Set1\Scenes\Scenes_046.png,0,0,0,218,218,218,,,,,,,,,,,,,132.01578369999697,0.015783699996973155,None,171.1322618000013,171.1322618000013,171.1322618000013,171.1322618000013,171.1322618000013,171.1322618000013,171.1322618000013,171.1322618000013,,001,P015,2025_Feb_28_1812,CategoryLocalizer,2021.2.3,59.93339003114303,
132.8,133.0,5,0.0,Stimuli\Blank.png,0,0,0,219,219,219,,,,,,,,,,,,,132.7991716999968,-0.0008283000032065502,None,171.91629470000044,171.91629470000044,171.91629470000044,171.91629470000044,171.91629470000044,171.91629470000044,171.91629470000044,171.91629470000044,,001,P015,2025_Feb_28_1812,CategoryLocalizer,2021.2.3,59.93339003114303,
133.0,133.8,4,0.75,Stimuli\ImageFiles-Set1\Scenes\Scenes_044.png,0,0,0,220,220,220,,,,,,,,,,,,,132.99940459999925,-0.0005954000007477589,None,172.11646130000008,172.11646130000008,172.11646130000008,172.11646130000008,172.11646130000008,172.11646130000008,172.11646130000008,172.11646130000008,,001,P015,2025_Feb_28_1812,CategoryLocalizer,2021.2.3,59.93339003114303,
133.8,134.0,5,0.0,Stimuli\Blank.png,0,0,0,221,221,221,,,,,,,,,,,,,133.80216779999682,0.0021677999968119366,None,172.9338936000022,172.9338936000022,172.9338936000022,172.9338936000022,172.9338936000022,172.9338936000022,172.9338936000022,172.9338936000022,,001,P015,2025_Feb_28_1812,CategoryLocalizer,2021.2.3,59.93339003114303,
134.0,134.8,4,0.75,Stimuli\ImageFiles-Set1\Scenes\Scenes_015.png,0,0,0,222,222,222,,,,,,,,,,,,,134.01802229999885,0.018022299998847302,None,173.15071380000154,173.15071380000154,173.15071380000154,173.15071380000154,173.15071380000154,173.15071380000154,173.15071380000154,173.15071380000154,,001,P015,2025_Feb_28_1812,CategoryLocalizer,2021.2.3,59.93339003114303,
134.8,135.0,5,0.0,Stimuli\Blank.png,0,0,0,223,223,223,,,,,,,,,,,,,134.818391599998,0.01839159999798312,None,173.9347357000006,173.9347357000006,173.9347357000006,173.9347357000006,173.9347357000006,173.9347357000006,173.9347357000006,173.9347357000006,,001,P015,2025_Feb_28_1812,CategoryLocalizer,2021.2.3,59.93339003114303,
135.0,135.8,4,0.75,Stimuli\ImageFiles-Set1\Scenes\Scenes_028.png,0,0,0,224,224,224,,,,,,,,,,,,,135.00259789999836,0.002597899998363573,None,174.13491860000067,174.13491860000067,174.13491860000067,174.13491860000067,174.13491860000067,174.13491860000067,174.13491860000067,174.13491860000067,,001,P015,2025_Feb_28_1812,CategoryLocalizer,2021.2.3,59.93339003114303,
135.8,136.0,5,0.0,Stimuli\Blank.png,0,0,0,225,225,225,,,,,,,,,,,,,135.8186429999987,0.018642999998689902,None,174.93562700000257,174.93562700000257,174.93562700000257,174.93562700000257,174.93562700000257,174.93562700000257,174.93562700000257,174.93562700000257,,001,P015,2025_Feb_28_1812,CategoryLocalizer,2021.2.3,59.93339003114303,
136.0,136.8,2,0.75,Stimuli\ImageFiles-Set1\Bodies\Bodies_Punching_00003.png,0,0,0,226,226,226,,,,,,,,,,,,,136.0032024999964,0.003202499996405095,None,175.1358336000012,175.1358336000012,175.1358336000012,175.1358336000012,175.1358336000012,175.1358336000012,175.1358336000012,175.1358336000012,,001,P015,2025_Feb_28_1812,CategoryLocalizer,2021.2.3,59.93339003114303,
136.8,137.0,5,0.0,Stimuli\Blank.png,0,0,0,227,227,227,,,,,,,,,,,,,136.81940649999888,0.019406499998865456,None,175.93651669999963,175.93651669999963,175.93651669999963,175.93651669999963,175.93651669999963,175.93651669999963,175.93651669999963,175.93651669999963,,001,P015,2025_Feb_28_1812,CategoryLocalizer,2021.2.3,59.93339003114303,
137.0,137.8,2,0.75,Stimuli\ImageFiles-Set1\Bodies\Bodies_Punching_00003.png,1,1,0,228,228,228,,,,,,,,,,,,,137.0053960999976,0.005396099997597048,1,176.1366932000019,176.1366932000019,176.1366932000019,176.1366932000019,176.1366932000019,176.1366932000019,176.1366932000019,176.1366932000019,0.5702517999998236,001,P015,2025_Feb_28_1812,CategoryLocalizer,2021.2.3,59.93339003114303,
137.8,138.0,5,0.0,Stimuli\Blank.png,0,0,0,229,229,229,,,,,,,,,,,,,137.82030529999975,0.02030529999973396,None,176.93739819999973,176.93739819999973,176.93739819999973,176.93739819999973,176.93739819999973,176.93739819999973,176.93739819999973,176.93739819999973,,001,P015,2025_Feb_28_1812,CategoryLocalizer,2021.2.3,59.93339003114303,
138.0,138.8,2,0.75,Stimuli\ImageFiles-Set1\Bodies\Bodies_Waving_00005.png,0,0,0,230,230,230,,,,,,,,,,,,,138.0038096999997,0.003809699999692384,None,177.1208912000002,177.1208912000002,177.1208912000002,177.1208912000002,177.1208912000002,177.1208912000002,177.1208912000002,177.1208912000002,,001,P015,2025_Feb_28_1812,CategoryLocalizer,2021.2.3,59.93339003114303,
138.8,139.0,5,0.0,Stimuli\Blank.png,0,0,0,231,231,231,,,,,,,,,,,,,138.8045975999994,0.004597599999385693,None,177.9216073000025,177.9216073000025,177.9216073000025,177.9216073000025,177.9216073000025,177.9216073000025,177.9216073000025,177.9216073000025,,001,P015,2025_Feb_28_1812,CategoryLocalizer,2021.2.3,59.93339003114303,
139.0,139.8,2,0.75,Stimuli\ImageFiles-Set1\Bodies\Bodies_Hanging_00006.png,0,0,0,232,232,232,,,,,,,,,,,,,139.00471059999836,0.004710599998361431,None,178.1384571000017,178.1384571000017,178.1384571000017,178.1384571000017,178.1384571000017,178.1384571000017,178.1384571000017,178.1384571000017,,001,P015,2025_Feb_28_1812,CategoryLocalizer,2021.2.3,59.93339003114303,
139.8,140.0,5,0.0,Stimuli\Blank.png,0,0,0,233,233,233,,,,,,,,,,,,,139.8235732999965,0.023573299996485275,None,178.95587060000253,178.95587060000253,178.95587060000253,178.95587060000253,178.95587060000253,178.95587060000253,178.95587060000253,178.95587060000253,,001,P015,2025_Feb_28_1812,CategoryLocalizer,2021.2.3,59.93339003114303,
140.0,140.8,2,0.75,Stimuli\ImageFiles-Set1\Bodies\Bodies_SittingChair_00005.png,0,0,0,234,234,234,,,,,,,,,,,,,140.02324119999685,0.023241199996846262,None,179.13935280000078,179.13935280000078,179.13935280000078,179.13935280000078,179.13935280000078,179.13935280000078,179.13935280000078,179.13935280000078,,001,P015,2025_Feb_28_1812,CategoryLocalizer,2021.2.3,59.93339003114303,
140.8,141.0,5,0.0,Stimuli\Blank.png,0,0,0,235,235,235,,,,,,,,,,,,,140.80825169999662,0.008251699996606021,None,179.94005749999997,179.94005749999997,179.94005749999997,179.94005749999997,179.94005749999997,179.94005749999997,179.94005749999997,179.94005749999997,,001,P015,2025_Feb_28_1812,CategoryLocalizer,2021.2.3,59.93339003114303,
141.0,141.8,2,0.75,Stimuli\ImageFiles-Set1\Bodies\Bodies_PushUp_00002.png,0,0,0,236,236,236,,,,,,,,,,,,,141.02337169999737,0.023371699997369433,None,180.14021820000198,180.14021820000198,180.14021820000198,180.14021820000198,180.14021820000198,180.14021820000198,180.14021820000198,180.14021820000198,,001,P015,2025_Feb_28_1812,CategoryLocalizer,2021.2.3,59.93339003114303,
141.8,142.0,5,0.0,Stimuli\Blank.png,0,0,0,237,237,237,,,,,,,,,,,,,141.8087925999971,0.008792599997093475,None,180.92426700000215,180.92426700000215,180.92426700000215,180.92426700000215,180.92426700000215,180.92426700000215,180.92426700000215,180.92426700000215,,001,P015,2025_Feb_28_1812,CategoryLocalizer,2021.2.3,59.93339003114303,
142.0,142.8,2,0.75,Stimuli\ImageFiles-Set1\Bodies\Bodies_Kneeling_00007.png,0,0,0,238,238,238,,,,,,,,,,,,,142.00791769999705,0.007917699997051386,None,181.1244442999996,181.1244442999996,181.1244442999996,181.1244442999996,181.1244442999996,181.1244442999996,181.1244442999996,181.1244442999996,,001,P015,2025_Feb_28_1812,CategoryLocalizer,2021.2.3,59.93339003114303,
142.8,143.0,5,0.0,Stimuli\Blank.png,0,0,0,239,239,239,,,,,,,,,,,,,142.80892919999678,0.008929199996771331,None,181.9251471000025,181.9251471000025,181.9251471000025,181.9251471000025,181.9251471000025,181.9251471000025,181.9251471000025,181.9251471000025,,001,P015,2025_Feb_28_1812,CategoryLocalizer,2021.2.3,59.93339003114303,
143.0,143.8,2,0.75,Stimuli\ImageFiles-Set1\Bodies\Bodies_DownwardDog_00007.png,0,0,0,240,240,240,,,,,,,,,,,,,143.00894369999878,0.008943699998781085,None,182.1253254000003,182.1253254000003,182.1253254000003,182.1253254000003,182.1253254000003,182.1253254000003,182.1253254000003,182.1253254000003,,001,P015,2025_Feb_28_1812,CategoryLocalizer,2021.2.3,59.93339003114303,
143.8,144.0,5,0.0,Stimuli\Blank.png,0,0,0,241,241,241,,,,,,,,,,,,,143.80958969999847,0.00958969999845749,None,182.92603210000016,182.92603210000016,182.92603210000016,182.92603210000016,182.92603210000016,182.92603210000016,182.92603210000016,182.92603210000016,,001,P015,2025_Feb_28_1812,CategoryLocalizer,2021.2.3,59.93339003114303,
144.0,144.8,2,0.75,Stimuli\ImageFiles-Set1\Bodies\Bodies_Hanging_00002.png,0,0,0,242,242,242,,,,,,,,,,,,,144.00916379999762,0.009163799997622846,None,183.1262225999999,183.1262225999999,183.1262225999999,183.1262225999999,183.1262225999999,183.1262225999999,183.1262225999999,183.1262225999999,,001,P015,2025_Feb_28_1812,CategoryLocalizer,2021.2.3,59.93339003114303,
144.8,145.0,5,0.0,Stimuli\Blank.png,0,0,0,243,243,243,,,,,,,,,,,,,144.81194479999976,0.011944799999753286,None,183.94360790000064,183.94360790000064,183.94360790000064,183.94360790000064,183.94360790000064,183.94360790000064,183.94360790000064,183.94360790000064,,001,P015,2025_Feb_28_1812,CategoryLocalizer,2021.2.3,59.93339003114303,
145.0,145.8,2,0.75,Stimuli\ImageFiles-Set1\Bodies\Bodies_Kicking_00007.png,1,1,0,244,244,244,,,,,,,,,,,,,145.0273675999997,0.027367599999706727,None,184.16049489999932,184.16049489999932,184.16049489999932,184.16049489999932,184.16049489999932,184.16049489999932,184.16049489999932,184.16049489999932,,001,P015,2025_Feb_28_1812,CategoryLocalizer,2021.2.3,59.93339003114303,
145.8,146.0,5,0.0,Stimuli\Blank.png,0,0,0,245,245,245,,,,,,,,,,,,,145.82804379999652,0.028043799996510188,None,184.94448750000083,184.94448750000083,184.94448750000083,184.94448750000083,184.94448750000083,184.94448750000083,184.94448750000083,184.94448750000083,,001,P015,2025_Feb_28_1812,CategoryLocalizer,2021.2.3,59.93339003114303,
146.0,146.8,2,0.75,Stimuli\ImageFiles-Set1\Bodies\Bodies_SittingFloor_00005.png,0,0,0,246,246,246,,,,,,,,,,,,,146.01117129999693,0.011171299996931339,None,185.12797710000086,185.12797710000086,185.12797710000086,185.12797710000086,185.12797710000086,185.12797710000086,185.12797710000086,185.12797710000086,,001,P015,2025_Feb_28_1812,CategoryLocalizer,2021.2.3,59.93339003114303,
146.8,147.0,5,0.0,Stimuli\Blank.png,0,0,0,247,247,247,,,,,,,,,,,,,146.81253549999747,0.012535499997454735,None,185.9286893999997,185.9286893999997,185.9286893999997,185.9286893999997,185.9286893999997,185.9286893999997,185.9286893999997,185.9286893999997,,001,P015,2025_Feb_28_1812,CategoryLocalizer,2021.2.3,59.93339003114303,
147.0,147.8,2,0.75,Stimuli\ImageFiles-Set1\Bodies\Bodies_SittingFloor_00005.png,0,0,0,248,248,248,,,,,,,,,,,,,147.01227449999715,0.012274499997147359,1,186.12886060000164,186.12886060000164,186.12886060000164,186.12886060000164,186.12886060000164,186.12886060000164,186.12886060000164,186.12886060000164,0.5019912000025215,001,P015,2025_Feb_28_1812,CategoryLocalizer,2021.2.3,59.93339003114303,
147.8,148.0,5,0.0,Stimuli\Blank.png,0,0,0,249,249,249,,,,,,,,,,,,,147.81257549999646,0.01257549999644425,None,186.9295759000015,186.9295759000015,186.9295759000015,186.9295759000015,186.9295759000015,186.9295759000015,186.9295759000015,186.9295759000015,,001,P015,2025_Feb_28_1812,CategoryLocalizer,2021.2.3,59.93339003114303,
148.0,148.8,2,0.75,Stimuli\ImageFiles-Set1\Bodies\Bodies_Falling_00006.png,0,0,0,250,250,250,,,,,,,,,,,,,148.0129418999968,0.01294189999680384,None,187.12974659999963,187.12974659999963,187.12974659999963,187.12974659999963,187.12974659999963,187.12974659999963,187.12974659999963,187.12974659999963,,001,P015,2025_Feb_28_1812,CategoryLocalizer,2021.2.3,59.93339003114303,
148.8,149.0,5,0.0,Stimuli\Blank.png,0,0,0,251,251,251,,,,,,,,,,,,,148.81343749999724,0.013437499997223767,None,187.9304544000006,187.9304544000006,187.9304544000006,187.9304544000006,187.9304544000006,187.9304544000006,187.9304544000006,187.9304544000006,,001,P015,2025_Feb_28_1812,CategoryLocalizer,2021.2.3,59.93339003114303,
149.0,149.8,2,0.75,Stimuli\ImageFiles-Set1\Bodies\Bodies_DownwardDog_00001.png,0,0,0,252,252,252,,,,,,,,,,,,,149.0142786999968,0.014278699996793875,None,188.13062980000177,188.13062980000177,188.13062980000177,188.13062980000177,188.13062980000177,188.13062980000177,188.13062980000177,188.13062980000177,,001,P015,2025_Feb_28_1812,CategoryLocalizer,2021.2.3,59.93339003114303,
149.8,150.0,5,0.0,Stimuli\Blank.png,0,0,0,253,253,253,,,,,,,,,,,,,149.81434499999887,0.014344999998854746,None,188.9313628000018,188.9313628000018,188.9313628000018,188.9313628000018,188.9313628000018,188.9313628000018,188.9313628000018,188.9313628000018,,001,P015,2025_Feb_28_1812,CategoryLocalizer,2021.2.3,59.93339003114303,
150.0,150.8,2,0.75,Stimuli\ImageFiles-Set1\Bodies\Bodies_CobraPose_00005.png,0,0,0,254,254,254,,,,,,,,,,,,,150.0162332,0.016233199999987846,None,189.1482059000009,189.1482059000009,189.1482059000009,189.1482059000009,189.1482059000009,189.1482059000009,189.1482059000009,189.1482059000009,,001,P015,2025_Feb_28_1812,CategoryLocalizer,2021.2.3,59.93339003114303,
150.8,151.0,5,0.0,Stimuli\Blank.png,0,0,0,255,255,255,,,,,,,,,,,,,150.81744059999983,0.01744059999981573,None,189.94895460000043,189.94895460000043,189.94895460000043,189.94895460000043,189.94895460000043,189.94895460000043,189.94895460000043,189.94895460000043,,001,P015,2025_Feb_28_1812,CategoryLocalizer,2021.2.3,59.93339003114303,
151.0,151.8,2,0.75,Stimuli\ImageFiles-Set1\Bodies\Bodies_SittingChair_00007.png,0,0,0,256,256,256,,,,,,,,,,,,,151.01663989999724,0.016639899997244356,None,190.13241530000232,190.13241530000232,190.13241530000232,190.13241530000232,190.13241530000232,190.13241530000232,190.13241530000232,190.13241530000232,,001,P015,2025_Feb_28_1812,CategoryLocalizer,2021.2.3,59.93339003114303,
151.8,152.0,5,0.0,Stimuli\Blank.png,0,0,0,257,257,257,,,,,,,,,,,,,151.7993736999997,-0.000626300000305946,None,190.91647680000096,190.91647680000096,190.91647680000096,190.91647680000096,190.91647680000096,190.91647680000096,190.91647680000096,190.91647680000096,,001,P015,2025_Feb_28_1812,CategoryLocalizer,2021.2.3,59.93339003114303,
152.0,164.0,0,0.0,Stimuli\Blank.png,0,0,0,258,258,258,,,,,,,,,,,,,152.00005789999705,5.789999704575166e-05,None,191.11661660000027,191.11661660000027,191.11661660000027,191.11661660000027,191.11661660000027,191.11661660000027,191.11661660000027,191.11661660000027,,001,P015,2025_Feb_28_1812,CategoryLocalizer,2021.2.3,59.93339003114303,
164.0,164.8,4,0.75,Stimuli\ImageFiles-Set1\Scenes\Scenes_050.png,0,0,0,259,259,259,,,,,,,,,,,,,164.01262009999846,0.01262009999845759,None,203.14393140000175,203.14393140000175,203.14393140000175,203.14393140000175,203.14393140000175,203.14393140000175,203.14393140000175,203.14393140000175,,001,P015,2025_Feb_28_1812,CategoryLocalizer,2021.2.3,59.93339003114303,
164.8,165.0,5,0.0,Stimuli\Blank.png,0,0,0,260,260,260,,,,,,,,,,,,,164.8283980999986,0.028398099998582893,None,203.94464850000077,203.94464850000077,203.94464850000077,203.94464850000077,203.94464850000077,203.94464850000077,203.94464850000077,203.94464850000077,,001,P015,2025_Feb_28_1812,CategoryLocalizer,2021.2.3,59.93339003114303,
165.0,165.8,4,0.75,Stimuli\ImageFiles-Set1\Scenes\Scenes_042.png,0,0,0,261,261,261,,,,,,,,,,,,,165.0124625999997,0.01246259999970789,None,204.1448130000026,204.1448130000026,204.1448130000026,204.1448130000026,204.1448130000026,204.1448130000026,204.1448130000026,204.1448130000026,,001,P015,2025_Feb_28_1812,CategoryLocalizer,2021.2.3,59.93339003114303,
165.8,166.0,5,0.0,Stimuli\Blank.png,0,0,0,262,262,262,,,,,,,,,,,,,165.82899989999714,0.028999899997131706,None,204.9455190000008,204.9455190000008,204.9455190000008,204.9455190000008,204.9455190000008,204.9455190000008,204.9455190000008,204.9455190000008,,001,P015,2025_Feb_28_1812,CategoryLocalizer,2021.2.3,59.93339003114303,
166.0,166.8,4,0.75,Stimuli\ImageFiles-Set1\Scenes\Scenes_035.png,0,0,0,263,263,263,,,,,,,,,,,,,166.01257389999955,0.01257389999955194,None,205.1457018000001,205.1457018000001,205.1457018000001,205.1457018000001,205.1457018000001,205.1457018000001,205.1457018000001,205.1457018000001,,001,P015,2025_Feb_28_1812,CategoryLocalizer,2021.2.3,59.93339003114303,
166.8,167.0,5,0.0,Stimuli\Blank.png,0,0,0,264,264,264,,,,,,,,,,,,,166.82934659999955,0.029346599999541922,None,205.94640459999937,205.94640459999937,205.94640459999937,205.94640459999937,205.94640459999937,205.94640459999937,205.94640459999937,205.94640459999937,,001,P015,2025_Feb_28_1812,CategoryLocalizer,2021.2.3,59.93339003114303,
167.0,167.8,4,0.75,Stimuli\ImageFiles-Set1\Scenes\Scenes_021.png,0,0,0,265,265,265,,,,,,,,,,,,,167.01324609999938,0.013246099999378202,None,206.1298949000011,206.1298949000011,206.1298949000011,206.1298949000011,206.1298949000011,206.1298949000011,206.1298949000011,206.1298949000011,,001,P015,2025_Feb_28_1812,CategoryLocalizer,2021.2.3,59.93339003114303,
167.8,168.0,5,0.0,Stimuli\Blank.png,0,0,0,266,266,266,,,,,,,,,,,,,167.8141214999996,0.01412149999958956,None,206.93063579999944,206.93063579999944,206.93063579999944,206.93063579999944,206.93063579999944,206.93063579999944,206.93063579999944,206.93063579999944,,001,P015,2025_Feb_28_1812,CategoryLocalizer,2021.2.3,59.93339003114303,
168.0,168.8,4,0.75,Stimuli\ImageFiles-Set1\Scenes\Scenes_037.png,0,0,0,267,267,267,,,,,,,,,,,,,168.01444229999834,0.014442299998336239,None,207.1308491000018,207.1308491000018,207.1308491000018,207.1308491000018,207.1308491000018,207.1308491000018,207.1308491000018,207.1308491000018,,001,P015,2025_Feb_28_1812,CategoryLocalizer,2021.2.3,59.93339003114303,
168.8,169.0,5,0.0,Stimuli\Blank.png,0,0,0,268,268,268,,,,,,,,,,,,,168.81698729999698,0.016987299996969796,None,207.9481906000001,207.9481906000001,207.9481906000001,207.9481906000001,207.9481906000001,207.9481906000001,207.9481906000001,207.9481906000001,,001,P015,2025_Feb_28_1812,CategoryLocalizer,2021.2.3,59.93339003114303,
169.0,169.8,4,0.75,Stimuli\ImageFiles-Set1\Scenes\Scenes_037.png,1,1,0,269,269,269,,,,,,,,,,,,,169.0174122999997,0.017412299999705283,1,208.14835630000016,208.14835630000016,208.14835630000016,208.14835630000016,208.14835630000016,208.14835630000016,208.14835630000016,208.14835630000016,0.5577776999998605,001,P015,2025_Feb_28_1812,CategoryLocalizer,2021.2.3,59.93339003114303,
169.8,170.0,5,0.0,Stimuli\Blank.png,0,0,0,270,270,270,,,,,,,,,,,,,169.81903859999875,0.019038599998737027,None,208.94908380000197,208.94908380000197,208.94908380000197,208.94908380000197,208.94908380000197,208.94908380000197,208.94908380000197,208.94908380000197,,001,P015,2025_Feb_28_1812,CategoryLocalizer,2021.2.3,59.93339003114303,
170.0,170.8,4,0.75,Stimuli\ImageFiles-Set1\Scenes\Scenes_054.png,0,0,0,271,271,271,,,,,,,,,,,,,170.0173889999969,0.01738899999691057,None,209.14924880000035,209.14924880000035,209.14924880000035,209.14924880000035,209.14924880000035,209.14924880000035,209.14924880000035,209.14924880000035,,001,P015,2025_Feb_28_1812,CategoryLocalizer,2021.2.3,59.93339003114303,
170.8,171.0,5,0.0,Stimuli\Blank.png,0,0,0,272,272,272,,,,,,,,,,,,,170.81633079999665,0.01633079999663778,None,209.93326960000195,209.93326960000195,209.93326960000195,209.93326960000195,209.93326960000195,209.93326960000195,209.93326960000195,209.93326960000195,,001,P015,2025_Feb_28_1812,CategoryLocalizer,2021.2.3,59.93339003114303,
171.0,171.8,4,0.75,Stimuli\ImageFiles-Set1\Scenes\Scenes_047.png,0,0,0,273,273,273,,,,,,,,,,,,,170.9999246999978,-7.530000220867805e-05,None,210.11677419999978,210.11677419999978,210.11677419999978,210.11677419999978,210.11677419999978,210.11677419999978,210.11677419999978,210.11677419999978,,001,P015,2025_Feb_28_1812,CategoryLocalizer,2021.2.3,59.93339003114303,
171.8,172.0,5,0.0,Stimuli\Blank.png,0,0,0,274,274,274,,,,,,,,,,,,,171.80041549999805,0.00041549999804146864,None,210.9174888000016,210.9174888000016,210.9174888000016,210.9174888000016,210.9174888000016,210.9174888000016,210.9174888000016,210.9174888000016,,001,P015,2025_Feb_28_1812,CategoryLocalizer,2021.2.3,59.93339003114303,
172.0,172.8,4,0.75,Stimuli\ImageFiles-Set1\Scenes\Scenes_053.png,0,0,0,275,275,275,,,,,,,,,,,,,172.00072689999797,0.0007268999979714863,None,211.13433720000103,211.13433720000103,211.13433720000103,211.13433720000103,211.13433720000103,211.13433720000103,211.13433720000103,211.13433720000103,,001,P015,2025_Feb_28_1812,CategoryLocalizer,2021.2.3,59.93339003114303,
172.8,173.0,5,0.0,Stimuli\Blank.png,0,0,0,276,276,276,,,,,,,,,,,,,172.8189121999967,0.01891219999669147,None,211.93512050000209,211.93512050000209,211.93512050000209,211.93512050000209,211.93512050000209,211.93512050000209,211.93512050000209,211.93512050000209,,001,P015,2025_Feb_28_1812,CategoryLocalizer,2021.2.3,59.93339003114303,
173.0,173.8,4,0.75,Stimuli\ImageFiles-Set1\Scenes\Scenes_039.png,0,0,0,277,277,277,,,,,,,,,,,,,173.00141129999975,0.001411299999745097,None,212.11853390000033,212.11853390000033,212.11853390000033,212.11853390000033,212.11853390000033,212.11853390000033,212.11853390000033,212.11853390000033,,001,P015,2025_Feb_28_1812,CategoryLocalizer,2021.2.3,59.93339003114303,
173.8,174.0,5,0.0,Stimuli\Blank.png,0,0,0,278,278,278,,,,,,,,,,,,,173.80428299999767,0.004282999997656134,None,212.9359504999993,212.9359504999993,212.9359504999993,212.9359504999993,212.9359504999993,212.9359504999993,212.9359504999993,212.9359504999993,,001,P015,2025_Feb_28_1812,CategoryLocalizer,2021.2.3,59.93339003114303,
174.0,174.8,4,0.75,Stimuli\ImageFiles-Set1\Scenes\Scenes_038.png,0,0,0,279,279,279,,,,,,,,,,,,,174.02009629999884,0.02009629999884055,None,213.1527875000029,213.1527875000029,213.1527875000029,213.1527875000029,213.1527875000029,213.1527875000029,213.1527875000029,213.1527875000029,,001,P015,2025_Feb_28_1812,CategoryLocalizer,2021.2.3,59.93339003114303,
174.8,175.0,5,0.0,Stimuli\Blank.png,0,0,0,280,280,280,,,,,,,,,,,,,174.82098419999966,0.020984199999645625,None,213.9368171999995,213.9368171999995,213.9368171999995,213.9368171999995,213.9368171999995,213.9368171999995,213.9368171999995,213.9368171999995,,001,P015,2025_Feb_28_1812,CategoryLocalizer,2021.2.3,59.93339003114303,
175.0,175.8,4,0.75,Stimuli\ImageFiles-Set1\Scenes\Scenes_022.png,0,0,0,281,281,281,,,,,,,,,,,,,175.00416799999948,0.004167999999481253,None,214.13701130000118,214.13701130000118,214.13701130000118,214.13701130000118,214.13701130000118,214.13701130000118,214.13701130000118,214.13701130000118,,001,P015,2025_Feb_28_1812,CategoryLocalizer,2021.2.3,59.93339003114303,
175.8,176.0,5,0.0,Stimuli\Blank.png,0,0,0,282,282,282,,,,,,,,,,,,,175.8207999999977,0.020799999997677787,None,214.9377096999997,214.9377096999997,214.9377096999997,214.9377096999997,214.9377096999997,214.9377096999997,214.9377096999997,214.9377096999997,,001,P015,2025_Feb_28_1812,CategoryLocalizer,2021.2.3,59.93339003114303,
176.0,176.8,4,0.75,Stimuli\ImageFiles-Set1\Scenes\Scenes_019.png,1,1,0,283,283,283,,,,,,,,,,,,,176.00500719999764,0.005007199997635325,None,215.13788550000027,215.13788550000027,215.13788550000027,215.13788550000027,215.13788550000027,215.13788550000027,215.13788550000027,215.13788550000027,,001,P015,2025_Feb_28_1812,CategoryLocalizer,2021.2.3,59.93339003114303,
176.8,177.0,5,0.0,Stimuli\Blank.png,0,0,0,284,284,284,,,,,,,,,,,,,176.8240760999979,0.024076099997898837,None,215.95528230000127,215.95528230000127,215.95528230000127,215.95528230000127,215.95528230000127,215.95528230000127,215.95528230000127,215.95528230000127,,001,P015,2025_Feb_28_1812,CategoryLocalizer,2021.2.3,59.93339003114303,
177.0,177.8,4,0.75,Stimuli\ImageFiles-Set1\Scenes\Scenes_026.png,0,0,0,285,285,285,,,,,,,,,,,,,177.02353439999933,0.02353439999933471,None,216.15544000000227,216.15544000000227,216.15544000000227,216.15544000000227,216.15544000000227,216.15544000000227,216.15544000000227,216.15544000000227,,001,P015,2025_Feb_28_1812,CategoryLocalizer,2021.2.3,59.93339003114303,
