eventStartTime,eventEndTime,eventCond,imSize,imFile,repeatedImage,responseEvent,Events.thisRepN,Events.thisTrialN,Events.thisN,Events.thisIndex,Instructions.started,Instructions.stopped,participantReadyResponse.keys,participantReadyResponse.rt,participantReadyResponse.started,participantReadyResponse.stopped,startWaitforTrigger,triggerResponse.keys,triggerResponse.rt,triggerResponse.started,triggerResponse.stopped,globalTimer,actualStartTime,startTimingDiff,participantResponse.keys,participantResponse.started,participantResponse.stopped,image.started,image.stopped,fixationOutside.started,fixationOutside.stopped,fixationInside.started,fixationInside.stopped,participantResponse.rt,session,participant,date,expName,psychopyVersion,frameRate,
,,,,,,,,,,,11.204758899999433,None,1,11.86434139999983,11.204758899999433,None,,,,,,,,,,,,,,,,,,,002,P015,2025_Feb_28_1840,CategoryLocalizer,2021.2.3,59.94492260487078,
,,,,,,,,,,,,,,,,,23.073715499998798,5,13.922815100002481,23.087337599998136,None,,,,,,,,,,,,,,002,P015,2025_Feb_28_1840,CategoryLocalizer,2021.2.3,59.94492260487078,
0.0,12.0,0,0.0,Stimuli\Blank.png,0,0,0,0,0,0,,,,,,,,,,,,37.01984040000025,0.06164519999947515,0.06164519999947515,None,37.09975209999902,None,37.09975209999902,None,37.09975209999902,None,37.09975209999902,None,,002,P015,2025_Feb_28_1840,CategoryLocalizer,2021.2.3,59.94492260487078,
12.0,12.8,1,0.75,Stimuli\ImageFiles-Set2\Objects\Object_Strawberry_00001.png,0,0,0,1,1,1,,,,,,,,,,,,,12.0104659000026,0.010465900002600392,None,49.04390829999829,49.04390829999829,49.04390829999829,49.04390829999829,49.04390829999829,49.04390829999829,49.04390829999829,49.04390829999829,,002,P015,2025_Feb_28_1840,CategoryLocalizer,2021.2.3,59.94492260487078,
12.8,13.0,5,0.0,Stimuli\Blank.png,0,0,0,2,2,2,,,,,,,,,,,,,12.812337300001673,0.012337300001671991,None,49.86133219999829,49.86133219999829,49.86133219999829,49.86133219999829,49.86133219999829,49.86133219999829,49.86133219999829,49.86133219999829,,002,P015,2025_Feb_28_1840,CategoryLocalizer,2021.2.3,59.94492260487078,
13.0,13.8,1,0.75,Stimuli\ImageFiles-Set2\Objects\Object_Sandal_00001.png,0,0,0,3,3,3,,,,,,,,,,,,,13.028278900001169,0.02827890000116895,None,50.06148250000115,50.06148250000115,50.06148250000115,50.06148250000115,50.06148250000115,50.06148250000115,50.06148250000115,50.06148250000115,,002,P015,2025_Feb_28_1840,CategoryLocalizer,2021.2.3,59.94492260487078,
13.8,14.0,5,0.0,Stimuli\Blank.png,0,0,0,4,4,4,,,,,,,,,,,,,13.811784699999407,0.011784699999406456,None,50.8455071999997,50.8455071999997,50.8455071999997,50.8455071999997,50.8455071999997,50.8455071999997,50.8455071999997,50.8455071999997,,002,P015,2025_Feb_28_1840,CategoryLocalizer,2021.2.3,59.94492260487078,
14.0,14.8,1,0.75,Stimuli\ImageFiles-Set2\Objects\Object_Desk_00001.png,0,0,0,5,5,5,,,,,,,,,,,,,14.011935099999391,0.011935099999391241,None,51.04568300000028,51.04568300000028,51.04568300000028,51.04568300000028,51.04568300000028,51.04568300000028,51.04568300000028,51.04568300000028,,002,P015,2025_Feb_28_1840,CategoryLocalizer,2021.2.3,59.94492260487078,
14.8,15.0,5,0.0,Stimuli\Blank.png,0,0,0,6,6,6,,,,,,,,,,,,,14.812189399999625,0.012189399999623873,None,51.84638679999989,51.84638679999989,51.84638679999989,51.84638679999989,51.84638679999989,51.84638679999989,51.84638679999989,51.84638679999989,,002,P015,2025_Feb_28_1840,CategoryLocalizer,2021.2.3,59.94492260487078,
15.0,15.8,1,0.75,Stimuli\ImageFiles-Set2\Objects\Object_Jar_00001.png,0,0,0,7,7,7,,,,,,,,,,,,,15.012956599999598,0.012956599999597529,None,52.0466164999998,52.0466164999998,52.0466164999998,52.0466164999998,52.0466164999998,52.0466164999998,52.0466164999998,52.0466164999998,,002,P015,2025_Feb_28_1840,CategoryLocalizer,2021.2.3,59.94492260487078,
15.8,16.0,5,0.0,Stimuli\Blank.png,0,0,0,8,8,8,,,,,,,,,,,,,15.813236599999072,0.013236599999071785,None,52.84727500000008,52.84727500000008,52.84727500000008,52.84727500000008,52.84727500000008,52.84727500000008,52.84727500000008,52.84727500000008,,002,P015,2025_Feb_28_1840,CategoryLocalizer,2021.2.3,59.94492260487078,
16.0,16.8,1,0.75,Stimuli\ImageFiles-Set2\Objects\Object_Jar_00001.png,1,1,0,9,9,9,,,,,,,,,,,,,16.013049299999693,0.013049299999693176,1,53.04744610000125,53.04744610000125,53.04744610000125,53.04744610000125,53.04744610000125,53.04744610000125,53.04744610000125,53.04744610000125,0.38899880000099074,002,P015,2025_Feb_28_1840,CategoryLocalizer,2021.2.3,59.94492260487078,
16.8,17.0,5,0.0,Stimuli\Blank.png,0,0,0,10,10,10,,,,,,,,,,,,,16.81702860000223,0.01702860000223083,None,53.86485289999837,53.86485289999837,53.86485289999837,53.86485289999837,53.86485289999837,53.86485289999837,53.86485289999837,53.86485289999837,,002,P015,2025_Feb_28_1840,CategoryLocalizer,2021.2.3,59.94492260487078,
17.0,17.8,1,0.75,Stimuli\ImageFiles-Set2\Objects\Object_Ambulance_00001.png,0,0,0,11,11,11,,,,,,,,,,,,,17.01474059999964,0.014740599999640835,None,54.04839290000018,54.04839290000018,54.04839290000018,54.04839290000018,54.04839290000018,54.04839290000018,54.04839290000018,54.04839290000018,,002,P015,2025_Feb_28_1840,CategoryLocalizer,2021.2.3,59.94492260487078,
17.8,18.0,5,0.0,Stimuli\Blank.png,0,0,0,12,12,12,,,,,,,,,,,,,17.814441200000147,0.014441200000145926,None,54.84902449999936,54.84902449999936,54.84902449999936,54.84902449999936,54.84902449999936,54.84902449999936,54.84902449999936,54.84902449999936,,002,P015,2025_Feb_28_1840,CategoryLocalizer,2021.2.3,59.94492260487078,
18.0,18.8,1,0.75,Stimuli\ImageFiles-Set2\Objects\Object_Bicycle_00001.png,0,0,0,13,13,13,,,,,,,,,,,,,18.015741300001537,0.01574130000153673,None,55.06591069999922,55.06591069999922,55.06591069999922,55.06591069999922,55.06591069999922,55.06591069999922,55.06591069999922,55.06591069999922,,002,P015,2025_Feb_28_1840,CategoryLocalizer,2021.2.3,59.94492260487078,
18.8,19.0,5,0.0,Stimuli\Blank.png,0,0,0,14,14,14,,,,,,,,,,,,,18.81584710000243,0.015847100002428505,None,55.85000690000015,55.85000690000015,55.85000690000015,55.85000690000015,55.85000690000015,55.85000690000015,55.85000690000015,55.85000690000015,,002,P015,2025_Feb_28_1840,CategoryLocalizer,2021.2.3,59.94492260487078,
19.0,19.8,1,0.75,Stimuli\ImageFiles-Set2\Objects\Object_Flashlight_00001.png,0,0,0,15,15,15,,,,,,,,,,,,,18.99911989999964,-0.0008801000003586523,None,56.0334268000006,56.0334268000006,56.0334268000006,56.0334268000006,56.0334268000006,56.0334268000006,56.0334268000006,56.0334268000006,,002,P015,2025_Feb_28_1840,CategoryLocalizer,2021.2.3,59.94492260487078,
19.8,20.0,5,0.0,Stimuli\Blank.png,0,0,0,16,16,16,,,,,,,,,,,,,19.799645600000076,-0.0003543999999244818,None,56.83414300000004,56.83414300000004,56.83414300000004,56.83414300000004,56.83414300000004,56.83414300000004,56.83414300000004,56.83414300000004,,002,P015,2025_Feb_28_1840,CategoryLocalizer,2021.2.3,59.94492260487078,
20.0,20.8,1,0.75,Stimuli\ImageFiles-Set2\Objects\Object_Hamburger_00001.png,0,0,0,17,17,17,,,,,,,,,,,,,20.0003887999992,0.0003887999992002733,None,57.034310499999265,57.034310499999265,57.034310499999265,57.034310499999265,57.034310499999265,57.034310499999265,57.034310499999265,57.034310499999265,,002,P015,2025_Feb_28_1840,CategoryLocalizer,2021.2.3,59.94492260487078,
20.8,21.0,5,0.0,Stimuli\Blank.png,0,0,0,18,18,18,,,,,,,,,,,,,20.80091800000082,0.000918000000819319,None,57.835113699999056,57.835113699999056,57.835113699999056,57.835113699999056,57.835113699999056,57.835113699999056,57.835113699999056,57.835113699999056,,002,P015,2025_Feb_28_1840,CategoryLocalizer,2021.2.3,59.94492260487078,
21.0,21.8,1,0.75,Stimuli\ImageFiles-Set2\Objects\Object_Boot_00001.png,0,0,0,19,19,19,,,,,,,,,,,,,21.000750999999582,0.0007509999995818362,None,58.051882799998566,58.051882799998566,58.051882799998566,58.051882799998566,58.051882799998566,58.051882799998566,58.051882799998566,58.051882799998566,,002,P015,2025_Feb_28_1840,CategoryLocalizer,2021.2.3,59.94492260487078,
21.8,22.0,5,0.0,Stimuli\Blank.png,0,0,0,20,20,20,,,,,,,,,,,,,21.818201599999156,0.018201599999155604,None,58.85259020000012,58.85259020000012,58.85259020000012,58.85259020000012,58.85259020000012,58.85259020000012,58.85259020000012,58.85259020000012,,002,P015,2025_Feb_28_1840,CategoryLocalizer,2021.2.3,59.94492260487078,
22.0,22.8,1,0.75,Stimuli\ImageFiles-Set2\Objects\Object_Shoe_00001.png,0,0,0,21,21,21,,,,,,,,,,,,,22.002262800000608,0.0022628000006079674,None,59.03608470000108,59.03608470000108,59.03608470000108,59.03608470000108,59.03608470000108,59.03608470000108,59.03608470000108,59.03608470000108,,002,P015,2025_Feb_28_1840,CategoryLocalizer,2021.2.3,59.94492260487078,
22.8,23.0,5,0.0,Stimuli\Blank.png,0,0,0,22,22,22,,,,,,,,,,,,,22.803343400002632,0.003343400002631114,None,59.83675189999849,59.83675189999849,59.83675189999849,59.83675189999849,59.83675189999849,59.83675189999849,59.83675189999849,59.83675189999849,,002,P015,2025_Feb_28_1840,CategoryLocalizer,2021.2.3,59.94492260487078,
23.0,23.8,1,0.75,Stimuli\ImageFiles-Set2\Objects\Object_Lawnmower_00001.png,0,0,0,23,23,23,,,,,,,,,,,,,23.002970199999254,0.002970199999253964,None,60.03697230000034,60.03697230000034,60.03697230000034,60.03697230000034,60.03697230000034,60.03697230000034,60.03697230000034,60.03697230000034,,002,P015,2025_Feb_28_1840,CategoryLocalizer,2021.2.3,59.94492260487078,
23.8,24.0,5,0.0,Stimuli\Blank.png,0,0,0,24,24,24,,,,,,,,,,,,,23.80318360000092,0.003183600000919995,None,60.83768209999835,60.83768209999835,60.83768209999835,60.83768209999835,60.83768209999835,60.83768209999835,60.83768209999835,60.83768209999835,,002,P015,2025_Feb_28_1840,CategoryLocalizer,2021.2.3,59.94492260487078,
24.0,24.8,1,0.75,Stimuli\ImageFiles-Set2\Objects\Object_Perfume_00001.png,0,0,0,25,25,25,,,,,,,,,,,,,24.003250199999457,0.0032501999994565267,None,61.03785290000087,61.03785290000087,61.03785290000087,61.03785290000087,61.03785290000087,61.03785290000087,61.03785290000087,61.03785290000087,,002,P015,2025_Feb_28_1840,CategoryLocalizer,2021.2.3,59.94492260487078,
24.8,25.0,5,0.0,Stimuli\Blank.png,0,0,0,26,26,26,,,,,,,,,,,,,24.80413160000171,0.0041316000017097565,None,61.83856730000116,61.83856730000116,61.83856730000116,61.83856730000116,61.83856730000116,61.83856730000116,61.83856730000116,61.83856730000116,,002,P015,2025_Feb_28_1840,CategoryLocalizer,2021.2.3,59.94492260487078,
25.0,25.8,1,0.75,Stimuli\ImageFiles-Set2\Objects\Object_Belt_00001.png,1,1,0,27,27,27,,,,,,,,,,,,,25.00433460000204,0.004334600002039224,None,62.03878640000039,62.03878640000039,62.03878640000039,62.03878640000039,62.03878640000039,62.03878640000039,62.03878640000039,62.03878640000039,,002,P015,2025_Feb_28_1840,CategoryLocalizer,2021.2.3,59.94492260487078,
25.8,26.0,5,0.0,Stimuli\Blank.png,0,0,0,28,28,28,,,,,,,,,,,,,25.80546360000153,0.005463600001530011,None,62.839478599998984,62.839478599998984,62.839478599998984,62.839478599998984,62.839478599998984,62.839478599998984,62.839478599998984,62.839478599998984,,002,P015,2025_Feb_28_1840,CategoryLocalizer,2021.2.3,59.94492260487078,
26.0,26.8,1,0.75,Stimuli\ImageFiles-Set2\Objects\Object_Hat_00001.png,0,0,0,29,29,29,,,,,,,,,,,,,26.00582779999968,0.005827799999678973,None,63.03964400000041,63.03964400000041,63.03964400000041,63.03964400000041,63.03964400000041,63.03964400000041,63.03964400000041,63.03964400000041,,002,P015,2025_Feb_28_1840,CategoryLocalizer,2021.2.3,59.94492260487078,
26.8,27.0,5,0.0,Stimuli\Blank.png,0,0,0,30,30,30,,,,,,,,,,,,,26.80841760000112,0.008417600001120462,None,63.85702730000048,63.85702730000048,63.85702730000048,63.85702730000048,63.85702730000048,63.85702730000048,63.85702730000048,63.85702730000048,,002,P015,2025_Feb_28_1840,CategoryLocalizer,2021.2.3,59.94492260487078,
27.0,27.8,1,0.75,Stimuli\ImageFiles-Set2\Objects\Object_Hat_00001.png,0,0,0,31,31,31,,,,,,,,,,,,,27.024544899999455,0.024544899999455083,1,64.07388119999814,64.07388119999814,64.07388119999814,64.07388119999814,64.07388119999814,64.07388119999814,64.07388119999814,64.07388119999814,0.411412500001461,002,P015,2025_Feb_28_1840,CategoryLocalizer,2021.2.3,59.94492260487078,
27.8,28.0,5,0.0,Stimuli\Blank.png,0,0,0,32,32,32,,,,,,,,,,,,,27.824081900002056,0.02408190000205579,None,64.85791959999915,64.85791959999915,64.85791959999915,64.85791959999915,64.85791959999915,64.85791959999915,64.85791959999915,64.85791959999915,,002,P015,2025_Feb_28_1840,CategoryLocalizer,2021.2.3,59.94492260487078,
28.0,28.8,2,0.75,Stimuli\ImageFiles-Set2\Bodies\Bodies_Running_00001.png,0,0,0,33,33,33,,,,,,,,,,,,,28.007528599999205,0.007528599999204744,None,65.04140109999935,65.04140109999935,65.04140109999935,65.04140109999935,65.04140109999935,65.04140109999935,65.04140109999935,65.04140109999935,,002,P015,2025_Feb_28_1840,CategoryLocalizer,2021.2.3,59.94492260487078,
28.8,29.0,5,0.0,Stimuli\Blank.png,0,0,0,34,34,34,,,,,,,,,,,,,28.809447499999806,0.009447499999804876,None,65.85879859999841,65.85879859999841,65.85879859999841,65.85879859999841,65.85879859999841,65.85879859999841,65.85879859999841,65.85879859999841,,002,P015,2025_Feb_28_1840,CategoryLocalizer,2021.2.3,59.94492260487078,
29.0,29.8,2,0.75,Stimuli\ImageFiles-Set2\Bodies\Bodies_Standing_00002.png,0,0,0,35,35,35,,,,,,,,,,,,,29.025535500000842,0.02553550000084215,None,66.05897059999916,66.05897059999916,66.05897059999916,66.05897059999916,66.05897059999916,66.05897059999916,66.05897059999916,66.05897059999916,,002,P015,2025_Feb_28_1840,CategoryLocalizer,2021.2.3,59.94492260487078,
29.8,30.0,5,0.0,Stimuli\Blank.png,0,0,0,36,36,36,,,,,,,,,,,,,29.810019299999112,0.010019299999111553,None,66.84300440000152,66.84300440000152,66.84300440000152,66.84300440000152,66.84300440000152,66.84300440000152,66.84300440000152,66.84300440000152,,002,P015,2025_Feb_28_1840,CategoryLocalizer,2021.2.3,59.94492260487078,
30.0,30.8,2,0.75,Stimuli\ImageFiles-Set2\Bodies\Bodies_Jumping_00005.png,0,0,0,37,37,37,,,,,,,,,,,,,30.009710800000903,0.009710800000902964,None,67.05986439999833,67.05986439999833,67.05986439999833,67.05986439999833,67.05986439999833,67.05986439999833,67.05986439999833,67.05986439999833,,002,P015,2025_Feb_28_1840,CategoryLocalizer,2021.2.3,59.94492260487078,
30.8,31.0,5,0.0,Stimuli\Blank.png,0,0,0,38,38,38,,,,,,,,,,,,,30.826393200000894,0.026393200000892847,None,67.86068259999956,67.86068259999956,67.86068259999956,67.86068259999956,67.86068259999956,67.86068259999956,67.86068259999956,67.86068259999956,,002,P015,2025_Feb_28_1840,CategoryLocalizer,2021.2.3,59.94492260487078,
31.0,31.8,2,0.75,Stimuli\ImageFiles-Set2\Bodies\Bodies_SittingFloor_00004.png,0,0,0,39,39,39,,,,,,,,,,,,,31.009604000002582,0.009604000002582325,None,68.04405229999975,68.04405229999975,68.04405229999975,68.04405229999975,68.04405229999975,68.04405229999975,68.04405229999975,68.04405229999975,,002,P015,2025_Feb_28_1840,CategoryLocalizer,2021.2.3,59.94492260487078,
31.8,32.0,5,0.0,Stimuli\Blank.png,0,0,0,40,40,40,,,,,,,,,,,,,31.810779100000218,0.010779100000217312,None,68.84476530000029,68.84476530000029,68.84476530000029,68.84476530000029,68.84476530000029,68.84476530000029,68.84476530000029,68.84476530000029,,002,P015,2025_Feb_28_1840,CategoryLocalizer,2021.2.3,59.94492260487078,
32.0,32.8,2,0.75,Stimuli\ImageFiles-Set2\Bodies\Bodies_SittingFloor_00004.png,1,1,0,41,41,41,,,,,,,,,,,,,32.01034169999912,0.010341699999116827,1,69.04494459999842,69.04494459999842,69.04494459999842,69.04494459999842,69.04494459999842,69.04494459999842,69.04494459999842,69.04494459999842,0.5331932999979472,002,P015,2025_Feb_28_1840,CategoryLocalizer,2021.2.3,59.94492260487078,
32.8,33.0,5,0.0,Stimuli\Blank.png,0,0,0,42,42,42,,,,,,,,,,,,,32.81151189999946,0.011511899999462116,None,69.84566139999879,69.84566139999879,69.84566139999879,69.84566139999879,69.84566139999879,69.84566139999879,69.84566139999879,69.84566139999879,,002,P015,2025_Feb_28_1840,CategoryLocalizer,2021.2.3,59.94492260487078,
33.0,33.8,2,0.75,Stimuli\ImageFiles-Set2\Bodies\Bodies_Waving_00004.png,0,0,0,43,43,43,,,,,,,,,,,,,33.01405480000176,0.01405480000175885,None,70.06251949999933,70.06251949999933,70.06251949999933,70.06251949999933,70.06251949999933,70.06251949999933,70.06251949999933,70.06251949999933,,002,P015,2025_Feb_28_1840,CategoryLocalizer,2021.2.3,59.94492260487078,
33.8,34.0,5,0.0,Stimuli\Blank.png,0,0,0,44,44,44,,,,,,,,,,,,,33.82962960000077,0.029629600000774303,None,70.86324779999995,70.86324779999995,70.86324779999995,70.86324779999995,70.86324779999995,70.86324779999995,70.86324779999995,70.86324779999995,,002,P015,2025_Feb_28_1840,CategoryLocalizer,2021.2.3,59.94492260487078,
34.0,34.8,2,0.75,Stimuli\ImageFiles-Set2\Bodies\Bodies_Kicking_00006.png,0,0,0,45,45,45,,,,,,,,,,,,,34.01327850000234,0.013278500002343208,None,71.04672080000091,71.04672080000091,71.04672080000091,71.04672080000091,71.04672080000091,71.04672080000091,71.04672080000091,71.04672080000091,,002,P015,2025_Feb_28_1840,CategoryLocalizer,2021.2.3,59.94492260487078,
34.8,35.0,5,0.0,Stimuli\Blank.png,0,0,0,46,46,46,,,,,,,,,,,,,34.81364949999988,0.013649499999885961,None,71.84743850000086,71.84743850000086,71.84743850000086,71.84743850000086,71.84743850000086,71.84743850000086,71.84743850000086,71.84743850000086,,002,P015,2025_Feb_28_1840,CategoryLocalizer,2021.2.3,59.94492260487078,
35.0,35.8,2,0.75,Stimuli\ImageFiles-Set2\Bodies\Bodies_Pushing_00002.png,0,0,0,47,47,47,,,,,,,,,,,,,35.01316170000064,0.013161700000637211,None,72.04760080000051,72.04760080000051,72.04760080000051,72.04760080000051,72.04760080000051,72.04760080000051,72.04760080000051,72.04760080000051,,002,P015,2025_Feb_28_1840,CategoryLocalizer,2021.2.3,59.94492260487078,
35.8,36.0,5,0.0,Stimuli\Blank.png,0,0,0,48,48,48,,,,,,,,,,,,,35.81511809999938,0.015118099999384071,None,72.84832349999851,72.84832349999851,72.84832349999851,72.84832349999851,72.84832349999851,72.84832349999851,72.84832349999851,72.84832349999851,,002,P015,2025_Feb_28_1840,CategoryLocalizer,2021.2.3,59.94492260487078,
36.0,36.8,2,0.75,Stimuli\ImageFiles-Set2\Bodies\Bodies_QuadStretch_00006.png,0,0,0,49,49,49,,,,,,,,,,,,,36.013999599999806,0.013999599999806378,None,73.04849879999892,73.04849879999892,73.04849879999892,73.04849879999892,73.04849879999892,73.04849879999892,73.04849879999892,73.04849879999892,,002,P015,2025_Feb_28_1840,CategoryLocalizer,2021.2.3,59.94492260487078,
36.8,37.0,5,0.0,Stimuli\Blank.png,0,0,0,50,50,50,,,,,,,,,,,,,36.81502879999971,0.01502879999971185,None,73.84920259999853,73.84920259999853,73.84920259999853,73.84920259999853,73.84920259999853,73.84920259999853,73.84920259999853,73.84920259999853,,002,P015,2025_Feb_28_1840,CategoryLocalizer,2021.2.3,59.94492260487078,
37.0,37.8,2,0.75,Stimuli\ImageFiles-Set2\Bodies\Bodies_Running_00004.png,0,0,0,51,51,51,,,,,,,,,,,,,37.01508020000256,0.015080200002557831,None,74.04937639999844,74.04937639999844,74.04937639999844,74.04937639999844,74.04937639999844,74.04937639999844,74.04937639999844,74.04937639999844,,002,P015,2025_Feb_28_1840,CategoryLocalizer,2021.2.3,59.94492260487078,
37.8,38.0,5,0.0,Stimuli\Blank.png,0,0,0,52,52,52,,,,,,,,,,,,,37.80028410000159,0.00028410000159340143,None,74.85011479999957,74.85011479999957,74.85011479999957,74.85011479999957,74.85011479999957,74.85011479999957,74.85011479999957,74.85011479999957,,002,P015,2025_Feb_28_1840,CategoryLocalizer,2021.2.3,59.94492260487078,
38.0,38.8,2,0.75,Stimuli\ImageFiles-Set2\Bodies\Bodies_Crawling_00002.png,0,0,0,53,53,53,,,,,,,,,,,,,38.0166195999991,0.01661959999910323,None,75.06695989999935,75.06695989999935,75.06695989999935,75.06695989999935,75.06695989999935,75.06695989999935,75.06695989999935,75.06695989999935,,002,P015,2025_Feb_28_1840,CategoryLocalizer,2021.2.3,59.94492260487078,
38.8,39.0,5,0.0,Stimuli\Blank.png,0,0,0,54,54,54,,,,,,,,,,,,,38.81702679999944,0.017026799999442233,None,75.85097699999824,75.85097699999824,75.85097699999824,75.85097699999824,75.85097699999824,75.85097699999824,75.85097699999824,75.85097699999824,,002,P015,2025_Feb_28_1840,CategoryLocalizer,2021.2.3,59.94492260487078,
39.0,39.8,2,0.75,Stimuli\ImageFiles-Set2\Bodies\Bodies_Running_00002.png,0,0,0,55,55,55,,,,,,,,,,,,,39.000560500000574,0.0005605000005743932,None,76.03447909999886,76.03447909999886,76.03447909999886,76.03447909999886,76.03447909999886,76.03447909999886,76.03447909999886,76.03447909999886,,002,P015,2025_Feb_28_1840,CategoryLocalizer,2021.2.3,59.94492260487078,
39.8,40.0,5,0.0,Stimuli\Blank.png,0,0,0,56,56,56,,,,,,,,,,,,,39.80061150000256,0.0006115000025630479,None,76.8351791999994,76.8351791999994,76.8351791999994,76.8351791999994,76.8351791999994,76.8351791999994,76.8351791999994,76.8351791999994,,002,P015,2025_Feb_28_1840,CategoryLocalizer,2021.2.3,59.94492260487078,
40.0,40.8,2,0.75,Stimuli\ImageFiles-Set2\Bodies\Bodies_Falling_00001.png,0,0,0,57,57,57,,,,,,,,,,,,,40.00169359999927,0.0016935999992711004,None,77.05204370000138,77.05204370000138,77.05204370000138,77.05204370000138,77.05204370000138,77.05204370000138,77.05204370000138,77.05204370000138,,002,P015,2025_Feb_28_1840,CategoryLocalizer,2021.2.3,59.94492260487078,
40.8,41.0,5,0.0,Stimuli\Blank.png,0,0,0,58,58,58,,,,,,,,,,,,,40.82087650000176,0.02087650000176211,None,77.8694362999995,77.8694362999995,77.8694362999995,77.8694362999995,77.8694362999995,77.8694362999995,77.8694362999995,77.8694362999995,,002,P015,2025_Feb_28_1840,CategoryLocalizer,2021.2.3,59.94492260487078,
41.0,41.8,2,0.75,Stimuli\ImageFiles-Set2\Bodies\Bodies_SittingFloor_00001.png,1,1,0,59,59,59,,,,,,,,,,,,,41.02014079999935,0.020140799999353476,None,78.06964049999806,78.06964049999806,78.06964049999806,78.06964049999806,78.06964049999806,78.06964049999806,78.06964049999806,78.06964049999806,,002,P015,2025_Feb_28_1840,CategoryLocalizer,2021.2.3,59.94492260487078,
41.8,42.0,5,0.0,Stimuli\Blank.png,0,0,0,60,60,60,,,,,,,,,,,,,41.81971429999976,0.019714299999762375,None,78.85363929999949,78.85363929999949,78.85363929999949,78.85363929999949,78.85363929999949,78.85363929999949,78.85363929999949,78.85363929999949,,002,P015,2025_Feb_28_1840,CategoryLocalizer,2021.2.3,59.94492260487078,
42.0,42.8,2,0.75,Stimuli\ImageFiles-Set2\Bodies\Bodies_SittingFloor_00006.png,0,0,0,61,61,61,,,,,,,,,,,,,42.00396660000115,0.003966600001149345,None,79.05381320000015,79.05381320000015,79.05381320000015,79.05381320000015,79.05381320000015,79.05381320000015,79.05381320000015,79.05381320000015,,002,P015,2025_Feb_28_1840,CategoryLocalizer,2021.2.3,59.94492260487078,
42.8,43.0,5,0.0,Stimuli\Blank.png,0,0,0,62,62,62,,,,,,,,,,,,,42.820643400002155,0.020643400002157364,None,79.85450929999934,79.85450929999934,79.85450929999934,79.85450929999934,79.85450929999934,79.85450929999934,79.85450929999934,79.85450929999934,,002,P015,2025_Feb_28_1840,CategoryLocalizer,2021.2.3,59.94492260487078,
43.0,43.8,2,0.75,Stimuli\ImageFiles-Set2\Bodies\Bodies_SittingFloor_00006.png,0,0,0,63,63,63,,,,,,,,,,,,,43.00374720000036,0.0037472000003617723,1,80.03801290000047,80.03801290000047,80.03801290000047,80.03801290000047,80.03801290000047,80.03801290000047,80.03801290000047,80.03801290000047,0.4541285000013886,002,P015,2025_Feb_28_1840,CategoryLocalizer,2021.2.3,59.94492260487078,
43.8,44.0,5,0.0,Stimuli\Blank.png,0,0,0,64,64,64,,,,,,,,,,,,,43.8048818999996,0.004881899999602979,None,80.83872239999982,80.83872239999982,80.83872239999982,80.83872239999982,80.83872239999982,80.83872239999982,80.83872239999982,80.83872239999982,,002,P015,2025_Feb_28_1840,CategoryLocalizer,2021.2.3,59.94492260487078,
44.0,44.8,3,0.75,Stimuli\ImageFiles-Set2\Faces\Face_00080.png,0,0,0,65,65,65,,,,,,,,,,,,,44.004415499999595,0.00441549999959534,None,81.03888979999829,81.03888979999829,81.03888979999829,81.03888979999829,81.03888979999829,81.03888979999829,81.03888979999829,81.03888979999829,,002,P015,2025_Feb_28_1840,CategoryLocalizer,2021.2.3,59.94492260487078,
44.8,45.0,5,0.0,Stimuli\Blank.png,0,0,0,66,66,66,,,,,,,,,,,,,44.80644250000114,0.006442500001142548,None,81.85632220000116,81.85632220000116,81.85632220000116,81.85632220000116,81.85632220000116,81.85632220000116,81.85632220000116,81.85632220000116,,002,P015,2025_Feb_28_1840,CategoryLocalizer,2021.2.3,59.94492260487078,
45.0,45.8,3,0.75,Stimuli\ImageFiles-Set2\Faces\Face_00017.png,0,0,0,67,67,67,,,,,,,,,,,,,45.02258409999922,0.022584099999221507,None,82.05645989999903,82.05645989999903,82.05645989999903,82.05645989999903,82.05645989999903,82.05645989999903,82.05645989999903,82.05645989999903,,002,P015,2025_Feb_28_1840,CategoryLocalizer,2021.2.3,59.94492260487078,
45.8,46.0,5,0.0,Stimuli\Blank.png,0,0,0,68,68,68,,,,,,,,,,,,,45.80604830000084,0.0060483000008417775,None,82.84050579999894,82.84050579999894,82.84050579999894,82.84050579999894,82.84050579999894,82.84050579999894,82.84050579999894,82.84050579999894,,002,P015,2025_Feb_28_1840,CategoryLocalizer,2021.2.3,59.94492260487078,
46.0,46.8,3,0.75,Stimuli\ImageFiles-Set2\Faces\Face_00034.png,0,0,0,69,69,69,,,,,,,,,,,,,46.00682620000225,0.006826200002251426,None,83.04066990000138,83.04066990000138,83.04066990000138,83.04066990000138,83.04066990000138,83.04066990000138,83.04066990000138,83.04066990000138,,002,P015,2025_Feb_28_1840,CategoryLocalizer,2021.2.3,59.94492260487078,
46.8,47.0,5,0.0,Stimuli\Blank.png,0,0,0,70,70,70,,,,,,,,,,,,,46.8069381000023,0.006938100002301439,None,83.84134769999946,83.84134769999946,83.84134769999946,83.84134769999946,83.84134769999946,83.84134769999946,83.84134769999946,83.84134769999946,,002,P015,2025_Feb_28_1840,CategoryLocalizer,2021.2.3,59.94492260487078,
47.0,47.8,3,0.75,Stimuli\ImageFiles-Set2\Faces\Face_00076.png,0,0,0,71,71,71,,,,,,,,,,,,,47.00769020000007,0.0076902000000700355,None,84.0415510999992,84.0415510999992,84.0415510999992,84.0415510999992,84.0415510999992,84.0415510999992,84.0415510999992,84.0415510999992,,002,P015,2025_Feb_28_1840,CategoryLocalizer,2021.2.3,59.94492260487078,
47.8,48.0,5,0.0,Stimuli\Blank.png,0,0,0,72,72,72,,,,,,,,,,,,,47.80850260000079,0.008502600000795724,None,84.8422767000011,84.8422767000011,84.8422767000011,84.8422767000011,84.8422767000011,84.8422767000011,84.8422767000011,84.8422767000011,,002,P015,2025_Feb_28_1840,CategoryLocalizer,2021.2.3,59.94492260487078,
48.0,48.8,3,0.75,Stimuli\ImageFiles-Set2\Faces\Face_00106.png,0,0,0,73,73,73,,,,,,,,,,,,,48.00941489999968,0.009414899999683257,None,85.0591542000002,85.0591542000002,85.0591542000002,85.0591542000002,85.0591542000002,85.0591542000002,85.0591542000002,85.0591542000002,,002,P015,2025_Feb_28_1840,CategoryLocalizer,2021.2.3,59.94492260487078,
48.8,49.0,5,0.0,Stimuli\Blank.png,0,0,0,74,74,74,,,,,,,,,,,,,48.82532320000246,0.02532320000246102,None,85.85986050000065,85.85986050000065,85.85986050000065,85.85986050000065,85.85986050000065,85.85986050000065,85.85986050000065,85.85986050000065,,002,P015,2025_Feb_28_1840,CategoryLocalizer,2021.2.3,59.94492260487078,
49.0,49.8,3,0.75,Stimuli\ImageFiles-Set2\Faces\Face_00019.png,0,0,0,75,75,75,,,,,,,,,,,,,49.011356400002114,0.011356400002114242,None,86.06002040000021,86.06002040000021,86.06002040000021,86.06002040000021,86.06002040000021,86.06002040000021,86.06002040000021,86.06002040000021,,002,P015,2025_Feb_28_1840,CategoryLocalizer,2021.2.3,59.94492260487078,
49.8,50.0,5,0.0,Stimuli\Blank.png,0,0,0,76,76,76,,,,,,,,,,,,,49.826892700002645,0.026892700002647985,None,86.86072630000126,86.86072630000126,86.86072630000126,86.86072630000126,86.86072630000126,86.86072630000126,86.86072630000126,86.86072630000126,,002,P015,2025_Feb_28_1840,CategoryLocalizer,2021.2.3,59.94492260487078,
50.0,50.8,3,0.75,Stimuli\ImageFiles-Set2\Faces\Face_00074.png,0,0,0,77,77,77,,,,,,,,,,,,,50.00960069999928,0.00960069999928237,None,87.060912500001,87.060912500001,87.060912500001,87.060912500001,87.060912500001,87.060912500001,87.060912500001,87.060912500001,,002,P015,2025_Feb_28_1840,CategoryLocalizer,2021.2.3,59.94492260487078,
50.8,51.0,5,0.0,Stimuli\Blank.png,0,0,0,78,78,78,,,,,,,,,,,,,50.82731820000117,0.027318200001175796,None,87.86161269999866,87.86161269999866,87.86161269999866,87.86161269999866,87.86161269999866,87.86161269999866,87.86161269999866,87.86161269999866,,002,P015,2025_Feb_28_1840,CategoryLocalizer,2021.2.3,59.94492260487078,
51.0,51.8,3,0.75,Stimuli\ImageFiles-Set2\Faces\Face_00072.png,0,0,0,79,79,79,,,,,,,,,,,,,51.011843000000226,0.011843000000226311,None,88.06177879999814,88.06177879999814,88.06177879999814,88.06177879999814,88.06177879999814,88.06177879999814,88.06177879999814,88.06177879999814,,002,P015,2025_Feb_28_1840,CategoryLocalizer,2021.2.3,59.94492260487078,
51.8,52.0,5,0.0,Stimuli\Blank.png,0,0,0,80,80,80,,,,,,,,,,,,,51.82875050000075,0.028750500000754187,None,88.86258879999878,88.86258879999878,88.86258879999878,88.86258879999878,88.86258879999878,88.86258879999878,88.86258879999878,88.86258879999878,,002,P015,2025_Feb_28_1840,CategoryLocalizer,2021.2.3,59.94492260487078,
52.0,52.8,3,0.75,Stimuli\ImageFiles-Set2\Faces\Face_00015.png,0,0,0,81,81,81,,,,,,,,,,,,,52.01149989999976,0.01149989999976242,None,89.04598989999795,89.04598989999795,89.04598989999795,89.04598989999795,89.04598989999795,89.04598989999795,89.04598989999795,89.04598989999795,,002,P015,2025_Feb_28_1840,CategoryLocalizer,2021.2.3,59.94492260487078,
52.8,53.0,5,0.0,Stimuli\Blank.png,0,0,0,82,82,82,,,,,,,,,,,,,52.81312270000126,0.013122700001261478,None,89.8467027000006,89.8467027000006,89.8467027000006,89.8467027000006,89.8467027000006,89.8467027000006,89.8467027000006,89.8467027000006,,002,P015,2025_Feb_28_1840,CategoryLocalizer,2021.2.3,59.94492260487078,
53.0,53.8,3,0.75,Stimuli\ImageFiles-Set2\Faces\Face_00036.png,0,0,0,83,83,83,,,,,,,,,,,,,53.01293580000129,0.012935800001287134,None,90.04686550000042,90.04686550000042,90.04686550000042,90.04686550000042,90.04686550000042,90.04686550000042,90.04686550000042,90.04686550000042,,002,P015,2025_Feb_28_1840,CategoryLocalizer,2021.2.3,59.94492260487078,
53.8,54.0,5,0.0,Stimuli\Blank.png,0,0,0,84,84,84,,,,,,,,,,,,,53.81394480000017,0.01394480000017495,None,90.84758109999893,90.84758109999893,90.84758109999893,90.84758109999893,90.84758109999893,90.84758109999893,90.84758109999893,90.84758109999893,,002,P015,2025_Feb_28_1840,CategoryLocalizer,2021.2.3,59.94492260487078,
54.0,54.8,3,0.75,Stimuli\ImageFiles-Set2\Faces\Face_00036.png,1,1,0,85,85,85,,,,,,,,,,,,,54.01369440000053,0.01369440000053146,1,91.047755399999,91.047755399999,91.047755399999,91.047755399999,91.047755399999,91.047755399999,91.047755399999,91.047755399999,0.6604837000013504,002,P015,2025_Feb_28_1840,CategoryLocalizer,2021.2.3,59.94492260487078,
54.8,55.0,5,0.0,Stimuli\Blank.png,0,0,0,86,86,86,,,,,,,,,,,,,54.814560700000584,0.014560700000586735,None,91.8484772999982,91.8484772999982,91.8484772999982,91.8484772999982,91.8484772999982,91.8484772999982,91.8484772999982,91.8484772999982,,002,P015,2025_Feb_28_1840,CategoryLocalizer,2021.2.3,59.94492260487078,
55.0,55.8,3,0.75,Stimuli\ImageFiles-Set2\Faces\Face_00010.png,0,0,0,87,87,87,,,,,,,,,,,,,55.01416020000033,0.014160200000333134,None,92.04864559999987,92.04864559999987,92.04864559999987,92.04864559999987,92.04864559999987,92.04864559999987,92.04864559999987,92.04864559999987,,002,P015,2025_Feb_28_1840,CategoryLocalizer,2021.2.3,59.94492260487078,
55.8,56.0,5,0.0,Stimuli\Blank.png,0,0,0,88,88,88,,,,,,,,,,,,,55.81552759999977,0.015527599999771269,None,92.84936929999822,92.84936929999822,92.84936929999822,92.84936929999822,92.84936929999822,92.84936929999822,92.84936929999822,92.84936929999822,,002,P015,2025_Feb_28_1840,CategoryLocalizer,2021.2.3,59.94492260487078,
56.0,56.8,3,0.75,Stimuli\ImageFiles-Set2\Faces\Face_00066.png,0,0,0,89,89,89,,,,,,,,,,,,,55.999099299999216,-0.000900700000784127,None,93.04950430000099,93.04950430000099,93.04950430000099,93.04950430000099,93.04950430000099,93.04950430000099,93.04950430000099,93.04950430000099,,002,P015,2025_Feb_28_1840,CategoryLocalizer,2021.2.3,59.94492260487078,
56.8,57.0,5,0.0,Stimuli\Blank.png,0,0,0,90,90,90,,,,,,,,,,,,,56.818082500001765,0.0180825000017677,None,93.8669418999998,93.8669418999998,93.8669418999998,93.8669418999998,93.8669418999998,93.8669418999998,93.8669418999998,93.8669418999998,,002,P015,2025_Feb_28_1840,CategoryLocalizer,2021.2.3,59.94492260487078,
57.0,57.8,3,0.75,Stimuli\ImageFiles-Set2\Faces\Face_00026.png,0,0,0,91,91,91,,,,,,,,,,,,,57.01588610000181,0.01588610000180779,None,94.05041549999805,94.05041549999805,94.05041549999805,94.05041549999805,94.05041549999805,94.05041549999805,94.05041549999805,94.05041549999805,,002,P015,2025_Feb_28_1840,CategoryLocalizer,2021.2.3,59.94492260487078,
57.8,58.0,5,0.0,Stimuli\Blank.png,0,0,0,92,92,92,,,,,,,,,,,,,57.80094950000057,0.0009495000005728116,None,94.8345178999989,94.8345178999989,94.8345178999989,94.8345178999989,94.8345178999989,94.8345178999989,94.8345178999989,94.8345178999989,,002,P015,2025_Feb_28_1840,CategoryLocalizer,2021.2.3,59.94492260487078,
58.0,58.8,3,0.75,Stimuli\ImageFiles-Set2\Faces\Face_00002.png,0,0,0,93,93,93,,,,,,,,,,,,,58.00169480000113,0.0016948000011325348,None,95.05134109999926,95.05134109999926,95.05134109999926,95.05134109999926,95.05134109999926,95.05134109999926,95.05134109999926,95.05134109999926,,002,P015,2025_Feb_28_1840,CategoryLocalizer,2021.2.3,59.94492260487078,
58.8,59.0,5,0.0,Stimuli\Blank.png,0,0,0,94,94,94,,,,,,,,,,,,,58.81767260000197,0.017672600001972683,None,95.85201759999836,95.85201759999836,95.85201759999836,95.85201759999836,95.85201759999836,95.85201759999836,95.85201759999836,95.85201759999836,,002,P015,2025_Feb_28_1840,CategoryLocalizer,2021.2.3,59.94492260487078,
59.0,59.8,3,0.75,Stimuli\ImageFiles-Set2\Faces\Face_00056.png,0,0,0,95,95,95,,,,,,,,,,,,,59.00195040000108,0.0019504000010783784,None,96.05211820000113,96.05211820000113,96.05211820000113,96.05211820000113,96.05211820000113,96.05211820000113,96.05211820000113,96.05211820000113,,002,P015,2025_Feb_28_1840,CategoryLocalizer,2021.2.3,59.94492260487078,
59.8,60.0,5,0.0,Stimuli\Blank.png,0,0,0,96,96,96,,,,,,,,,,,,,59.819249899999704,0.019249899999707054,None,96.85289230000126,96.85289230000126,96.85289230000126,96.85289230000126,96.85289230000126,96.85289230000126,96.85289230000126,96.85289230000126,,002,P015,2025_Feb_28_1840,CategoryLocalizer,2021.2.3,59.94492260487078,
60.0,60.8,4,0.75,Stimuli\ImageFiles-Set2\Scenes\Scenes_112.png,0,0,0,97,97,97,,,,,,,,,,,,,60.00197549999939,0.0019754999993892852,None,97.03639190000104,97.03639190000104,97.03639190000104,97.03639190000104,97.03639190000104,97.03639190000104,97.03639190000104,97.03639190000104,,002,P015,2025_Feb_28_1840,CategoryLocalizer,2021.2.3,59.94492260487078,
60.8,61.0,5,0.0,Stimuli\Blank.png,0,0,0,98,98,98,,,,,,,,,,,,,60.803585400000884,0.003585400000886807,None,97.8371034999982,97.8371034999982,97.8371034999982,97.8371034999982,97.8371034999982,97.8371034999982,97.8371034999982,97.8371034999982,,002,P015,2025_Feb_28_1840,CategoryLocalizer,2021.2.3,59.94492260487078,
61.0,61.8,4,0.75,Stimuli\ImageFiles-Set2\Scenes\Scenes_065.png,0,0,0,99,99,99,,,,,,,,,,,,,61.00353050000194,0.0035305000019434374,None,98.05396240000118,98.05396240000118,98.05396240000118,98.05396240000118,98.05396240000118,98.05396240000118,98.05396240000118,98.05396240000118,,002,P015,2025_Feb_28_1840,CategoryLocalizer,2021.2.3,59.94492260487078,
61.8,62.0,5,0.0,Stimuli\Blank.png,0,0,0,100,100,100,,,,,,,,,,,,,61.821970100001636,0.02197010000163857,None,98.87136309999914,98.87136309999914,98.87136309999914,98.87136309999914,98.87136309999914,98.87136309999914,98.87136309999914,98.87136309999914,,002,P015,2025_Feb_28_1840,CategoryLocalizer,2021.2.3,59.94492260487078,
62.0,62.8,4,0.75,Stimuli\ImageFiles-Set2\Scenes\Scenes_081.png,0,0,0,101,101,101,,,,,,,,,,,,,62.021681099999114,0.02168109999911394,None,99.0715311999993,99.0715311999993,99.0715311999993,99.0715311999993,99.0715311999993,99.0715311999993,99.0715311999993,99.0715311999993,,002,P015,2025_Feb_28_1840,CategoryLocalizer,2021.2.3,59.94492260487078,
62.8,63.0,5,0.0,Stimuli\Blank.png,0,0,0,102,102,102,,,,,,,,,,,,,62.82092069999999,0.02092069999999069,None,99.85560329999862,99.85560329999862,99.85560329999862,99.85560329999862,99.85560329999862,99.85560329999862,99.85560329999862,99.85560329999862,,002,P015,2025_Feb_28_1840,CategoryLocalizer,2021.2.3,59.94492260487078,
63.0,63.8,4,0.75,Stimuli\ImageFiles-Set2\Scenes\Scenes_081.png,1,1,0,103,103,103,,,,,,,,,,,,,63.00692899999922,0.006928999999217922,1,100.05574820000038,100.05574820000038,100.05574820000038,100.05574820000038,100.05574820000038,100.05574820000038,100.05574820000038,100.05574820000038,0.68745349999881,002,P015,2025_Feb_28_1840,CategoryLocalizer,2021.2.3,59.94492260487078,
63.8,64.0,5,0.0,Stimuli\Blank.png,0,0,0,104,104,104,,,,,,,,,,,,,63.82318520000263,0.023185200002629358,None,100.85644039999897,100.85644039999897,100.85644039999897,100.85644039999897,100.85644039999897,100.85644039999897,100.85644039999897,100.85644039999897,,002,P015,2025_Feb_28_1840,CategoryLocalizer,2021.2.3,59.94492260487078,
64.0,64.8,4,0.75,Stimuli\ImageFiles-Set2\Scenes\Scenes_105.png,0,0,0,105,105,105,,,,,,,,,,,,,64.00601409999945,0.006014099999447353,None,101.05662699999812,101.05662699999812,101.05662699999812,101.05662699999812,101.05662699999812,101.05662699999812,101.05662699999812,101.05662699999812,,002,P015,2025_Feb_28_1840,CategoryLocalizer,2021.2.3,59.94492260487078,
64.8,65.0,5,0.0,Stimuli\Blank.png,0,0,0,106,106,106,,,,,,,,,,,,,64.82366349999938,0.023663499999386772,None,101.857340999999,101.857340999999,101.857340999999,101.857340999999,101.857340999999,101.857340999999,101.857340999999,101.857340999999,,002,P015,2025_Feb_28_1840,CategoryLocalizer,2021.2.3,59.94492260487078,
65.0,65.8,4,0.75,Stimuli\ImageFiles-Set2\Scenes\Scenes_063.png,0,0,0,107,107,107,,,,,,,,,,,,,65.00651490000018,0.006514900000183843,None,102.05750999999873,102.05750999999873,102.05750999999873,102.05750999999873,102.05750999999873,102.05750999999873,102.05750999999873,102.05750999999873,,002,P015,2025_Feb_28_1840,CategoryLocalizer,2021.2.3,59.94492260487078,
65.8,66.0,5,0.0,Stimuli\Blank.png,0,0,0,108,108,108,,,,,,,,,,,,,65.82592600000135,0.02592600000134837,None,102.8749089999983,102.8749089999983,102.8749089999983,102.8749089999983,102.8749089999983,102.8749089999983,102.8749089999983,102.8749089999983,,002,P015,2025_Feb_28_1840,CategoryLocalizer,2021.2.3,59.94492260487078,
66.0,66.8,4,0.75,Stimuli\ImageFiles-Set2\Scenes\Scenes_084.png,0,0,0,109,109,109,,,,,,,,,,,,,66.02620250000109,0.02620250000109081,None,103.07508170000074,103.07508170000074,103.07508170000074,103.07508170000074,103.07508170000074,103.07508170000074,103.07508170000074,103.07508170000074,,002,P015,2025_Feb_28_1840,CategoryLocalizer,2021.2.3,59.94492260487078,
66.8,67.0,5,0.0,Stimuli\Blank.png,0,0,0,110,110,110,,,,,,,,,,,,,66.8262977000013,0.026297700001308044,None,103.87578560000111,103.87578560000111,103.87578560000111,103.87578560000111,103.87578560000111,103.87578560000111,103.87578560000111,103.87578560000111,,002,P015,2025_Feb_28_1840,CategoryLocalizer,2021.2.3,59.94492260487078,
67.0,67.8,4,0.75,Stimuli\ImageFiles-Set2\Scenes\Scenes_104.png,0,0,0,111,111,111,,,,,,,,,,,,,67.02609040000243,0.026090400002431124,None,104.07592629999999,104.07592629999999,104.07592629999999,104.07592629999999,104.07592629999999,104.07592629999999,104.07592629999999,104.07592629999999,,002,P015,2025_Feb_28_1840,CategoryLocalizer,2021.2.3,59.94492260487078,
67.8,68.0,5,0.0,Stimuli\Blank.png,0,0,0,112,112,112,,,,,,,,,,,,,67.82604450000144,0.02604450000144709,None,104.860012000001,104.860012000001,104.860012000001,104.860012000001,104.860012000001,104.860012000001,104.860012000001,104.860012000001,,002,P015,2025_Feb_28_1840,CategoryLocalizer,2021.2.3,59.94492260487078,
68.0,68.8,4,0.75,Stimuli\ImageFiles-Set2\Scenes\Scenes_070.png,0,0,0,113,113,113,,,,,,,,,,,,,68.00981400000092,0.009814000000915257,None,105.0601691999982,105.0601691999982,105.0601691999982,105.0601691999982,105.0601691999982,105.0601691999982,105.0601691999982,105.0601691999982,,002,P015,2025_Feb_28_1840,CategoryLocalizer,2021.2.3,59.94492260487078,
68.8,69.0,5,0.0,Stimuli\Blank.png,0,0,0,114,114,114,,,,,,,,,,,,,68.82726700000057,0.027267000000577468,None,105.86088499999823,105.86088499999823,105.86088499999823,105.86088499999823,105.86088499999823,105.86088499999823,105.86088499999823,105.86088499999823,,002,P015,2025_Feb_28_1840,CategoryLocalizer,2021.2.3,59.94492260487078,
69.0,69.8,4,0.75,Stimuli\ImageFiles-Set2\Scenes\Scenes_089.png,0,0,0,115,115,115,,,,,,,,,,,,,69.01039149999997,0.0103914999999688,None,106.06104969999797,106.06104969999797,106.06104969999797,106.06104969999797,106.06104969999797,106.06104969999797,106.06104969999797,106.06104969999797,,002,P015,2025_Feb_28_1840,CategoryLocalizer,2021.2.3,59.94492260487078,
69.8,70.0,5,0.0,Stimuli\Blank.png,0,0,0,116,116,116,,,,,,,,,,,,,69.82718100000056,0.027181000000567224,None,106.86175839999851,106.86175839999851,106.86175839999851,106.86175839999851,106.86175839999851,106.86175839999851,106.86175839999851,106.86175839999851,,002,P015,2025_Feb_28_1840,CategoryLocalizer,2021.2.3,59.94492260487078,
70.0,70.8,4,0.75,Stimuli\ImageFiles-Set2\Scenes\Scenes_071.png,1,1,0,117,117,117,,,,,,,,,,,,,70.01123110000117,0.01123110000116867,None,107.06194450000112,107.06194450000112,107.06194450000112,107.06194450000112,107.06194450000112,107.06194450000112,107.06194450000112,107.06194450000112,,002,P015,2025_Feb_28_1840,CategoryLocalizer,2021.2.3,59.94492260487078,
70.8,71.0,5,0.0,Stimuli\Blank.png,0,0,0,118,118,118,,,,,,,,,,,,,70.82932570000048,0.02932570000048429,None,107.8626637999987,107.8626637999987,107.8626637999987,107.8626637999987,107.8626637999987,107.8626637999987,107.8626637999987,107.8626637999987,,002,P015,2025_Feb_28_1840,CategoryLocalizer,2021.2.3,59.94492260487078,
71.0,71.8,4,0.75,Stimuli\ImageFiles-Set2\Scenes\Scenes_073.png,0,0,0,119,119,119,,,,,,,,,,,,,71.0115418000023,0.011541800002305536,None,108.06282769999962,108.06282769999962,108.06282769999962,108.06282769999962,108.06282769999962,108.06282769999962,108.06282769999962,108.06282769999962,,002,P015,2025_Feb_28_1840,CategoryLocalizer,2021.2.3,59.94492260487078,
71.8,72.0,5,0.0,Stimuli\Blank.png,0,0,0,120,120,120,,,,,,,,,,,,,71.8313519000003,0.031351900000302635,None,108.88024450000012,108.88024450000012,108.88024450000012,108.88024450000012,108.88024450000012,108.88024450000012,108.88024450000012,108.88024450000012,,002,P015,2025_Feb_28_1840,CategoryLocalizer,2021.2.3,59.94492260487078,
72.0,72.8,4,0.75,Stimuli\ImageFiles-Set2\Scenes\Scenes_073.png,0,0,0,121,121,121,,,,,,,,,,,,,72.03063920000204,0.030639200002042344,1,109.08039189999909,109.08039189999909,109.08039189999909,109.08039189999909,109.08039189999909,109.08039189999909,109.08039189999909,109.08039189999909,0.4369583000006969,002,P015,2025_Feb_28_1840,CategoryLocalizer,2021.2.3,59.94492260487078,
72.8,73.0,5,0.0,Stimuli\Blank.png,0,0,0,122,122,122,,,,,,,,,,,,,72.8298504000013,0.02985040000130823,None,109.8643919999995,109.8643919999995,109.8643919999995,109.8643919999995,109.8643919999995,109.8643919999995,109.8643919999995,109.8643919999995,,002,P015,2025_Feb_28_1840,CategoryLocalizer,2021.2.3,59.94492260487078,
73.0,73.8,4,0.75,Stimuli\ImageFiles-Set2\Scenes\Scenes_066.png,0,0,0,123,123,123,,,,,,,,,,,,,73.01398690000133,0.01398690000132774,None,110.04790589999902,110.04790589999902,110.04790589999902,110.04790589999902,110.04790589999902,110.04790589999902,110.04790589999902,110.04790589999902,,002,P015,2025_Feb_28_1840,CategoryLocalizer,2021.2.3,59.94492260487078,
73.8,74.0,5,0.0,Stimuli\Blank.png,0,0,0,124,124,124,,,,,,,,,,,,,73.8141921000024,0.014192100002404118,None,110.84862399999838,110.84862399999838,110.84862399999838,110.84862399999838,110.84862399999838,110.84862399999838,110.84862399999838,110.84862399999838,,002,P015,2025_Feb_28_1840,CategoryLocalizer,2021.2.3,59.94492260487078,
74.0,74.8,4,0.75,Stimuli\ImageFiles-Set2\Scenes\Scenes_107.png,0,0,0,125,125,125,,,,,,,,,,,,,74.01558600000135,0.01558600000134902,None,111.06548359999942,111.06548359999942,111.06548359999942,111.06548359999942,111.06548359999942,111.06548359999942,111.06548359999942,111.06548359999942,,002,P015,2025_Feb_28_1840,CategoryLocalizer,2021.2.3,59.94492260487078,
74.8,75.0,5,0.0,Stimuli\Blank.png,0,0,0,126,126,126,,,,,,,,,,,,,74.81647259999954,0.016472599999545423,None,111.84963680000146,111.84963680000146,111.84963680000146,111.84963680000146,111.84963680000146,111.84963680000146,111.84963680000146,111.84963680000146,,002,P015,2025_Feb_28_1840,CategoryLocalizer,2021.2.3,59.94492260487078,
75.0,75.8,4,0.75,Stimuli\ImageFiles-Set2\Scenes\Scenes_067.png,0,0,0,127,127,127,,,,,,,,,,,,,74.99947000000247,-0.0005299999975250103,None,112.04968879999797,112.04968879999797,112.04968879999797,112.04968879999797,112.04968879999797,112.04968879999797,112.04968879999797,112.04968879999797,,002,P015,2025_Feb_28_1840,CategoryLocalizer,2021.2.3,59.94492260487078,
75.8,76.0,5,0.0,Stimuli\Blank.png,0,0,0,128,128,128,,,,,,,,,,,,,75.81590890000007,0.015908900000070503,None,112.85038480000003,112.85038480000003,112.85038480000003,112.85038480000003,112.85038480000003,112.85038480000003,112.85038480000003,112.85038480000003,,002,P015,2025_Feb_28_1840,CategoryLocalizer,2021.2.3,59.94492260487078,
76.0,88.0,0,0.0,Stimuli\Blank.png,0,0,0,129,129,129,,,,,,,,,,,,,76.00001899999916,1.8999999156221747e-05,None,113.03388930000074,113.03388930000074,113.03388930000074,113.03388930000074,113.03388930000074,113.03388930000074,113.03388930000074,113.03388930000074,,002,P015,2025_Feb_28_1840,CategoryLocalizer,2021.2.3,59.94492260487078,
88.0,88.8,3,0.75,Stimuli\ImageFiles-Set2\Faces\Face_00011.png,0,0,0,130,130,130,,,,,,,,,,,,,88.01068010000017,0.010680100000172388,None,125.04451979999794,125.04451979999794,125.04451979999794,125.04451979999794,125.04451979999794,125.04451979999794,125.04451979999794,125.04451979999794,,002,P015,2025_Feb_28_1840,CategoryLocalizer,2021.2.3,59.94492260487078,
88.8,89.0,5,0.0,Stimuli\Blank.png,0,0,0,131,131,131,,,,,,,,,,,,,88.81081360000098,0.010813600000986412,None,125.8452287,125.8452287,125.8452287,125.8452287,125.8452287,125.8452287,125.8452287,125.8452287,,002,P015,2025_Feb_28_1840,CategoryLocalizer,2021.2.3,59.94492260487078,
89.0,89.8,3,0.75,Stimuli\ImageFiles-Set2\Faces\Face_00054.png,0,0,0,132,132,132,,,,,,,,,,,,,89.01184420000209,0.011844200002087746,None,126.06211189999885,126.06211189999885,126.06211189999885,126.06211189999885,126.06211189999885,126.06211189999885,126.06211189999885,126.06211189999885,,002,P015,2025_Feb_28_1840,CategoryLocalizer,2021.2.3,59.94492260487078,
89.8,90.0,5,0.0,Stimuli\Blank.png,0,0,0,133,133,133,,,,,,,,,,,,,89.8289560000012,0.028956000001201687,None,126.86279659999855,126.86279659999855,126.86279659999855,126.86279659999855,126.86279659999855,126.86279659999855,126.86279659999855,126.86279659999855,,002,P015,2025_Feb_28_1840,CategoryLocalizer,2021.2.3,59.94492260487078,
90.0,90.8,3,0.75,Stimuli\ImageFiles-Set2\Faces\Face_00050.png,0,0,0,134,134,134,,,,,,,,,,,,,90.01192140000057,0.011921400000574067,None,127.04628669999875,127.04628669999875,127.04628669999875,127.04628669999875,127.04628669999875,127.04628669999875,127.04628669999875,127.04628669999875,,002,P015,2025_Feb_28_1840,CategoryLocalizer,2021.2.3,59.94492260487078,
90.8,91.0,5,0.0,Stimuli\Blank.png,0,0,0,135,135,135,,,,,,,,,,,,,90.81242760000168,0.0124276000016863,None,127.84699439999895,127.84699439999895,127.84699439999895,127.84699439999895,127.84699439999895,127.84699439999895,127.84699439999895,127.84699439999895,,002,P015,2025_Feb_28_1840,CategoryLocalizer,2021.2.3,59.94492260487078,
91.0,91.8,3,0.75,Stimuli\ImageFiles-Set2\Faces\Face_00004.png,0,0,0,136,136,136,,,,,,,,,,,,,91.01340329999948,0.013403299999481533,None,128.04717869999877,128.04717869999877,128.04717869999877,128.04717869999877,128.04717869999877,128.04717869999877,128.04717869999877,128.04717869999877,,002,P015,2025_Feb_28_1840,CategoryLocalizer,2021.2.3,59.94492260487078,
91.8,92.0,5,0.0,Stimuli\Blank.png,0,0,0,137,137,137,,,,,,,,,,,,,91.81349580000096,0.013495800000967506,None,128.8478905999982,128.8478905999982,128.8478905999982,128.8478905999982,128.8478905999982,128.8478905999982,128.8478905999982,128.8478905999982,,002,P015,2025_Feb_28_1840,CategoryLocalizer,2021.2.3,59.94492260487078,
92.0,92.8,3,0.75,Stimuli\ImageFiles-Set2\Faces\Face_00004.png,1,1,0,138,138,138,,,,,,,,,,,,,92.01507019999917,0.015070199999172473,1,129.06475520000095,129.06475520000095,129.06475520000095,129.06475520000095,129.06475520000095,129.06475520000095,129.06475520000095,129.06475520000095,0.4196288999992248,002,P015,2025_Feb_28_1840,CategoryLocalizer,2021.2.3,59.94492260487078,
92.8,93.0,5,0.0,Stimuli\Blank.png,0,0,0,139,139,139,,,,,,,,,,,,,92.81569870000021,0.01569870000021467,None,129.84874900000068,129.84874900000068,129.84874900000068,129.84874900000068,129.84874900000068,129.84874900000068,129.84874900000068,129.84874900000068,,002,P015,2025_Feb_28_1840,CategoryLocalizer,2021.2.3,59.94492260487078,
93.0,93.8,3,0.75,Stimuli\ImageFiles-Set2\Faces\Face_00110.png,0,0,0,140,140,140,,,,,,,,,,,,,92.99808660000053,-0.0019133999994664919,None,130.03227229999902,130.03227229999902,130.03227229999902,130.03227229999902,130.03227229999902,130.03227229999902,130.03227229999902,130.03227229999902,,002,P015,2025_Feb_28_1840,CategoryLocalizer,2021.2.3,59.94492260487078,
93.8,94.0,5,0.0,Stimuli\Blank.png,0,0,0,141,141,141,,,,,,,,,,,,,93.81594210000185,0.015942100001851145,None,130.84967200000028,130.84967200000028,130.84967200000028,130.84967200000028,130.84967200000028,130.84967200000028,130.84967200000028,130.84967200000028,,002,P015,2025_Feb_28_1840,CategoryLocalizer,2021.2.3,59.94492260487078,
94.0,94.8,3,0.75,Stimuli\ImageFiles-Set2\Faces\Face_00032.png,0,0,0,142,142,142,,,,,,,,,,,,,93.99857690000135,-0.0014230999986466486,None,131.0331612000009,131.0331612000009,131.0331612000009,131.0331612000009,131.0331612000009,131.0331612000009,131.0331612000009,131.0331612000009,,002,P015,2025_Feb_28_1840,CategoryLocalizer,2021.2.3,59.94492260487078,
94.8,95.0,5,0.0,Stimuli\Blank.png,0,0,0,143,143,143,,,,,,,,,,,,,94.80138570000054,0.0013857000005401687,None,131.85057289999895,131.85057289999895,131.85057289999895,131.85057289999895,131.85057289999895,131.85057289999895,131.85057289999895,131.85057289999895,,002,P015,2025_Feb_28_1840,CategoryLocalizer,2021.2.3,59.94492260487078,
95.0,95.8,3,0.75,Stimuli\ImageFiles-Set2\Faces\Face_00098.png,0,0,0,144,144,144,,,,,,,,,,,,,95.01698319999923,0.016983199999231147,None,132.06740139999965,132.06740139999965,132.06740139999965,132.06740139999965,132.06740139999965,132.06740139999965,132.06740139999965,132.06740139999965,,002,P015,2025_Feb_28_1840,CategoryLocalizer,2021.2.3,59.94492260487078,
95.8,96.0,5,0.0,Stimuli\Blank.png,0,0,0,145,145,145,,,,,,,,,,,,,95.81719200000225,0.01719200000225385,None,132.85162579999815,132.85162579999815,132.85162579999815,132.85162579999815,132.85162579999815,132.85162579999815,132.85162579999815,132.85162579999815,,002,P015,2025_Feb_28_1840,CategoryLocalizer,2021.2.3,59.94492260487078,
96.0,96.8,3,0.75,Stimuli\ImageFiles-Set2\Faces\Face_00030.png,0,0,0,146,146,146,,,,,,,,,,,,,96.00098160000198,0.0009816000019782223,None,133.03495530000146,133.03495530000146,133.03495530000146,133.03495530000146,133.03495530000146,133.03495530000146,133.03495530000146,133.03495530000146,,002,P015,2025_Feb_28_1840,CategoryLocalizer,2021.2.3,59.94492260487078,
96.8,97.0,5,0.0,Stimuli\Blank.png,0,0,0,147,147,147,,,,,,,,,,,,,96.80252010000186,0.0025201000018597597,None,133.8523501999989,133.8523501999989,133.8523501999989,133.8523501999989,133.8523501999989,133.8523501999989,133.8523501999989,133.8523501999989,,002,P015,2025_Feb_28_1840,CategoryLocalizer,2021.2.3,59.94492260487078,
97.0,97.8,3,0.75,Stimuli\ImageFiles-Set2\Faces\Face_00102.png,0,0,0,148,148,148,,,,,,,,,,,,,97.01869870000155,0.018698700001550606,None,134.05246569999872,134.05246569999872,134.05246569999872,134.05246569999872,134.05246569999872,134.05246569999872,134.05246569999872,134.05246569999872,,002,P015,2025_Feb_28_1840,CategoryLocalizer,2021.2.3,59.94492260487078,
97.8,98.0,5,0.0,Stimuli\Blank.png,0,0,0,149,149,149,,,,,,,,,,,,,97.80209430000104,0.0020943000010476,None,134.8365257000005,134.8365257000005,134.8365257000005,134.8365257000005,134.8365257000005,134.8365257000005,134.8365257000005,134.8365257000005,,002,P015,2025_Feb_28_1840,CategoryLocalizer,2021.2.3,59.94492260487078,
98.0,98.8,3,0.75,Stimuli\ImageFiles-Set2\Faces\Face_00060.png,0,0,0,150,150,150,,,,,,,,,,,,,98.0027771999994,0.0027771999994001817,None,135.05340340000112,135.05340340000112,135.05340340000112,135.05340340000112,135.05340340000112,135.05340340000112,135.05340340000112,135.05340340000112,,002,P015,2025_Feb_28_1840,CategoryLocalizer,2021.2.3,59.94492260487078,
98.8,99.0,5,0.0,Stimuli\Blank.png,0,0,0,151,151,151,,,,,,,,,,,,,98.8212769999991,0.021276999999102486,None,135.870805999999,135.870805999999,135.870805999999,135.870805999999,135.870805999999,135.870805999999,135.870805999999,135.870805999999,,002,P015,2025_Feb_28_1840,CategoryLocalizer,2021.2.3,59.94492260487078,
99.0,99.8,3,0.75,Stimuli\ImageFiles-Set2\Faces\Face_00038.png,0,0,0,152,152,152,,,,,,,,,,,,,99.01973830000134,0.01973830000133603,None,136.05427169999894,136.05427169999894,136.05427169999894,136.05427169999894,136.05427169999894,136.05427169999894,136.05427169999894,136.05427169999894,,002,P015,2025_Feb_28_1840,CategoryLocalizer,2021.2.3,59.94492260487078,
99.8,100.0,5,0.0,Stimuli\Blank.png,0,0,0,153,153,153,,,,,,,,,,,,,99.80436240000199,0.004362400001994615,None,136.83828839999842,136.83828839999842,136.83828839999842,136.83828839999842,136.83828839999842,136.83828839999842,136.83828839999842,136.83828839999842,,002,P015,2025_Feb_28_1840,CategoryLocalizer,2021.2.3,59.94492260487078,
100.0,100.8,3,0.75,Stimuli\ImageFiles-Set2\Faces\Face_00070.png,0,0,0,154,154,154,,,,,,,,,,,,,100.00451180000164,0.004511800001637312,None,137.0384715,137.0384715,137.0384715,137.0384715,137.0384715,137.0384715,137.0384715,137.0384715,,002,P015,2025_Feb_28_1840,CategoryLocalizer,2021.2.3,59.94492260487078,
100.8,101.0,5,0.0,Stimuli\Blank.png,0,0,0,155,155,155,,,,,,,,,,,,,100.80531060000067,0.005310600000669297,None,137.8391984000009,137.8391984000009,137.8391984000009,137.8391984000009,137.8391984000009,137.8391984000009,137.8391984000009,137.8391984000009,,002,P015,2025_Feb_28_1840,CategoryLocalizer,2021.2.3,59.94492260487078,
101.0,101.8,3,0.75,Stimuli\ImageFiles-Set2\Faces\Face_00086.png,0,0,0,156,156,156,,,,,,,,,,,,,101.00574100000085,0.0057410000008530915,None,138.05603949999932,138.05603949999932,138.05603949999932,138.05603949999932,138.05603949999932,138.05603949999932,138.05603949999932,138.05603949999932,,002,P015,2025_Feb_28_1840,CategoryLocalizer,2021.2.3,59.94492260487078,
101.8,102.0,5,0.0,Stimuli\Blank.png,0,0,0,157,157,157,,,,,,,,,,,,,101.8233347000023,0.02333470000230875,None,138.85676550000062,138.85676550000062,138.85676550000062,138.85676550000062,138.85676550000062,138.85676550000062,138.85676550000062,138.85676550000062,,002,P015,2025_Feb_28_1840,CategoryLocalizer,2021.2.3,59.94492260487078,
102.0,102.8,3,0.75,Stimuli\ImageFiles-Set2\Faces\Face_00092.png,0,0,0,158,158,158,,,,,,,,,,,,,102.00678300000072,0.006783000000723405,None,139.05692080000154,139.05692080000154,139.05692080000154,139.05692080000154,139.05692080000154,139.05692080000154,139.05692080000154,139.05692080000154,,002,P015,2025_Feb_28_1840,CategoryLocalizer,2021.2.3,59.94492260487078,
102.8,103.0,5,0.0,Stimuli\Blank.png,0,0,0,159,159,159,,,,,,,,,,,,,102.82471930000247,0.024719300002473688,None,139.85761329999877,139.85761329999877,139.85761329999877,139.85761329999877,139.85761329999877,139.85761329999877,139.85761329999877,139.85761329999877,,002,P015,2025_Feb_28_1840,CategoryLocalizer,2021.2.3,59.94492260487078,
103.0,103.8,3,0.75,Stimuli\ImageFiles-Set2\Faces\Face_00094.png,0,0,0,160,160,160,,,,,,,,,,,,,103.00746000000072,0.007460000000719447,None,140.04112489999898,140.04112489999898,140.04112489999898,140.04112489999898,140.04112489999898,140.04112489999898,140.04112489999898,140.04112489999898,,002,P015,2025_Feb_28_1840,CategoryLocalizer,2021.2.3,59.94492260487078,
103.8,104.0,5,0.0,Stimuli\Blank.png,0,0,0,161,161,161,,,,,,,,,,,,,103.80784250000215,0.007842500002155361,None,140.84183570000096,140.84183570000096,140.84183570000096,140.84183570000096,140.84183570000096,140.84183570000096,140.84183570000096,140.84183570000096,,002,P015,2025_Feb_28_1840,CategoryLocalizer,2021.2.3,59.94492260487078,
104.0,104.8,1,0.75,Stimuli\ImageFiles-Set2\Objects\Object_Tape_00001.png,0,0,0,162,162,162,,,,,,,,,,,,,104.00820620000013,0.008206200000131503,None,141.04201570000077,141.04201570000077,141.04201570000077,141.04201570000077,141.04201570000077,141.04201570000077,141.04201570000077,141.04201570000077,,002,P015,2025_Feb_28_1840,CategoryLocalizer,2021.2.3,59.94492260487078,
104.8,105.0,5,0.0,Stimuli\Blank.png,0,0,0,163,163,163,,,,,,,,,,,,,104.80827590000263,0.00827590000263001,None,141.84272229999988,141.84272229999988,141.84272229999988,141.84272229999988,141.84272229999988,141.84272229999988,141.84272229999988,141.84272229999988,,002,P015,2025_Feb_28_1840,CategoryLocalizer,2021.2.3,59.94492260487078,
105.0,105.8,1,0.75,Stimuli\ImageFiles-Set2\Objects\Object_Dumpster_00001.png,0,0,0,164,164,164,,,,,,,,,,,,,105.00888040000063,0.008880400000634836,None,142.05958420000024,142.05958420000024,142.05958420000024,142.05958420000024,142.05958420000024,142.05958420000024,142.05958420000024,142.05958420000024,,002,P015,2025_Feb_28_1840,CategoryLocalizer,2021.2.3,59.94492260487078,
105.8,106.0,5,0.0,Stimuli\Blank.png,0,0,0,165,165,165,,,,,,,,,,,,,105.82627309999953,0.026273099999528426,None,142.8769734999987,142.8769734999987,142.8769734999987,142.8769734999987,142.8769734999987,142.8769734999987,142.8769734999987,142.8769734999987,,002,P015,2025_Feb_28_1840,CategoryLocalizer,2021.2.3,59.94492260487078,
106.0,106.8,1,0.75,Stimuli\ImageFiles-Set2\Objects\Object_Bowl_00001.png,0,0,0,166,166,166,,,,,,,,,,,,,106.02597430000242,0.025974300002417294,None,143.06046950000018,143.06046950000018,143.06046950000018,143.06046950000018,143.06046950000018,143.06046950000018,143.06046950000018,143.06046950000018,,002,P015,2025_Feb_28_1840,CategoryLocalizer,2021.2.3,59.94492260487078,
106.8,107.0,5,0.0,Stimuli\Blank.png,0,0,0,167,167,167,,,,,,,,,,,,,106.8099938000014,0.00999380000139638,None,143.8444872,143.8444872,143.8444872,143.8444872,143.8444872,143.8444872,143.8444872,143.8444872,,002,P015,2025_Feb_28_1840,CategoryLocalizer,2021.2.3,59.94492260487078,
107.0,107.8,1,0.75,Stimuli\ImageFiles-Set2\Objects\Object_Bowl_00001.png,1,1,0,168,168,168,,,,,,,,,,,,,107.01018990000011,0.010189900000113994,1,144.06135020000147,144.06135020000147,144.06135020000147,144.06135020000147,144.06135020000147,144.06135020000147,144.06135020000147,144.06135020000147,0.5349756999967212,002,P015,2025_Feb_28_1840,CategoryLocalizer,2021.2.3,59.94492260487078,
107.8,108.0,5,0.0,Stimuli\Blank.png,0,0,0,169,169,169,,,,,,,,,,,,,107.82752769999934,0.02752769999933946,None,144.86206669999956,144.86206669999956,144.86206669999956,144.86206669999956,144.86206669999956,144.86206669999956,144.86206669999956,144.86206669999956,,002,P015,2025_Feb_28_1840,CategoryLocalizer,2021.2.3,59.94492260487078,
108.0,108.8,1,0.75,Stimuli\ImageFiles-Set2\Objects\Object_Pen_00001.png,0,0,0,170,170,170,,,,,,,,,,,,,108.0112764000005,0.011276400000497233,None,145.06225220000124,145.06225220000124,145.06225220000124,145.06225220000124,145.06225220000124,145.06225220000124,145.06225220000124,145.06225220000124,,002,P015,2025_Feb_28_1840,CategoryLocalizer,2021.2.3,59.94492260487078,
108.8,109.0,5,0.0,Stimuli\Blank.png,0,0,0,171,171,171,,,,,,,,,,,,,108.82953690000068,0.029536900000678656,None,145.86297280000144,145.86297280000144,145.86297280000144,145.86297280000144,145.86297280000144,145.86297280000144,145.86297280000144,145.86297280000144,,002,P015,2025_Feb_28_1840,CategoryLocalizer,2021.2.3,59.94492260487078,
109.0,109.8,1,0.75,Stimuli\ImageFiles-Set2\Objects\Object_Mug_00001.png,0,0,0,172,172,172,,,,,,,,,,,,,109.01259940000091,0.012599400000908645,None,146.06315779999932,146.06315779999932,146.06315779999932,146.06315779999932,146.06315779999932,146.06315779999932,146.06315779999932,146.06315779999932,,002,P015,2025_Feb_28_1840,CategoryLocalizer,2021.2.3,59.94492260487078,
109.8,110.0,5,0.0,Stimuli\Blank.png,0,0,0,173,173,173,,,,,,,,,,,,,109.82920460000241,0.02920460000241576,None,146.86383700000079,146.86383700000079,146.86383700000079,146.86383700000079,146.86383700000079,146.86383700000079,146.86383700000079,146.86383700000079,,002,P015,2025_Feb_28_1840,CategoryLocalizer,2021.2.3,59.94492260487078,
110.0,110.8,1,0.75,Stimuli\ImageFiles-Set2\Objects\Object_Switch_00001.png,0,0,0,174,174,174,,,,,,,,,,,,,110.01473900000201,0.014739000002009561,None,147.0640214999985,147.0640214999985,147.0640214999985,147.0640214999985,147.0640214999985,147.0640214999985,147.0640214999985,147.0640214999985,,002,P015,2025_Feb_28_1840,CategoryLocalizer,2021.2.3,59.94492260487078,
110.8,111.0,5,0.0,Stimuli\Blank.png,0,0,0,175,175,175,,,,,,,,,,,,,110.83069370000158,0.030693700001577895,None,147.86474169999929,147.86474169999929,147.86474169999929,147.86474169999929,147.86474169999929,147.86474169999929,147.86474169999929,147.86474169999929,,002,P015,2025_Feb_28_1840,CategoryLocalizer,2021.2.3,59.94492260487078,
111.0,111.8,1,0.75,Stimuli\ImageFiles-Set2\Objects\Object_Glass_00001.png,0,0,0,176,176,176,,,,,,,,,,,,,111.01557150000008,0.015571500000078231,None,148.06490140000096,148.06490140000096,148.06490140000096,148.06490140000096,148.06490140000096,148.06490140000096,148.06490140000096,148.06490140000096,,002,P015,2025_Feb_28_1840,CategoryLocalizer,2021.2.3,59.94492260487078,
111.8,112.0,5,0.0,Stimuli\Blank.png,0,0,0,177,177,177,,,,,,,,,,,,,111.81447250000201,0.014472500002014499,None,148.8489324000002,148.8489324000002,148.8489324000002,148.8489324000002,148.8489324000002,148.8489324000002,148.8489324000002,148.8489324000002,,002,P015,2025_Feb_28_1840,CategoryLocalizer,2021.2.3,59.94492260487078,
112.0,112.8,1,0.75,Stimuli\ImageFiles-Set2\Objects\Object_Couch_00001.png,0,0,0,178,178,178,,,,,,,,,,,,,112.01452649999919,0.01452649999919231,None,149.0491003999996,149.0491003999996,149.0491003999996,149.0491003999996,149.0491003999996,149.0491003999996,149.0491003999996,149.0491003999996,,002,P015,2025_Feb_28_1840,CategoryLocalizer,2021.2.3,59.94492260487078,
112.8,113.0,5,0.0,Stimuli\Blank.png,0,0,0,179,179,179,,,,,,,,,,,,,112.8157796000014,0.015779600001408767,None,149.84982559999844,149.84982559999844,149.84982559999844,149.84982559999844,149.84982559999844,149.84982559999844,149.84982559999844,149.84982559999844,,002,P015,2025_Feb_28_1840,CategoryLocalizer,2021.2.3,59.94492260487078,
113.0,113.8,1,0.75,Stimuli\ImageFiles-Set2\Objects\Object_Pepper_00001.png,0,0,0,180,180,180,,,,,,,,,,,,,112.99939230000018,-0.0006076999998185784,None,150.0499932999992,150.0499932999992,150.0499932999992,150.0499932999992,150.0499932999992,150.0499932999992,150.0499932999992,150.0499932999992,,002,P015,2025_Feb_28_1840,CategoryLocalizer,2021.2.3,59.94492260487078,
113.8,114.0,5,0.0,Stimuli\Blank.png,0,0,0,181,181,181,,,,,,,,,,,,,113.81719580000208,0.017195800002085093,None,150.8515503999988,150.8515503999988,150.8515503999988,150.8515503999988,150.8515503999988,150.8515503999988,150.8515503999988,150.8515503999988,,002,P015,2025_Feb_28_1840,CategoryLocalizer,2021.2.3,59.94492260487078,
114.0,114.8,1,0.75,Stimuli\ImageFiles-Set2\Objects\Object_Wheelchair_00001.png,1,1,0,182,182,182,,,,,,,,,,,,,113.99970350000149,-0.000296499998512445,None,151.03434779999952,151.03434779999952,151.03434779999952,151.03434779999952,151.03434779999952,151.03434779999952,151.03434779999952,151.03434779999952,,002,P015,2025_Feb_28_1840,CategoryLocalizer,2021.2.3,59.94492260487078,
114.8,115.0,5,0.0,Stimuli\Blank.png,0,0,0,183,183,183,,,,,,,,,,,,,114.80045719999907,0.0004571999990758968,None,151.83490589999928,151.83490589999928,151.83490589999928,151.83490589999928,151.83490589999928,151.83490589999928,151.83490589999928,151.83490589999928,,002,P015,2025_Feb_28_1840,CategoryLocalizer,2021.2.3,59.94492260487078,
115.0,115.8,1,0.75,Stimuli\ImageFiles-Set2\Objects\Object_Dishwasher_00001.png,0,0,0,184,184,184,,,,,,,,,,,,,115.00099870000122,0.0009987000012188219,None,152.05178180000075,152.05178180000075,152.05178180000075,152.05178180000075,152.05178180000075,152.05178180000075,152.05178180000075,152.05178180000075,,002,P015,2025_Feb_28_1840,CategoryLocalizer,2021.2.3,59.94492260487078,
115.8,116.0,5,0.0,Stimuli\Blank.png,0,0,0,185,185,185,,,,,,,,,,,,,115.8199534000014,0.019953400001398336,None,152.8691601999999,152.8691601999999,152.8691601999999,152.8691601999999,152.8691601999999,152.8691601999999,152.8691601999999,152.8691601999999,,002,P015,2025_Feb_28_1840,CategoryLocalizer,2021.2.3,59.94492260487078,
116.0,116.8,1,0.75,Stimuli\ImageFiles-Set2\Objects\Object_Dishwasher_00001.png,0,0,0,186,186,186,,,,,,,,,,,,,116.01908729999923,0.01908729999922798,1,153.05264589999933,153.05264589999933,153.05264589999933,153.05264589999933,153.05264589999933,153.05264589999933,153.05264589999933,153.05264589999933,0.513900800000556,002,P015,2025_Feb_28_1840,CategoryLocalizer,2021.2.3,59.94492260487078,
116.8,117.0,5,0.0,Stimuli\Blank.png,0,0,0,187,187,187,,,,,,,,,,,,,116.80315949999931,0.003159499999313198,None,153.83667539999806,153.83667539999806,153.83667539999806,153.83667539999806,153.83667539999806,153.83667539999806,153.83667539999806,153.83667539999806,,002,P015,2025_Feb_28_1840,CategoryLocalizer,2021.2.3,59.94492260487078,
117.0,117.8,1,0.75,Stimuli\ImageFiles-Set2\Objects\Object_ArmChair_00001.png,0,0,0,188,188,188,,,,,,,,,,,,,117.00233160000062,0.002331600000616163,None,154.0368481000005,154.0368481000005,154.0368481000005,154.0368481000005,154.0368481000005,154.0368481000005,154.0368481000005,154.0368481000005,,002,P015,2025_Feb_28_1840,CategoryLocalizer,2021.2.3,59.94492260487078,
117.8,118.0,5,0.0,Stimuli\Blank.png,0,0,0,189,189,189,,,,,,,,,,,,,117.8032576000005,0.003257600000509342,None,154.83756450000146,154.83756450000146,154.83756450000146,154.83756450000146,154.83756450000146,154.83756450000146,154.83756450000146,154.83756450000146,,002,P015,2025_Feb_28_1840,CategoryLocalizer,2021.2.3,59.94492260487078,
118.0,118.8,1,0.75,Stimuli\ImageFiles-Set2\Objects\Object_Pin_00001.png,0,0,0,190,190,190,,,,,,,,,,,,,118.00381370000105,0.003813700001046527,None,155.05442599999878,155.05442599999878,155.05442599999878,155.05442599999878,155.05442599999878,155.05442599999878,155.05442599999878,155.05442599999878,,002,P015,2025_Feb_28_1840,CategoryLocalizer,2021.2.3,59.94492260487078,
118.8,119.0,5,0.0,Stimuli\Blank.png,0,0,0,191,191,191,,,,,,,,,,,,,118.8207012999992,0.020701299999203115,None,155.85513260000153,155.85513260000153,155.85513260000153,155.85513260000153,155.85513260000153,155.85513260000153,155.85513260000153,155.85513260000153,,002,P015,2025_Feb_28_1840,CategoryLocalizer,2021.2.3,59.94492260487078,
119.0,119.8,1,0.75,Stimuli\ImageFiles-Set2\Objects\Object_WashingMachine_00001.png,0,0,0,192,192,192,,,,,,,,,,,,,119.0045577000019,0.004557700001896592,None,156.03861400000096,156.03861400000096,156.03861400000096,156.03861400000096,156.03861400000096,156.03861400000096,156.03861400000096,156.03861400000096,,002,P015,2025_Feb_28_1840,CategoryLocalizer,2021.2.3,59.94492260487078,
119.8,120.0,5,0.0,Stimuli\Blank.png,0,0,0,193,193,193,,,,,,,,,,,,,119.80621109999993,0.006211099999930525,None,156.83932890000142,156.83932890000142,156.83932890000142,156.83932890000142,156.83932890000142,156.83932890000142,156.83932890000142,156.83932890000142,,002,P015,2025_Feb_28_1840,CategoryLocalizer,2021.2.3,59.94492260487078,
120.0,120.8,4,0.75,Stimuli\ImageFiles-Set2\Scenes\Scenes_077.png,0,0,0,194,194,194,,,,,,,,,,,,,120.00592010000037,0.005920100000366801,None,157.05620930000077,157.05620930000077,157.05620930000077,157.05620930000077,157.05620930000077,157.05620930000077,157.05620930000077,157.05620930000077,,002,P015,2025_Feb_28_1840,CategoryLocalizer,2021.2.3,59.94492260487078,
120.8,121.0,5,0.0,Stimuli\Blank.png,0,0,0,195,195,195,,,,,,,,,,,,,120.82516250000117,0.025162500001172816,None,157.87357920000068,157.87357920000068,157.87357920000068,157.87357920000068,157.87357920000068,157.87357920000068,157.87357920000068,157.87357920000068,,002,P015,2025_Feb_28_1840,CategoryLocalizer,2021.2.3,59.94492260487078,
121.0,121.8,4,0.75,Stimuli\ImageFiles-Set2\Scenes\Scenes_106.png,0,0,0,196,196,196,,,,,,,,,,,,,121.02249230000234,0.022492300002340926,None,158.05706759999885,158.05706759999885,158.05706759999885,158.05706759999885,158.05706759999885,158.05706759999885,158.05706759999885,158.05706759999885,,002,P015,2025_Feb_28_1840,CategoryLocalizer,2021.2.3,59.94492260487078,
121.8,122.0,5,0.0,Stimuli\Blank.png,0,0,0,197,197,197,,,,,,,,,,,,,121.80709539999953,0.00709539999952824,None,158.84110019999935,158.84110019999935,158.84110019999935,158.84110019999935,158.84110019999935,158.84110019999935,158.84110019999935,158.84110019999935,,002,P015,2025_Feb_28_1840,CategoryLocalizer,2021.2.3,59.94492260487078,
122.0,122.8,4,0.75,Stimuli\ImageFiles-Set2\Scenes\Scenes_096.png,0,0,0,198,198,198,,,,,,,,,,,,,122.00769520000176,0.007695200001762714,None,159.041279699999,159.041279699999,159.041279699999,159.041279699999,159.041279699999,159.041279699999,159.041279699999,159.041279699999,,002,P015,2025_Feb_28_1840,CategoryLocalizer,2021.2.3,59.94492260487078,
122.8,123.0,5,0.0,Stimuli\Blank.png,0,0,0,199,199,199,,,,,,,,,,,,,122.80753539999932,0.007535399999326842,None,159.84198910000123,159.84198910000123,159.84198910000123,159.84198910000123,159.84198910000123,159.84198910000123,159.84198910000123,159.84198910000123,,002,P015,2025_Feb_28_1840,CategoryLocalizer,2021.2.3,59.94492260487078,
123.0,123.8,4,0.75,Stimuli\ImageFiles-Set2\Scenes\Scenes_097.png,0,0,0,200,200,200,,,,,,,,,,,,,123.00842390000253,0.008423900002526352,None,160.04215929999918,160.04215929999918,160.04215929999918,160.04215929999918,160.04215929999918,160.04215929999918,160.04215929999918,160.04215929999918,,002,P015,2025_Feb_28_1840,CategoryLocalizer,2021.2.3,59.94492260487078,
123.8,124.0,5,0.0,Stimuli\Blank.png,0,0,0,201,201,201,,,,,,,,,,,,,123.80887310000253,0.008873100002531942,None,160.8428701999983,160.8428701999983,160.8428701999983,160.8428701999983,160.8428701999983,160.8428701999983,160.8428701999983,160.8428701999983,,002,P015,2025_Feb_28_1840,CategoryLocalizer,2021.2.3,59.94492260487078,
124.0,124.8,4,0.75,Stimuli\ImageFiles-Set2\Scenes\Scenes_097.png,1,1,0,202,202,202,,,,,,,,,,,,,124.00918269999966,0.009182699999655597,1,161.05973670000094,161.05973670000094,161.05973670000094,161.05973670000094,161.05973670000094,161.05973670000094,161.05973670000094,161.05973670000094,0.3975559000027715,002,P015,2025_Feb_28_1840,CategoryLocalizer,2021.2.3,59.94492260487078,
124.8,125.0,5,0.0,Stimuli\Blank.png,0,0,0,203,203,203,,,,,,,,,,,,,124.82617350000146,0.026173500001462457,None,161.8604482999981,161.8604482999981,161.8604482999981,161.8604482999981,161.8604482999981,161.8604482999981,161.8604482999981,161.8604482999981,,002,P015,2025_Feb_28_1840,CategoryLocalizer,2021.2.3,59.94492260487078,
125.0,125.8,4,0.75,Stimuli\ImageFiles-Set2\Scenes\Scenes_103.png,0,0,0,204,204,204,,,,,,,,,,,,,125.00938880000103,0.009388800001033815,None,162.04393189999973,162.04393189999973,162.04393189999973,162.04393189999973,162.04393189999973,162.04393189999973,162.04393189999973,162.04393189999973,,002,P015,2025_Feb_28_1840,CategoryLocalizer,2021.2.3,59.94492260487078,
125.8,126.0,5,0.0,Stimuli\Blank.png,0,0,0,205,205,205,,,,,,,,,,,,,125.81031660000008,0.010316600000081166,None,162.84464970000045,162.84464970000045,162.84464970000045,162.84464970000045,162.84464970000045,162.84464970000045,162.84464970000045,162.84464970000045,,002,P015,2025_Feb_28_1840,CategoryLocalizer,2021.2.3,59.94492260487078,
126.0,126.8,4,0.75,Stimuli\ImageFiles-Set2\Scenes\Scenes_079.png,0,0,0,206,206,206,,,,,,,,,,,,,126.0115493000012,0.011549300001206575,None,163.0615527000009,163.0615527000009,163.0615527000009,163.0615527000009,163.0615527000009,163.0615527000009,163.0615527000009,163.0615527000009,,002,P015,2025_Feb_28_1840,CategoryLocalizer,2021.2.3,59.94492260487078,
126.8,127.0,5,0.0,Stimuli\Blank.png,0,0,0,207,207,207,,,,,,,,,,,,,126.82871700000032,0.028717000000327175,None,163.86221849999856,163.86221849999856,163.86221849999856,163.86221849999856,163.86221849999856,163.86221849999856,163.86221849999856,163.86221849999856,,002,P015,2025_Feb_28_1840,CategoryLocalizer,2021.2.3,59.94492260487078,
127.0,127.8,4,0.75,Stimuli\ImageFiles-Set2\Scenes\Scenes_109.png,0,0,0,208,208,208,,,,,,,,,,,,,127.01125390000016,0.011253900000156136,None,164.04570930000045,164.04570930000045,164.04570930000045,164.04570930000045,164.04570930000045,164.04570930000045,164.04570930000045,164.04570930000045,,002,P015,2025_Feb_28_1840,CategoryLocalizer,2021.2.3,59.94492260487078,
127.8,128.0,5,0.0,Stimuli\Blank.png,0,0,0,209,209,209,,,,,,,,,,,,,127.81197670000256,0.011976700002563234,None,164.84645199999795,164.84645199999795,164.84645199999795,164.84645199999795,164.84645199999795,164.84645199999795,164.84645199999795,164.84645199999795,,002,P015,2025_Feb_28_1840,CategoryLocalizer,2021.2.3,59.94492260487078,
128.0,128.8,4,0.75,Stimuli\ImageFiles-Set2\Scenes\Scenes_102.png,1,1,0,210,210,210,,,,,,,,,,,,,128.01210469999933,0.01210469999932684,None,165.04659470000115,165.04659470000115,165.04659470000115,165.04659470000115,165.04659470000115,165.04659470000115,165.04659470000115,165.04659470000115,,002,P015,2025_Feb_28_1840,CategoryLocalizer,2021.2.3,59.94492260487078,
128.8,129.0,5,0.0,Stimuli\Blank.png,0,0,0,211,211,211,,,,,,,,,,,,,128.81325099999958,0.013250999999570467,None,165.84730040000068,165.84730040000068,165.84730040000068,165.84730040000068,165.84730040000068,165.84730040000068,165.84730040000068,165.84730040000068,,002,P015,2025_Feb_28_1840,CategoryLocalizer,2021.2.3,59.94492260487078,
129.0,129.8,4,0.75,Stimuli\ImageFiles-Set2\Scenes\Scenes_062.png,0,0,0,212,212,212,,,,,,,,,,,,,129.0128463000001,0.012846300000092015,None,166.0474791000015,166.0474791000015,166.0474791000015,166.0474791000015,166.0474791000015,166.0474791000015,166.0474791000015,166.0474791000015,,002,P015,2025_Feb_28_1840,CategoryLocalizer,2021.2.3,59.94492260487078,
129.8,130.0,5,0.0,Stimuli\Blank.png,0,0,0,213,213,213,,,,,,,,,,,,,129.81452830000126,0.014528300001245498,None,166.8481885000001,166.8481885000001,166.8481885000001,166.8481885000001,166.8481885000001,166.8481885000001,166.8481885000001,166.8481885000001,,002,P015,2025_Feb_28_1840,CategoryLocalizer,2021.2.3,59.94492260487078,
130.0,130.8,4,0.75,Stimuli\ImageFiles-Set2\Scenes\Scenes_062.png,0,0,0,214,214,214,,,,,,,,,,,,,130.01500870000018,0.015008700000180397,1,167.06505480000123,167.06505480000123,167.06505480000123,167.06505480000123,167.06505480000123,167.06505480000123,167.06505480000123,167.06505480000123,0.4792663999978686,002,P015,2025_Feb_28_1840,CategoryLocalizer,2021.2.3,59.94492260487078,
130.8,131.0,5,0.0,Stimuli\Blank.png,0,0,0,215,215,215,,,,,,,,,,,,,130.81509930000175,0.015099300001736538,None,167.84912450000047,167.84912450000047,167.84912450000047,167.84912450000047,167.84912450000047,167.84912450000047,167.84912450000047,167.84912450000047,,002,P015,2025_Feb_28_1840,CategoryLocalizer,2021.2.3,59.94492260487078,
131.0,131.8,4,0.75,Stimuli\ImageFiles-Set2\Scenes\Scenes_113.png,0,0,0,216,216,216,,,,,,,,,,,,,131.01476670000193,0.014766700001928257,None,168.0492309000001,168.0492309000001,168.0492309000001,168.0492309000001,168.0492309000001,168.0492309000001,168.0492309000001,168.0492309000001,,002,P015,2025_Feb_28_1840,CategoryLocalizer,2021.2.3,59.94492260487078,
131.8,132.0,5,0.0,Stimuli\Blank.png,0,0,0,217,217,217,,,,,,,,,,,,,131.81716020000022,0.01716020000020535,None,168.86665100000027,168.86665100000027,168.86665100000027,168.86665100000027,168.86665100000027,168.86665100000027,168.86665100000027,168.86665100000027,,002,P015,2025_Feb_28_1840,CategoryLocalizer,2021.2.3,59.94492260487078,
132.0,132.8,4,0.75,Stimuli\ImageFiles-Set2\Scenes\Scenes_101.png,0,0,0,218,218,218,,,,,,,,,,,,,132.01729680000062,0.01729680000062217,None,169.06721259999904,169.06721259999904,169.06721259999904,169.06721259999904,169.06721259999904,169.06721259999904,169.06721259999904,169.06721259999904,,002,P015,2025_Feb_28_1840,CategoryLocalizer,2021.2.3,59.94492260487078,
132.8,133.0,5,0.0,Stimuli\Blank.png,0,0,0,219,219,219,,,,,,,,,,,,,132.81737200000134,0.017372000001330434,None,169.85084519999873,169.85084519999873,169.85084519999873,169.85084519999873,169.85084519999873,169.85084519999873,169.85084519999873,169.85084519999873,,002,P015,2025_Feb_28_1840,CategoryLocalizer,2021.2.3,59.94492260487078,
133.0,133.8,4,0.75,Stimuli\ImageFiles-Set2\Scenes\Scenes_120.png,0,0,0,220,220,220,,,,,,,,,,,,,133.00060710000253,0.00060710000252584,None,170.06771949999893,170.06771949999893,170.06771949999893,170.06771949999893,170.06771949999893,170.06771949999893,170.06771949999893,170.06771949999893,,002,P015,2025_Feb_28_1840,CategoryLocalizer,2021.2.3,59.94492260487078,
133.8,134.0,5,0.0,Stimuli\Blank.png,0,0,0,221,221,221,,,,,,,,,,,,,133.8345862999995,0.034586299999489256,None,170.86841450000065,170.86841450000065,170.86841450000065,170.86841450000065,170.86841450000065,170.86841450000065,170.86841450000065,170.86841450000065,,002,P015,2025_Feb_28_1840,CategoryLocalizer,2021.2.3,59.94492260487078,
134.0,134.8,4,0.75,Stimuli\ImageFiles-Set2\Scenes\Scenes_108.png,0,0,0,222,222,222,,,,,,,,,,,,,134.00144419999924,0.0014441999992413912,None,171.0352273999997,171.0352273999997,171.0352273999997,171.0352273999997,171.0352273999997,171.0352273999997,171.0352273999997,171.0352273999997,,002,P015,2025_Feb_28_1840,CategoryLocalizer,2021.2.3,59.94492260487078,
134.8,135.0,5,0.0,Stimuli\Blank.png,0,0,0,223,223,223,,,,,,,,,,,,,134.80255340000076,0.0025534000007496616,None,171.8359418,171.8359418,171.8359418,171.8359418,171.8359418,171.8359418,171.8359418,171.8359418,,002,P015,2025_Feb_28_1840,CategoryLocalizer,2021.2.3,59.94492260487078,
135.0,135.8,4,0.75,Stimuli\ImageFiles-Set2\Scenes\Scenes_075.png,0,0,0,224,224,224,,,,,,,,,,,,,135.00154359999942,0.0015435999994224403,None,172.0527989000002,172.0527989000002,172.0527989000002,172.0527989000002,172.0527989000002,172.0527989000002,172.0527989000002,172.0527989000002,,002,P015,2025_Feb_28_1840,CategoryLocalizer,2021.2.3,59.94492260487078,
135.8,136.0,5,0.0,Stimuli\Blank.png,0,0,0,225,225,225,,,,,,,,,,,,,135.81991420000122,0.019914200001210247,None,172.85351509999964,172.85351509999964,172.85351509999964,172.85351509999964,172.85351509999964,172.85351509999964,172.85351509999964,172.85351509999964,,002,P015,2025_Feb_28_1840,CategoryLocalizer,2021.2.3,59.94492260487078,
136.0,136.8,2,0.75,Stimuli\ImageFiles-Set2\Bodies\Bodies_Crawling_00004.png,0,0,0,226,226,226,,,,,,,,,,,,,136.00373770000078,0.0037377000007836614,None,173.05369549999887,173.05369549999887,173.05369549999887,173.05369549999887,173.05369549999887,173.05369549999887,173.05369549999887,173.05369549999887,,002,P015,2025_Feb_28_1840,CategoryLocalizer,2021.2.3,59.94492260487078,
136.8,137.0,5,0.0,Stimuli\Blank.png,0,0,0,227,227,227,,,,,,,,,,,,,136.82225789999939,0.02225789999937433,None,173.8710815000013,173.8710815000013,173.8710815000013,173.8710815000013,173.8710815000013,173.8710815000013,173.8710815000013,173.8710815000013,,002,P015,2025_Feb_28_1840,CategoryLocalizer,2021.2.3,59.94492260487078,
137.0,137.8,2,0.75,Stimuli\ImageFiles-Set2\Bodies\Bodies_Jumping_00007.png,0,0,0,228,228,228,,,,,,,,,,,,,137.0207169000023,0.020716900002298644,None,174.0712668999986,174.0712668999986,174.0712668999986,174.0712668999986,174.0712668999986,174.0712668999986,174.0712668999986,174.0712668999986,,002,P015,2025_Feb_28_1840,CategoryLocalizer,2021.2.3,59.94492260487078,
137.8,138.0,5,0.0,Stimuli\Blank.png,0,0,0,229,229,229,,,,,,,,,,,,,137.8214012999997,0.02140129999969531,None,174.8552845999984,174.8552845999984,174.8552845999984,174.8552845999984,174.8552845999984,174.8552845999984,174.8552845999984,174.8552845999984,,002,P015,2025_Feb_28_1840,CategoryLocalizer,2021.2.3,59.94492260487078,
138.0,138.8,2,0.75,Stimuli\ImageFiles-Set2\Bodies\Bodies_SittingStretch_00006.png,0,0,0,230,230,230,,,,,,,,,,,,,138.00486690000253,0.004866900002525654,None,175.0554583000012,175.0554583000012,175.0554583000012,175.0554583000012,175.0554583000012,175.0554583000012,175.0554583000012,175.0554583000012,,002,P015,2025_Feb_28_1840,CategoryLocalizer,2021.2.3,59.94492260487078,
138.8,139.0,5,0.0,Stimuli\Blank.png,0,0,0,231,231,231,,,,,,,,,,,,,138.82333189999918,0.023331899999163852,None,175.8728407999988,175.8728407999988,175.8728407999988,175.8728407999988,175.8728407999988,175.8728407999988,175.8728407999988,175.8728407999988,,002,P015,2025_Feb_28_1840,CategoryLocalizer,2021.2.3,59.94492260487078,
139.0,139.8,2,0.75,Stimuli\ImageFiles-Set2\Bodies\Bodies_Pushing_00006.png,0,0,0,232,232,232,,,,,,,,,,,,,139.02269700000033,0.02269700000033481,None,176.05634329999884,176.05634329999884,176.05634329999884,176.05634329999884,176.05634329999884,176.05634329999884,176.05634329999884,176.05634329999884,,002,P015,2025_Feb_28_1840,CategoryLocalizer,2021.2.3,59.94492260487078,
139.8,140.0,5,0.0,Stimuli\Blank.png,0,0,0,233,233,233,,,,,,,,,,,,,139.8059472999994,0.005947299999377265,None,176.8404319000001,176.8404319000001,176.8404319000001,176.8404319000001,176.8404319000001,176.8404319000001,176.8404319000001,176.8404319000001,,002,P015,2025_Feb_28_1840,CategoryLocalizer,2021.2.3,59.94492260487078,
140.0,140.8,2,0.75,Stimuli\ImageFiles-Set2\Bodies\Bodies_SittingChair_00002.png,0,0,0,234,234,234,,,,,,,,,,,,,140.0066083999991,0.006608399999095127,None,177.04054610000094,177.04054610000094,177.04054610000094,177.04054610000094,177.04054610000094,177.04054610000094,177.04054610000094,177.04054610000094,,002,P015,2025_Feb_28_1840,CategoryLocalizer,2021.2.3,59.94492260487078,
140.8,141.0,5,0.0,Stimuli\Blank.png,0,0,0,235,235,235,,,,,,,,,,,,,140.8093203999997,0.009320399999694473,None,177.85790319999796,177.85790319999796,177.85790319999796,177.85790319999796,177.85790319999796,177.85790319999796,177.85790319999796,177.85790319999796,,002,P015,2025_Feb_28_1840,CategoryLocalizer,2021.2.3,59.94492260487078,
141.0,141.8,2,0.75,Stimuli\ImageFiles-Set2\Bodies\Bodies_SittingChair_00002.png,1,1,0,236,236,236,,,,,,,,,,,,,141.02469050000218,0.02469050000217976,1,178.05811299999914,178.05811299999914,178.05811299999914,178.05811299999914,178.05811299999914,178.05811299999914,178.05811299999914,178.05811299999914,0.7131904999987455,002,P015,2025_Feb_28_1840,CategoryLocalizer,2021.2.3,59.94492260487078,
141.8,142.0,5,0.0,Stimuli\Blank.png,0,0,0,237,237,237,,,,,,,,,,,,,141.80873200000133,0.008732000001316464,None,178.84215440000116,178.84215440000116,178.84215440000116,178.84215440000116,178.84215440000116,178.84215440000116,178.84215440000116,178.84215440000116,,002,P015,2025_Feb_28_1840,CategoryLocalizer,2021.2.3,59.94492260487078,
142.0,142.8,2,0.75,Stimuli\ImageFiles-Set2\Bodies\Bodies_PushUp_00006.png,0,0,0,238,238,238,,,,,,,,,,,,,142.00863129999925,0.008631299999251496,None,179.05901969999832,179.05901969999832,179.05901969999832,179.05901969999832,179.05901969999832,179.05901969999832,179.05901969999832,179.05901969999832,,002,P015,2025_Feb_28_1840,CategoryLocalizer,2021.2.3,59.94492260487078,
142.8,143.0,5,0.0,Stimuli\Blank.png,0,0,0,239,239,239,,,,,,,,,,,,,142.8266098999993,0.026609899999300524,None,179.8597273000014,179.8597273000014,179.8597273000014,179.8597273000014,179.8597273000014,179.8597273000014,179.8597273000014,179.8597273000014,,002,P015,2025_Feb_28_1840,CategoryLocalizer,2021.2.3,59.94492260487078,
143.0,143.8,2,0.75,Stimuli\ImageFiles-Set2\Bodies\Bodies_Waving_00006.png,0,0,0,240,240,240,,,,,,,,,,,,,143.00859590000255,0.008595900002546841,None,180.04319920000125,180.04319920000125,180.04319920000125,180.04319920000125,180.04319920000125,180.04319920000125,180.04319920000125,180.04319920000125,,002,P015,2025_Feb_28_1840,CategoryLocalizer,2021.2.3,59.94492260487078,
143.8,144.0,5,0.0,Stimuli\Blank.png,0,0,0,241,241,241,,,,,,,,,,,,,143.80989559999944,0.009895599999424576,None,180.8439150000013,180.8439150000013,180.8439150000013,180.8439150000013,180.8439150000013,180.8439150000013,180.8439150000013,180.8439150000013,,002,P015,2025_Feb_28_1840,CategoryLocalizer,2021.2.3,59.94492260487078,
144.0,144.8,2,0.75,Stimuli\ImageFiles-Set2\Bodies\Bodies_SittingStretch_00001.png,0,0,0,242,242,242,,,,,,,,,,,,,144.01022010000088,0.010220100000879029,None,181.04408619999958,181.04408619999958,181.04408619999958,181.04408619999958,181.04408619999958,181.04408619999958,181.04408619999958,181.04408619999958,,002,P015,2025_Feb_28_1840,CategoryLocalizer,2021.2.3,59.94492260487078,
144.8,145.0,5,0.0,Stimuli\Blank.png,0,0,0,243,243,243,,,,,,,,,,,,,144.81068380000215,0.010683800002141197,None,181.84479629999987,181.84479629999987,181.84479629999987,181.84479629999987,181.84479629999987,181.84479629999987,181.84479629999987,181.84479629999987,,002,P015,2025_Feb_28_1840,CategoryLocalizer,2021.2.3,59.94492260487078,
145.0,145.8,2,0.75,Stimuli\ImageFiles-Set2\Bodies\Bodies_Running_00005.png,0,0,0,244,244,244,,,,,,,,,,,,,145.0107624000011,0.010762400001112837,None,182.06167600000117,182.06167600000117,182.06167600000117,182.06167600000117,182.06167600000117,182.06167600000117,182.06167600000117,182.06167600000117,,002,P015,2025_Feb_28_1840,CategoryLocalizer,2021.2.3,59.94492260487078,
145.8,146.0,5,0.0,Stimuli\Blank.png,0,0,0,245,245,245,,,,,,,,,,,,,145.83027980000043,0.030279800000414525,None,182.87907239999913,182.87907239999913,182.87907239999913,182.87907239999913,182.87907239999913,182.87907239999913,182.87907239999913,182.87907239999913,,002,P015,2025_Feb_28_1840,CategoryLocalizer,2021.2.3,59.94492260487078,
146.0,146.8,2,0.75,Stimuli\ImageFiles-Set2\Bodies\Bodies_PushUp_00001.png,0,0,0,246,246,246,,,,,,,,,,,,,146.0280715000008,0.028071500000805827,None,183.06254099999933,183.06254099999933,183.06254099999933,183.06254099999933,183.06254099999933,183.06254099999933,183.06254099999933,183.06254099999933,,002,P015,2025_Feb_28_1840,CategoryLocalizer,2021.2.3,59.94492260487078,
146.8,147.0,5,0.0,Stimuli\Blank.png,0,0,0,247,247,247,,,,,,,,,,,,,146.81394480000017,0.01394480000016074,None,183.86329320000004,183.86329320000004,183.86329320000004,183.86329320000004,183.86329320000004,183.86329320000004,183.86329320000004,183.86329320000004,,002,P015,2025_Feb_28_1840,CategoryLocalizer,2021.2.3,59.94492260487078,
147.0,147.8,2,0.75,Stimuli\ImageFiles-Set2\Bodies\Bodies_Kneeling_00004.png,0,0,0,248,248,248,,,,,,,,,,,,,147.02940410000156,0.0294041000015568,None,184.0634503000001,184.0634503000001,184.0634503000001,184.0634503000001,184.0634503000001,184.0634503000001,184.0634503000001,184.0634503000001,,002,P015,2025_Feb_28_1840,CategoryLocalizer,2021.2.3,59.94492260487078,
147.8,148.0,5,0.0,Stimuli\Blank.png,0,0,0,249,249,249,,,,,,,,,,,,,147.81512640000074,0.015126400000724516,None,184.86418889999914,184.86418889999914,184.86418889999914,184.86418889999914,184.86418889999914,184.86418889999914,184.86418889999914,184.86418889999914,,002,P015,2025_Feb_28_1840,CategoryLocalizer,2021.2.3,59.94492260487078,
148.0,148.8,2,0.75,Stimuli\ImageFiles-Set2\Bodies\Bodies_SittingChair_00004.png,0,0,0,250,250,250,,,,,,,,,,,,,148.03020820000165,0.030208200001652585,None,185.06432249999853,185.06432249999853,185.06432249999853,185.06432249999853,185.06432249999853,185.06432249999853,185.06432249999853,185.06432249999853,,002,P015,2025_Feb_28_1840,CategoryLocalizer,2021.2.3,59.94492260487078,
148.8,149.0,5,0.0,Stimuli\Blank.png,0,0,0,251,251,251,,,,,,,,,,,,,148.8139424000001,0.01394240000007585,None,185.8483382000013,185.8483382000013,185.8483382000013,185.8483382000013,185.8483382000013,185.8483382000013,185.8483382000013,185.8483382000013,,002,P015,2025_Feb_28_1840,CategoryLocalizer,2021.2.3,59.94492260487078,
149.0,149.8,2,0.75,Stimuli\ImageFiles-Set2\Bodies\Bodies_Standing_00004.png,1,1,0,252,252,252,,,,,,,,,,,,,149.0142134000016,0.014213400001608534,None,186.04851380000036,186.04851380000036,186.04851380000036,186.04851380000036,186.04851380000036,186.04851380000036,186.04851380000036,186.04851380000036,,002,P015,2025_Feb_28_1840,CategoryLocalizer,2021.2.3,59.94492260487078,
149.8,150.0,5,0.0,Stimuli\Blank.png,0,0,0,253,253,253,,,,,,,,,,,,,149.81492260000232,0.014922600002307718,None,186.84922670000014,186.84922670000014,186.84922670000014,186.84922670000014,186.84922670000014,186.84922670000014,186.84922670000014,186.84922670000014,,002,P015,2025_Feb_28_1840,CategoryLocalizer,2021.2.3,59.94492260487078,
150.0,150.8,2,0.75,Stimuli\ImageFiles-Set2\Bodies\Bodies_Falling_00005.png,0,0,0,254,254,254,,,,,,,,,,,,,150.01554749999923,0.01554749999922933,None,187.0493994999997,187.0493994999997,187.0493994999997,187.0493994999997,187.0493994999997,187.0493994999997,187.0493994999997,187.0493994999997,,002,P015,2025_Feb_28_1840,CategoryLocalizer,2021.2.3,59.94492260487078,
150.8,151.0,5,0.0,Stimuli\Blank.png,0,0,0,255,255,255,,,,,,,,,,,,,150.80000970000037,9.700000362045103e-06,None,187.83343049999894,187.83343049999894,187.83343049999894,187.83343049999894,187.83343049999894,187.83343049999894,187.83343049999894,187.83343049999894,,002,P015,2025_Feb_28_1840,CategoryLocalizer,2021.2.3,59.94492260487078,
151.0,151.8,2,0.75,Stimuli\ImageFiles-Set2\Bodies\Bodies_Falling_00005.png,0,0,0,256,256,256,,,,,,,,,,,,,150.99983369999973,-0.00016630000027362257,1,188.05031880000024,188.05031880000024,188.05031880000024,188.05031880000024,188.05031880000024,188.05031880000024,188.05031880000024,188.05031880000024,0.458194499999081,002,P015,2025_Feb_28_1840,CategoryLocalizer,2021.2.3,59.94492260487078,
151.8,152.0,5,0.0,Stimuli\Blank.png,0,0,0,257,257,257,,,,,,,,,,,,,151.81644740000047,0.016447400000458856,None,188.85099519999858,188.85099519999858,188.85099519999858,188.85099519999858,188.85099519999858,188.85099519999858,188.85099519999858,188.85099519999858,,002,P015,2025_Feb_28_1840,CategoryLocalizer,2021.2.3,59.94492260487078,
152.0,164.0,0,0.0,Stimuli\Blank.png,0,0,0,258,258,258,,,,,,,,,,,,,152.00083989999985,0.0008398999998462386,None,189.03449099999852,189.03449099999852,189.03449099999852,189.03449099999852,189.03449099999852,189.03449099999852,189.03449099999852,189.03449099999852,,002,P015,2025_Feb_28_1840,CategoryLocalizer,2021.2.3,59.94492260487078,
164.0,164.8,4,0.75,Stimuli\ImageFiles-Set2\Scenes\Scenes_117.png,0,0,0,259,259,259,,,,,,,,,,,,,164.01086310000028,0.010863100000278791,None,201.06183260000034,201.06183260000034,201.06183260000034,201.06183260000034,201.06183260000034,201.06183260000034,201.06183260000034,201.06183260000034,,002,P015,2025_Feb_28_1840,CategoryLocalizer,2021.2.3,59.94492260487078,
164.8,165.0,5,0.0,Stimuli\Blank.png,0,0,0,260,260,260,,,,,,,,,,,,,164.82922569999937,0.029225699999358312,None,201.86253260000012,201.86253260000012,201.86253260000012,201.86253260000012,201.86253260000012,201.86253260000012,201.86253260000012,201.86253260000012,,002,P015,2025_Feb_28_1840,CategoryLocalizer,2021.2.3,59.94492260487078,
165.0,165.8,4,0.75,Stimuli\ImageFiles-Set2\Scenes\Scenes_098.png,0,0,0,261,261,261,,,,,,,,,,,,,165.01308730000164,0.013087300001643598,None,202.06273099999817,202.06273099999817,202.06273099999817,202.06273099999817,202.06273099999817,202.06273099999817,202.06273099999817,202.06273099999817,,002,P015,2025_Feb_28_1840,CategoryLocalizer,2021.2.3,59.94492260487078,
165.8,166.0,5,0.0,Stimuli\Blank.png,0,0,0,262,262,262,,,,,,,,,,,,,165.82906139999977,0.02906139999976176,None,202.86341159999938,202.86341159999938,202.86341159999938,202.86341159999938,202.86341159999938,202.86341159999938,202.86341159999938,202.86341159999938,,002,P015,2025_Feb_28_1840,CategoryLocalizer,2021.2.3,59.94492260487078,
166.0,166.8,4,0.75,Stimuli\ImageFiles-Set2\Scenes\Scenes_080.png,0,0,0,263,263,263,,,,,,,,,,,,,166.0146206999998,0.014620699999795761,None,203.06356120000055,203.06356120000055,203.06356120000055,203.06356120000055,203.06356120000055,203.06356120000055,203.06356120000055,203.06356120000055,,002,P015,2025_Feb_28_1840,CategoryLocalizer,2021.2.3,59.94492260487078,
166.8,167.0,5,0.0,Stimuli\Blank.png,0,0,0,264,264,264,,,,,,,,,,,,,166.82988509999996,0.029885099999944487,None,203.86429240000143,203.86429240000143,203.86429240000143,203.86429240000143,203.86429240000143,203.86429240000143,203.86429240000143,203.86429240000143,,002,P015,2025_Feb_28_1840,CategoryLocalizer,2021.2.3,59.94492260487078,
167.0,167.8,4,0.75,Stimuli\ImageFiles-Set2\Scenes\Scenes_069.png,0,0,0,265,265,265,,,,,,,,,,,,,167.01431810000213,0.014318100002128631,None,204.06445969999913,204.06445969999913,204.06445969999913,204.06445969999913,204.06445969999913,204.06445969999913,204.06445969999913,204.06445969999913,,002,P015,2025_Feb_28_1840,CategoryLocalizer,2021.2.3,59.94492260487078,
167.8,168.0,5,0.0,Stimuli\Blank.png,0,0,0,266,266,266,,,,,,,,,,,,,167.83073349999904,0.0307334999990303,None,204.86509410000144,204.86509410000144,204.86509410000144,204.86509410000144,204.86509410000144,204.86509410000144,204.86509410000144,204.86509410000144,,002,P015,2025_Feb_28_1840,CategoryLocalizer,2021.2.3,59.94492260487078,
168.0,168.8,4,0.75,Stimuli\ImageFiles-Set2\Scenes\Scenes_074.png,0,0,0,267,267,267,,,,,,,,,,,,,168.01571440000043,0.01571440000043367,None,205.065359799999,205.065359799999,205.065359799999,205.065359799999,205.065359799999,205.065359799999,205.065359799999,205.065359799999,,002,P015,2025_Feb_28_1840,CategoryLocalizer,2021.2.3,59.94492260487078,
168.8,169.0,5,0.0,Stimuli\Blank.png,0,0,0,268,268,268,,,,,,,,,,,,,168.81480759999977,0.014807599999755894,None,205.84937889999856,205.84937889999856,205.84937889999856,205.84937889999856,205.84937889999856,205.84937889999856,205.84937889999856,205.84937889999856,,002,P015,2025_Feb_28_1840,CategoryLocalizer,2021.2.3,59.94492260487078,
169.0,169.8,4,0.75,Stimuli\ImageFiles-Set2\Scenes\Scenes_090.png,0,0,0,269,269,269,,,,,,,,,,,,,169.0165487000013,0.016548700001294492,None,206.06623799999943,206.06623799999943,206.06623799999943,206.06623799999943,206.06623799999943,206.06623799999943,206.06623799999943,206.06623799999943,,002,P015,2025_Feb_28_1840,CategoryLocalizer,2021.2.3,59.94492260487078,
169.8,170.0,5,0.0,Stimuli\Blank.png,0,0,0,270,270,270,,,,,,,,,,,,,169.81629330000214,0.016293300002132582,None,206.850257099999,206.850257099999,206.850257099999,206.850257099999,206.850257099999,206.850257099999,206.850257099999,206.850257099999,,002,P015,2025_Feb_28_1840,CategoryLocalizer,2021.2.3,59.94492260487078,
170.0,170.8,4,0.75,Stimuli\ImageFiles-Set2\Scenes\Scenes_083.png,0,0,0,271,271,271,,,,,,,,,,,,,170.00031200000012,0.0003120000001217704,None,207.05043680000017,207.05043680000017,207.05043680000017,207.05043680000017,207.05043680000017,207.05043680000017,207.05043680000017,207.05043680000017,,002,P015,2025_Feb_28_1840,CategoryLocalizer,2021.2.3,59.94492260487078,
170.8,171.0,5,0.0,Stimuli\Blank.png,0,0,0,272,272,272,,,,,,,,,,,,,170.81760349999968,0.017603499999665928,None,207.8512469999987,207.8512469999987,207.8512469999987,207.8512469999987,207.8512469999987,207.8512469999987,207.8512469999987,207.8512469999987,,002,P015,2025_Feb_28_1840,CategoryLocalizer,2021.2.3,59.94492260487078,
171.0,171.8,4,0.75,Stimuli\ImageFiles-Set2\Scenes\Scenes_118.png,0,0,0,273,273,273,,,,,,,,,,,,,171.0007813000011,0.0007813000011083204,None,208.0346473999998,208.0346473999998,208.0346473999998,208.0346473999998,208.0346473999998,208.0346473999998,208.0346473999998,208.0346473999998,,002,P015,2025_Feb_28_1840,CategoryLocalizer,2021.2.3,59.94492260487078,
171.8,172.0,5,0.0,Stimuli\Blank.png,0,0,0,274,274,274,,,,,,,,,,,,,171.80084999999963,0.0008499999996161023,None,208.83535159999883,208.83535159999883,208.83535159999883,208.83535159999883,208.83535159999883,208.83535159999883,208.83535159999883,208.83535159999883,,002,P015,2025_Feb_28_1840,CategoryLocalizer,2021.2.3,59.94492260487078,
172.0,172.8,4,0.75,Stimuli\ImageFiles-Set2\Scenes\Scenes_078.png,0,0,0,275,275,275,,,,,,,,,,,,,172.00158250000095,0.001582500000949949,None,209.03549289999864,209.03549289999864,209.03549289999864,209.03549289999864,209.03549289999864,209.03549289999864,209.03549289999864,209.03549289999864,,002,P015,2025_Feb_28_1840,CategoryLocalizer,2021.2.3,59.94492260487078,
172.8,173.0,5,0.0,Stimuli\Blank.png,0,0,0,276,276,276,,,,,,,,,,,,,172.8027303000017,0.00273030000170138,None,209.83623760000046,209.83623760000046,209.83623760000046,209.83623760000046,209.83623760000046,209.83623760000046,209.83623760000046,209.83623760000046,,002,P015,2025_Feb_28_1840,CategoryLocalizer,2021.2.3,59.94492260487078,
173.0,173.8,4,0.75,Stimuli\ImageFiles-Set2\Scenes\Scenes_116.png,0,0,0,277,277,277,,,,,,,,,,,,,173.00197320000007,0.0019732000000658445,None,210.03640319999977,210.03640319999977,210.03640319999977,210.03640319999977,210.03640319999977,210.03640319999977,210.03640319999977,210.03640319999977,,002,P015,2025_Feb_28_1840,CategoryLocalizer,2021.2.3,59.94492260487078,
173.8,174.0,5,0.0,Stimuli\Blank.png,0,0,0,278,278,278,,,,,,,,,,,,,173.80492629999935,0.0049262999993402445,None,210.85376689999975,210.85376689999975,210.85376689999975,210.85376689999975,210.85376689999975,210.85376689999975,210.85376689999975,210.85376689999975,,002,P015,2025_Feb_28_1840,CategoryLocalizer,2021.2.3,59.94492260487078,
174.0,174.8,4,0.75,Stimuli\ImageFiles-Set2\Scenes\Scenes_119.png,0,0,0,279,279,279,,,,,,,,,,,,,174.019849100001,0.01984910000101081,None,211.07065879999936,211.07065879999936,211.07065879999936,211.07065879999936,211.07065879999936,211.07065879999936,211.07065879999936,211.07065879999936,,002,P015,2025_Feb_28_1840,CategoryLocalizer,2021.2.3,59.94492260487078,
174.8,175.0,5,0.0,Stimuli\Blank.png,0,0,0,280,280,280,,,,,,,,,,,,,174.82131420000223,0.02131420000222306,None,211.85470260000147,211.85470260000147,211.85470260000147,211.85470260000147,211.85470260000147,211.85470260000147,211.85470260000147,211.85470260000147,,002,P015,2025_Feb_28_1840,CategoryLocalizer,2021.2.3,59.94492260487078,
175.0,175.8,4,0.75,Stimuli\ImageFiles-Set2\Scenes\Scenes_093.png,0,0,0,281,281,281,,,,,,,,,,,,,175.0054502000021,0.005450200002087513,None,212.0548772000002,212.0548772000002,212.0548772000002,212.0548772000002,212.0548772000002,212.0548772000002,212.0548772000002,212.0548772000002,,002,P015,2025_Feb_28_1840,CategoryLocalizer,2021.2.3,59.94492260487078,
175.8,176.0,5,0.0,Stimuli\Blank.png,0,0,0,282,282,282,,,,,,,,,,,,,175.82101479999983,0.02101479999981848,None,212.85557049999989,212.85557049999989,212.85557049999989,212.85557049999989,212.85557049999989,212.85557049999989,212.85557049999989,212.85557049999989,,002,P015,2025_Feb_28_1840,CategoryLocalizer,2021.2.3,59.94492260487078,
176.0,176.8,4,0.75,Stimuli\ImageFiles-Set2\Scenes\Scenes_091.png,0,0,0,283,283,283,,,,,,,,,,,,,176.00560840000253,0.005608400002529379,None,213.05575189999945,213.05575189999945,213.05575189999945,213.05575189999945,213.05575189999945,213.05575189999945,213.05575189999945,213.05575189999945,,002,P015,2025_Feb_28_1840,CategoryLocalizer,2021.2.3,59.94492260487078,
176.8,177.0,5,0.0,Stimuli\Blank.png,0,0,0,284,284,284,,,,,,,,,,,,,176.8218850000012,0.0218850000011912,None,213.85646519999864,213.85646519999864,213.85646519999864,213.85646519999864,213.85646519999864,213.85646519999864,213.85646519999864,213.85646519999864,,002,P015,2025_Feb_28_1840,CategoryLocalizer,2021.2.3,59.94492260487078,
177.0,177.8,4,0.75,Stimuli\ImageFiles-Set2\Scenes\Scenes_091.png,1,1,0,285,285,285,,,,,,,,,,,,,177.0054839000004,0.005483900000399444,1,214.05666790000032,214.05666790000032,214.05666790000032,214.05666790000032,214.05666790000032,214.05666790000032,214.05666790000032,214.05666790000032,0.4207118000012997,002,P015,2025_Feb_28_1840,CategoryLocalizer,2021.2.3,59.94492260487078,
