eventStartTime,eventEndTime,eventCond,imSize,imFile,repeatedImage,responseEvent,Events.thisRepN,Events.thisTrialN,Events.thisN,Events.thisIndex,Instructions.started,Instructions.stopped,participantReadyResponse.keys,participantReadyResponse.rt,participantReadyResponse.started,participantReadyResponse.stopped,startWaitforTrigger,triggerResponse.keys,triggerResponse.rt,triggerResponse.started,triggerResponse.stopped,globalTimer,actualStartTime,startTimingDiff,participantResponse.keys,participantResponse.started,participantResponse.stopped,image.started,image.stopped,fixationOutside.started,fixationOutside.stopped,fixationInside.started,fixationInside.stopped,participantResponse.rt,session,participant,date,expName,psychopyVersion,frameRate,
,,,,,,,,,,,12.354439499998989,None,1,10.261679899998853,12.354439499998989,None,,,,,,,,,,,,,,,,,,,003,P015,2025_Feb_28_1908,CategoryLocalizer,2021.2.3,59.919707591675646,
,,,,,,,,,,,,,,,,,22.621591099999932,5,14.54322239999965,22.63478149999719,None,,,,,,,,,,,,,,003,P015,2025_Feb_28_1908,CategoryLocalizer,2021.2.3,59.919707591675646,
0.0,12.0,0,0.0,Stimuli\Blank.png,0,0,0,0,0,0,,,,,,,,,,,,37.18442889999642,0.044589400000404567,0.044589400000404567,None,37.247708999999304,None,37.247708999999304,None,37.247708999999304,None,37.247708999999304,None,,003,P015,2025_Feb_28_1908,CategoryLocalizer,2021.2.3,59.919707591675646,
12.0,12.8,1,0.75,Stimuli\ImageFiles-Set1\Objects\Object_Tool_00001.png,0,0,0,1,1,1,,,,,,,,,,,,,12.011632899997494,0.01163289999749395,None,49.22499849999804,49.22499849999804,49.22499849999804,49.22499849999804,49.22499849999804,49.22499849999804,49.22499849999804,49.22499849999804,,003,P015,2025_Feb_28_1908,CategoryLocalizer,2021.2.3,59.919707591675646,
12.8,13.0,5,0.0,Stimuli\Blank.png,0,0,0,2,2,2,,,,,,,,,,,,,12.82652489999964,0.026524899999639473,None,50.02568339999925,50.02568339999925,50.02568339999925,50.02568339999925,50.02568339999925,50.02568339999925,50.02568339999925,50.02568339999925,,003,P015,2025_Feb_28_1908,CategoryLocalizer,2021.2.3,59.919707591675646,
13.0,13.8,1,0.75,Stimuli\ImageFiles-Set1\Objects\Object_Bottle_00001.png,0,0,0,3,3,3,,,,,,,,,,,,,13.010755299997982,0.010755299997981638,None,50.22588369999721,50.22588369999721,50.22588369999721,50.22588369999721,50.22588369999721,50.22588369999721,50.22588369999721,50.22588369999721,,003,P015,2025_Feb_28_1908,CategoryLocalizer,2021.2.3,59.919707591675646,
13.8,14.0,5,0.0,Stimuli\Blank.png,0,0,0,4,4,4,,,,,,,,,,,,,13.8276036999996,0.027603699999598774,None,51.02654589999656,51.02654589999656,51.02654589999656,51.02654589999656,51.02654589999656,51.02654589999656,51.02654589999656,51.02654589999656,,003,P015,2025_Feb_28_1908,CategoryLocalizer,2021.2.3,59.919707591675646,
14.0,14.8,1,0.75,Stimuli\ImageFiles-Set1\Objects\Object_Pencil_00001.png,0,0,0,5,5,5,,,,,,,,,,,,,14.01173419999759,0.011734199997590622,None,51.210067599997274,51.210067599997274,51.210067599997274,51.210067599997274,51.210067599997274,51.210067599997274,51.210067599997274,51.210067599997274,,003,P015,2025_Feb_28_1908,CategoryLocalizer,2021.2.3,59.919707591675646,
14.8,15.0,5,0.0,Stimuli\Blank.png,0,0,0,6,6,6,,,,,,,,,,,,,14.811728299999231,0.01172829999923053,None,52.01077699999951,52.01077699999951,52.01077699999951,52.01077699999951,52.01077699999951,52.01077699999951,52.01077699999951,52.01077699999951,,003,P015,2025_Feb_28_1908,CategoryLocalizer,2021.2.3,59.919707591675646,
15.0,15.8,1,0.75,Stimuli\ImageFiles-Set1\Objects\Object_Book_00001.png,0,0,0,7,7,7,,,,,,,,,,,,,15.011965800000326,0.011965800000325544,None,52.2109461,52.2109461,52.2109461,52.2109461,52.2109461,52.2109461,52.2109461,52.2109461,,003,P015,2025_Feb_28_1908,CategoryLocalizer,2021.2.3,59.919707591675646,
15.8,16.0,5,0.0,Stimuli\Blank.png,0,0,0,8,8,8,,,,,,,,,,,,,15.813170499997796,0.013170499997794849,None,53.01165409999885,53.01165409999885,53.01165409999885,53.01165409999885,53.01165409999885,53.01165409999885,53.01165409999885,53.01165409999885,,003,P015,2025_Feb_28_1908,CategoryLocalizer,2021.2.3,59.919707591675646,
16.0,16.8,1,0.75,Stimuli\ImageFiles-Set1\Objects\Object_Glasses_00001.png,0,0,0,9,9,9,,,,,,,,,,,,,16.01356189999933,0.013561899999331217,None,53.211830699998245,53.211830699998245,53.211830699998245,53.211830699998245,53.211830699998245,53.211830699998245,53.211830699998245,53.211830699998245,,003,P015,2025_Feb_28_1908,CategoryLocalizer,2021.2.3,59.919707591675646,
16.8,17.0,5,0.0,Stimuli\Blank.png,0,0,0,10,10,10,,,,,,,,,,,,,16.81355789999725,0.013557899997248768,None,54.01256049999938,54.01256049999938,54.01256049999938,54.01256049999938,54.01256049999938,54.01256049999938,54.01256049999938,54.01256049999938,,003,P015,2025_Feb_28_1908,CategoryLocalizer,2021.2.3,59.919707591675646,
17.0,17.8,1,0.75,Stimuli\ImageFiles-Set1\Objects\Object_Card_00001.png,0,0,0,11,11,11,,,,,,,,,,,,,17.01422359999924,0.014223599999240832,None,54.229417799997464,54.229417799997464,54.229417799997464,54.229417799997464,54.229417799997464,54.229417799997464,54.229417799997464,54.229417799997464,,003,P015,2025_Feb_28_1908,CategoryLocalizer,2021.2.3,59.919707591675646,
17.8,18.0,5,0.0,Stimuli\Blank.png,0,0,0,12,12,12,,,,,,,,,,,,,17.83341929999733,0.0334192999973304,None,55.04680819999703,55.04680819999703,55.04680819999703,55.04680819999703,55.04680819999703,55.04680819999703,55.04680819999703,55.04680819999703,,003,P015,2025_Feb_28_1908,CategoryLocalizer,2021.2.3,59.919707591675646,
18.0,18.8,1,0.75,Stimuli\ImageFiles-Set1\Objects\Object_Ring_00001.png,0,0,0,13,13,13,,,,,,,,,,,,,18.01462519999768,0.014625199997681193,None,55.21360529999947,55.21360529999947,55.21360529999947,55.21360529999947,55.21360529999947,55.21360529999947,55.21360529999947,55.21360529999947,,003,P015,2025_Feb_28_1908,CategoryLocalizer,2021.2.3,59.919707591675646,
18.8,19.0,5,0.0,Stimuli\Blank.png,0,0,0,14,14,14,,,,,,,,,,,,,18.815773099999205,0.01577309999920473,None,56.01432239999849,56.01432239999849,56.01432239999849,56.01432239999849,56.01432239999849,56.01432239999849,56.01432239999849,56.01432239999849,,003,P015,2025_Feb_28_1908,CategoryLocalizer,2021.2.3,59.919707591675646,
19.0,19.8,1,0.75,Stimuli\ImageFiles-Set1\Objects\Object_Airplane_00001.png,0,0,0,15,15,15,,,,,,,,,,,,,18.99915119999787,-0.0008488000021316111,None,56.197815499999706,56.197815499999706,56.197815499999706,56.197815499999706,56.197815499999706,56.197815499999706,56.197815499999706,56.197815499999706,,003,P015,2025_Feb_28_1908,CategoryLocalizer,2021.2.3,59.919707591675646,
19.8,20.0,5,0.0,Stimuli\Blank.png,0,0,0,16,16,16,,,,,,,,,,,,,19.79941029999827,-0.0005897000017291987,None,56.99852419999661,56.99852419999661,56.99852419999661,56.99852419999661,56.99852419999661,56.99852419999661,56.99852419999661,56.99852419999661,,003,P015,2025_Feb_28_1908,CategoryLocalizer,2021.2.3,59.919707591675646,
20.0,20.8,1,0.75,Stimuli\ImageFiles-Set1\Objects\Object_Dryer_00001.png,0,0,0,17,17,17,,,,,,,,,,,,,20.000830199998745,0.0008301999987452291,None,57.21537649999664,57.21537649999664,57.21537649999664,57.21537649999664,57.21537649999664,57.21537649999664,57.21537649999664,57.21537649999664,,003,P015,2025_Feb_28_1908,CategoryLocalizer,2021.2.3,59.919707591675646,
20.8,21.0,5,0.0,Stimuli\Blank.png,0,0,0,18,18,18,,,,,,,,,,,,,20.819104199999856,0.019104199999855354,None,58.032780899997306,58.032780899997306,58.032780899997306,58.032780899997306,58.032780899997306,58.032780899997306,58.032780899997306,58.032780899997306,,003,P015,2025_Feb_28_1908,CategoryLocalizer,2021.2.3,59.919707591675646,
21.0,21.8,1,0.75,Stimuli\ImageFiles-Set1\Objects\Object_Watch_00001.png,0,0,0,19,19,19,,,,,,,,,,,,,21.017883399999846,0.017883399999846006,None,58.232942699996784,58.232942699996784,58.232942699996784,58.232942699996784,58.232942699996784,58.232942699996784,58.232942699996784,58.232942699996784,,003,P015,2025_Feb_28_1908,CategoryLocalizer,2021.2.3,59.919707591675646,
21.8,22.0,5,0.0,Stimuli\Blank.png,0,0,0,20,20,20,,,,,,,,,,,,,21.818171099999745,0.0181710999997442,None,59.016975899998215,59.016975899998215,59.016975899998215,59.016975899998215,59.016975899998215,59.016975899998215,59.016975899998215,59.016975899998215,,003,P015,2025_Feb_28_1908,CategoryLocalizer,2021.2.3,59.919707591675646,
22.0,22.8,1,0.75,Stimuli\ImageFiles-Set1\Objects\Object_ComputerMouse_00001.png,0,0,0,21,21,21,,,,,,,,,,,,,22.004330100000516,0.004330100000515813,None,59.21715419999964,59.21715419999964,59.21715419999964,59.21715419999964,59.21715419999964,59.21715419999964,59.21715419999964,59.21715419999964,,003,P015,2025_Feb_28_1908,CategoryLocalizer,2021.2.3,59.919707591675646,
22.8,23.0,5,0.0,Stimuli\Blank.png,0,0,0,22,22,22,,,,,,,,,,,,,22.819673599999078,0.01967359999907714,None,60.0178582999979,60.0178582999979,60.0178582999979,60.0178582999979,60.0178582999979,60.0178582999979,60.0178582999979,60.0178582999979,,003,P015,2025_Feb_28_1908,CategoryLocalizer,2021.2.3,59.919707591675646,
23.0,23.8,1,0.75,Stimuli\ImageFiles-Set1\Objects\Object_Stool_00001.png,0,0,0,23,23,23,,,,,,,,,,,,,23.002891199997975,0.002891199997975491,None,60.201402199996664,60.201402199996664,60.201402199996664,60.201402199996664,60.201402199996664,60.201402199996664,60.201402199996664,60.201402199996664,,003,P015,2025_Feb_28_1908,CategoryLocalizer,2021.2.3,59.919707591675646,
23.8,24.0,5,0.0,Stimuli\Blank.png,0,0,0,24,24,24,,,,,,,,,,,,,23.803813099999388,0.0038130999993875037,None,61.00206539999999,61.00206539999999,61.00206539999999,61.00206539999999,61.00206539999999,61.00206539999999,61.00206539999999,61.00206539999999,,003,P015,2025_Feb_28_1908,CategoryLocalizer,2021.2.3,59.919707591675646,
24.0,24.8,1,0.75,Stimuli\ImageFiles-Set1\Objects\Object_Stool_00001.png,1,1,0,25,25,25,,,,,,,,,,,,,24.003180799998518,0.003180799998517614,1,61.20223579999947,61.20223579999947,61.20223579999947,61.20223579999947,61.20223579999947,61.20223579999947,61.20223579999947,61.20223579999947,0.407088299998577,003,P015,2025_Feb_28_1908,CategoryLocalizer,2021.2.3,59.919707591675646,
24.8,25.0,5,0.0,Stimuli\Blank.png,0,0,0,26,26,26,,,,,,,,,,,,,24.804670099998475,0.004670099998474342,None,62.002949899997475,62.002949899997475,62.002949899997475,62.002949899997475,62.002949899997475,62.002949899997475,62.002949899997475,62.002949899997475,,003,P015,2025_Feb_28_1908,CategoryLocalizer,2021.2.3,59.919707591675646,
25.0,25.8,1,0.75,Stimuli\ImageFiles-Set1\Objects\Object_Locker_00001.png,0,0,0,27,27,27,,,,,,,,,,,,,25.004149599997618,0.00414959999761777,None,62.203126299998985,62.203126299998985,62.203126299998985,62.203126299998985,62.203126299998985,62.203126299998985,62.203126299998985,62.203126299998985,,003,P015,2025_Feb_28_1908,CategoryLocalizer,2021.2.3,59.919707591675646,
25.8,26.0,5,0.0,Stimuli\Blank.png,0,0,0,28,28,28,,,,,,,,,,,,,25.80476709999857,0.004767099998570501,None,63.003835999999865,63.003835999999865,63.003835999999865,63.003835999999865,63.003835999999865,63.003835999999865,63.003835999999865,63.003835999999865,,003,P015,2025_Feb_28_1908,CategoryLocalizer,2021.2.3,59.919707591675646,
26.0,26.8,1,0.75,Stimuli\ImageFiles-Set1\Objects\Object_Gun_00001.png,0,0,0,29,29,29,,,,,,,,,,,,,26.005806599998323,0.005806599998322781,None,63.220699099998455,63.220699099998455,63.220699099998455,63.220699099998455,63.220699099998455,63.220699099998455,63.220699099998455,63.220699099998455,,003,P015,2025_Feb_28_1908,CategoryLocalizer,2021.2.3,59.919707591675646,
26.8,27.0,5,0.0,Stimuli\Blank.png,0,0,0,30,30,30,,,,,,,,,,,,,26.82304329999897,0.023043299998970923,None,64.02141219999976,64.02141219999976,64.02141219999976,64.02141219999976,64.02141219999976,64.02141219999976,64.02141219999976,64.02141219999976,,003,P015,2025_Feb_28_1908,CategoryLocalizer,2021.2.3,59.919707591675646,
27.0,27.8,1,0.75,Stimuli\ImageFiles-Set1\Objects\Object_Dice_00001.png,0,0,0,31,31,31,,,,,,,,,,,,,27.006617899998673,0.006617899998673238,None,64.20491639999818,64.20491639999818,64.20491639999818,64.20491639999818,64.20491639999818,64.20491639999818,64.20491639999818,64.20491639999818,,003,P015,2025_Feb_28_1908,CategoryLocalizer,2021.2.3,59.919707591675646,
27.8,28.0,5,0.0,Stimuli\Blank.png,0,0,0,32,32,32,,,,,,,,,,,,,27.80690549999781,0.006905499997809983,None,65.00565539999661,65.00565539999661,65.00565539999661,65.00565539999661,65.00565539999661,65.00565539999661,65.00565539999661,65.00565539999661,,003,P015,2025_Feb_28_1908,CategoryLocalizer,2021.2.3,59.919707591675646,
28.0,28.8,2,0.75,Stimuli\ImageFiles-Set1\Bodies\Bodies_CobraPose_00003.png,0,0,0,33,33,33,,,,,,,,,,,,,28.006732300000294,0.0067323000002943445,None,65.20578999999998,65.20578999999998,65.20578999999998,65.20578999999998,65.20578999999998,65.20578999999998,65.20578999999998,65.20578999999998,,003,P015,2025_Feb_28_1908,CategoryLocalizer,2021.2.3,59.919707591675646,
28.8,29.0,5,0.0,Stimuli\Blank.png,0,0,0,34,34,34,,,,,,,,,,,,,28.808571099998517,0.008571099998516019,None,66.00649209999756,66.00649209999756,66.00649209999756,66.00649209999756,66.00649209999756,66.00649209999756,66.00649209999756,66.00649209999756,,003,P015,2025_Feb_28_1908,CategoryLocalizer,2021.2.3,59.919707591675646,
29.0,29.8,2,0.75,Stimuli\ImageFiles-Set1\Bodies\Bodies_Punching_00006.png,0,0,0,35,35,35,,,,,,,,,,,,,29.01021319999927,0.010213199999270728,None,66.22335439999733,66.22335439999733,66.22335439999733,66.22335439999733,66.22335439999733,66.22335439999733,66.22335439999733,66.22335439999733,,003,P015,2025_Feb_28_1908,CategoryLocalizer,2021.2.3,59.919707591675646,
29.8,30.0,5,0.0,Stimuli\Blank.png,0,0,0,36,36,36,,,,,,,,,,,,,29.82500330000039,0.02500330000038886,None,67.02405539999745,67.02405539999745,67.02405539999745,67.02405539999745,67.02405539999745,67.02405539999745,67.02405539999745,67.02405539999745,,003,P015,2025_Feb_28_1908,CategoryLocalizer,2021.2.3,59.919707591675646,
30.0,30.8,2,0.75,Stimuli\ImageFiles-Set1\Bodies\Bodies_Walking_00006.png,0,0,0,37,37,37,,,,,,,,,,,,,30.00973410000006,0.009734100000059698,None,67.22427199999947,67.22427199999947,67.22427199999947,67.22427199999947,67.22427199999947,67.22427199999947,67.22427199999947,67.22427199999947,,003,P015,2025_Feb_28_1908,CategoryLocalizer,2021.2.3,59.919707591675646,
30.8,31.0,5,0.0,Stimuli\Blank.png,0,0,0,38,38,38,,,,,,,,,,,,,30.82639399999971,0.026393999999708484,None,68.02494079999815,68.02494079999815,68.02494079999815,68.02494079999815,68.02494079999815,68.02494079999815,68.02494079999815,68.02494079999815,,003,P015,2025_Feb_28_1908,CategoryLocalizer,2021.2.3,59.919707591675646,
31.0,31.8,2,0.75,Stimuli\ImageFiles-Set1\Bodies\Bodies_SittingFloor_00003.png,0,0,0,39,39,39,,,,,,,,,,,,,31.010041399997135,0.010041399997135159,None,68.20841129999826,68.20841129999826,68.20841129999826,68.20841129999826,68.20841129999826,68.20841129999826,68.20841129999826,68.20841129999826,,003,P015,2025_Feb_28_1908,CategoryLocalizer,2021.2.3,59.919707591675646,
31.8,32.0,5,0.0,Stimuli\Blank.png,0,0,0,40,40,40,,,,,,,,,,,,,31.81010519999836,0.010105199998360348,None,69.0091270999983,69.0091270999983,69.0091270999983,69.0091270999983,69.0091270999983,69.0091270999983,69.0091270999983,69.0091270999983,,003,P015,2025_Feb_28_1908,CategoryLocalizer,2021.2.3,59.919707591675646,
32.0,32.8,2,0.75,Stimuli\ImageFiles-Set1\Bodies\Bodies_Pushing_00005.png,0,0,0,41,41,41,,,,,,,,,,,,,32.0104872999982,0.010487299998203525,None,69.2093309999982,69.2093309999982,69.2093309999982,69.2093309999982,69.2093309999982,69.2093309999982,69.2093309999982,69.2093309999982,,003,P015,2025_Feb_28_1908,CategoryLocalizer,2021.2.3,59.919707591675646,
32.8,33.0,5,0.0,Stimuli\Blank.png,0,0,0,42,42,42,,,,,,,,,,,,,32.811389299997245,0.011389299997247804,None,70.01003599999967,70.01003599999967,70.01003599999967,70.01003599999967,70.01003599999967,70.01003599999967,70.01003599999967,70.01003599999967,,003,P015,2025_Feb_28_1908,CategoryLocalizer,2021.2.3,59.919707591675646,
33.0,33.8,2,0.75,Stimuli\ImageFiles-Set1\Bodies\Bodies_QuadStretch_00005.png,0,0,0,43,43,43,,,,,,,,,,,,,33.01122670000041,0.011226700000406709,None,70.21018679999906,70.21018679999906,70.21018679999906,70.21018679999906,70.21018679999906,70.21018679999906,70.21018679999906,70.21018679999906,,003,P015,2025_Feb_28_1908,CategoryLocalizer,2021.2.3,59.919707591675646,
33.8,34.0,5,0.0,Stimuli\Blank.png,0,0,0,44,44,44,,,,,,,,,,,,,33.814862399998674,0.014862399998676779,None,71.02763009999762,71.02763009999762,71.02763009999762,71.02763009999762,71.02763009999762,71.02763009999762,71.02763009999762,71.02763009999762,,003,P015,2025_Feb_28_1908,CategoryLocalizer,2021.2.3,59.919707591675646,
34.0,34.8,2,0.75,Stimuli\ImageFiles-Set1\Bodies\Bodies_DownwardDog_00001.png,0,0,0,45,45,45,,,,,,,,,,,,,34.028615600000194,0.028615600000193808,None,71.22777369999676,71.22777369999676,71.22777369999676,71.22777369999676,71.22777369999676,71.22777369999676,71.22777369999676,71.22777369999676,,003,P015,2025_Feb_28_1908,CategoryLocalizer,2021.2.3,59.919707591675646,
34.8,35.0,5,0.0,Stimuli\Blank.png,0,0,0,46,46,46,,,,,,,,,,,,,34.8126760999985,0.012676099998500945,None,72.01181079999878,72.01181079999878,72.01181079999878,72.01181079999878,72.01181079999878,72.01181079999878,72.01181079999878,72.01181079999878,,003,P015,2025_Feb_28_1908,CategoryLocalizer,2021.2.3,59.919707591675646,
35.0,35.8,2,0.75,Stimuli\ImageFiles-Set1\Bodies\Bodies_Waving_00001.png,0,0,0,47,47,47,,,,,,,,,,,,,35.01323090000005,0.013230900000053225,None,72.21196139999665,72.21196139999665,72.21196139999665,72.21196139999665,72.21196139999665,72.21196139999665,72.21196139999665,72.21196139999665,,003,P015,2025_Feb_28_1908,CategoryLocalizer,2021.2.3,59.919707591675646,
35.8,36.0,5,0.0,Stimuli\Blank.png,0,0,0,48,48,48,,,,,,,,,,,,,35.81612630000018,0.016126300000181004,None,73.02939829999741,73.02939829999741,73.02939829999741,73.02939829999741,73.02939829999741,73.02939829999741,73.02939829999741,73.02939829999741,,003,P015,2025_Feb_28_1908,CategoryLocalizer,2021.2.3,59.919707591675646,
36.0,36.8,2,0.75,Stimuli\ImageFiles-Set1\Bodies\Bodies_Kicking_00007.png,0,0,0,49,49,49,,,,,,,,,,,,,36.01383440000063,0.01383440000063274,None,73.2129548999983,73.2129548999983,73.2129548999983,73.2129548999983,73.2129548999983,73.2129548999983,73.2129548999983,73.2129548999983,,003,P015,2025_Feb_28_1908,CategoryLocalizer,2021.2.3,59.919707591675646,
36.8,37.0,5,0.0,Stimuli\Blank.png,0,0,0,50,50,50,,,,,,,,,,,,,36.81443769999896,0.014437699998964604,None,74.01360679999925,74.01360679999925,74.01360679999925,74.01360679999925,74.01360679999925,74.01360679999925,74.01360679999925,74.01360679999925,,003,P015,2025_Feb_28_1908,CategoryLocalizer,2021.2.3,59.919707591675646,
37.0,37.8,2,0.75,Stimuli\ImageFiles-Set1\Bodies\Bodies_CobraPose_00001.png,0,0,0,51,51,51,,,,,,,,,,,,,37.01464929999929,0.014649299999291543,None,74.21376139999848,74.21376139999848,74.21376139999848,74.21376139999848,74.21376139999848,74.21376139999848,74.21376139999848,74.21376139999848,,003,P015,2025_Feb_28_1908,CategoryLocalizer,2021.2.3,59.919707591675646,
37.8,38.0,5,0.0,Stimuli\Blank.png,0,0,0,52,52,52,,,,,,,,,,,,,37.8173526999999,0.017352699999904075,None,75.03115029999753,75.03115029999753,75.03115029999753,75.03115029999753,75.03115029999753,75.03115029999753,75.03115029999753,75.03115029999753,,003,P015,2025_Feb_28_1908,CategoryLocalizer,2021.2.3,59.919707591675646,
38.0,38.8,2,0.75,Stimuli\ImageFiles-Set1\Bodies\Bodies_SittingStretch_00002.png,0,0,0,53,53,53,,,,,,,,,,,,,38.01626109999779,0.01626109999779146,None,75.21463989999756,75.21463989999756,75.21463989999756,75.21463989999756,75.21463989999756,75.21463989999756,75.21463989999756,75.21463989999756,,003,P015,2025_Feb_28_1908,CategoryLocalizer,2021.2.3,59.919707591675646,
38.8,39.0,5,0.0,Stimuli\Blank.png,0,0,0,54,54,54,,,,,,,,,,,,,38.79966119999881,-0.00033880000118813314,None,75.99866049999764,75.99866049999764,75.99866049999764,75.99866049999764,75.99866049999764,75.99866049999764,75.99866049999764,75.99866049999764,,003,P015,2025_Feb_28_1908,CategoryLocalizer,2021.2.3,59.919707591675646,
39.0,39.8,2,0.75,Stimuli\ImageFiles-Set1\Bodies\Bodies_Lunging_00004.png,0,0,0,55,55,55,,,,,,,,,,,,,39.00250120000055,0.002501200000551762,None,76.21552849999716,76.21552849999716,76.21552849999716,76.21552849999716,76.21552849999716,76.21552849999716,76.21552849999716,76.21552849999716,,003,P015,2025_Feb_28_1908,CategoryLocalizer,2021.2.3,59.919707591675646,
39.8,40.0,5,0.0,Stimuli\Blank.png,0,0,0,56,56,56,,,,,,,,,,,,,39.817849499999284,0.017849499999286422,None,77.01620339999863,77.01620339999863,77.01620339999863,77.01620339999863,77.01620339999863,77.01620339999863,77.01620339999863,77.01620339999863,,003,P015,2025_Feb_28_1908,CategoryLocalizer,2021.2.3,59.919707591675646,
40.0,40.8,2,0.75,Stimuli\ImageFiles-Set1\Bodies\Bodies_Pushing_00001.png,0,0,0,57,57,57,,,,,,,,,,,,,40.00322640000013,0.003226400000130525,None,77.21641269999964,77.21641269999964,77.21641269999964,77.21641269999964,77.21641269999964,77.21641269999964,77.21641269999964,77.21641269999964,,003,P015,2025_Feb_28_1908,CategoryLocalizer,2021.2.3,59.919707591675646,
40.8,41.0,5,0.0,Stimuli\Blank.png,0,0,0,58,58,58,,,,,,,,,,,,,40.81808439999804,0.018084399998045342,None,78.01711769999747,78.01711769999747,78.01711769999747,78.01711769999747,78.01711769999747,78.01711769999747,78.01711769999747,78.01711769999747,,003,P015,2025_Feb_28_1908,CategoryLocalizer,2021.2.3,59.919707591675646,
41.0,41.8,2,0.75,Stimuli\ImageFiles-Set1\Bodies\Bodies_DownwardDog_00006.png,0,0,0,59,59,59,,,,,,,,,,,,,41.00187679999726,0.0018767999972624239,None,78.20061999999962,78.20061999999962,78.20061999999962,78.20061999999962,78.20061999999962,78.20061999999962,78.20061999999962,78.20061999999962,,003,P015,2025_Feb_28_1908,CategoryLocalizer,2021.2.3,59.919707591675646,
41.8,42.0,5,0.0,Stimuli\Blank.png,0,0,0,60,60,60,,,,,,,,,,,,,41.80230920000031,0.002309200000311762,None,79.00132089999897,79.00132089999897,79.00132089999897,79.00132089999897,79.00132089999897,79.00132089999897,79.00132089999897,79.00132089999897,,003,P015,2025_Feb_28_1908,CategoryLocalizer,2021.2.3,59.919707591675646,
42.0,42.8,2,0.75,Stimuli\ImageFiles-Set1\Bodies\Bodies_DownwardDog_00006.png,1,1,0,61,61,61,,,,,,,,,,,,,42.00349379999898,0.00349379999897792,1,79.21819149999646,79.21819149999646,79.21819149999646,79.21819149999646,79.21819149999646,79.21819149999646,79.21819149999646,79.21819149999646,0.4770354000029329,003,P015,2025_Feb_28_1908,CategoryLocalizer,2021.2.3,59.919707591675646,
42.8,43.0,5,0.0,Stimuli\Blank.png,0,0,0,62,62,62,,,,,,,,,,,,,42.820671099998435,0.02067109999843808,None,80.0188976999998,80.0188976999998,80.0188976999998,80.0188976999998,80.0188976999998,80.0188976999998,80.0188976999998,80.0188976999998,,003,P015,2025_Feb_28_1908,CategoryLocalizer,2021.2.3,59.919707591675646,
43.0,43.8,2,0.75,Stimuli\ImageFiles-Set1\Bodies\Bodies_DownwardDog_00003.png,0,0,0,63,63,63,,,,,,,,,,,,,43.00320029999784,0.0032002999978431035,None,80.20237889999771,80.20237889999771,80.20237889999771,80.20237889999771,80.20237889999771,80.20237889999771,80.20237889999771,80.20237889999771,,003,P015,2025_Feb_28_1908,CategoryLocalizer,2021.2.3,59.919707591675646,
43.8,44.0,5,0.0,Stimuli\Blank.png,0,0,0,64,64,64,,,,,,,,,,,,,43.80468249999831,0.004682499998310163,None,81.0030900999991,81.0030900999991,81.0030900999991,81.0030900999991,81.0030900999991,81.0030900999991,81.0030900999991,81.0030900999991,,003,P015,2025_Feb_28_1908,CategoryLocalizer,2021.2.3,59.919707591675646,
44.0,44.8,3,0.75,Stimuli\ImageFiles-Set1\Faces\Face_00055.png,0,0,0,65,65,65,,,,,,,,,,,,,44.004142999998294,0.004142999998293817,None,81.2199772999993,81.2199772999993,81.2199772999993,81.2199772999993,81.2199772999993,81.2199772999993,81.2199772999993,81.2199772999993,,003,P015,2025_Feb_28_1908,CategoryLocalizer,2021.2.3,59.919707591675646,
44.8,45.0,5,0.0,Stimuli\Blank.png,0,0,0,66,66,66,,,,,,,,,,,,,44.822839000000386,0.02283900000038841,None,82.02066049999848,82.02066049999848,82.02066049999848,82.02066049999848,82.02066049999848,82.02066049999848,82.02066049999848,82.02066049999848,,003,P015,2025_Feb_28_1908,CategoryLocalizer,2021.2.3,59.919707591675646,
45.0,45.8,3,0.75,Stimuli\ImageFiles-Set1\Faces\Face_00095.png,0,0,0,67,67,67,,,,,,,,,,,,,45.00594909999927,0.005949099999270402,None,82.22084449999966,82.22084449999966,82.22084449999966,82.22084449999966,82.22084449999966,82.22084449999966,82.22084449999966,82.22084449999966,,003,P015,2025_Feb_28_1908,CategoryLocalizer,2021.2.3,59.919707591675646,
45.8,46.0,5,0.0,Stimuli\Blank.png,0,0,0,68,68,68,,,,,,,,,,,,,45.823997799998324,0.02399779999832674,None,83.02156219999961,83.02156219999961,83.02156219999961,83.02156219999961,83.02156219999961,83.02156219999961,83.02156219999961,83.02156219999961,,003,P015,2025_Feb_28_1908,CategoryLocalizer,2021.2.3,59.919707591675646,
46.0,46.8,3,0.75,Stimuli\ImageFiles-Set1\Faces\Face_00091.png,0,0,0,69,69,69,,,,,,,,,,,,,46.006320500000584,0.006320500000583706,None,83.2050436999998,83.2050436999998,83.2050436999998,83.2050436999998,83.2050436999998,83.2050436999998,83.2050436999998,83.2050436999998,,003,P015,2025_Feb_28_1908,CategoryLocalizer,2021.2.3,59.919707591675646,
46.8,47.0,5,0.0,Stimuli\Blank.png,0,0,0,70,70,70,,,,,,,,,,,,,46.80716069999835,0.007160699998351561,None,84.00574519999645,84.00574519999645,84.00574519999645,84.00574519999645,84.00574519999645,84.00574519999645,84.00574519999645,84.00574519999645,,003,P015,2025_Feb_28_1908,CategoryLocalizer,2021.2.3,59.919707591675646,
47.0,47.8,3,0.75,Stimuli\ImageFiles-Set1\Faces\Face_00035.png,0,0,0,71,71,71,,,,,,,,,,,,,47.007830799997464,0.007830799997464055,None,84.22261419999995,84.22261419999995,84.22261419999995,84.22261419999995,84.22261419999995,84.22261419999995,84.22261419999995,84.22261419999995,,003,P015,2025_Feb_28_1908,CategoryLocalizer,2021.2.3,59.919707591675646,
47.8,48.0,5,0.0,Stimuli\Blank.png,0,0,0,72,72,72,,,,,,,,,,,,,47.82421609999801,0.02421609999801433,None,85.02332239999669,85.02332239999669,85.02332239999669,85.02332239999669,85.02332239999669,85.02332239999669,85.02332239999669,85.02332239999669,,003,P015,2025_Feb_28_1908,CategoryLocalizer,2021.2.3,59.919707591675646,
48.0,48.8,3,0.75,Stimuli\ImageFiles-Set1\Faces\Face_00018.png,0,0,0,73,73,73,,,,,,,,,,,,,48.007962199997564,0.007962199997564312,None,85.22349969999777,85.22349969999777,85.22349969999777,85.22349969999777,85.22349969999777,85.22349969999777,85.22349969999777,85.22349969999777,,003,P015,2025_Feb_28_1908,CategoryLocalizer,2021.2.3,59.919707591675646,
48.8,49.0,5,0.0,Stimuli\Blank.png,0,0,0,74,74,74,,,,,,,,,,,,,48.82520110000041,0.025201100000415977,None,86.02420689999781,86.02420689999781,86.02420689999781,86.02420689999781,86.02420689999781,86.02420689999781,86.02420689999781,86.02420689999781,,003,P015,2025_Feb_28_1908,CategoryLocalizer,2021.2.3,59.919707591675646,
49.0,49.8,3,0.75,Stimuli\ImageFiles-Set1\Faces\Face_00041.png,0,0,0,75,75,75,,,,,,,,,,,,,49.00854379999873,0.008543799998733448,None,86.20769959999961,86.20769959999961,86.20769959999961,86.20769959999961,86.20769959999961,86.20769959999961,86.20769959999961,86.20769959999961,,003,P015,2025_Feb_28_1908,CategoryLocalizer,2021.2.3,59.919707591675646,
49.8,50.0,5,0.0,Stimuli\Blank.png,0,0,0,76,76,76,,,,,,,,,,,,,49.80923849999817,0.009238499998176053,None,87.00840829999652,87.00840829999652,87.00840829999652,87.00840829999652,87.00840829999652,87.00840829999652,87.00840829999652,87.00840829999652,,003,P015,2025_Feb_28_1908,CategoryLocalizer,2021.2.3,59.919707591675646,
50.0,50.8,3,0.75,Stimuli\ImageFiles-Set1\Faces\Face_00041.png,1,1,0,77,77,77,,,,,,,,,,,,,50.00963169999886,0.009631699998863041,1,87.2085969999971,87.2085969999971,87.2085969999971,87.2085969999971,87.2085969999971,87.2085969999971,87.2085969999971,87.2085969999971,0.41150670000206446,003,P015,2025_Feb_28_1908,CategoryLocalizer,2021.2.3,59.919707591675646,
50.8,51.0,5,0.0,Stimuli\Blank.png,0,0,0,78,78,78,,,,,,,,,,,,,50.812456499999826,0.012456499999828452,None,88.02597929999683,88.02597929999683,88.02597929999683,88.02597929999683,88.02597929999683,88.02597929999683,88.02597929999683,88.02597929999683,,003,P015,2025_Feb_28_1908,CategoryLocalizer,2021.2.3,59.919707591675646,
51.0,51.8,3,0.75,Stimuli\ImageFiles-Set1\Faces\Face_00033.png,0,0,0,79,79,79,,,,,,,,,,,,,51.027710299997125,0.02771029999712482,None,88.24283299999661,88.24283299999661,88.24283299999661,88.24283299999661,88.24283299999661,88.24283299999661,88.24283299999661,88.24283299999661,,003,P015,2025_Feb_28_1908,CategoryLocalizer,2021.2.3,59.919707591675646,
51.8,52.0,5,0.0,Stimuli\Blank.png,0,0,0,80,80,80,,,,,,,,,,,,,51.82853310000064,0.028533100000643685,None,89.0268630999999,89.0268630999999,89.0268630999999,89.0268630999999,89.0268630999999,89.0268630999999,89.0268630999999,89.0268630999999,,003,P015,2025_Feb_28_1908,CategoryLocalizer,2021.2.3,59.919707591675646,
52.0,52.8,3,0.75,Stimuli\ImageFiles-Set1\Faces\Face_00089.png,0,0,0,81,81,81,,,,,,,,,,,,,52.01161299999876,0.011612999998760642,None,89.21036489999824,89.21036489999824,89.21036489999824,89.21036489999824,89.21036489999824,89.21036489999824,89.21036489999824,89.21036489999824,,003,P015,2025_Feb_28_1908,CategoryLocalizer,2021.2.3,59.919707591675646,
52.8,53.0,5,0.0,Stimuli\Blank.png,0,0,0,82,82,82,,,,,,,,,,,,,52.81267730000036,0.01267730000036238,None,90.01109749999887,90.01109749999887,90.01109749999887,90.01109749999887,90.01109749999887,90.01109749999887,90.01109749999887,90.01109749999887,,003,P015,2025_Feb_28_1908,CategoryLocalizer,2021.2.3,59.919707591675646,
53.0,53.8,3,0.75,Stimuli\ImageFiles-Set1\Faces\Face_00053.png,0,0,0,83,83,83,,,,,,,,,,,,,53.01313780000055,0.01313780000054976,None,90.22793709999678,90.22793709999678,90.22793709999678,90.22793709999678,90.22793709999678,90.22793709999678,90.22793709999678,90.22793709999678,,003,P015,2025_Feb_28_1908,CategoryLocalizer,2021.2.3,59.919707591675646,
53.8,54.0,5,0.0,Stimuli\Blank.png,0,0,0,84,84,84,,,,,,,,,,,,,53.830499799998506,0.030499799998509047,None,91.0287322999975,91.0287322999975,91.0287322999975,91.0287322999975,91.0287322999975,91.0287322999975,91.0287322999975,91.0287322999975,,003,P015,2025_Feb_28_1908,CategoryLocalizer,2021.2.3,59.919707591675646,
54.0,54.8,3,0.75,Stimuli\ImageFiles-Set1\Faces\Face_00065.png,0,0,0,85,85,85,,,,,,,,,,,,,54.01304979999986,0.013049799999862444,None,91.21214459999828,91.21214459999828,91.21214459999828,91.21214459999828,91.21214459999828,91.21214459999828,91.21214459999828,91.21214459999828,,003,P015,2025_Feb_28_1908,CategoryLocalizer,2021.2.3,59.919707591675646,
54.8,55.0,5,0.0,Stimuli\Blank.png,0,0,0,86,86,86,,,,,,,,,,,,,54.81379789999846,0.013797899998465368,None,92.01284399999713,92.01284399999713,92.01284399999713,92.01284399999713,92.01284399999713,92.01284399999713,92.01284399999713,92.01284399999713,,003,P015,2025_Feb_28_1908,CategoryLocalizer,2021.2.3,59.919707591675646,
55.0,55.8,3,0.75,Stimuli\ImageFiles-Set1\Faces\Face_00031.png,0,0,0,87,87,87,,,,,,,,,,,,,55.01464209999904,0.014642099999036873,None,92.21301259999746,92.21301259999746,92.21301259999746,92.21301259999746,92.21301259999746,92.21301259999746,92.21301259999746,92.21301259999746,,003,P015,2025_Feb_28_1908,CategoryLocalizer,2021.2.3,59.919707591675646,
55.8,56.0,5,0.0,Stimuli\Blank.png,0,0,0,88,88,88,,,,,,,,,,,,,55.8146788999984,0.014678899998401107,None,93.013725599998,93.013725599998,93.013725599998,93.013725599998,93.013725599998,93.013725599998,93.013725599998,93.013725599998,,003,P015,2025_Feb_28_1908,CategoryLocalizer,2021.2.3,59.919707591675646,
56.0,56.8,3,0.75,Stimuli\ImageFiles-Set1\Faces\Face_00071.png,0,0,0,89,89,89,,,,,,,,,,,,,56.014727399997355,0.01472739999735495,None,93.21390099999917,93.21390099999917,93.21390099999917,93.21390099999917,93.21390099999917,93.21390099999917,93.21390099999917,93.21390099999917,,003,P015,2025_Feb_28_1908,CategoryLocalizer,2021.2.3,59.919707591675646,
56.8,57.0,5,0.0,Stimuli\Blank.png,0,0,0,90,90,90,,,,,,,,,,,,,56.81624229999943,0.016242299999433385,None,94.01461609999751,94.01461609999751,94.01461609999751,94.01461609999751,94.01461609999751,94.01461609999751,94.01461609999751,94.01461609999751,,003,P015,2025_Feb_28_1908,CategoryLocalizer,2021.2.3,59.919707591675646,
57.0,57.8,3,0.75,Stimuli\ImageFiles-Set1\Faces\Face_00039.png,0,0,0,91,91,91,,,,,,,,,,,,,56.999288299997716,-0.0007117000022844877,None,94.19810229999712,94.19810229999712,94.19810229999712,94.19810229999712,94.19810229999712,94.19810229999712,94.19810229999712,94.19810229999712,,003,P015,2025_Feb_28_1908,CategoryLocalizer,2021.2.3,59.919707591675646,
57.8,58.0,5,0.0,Stimuli\Blank.png,0,0,0,92,92,92,,,,,,,,,,,,,57.80077689999962,0.0007768999996216053,None,94.99880899999698,94.99880899999698,94.99880899999698,94.99880899999698,94.99880899999698,94.99880899999698,94.99880899999698,94.99880899999698,,003,P015,2025_Feb_28_1908,CategoryLocalizer,2021.2.3,59.919707591675646,
58.0,58.8,3,0.75,Stimuli\ImageFiles-Set1\Faces\Face_00103.png,0,0,0,93,93,93,,,,,,,,,,,,,58.00055909999719,0.0005590999971900601,None,95.19895219999671,95.19895219999671,95.19895219999671,95.19895219999671,95.19895219999671,95.19895219999671,95.19895219999671,95.19895219999671,,003,P015,2025_Feb_28_1908,CategoryLocalizer,2021.2.3,59.919707591675646,
58.8,59.0,5,0.0,Stimuli\Blank.png,0,0,0,94,94,94,,,,,,,,,,,,,58.80168380000032,0.0016838000003218667,None,95.99969549999878,95.99969549999878,95.99969549999878,95.99969549999878,95.99969549999878,95.99969549999878,95.99969549999878,95.99969549999878,,003,P015,2025_Feb_28_1908,CategoryLocalizer,2021.2.3,59.919707591675646,
59.0,59.8,3,0.75,Stimuli\ImageFiles-Set1\Faces\Face_00075.png,0,0,0,95,95,95,,,,,,,,,,,,,59.00329269999929,0.003292699999292381,None,96.21657069999856,96.21657069999856,96.21657069999856,96.21657069999856,96.21657069999856,96.21657069999856,96.21657069999856,96.21657069999856,,003,P015,2025_Feb_28_1908,CategoryLocalizer,2021.2.3,59.919707591675646,
59.8,60.0,5,0.0,Stimuli\Blank.png,0,0,0,96,96,96,,,,,,,,,,,,,59.818604799998866,0.01860479999886877,None,97.01726749999943,97.01726749999943,97.01726749999943,97.01726749999943,97.01726749999943,97.01726749999943,97.01726749999943,97.01726749999943,,003,P015,2025_Feb_28_1908,CategoryLocalizer,2021.2.3,59.919707591675646,
60.0,60.8,4,0.75,Stimuli\ImageFiles-Set1\Scenes\Scenes_025.png,0,0,0,97,97,97,,,,,,,,,,,,,60.00357979999899,0.0035797999989881646,None,97.21744589999798,97.21744589999798,97.21744589999798,97.21744589999798,97.21744589999798,97.21744589999798,97.21744589999798,97.21744589999798,,003,P015,2025_Feb_28_1908,CategoryLocalizer,2021.2.3,59.919707591675646,
60.8,61.0,5,0.0,Stimuli\Blank.png,0,0,0,98,98,98,,,,,,,,,,,,,60.81929159999709,0.019291599997089293,None,98.01815109999734,98.01815109999734,98.01815109999734,98.01815109999734,98.01815109999734,98.01815109999734,98.01815109999734,98.01815109999734,,003,P015,2025_Feb_28_1908,CategoryLocalizer,2021.2.3,59.919707591675646,
61.0,61.8,4,0.75,Stimuli\ImageFiles-Set1\Scenes\Scenes_054.png,0,0,0,99,99,99,,,,,,,,,,,,,61.004214599997795,0.004214599997794721,None,98.21832649999851,98.21832649999851,98.21832649999851,98.21832649999851,98.21832649999851,98.21832649999851,98.21832649999851,98.21832649999851,,003,P015,2025_Feb_28_1908,CategoryLocalizer,2021.2.3,59.919707591675646,
61.8,62.0,5,0.0,Stimuli\Blank.png,0,0,0,100,100,100,,,,,,,,,,,,,61.820721799998864,0.02072179999886714,None,99.01903319999838,99.01903319999838,99.01903319999838,99.01903319999838,99.01903319999838,99.01903319999838,99.01903319999838,99.01903319999838,,003,P015,2025_Feb_28_1908,CategoryLocalizer,2021.2.3,59.919707591675646,
62.0,62.8,4,0.75,Stimuli\ImageFiles-Set1\Scenes\Scenes_009.png,0,0,0,101,101,101,,,,,,,,,,,,,62.004488700000365,0.0044887000003654975,None,99.20253059999959,99.20253059999959,99.20253059999959,99.20253059999959,99.20253059999959,99.20253059999959,99.20253059999959,99.20253059999959,,003,P015,2025_Feb_28_1908,CategoryLocalizer,2021.2.3,59.919707591675646,
62.8,63.0,5,0.0,Stimuli\Blank.png,0,0,0,102,102,102,,,,,,,,,,,,,62.804809499997646,0.004809499997648459,None,100.00324529999853,100.00324529999853,100.00324529999853,100.00324529999853,100.00324529999853,100.00324529999853,100.00324529999853,100.00324529999853,,003,P015,2025_Feb_28_1908,CategoryLocalizer,2021.2.3,59.919707591675646,
63.0,63.8,4,0.75,Stimuli\ImageFiles-Set1\Scenes\Scenes_045.png,0,0,0,103,103,103,,,,,,,,,,,,,63.00444979999884,0.004449799998837989,None,100.20342209999944,100.20342209999944,100.20342209999944,100.20342209999944,100.20342209999944,100.20342209999944,100.20342209999944,100.20342209999944,,003,P015,2025_Feb_28_1908,CategoryLocalizer,2021.2.3,59.919707591675646,
63.8,64.0,5,0.0,Stimuli\Blank.png,0,0,0,104,104,104,,,,,,,,,,,,,63.80561849999867,0.005618499998675475,None,101.00412259999939,101.00412259999939,101.00412259999939,101.00412259999939,101.00412259999939,101.00412259999939,101.00412259999939,101.00412259999939,,003,P015,2025_Feb_28_1908,CategoryLocalizer,2021.2.3,59.919707591675646,
64.0,64.8,4,0.75,Stimuli\ImageFiles-Set1\Scenes\Scenes_045.png,1,1,0,105,105,105,,,,,,,,,,,,,64.00534029999835,0.0053402999983518384,1,101.20431689999896,101.20431689999896,101.20431689999896,101.20431689999896,101.20431689999896,101.20431689999896,101.20431689999896,101.20431689999896,0.5087138999988383,003,P015,2025_Feb_28_1908,CategoryLocalizer,2021.2.3,59.919707591675646,
64.8,65.0,5,0.0,Stimuli\Blank.png,0,0,0,106,106,106,,,,,,,,,,,,,64.80777569999918,0.0077756999991862585,None,102.02171729999827,102.02171729999827,102.02171729999827,102.02171729999827,102.02171729999827,102.02171729999827,102.02171729999827,102.02171729999827,,003,P015,2025_Feb_28_1908,CategoryLocalizer,2021.2.3,59.919707591675646,
65.0,65.8,4,0.75,Stimuli\ImageFiles-Set1\Scenes\Scenes_014.png,0,0,0,107,107,107,,,,,,,,,,,,,65.02342510000017,0.02342510000016773,None,102.23855839999669,102.23855839999669,102.23855839999669,102.23855839999669,102.23855839999669,102.23855839999669,102.23855839999669,102.23855839999669,,003,P015,2025_Feb_28_1908,CategoryLocalizer,2021.2.3,59.919707591675646,
65.8,66.0,5,0.0,Stimuli\Blank.png,0,0,0,108,108,108,,,,,,,,,,,,,65.8245825999984,0.024582599998396404,None,103.02257989999998,103.02257989999998,103.02257989999998,103.02257989999998,103.02257989999998,103.02257989999998,103.02257989999998,103.02257989999998,,003,P015,2025_Feb_28_1908,CategoryLocalizer,2021.2.3,59.919707591675646,
66.0,66.8,4,0.75,Stimuli\ImageFiles-Set1\Scenes\Scenes_051.png,0,0,0,109,109,109,,,,,,,,,,,,,66.00788219999959,0.007882199999585282,None,103.22277229999963,103.22277229999963,103.22277229999963,103.22277229999963,103.22277229999963,103.22277229999963,103.22277229999963,103.22277229999963,,003,P015,2025_Feb_28_1908,CategoryLocalizer,2021.2.3,59.919707591675646,
66.8,67.0,5,0.0,Stimuli\Blank.png,0,0,0,110,110,110,,,,,,,,,,,,,66.82710469999802,0.02710469999802001,None,104.04015039999649,104.04015039999649,104.04015039999649,104.04015039999649,104.04015039999649,104.04015039999649,104.04015039999649,104.04015039999649,,003,P015,2025_Feb_28_1908,CategoryLocalizer,2021.2.3,59.919707591675646,
67.0,67.8,4,0.75,Stimuli\ImageFiles-Set1\Scenes\Scenes_022.png,0,0,0,111,111,111,,,,,,,,,,,,,67.02513650000037,0.025136500000371598,None,104.24032289999741,104.24032289999741,104.24032289999741,104.24032289999741,104.24032289999741,104.24032289999741,104.24032289999741,104.24032289999741,,003,P015,2025_Feb_28_1908,CategoryLocalizer,2021.2.3,59.919707591675646,
67.8,68.0,5,0.0,Stimuli\Blank.png,0,0,0,112,112,112,,,,,,,,,,,,,67.8275216999973,0.027521699997308247,None,105.04104229999939,105.04104229999939,105.04104229999939,105.04104229999939,105.04104229999939,105.04104229999939,105.04104229999939,105.04104229999939,,003,P015,2025_Feb_28_1908,CategoryLocalizer,2021.2.3,59.919707591675646,
68.0,68.8,4,0.75,Stimuli\ImageFiles-Set1\Scenes\Scenes_026.png,0,0,0,113,113,113,,,,,,,,,,,,,68.02609769999981,0.026097699999809265,None,105.22452749999866,105.22452749999866,105.22452749999866,105.22452749999866,105.22452749999866,105.22452749999866,105.22452749999866,105.22452749999866,,003,P015,2025_Feb_28_1908,CategoryLocalizer,2021.2.3,59.919707591675646,
68.8,69.0,5,0.0,Stimuli\Blank.png,0,0,0,114,114,114,,,,,,,,,,,,,68.81023799999821,0.010237999998210512,None,106.00855159999992,106.00855159999992,106.00855159999992,106.00855159999992,106.00855159999992,106.00855159999992,106.00855159999992,106.00855159999992,,003,P015,2025_Feb_28_1908,CategoryLocalizer,2021.2.3,59.919707591675646,
69.0,69.8,4,0.75,Stimuli\ImageFiles-Set1\Scenes\Scenes_046.png,0,0,0,115,115,115,,,,,,,,,,,,,69.00954669999919,0.009546699999191333,None,106.20874639999965,106.20874639999965,106.20874639999965,106.20874639999965,106.20874639999965,106.20874639999965,106.20874639999965,106.20874639999965,,003,P015,2025_Feb_28_1908,CategoryLocalizer,2021.2.3,59.919707591675646,
69.8,70.0,5,0.0,Stimuli\Blank.png,0,0,0,116,116,116,,,,,,,,,,,,,69.81188389999807,0.01188389999806816,None,107.00945959999808,107.00945959999808,107.00945959999808,107.00945959999808,107.00945959999808,107.00945959999808,107.00945959999808,107.00945959999808,,003,P015,2025_Feb_28_1908,CategoryLocalizer,2021.2.3,59.919707591675646,
70.0,70.8,4,0.75,Stimuli\ImageFiles-Set1\Scenes\Scenes_016.png,0,0,0,117,117,117,,,,,,,,,,,,,70.01041930000065,0.010419300000648946,None,107.20962729999883,107.20962729999883,107.20962729999883,107.20962729999883,107.20962729999883,107.20962729999883,107.20962729999883,107.20962729999883,,003,P015,2025_Feb_28_1908,CategoryLocalizer,2021.2.3,59.919707591675646,
70.8,71.0,5,0.0,Stimuli\Blank.png,0,0,0,118,118,118,,,,,,,,,,,,,70.81362230000013,0.013622300000136534,None,108.02702639999916,108.02702639999916,108.02702639999916,108.02702639999916,108.02702639999916,108.02702639999916,108.02702639999916,108.02702639999916,,003,P015,2025_Feb_28_1908,CategoryLocalizer,2021.2.3,59.919707591675646,
71.0,71.8,4,0.75,Stimuli\ImageFiles-Set1\Scenes\Scenes_048.png,0,0,0,119,119,119,,,,,,,,,,,,,71.02898350000032,0.028983500000322238,None,108.24387209999986,108.24387209999986,108.24387209999986,108.24387209999986,108.24387209999986,108.24387209999986,108.24387209999986,108.24387209999986,,003,P015,2025_Feb_28_1908,CategoryLocalizer,2021.2.3,59.919707591675646,
71.8,72.0,5,0.0,Stimuli\Blank.png,0,0,0,120,120,120,,,,,,,,,,,,,71.82934279999972,0.02934279999972489,None,109.02802769999835,109.02802769999835,109.02802769999835,109.02802769999835,109.02802769999835,109.02802769999835,109.02802769999835,109.02802769999835,,003,P015,2025_Feb_28_1908,CategoryLocalizer,2021.2.3,59.919707591675646,
72.0,72.8,4,0.75,Stimuli\ImageFiles-Set1\Scenes\Scenes_032.png,0,0,0,121,121,121,,,,,,,,,,,,,72.01318030000039,0.013180300000385614,None,109.22817809999833,109.22817809999833,109.22817809999833,109.22817809999833,109.22817809999833,109.22817809999833,109.22817809999833,109.22817809999833,,003,P015,2025_Feb_28_1908,CategoryLocalizer,2021.2.3,59.919707591675646,
72.8,73.0,5,0.0,Stimuli\Blank.png,0,0,0,122,122,122,,,,,,,,,,,,,72.83077860000049,0.030778600000488154,None,110.02879199999734,110.02879199999734,110.02879199999734,110.02879199999734,110.02879199999734,110.02879199999734,110.02879199999734,110.02879199999734,,003,P015,2025_Feb_28_1908,CategoryLocalizer,2021.2.3,59.919707591675646,
73.0,73.8,4,0.75,Stimuli\ImageFiles-Set1\Scenes\Scenes_011.png,0,0,0,123,123,123,,,,,,,,,,,,,73.01389179999751,0.013891799997509224,None,110.22896259999834,110.22896259999834,110.22896259999834,110.22896259999834,110.22896259999834,110.22896259999834,110.22896259999834,110.22896259999834,,003,P015,2025_Feb_28_1908,CategoryLocalizer,2021.2.3,59.919707591675646,
73.8,74.0,5,0.0,Stimuli\Blank.png,0,0,0,124,124,124,,,,,,,,,,,,,73.83066849999886,0.03066849999886756,None,111.02966109999761,111.02966109999761,111.02966109999761,111.02966109999761,111.02966109999761,111.02966109999761,111.02966109999761,111.02966109999761,,003,P015,2025_Feb_28_1908,CategoryLocalizer,2021.2.3,59.919707591675646,
74.0,74.8,4,0.75,Stimuli\ImageFiles-Set1\Scenes\Scenes_056.png,0,0,0,125,125,125,,,,,,,,,,,,,74.01461740000013,0.014617400000133784,None,111.22984209999777,111.22984209999777,111.22984209999777,111.22984209999777,111.22984209999777,111.22984209999777,111.22984209999777,111.22984209999777,,003,P015,2025_Feb_28_1908,CategoryLocalizer,2021.2.3,59.919707591675646,
74.8,75.0,5,0.0,Stimuli\Blank.png,0,0,0,126,126,126,,,,,,,,,,,,,74.83152039999914,0.03152039999913825,None,112.03055029999814,112.03055029999814,112.03055029999814,112.03055029999814,112.03055029999814,112.03055029999814,112.03055029999814,112.03055029999814,,003,P015,2025_Feb_28_1908,CategoryLocalizer,2021.2.3,59.919707591675646,
75.0,75.8,4,0.75,Stimuli\ImageFiles-Set1\Scenes\Scenes_060.png,0,0,0,127,127,127,,,,,,,,,,,,,75.0150810999985,0.015081099998496938,None,112.21404989999792,112.21404989999792,112.21404989999792,112.21404989999792,112.21404989999792,112.21404989999792,112.21404989999792,112.21404989999792,,003,P015,2025_Feb_28_1908,CategoryLocalizer,2021.2.3,59.919707591675646,
75.8,76.0,5,0.0,Stimuli\Blank.png,0,0,0,128,128,128,,,,,,,,,,,,,75.79940739999802,-0.0005926000019798039,None,112.9980758999991,112.9980758999991,112.9980758999991,112.9980758999991,112.9980758999991,112.9980758999991,112.9980758999991,112.9980758999991,,003,P015,2025_Feb_28_1908,CategoryLocalizer,2021.2.3,59.919707591675646,
76.0,88.0,0,0.0,Stimuli\Blank.png,0,0,0,129,129,129,,,,,,,,,,,,,75.9993355000006,-0.0006644999994023237,None,113.19825419999688,113.19825419999688,113.19825419999688,113.19825419999688,113.19825419999688,113.19825419999688,113.19825419999688,113.19825419999688,,003,P015,2025_Feb_28_1908,CategoryLocalizer,2021.2.3,59.919707591675646,
88.0,88.8,3,0.75,Stimuli\ImageFiles-Set1\Faces\Face_00001.png,0,0,0,130,130,130,,,,,,,,,,,,,88.01263599999947,0.012635999999474734,None,125.22557589999997,125.22557589999997,125.22557589999997,125.22557589999997,125.22557589999997,125.22557589999997,125.22557589999997,125.22557589999997,,003,P015,2025_Feb_28_1908,CategoryLocalizer,2021.2.3,59.919707591675646,
88.8,89.0,5,0.0,Stimuli\Blank.png,0,0,0,131,131,131,,,,,,,,,,,,,88.82857929999955,0.028579299999549335,None,126.02628219999679,126.02628219999679,126.02628219999679,126.02628219999679,126.02628219999679,126.02628219999679,126.02628219999679,126.02628219999679,,003,P015,2025_Feb_28_1908,CategoryLocalizer,2021.2.3,59.919707591675646,
89.0,89.8,3,0.75,Stimuli\ImageFiles-Set1\Faces\Face_00057.png,0,0,0,132,132,132,,,,,,,,,,,,,89.01237069999843,0.012370699998427881,None,126.22644799999762,126.22644799999762,126.22644799999762,126.22644799999762,126.22644799999762,126.22644799999762,126.22644799999762,126.22644799999762,,003,P015,2025_Feb_28_1908,CategoryLocalizer,2021.2.3,59.919707591675646,
89.8,90.0,5,0.0,Stimuli\Blank.png,0,0,0,133,133,133,,,,,,,,,,,,,89.8287934,0.02879339999999786,None,127.02721729999757,127.02721729999757,127.02721729999757,127.02721729999757,127.02721729999757,127.02721729999757,127.02721729999757,127.02721729999757,,003,P015,2025_Feb_28_1908,CategoryLocalizer,2021.2.3,59.919707591675646,
90.0,90.8,3,0.75,Stimuli\ImageFiles-Set1\Faces\Face_00020.png,0,0,0,134,134,134,,,,,,,,,,,,,90.01247560000047,0.012475600000470877,None,127.21083329999965,127.21083329999965,127.21083329999965,127.21083329999965,127.21083329999965,127.21083329999965,127.21083329999965,127.21083329999965,,003,P015,2025_Feb_28_1908,CategoryLocalizer,2021.2.3,59.919707591675646,
90.8,91.0,5,0.0,Stimuli\Blank.png,0,0,0,135,135,135,,,,,,,,,,,,,90.8135360999986,0.01353609999860339,None,128.01133539999864,128.01133539999864,128.01133539999864,128.01133539999864,128.01133539999864,128.01133539999864,128.01133539999864,128.01133539999864,,003,P015,2025_Feb_28_1908,CategoryLocalizer,2021.2.3,59.919707591675646,
91.0,91.8,3,0.75,Stimuli\ImageFiles-Set1\Faces\Face_00047.png,0,0,0,136,136,136,,,,,,,,,,,,,91.01347019999957,0.013470199999574106,None,128.22822359999918,128.22822359999918,128.22822359999918,128.22822359999918,128.22822359999918,128.22822359999918,128.22822359999918,128.22822359999918,,003,P015,2025_Feb_28_1908,CategoryLocalizer,2021.2.3,59.919707591675646,
91.8,92.0,5,0.0,Stimuli\Blank.png,0,0,0,137,137,137,,,,,,,,,,,,,91.83269609999843,0.03269609999843226,None,129.04564379999647,129.04564379999647,129.04564379999647,129.04564379999647,129.04564379999647,129.04564379999647,129.04564379999647,129.04564379999647,,003,P015,2025_Feb_28_1908,CategoryLocalizer,2021.2.3,59.919707591675646,
92.0,92.8,3,0.75,Stimuli\ImageFiles-Set1\Faces\Face_00061.png,0,0,0,138,138,138,,,,,,,,,,,,,92.0140771999977,0.014077199997700518,None,129.21242009999696,129.21242009999696,129.21242009999696,129.21242009999696,129.21242009999696,129.21242009999696,129.21242009999696,129.21242009999696,,003,P015,2025_Feb_28_1908,CategoryLocalizer,2021.2.3,59.919707591675646,
92.8,93.0,5,0.0,Stimuli\Blank.png,0,0,0,139,139,139,,,,,,,,,,,,,92.81413789999715,0.014137899997152203,None,130.01313169999776,130.01313169999776,130.01313169999776,130.01313169999776,130.01313169999776,130.01313169999776,130.01313169999776,130.01313169999776,,003,P015,2025_Feb_28_1908,CategoryLocalizer,2021.2.3,59.919707591675646,
93.0,93.8,3,0.75,Stimuli\ImageFiles-Set1\Faces\Face_00016.png,0,0,0,140,140,140,,,,,,,,,,,,,93.01487719999932,0.014877199999318691,None,130.21330529999977,130.21330529999977,130.21330529999977,130.21330529999977,130.21330529999977,130.21330529999977,130.21330529999977,130.21330529999977,,003,P015,2025_Feb_28_1908,CategoryLocalizer,2021.2.3,59.919707591675646,
93.8,94.0,5,0.0,Stimuli\Blank.png,0,0,0,141,141,141,,,,,,,,,,,,,93.81775819999893,0.01775819999893713,None,131.0307221999974,131.0307221999974,131.0307221999974,131.0307221999974,131.0307221999974,131.0307221999974,131.0307221999974,131.0307221999974,,003,P015,2025_Feb_28_1908,CategoryLocalizer,2021.2.3,59.919707591675646,
94.0,94.8,3,0.75,Stimuli\ImageFiles-Set1\Faces\Face_00016.png,1,1,0,142,142,142,,,,,,,,,,,,,94.01570169999832,0.015701699998317054,1,131.2141903999982,131.2141903999982,131.2141903999982,131.2141903999982,131.2141903999982,131.2141903999982,131.2141903999982,131.2141903999982,0.49213159999999334,003,P015,2025_Feb_28_1908,CategoryLocalizer,2021.2.3,59.919707591675646,
94.8,95.0,5,0.0,Stimuli\Blank.png,0,0,0,143,143,143,,,,,,,,,,,,,94.79945399999997,-0.0005460000000283571,None,131.9982914999964,131.9982914999964,131.9982914999964,131.9982914999964,131.9982914999964,131.9982914999964,131.9982914999964,131.9982914999964,,003,P015,2025_Feb_28_1908,CategoryLocalizer,2021.2.3,59.919707591675646,
95.0,95.8,3,0.75,Stimuli\ImageFiles-Set1\Faces\Face_00059.png,0,0,0,144,144,144,,,,,,,,,,,,,94.99921959999847,-0.000780400001531234,None,132.198388599998,132.198388599998,132.198388599998,132.198388599998,132.198388599998,132.198388599998,132.198388599998,132.198388599998,,003,P015,2025_Feb_28_1908,CategoryLocalizer,2021.2.3,59.919707591675646,
95.8,96.0,5,0.0,Stimuli\Blank.png,0,0,0,145,145,145,,,,,,,,,,,,,95.80103599999711,0.0010359999971143452,None,132.99912029999905,132.99912029999905,132.99912029999905,132.99912029999905,132.99912029999905,132.99912029999905,132.99912029999905,132.99912029999905,,003,P015,2025_Feb_28_1908,CategoryLocalizer,2021.2.3,59.919707591675646,
96.0,96.8,3,0.75,Stimuli\ImageFiles-Set1\Faces\Face_00073.png,0,0,0,146,146,146,,,,,,,,,,,,,96.00091239999892,0.0009123999989242293,None,133.21596649999992,133.21596649999992,133.21596649999992,133.21596649999992,133.21596649999992,133.21596649999992,133.21596649999992,133.21596649999992,,003,P015,2025_Feb_28_1908,CategoryLocalizer,2021.2.3,59.919707591675646,
96.8,97.0,5,0.0,Stimuli\Blank.png,0,0,0,147,147,147,,,,,,,,,,,,,96.8174732999978,0.017473299997803338,None,134.01668549999886,134.01668549999886,134.01668549999886,134.01668549999886,134.01668549999886,134.01668549999886,134.01668549999886,134.01668549999886,,003,P015,2025_Feb_28_1908,CategoryLocalizer,2021.2.3,59.919707591675646,
97.0,97.8,3,0.75,Stimuli\ImageFiles-Set1\Faces\Face_00045.png,0,0,0,148,148,148,,,,,,,,,,,,,97.00383069999953,0.0038306999995256774,None,134.21686279999994,134.21686279999994,134.21686279999994,134.21686279999994,134.21686279999994,134.21686279999994,134.21686279999994,134.21686279999994,,003,P015,2025_Feb_28_1908,CategoryLocalizer,2021.2.3,59.919707591675646,
97.8,98.0,5,0.0,Stimuli\Blank.png,0,0,0,149,149,149,,,,,,,,,,,,,97.81900780000069,0.019007800000693464,None,135.01753599999938,135.01753599999938,135.01753599999938,135.01753599999938,135.01753599999938,135.01753599999938,135.01753599999938,135.01753599999938,,003,P015,2025_Feb_28_1908,CategoryLocalizer,2021.2.3,59.919707591675646,
98.0,98.8,3,0.75,Stimuli\ImageFiles-Set1\Faces\Face_00022.png,0,0,0,150,150,150,,,,,,,,,,,,,98.00194639999972,0.0019463999997242354,None,135.20107879999705,135.20107879999705,135.20107879999705,135.20107879999705,135.20107879999705,135.20107879999705,135.20107879999705,135.20107879999705,,003,P015,2025_Feb_28_1908,CategoryLocalizer,2021.2.3,59.919707591675646,
98.8,99.0,5,0.0,Stimuli\Blank.png,0,0,0,151,151,151,,,,,,,,,,,,,98.80322199999864,0.0032219999986438097,None,136.00177339999937,136.00177339999937,136.00177339999937,136.00177339999937,136.00177339999937,136.00177339999937,136.00177339999937,136.00177339999937,,003,P015,2025_Feb_28_1908,CategoryLocalizer,2021.2.3,59.919707591675646,
99.0,99.8,3,0.75,Stimuli\ImageFiles-Set1\Faces\Face_00007.png,1,1,0,152,152,152,,,,,,,,,,,,,99.00292269999773,0.002922699997725431,None,136.20193479999944,136.20193479999944,136.20193479999944,136.20193479999944,136.20193479999944,136.20193479999944,136.20193479999944,136.20193479999944,,003,P015,2025_Feb_28_1908,CategoryLocalizer,2021.2.3,59.919707591675646,
99.8,100.0,5,0.0,Stimuli\Blank.png,0,0,0,153,153,153,,,,,,,,,,,,,99.80365689999962,0.003656899999626262,None,137.00264979999702,137.00264979999702,137.00264979999702,137.00264979999702,137.00264979999702,137.00264979999702,137.00264979999702,137.00264979999702,,003,P015,2025_Feb_28_1908,CategoryLocalizer,2021.2.3,59.919707591675646,
100.0,100.8,3,0.75,Stimuli\ImageFiles-Set1\Faces\Face_00109.png,0,0,0,154,154,154,,,,,,,,,,,,,100.00391490000038,0.003914900000381749,None,137.2195331999974,137.2195331999974,137.2195331999974,137.2195331999974,137.2195331999974,137.2195331999974,137.2195331999974,137.2195331999974,,003,P015,2025_Feb_28_1908,CategoryLocalizer,2021.2.3,59.919707591675646,
100.8,101.0,5,0.0,Stimuli\Blank.png,0,0,0,155,155,155,,,,,,,,,,,,,100.82290469999862,0.02290469999861955,None,138.02018399999724,138.02018399999724,138.02018399999724,138.02018399999724,138.02018399999724,138.02018399999724,138.02018399999724,138.02018399999724,,003,P015,2025_Feb_28_1908,CategoryLocalizer,2021.2.3,59.919707591675646,
101.0,101.8,3,0.75,Stimuli\ImageFiles-Set1\Faces\Face_00109.png,0,0,0,156,156,156,,,,,,,,,,,,,101.00753619999887,0.007536199998867232,1,138.22042069999952,138.22042069999952,138.22042069999952,138.22042069999952,138.22042069999952,138.22042069999952,138.22042069999952,138.22042069999952,0.4557076999990386,003,P015,2025_Feb_28_1908,CategoryLocalizer,2021.2.3,59.919707591675646,
101.8,102.0,5,0.0,Stimuli\Blank.png,0,0,0,157,157,157,,,,,,,,,,,,,101.82324339999832,0.02324339999832148,None,139.02111289999812,139.02111289999812,139.02111289999812,139.02111289999812,139.02111289999812,139.02111289999812,139.02111289999812,139.02111289999812,,003,P015,2025_Feb_28_1908,CategoryLocalizer,2021.2.3,59.919707591675646,
102.0,102.8,3,0.75,Stimuli\ImageFiles-Set1\Faces\Face_00024.png,0,0,0,158,158,158,,,,,,,,,,,,,102.00745289999759,0.007452899997588247,None,139.22129129999666,139.22129129999666,139.22129129999666,139.22129129999666,139.22129129999666,139.22129129999666,139.22129129999666,139.22129129999666,,003,P015,2025_Feb_28_1908,CategoryLocalizer,2021.2.3,59.919707591675646,
102.8,103.0,5,0.0,Stimuli\Blank.png,0,0,0,159,159,159,,,,,,,,,,,,,102.82296019999922,0.02296019999921839,None,140.02198939999653,140.02198939999653,140.02198939999653,140.02198939999653,140.02198939999653,140.02198939999653,140.02198939999653,140.02198939999653,,003,P015,2025_Feb_28_1908,CategoryLocalizer,2021.2.3,59.919707591675646,
103.0,103.8,3,0.75,Stimuli\ImageFiles-Set1\Faces\Face_00009.png,0,0,0,160,160,160,,,,,,,,,,,,,103.008697199999,0.008697199999005534,None,140.22218399999838,140.22218399999838,140.22218399999838,140.22218399999838,140.22218399999838,140.22218399999838,140.22218399999838,140.22218399999838,,003,P015,2025_Feb_28_1908,CategoryLocalizer,2021.2.3,59.919707591675646,
103.8,104.0,5,0.0,Stimuli\Blank.png,0,0,0,161,161,161,,,,,,,,,,,,,103.82374739999796,0.023747399997958496,None,141.02287119999892,141.02287119999892,141.02287119999892,141.02287119999892,141.02287119999892,141.02287119999892,141.02287119999892,141.02287119999892,,003,P015,2025_Feb_28_1908,CategoryLocalizer,2021.2.3,59.919707591675646,
104.0,104.8,1,0.75,Stimuli\ImageFiles-Set1\Objects\Object_TeaBag_00001.png,0,0,0,162,162,162,,,,,,,,,,,,,104.00748779999776,0.007487799997761613,None,141.20636479999666,141.20636479999666,141.20636479999666,141.20636479999666,141.20636479999666,141.20636479999666,141.20636479999666,141.20636479999666,,003,P015,2025_Feb_28_1908,CategoryLocalizer,2021.2.3,59.919707591675646,
104.8,105.0,5,0.0,Stimuli\Blank.png,0,0,0,163,163,163,,,,,,,,,,,,,104.80940909999845,0.009409099998450188,None,142.00708609999856,142.00708609999856,142.00708609999856,142.00708609999856,142.00708609999856,142.00708609999856,142.00708609999856,142.00708609999856,,003,P015,2025_Feb_28_1908,CategoryLocalizer,2021.2.3,59.919707591675646,
105.0,105.8,1,0.75,Stimuli\ImageFiles-Set1\Objects\Object_TeaBag_00001.png,1,1,0,164,164,164,,,,,,,,,,,,,105.00915879999957,0.009158799999568146,1,142.20726329999889,142.20726329999889,142.20726329999889,142.20726329999889,142.20726329999889,142.20726329999889,142.20726329999889,142.20726329999889,0.3899276000011014,003,P015,2025_Feb_28_1908,CategoryLocalizer,2021.2.3,59.919707591675646,
105.8,106.0,5,0.0,Stimuli\Blank.png,0,0,0,165,165,165,,,,,,,,,,,,,105.80951490000007,0.00951490000007027,None,143.00796479999917,143.00796479999917,143.00796479999917,143.00796479999917,143.00796479999917,143.00796479999917,143.00796479999917,143.00796479999917,,003,P015,2025_Feb_28_1908,CategoryLocalizer,2021.2.3,59.919707591675646,
106.0,106.8,1,0.75,Stimuli\ImageFiles-Set1\Objects\Object_Highchair_00001.png,0,0,0,166,166,166,,,,,,,,,,,,,106.00897469999836,0.008974699998361757,None,143.208140499999,143.208140499999,143.208140499999,143.208140499999,143.208140499999,143.208140499999,143.208140499999,143.208140499999,,003,P015,2025_Feb_28_1908,CategoryLocalizer,2021.2.3,59.919707591675646,
106.8,107.0,5,0.0,Stimuli\Blank.png,0,0,0,167,167,167,,,,,,,,,,,,,106.81034399999771,0.010343999997715514,None,144.00884839999708,144.00884839999708,144.00884839999708,144.00884839999708,144.00884839999708,144.00884839999708,144.00884839999708,144.00884839999708,,003,P015,2025_Feb_28_1908,CategoryLocalizer,2021.2.3,59.919707591675646,
107.0,107.8,1,0.75,Stimuli\ImageFiles-Set1\Objects\Object_Screw_00001.png,0,0,0,168,168,168,,,,,,,,,,,,,107.01101479999852,0.011014799998520175,None,144.22571409999728,144.22571409999728,144.22571409999728,144.22571409999728,144.22571409999728,144.22571409999728,144.22571409999728,144.22571409999728,,003,P015,2025_Feb_28_1908,CategoryLocalizer,2021.2.3,59.919707591675646,
107.8,108.0,5,0.0,Stimuli\Blank.png,0,0,0,169,169,169,,,,,,,,,,,,,107.82933039999989,0.02933039999989262,None,145.04312699999718,145.04312699999718,145.04312699999718,145.04312699999718,145.04312699999718,145.04312699999718,145.04312699999718,145.04312699999718,,003,P015,2025_Feb_28_1908,CategoryLocalizer,2021.2.3,59.919707591675646,
108.0,108.8,1,0.75,Stimuli\ImageFiles-Set1\Objects\Object_Box_00001.png,0,0,0,170,170,170,,,,,,,,,,,,,108.02821570000015,0.02821570000014617,None,145.2267389999979,145.2267389999979,145.2267389999979,145.2267389999979,145.2267389999979,145.2267389999979,145.2267389999979,145.2267389999979,,003,P015,2025_Feb_28_1908,CategoryLocalizer,2021.2.3,59.919707591675646,
108.8,109.0,5,0.0,Stimuli\Blank.png,0,0,0,171,171,171,,,,,,,,,,,,,108.8114530999992,0.0114530999992013,None,146.01061349999873,146.01061349999873,146.01061349999873,146.01061349999873,146.01061349999873,146.01061349999873,146.01061349999873,146.01061349999873,,003,P015,2025_Feb_28_1908,CategoryLocalizer,2021.2.3,59.919707591675646,
109.0,109.8,1,0.75,Stimuli\ImageFiles-Set1\Objects\Object_Table_00001.png,0,0,0,172,172,172,,,,,,,,,,,,,109.01161610000054,0.011616100000537699,None,146.21079669999745,146.21079669999745,146.21079669999745,146.21079669999745,146.21079669999745,146.21079669999745,146.21079669999745,146.21079669999745,,003,P015,2025_Feb_28_1908,CategoryLocalizer,2021.2.3,59.919707591675646,
109.8,110.0,5,0.0,Stimuli\Blank.png,0,0,0,173,173,173,,,,,,,,,,,,,109.81459529999847,0.014595299998475753,None,147.0115107999991,147.0115107999991,147.0115107999991,147.0115107999991,147.0115107999991,147.0115107999991,147.0115107999991,147.0115107999991,,003,P015,2025_Feb_28_1908,CategoryLocalizer,2021.2.3,59.919707591675646,
110.0,110.8,1,0.75,Stimuli\ImageFiles-Set1\Objects\Object_Pizza_00001.png,0,0,0,174,174,174,,,,,,,,,,,,,110.01312899999903,0.013128999999025837,None,147.22839199999726,147.22839199999726,147.22839199999726,147.22839199999726,147.22839199999726,147.22839199999726,147.22839199999726,147.22839199999726,,003,P015,2025_Feb_28_1908,CategoryLocalizer,2021.2.3,59.919707591675646,
110.8,111.0,5,0.0,Stimuli\Blank.png,0,0,0,175,175,175,,,,,,,,,,,,,110.83041219999723,0.03041219999722955,None,148.02905349999855,148.02905349999855,148.02905349999855,148.02905349999855,148.02905349999855,148.02905349999855,148.02905349999855,148.02905349999855,,003,P015,2025_Feb_28_1908,CategoryLocalizer,2021.2.3,59.919707591675646,
111.0,111.8,1,0.75,Stimuli\ImageFiles-Set1\Objects\Object_Banana_00001.png,0,0,0,176,176,176,,,,,,,,,,,,,111.01354619999984,0.013546199999836972,None,148.21256859999994,148.21256859999994,148.21256859999994,148.21256859999994,148.21256859999994,148.21256859999994,148.21256859999994,148.21256859999994,,003,P015,2025_Feb_28_1908,CategoryLocalizer,2021.2.3,59.919707591675646,
111.8,112.0,5,0.0,Stimuli\Blank.png,0,0,0,177,177,177,,,,,,,,,,,,,111.81470939999781,0.014709399997812511,None,149.01328969999668,149.01328969999668,149.01328969999668,149.01328969999668,149.01328969999668,149.01328969999668,149.01328969999668,149.01328969999668,,003,P015,2025_Feb_28_1908,CategoryLocalizer,2021.2.3,59.919707591675646,
112.0,112.8,1,0.75,Stimuli\ImageFiles-Set1\Objects\Object_Lamp_00001.png,0,0,0,178,178,178,,,,,,,,,,,,,112.014505799998,0.014505799998005386,None,149.21346249999988,149.21346249999988,149.21346249999988,149.21346249999988,149.21346249999988,149.21346249999988,149.21346249999988,149.21346249999988,,003,P015,2025_Feb_28_1908,CategoryLocalizer,2021.2.3,59.919707591675646,
112.8,113.0,5,0.0,Stimuli\Blank.png,0,0,0,179,179,179,,,,,,,,,,,,,112.81520689999888,0.015206899998887025,None,150.01415749999796,150.01415749999796,150.01415749999796,150.01415749999796,150.01415749999796,150.01415749999796,150.01415749999796,150.01415749999796,,003,P015,2025_Feb_28_1908,CategoryLocalizer,2021.2.3,59.919707591675646,
113.0,113.8,1,0.75,Stimuli\ImageFiles-Set1\Objects\Object_Canoe_00001.png,0,0,0,180,180,180,,,,,,,,,,,,,113.01533030000064,0.015330300000641728,None,150.21434389999922,150.21434389999922,150.21434389999922,150.21434389999922,150.21434389999922,150.21434389999922,150.21434389999922,150.21434389999922,,003,P015,2025_Feb_28_1908,CategoryLocalizer,2021.2.3,59.919707591675646,
113.8,114.0,5,0.0,Stimuli\Blank.png,0,0,0,181,181,181,,,,,,,,,,,,,113.79984159999731,-0.00015840000268951826,None,150.99837019999904,150.99837019999904,150.99837019999904,150.99837019999904,150.99837019999904,150.99837019999904,150.99837019999904,150.99837019999904,,003,P015,2025_Feb_28_1908,CategoryLocalizer,2021.2.3,59.919707591675646,
114.0,114.8,1,0.75,Stimuli\ImageFiles-Set1\Objects\Object_Brush_00001.png,1,1,0,182,182,182,,,,,,,,,,,,,113.99944949999917,-0.0005505000008270144,None,151.1985440999997,151.1985440999997,151.1985440999997,151.1985440999997,151.1985440999997,151.1985440999997,151.1985440999997,151.1985440999997,,003,P015,2025_Feb_28_1908,CategoryLocalizer,2021.2.3,59.919707591675646,
114.8,115.0,5,0.0,Stimuli\Blank.png,0,0,0,183,183,183,,,,,,,,,,,,,114.80026720000023,0.0002672000002377217,None,151.99925559999974,151.99925559999974,151.99925559999974,151.99925559999974,151.99925559999974,151.99925559999974,151.99925559999974,151.99925559999974,,003,P015,2025_Feb_28_1908,CategoryLocalizer,2021.2.3,59.919707591675646,
115.0,115.8,1,0.75,Stimuli\ImageFiles-Set1\Objects\Object_Football_00001.png,0,0,0,184,184,184,,,,,,,,,,,,,115.00023709999732,0.00023709999732091092,None,152.1994261999971,152.1994261999971,152.1994261999971,152.1994261999971,152.1994261999971,152.1994261999971,152.1994261999971,152.1994261999971,,003,P015,2025_Feb_28_1908,CategoryLocalizer,2021.2.3,59.919707591675646,
115.8,116.0,5,0.0,Stimuli\Blank.png,0,0,0,185,185,185,,,,,,,,,,,,,115.8010226999977,0.00102269999770499,None,153.00014009999722,153.00014009999722,153.00014009999722,153.00014009999722,153.00014009999722,153.00014009999722,153.00014009999722,153.00014009999722,,003,P015,2025_Feb_28_1908,CategoryLocalizer,2021.2.3,59.919707591675646,
116.0,116.8,1,0.75,Stimuli\ImageFiles-Set1\Objects\Object_Football_00001.png,0,0,0,186,186,186,,,,,,,,,,,,,116.00143079999907,0.0014307999990705866,1,153.20028719999755,153.20028719999755,153.20028719999755,153.20028719999755,153.20028719999755,153.20028719999755,153.20028719999755,153.20028719999755,0.4308688999990409,003,P015,2025_Feb_28_1908,CategoryLocalizer,2021.2.3,59.919707591675646,
116.8,117.0,5,0.0,Stimuli\Blank.png,0,0,0,187,187,187,,,,,,,,,,,,,116.80456849999973,0.004568499999734854,None,154.0177178999984,154.0177178999984,154.0177178999984,154.0177178999984,154.0177178999984,154.0177178999984,154.0177178999984,154.0177178999984,,003,P015,2025_Feb_28_1908,CategoryLocalizer,2021.2.3,59.919707591675646,
117.0,117.8,1,0.75,Stimuli\ImageFiles-Set1\Objects\Object_Oven_00001.png,0,0,0,188,188,188,,,,,,,,,,,,,117.01933469999858,0.019334699998580618,None,154.2178767999976,154.2178767999976,154.2178767999976,154.2178767999976,154.2178767999976,154.2178767999976,154.2178767999976,154.2178767999976,,003,P015,2025_Feb_28_1908,CategoryLocalizer,2021.2.3,59.919707591675646,
117.8,118.0,5,0.0,Stimuli\Blank.png,0,0,0,189,189,189,,,,,,,,,,,,,117.80276049999884,0.002760499998842647,None,155.0019143999998,155.0019143999998,155.0019143999998,155.0019143999998,155.0019143999998,155.0019143999998,155.0019143999998,155.0019143999998,,003,P015,2025_Feb_28_1908,CategoryLocalizer,2021.2.3,59.919707591675646,
118.0,118.8,1,0.75,Stimuli\ImageFiles-Set1\Objects\Object_PepperShaker_00001.png,0,0,0,190,190,190,,,,,,,,,,,,,118.00613659999726,0.006136599997262238,None,155.21879049999916,155.21879049999916,155.21879049999916,155.21879049999916,155.21879049999916,155.21879049999916,155.21879049999916,155.21879049999916,,003,P015,2025_Feb_28_1908,CategoryLocalizer,2021.2.3,59.919707591675646,
118.8,119.0,5,0.0,Stimuli\Blank.png,0,0,0,191,191,191,,,,,,,,,,,,,118.82155769999736,0.021557699997359236,None,156.0194879999981,156.0194879999981,156.0194879999981,156.0194879999981,156.0194879999981,156.0194879999981,156.0194879999981,156.0194879999981,,003,P015,2025_Feb_28_1908,CategoryLocalizer,2021.2.3,59.919707591675646,
119.0,119.8,1,0.75,Stimuli\ImageFiles-Set1\Objects\Object_Baseball_00001.png,0,0,0,192,192,192,,,,,,,,,,,,,119.00561989999915,0.0056198999991465826,None,156.2196935999964,156.2196935999964,156.2196935999964,156.2196935999964,156.2196935999964,156.2196935999964,156.2196935999964,156.2196935999964,,003,P015,2025_Feb_28_1908,CategoryLocalizer,2021.2.3,59.919707591675646,
119.8,120.0,5,0.0,Stimuli\Blank.png,0,0,0,193,193,193,,,,,,,,,,,,,119.82129359999817,0.021293599998173818,None,157.0203644999965,157.0203644999965,157.0203644999965,157.0203644999965,157.0203644999965,157.0203644999965,157.0203644999965,157.0203644999965,,003,P015,2025_Feb_28_1908,CategoryLocalizer,2021.2.3,59.919707591675646,
120.0,120.8,4,0.75,Stimuli\ImageFiles-Set1\Scenes\Scenes_030.png,0,0,0,194,194,194,,,,,,,,,,,,,120.00532759999987,0.0053275999998732,None,157.22054579999894,157.22054579999894,157.22054579999894,157.22054579999894,157.22054579999894,157.22054579999894,157.22054579999894,157.22054579999894,,003,P015,2025_Feb_28_1908,CategoryLocalizer,2021.2.3,59.919707591675646,
120.8,121.0,5,0.0,Stimuli\Blank.png,0,0,0,195,195,195,,,,,,,,,,,,,120.82272770000054,0.02272770000054436,None,158.02125479999813,158.02125479999813,158.02125479999813,158.02125479999813,158.02125479999813,158.02125479999813,158.02125479999813,158.02125479999813,,003,P015,2025_Feb_28_1908,CategoryLocalizer,2021.2.3,59.919707591675646,
121.0,121.8,4,0.75,Stimuli\ImageFiles-Set1\Scenes\Scenes_010.png,0,0,0,196,196,196,,,,,,,,,,,,,121.00651789999756,0.0065178999975614715,None,158.22145689999888,158.22145689999888,158.22145689999888,158.22145689999888,158.22145689999888,158.22145689999888,158.22145689999888,158.22145689999888,,003,P015,2025_Feb_28_1908,CategoryLocalizer,2021.2.3,59.919707591675646,
121.8,122.0,5,0.0,Stimuli\Blank.png,0,0,0,197,197,197,,,,,,,,,,,,,121.8238382999989,0.02383829999889997,None,159.02214509999976,159.02214509999976,159.02214509999976,159.02214509999976,159.02214509999976,159.02214509999976,159.02214509999976,159.02214509999976,,003,P015,2025_Feb_28_1908,CategoryLocalizer,2021.2.3,59.919707591675646,
122.0,122.8,4,0.75,Stimuli\ImageFiles-Set1\Scenes\Scenes_019.png,0,0,0,198,198,198,,,,,,,,,,,,,122.00772959999813,0.007729599998128833,None,159.2223161999973,159.2223161999973,159.2223161999973,159.2223161999973,159.2223161999973,159.2223161999973,159.2223161999973,159.2223161999973,,003,P015,2025_Feb_28_1908,CategoryLocalizer,2021.2.3,59.919707591675646,
122.8,123.0,5,0.0,Stimuli\Blank.png,0,0,0,199,199,199,,,,,,,,,,,,,122.8244666999999,0.024466699999905472,None,160.02302479999707,160.02302479999707,160.02302479999707,160.02302479999707,160.02302479999707,160.02302479999707,160.02302479999707,160.02302479999707,,003,P015,2025_Feb_28_1908,CategoryLocalizer,2021.2.3,59.919707591675646,
123.0,123.8,4,0.75,Stimuli\ImageFiles-Set1\Scenes\Scenes_044.png,0,0,0,200,200,200,,,,,,,,,,,,,123.00793789999807,0.007937899998069042,None,160.20651769999677,160.20651769999677,160.20651769999677,160.20651769999677,160.20651769999677,160.20651769999677,160.20651769999677,160.20651769999677,,003,P015,2025_Feb_28_1908,CategoryLocalizer,2021.2.3,59.919707591675646,
123.8,124.0,5,0.0,Stimuli\Blank.png,0,0,0,201,201,201,,,,,,,,,,,,,123.80838329999824,0.008383299998243388,None,161.0072244999974,161.0072244999974,161.0072244999974,161.0072244999974,161.0072244999974,161.0072244999974,161.0072244999974,161.0072244999974,,003,P015,2025_Feb_28_1908,CategoryLocalizer,2021.2.3,59.919707591675646,
124.0,124.8,4,0.75,Stimuli\ImageFiles-Set1\Scenes\Scenes_043.png,0,0,0,202,202,202,,,,,,,,,,,,,124.00834979999854,0.00834979999854113,None,161.20740169999772,161.20740169999772,161.20740169999772,161.20740169999772,161.20740169999772,161.20740169999772,161.20740169999772,161.20740169999772,,003,P015,2025_Feb_28_1908,CategoryLocalizer,2021.2.3,59.919707591675646,
124.8,125.0,5,0.0,Stimuli\Blank.png,0,0,0,203,203,203,,,,,,,,,,,,,124.80971779999891,0.009717799998909982,None,162.00813979999657,162.00813979999657,162.00813979999657,162.00813979999657,162.00813979999657,162.00813979999657,162.00813979999657,162.00813979999657,,003,P015,2025_Feb_28_1908,CategoryLocalizer,2021.2.3,59.919707591675646,
125.0,125.8,4,0.75,Stimuli\ImageFiles-Set1\Scenes\Scenes_050.png,0,0,0,204,204,204,,,,,,,,,,,,,125.01025110000046,0.0102511000004597,None,162.22496519999913,162.22496519999913,162.22496519999913,162.22496519999913,162.22496519999913,162.22496519999913,162.22496519999913,162.22496519999913,,003,P015,2025_Feb_28_1908,CategoryLocalizer,2021.2.3,59.919707591675646,
125.8,126.0,5,0.0,Stimuli\Blank.png,0,0,0,205,205,205,,,,,,,,,,,,,125.82665569999881,0.026655699998812565,None,163.02569399999993,163.02569399999993,163.02569399999993,163.02569399999993,163.02569399999993,163.02569399999993,163.02569399999993,163.02569399999993,,003,P015,2025_Feb_28_1908,CategoryLocalizer,2021.2.3,59.919707591675646,
126.0,126.8,4,0.75,Stimuli\ImageFiles-Set1\Scenes\Scenes_020.png,0,0,0,206,206,206,,,,,,,,,,,,,126.01058890000058,0.010588900000584545,None,163.20923089999997,163.20923089999997,163.20923089999997,163.20923089999997,163.20923089999997,163.20923089999997,163.20923089999997,163.20923089999997,,003,P015,2025_Feb_28_1908,CategoryLocalizer,2021.2.3,59.919707591675646,
126.8,127.0,5,0.0,Stimuli\Blank.png,0,0,0,207,207,207,,,,,,,,,,,,,126.81163379999998,0.011633799999984262,None,164.00988499999949,164.00988499999949,164.00988499999949,164.00988499999949,164.00988499999949,164.00988499999949,164.00988499999949,164.00988499999949,,003,P015,2025_Feb_28_1908,CategoryLocalizer,2021.2.3,59.919707591675646,
127.0,127.8,4,0.75,Stimuli\ImageFiles-Set1\Scenes\Scenes_001.png,0,0,0,208,208,208,,,,,,,,,,,,,127.01163099999758,0.011630999997578328,None,164.22678209999867,164.22678209999867,164.22678209999867,164.22678209999867,164.22678209999867,164.22678209999867,164.22678209999867,164.22678209999867,,003,P015,2025_Feb_28_1908,CategoryLocalizer,2021.2.3,59.919707591675646,
127.8,128.0,5,0.0,Stimuli\Blank.png,0,0,0,209,209,209,,,,,,,,,,,,,127.83048849999977,0.030488499999776764,None,165.04415409999638,165.04415409999638,165.04415409999638,165.04415409999638,165.04415409999638,165.04415409999638,165.04415409999638,165.04415409999638,,003,P015,2025_Feb_28_1908,CategoryLocalizer,2021.2.3,59.919707591675646,
128.0,128.8,4,0.75,Stimuli\ImageFiles-Set1\Scenes\Scenes_040.png,0,0,0,210,210,210,,,,,,,,,,,,,128.03101289999904,0.03101289999904111,None,165.24431079999704,165.24431079999704,165.24431079999704,165.24431079999704,165.24431079999704,165.24431079999704,165.24431079999704,165.24431079999704,,003,P015,2025_Feb_28_1908,CategoryLocalizer,2021.2.3,59.919707591675646,
128.8,129.0,5,0.0,Stimuli\Blank.png,0,0,0,211,211,211,,,,,,,,,,,,,128.8306965999982,0.030696599998179863,None,166.02834579999762,166.02834579999762,166.02834579999762,166.02834579999762,166.02834579999762,166.02834579999762,166.02834579999762,166.02834579999762,,003,P015,2025_Feb_28_1908,CategoryLocalizer,2021.2.3,59.919707591675646,
129.0,129.8,4,0.75,Stimuli\ImageFiles-Set1\Scenes\Scenes_047.png,0,0,0,212,212,212,,,,,,,,,,,,,129.0126891999971,0.012689199997112155,None,166.21183189999647,166.21183189999647,166.21183189999647,166.21183189999647,166.21183189999647,166.21183189999647,166.21183189999647,166.21183189999647,,003,P015,2025_Feb_28_1908,CategoryLocalizer,2021.2.3,59.919707591675646,
129.8,130.0,5,0.0,Stimuli\Blank.png,0,0,0,213,213,213,,,,,,,,,,,,,129.81353200000012,0.013532000000111566,None,167.0125369999987,167.0125369999987,167.0125369999987,167.0125369999987,167.0125369999987,167.0125369999987,167.0125369999987,167.0125369999987,,003,P015,2025_Feb_28_1908,CategoryLocalizer,2021.2.3,59.919707591675646,
130.0,130.8,4,0.75,Stimuli\ImageFiles-Set1\Scenes\Scenes_035.png,0,0,0,214,214,214,,,,,,,,,,,,,130.0152210999986,0.01522109999859822,None,167.2294331999983,167.2294331999983,167.2294331999983,167.2294331999983,167.2294331999983,167.2294331999983,167.2294331999983,167.2294331999983,,003,P015,2025_Feb_28_1908,CategoryLocalizer,2021.2.3,59.919707591675646,
130.8,131.0,5,0.0,Stimuli\Blank.png,0,0,0,215,215,215,,,,,,,,,,,,,130.8148599999986,0.014859999998577678,None,168.01343649999762,168.01343649999762,168.01343649999762,168.01343649999762,168.01343649999762,168.01343649999762,168.01343649999762,168.01343649999762,,003,P015,2025_Feb_28_1908,CategoryLocalizer,2021.2.3,59.919707591675646,
131.0,131.8,4,0.75,Stimuli\ImageFiles-Set1\Scenes\Scenes_017.png,0,0,0,216,216,216,,,,,,,,,,,,,131.01522869999826,0.015228699998260709,None,168.23028129999875,168.23028129999875,168.23028129999875,168.23028129999875,168.23028129999875,168.23028129999875,168.23028129999875,168.23028129999875,,003,P015,2025_Feb_28_1908,CategoryLocalizer,2021.2.3,59.919707591675646,
131.8,132.0,5,0.0,Stimuli\Blank.png,0,0,0,217,217,217,,,,,,,,,,,,,131.81645319999734,0.016453199997329193,None,169.0143149999967,169.0143149999967,169.0143149999967,169.0143149999967,169.0143149999967,169.0143149999967,169.0143149999967,169.0143149999967,,003,P015,2025_Feb_28_1908,CategoryLocalizer,2021.2.3,59.919707591675646,
132.0,132.8,4,0.75,Stimuli\ImageFiles-Set1\Scenes\Scenes_017.png,1,1,0,218,218,218,,,,,,,,,,,,,132.00075789999755,0.0007578999975521583,1,169.21450549999645,169.21450549999645,169.21450549999645,169.21450549999645,169.21450549999645,169.21450549999645,169.21450549999645,169.21450549999645,0.4527040000029956,003,P015,2025_Feb_28_1908,CategoryLocalizer,2021.2.3,59.919707591675646,
132.8,133.0,5,0.0,Stimuli\Blank.png,0,0,0,219,219,219,,,,,,,,,,,,,132.81703379999817,0.017033799998159793,None,170.01520089999758,170.01520089999758,170.01520089999758,170.01520089999758,170.01520089999758,170.01520089999758,170.01520089999758,170.01520089999758,,003,P015,2025_Feb_28_1908,CategoryLocalizer,2021.2.3,59.919707591675646,
133.0,133.8,4,0.75,Stimuli\ImageFiles-Set1\Scenes\Scenes_055.png,0,0,0,220,220,220,,,,,,,,,,,,,133.00031339999987,0.0003133999998681247,None,170.19868889999998,170.19868889999998,170.19868889999998,170.19868889999998,170.19868889999998,170.19868889999998,170.19868889999998,170.19868889999998,,003,P015,2025_Feb_28_1908,CategoryLocalizer,2021.2.3,59.919707591675646,
133.8,134.0,5,0.0,Stimuli\Blank.png,0,0,0,221,221,221,,,,,,,,,,,,,133.80121829999916,0.0012182999991523502,None,170.99940429999697,170.99940429999697,170.99940429999697,170.99940429999697,170.99940429999697,170.99940429999697,170.99940429999697,170.99940429999697,,003,P015,2025_Feb_28_1908,CategoryLocalizer,2021.2.3,59.919707591675646,
134.0,134.8,4,0.75,Stimuli\ImageFiles-Set1\Scenes\Scenes_002.png,0,0,0,222,222,222,,,,,,,,,,,,,134.00151109999933,0.0015110999993339647,None,171.21627119999903,171.21627119999903,171.21627119999903,171.21627119999903,171.21627119999903,171.21627119999903,171.21627119999903,171.21627119999903,,003,P015,2025_Feb_28_1908,CategoryLocalizer,2021.2.3,59.919707591675646,
134.8,135.0,5,0.0,Stimuli\Blank.png,0,0,0,223,223,223,,,,,,,,,,,,,134.81836199999816,0.018361999998148804,None,172.01698059999762,172.01698059999762,172.01698059999762,172.01698059999762,172.01698059999762,172.01698059999762,172.01698059999762,172.01698059999762,,003,P015,2025_Feb_28_1908,CategoryLocalizer,2021.2.3,59.919707591675646,
135.0,135.8,4,0.75,Stimuli\ImageFiles-Set1\Scenes\Scenes_013.png,0,0,0,224,224,224,,,,,,,,,,,,,135.0020540000005,0.0020540000004984904,None,172.20045819999723,172.20045819999723,172.20045819999723,172.20045819999723,172.20045819999723,172.20045819999723,172.20045819999723,172.20045819999723,,003,P015,2025_Feb_28_1908,CategoryLocalizer,2021.2.3,59.919707591675646,
135.8,136.0,5,0.0,Stimuli\Blank.png,0,0,0,225,225,225,,,,,,,,,,,,,135.8031391000004,0.003139100000396411,None,173.00117009999667,173.00117009999667,173.00117009999667,173.00117009999667,173.00117009999667,173.00117009999667,173.00117009999667,173.00117009999667,,003,P015,2025_Feb_28_1908,CategoryLocalizer,2021.2.3,59.919707591675646,
136.0,136.8,2,0.75,Stimuli\ImageFiles-Set1\Bodies\Bodies_Standing_00007.png,0,0,0,226,226,226,,,,,,,,,,,,,136.00249239999903,0.002492399999027839,None,173.2013584999986,173.2013584999986,173.2013584999986,173.2013584999986,173.2013584999986,173.2013584999986,173.2013584999986,173.2013584999986,,003,P015,2025_Feb_28_1908,CategoryLocalizer,2021.2.3,59.919707591675646,
136.8,137.0,5,0.0,Stimuli\Blank.png,0,0,0,227,227,227,,,,,,,,,,,,,136.80294929999945,0.0029492999994431557,None,174.00205409999762,174.00205409999762,174.00205409999762,174.00205409999762,174.00205409999762,174.00205409999762,174.00205409999762,174.00205409999762,,003,P015,2025_Feb_28_1908,CategoryLocalizer,2021.2.3,59.919707591675646,
137.0,137.8,2,0.75,Stimuli\ImageFiles-Set1\Bodies\Bodies_Walking_00004.png,0,0,0,228,228,228,,,,,,,,,,,,,137.00381729999935,0.003817299999354873,None,174.20224139999846,174.20224139999846,174.20224139999846,174.20224139999846,174.20224139999846,174.20224139999846,174.20224139999846,174.20224139999846,,003,P015,2025_Feb_28_1908,CategoryLocalizer,2021.2.3,59.919707591675646,
137.8,138.0,5,0.0,Stimuli\Blank.png,0,0,0,229,229,229,,,,,,,,,,,,,137.8065002000003,0.006500200000289169,None,175.01963689999684,175.01963689999684,175.01963689999684,175.01963689999684,175.01963689999684,175.01963689999684,175.01963689999684,175.01963689999684,,003,P015,2025_Feb_28_1908,CategoryLocalizer,2021.2.3,59.919707591675646,
138.0,138.8,2,0.75,Stimuli\ImageFiles-Set1\Bodies\Bodies_Jumping_00002.png,0,0,0,230,230,230,,,,,,,,,,,,,138.0215750999996,0.021575099999608938,None,175.21980839999742,175.21980839999742,175.21980839999742,175.21980839999742,175.21980839999742,175.21980839999742,175.21980839999742,175.21980839999742,,003,P015,2025_Feb_28_1908,CategoryLocalizer,2021.2.3,59.919707591675646,
138.8,139.0,5,0.0,Stimuli\Blank.png,0,0,0,231,231,231,,,,,,,,,,,,,138.80529279999973,0.00529279999972232,None,176.0038296999992,176.0038296999992,176.0038296999992,176.0038296999992,176.0038296999992,176.0038296999992,176.0038296999992,176.0038296999992,,003,P015,2025_Feb_28_1908,CategoryLocalizer,2021.2.3,59.919707591675646,
139.0,139.8,2,0.75,Stimuli\ImageFiles-Set1\Bodies\Bodies_Kneeling_00005.png,0,0,0,232,232,232,,,,,,,,,,,,,139.00531209999826,0.005312099998263875,None,176.20399869999892,176.20399869999892,176.20399869999892,176.20399869999892,176.20399869999892,176.20399869999892,176.20399869999892,176.20399869999892,,003,P015,2025_Feb_28_1908,CategoryLocalizer,2021.2.3,59.919707591675646,
139.8,140.0,5,0.0,Stimuli\Blank.png,0,0,0,233,233,233,,,,,,,,,,,,,139.8064334999981,0.0064334999980815155,None,177.00471749999997,177.00471749999997,177.00471749999997,177.00471749999997,177.00471749999997,177.00471749999997,177.00471749999997,177.00471749999997,,003,P015,2025_Feb_28_1908,CategoryLocalizer,2021.2.3,59.919707591675646,
140.0,140.8,2,0.75,Stimuli\ImageFiles-Set1\Bodies\Bodies_DownwardDog_00005.png,0,0,0,234,234,234,,,,,,,,,,,,,140.0057706999978,0.00577069999781088,None,177.2048849999992,177.2048849999992,177.2048849999992,177.2048849999992,177.2048849999992,177.2048849999992,177.2048849999992,177.2048849999992,,003,P015,2025_Feb_28_1908,CategoryLocalizer,2021.2.3,59.919707591675646,
140.8,141.0,5,0.0,Stimuli\Blank.png,0,0,0,235,235,235,,,,,,,,,,,,,140.80676709999898,0.006767099998967296,None,178.00566879999678,178.00566879999678,178.00566879999678,178.00566879999678,178.00566879999678,178.00566879999678,178.00566879999678,178.00566879999678,,003,P015,2025_Feb_28_1908,CategoryLocalizer,2021.2.3,59.919707591675646,
141.0,141.8,2,0.75,Stimuli\ImageFiles-Set1\Bodies\Bodies_SittingStretch_00005.png,0,0,0,236,236,236,,,,,,,,,,,,,141.00752549999743,0.007525499997427687,None,178.2057900999971,178.2057900999971,178.2057900999971,178.2057900999971,178.2057900999971,178.2057900999971,178.2057900999971,178.2057900999971,,003,P015,2025_Feb_28_1908,CategoryLocalizer,2021.2.3,59.919707591675646,
141.8,142.0,5,0.0,Stimuli\Blank.png,0,0,0,237,237,237,,,,,,,,,,,,,141.8077654999979,0.00776549999790177,None,179.00649329999942,179.00649329999942,179.00649329999942,179.00649329999942,179.00649329999942,179.00649329999942,179.00649329999942,179.00649329999942,,003,P015,2025_Feb_28_1908,CategoryLocalizer,2021.2.3,59.919707591675646,
142.0,142.8,2,0.75,Stimuli\ImageFiles-Set1\Bodies\Bodies_Crawling_00001.png,0,0,0,238,238,238,,,,,,,,,,,,,142.0075029999971,0.00750299999708659,None,179.20665749999898,179.20665749999898,179.20665749999898,179.20665749999898,179.20665749999898,179.20665749999898,179.20665749999898,179.20665749999898,,003,P015,2025_Feb_28_1908,CategoryLocalizer,2021.2.3,59.919707591675646,
142.8,143.0,5,0.0,Stimuli\Blank.png,0,0,0,239,239,239,,,,,,,,,,,,,142.81061659999978,0.010616599999764276,None,180.02407839999796,180.02407839999796,180.02407839999796,180.02407839999796,180.02407839999796,180.02407839999796,180.02407839999796,180.02407839999796,,003,P015,2025_Feb_28_1908,CategoryLocalizer,2021.2.3,59.919707591675646,
143.0,143.8,2,0.75,Stimuli\ImageFiles-Set1\Bodies\Bodies_Lunging_00001.png,0,0,0,240,240,240,,,,,,,,,,,,,143.02561330000026,0.025613300000259187,None,180.2242342999998,180.2242342999998,180.2242342999998,180.2242342999998,180.2242342999998,180.2242342999998,180.2242342999998,180.2242342999998,,003,P015,2025_Feb_28_1908,CategoryLocalizer,2021.2.3,59.919707591675646,
143.8,144.0,5,0.0,Stimuli\Blank.png,0,0,0,241,241,241,,,,,,,,,,,,,143.80921239999952,0.0092123999995124,None,181.0082356999992,181.0082356999992,181.0082356999992,181.0082356999992,181.0082356999992,181.0082356999992,181.0082356999992,181.0082356999992,,003,P015,2025_Feb_28_1908,CategoryLocalizer,2021.2.3,59.919707591675646,
144.0,144.8,2,0.75,Stimuli\ImageFiles-Set1\Bodies\Bodies_Pushing_00003.png,0,0,0,242,242,242,,,,,,,,,,,,,144.01038580000022,0.010385800000221934,None,181.20845179999742,181.20845179999742,181.20845179999742,181.20845179999742,181.20845179999742,181.20845179999742,181.20845179999742,181.20845179999742,,003,P015,2025_Feb_28_1908,CategoryLocalizer,2021.2.3,59.919707591675646,
144.8,145.0,5,0.0,Stimuli\Blank.png,0,0,0,243,243,243,,,,,,,,,,,,,144.81069859999843,0.010698599998420377,None,182.00914699999703,182.00914699999703,182.00914699999703,182.00914699999703,182.00914699999703,182.00914699999703,182.00914699999703,182.00914699999703,,003,P015,2025_Feb_28_1908,CategoryLocalizer,2021.2.3,59.919707591675646,
145.0,145.8,2,0.75,Stimuli\ImageFiles-Set1\Bodies\Bodies_Jumping_00006.png,0,0,0,244,244,244,,,,,,,,,,,,,145.01020659999995,0.010206599999946775,None,182.2093137999982,182.2093137999982,182.2093137999982,182.2093137999982,182.2093137999982,182.2093137999982,182.2093137999982,182.2093137999982,,003,P015,2025_Feb_28_1908,CategoryLocalizer,2021.2.3,59.919707591675646,
145.8,146.0,5,0.0,Stimuli\Blank.png,0,0,0,245,245,245,,,,,,,,,,,,,145.81170949999796,0.01170949999794857,None,183.01002179999705,183.01002179999705,183.01002179999705,183.01002179999705,183.01002179999705,183.01002179999705,183.01002179999705,183.01002179999705,,003,P015,2025_Feb_28_1908,CategoryLocalizer,2021.2.3,59.919707591675646,
146.0,146.8,2,0.75,Stimuli\ImageFiles-Set1\Bodies\Bodies_Standing_00001.png,0,0,0,246,246,246,,,,,,,,,,,,,146.01168329999928,0.011683299999276642,None,183.21020249999856,183.21020249999856,183.21020249999856,183.21020249999856,183.21020249999856,183.21020249999856,183.21020249999856,183.21020249999856,,003,P015,2025_Feb_28_1908,CategoryLocalizer,2021.2.3,59.919707591675646,
146.8,147.0,5,0.0,Stimuli\Blank.png,0,0,0,247,247,247,,,,,,,,,,,,,146.81201220000003,0.012012200000015127,None,184.01091209999868,184.01091209999868,184.01091209999868,184.01091209999868,184.01091209999868,184.01091209999868,184.01091209999868,184.01091209999868,,003,P015,2025_Feb_28_1908,CategoryLocalizer,2021.2.3,59.919707591675646,
147.0,147.8,2,0.75,Stimuli\ImageFiles-Set1\Bodies\Bodies_Standing_00001.png,1,1,0,248,248,248,,,,,,,,,,,,,147.0128685999989,0.012868599998910213,1,184.2277707999965,184.2277707999965,184.2277707999965,184.2277707999965,184.2277707999965,184.2277707999965,184.2277707999965,184.2277707999965,0.4896627999987686,003,P015,2025_Feb_28_1908,CategoryLocalizer,2021.2.3,59.919707591675646,
147.8,148.0,5,0.0,Stimuli\Blank.png,0,0,0,249,249,249,,,,,,,,,,,,,147.83068809999895,0.030688099998940288,None,185.02848539999832,185.02848539999832,185.02848539999832,185.02848539999832,185.02848539999832,185.02848539999832,185.02848539999832,185.02848539999832,,003,P015,2025_Feb_28_1908,CategoryLocalizer,2021.2.3,59.919707591675646,
148.0,148.8,2,0.75,Stimuli\ImageFiles-Set1\Bodies\Bodies_Waving_00007.png,0,0,0,250,250,250,,,,,,,,,,,,,148.01373759999842,0.013737599998421501,None,185.21197729999767,185.21197729999767,185.21197729999767,185.21197729999767,185.21197729999767,185.21197729999767,185.21197729999767,185.21197729999767,,003,P015,2025_Feb_28_1908,CategoryLocalizer,2021.2.3,59.919707591675646,
148.8,149.0,5,0.0,Stimuli\Blank.png,0,0,0,251,251,251,,,,,,,,,,,,,148.81412199999977,0.014121999999758827,None,186.01267799999914,186.01267799999914,186.01267799999914,186.01267799999914,186.01267799999914,186.01267799999914,186.01267799999914,186.01267799999914,,003,P015,2025_Feb_28_1908,CategoryLocalizer,2021.2.3,59.919707591675646,
149.0,149.8,2,0.75,Stimuli\ImageFiles-Set1\Bodies\Bodies_SittingFloor_00007.png,0,0,0,252,252,252,,,,,,,,,,,,,149.0154438999998,0.015443899999809219,None,186.22954729999765,186.22954729999765,186.22954729999765,186.22954729999765,186.22954729999765,186.22954729999765,186.22954729999765,186.22954729999765,,003,P015,2025_Feb_28_1908,CategoryLocalizer,2021.2.3,59.919707591675646,
149.8,150.0,5,0.0,Stimuli\Blank.png,0,0,0,253,253,253,,,,,,,,,,,,,149.81646439999895,0.016464399998938006,None,187.03027009999641,187.03027009999641,187.03027009999641,187.03027009999641,187.03027009999641,187.03027009999641,187.03027009999641,187.03027009999641,,003,P015,2025_Feb_28_1908,CategoryLocalizer,2021.2.3,59.919707591675646,
150.0,150.8,2,0.75,Stimuli\ImageFiles-Set1\Bodies\Bodies_SittingChair_00007.png,0,0,0,254,254,254,,,,,,,,,,,,,150.01533729999937,0.0153372999993735,None,187.21375169999737,187.21375169999737,187.21375169999737,187.21375169999737,187.21375169999737,187.21375169999737,187.21375169999737,187.21375169999737,,003,P015,2025_Feb_28_1908,CategoryLocalizer,2021.2.3,59.919707591675646,
150.8,151.0,5,0.0,Stimuli\Blank.png,0,0,0,255,255,255,,,,,,,,,,,,,150.79924860000028,-0.0007513999997286192,None,187.99777279999762,187.99777279999762,187.99777279999762,187.99777279999762,187.99777279999762,187.99777279999762,187.99777279999762,187.99777279999762,,003,P015,2025_Feb_28_1908,CategoryLocalizer,2021.2.3,59.919707591675646,
151.0,151.8,2,0.75,Stimuli\ImageFiles-Set1\Bodies\Bodies_Hanging_00006.png,0,0,0,256,256,256,,,,,,,,,,,,,150.99914779999744,-0.0008522000025550369,None,188.19795729999896,188.19795729999896,188.19795729999896,188.19795729999896,188.19795729999896,188.19795729999896,188.19795729999896,188.19795729999896,,003,P015,2025_Feb_28_1908,CategoryLocalizer,2021.2.3,59.919707591675646,
151.8,152.0,5,0.0,Stimuli\Blank.png,0,0,0,257,257,257,,,,,,,,,,,,,151.80130359999748,0.0013035999974704282,None,189.01536679999845,189.01536679999845,189.01536679999845,189.01536679999845,189.01536679999845,189.01536679999845,189.01536679999845,189.01536679999845,,003,P015,2025_Feb_28_1908,CategoryLocalizer,2021.2.3,59.919707591675646,
152.0,164.0,0,0.0,Stimuli\Blank.png,0,0,0,258,258,258,,,,,,,,,,,,,152.0170354999973,0.01703549999729148,None,189.21553029999995,189.21553029999995,189.21553029999995,189.21553029999995,189.21553029999995,189.21553029999995,189.21553029999995,189.21553029999995,,003,P015,2025_Feb_28_1908,CategoryLocalizer,2021.2.3,59.919707591675646,
164.0,164.8,4,0.75,Stimuli\ImageFiles-Set1\Scenes\Scenes_024.png,0,0,0,259,259,259,,,,,,,,,,,,,164.01088009999876,0.010880099998757942,None,201.2261495999992,201.2261495999992,201.2261495999992,201.2261495999992,201.2261495999992,201.2261495999992,201.2261495999992,201.2261495999992,,003,P015,2025_Feb_28_1908,CategoryLocalizer,2021.2.3,59.919707591675646,
164.8,165.0,5,0.0,Stimuli\Blank.png,0,0,0,260,260,260,,,,,,,,,,,,,164.82860529999743,0.028605299997423117,None,202.02685279999787,202.02685279999787,202.02685279999787,202.02685279999787,202.02685279999787,202.02685279999787,202.02685279999787,202.02685279999787,,003,P015,2025_Feb_28_1908,CategoryLocalizer,2021.2.3,59.919707591675646,
165.0,165.8,4,0.75,Stimuli\ImageFiles-Set1\Scenes\Scenes_024.png,1,1,0,261,261,261,,,,,,,,,,,,,165.0124414999991,0.012441499999113148,1,202.22702369999752,202.22702369999752,202.22702369999752,202.22702369999752,202.22702369999752,202.22702369999752,202.22702369999752,202.22702369999752,0.5433444999980566,003,P015,2025_Feb_28_1908,CategoryLocalizer,2021.2.3,59.919707591675646,
165.8,166.0,5,0.0,Stimuli\Blank.png,0,0,0,262,262,262,,,,,,,,,,,,,165.83166960000017,0.03166960000015706,None,203.04442799999742,203.04442799999742,203.04442799999742,203.04442799999742,203.04442799999742,203.04442799999742,203.04442799999742,203.04442799999742,,003,P015,2025_Feb_28_1908,CategoryLocalizer,2021.2.3,59.919707591675646,
166.0,166.8,4,0.75,Stimuli\ImageFiles-Set1\Scenes\Scenes_028.png,0,0,0,263,263,263,,,,,,,,,,,,,166.03057439999975,0.030574399999750312,None,203.24460859999817,203.24460859999817,203.24460859999817,203.24460859999817,203.24460859999817,203.24460859999817,203.24460859999817,203.24460859999817,,003,P015,2025_Feb_28_1908,CategoryLocalizer,2021.2.3,59.919707591675646,
166.8,167.0,5,0.0,Stimuli\Blank.png,0,0,0,264,264,264,,,,,,,,,,,,,166.83189850000053,0.031898500000522745,None,204.0453424999978,204.0453424999978,204.0453424999978,204.0453424999978,204.0453424999978,204.0453424999978,204.0453424999978,204.0453424999978,,003,P015,2025_Feb_28_1908,CategoryLocalizer,2021.2.3,59.919707591675646,
167.0,167.8,4,0.75,Stimuli\ImageFiles-Set1\Scenes\Scenes_006.png,0,0,0,265,265,265,,,,,,,,,,,,,167.03177669999786,0.031776699997863034,None,204.2455181999976,204.2455181999976,204.2455181999976,204.2455181999976,204.2455181999976,204.2455181999976,204.2455181999976,204.2455181999976,,003,P015,2025_Feb_28_1908,CategoryLocalizer,2021.2.3,59.919707591675646,
167.8,168.0,5,0.0,Stimuli\Blank.png,0,0,0,266,266,266,,,,,,,,,,,,,167.8148743999991,0.014874399999087018,None,205.0128353,205.0128353,205.0128353,205.0128353,205.0128353,205.0128353,205.0128353,205.0128353,,003,P015,2025_Feb_28_1908,CategoryLocalizer,2021.2.3,59.919707591675646,
168.0,168.8,4,0.75,Stimuli\ImageFiles-Set1\Scenes\Scenes_007.png,0,0,0,267,267,267,,,,,,,,,,,,,168.01492229999712,0.014922299997124355,None,205.22969079999893,205.22969079999893,205.22969079999893,205.22969079999893,205.22969079999893,205.22969079999893,205.22969079999893,205.22969079999893,,003,P015,2025_Feb_28_1908,CategoryLocalizer,2021.2.3,59.919707591675646,
168.8,169.0,5,0.0,Stimuli\Blank.png,0,0,0,268,268,268,,,,,,,,,,,,,168.81564199999775,0.015641999997740186,None,206.0137313999985,206.0137313999985,206.0137313999985,206.0137313999985,206.0137313999985,206.0137313999985,206.0137313999985,206.0137313999985,,003,P015,2025_Feb_28_1908,CategoryLocalizer,2021.2.3,59.919707591675646,
169.0,169.8,4,0.75,Stimuli\ImageFiles-Set1\Scenes\Scenes_039.png,0,0,0,269,269,269,,,,,,,,,,,,,169.00073409999823,0.0007340999982261565,None,206.21391319999748,206.21391319999748,206.21391319999748,206.21391319999748,206.21391319999748,206.21391319999748,206.21391319999748,206.21391319999748,,003,P015,2025_Feb_28_1908,CategoryLocalizer,2021.2.3,59.919707591675646,
169.8,170.0,5,0.0,Stimuli\Blank.png,0,0,0,270,270,270,,,,,,,,,,,,,169.81660329999795,0.016603299997939303,None,207.01460119999683,207.01460119999683,207.01460119999683,207.01460119999683,207.01460119999683,207.01460119999683,207.01460119999683,207.01460119999683,,003,P015,2025_Feb_28_1908,CategoryLocalizer,2021.2.3,59.919707591675646,
170.0,170.8,4,0.75,Stimuli\ImageFiles-Set1\Scenes\Scenes_053.png,0,0,0,271,271,271,,,,,,,,,,,,,170.00109719999818,0.0010971999981848057,None,207.21487599999818,207.21487599999818,207.21487599999818,207.21487599999818,207.21487599999818,207.21487599999818,207.21487599999818,207.21487599999818,,003,P015,2025_Feb_28_1908,CategoryLocalizer,2021.2.3,59.919707591675646,
170.8,171.0,5,0.0,Stimuli\Blank.png,0,0,0,272,272,272,,,,,,,,,,,,,170.8163977999975,0.016397799997491802,None,208.0154849999999,208.0154849999999,208.0154849999999,208.0154849999999,208.0154849999999,208.0154849999999,208.0154849999999,208.0154849999999,,003,P015,2025_Feb_28_1908,CategoryLocalizer,2021.2.3,59.919707591675646,
171.0,171.8,4,0.75,Stimuli\ImageFiles-Set1\Scenes\Scenes_015.png,0,0,0,273,273,273,,,,,,,,,,,,,171.00072759999966,0.0007275999996636529,None,208.199034199999,208.199034199999,208.199034199999,208.199034199999,208.199034199999,208.199034199999,208.199034199999,208.199034199999,,003,P015,2025_Feb_28_1908,CategoryLocalizer,2021.2.3,59.919707591675646,
171.8,172.0,5,0.0,Stimuli\Blank.png,0,0,0,274,274,274,,,,,,,,,,,,,171.8018966999989,0.0018966999988947464,None,208.9997059999987,208.9997059999987,208.9997059999987,208.9997059999987,208.9997059999987,208.9997059999987,208.9997059999987,208.9997059999987,,003,P015,2025_Feb_28_1908,CategoryLocalizer,2021.2.3,59.919707591675646,
172.0,172.8,4,0.75,Stimuli\ImageFiles-Set1\Scenes\Scenes_033.png,0,0,0,275,275,275,,,,,,,,,,,,,172.0010203999991,0.0010203999991063029,None,209.21655779999855,209.21655779999855,209.21655779999855,209.21655779999855,209.21655779999855,209.21655779999855,209.21655779999855,209.21655779999855,,003,P015,2025_Feb_28_1908,CategoryLocalizer,2021.2.3,59.919707591675646,
172.8,173.0,5,0.0,Stimuli\Blank.png,0,0,0,276,276,276,,,,,,,,,,,,,172.81894219999958,0.018942199999571585,None,210.017251199999,210.017251199999,210.017251199999,210.017251199999,210.017251199999,210.017251199999,210.017251199999,210.017251199999,,003,P015,2025_Feb_28_1908,CategoryLocalizer,2021.2.3,59.919707591675646,
173.0,173.8,4,0.75,Stimuli\ImageFiles-Set1\Scenes\Scenes_041.png,0,0,0,277,277,277,,,,,,,,,,,,,173.00254239999776,0.0025423999977647327,None,210.2174503999995,210.2174503999995,210.2174503999995,210.2174503999995,210.2174503999995,210.2174503999995,210.2174503999995,210.2174503999995,,003,P015,2025_Feb_28_1908,CategoryLocalizer,2021.2.3,59.919707591675646,
173.8,174.0,5,0.0,Stimuli\Blank.png,0,0,0,278,278,278,,,,,,,,,,,,,173.82156100000066,0.02156100000064498,None,211.0348312999995,211.0348312999995,211.0348312999995,211.0348312999995,211.0348312999995,211.0348312999995,211.0348312999995,211.0348312999995,,003,P015,2025_Feb_28_1908,CategoryLocalizer,2021.2.3,59.919707591675646,
174.0,174.8,4,0.75,Stimuli\ImageFiles-Set1\Scenes\Scenes_042.png,1,1,0,279,279,279,,,,,,,,,,,,,174.02175859999988,0.02175859999988461,None,211.23500649999914,211.23500649999914,211.23500649999914,211.23500649999914,211.23500649999914,211.23500649999914,211.23500649999914,211.23500649999914,,003,P015,2025_Feb_28_1908,CategoryLocalizer,2021.2.3,59.919707591675646,
174.8,175.0,5,0.0,Stimuli\Blank.png,0,0,0,280,280,280,,,,,,,,,,,,,174.82244580000042,0.022445800000411964,None,212.0357238999968,212.0357238999968,212.0357238999968,212.0357238999968,212.0357238999968,212.0357238999968,212.0357238999968,212.0357238999968,,003,P015,2025_Feb_28_1908,CategoryLocalizer,2021.2.3,59.919707591675646,
175.0,175.8,4,0.75,Stimuli\ImageFiles-Set1\Scenes\Scenes_058.png,0,0,0,281,281,281,,,,,,,,,,,,,175.02185539999846,0.02185539999845787,None,212.23591609999858,212.23591609999858,212.23591609999858,212.23591609999858,212.23591609999858,212.23591609999858,212.23591609999858,212.23591609999858,,003,P015,2025_Feb_28_1908,CategoryLocalizer,2021.2.3,59.919707591675646,
175.8,176.0,5,0.0,Stimuli\Blank.png,0,0,0,282,282,282,,,,,,,,,,,,,175.82172139999966,0.02172139999964884,None,213.01993469999798,213.01993469999798,213.01993469999798,213.01993469999798,213.01993469999798,213.01993469999798,213.01993469999798,213.01993469999798,,003,P015,2025_Feb_28_1908,CategoryLocalizer,2021.2.3,59.919707591675646,
176.0,176.8,4,0.75,Stimuli\ImageFiles-Set1\Scenes\Scenes_058.png,0,0,0,283,283,283,,,,,,,,,,,,,176.00444829999833,0.004448299998330185,1,213.20340979999673,213.20340979999673,213.20340979999673,213.20340979999673,213.20340979999673,213.20340979999673,213.20340979999673,213.20340979999673,0.41787680000197724,003,P015,2025_Feb_28_1908,CategoryLocalizer,2021.2.3,59.919707591675646,
176.8,177.0,5,0.0,Stimuli\Blank.png,0,0,0,284,284,284,,,,,,,,,,,,,176.80823389999932,0.008233899999311234,None,214.0208414999979,214.0208414999979,214.0208414999979,214.0208414999979,214.0208414999979,214.0208414999979,214.0208414999979,214.0208414999979,,003,P015,2025_Feb_28_1908,CategoryLocalizer,2021.2.3,59.919707591675646,
