eventStartTime,eventEndTime,eventCond,imSize,imFile,repeatedImage,responseEvent,Events.thisRepN,Events.thisTrialN,Events.thisN,Events.thisIndex,Instructions.started,Instructions.stopped,participantReadyResponse.keys,participantReadyResponse.rt,participantReadyResponse.started,participantReadyResponse.stopped,startWaitforTrigger,triggerResponse.keys,triggerResponse.rt,triggerResponse.started,triggerResponse.stopped,globalTimer,actualStartTime,startTimingDiff,participantResponse.keys,participantResponse.started,participantResponse.stopped,image.started,image.stopped,fixationOutside.started,fixationOutside.stopped,fixationInside.started,fixationInside.stopped,participantResponse.rt,session,participant,date,expName,psychopyVersion,frameRate,
,,,,,,,,,,,11.104959799999051,None,1,0.6475693000029423,11.104959799999051,None,,,,,,,,,,,,,,,,,,,003,P016,2025_Mar_07_1455,CategoryLocalizer,2021.2.3,59.971057967401194,
,,,,,,,,,,,,,,,,,11.755732599998737,5,20.017836999999417,11.767878499998915,None,,,,,,,,,,,,,,003,P016,2025_Mar_07_1455,CategoryLocalizer,2021.2.3,59.971057967401194,
0.0,12.0,0,0.0,Stimuli\Blank.png,0,0,0,0,0,0,,,,,,,,,,,,31.789100300000428,0.034909000001789536,0.034909000001789536,None,31.835709300001326,None,31.835709300001326,None,31.835709300001326,None,31.835709300001326,None,,003,P016,2025_Mar_07_1455,CategoryLocalizer,2021.2.3,59.971057967401194,
12.0,12.8,1,0.75,Stimuli\ImageFiles-Set1\Objects\Object_Pipe_00001.png,0,0,0,1,1,1,,,,,,,,,,,,,12.0116139999991,0.011613999999099178,None,43.81296300000031,43.81296300000031,43.81296300000031,43.81296300000031,43.81296300000031,43.81296300000031,43.81296300000031,43.81296300000031,,003,P016,2025_Mar_07_1455,CategoryLocalizer,2021.2.3,59.971057967401194,
12.8,13.0,5,0.0,Stimuli\Blank.png,0,0,0,2,2,2,,,,,,,,,,,,,12.809935100001894,0.00993510000189346,None,44.61368090000178,44.61368090000178,44.61368090000178,44.61368090000178,44.61368090000178,44.61368090000178,44.61368090000178,44.61368090000178,,003,P016,2025_Mar_07_1455,CategoryLocalizer,2021.2.3,59.971057967401194,
13.0,13.8,1,0.75,Stimuli\ImageFiles-Set1\Objects\Object_Dice_00001.png,0,0,0,3,3,3,,,,,,,,,,,,,13.011058800002502,0.011058800002501812,None,44.81384629999957,44.81384629999957,44.81384629999957,44.81384629999957,44.81384629999957,44.81384629999957,44.81384629999957,44.81384629999957,,003,P016,2025_Mar_07_1455,CategoryLocalizer,2021.2.3,59.971057967401194,
13.8,14.0,5,0.0,Stimuli\Blank.png,0,0,0,4,4,4,,,,,,,,,,,,,13.811680400001933,0.011680400001932156,None,45.61456850000104,45.61456850000104,45.61456850000104,45.61456850000104,45.61456850000104,45.61456850000104,45.61456850000104,45.61456850000104,,003,P016,2025_Mar_07_1455,CategoryLocalizer,2021.2.3,59.971057967401194,
14.0,14.8,1,0.75,Stimuli\ImageFiles-Set1\Objects\Object_Bench_00001.png,0,0,0,5,5,5,,,,,,,,,,,,,14.011198300002434,0.011198300002433825,None,45.814731099999335,45.814731099999335,45.814731099999335,45.814731099999335,45.814731099999335,45.814731099999335,45.814731099999335,45.814731099999335,,003,P016,2025_Mar_07_1455,CategoryLocalizer,2021.2.3,59.971057967401194,
14.8,15.0,5,0.0,Stimuli\Blank.png,0,0,0,6,6,6,,,,,,,,,,,,,14.813469600001554,0.013469600001553061,None,46.6321414999984,46.6321414999984,46.6321414999984,46.6321414999984,46.6321414999984,46.6321414999984,46.6321414999984,46.6321414999984,,003,P016,2025_Mar_07_1455,CategoryLocalizer,2021.2.3,59.971057967401194,
15.0,15.8,1,0.75,Stimuli\ImageFiles-Set1\Objects\Object_Gun_00001.png,0,0,0,7,7,7,,,,,,,,,,,,,15.028453999999329,0.028453999999328516,None,46.83229189999838,46.83229189999838,46.83229189999838,46.83229189999838,46.83229189999838,46.83229189999838,46.83229189999838,46.83229189999838,,003,P016,2025_Mar_07_1455,CategoryLocalizer,2021.2.3,59.971057967401194,
15.8,16.0,5,0.0,Stimuli\Blank.png,0,0,0,8,8,8,,,,,,,,,,,,,15.813491000000795,0.013491000000794173,None,47.6163263999988,47.6163263999988,47.6163263999988,47.6163263999988,47.6163263999988,47.6163263999988,47.6163263999988,47.6163263999988,,003,P016,2025_Mar_07_1455,CategoryLocalizer,2021.2.3,59.971057967401194,
16.0,16.8,1,0.75,Stimuli\ImageFiles-Set1\Objects\Object_Door_00001.png,0,0,0,9,9,9,,,,,,,,,,,,,16.013191400001233,0.013191400001232978,None,47.816504200000054,47.816504200000054,47.816504200000054,47.816504200000054,47.816504200000054,47.816504200000054,47.816504200000054,47.816504200000054,,003,P016,2025_Mar_07_1455,CategoryLocalizer,2021.2.3,59.971057967401194,
16.8,17.0,5,0.0,Stimuli\Blank.png,0,0,0,10,10,10,,,,,,,,,,,,,16.813360200001625,0.013360200001624634,None,48.61720710000009,48.61720710000009,48.61720710000009,48.61720710000009,48.61720710000009,48.61720710000009,48.61720710000009,48.61720710000009,,003,P016,2025_Mar_07_1455,CategoryLocalizer,2021.2.3,59.971057967401194,
17.0,17.8,1,0.75,Stimuli\ImageFiles-Set1\Objects\Object_Card_00001.png,0,0,0,11,11,11,,,,,,,,,,,,,17.013608199999,0.013608199998998316,None,48.81740920000084,48.81740920000084,48.81740920000084,48.81740920000084,48.81740920000084,48.81740920000084,48.81740920000084,48.81740920000084,,003,P016,2025_Mar_07_1455,CategoryLocalizer,2021.2.3,59.971057967401194,
17.8,18.0,5,0.0,Stimuli\Blank.png,0,0,0,12,12,12,,,,,,,,,,,,,17.814302300001145,0.01430230000114463,None,49.61808960000053,49.61808960000053,49.61808960000053,49.61808960000053,49.61808960000053,49.61808960000053,49.61808960000053,49.61808960000053,,003,P016,2025_Mar_07_1455,CategoryLocalizer,2021.2.3,59.971057967401194,
18.0,18.8,1,0.75,Stimuli\ImageFiles-Set1\Objects\Object_Scale_00001.png,0,0,0,13,13,13,,,,,,,,,,,,,18.014981799999077,0.014981799999077339,None,49.8182693000017,49.8182693000017,49.8182693000017,49.8182693000017,49.8182693000017,49.8182693000017,49.8182693000017,49.8182693000017,,003,P016,2025_Mar_07_1455,CategoryLocalizer,2021.2.3,59.971057967401194,
18.8,19.0,5,0.0,Stimuli\Blank.png,0,0,0,14,14,14,,,,,,,,,,,,,18.799049500001274,-0.0009504999987264284,None,50.60229999999865,50.60229999999865,50.60229999999865,50.60229999999865,50.60229999999865,50.60229999999865,50.60229999999865,50.60229999999865,,003,P016,2025_Mar_07_1455,CategoryLocalizer,2021.2.3,59.971057967401194,
19.0,19.8,1,0.75,Stimuli\ImageFiles-Set1\Objects\Object_Toilet_00001.png,0,0,0,15,15,15,,,,,,,,,,,,,18.9996785000003,-0.0003214999996998813,None,50.802465400000074,50.802465400000074,50.802465400000074,50.802465400000074,50.802465400000074,50.802465400000074,50.802465400000074,50.802465400000074,,003,P016,2025_Mar_07_1455,CategoryLocalizer,2021.2.3,59.971057967401194,
19.8,20.0,5,0.0,Stimuli\Blank.png,0,0,0,16,16,16,,,,,,,,,,,,,19.799922599999263,-7.74000007375264e-05,None,51.603175700001884,51.603175700001884,51.603175700001884,51.603175700001884,51.603175700001884,51.603175700001884,51.603175700001884,51.603175700001884,,003,P016,2025_Mar_07_1455,CategoryLocalizer,2021.2.3,59.971057967401194,
20.0,20.8,1,0.75,Stimuli\ImageFiles-Set1\Objects\Object_Peanut_00001.png,0,0,0,17,17,17,,,,,,,,,,,,,20.000803099999757,0.0008030999997572508,None,51.80331920000026,51.80331920000026,51.80331920000026,51.80331920000026,51.80331920000026,51.80331920000026,51.80331920000026,51.80331920000026,,003,P016,2025_Mar_07_1455,CategoryLocalizer,2021.2.3,59.971057967401194,
20.8,21.0,5,0.0,Stimuli\Blank.png,0,0,0,18,18,18,,,,,,,,,,,,,20.800504400001955,0.0005044000019545081,None,52.60406960000182,52.60406960000182,52.60406960000182,52.60406960000182,52.60406960000182,52.60406960000182,52.60406960000182,52.60406960000182,,003,P016,2025_Mar_07_1455,CategoryLocalizer,2021.2.3,59.971057967401194,
21.0,21.8,1,0.75,Stimuli\ImageFiles-Set1\Objects\Object_Peanut_00001.png,1,1,0,19,19,19,,,,,,,,,,,,,21.000552000001335,0.0005520000013348181,1,52.82093729999906,52.82093729999906,52.82093729999906,52.82093729999906,52.82093729999906,52.82093729999906,52.82093729999906,52.82093729999906,0.3345779000010225,003,P016,2025_Mar_07_1455,CategoryLocalizer,2021.2.3,59.971057967401194,
21.8,22.0,5,0.0,Stimuli\Blank.png,0,0,0,20,20,20,,,,,,,,,,,,,21.81941999999981,0.01941999999980837,None,53.62164190000112,53.62164190000112,53.62164190000112,53.62164190000112,53.62164190000112,53.62164190000112,53.62164190000112,53.62164190000112,,003,P016,2025_Mar_07_1455,CategoryLocalizer,2021.2.3,59.971057967401194,
22.0,22.8,1,0.75,Stimuli\ImageFiles-Set1\Objects\Object_TeaBag_00001.png,0,0,0,21,21,21,,,,,,,,,,,,,22.002020700001594,0.0020207000015943777,None,53.80514939999921,53.80514939999921,53.80514939999921,53.80514939999921,53.80514939999921,53.80514939999921,53.80514939999921,53.80514939999921,,003,P016,2025_Mar_07_1455,CategoryLocalizer,2021.2.3,59.971057967401194,
22.8,23.0,5,0.0,Stimuli\Blank.png,0,0,0,22,22,22,,,,,,,,,,,,,22.804458800001157,0.004458800001156504,None,54.622522699999536,54.622522699999536,54.622522699999536,54.622522699999536,54.622522699999536,54.622522699999536,54.622522699999536,54.622522699999536,,003,P016,2025_Mar_07_1455,CategoryLocalizer,2021.2.3,59.971057967401194,
23.0,23.8,1,0.75,Stimuli\ImageFiles-Set1\Objects\Object_Nightstand_00001.png,0,0,0,23,23,23,,,,,,,,,,,,,23.019552900001145,0.019552900001144735,None,54.839378299999225,54.839378299999225,54.839378299999225,54.839378299999225,54.839378299999225,54.839378299999225,54.839378299999225,54.839378299999225,,003,P016,2025_Mar_07_1455,CategoryLocalizer,2021.2.3,59.971057967401194,
23.8,24.0,5,0.0,Stimuli\Blank.png,0,0,0,24,24,24,,,,,,,,,,,,,23.820214600000327,0.020214600000326044,None,55.62339770000108,55.62339770000108,55.62339770000108,55.62339770000108,55.62339770000108,55.62339770000108,55.62339770000108,55.62339770000108,,003,P016,2025_Mar_07_1455,CategoryLocalizer,2021.2.3,59.971057967401194,
24.0,24.8,1,0.75,Stimuli\ImageFiles-Set1\Objects\Object_Apple_00001.png,0,0,0,25,25,25,,,,,,,,,,,,,24.00372419999985,0.0037241999998514075,None,55.82358210000166,55.82358210000166,55.82358210000166,55.82358210000166,55.82358210000166,55.82358210000166,55.82358210000166,55.82358210000166,,003,P016,2025_Mar_07_1455,CategoryLocalizer,2021.2.3,59.971057967401194,
24.8,25.0,5,0.0,Stimuli\Blank.png,0,0,0,26,26,26,,,,,,,,,,,,,24.8207067000003,0.02070670000030006,None,56.62429350000093,56.62429350000093,56.62429350000093,56.62429350000093,56.62429350000093,56.62429350000093,56.62429350000093,56.62429350000093,,003,P016,2025_Mar_07_1455,CategoryLocalizer,2021.2.3,59.971057967401194,
25.0,25.8,1,0.75,Stimuli\ImageFiles-Set1\Objects\Object_Pillow_00001.png,0,0,0,27,27,27,,,,,,,,,,,,,25.0046368000003,0.0046368000002985355,None,56.807783799999015,56.807783799999015,56.807783799999015,56.807783799999015,56.807783799999015,56.807783799999015,56.807783799999015,56.807783799999015,,003,P016,2025_Mar_07_1455,CategoryLocalizer,2021.2.3,59.971057967401194,
25.8,26.0,5,0.0,Stimuli\Blank.png,0,0,0,28,28,28,,,,,,,,,,,,,25.80460740000126,0.00460740000125881,None,57.60849049999888,57.60849049999888,57.60849049999888,57.60849049999888,57.60849049999888,57.60849049999888,57.60849049999888,57.60849049999888,,003,P016,2025_Mar_07_1455,CategoryLocalizer,2021.2.3,59.971057967401194,
26.0,26.8,1,0.75,Stimuli\ImageFiles-Set1\Objects\Object_Pizza_00001.png,0,0,0,29,29,29,,,,,,,,,,,,,26.00486390000151,0.004863900001510046,None,57.80863920000047,57.80863920000047,57.80863920000047,57.80863920000047,57.80863920000047,57.80863920000047,57.80863920000047,57.80863920000047,,003,P016,2025_Mar_07_1455,CategoryLocalizer,2021.2.3,59.971057967401194,
26.8,27.0,5,0.0,Stimuli\Blank.png,0,0,0,30,30,30,,,,,,,,,,,,,26.80567670000164,0.0056767000016400004,None,58.60937289999856,58.60937289999856,58.60937289999856,58.60937289999856,58.60937289999856,58.60937289999856,58.60937289999856,58.60937289999856,,003,P016,2025_Mar_07_1455,CategoryLocalizer,2021.2.3,59.971057967401194,
27.0,27.8,1,0.75,Stimuli\ImageFiles-Set1\Objects\Object_ComputerMouse_00001.png,0,0,0,31,31,31,,,,,,,,,,,,,27.00581880000027,0.00581880000027013,None,58.82624439999927,58.82624439999927,58.82624439999927,58.82624439999927,58.82624439999927,58.82624439999927,58.82624439999927,58.82624439999927,,003,P016,2025_Mar_07_1455,CategoryLocalizer,2021.2.3,59.971057967401194,
27.8,28.0,5,0.0,Stimuli\Blank.png,0,0,0,32,32,32,,,,,,,,,,,,,27.823785399999906,0.023785399999905366,None,59.62694069999998,59.62694069999998,59.62694069999998,59.62694069999998,59.62694069999998,59.62694069999998,59.62694069999998,59.62694069999998,,003,P016,2025_Mar_07_1455,CategoryLocalizer,2021.2.3,59.971057967401194,
28.0,28.8,2,0.75,Stimuli\ImageFiles-Set1\Bodies\Bodies_Lunging_00001.png,0,0,0,33,33,33,,,,,,,,,,,,,28.00768710000193,0.007687100001930958,None,59.81039299999975,59.81039299999975,59.81039299999975,59.81039299999975,59.81039299999975,59.81039299999975,59.81039299999975,59.81039299999975,,003,P016,2025_Mar_07_1455,CategoryLocalizer,2021.2.3,59.971057967401194,
28.8,29.0,5,0.0,Stimuli\Blank.png,0,0,0,34,34,34,,,,,,,,,,,,,28.810477099999844,0.01047709999984292,None,60.627865499998734,60.627865499998734,60.627865499998734,60.627865499998734,60.627865499998734,60.627865499998734,60.627865499998734,60.627865499998734,,003,P016,2025_Mar_07_1455,CategoryLocalizer,2021.2.3,59.971057967401194,
29.0,29.8,2,0.75,Stimuli\ImageFiles-Set1\Bodies\Bodies_Lunging_00001.png,1,1,0,35,35,35,,,,,,,,,,,,,29.024224500000855,0.024224500000855187,1,60.82800549999956,60.82800549999956,60.82800549999956,60.82800549999956,60.82800549999956,60.82800549999956,60.82800549999956,60.82800549999956,0.401675900000555,003,P016,2025_Mar_07_1455,CategoryLocalizer,2021.2.3,59.971057967401194,
29.8,30.0,5,0.0,Stimuli\Blank.png,0,0,0,36,36,36,,,,,,,,,,,,,29.80915989999994,0.009159899999939825,None,61.612033400000655,61.612033400000655,61.612033400000655,61.612033400000655,61.612033400000655,61.612033400000655,61.612033400000655,61.612033400000655,,003,P016,2025_Mar_07_1455,CategoryLocalizer,2021.2.3,59.971057967401194,
30.0,30.8,2,0.75,Stimuli\ImageFiles-Set1\Bodies\Bodies_Kneeling_00003.png,0,0,0,37,37,37,,,,,,,,,,,,,30.009384700002556,0.009384700002556201,None,61.81216259999928,61.81216259999928,61.81216259999928,61.81216259999928,61.81216259999928,61.81216259999928,61.81216259999928,61.81216259999928,,003,P016,2025_Mar_07_1455,CategoryLocalizer,2021.2.3,59.971057967401194,
30.8,31.0,5,0.0,Stimuli\Blank.png,0,0,0,38,38,38,,,,,,,,,,,,,30.80974570000035,0.009745700000348023,None,62.61291340000025,62.61291340000025,62.61291340000025,62.61291340000025,62.61291340000025,62.61291340000025,62.61291340000025,62.61291340000025,,003,P016,2025_Mar_07_1455,CategoryLocalizer,2021.2.3,59.971057967401194,
31.0,31.8,2,0.75,Stimuli\ImageFiles-Set1\Bodies\Bodies_Kicking_00007.png,0,0,0,39,39,39,,,,,,,,,,,,,31.010000300000684,0.010000300000683637,None,62.81309590000092,62.81309590000092,62.81309590000092,62.81309590000092,62.81309590000092,62.81309590000092,62.81309590000092,62.81309590000092,,003,P016,2025_Mar_07_1455,CategoryLocalizer,2021.2.3,59.971057967401194,
31.8,32.0,5,0.0,Stimuli\Blank.png,0,0,0,40,40,40,,,,,,,,,,,,,31.810260500002187,0.010260500002186035,None,63.613795799999934,63.613795799999934,63.613795799999934,63.613795799999934,63.613795799999934,63.613795799999934,63.613795799999934,63.613795799999934,,003,P016,2025_Mar_07_1455,CategoryLocalizer,2021.2.3,59.971057967401194,
32.0,32.8,2,0.75,Stimuli\ImageFiles-Set1\Bodies\Bodies_Standing_00001.png,0,0,0,41,41,41,,,,,,,,,,,,,32.01085890000104,0.010858900001039729,None,63.813967400001275,63.813967400001275,63.813967400001275,63.813967400001275,63.813967400001275,63.813967400001275,63.813967400001275,63.813967400001275,,003,P016,2025_Mar_07_1455,CategoryLocalizer,2021.2.3,59.971057967401194,
32.8,33.0,5,0.0,Stimuli\Blank.png,0,0,0,42,42,42,,,,,,,,,,,,,32.81089020000218,0.010890200002179995,None,64.61465239999961,64.61465239999961,64.61465239999961,64.61465239999961,64.61465239999961,64.61465239999961,64.61465239999961,64.61465239999961,,003,P016,2025_Mar_07_1455,CategoryLocalizer,2021.2.3,59.971057967401194,
33.0,33.8,2,0.75,Stimuli\ImageFiles-Set1\Bodies\Bodies_SittingFloor_00003.png,0,0,0,43,43,43,,,,,,,,,,,,,33.01107369999954,0.011073699999542441,None,64.81484769999952,64.81484769999952,64.81484769999952,64.81484769999952,64.81484769999952,64.81484769999952,64.81484769999952,64.81484769999952,,003,P016,2025_Mar_07_1455,CategoryLocalizer,2021.2.3,59.971057967401194,
33.8,34.0,5,0.0,Stimuli\Blank.png,0,0,0,44,44,44,,,,,,,,,,,,,33.813816800000495,0.01381680000049812,None,65.6155660000004,65.6155660000004,65.6155660000004,65.6155660000004,65.6155660000004,65.6155660000004,65.6155660000004,65.6155660000004,,003,P016,2025_Mar_07_1455,CategoryLocalizer,2021.2.3,59.971057967401194,
34.0,34.8,2,0.75,Stimuli\ImageFiles-Set1\Bodies\Bodies_Pushing_00001.png,0,0,0,45,45,45,,,,,,,,,,,,,34.01282750000246,0.012827500002458692,None,65.8157382999998,65.8157382999998,65.8157382999998,65.8157382999998,65.8157382999998,65.8157382999998,65.8157382999998,65.8157382999998,,003,P016,2025_Mar_07_1455,CategoryLocalizer,2021.2.3,59.971057967401194,
34.8,35.0,5,0.0,Stimuli\Blank.png,0,0,0,46,46,46,,,,,,,,,,,,,34.813402899999346,0.01340289999934896,None,66.6164589,66.6164589,66.6164589,66.6164589,66.6164589,66.6164589,66.6164589,66.6164589,,003,P016,2025_Mar_07_1455,CategoryLocalizer,2021.2.3,59.971057967401194,
35.0,35.8,2,0.75,Stimuli\ImageFiles-Set1\Bodies\Bodies_Standing_00003.png,0,0,0,47,47,47,,,,,,,,,,,,,35.01438419999977,0.014384199999767588,None,66.83332489999884,66.83332489999884,66.83332489999884,66.83332489999884,66.83332489999884,66.83332489999884,66.83332489999884,66.83332489999884,,003,P016,2025_Mar_07_1455,CategoryLocalizer,2021.2.3,59.971057967401194,
35.8,36.0,5,0.0,Stimuli\Blank.png,0,0,0,48,48,48,,,,,,,,,,,,,35.83031839999967,0.030318399999671897,None,67.6340186999987,67.6340186999987,67.6340186999987,67.6340186999987,67.6340186999987,67.6340186999987,67.6340186999987,67.6340186999987,,003,P016,2025_Mar_07_1455,CategoryLocalizer,2021.2.3,59.971057967401194,
36.0,36.8,2,0.75,Stimuli\ImageFiles-Set1\Bodies\Bodies_Waving_00001.png,0,0,0,49,49,49,,,,,,,,,,,,,36.01471390000006,0.014713900000060676,None,67.81750620000093,67.81750620000093,67.81750620000093,67.81750620000093,67.81750620000093,67.81750620000093,67.81750620000093,67.81750620000093,,003,P016,2025_Mar_07_1455,CategoryLocalizer,2021.2.3,59.971057967401194,
36.8,37.0,5,0.0,Stimuli\Blank.png,0,0,0,50,50,50,,,,,,,,,,,,,36.81439560000217,0.014395600002174547,None,68.61821810000038,68.61821810000038,68.61821810000038,68.61821810000038,68.61821810000038,68.61821810000038,68.61821810000038,68.61821810000038,,003,P016,2025_Mar_07_1455,CategoryLocalizer,2021.2.3,59.971057967401194,
37.0,37.8,2,0.75,Stimuli\ImageFiles-Set1\Bodies\Bodies_Pushing_00003.png,0,0,0,51,51,51,,,,,,,,,,,,,37.0152674000019,0.015267400001903297,None,68.81838870000138,68.81838870000138,68.81838870000138,68.81838870000138,68.81838870000138,68.81838870000138,68.81838870000138,68.81838870000138,,003,P016,2025_Mar_07_1455,CategoryLocalizer,2021.2.3,59.971057967401194,
37.8,38.0,5,0.0,Stimuli\Blank.png,0,0,0,52,52,52,,,,,,,,,,,,,37.79956500000117,-0.0004349999988306763,None,69.60241940000196,69.60241940000196,69.60241940000196,69.60241940000196,69.60241940000196,69.60241940000196,69.60241940000196,69.60241940000196,,003,P016,2025_Mar_07_1455,CategoryLocalizer,2021.2.3,59.971057967401194,
38.0,38.8,2,0.75,Stimuli\ImageFiles-Set1\Bodies\Bodies_QuadStretch_00003.png,1,1,0,53,53,53,,,,,,,,,,,,,38.00003760000254,3.760000254260376e-05,None,69.81931030000123,69.81931030000123,69.81931030000123,69.81931030000123,69.81931030000123,69.81931030000123,69.81931030000123,69.81931030000123,,003,P016,2025_Mar_07_1455,CategoryLocalizer,2021.2.3,59.971057967401194,
38.8,39.0,5,0.0,Stimuli\Blank.png,0,0,0,54,54,54,,,,,,,,,,,,,38.81879990000016,0.018799900000161074,None,70.63668659999894,70.63668659999894,70.63668659999894,70.63668659999894,70.63668659999894,70.63668659999894,70.63668659999894,70.63668659999894,,003,P016,2025_Mar_07_1455,CategoryLocalizer,2021.2.3,59.971057967401194,
39.0,39.8,2,0.75,Stimuli\ImageFiles-Set1\Bodies\Bodies_Kicking_00003.png,0,0,0,55,55,55,,,,,,,,,,,,,39.01709689999916,0.017096899999160087,None,70.8201685999993,70.8201685999993,70.8201685999993,70.8201685999993,70.8201685999993,70.8201685999993,70.8201685999993,70.8201685999993,,003,P016,2025_Mar_07_1455,CategoryLocalizer,2021.2.3,59.971057967401194,
39.8,40.0,5,0.0,Stimuli\Blank.png,0,0,0,56,56,56,,,,,,,,,,,,,39.80053459999908,0.0005345999990851169,None,71.60425369999939,71.60425369999939,71.60425369999939,71.60425369999939,71.60425369999939,71.60425369999939,71.60425369999939,71.60425369999939,,003,P016,2025_Mar_07_1455,CategoryLocalizer,2021.2.3,59.971057967401194,
40.0,40.8,2,0.75,Stimuli\ImageFiles-Set1\Bodies\Bodies_Kicking_00003.png,0,0,0,57,57,57,,,,,,,,,,,,,40.00072089999958,0.0007208999995782506,1,71.80433880000055,71.80433880000055,71.80433880000055,71.80433880000055,71.80433880000055,71.80433880000055,71.80433880000055,71.80433880000055,0.30022619999726885,003,P016,2025_Mar_07_1455,CategoryLocalizer,2021.2.3,59.971057967401194,
40.8,41.0,5,0.0,Stimuli\Blank.png,0,0,0,58,58,58,,,,,,,,,,,,,40.80240369999956,0.0024036999995615815,None,72.60509109999839,72.60509109999839,72.60509109999839,72.60509109999839,72.60509109999839,72.60509109999839,72.60509109999839,72.60509109999839,,003,P016,2025_Mar_07_1455,CategoryLocalizer,2021.2.3,59.971057967401194,
41.0,41.8,2,0.75,Stimuli\ImageFiles-Set1\Bodies\Bodies_QuadStretch_00005.png,0,0,0,59,59,59,,,,,,,,,,,,,41.003430100001424,0.0034301000014238525,None,72.8219347000013,72.8219347000013,72.8219347000013,72.8219347000013,72.8219347000013,72.8219347000013,72.8219347000013,72.8219347000013,,003,P016,2025_Mar_07_1455,CategoryLocalizer,2021.2.3,59.971057967401194,
41.8,42.0,5,0.0,Stimuli\Blank.png,0,0,0,60,60,60,,,,,,,,,,,,,41.82016790000125,0.02016790000125468,None,73.63937000000078,73.63937000000078,73.63937000000078,73.63937000000078,73.63937000000078,73.63937000000078,73.63937000000078,73.63937000000078,,003,P016,2025_Mar_07_1455,CategoryLocalizer,2021.2.3,59.971057967401194,
42.0,42.8,2,0.75,Stimuli\ImageFiles-Set1\Bodies\Bodies_Hanging_00002.png,0,0,0,61,61,61,,,,,,,,,,,,,42.01911480000126,0.019114800001261756,None,73.82287519999954,73.82287519999954,73.82287519999954,73.82287519999954,73.82287519999954,73.82287519999954,73.82287519999954,73.82287519999954,,003,P016,2025_Mar_07_1455,CategoryLocalizer,2021.2.3,59.971057967401194,
42.8,43.0,5,0.0,Stimuli\Blank.png,0,0,0,62,62,62,,,,,,,,,,,,,42.80305869999938,0.0030586999993857944,None,74.60691299999962,74.60691299999962,74.60691299999962,74.60691299999962,74.60691299999962,74.60691299999962,74.60691299999962,74.60691299999962,,003,P016,2025_Mar_07_1455,CategoryLocalizer,2021.2.3,59.971057967401194,
43.0,43.8,2,0.75,Stimuli\ImageFiles-Set1\Bodies\Bodies_Falling_00002.png,0,0,0,63,63,63,,,,,,,,,,,,,43.00445899999977,0.0044589999997697305,None,74.82373459999872,74.82373459999872,74.82373459999872,74.82373459999872,74.82373459999872,74.82373459999872,74.82373459999872,74.82373459999872,,003,P016,2025_Mar_07_1455,CategoryLocalizer,2021.2.3,59.971057967401194,
43.8,44.0,5,0.0,Stimuli\Blank.png,0,0,0,64,64,64,,,,,,,,,,,,,43.82084980000218,0.02084980000218195,None,75.62441409999883,75.62441409999883,75.62441409999883,75.62441409999883,75.62441409999883,75.62441409999883,75.62441409999883,75.62441409999883,,003,P016,2025_Mar_07_1455,CategoryLocalizer,2021.2.3,59.971057967401194,
44.0,44.8,3,0.75,Stimuli\ImageFiles-Set1\Faces\Face_00105.png,0,0,0,65,65,65,,,,,,,,,,,,,44.00439969999934,0.004399699999339646,None,75.8078714000003,75.8078714000003,75.8078714000003,75.8078714000003,75.8078714000003,75.8078714000003,75.8078714000003,75.8078714000003,,003,P016,2025_Mar_07_1455,CategoryLocalizer,2021.2.3,59.971057967401194,
44.8,45.0,5,0.0,Stimuli\Blank.png,0,0,0,66,66,66,,,,,,,,,,,,,44.80485430000044,0.004854300000445733,None,76.6086275000016,76.6086275000016,76.6086275000016,76.6086275000016,76.6086275000016,76.6086275000016,76.6086275000016,76.6086275000016,,003,P016,2025_Mar_07_1455,CategoryLocalizer,2021.2.3,59.971057967401194,
45.0,45.8,3,0.75,Stimuli\ImageFiles-Set1\Faces\Face_00093.png,0,0,0,67,67,67,,,,,,,,,,,,,45.005984600000374,0.005984600000374485,None,76.80879560000176,76.80879560000176,76.80879560000176,76.80879560000176,76.80879560000176,76.80879560000176,76.80879560000176,76.80879560000176,,003,P016,2025_Mar_07_1455,CategoryLocalizer,2021.2.3,59.971057967401194,
45.8,46.0,5,0.0,Stimuli\Blank.png,0,0,0,68,68,68,,,,,,,,,,,,,45.80711069999961,0.007110699999614667,None,77.60951399999976,77.60951399999976,77.60951399999976,77.60951399999976,77.60951399999976,77.60951399999976,77.60951399999976,77.60951399999976,,003,P016,2025_Mar_07_1455,CategoryLocalizer,2021.2.3,59.971057967401194,
46.0,46.8,3,0.75,Stimuli\ImageFiles-Set1\Faces\Face_00039.png,0,0,0,69,69,69,,,,,,,,,,,,,46.00632790000236,0.006327900002361275,None,77.80963690000135,77.80963690000135,77.80963690000135,77.80963690000135,77.80963690000135,77.80963690000135,77.80963690000135,77.80963690000135,,003,P016,2025_Mar_07_1455,CategoryLocalizer,2021.2.3,59.971057967401194,
46.8,47.0,5,0.0,Stimuli\Blank.png,0,0,0,70,70,70,,,,,,,,,,,,,46.80888659999982,0.008886599999826217,None,78.62707539999974,78.62707539999974,78.62707539999974,78.62707539999974,78.62707539999974,78.62707539999974,78.62707539999974,78.62707539999974,,003,P016,2025_Mar_07_1455,CategoryLocalizer,2021.2.3,59.971057967401194,
47.0,47.8,3,0.75,Stimuli\ImageFiles-Set1\Faces\Face_00079.png,0,0,0,71,71,71,,,,,,,,,,,,,47.02446190000046,0.024461900000460446,None,78.84392590000061,78.84392590000061,78.84392590000061,78.84392590000061,78.84392590000061,78.84392590000061,78.84392590000061,78.84392590000061,,003,P016,2025_Mar_07_1455,CategoryLocalizer,2021.2.3,59.971057967401194,
47.8,48.0,5,0.0,Stimuli\Blank.png,0,0,0,72,72,72,,,,,,,,,,,,,47.824742400000105,0.024742400000107523,None,79.62795990000086,79.62795990000086,79.62795990000086,79.62795990000086,79.62795990000086,79.62795990000086,79.62795990000086,79.62795990000086,,003,P016,2025_Mar_07_1455,CategoryLocalizer,2021.2.3,59.971057967401194,
48.0,48.8,3,0.75,Stimuli\ImageFiles-Set1\Faces\Face_00014.png,0,0,0,73,73,73,,,,,,,,,,,,,48.008260400001745,0.008260400001745438,None,79.82811330000186,79.82811330000186,79.82811330000186,79.82811330000186,79.82811330000186,79.82811330000186,79.82811330000186,79.82811330000186,,003,P016,2025_Mar_07_1455,CategoryLocalizer,2021.2.3,59.971057967401194,
48.8,49.0,5,0.0,Stimuli\Blank.png,0,0,0,74,74,74,,,,,,,,,,,,,48.82613490000222,0.026134900002219297,None,80.6288311999997,80.6288311999997,80.6288311999997,80.6288311999997,80.6288311999997,80.6288311999997,80.6288311999997,80.6288311999997,,003,P016,2025_Mar_07_1455,CategoryLocalizer,2021.2.3,59.971057967401194,
49.0,49.8,3,0.75,Stimuli\ImageFiles-Set1\Faces\Face_00027.png,0,0,0,75,75,75,,,,,,,,,,,,,49.01021849999961,0.010218499999609776,None,80.82902779999858,80.82902779999858,80.82902779999858,80.82902779999858,80.82902779999858,80.82902779999858,80.82902779999858,80.82902779999858,,003,P016,2025_Mar_07_1455,CategoryLocalizer,2021.2.3,59.971057967401194,
49.8,50.0,5,0.0,Stimuli\Blank.png,0,0,0,76,76,76,,,,,,,,,,,,,49.826013500001864,0.02601350000186642,None,81.62979489999998,81.62979489999998,81.62979489999998,81.62979489999998,81.62979489999998,81.62979489999998,81.62979489999998,81.62979489999998,,003,P016,2025_Mar_07_1455,CategoryLocalizer,2021.2.3,59.971057967401194,
50.0,50.8,3,0.75,Stimuli\ImageFiles-Set1\Faces\Face_00037.png,0,0,0,77,77,77,,,,,,,,,,,,,50.00957539999945,0.009575399999448564,None,81.81321699999899,81.81321699999899,81.81321699999899,81.81321699999899,81.81321699999899,81.81321699999899,81.81321699999899,81.81321699999899,,003,P016,2025_Mar_07_1455,CategoryLocalizer,2021.2.3,59.971057967401194,
50.8,51.0,5,0.0,Stimuli\Blank.png,0,0,0,78,78,78,,,,,,,,,,,,,50.810100099999545,0.010100099999547751,None,82.61392590000105,82.61392590000105,82.61392590000105,82.61392590000105,82.61392590000105,82.61392590000105,82.61392590000105,82.61392590000105,,003,P016,2025_Mar_07_1455,CategoryLocalizer,2021.2.3,59.971057967401194,
51.0,51.8,3,0.75,Stimuli\ImageFiles-Set1\Faces\Face_00069.png,0,0,0,79,79,79,,,,,,,,,,,,,51.01104860000123,0.011048600001231534,None,82.81409809999968,82.81409809999968,82.81409809999968,82.81409809999968,82.81409809999968,82.81409809999968,82.81409809999968,82.81409809999968,,003,P016,2025_Mar_07_1455,CategoryLocalizer,2021.2.3,59.971057967401194,
51.8,52.0,5,0.0,Stimuli\Blank.png,0,0,0,80,80,80,,,,,,,,,,,,,51.81183199999941,0.011831999999415643,None,83.61482719999913,83.61482719999913,83.61482719999913,83.61482719999913,83.61482719999913,83.61482719999913,83.61482719999913,83.61482719999913,,003,P016,2025_Mar_07_1455,CategoryLocalizer,2021.2.3,59.971057967401194,
52.0,52.8,3,0.75,Stimuli\ImageFiles-Set1\Faces\Face_00091.png,0,0,0,81,81,81,,,,,,,,,,,,,52.0136679999996,0.013667999999597669,None,83.83167360000152,83.83167360000152,83.83167360000152,83.83167360000152,83.83167360000152,83.83167360000152,83.83167360000152,83.83167360000152,,003,P016,2025_Mar_07_1455,CategoryLocalizer,2021.2.3,59.971057967401194,
52.8,53.0,5,0.0,Stimuli\Blank.png,0,0,0,82,82,82,,,,,,,,,,,,,52.82999900000141,0.029999000001410536,None,84.6323994000013,84.6323994000013,84.6323994000013,84.6323994000013,84.6323994000013,84.6323994000013,84.6323994000013,84.6323994000013,,003,P016,2025_Mar_07_1455,CategoryLocalizer,2021.2.3,59.971057967401194,
53.0,53.8,3,0.75,Stimuli\ImageFiles-Set1\Faces\Face_00031.png,0,0,0,83,83,83,,,,,,,,,,,,,53.0125005000009,0.012500500000896864,None,84.81586719999905,84.81586719999905,84.81586719999905,84.81586719999905,84.81586719999905,84.81586719999905,84.81586719999905,84.81586719999905,,003,P016,2025_Mar_07_1455,CategoryLocalizer,2021.2.3,59.971057967401194,
53.8,54.0,5,0.0,Stimuli\Blank.png,0,0,0,84,84,84,,,,,,,,,,,,,53.81338610000239,0.013386100002392709,None,85.61658869999883,85.61658869999883,85.61658869999883,85.61658869999883,85.61658869999883,85.61658869999883,85.61658869999883,85.61658869999883,,003,P016,2025_Mar_07_1455,CategoryLocalizer,2021.2.3,59.971057967401194,
54.0,54.8,3,0.75,Stimuli\ImageFiles-Set1\Faces\Face_00031.png,1,1,0,85,85,85,,,,,,,,,,,,,54.01384830000097,0.013848300000972813,1,85.81675719999839,85.81675719999839,85.81675719999839,85.81675719999839,85.81675719999839,85.81675719999839,85.81675719999839,85.81675719999839,0.44172379999872646,003,P016,2025_Mar_07_1455,CategoryLocalizer,2021.2.3,59.971057967401194,
54.8,55.0,5,0.0,Stimuli\Blank.png,0,0,0,86,86,86,,,,,,,,,,,,,54.81442529999913,0.014425299999132335,None,86.61746349999885,86.61746349999885,86.61746349999885,86.61746349999885,86.61746349999885,86.61746349999885,86.61746349999885,86.61746349999885,,003,P016,2025_Mar_07_1455,CategoryLocalizer,2021.2.3,59.971057967401194,
55.0,55.8,3,0.75,Stimuli\ImageFiles-Set1\Faces\Face_00051.png,0,0,0,87,87,87,,,,,,,,,,,,,55.014700300002005,0.014700300002004951,None,86.83434810000108,86.83434810000108,86.83434810000108,86.83434810000108,86.83434810000108,86.83434810000108,86.83434810000108,86.83434810000108,,003,P016,2025_Mar_07_1455,CategoryLocalizer,2021.2.3,59.971057967401194,
55.8,56.0,5,0.0,Stimuli\Blank.png,0,0,0,88,88,88,,,,,,,,,,,,,55.831244900000456,0.031244900000459097,None,87.63503610000043,87.63503610000043,87.63503610000043,87.63503610000043,87.63503610000043,87.63503610000043,87.63503610000043,87.63503610000043,,003,P016,2025_Mar_07_1455,CategoryLocalizer,2021.2.3,59.971057967401194,
56.0,56.8,3,0.75,Stimuli\ImageFiles-Set1\Faces\Face_00081.png,0,0,0,89,89,89,,,,,,,,,,,,,56.01491399999941,0.014913999999407679,None,87.83520670000144,87.83520670000144,87.83520670000144,87.83520670000144,87.83520670000144,87.83520670000144,87.83520670000144,87.83520670000144,,003,P016,2025_Mar_07_1455,CategoryLocalizer,2021.2.3,59.971057967401194,
56.8,57.0,5,0.0,Stimuli\Blank.png,0,0,0,90,90,90,,,,,,,,,,,,,56.833873600000516,0.03387360000051842,None,88.65263279999999,88.65263279999999,88.65263279999999,88.65263279999999,88.65263279999999,88.65263279999999,88.65263279999999,88.65263279999999,,003,P016,2025_Mar_07_1455,CategoryLocalizer,2021.2.3,59.971057967401194,
57.0,57.8,3,0.75,Stimuli\ImageFiles-Set1\Faces\Face_00018.png,0,0,0,91,91,91,,,,,,,,,,,,,57.01569759999984,0.01569759999983944,None,88.81941020000158,88.81941020000158,88.81941020000158,88.81941020000158,88.81941020000158,88.81941020000158,88.81941020000158,88.81941020000158,,003,P016,2025_Mar_07_1455,CategoryLocalizer,2021.2.3,59.971057967401194,
57.8,58.0,5,0.0,Stimuli\Blank.png,0,0,0,92,92,92,,,,,,,,,,,,,57.79965430000084,-0.0003456999991584553,None,89.60341120000157,89.60341120000157,89.60341120000157,89.60341120000157,89.60341120000157,89.60341120000157,89.60341120000157,89.60341120000157,,003,P016,2025_Mar_07_1455,CategoryLocalizer,2021.2.3,59.971057967401194,
58.0,58.8,3,0.75,Stimuli\ImageFiles-Set1\Faces\Face_00071.png,0,0,0,93,93,93,,,,,,,,,,,,,58.00001180000254,1.1800002539530396e-05,None,89.82029079999847,89.82029079999847,89.82029079999847,89.82029079999847,89.82029079999847,89.82029079999847,89.82029079999847,89.82029079999847,,003,P016,2025_Mar_07_1455,CategoryLocalizer,2021.2.3,59.971057967401194,
58.8,59.0,5,0.0,Stimuli\Blank.png,0,0,0,94,94,94,,,,,,,,,,,,,58.81797480000023,0.017974800000231994,None,90.62101360000088,90.62101360000088,90.62101360000088,90.62101360000088,90.62101360000088,90.62101360000088,90.62101360000088,90.62101360000088,,003,P016,2025_Mar_07_1455,CategoryLocalizer,2021.2.3,59.971057967401194,
59.0,59.8,3,0.75,Stimuli\ImageFiles-Set1\Faces\Face_00033.png,0,0,0,95,95,95,,,,,,,,,,,,,59.003529600002366,0.003529600002366351,None,90.82118640000044,90.82118640000044,90.82118640000044,90.82118640000044,90.82118640000044,90.82118640000044,90.82118640000044,90.82118640000044,,003,P016,2025_Mar_07_1455,CategoryLocalizer,2021.2.3,59.971057967401194,
59.8,60.0,5,0.0,Stimuli\Blank.png,0,0,0,96,96,96,,,,,,,,,,,,,59.818460099999356,0.01846009999935916,None,91.62188379999861,91.62188379999861,91.62188379999861,91.62188379999861,91.62188379999861,91.62188379999861,91.62188379999861,91.62188379999861,,003,P016,2025_Mar_07_1455,CategoryLocalizer,2021.2.3,59.971057967401194,
60.0,60.8,4,0.75,Stimuli\ImageFiles-Set1\Scenes\Scenes_008.png,0,0,0,97,97,97,,,,,,,,,,,,,60.00384800000029,0.0038480000002891757,None,91.82206370000131,91.82206370000131,91.82206370000131,91.82206370000131,91.82206370000131,91.82206370000131,91.82206370000131,91.82206370000131,,003,P016,2025_Mar_07_1455,CategoryLocalizer,2021.2.3,59.971057967401194,
60.8,61.0,5,0.0,Stimuli\Blank.png,0,0,0,98,98,98,,,,,,,,,,,,,60.81957809999949,0.019578099999492338,None,92.62278270000024,92.62278270000024,92.62278270000024,92.62278270000024,92.62278270000024,92.62278270000024,92.62278270000024,92.62278270000024,,003,P016,2025_Mar_07_1455,CategoryLocalizer,2021.2.3,59.971057967401194,
61.0,61.8,4,0.75,Stimuli\ImageFiles-Set1\Scenes\Scenes_026.png,0,0,0,99,99,99,,,,,,,,,,,,,61.00310800000079,0.003108000000793254,None,92.82294819999879,92.82294819999879,92.82294819999879,92.82294819999879,92.82294819999879,92.82294819999879,92.82294819999879,92.82294819999879,,003,P016,2025_Mar_07_1455,CategoryLocalizer,2021.2.3,59.971057967401194,
61.8,62.0,5,0.0,Stimuli\Blank.png,0,0,0,100,100,100,,,,,,,,,,,,,61.82043490000069,0.020434900000694256,None,93.62367290000111,93.62367290000111,93.62367290000111,93.62367290000111,93.62367290000111,93.62367290000111,93.62367290000111,93.62367290000111,,003,P016,2025_Mar_07_1455,CategoryLocalizer,2021.2.3,59.971057967401194,
62.0,62.8,4,0.75,Stimuli\ImageFiles-Set1\Scenes\Scenes_053.png,0,0,0,101,101,101,,,,,,,,,,,,,62.003394899998966,0.003394899998966139,None,93.8238319000011,93.8238319000011,93.8238319000011,93.8238319000011,93.8238319000011,93.8238319000011,93.8238319000011,93.8238319000011,,003,P016,2025_Mar_07_1455,CategoryLocalizer,2021.2.3,59.971057967401194,
62.8,63.0,5,0.0,Stimuli\Blank.png,0,0,0,102,102,102,,,,,,,,,,,,,62.821907600002305,0.02190760000230796,None,94.62455549999868,94.62455549999868,94.62455549999868,94.62455549999868,94.62455549999868,94.62455549999868,94.62455549999868,94.62455549999868,,003,P016,2025_Mar_07_1455,CategoryLocalizer,2021.2.3,59.971057967401194,
63.0,63.8,4,0.75,Stimuli\ImageFiles-Set1\Scenes\Scenes_041.png,0,0,0,103,103,103,,,,,,,,,,,,,63.0043055999995,0.004305599999497645,None,94.82471960000112,94.82471960000112,94.82471960000112,94.82471960000112,94.82471960000112,94.82471960000112,94.82471960000112,94.82471960000112,,003,P016,2025_Mar_07_1455,CategoryLocalizer,2021.2.3,59.971057967401194,
63.8,64.0,5,0.0,Stimuli\Blank.png,0,0,0,104,104,104,,,,,,,,,,,,,63.821553500001755,0.021553500001758152,None,95.62546130000192,95.62546130000192,95.62546130000192,95.62546130000192,95.62546130000192,95.62546130000192,95.62546130000192,95.62546130000192,,003,P016,2025_Mar_07_1455,CategoryLocalizer,2021.2.3,59.971057967401194,
64.0,64.8,4,0.75,Stimuli\ImageFiles-Set1\Scenes\Scenes_060.png,0,0,0,105,105,105,,,,,,,,,,,,,64.00610099999903,0.006100999999034684,None,95.82562049999979,95.82562049999979,95.82562049999979,95.82562049999979,95.82562049999979,95.82562049999979,95.82562049999979,95.82562049999979,,003,P016,2025_Mar_07_1455,CategoryLocalizer,2021.2.3,59.971057967401194,
64.8,65.0,5,0.0,Stimuli\Blank.png,0,0,0,106,106,106,,,,,,,,,,,,,64.82339839999986,0.023398399999862818,None,96.6263128999999,96.6263128999999,96.6263128999999,96.6263128999999,96.6263128999999,96.6263128999999,96.6263128999999,96.6263128999999,,003,P016,2025_Mar_07_1455,CategoryLocalizer,2021.2.3,59.971057967401194,
65.0,65.8,4,0.75,Stimuli\ImageFiles-Set1\Scenes\Scenes_052.png,0,0,0,107,107,107,,,,,,,,,,,,,65.0066986999991,0.006698699999105884,None,96.80980700000146,96.80980700000146,96.80980700000146,96.80980700000146,96.80980700000146,96.80980700000146,96.80980700000146,96.80980700000146,,003,P016,2025_Mar_07_1455,CategoryLocalizer,2021.2.3,59.971057967401194,
65.8,66.0,5,0.0,Stimuli\Blank.png,0,0,0,108,108,108,,,,,,,,,,,,,65.80668499999956,0.006684999999563956,None,97.61051790000056,97.61051790000056,97.61051790000056,97.61051790000056,97.61051790000056,97.61051790000056,97.61051790000056,97.61051790000056,,003,P016,2025_Mar_07_1455,CategoryLocalizer,2021.2.3,59.971057967401194,
66.0,66.8,4,0.75,Stimuli\ImageFiles-Set1\Scenes\Scenes_005.png,0,0,0,109,109,109,,,,,,,,,,,,,66.00748260000182,0.007482600001821993,None,97.81065619999936,97.81065619999936,97.81065619999936,97.81065619999936,97.81065619999936,97.81065619999936,97.81065619999936,97.81065619999936,,003,P016,2025_Mar_07_1455,CategoryLocalizer,2021.2.3,59.971057967401194,
66.8,67.0,5,0.0,Stimuli\Blank.png,0,0,0,110,110,110,,,,,,,,,,,,,66.80849719999969,0.008497199999695226,None,98.61140700000033,98.61140700000033,98.61140700000033,98.61140700000033,98.61140700000033,98.61140700000033,98.61140700000033,98.61140700000033,,003,P016,2025_Mar_07_1455,CategoryLocalizer,2021.2.3,59.971057967401194,
67.0,67.8,4,0.75,Stimuli\ImageFiles-Set1\Scenes\Scenes_019.png,0,0,0,111,111,111,,,,,,,,,,,,,67.00837759999922,0.008377599999221275,None,98.8282634999996,98.8282634999996,98.8282634999996,98.8282634999996,98.8282634999996,98.8282634999996,98.8282634999996,98.8282634999996,,003,P016,2025_Mar_07_1455,CategoryLocalizer,2021.2.3,59.971057967401194,
67.8,68.0,5,0.0,Stimuli\Blank.png,0,0,0,112,112,112,,,,,,,,,,,,,67.82619460000205,0.0261946000020572,None,99.6291659999988,99.6291659999988,99.6291659999988,99.6291659999988,99.6291659999988,99.6291659999988,99.6291659999988,99.6291659999988,,003,P016,2025_Mar_07_1455,CategoryLocalizer,2021.2.3,59.971057967401194,
68.0,68.8,4,0.75,Stimuli\ImageFiles-Set1\Scenes\Scenes_016.png,0,0,0,113,113,113,,,,,,,,,,,,,68.00926400000026,0.00926400000025751,None,99.82918900000004,99.82918900000004,99.82918900000004,99.82918900000004,99.82918900000004,99.82918900000004,99.82918900000004,99.82918900000004,,003,P016,2025_Mar_07_1455,CategoryLocalizer,2021.2.3,59.971057967401194,
68.8,69.0,5,0.0,Stimuli\Blank.png,0,0,0,114,114,114,,,,,,,,,,,,,68.82674620000034,0.02674620000034622,None,100.62986710000041,100.62986710000041,100.62986710000041,100.62986710000041,100.62986710000041,100.62986710000041,100.62986710000041,100.62986710000041,,003,P016,2025_Mar_07_1455,CategoryLocalizer,2021.2.3,59.971057967401194,
69.0,69.8,4,0.75,Stimuli\ImageFiles-Set1\Scenes\Scenes_038.png,0,0,0,115,115,115,,,,,,,,,,,,,69.00964210000166,0.009642100001656218,None,100.83006720000049,100.83006720000049,100.83006720000049,100.83006720000049,100.83006720000049,100.83006720000049,100.83006720000049,100.83006720000049,,003,P016,2025_Mar_07_1455,CategoryLocalizer,2021.2.3,59.971057967401194,
69.8,70.0,5,0.0,Stimuli\Blank.png,0,0,0,116,116,116,,,,,,,,,,,,,69.82966900000247,0.02966900000247108,None,101.64743090000047,101.64743090000047,101.64743090000047,101.64743090000047,101.64743090000047,101.64743090000047,101.64743090000047,101.64743090000047,,003,P016,2025_Mar_07_1455,CategoryLocalizer,2021.2.3,59.971057967401194,
70.0,70.8,4,0.75,Stimuli\ImageFiles-Set1\Scenes\Scenes_030.png,0,0,0,117,117,117,,,,,,,,,,,,,70.02882709999903,0.028827099999034544,None,101.84758420000071,101.84758420000071,101.84758420000071,101.84758420000071,101.84758420000071,101.84758420000071,101.84758420000071,101.84758420000071,,003,P016,2025_Mar_07_1455,CategoryLocalizer,2021.2.3,59.971057967401194,
70.8,71.0,5,0.0,Stimuli\Blank.png,0,0,0,118,118,118,,,,,,,,,,,,,70.82841589999953,0.02841589999952987,None,102.63162419999935,102.63162419999935,102.63162419999935,102.63162419999935,102.63162419999935,102.63162419999935,102.63162419999935,102.63162419999935,,003,P016,2025_Mar_07_1455,CategoryLocalizer,2021.2.3,59.971057967401194,
71.0,71.8,4,0.75,Stimuli\ImageFiles-Set1\Scenes\Scenes_030.png,1,1,0,119,119,119,,,,,,,,,,,,,71.01355610000246,0.01355610000246088,1,102.83180780000112,102.83180780000112,102.83180780000112,102.83180780000112,102.83180780000112,102.83180780000112,102.83180780000112,102.83180780000112,0.29662930000267806,003,P016,2025_Mar_07_1455,CategoryLocalizer,2021.2.3,59.971057967401194,
71.8,72.0,5,0.0,Stimuli\Blank.png,0,0,0,120,120,120,,,,,,,,,,,,,71.82965960000001,0.02965960000001644,None,103.6325199999992,103.6325199999992,103.6325199999992,103.6325199999992,103.6325199999992,103.6325199999992,103.6325199999992,103.6325199999992,,003,P016,2025_Mar_07_1455,CategoryLocalizer,2021.2.3,59.971057967401194,
72.0,72.8,4,0.75,Stimuli\ImageFiles-Set1\Scenes\Scenes_022.png,0,0,0,121,121,121,,,,,,,,,,,,,72.01262069999939,0.012620699999388307,None,103.81599370000185,103.81599370000185,103.81599370000185,103.81599370000185,103.81599370000185,103.81599370000185,103.81599370000185,103.81599370000185,,003,P016,2025_Mar_07_1455,CategoryLocalizer,2021.2.3,59.971057967401194,
72.8,73.0,5,0.0,Stimuli\Blank.png,0,0,0,122,122,122,,,,,,,,,,,,,72.81380460000219,0.01380460000218875,None,104.61672259999978,104.61672259999978,104.61672259999978,104.61672259999978,104.61672259999978,104.61672259999978,104.61672259999978,104.61672259999978,,003,P016,2025_Mar_07_1455,CategoryLocalizer,2021.2.3,59.971057967401194,
73.0,73.8,4,0.75,Stimuli\ImageFiles-Set1\Scenes\Scenes_057.png,0,0,0,123,123,123,,,,,,,,,,,,,73.01362940000035,0.013629400000354508,None,104.81687900000179,104.81687900000179,104.81687900000179,104.81687900000179,104.81687900000179,104.81687900000179,104.81687900000179,104.81687900000179,,003,P016,2025_Mar_07_1455,CategoryLocalizer,2021.2.3,59.971057967401194,
73.8,74.0,5,0.0,Stimuli\Blank.png,0,0,0,124,124,124,,,,,,,,,,,,,73.81435839999904,0.014358399999039761,None,105.61758539999937,105.61758539999937,105.61758539999937,105.61758539999937,105.61758539999937,105.61758539999937,105.61758539999937,105.61758539999937,,003,P016,2025_Mar_07_1455,CategoryLocalizer,2021.2.3,59.971057967401194,
74.0,74.8,4,0.75,Stimuli\ImageFiles-Set1\Scenes\Scenes_021.png,0,0,0,125,125,125,,,,,,,,,,,,,74.01534249999895,0.015342499998951098,None,105.83445049999864,105.83445049999864,105.83445049999864,105.83445049999864,105.83445049999864,105.83445049999864,105.83445049999864,105.83445049999864,,003,P016,2025_Mar_07_1455,CategoryLocalizer,2021.2.3,59.971057967401194,
74.8,75.0,5,0.0,Stimuli\Blank.png,0,0,0,126,126,126,,,,,,,,,,,,,74.81463760000042,0.014637600000426687,None,106.6184729000015,106.6184729000015,106.6184729000015,106.6184729000015,106.6184729000015,106.6184729000015,106.6184729000015,106.6184729000015,,003,P016,2025_Mar_07_1455,CategoryLocalizer,2021.2.3,59.971057967401194,
75.0,75.8,4,0.75,Stimuli\ImageFiles-Set1\Scenes\Scenes_013.png,0,0,0,127,127,127,,,,,,,,,,,,,75.01552780000202,0.015527800002018921,None,106.81864629999836,106.81864629999836,106.81864629999836,106.81864629999836,106.81864629999836,106.81864629999836,106.81864629999836,106.81864629999836,,003,P016,2025_Mar_07_1455,CategoryLocalizer,2021.2.3,59.971057967401194,
75.8,76.0,5,0.0,Stimuli\Blank.png,0,0,0,128,128,128,,,,,,,,,,,,,75.79978309999933,-0.00021690000066598714,None,107.6026720000009,107.6026720000009,107.6026720000009,107.6026720000009,107.6026720000009,107.6026720000009,107.6026720000009,107.6026720000009,,003,P016,2025_Mar_07_1455,CategoryLocalizer,2021.2.3,59.971057967401194,
76.0,88.0,0,0.0,Stimuli\Blank.png,0,0,0,129,129,129,,,,,,,,,,,,,75.99922069999957,-0.0007793000004312489,None,107.80282689999876,107.80282689999876,107.80282689999876,107.80282689999876,107.80282689999876,107.80282689999876,107.80282689999876,107.80282689999876,,003,P016,2025_Mar_07_1455,CategoryLocalizer,2021.2.3,59.971057967401194,
88.0,88.8,3,0.75,Stimuli\ImageFiles-Set1\Faces\Face_00083.png,0,0,0,130,130,130,,,,,,,,,,,,,88.00993460000245,0.009934600002452498,1,119.83015290000185,119.83015290000185,119.83015290000185,119.83015290000185,119.83015290000185,119.83015290000185,119.83015290000185,119.83015290000185,0.4162999000000127,003,P016,2025_Mar_07_1455,CategoryLocalizer,2021.2.3,59.971057967401194,
88.8,89.0,5,0.0,Stimuli\Blank.png,0,0,0,131,131,131,,,,,,,,,,,,,88.82970639999985,0.029706399999852806,None,120.64756130000023,120.64756130000023,120.64756130000023,120.64756130000023,120.64756130000023,120.64756130000023,120.64756130000023,120.64756130000023,,003,P016,2025_Mar_07_1455,CategoryLocalizer,2021.2.3,59.971057967401194,
89.0,89.8,3,0.75,Stimuli\ImageFiles-Set1\Faces\Face_00111.png,0,0,0,132,132,132,,,,,,,,,,,,,89.02886360000048,0.028863600000477163,None,120.84771980000005,120.84771980000005,120.84771980000005,120.84771980000005,120.84771980000005,120.84771980000005,120.84771980000005,120.84771980000005,,003,P016,2025_Mar_07_1455,CategoryLocalizer,2021.2.3,59.971057967401194,
89.8,90.0,5,0.0,Stimuli\Blank.png,0,0,0,133,133,133,,,,,,,,,,,,,89.82929480000166,0.029294800001665067,None,121.63176509999903,121.63176509999903,121.63176509999903,121.63176509999903,121.63176509999903,121.63176509999903,121.63176509999903,121.63176509999903,,003,P016,2025_Mar_07_1455,CategoryLocalizer,2021.2.3,59.971057967401194,
90.0,90.8,3,0.75,Stimuli\ImageFiles-Set1\Faces\Face_00035.png,0,0,0,134,134,134,,,,,,,,,,,,,90.01242339999953,0.012423399999534013,None,121.83191879999868,121.83191879999868,121.83191879999868,121.83191879999868,121.83191879999868,121.83191879999868,121.83191879999868,121.83191879999868,,003,P016,2025_Mar_07_1455,CategoryLocalizer,2021.2.3,59.971057967401194,
90.8,91.0,5,0.0,Stimuli\Blank.png,0,0,0,135,135,135,,,,,,,,,,,,,90.83095120000144,0.03095120000143936,None,122.64936410000155,122.64936410000155,122.64936410000155,122.64936410000155,122.64936410000155,122.64936410000155,122.64936410000155,122.64936410000155,,003,P016,2025_Mar_07_1455,CategoryLocalizer,2021.2.3,59.971057967401194,
91.0,91.8,3,0.75,Stimuli\ImageFiles-Set1\Faces\Face_00067.png,0,0,0,136,136,136,,,,,,,,,,,,,91.03010630000063,0.030106300000625197,None,122.84948879999865,122.84948879999865,122.84948879999865,122.84948879999865,122.84948879999865,122.84948879999865,122.84948879999865,122.84948879999865,,003,P016,2025_Mar_07_1455,CategoryLocalizer,2021.2.3,59.971057967401194,
91.8,92.0,5,0.0,Stimuli\Blank.png,0,0,0,137,137,137,,,,,,,,,,,,,91.82992670000021,0.029926700000217465,None,123.63359700000001,123.63359700000001,123.63359700000001,123.63359700000001,123.63359700000001,123.63359700000001,123.63359700000001,123.63359700000001,,003,P016,2025_Mar_07_1455,CategoryLocalizer,2021.2.3,59.971057967401194,
92.0,92.8,3,0.75,Stimuli\ImageFiles-Set1\Faces\Face_00022.png,0,0,0,138,138,138,,,,,,,,,,,,,92.01371500000096,0.013715000000956934,None,123.81701049999901,123.81701049999901,123.81701049999901,123.81701049999901,123.81701049999901,123.81701049999901,123.81701049999901,123.81701049999901,,003,P016,2025_Mar_07_1455,CategoryLocalizer,2021.2.3,59.971057967401194,
92.8,93.0,5,0.0,Stimuli\Blank.png,0,0,0,139,139,139,,,,,,,,,,,,,92.81445720000193,0.014457200001928072,None,124.61771769999905,124.61771769999905,124.61771769999905,124.61771769999905,124.61771769999905,124.61771769999905,124.61771769999905,124.61771769999905,,003,P016,2025_Mar_07_1455,CategoryLocalizer,2021.2.3,59.971057967401194,
93.0,93.8,3,0.75,Stimuli\ImageFiles-Set1\Faces\Face_00016.png,0,0,0,140,140,140,,,,,,,,,,,,,93.01475579999897,0.014755799998965813,None,124.8346046000006,124.8346046000006,124.8346046000006,124.8346046000006,124.8346046000006,124.8346046000006,124.8346046000006,124.8346046000006,,003,P016,2025_Mar_07_1455,CategoryLocalizer,2021.2.3,59.971057967401194,
93.8,94.0,5,0.0,Stimuli\Blank.png,0,0,0,141,141,141,,,,,,,,,,,,,93.83216040000116,0.03216040000116038,None,125.63532599999962,125.63532599999962,125.63532599999962,125.63532599999962,125.63532599999962,125.63532599999962,125.63532599999962,125.63532599999962,,003,P016,2025_Mar_07_1455,CategoryLocalizer,2021.2.3,59.971057967401194,
94.0,94.8,3,0.75,Stimuli\ImageFiles-Set1\Faces\Face_00065.png,0,0,0,142,142,142,,,,,,,,,,,,,94.01500060000035,0.01500060000034864,None,125.81878119999965,125.81878119999965,125.81878119999965,125.81878119999965,125.81878119999965,125.81878119999965,125.81878119999965,125.81878119999965,,003,P016,2025_Mar_07_1455,CategoryLocalizer,2021.2.3,59.971057967401194,
94.8,95.0,5,0.0,Stimuli\Blank.png,0,0,0,143,143,143,,,,,,,,,,,,,94.79970870000034,-0.00029129999965959996,None,126.60280039999998,126.60280039999998,126.60280039999998,126.60280039999998,126.60280039999998,126.60280039999998,126.60280039999998,126.60280039999998,,003,P016,2025_Mar_07_1455,CategoryLocalizer,2021.2.3,59.971057967401194,
95.0,95.8,3,0.75,Stimuli\ImageFiles-Set1\Faces\Face_00012.png,0,0,0,144,144,144,,,,,,,,,,,,,94.99939040000027,-0.0006095999997342005,None,126.81968910000069,126.81968910000069,126.81968910000069,126.81968910000069,126.81968910000069,126.81968910000069,126.81968910000069,126.81968910000069,,003,P016,2025_Mar_07_1455,CategoryLocalizer,2021.2.3,59.971057967401194,
95.8,96.0,5,0.0,Stimuli\Blank.png,0,0,0,145,145,145,,,,,,,,,,,,,95.81851129999995,0.018511299999957487,None,127.63706440000169,127.63706440000169,127.63706440000169,127.63706440000169,127.63706440000169,127.63706440000169,127.63706440000169,127.63706440000169,,003,P016,2025_Mar_07_1455,CategoryLocalizer,2021.2.3,59.971057967401194,
96.0,96.8,3,0.75,Stimuli\ImageFiles-Set1\Faces\Face_00089.png,0,0,0,146,146,146,,,,,,,,,,,,,96.01838080000016,0.01838080000015907,None,127.83722649999982,127.83722649999982,127.83722649999982,127.83722649999982,127.83722649999982,127.83722649999982,127.83722649999982,127.83722649999982,,003,P016,2025_Mar_07_1455,CategoryLocalizer,2021.2.3,59.971057967401194,
96.8,97.0,5,0.0,Stimuli\Blank.png,0,0,0,147,147,147,,,,,,,,,,,,,96.81852690000233,0.01852690000232826,None,128.6212712000015,128.6212712000015,128.6212712000015,128.6212712000015,128.6212712000015,128.6212712000015,128.6212712000015,128.6212712000015,,003,P016,2025_Mar_07_1455,CategoryLocalizer,2021.2.3,59.971057967401194,
97.0,97.8,3,0.75,Stimuli\ImageFiles-Set1\Faces\Face_00024.png,0,0,0,148,148,148,,,,,,,,,,,,,97.00365600000077,0.003656000000773929,None,128.82144139999946,128.82144139999946,128.82144139999946,128.82144139999946,128.82144139999946,128.82144139999946,128.82144139999946,128.82144139999946,,003,P016,2025_Mar_07_1455,CategoryLocalizer,2021.2.3,59.971057967401194,
97.8,98.0,5,0.0,Stimuli\Blank.png,0,0,0,149,149,149,,,,,,,,,,,,,97.8195850000011,0.01958500000110064,None,129.62214279999898,129.62214279999898,129.62214279999898,129.62214279999898,129.62214279999898,129.62214279999898,129.62214279999898,129.62214279999898,,003,P016,2025_Mar_07_1455,CategoryLocalizer,2021.2.3,59.971057967401194,
98.0,98.8,3,0.75,Stimuli\ImageFiles-Set1\Faces\Face_00097.png,0,0,0,150,150,150,,,,,,,,,,,,,98.00363300000026,0.0036330000002635643,None,129.82232179999846,129.82232179999846,129.82232179999846,129.82232179999846,129.82232179999846,129.82232179999846,129.82232179999846,129.82232179999846,,003,P016,2025_Mar_07_1455,CategoryLocalizer,2021.2.3,59.971057967401194,
98.8,99.0,5,0.0,Stimuli\Blank.png,0,0,0,151,151,151,,,,,,,,,,,,,98.81977280000137,0.019772800001376822,None,130.62302529999943,130.62302529999943,130.62302529999943,130.62302529999943,130.62302529999943,130.62302529999943,130.62302529999943,130.62302529999943,,003,P016,2025_Mar_07_1455,CategoryLocalizer,2021.2.3,59.971057967401194,
99.0,99.8,3,0.75,Stimuli\ImageFiles-Set1\Faces\Face_00097.png,1,1,0,152,152,152,,,,,,,,,,,,,99.00351629999932,0.003516299999319017,1,130.82320600000094,130.82320600000094,130.82320600000094,130.82320600000094,130.82320600000094,130.82320600000094,130.82320600000094,130.82320600000094,0.4243425999993633,003,P016,2025_Mar_07_1455,CategoryLocalizer,2021.2.3,59.971057967401194,
99.8,100.0,5,0.0,Stimuli\Blank.png,0,0,0,153,153,153,,,,,,,,,,,,,99.82079359999989,0.020793599999890944,None,131.62392069999987,131.62392069999987,131.62392069999987,131.62392069999987,131.62392069999987,131.62392069999987,131.62392069999987,131.62392069999987,,003,P016,2025_Mar_07_1455,CategoryLocalizer,2021.2.3,59.971057967401194,
100.0,100.8,3,0.75,Stimuli\ImageFiles-Set1\Faces\Face_00043.png,0,0,0,154,154,154,,,,,,,,,,,,,100.00358839999899,0.003588399998989189,None,131.80736900000193,131.80736900000193,131.80736900000193,131.80736900000193,131.80736900000193,131.80736900000193,131.80736900000193,131.80736900000193,,003,P016,2025_Mar_07_1455,CategoryLocalizer,2021.2.3,59.971057967401194,
100.8,101.0,5,0.0,Stimuli\Blank.png,0,0,0,155,155,155,,,,,,,,,,,,,100.80507349999971,0.005073499999710407,None,132.6081129000013,132.6081129000013,132.6081129000013,132.6081129000013,132.6081129000013,132.6081129000013,132.6081129000013,132.6081129000013,,003,P016,2025_Mar_07_1455,CategoryLocalizer,2021.2.3,59.971057967401194,
101.0,101.8,3,0.75,Stimuli\ImageFiles-Set1\Faces\Face_00057.png,0,0,0,156,156,156,,,,,,,,,,,,,101.00643259999924,0.0064325999992433935,None,132.82497290000174,132.82497290000174,132.82497290000174,132.82497290000174,132.82497290000174,132.82497290000174,132.82497290000174,132.82497290000174,,003,P016,2025_Mar_07_1455,CategoryLocalizer,2021.2.3,59.971057967401194,
101.8,102.0,5,0.0,Stimuli\Blank.png,0,0,0,157,157,157,,,,,,,,,,,,,101.82377120000092,0.023771200000922477,None,133.6423715000019,133.6423715000019,133.6423715000019,133.6423715000019,133.6423715000019,133.6423715000019,133.6423715000019,133.6423715000019,,003,P016,2025_Mar_07_1455,CategoryLocalizer,2021.2.3,59.971057967401194,
102.0,102.8,3,0.75,Stimuli\ImageFiles-Set1\Faces\Face_00009.png,0,0,0,158,158,158,,,,,,,,,,,,,102.02200580000135,0.022005800001352327,None,133.82586209999863,133.82586209999863,133.82586209999863,133.82586209999863,133.82586209999863,133.82586209999863,133.82586209999863,133.82586209999863,,003,P016,2025_Mar_07_1455,CategoryLocalizer,2021.2.3,59.971057967401194,
102.8,103.0,5,0.0,Stimuli\Blank.png,0,0,0,159,159,159,,,,,,,,,,,,,102.80680530000245,0.006805300002454828,None,134.60989759999939,134.60989759999939,134.60989759999939,134.60989759999939,134.60989759999939,134.60989759999939,134.60989759999939,134.60989759999939,,003,P016,2025_Mar_07_1455,CategoryLocalizer,2021.2.3,59.971057967401194,
103.0,103.8,3,0.75,Stimuli\ImageFiles-Set1\Faces\Face_00077.png,0,0,0,160,160,160,,,,,,,,,,,,,103.00883650000105,0.008836500001052627,None,134.8267436999995,134.8267436999995,134.8267436999995,134.8267436999995,134.8267436999995,134.8267436999995,134.8267436999995,134.8267436999995,,003,P016,2025_Mar_07_1455,CategoryLocalizer,2021.2.3,59.971057967401194,
103.8,104.0,5,0.0,Stimuli\Blank.png,0,0,0,161,161,161,,,,,,,,,,,,,103.82439270000032,0.024392700000319678,None,135.62745269999868,135.62745269999868,135.62745269999868,135.62745269999868,135.62745269999868,135.62745269999868,135.62745269999868,135.62745269999868,,003,P016,2025_Mar_07_1455,CategoryLocalizer,2021.2.3,59.971057967401194,
104.0,104.8,1,0.75,Stimuli\ImageFiles-Set1\Objects\Object_Glasses_00001.png,0,0,0,162,162,162,,,,,,,,,,,,,104.00907160000133,0.009071600001334446,None,135.82845180000004,135.82845180000004,135.82845180000004,135.82845180000004,135.82845180000004,135.82845180000004,135.82845180000004,135.82845180000004,,003,P016,2025_Mar_07_1455,CategoryLocalizer,2021.2.3,59.971057967401194,
104.8,105.0,5,0.0,Stimuli\Blank.png,0,0,0,163,163,163,,,,,,,,,,,,,104.82489720000012,0.024897200000125963,None,136.62833279999904,136.62833279999904,136.62833279999904,136.62833279999904,136.62833279999904,136.62833279999904,136.62833279999904,136.62833279999904,,003,P016,2025_Mar_07_1455,CategoryLocalizer,2021.2.3,59.971057967401194,
105.0,105.8,1,0.75,Stimuli\ImageFiles-Set1\Objects\Object_Box_00001.png,0,0,0,164,164,164,,,,,,,,,,,,,105.00922569999966,0.00922569999966072,None,136.82851400000072,136.82851400000072,136.82851400000072,136.82851400000072,136.82851400000072,136.82851400000072,136.82851400000072,136.82851400000072,,003,P016,2025_Mar_07_1455,CategoryLocalizer,2021.2.3,59.971057967401194,
105.8,106.0,5,0.0,Stimuli\Blank.png,0,0,0,165,165,165,,,,,,,,,,,,,105.82555720000164,0.025557200001642855,None,137.62921500000084,137.62921500000084,137.62921500000084,137.62921500000084,137.62921500000084,137.62921500000084,137.62921500000084,137.62921500000084,,003,P016,2025_Mar_07_1455,CategoryLocalizer,2021.2.3,59.971057967401194,
106.0,106.8,1,0.75,Stimuli\ImageFiles-Set1\Objects\Object_Key_00001.png,0,0,0,166,166,166,,,,,,,,,,,,,106.00967669999955,0.009676699999545235,None,137.8127190999985,137.8127190999985,137.8127190999985,137.8127190999985,137.8127190999985,137.8127190999985,137.8127190999985,137.8127190999985,,003,P016,2025_Mar_07_1455,CategoryLocalizer,2021.2.3,59.971057967401194,
106.8,107.0,5,0.0,Stimuli\Blank.png,0,0,0,167,167,167,,,,,,,,,,,,,106.80971330000102,0.00971330000102455,None,138.61342530000184,138.61342530000184,138.61342530000184,138.61342530000184,138.61342530000184,138.61342530000184,138.61342530000184,138.61342530000184,,003,P016,2025_Mar_07_1455,CategoryLocalizer,2021.2.3,59.971057967401194,
107.0,107.8,1,0.75,Stimuli\ImageFiles-Set1\Objects\Object_Highchair_00001.png,0,0,0,168,168,168,,,,,,,,,,,,,107.01038719999997,0.010387199999968288,None,138.81359890000022,138.81359890000022,138.81359890000022,138.81359890000022,138.81359890000022,138.81359890000022,138.81359890000022,138.81359890000022,,003,P016,2025_Mar_07_1455,CategoryLocalizer,2021.2.3,59.971057967401194,
107.8,108.0,5,0.0,Stimuli\Blank.png,0,0,0,169,169,169,,,,,,,,,,,,,107.81136600000173,0.011366000001729049,None,139.61430269999983,139.61430269999983,139.61430269999983,139.61430269999983,139.61430269999983,139.61430269999983,139.61430269999983,139.61430269999983,,003,P016,2025_Mar_07_1455,CategoryLocalizer,2021.2.3,59.971057967401194,
108.0,108.8,1,0.75,Stimuli\ImageFiles-Set1\Objects\Object_Banana_00001.png,0,0,0,170,170,170,,,,,,,,,,,,,108.01145090000136,0.011450900001364062,None,139.8311716999997,139.8311716999997,139.8311716999997,139.8311716999997,139.8311716999997,139.8311716999997,139.8311716999997,139.8311716999997,,003,P016,2025_Mar_07_1455,CategoryLocalizer,2021.2.3,59.971057967401194,
108.8,109.0,5,0.0,Stimuli\Blank.png,0,0,0,171,171,171,,,,,,,,,,,,,108.82953679999991,0.029536799999917207,None,140.63187370000014,140.63187370000014,140.63187370000014,140.63187370000014,140.63187370000014,140.63187370000014,140.63187370000014,140.63187370000014,,003,P016,2025_Mar_07_1455,CategoryLocalizer,2021.2.3,59.971057967401194,
109.0,109.8,1,0.75,Stimuli\ImageFiles-Set1\Objects\Object_Airplane_00001.png,0,0,0,172,172,172,,,,,,,,,,,,,109.0116076000013,0.011607600001298124,None,140.81536680000136,140.81536680000136,140.81536680000136,140.81536680000136,140.81536680000136,140.81536680000136,140.81536680000136,140.81536680000136,,003,P016,2025_Mar_07_1455,CategoryLocalizer,2021.2.3,59.971057967401194,
109.8,110.0,5,0.0,Stimuli\Blank.png,0,0,0,173,173,173,,,,,,,,,,,,,109.81405380000069,0.01405380000069556,None,141.63276219999898,141.63276219999898,141.63276219999898,141.63276219999898,141.63276219999898,141.63276219999898,141.63276219999898,141.63276219999898,,003,P016,2025_Mar_07_1455,CategoryLocalizer,2021.2.3,59.971057967401194,
110.0,110.8,1,0.75,Stimuli\ImageFiles-Set1\Objects\Object_Airplane_00001.png,1,1,0,174,174,174,,,,,,,,,,,,,110.02933490000214,0.029334900002140785,1,141.83292879999863,141.83292879999863,141.83292879999863,141.83292879999863,141.83292879999863,141.83292879999863,141.83292879999863,141.83292879999863,0.488060099996801,003,P016,2025_Mar_07_1455,CategoryLocalizer,2021.2.3,59.971057967401194,
110.8,111.0,5,0.0,Stimuli\Blank.png,0,0,0,175,175,175,,,,,,,,,,,,,110.81406160000188,0.014061600001880947,None,142.61695650000183,142.61695650000183,142.61695650000183,142.61695650000183,142.61695650000183,142.61695650000183,142.61695650000183,142.61695650000183,,003,P016,2025_Mar_07_1455,CategoryLocalizer,2021.2.3,59.971057967401194,
111.0,111.8,1,0.75,Stimuli\ImageFiles-Set1\Objects\Object_Lipstick_00001.png,0,0,0,176,176,176,,,,,,,,,,,,,111.0141994000005,0.014199400000507012,None,142.81713690000106,142.81713690000106,142.81713690000106,142.81713690000106,142.81713690000106,142.81713690000106,142.81713690000106,142.81713690000106,,003,P016,2025_Mar_07_1455,CategoryLocalizer,2021.2.3,59.971057967401194,
111.8,112.0,5,0.0,Stimuli\Blank.png,0,0,0,177,177,177,,,,,,,,,,,,,111.81551260000197,0.01551260000196919,None,143.61786890000076,143.61786890000076,143.61786890000076,143.61786890000076,143.61786890000076,143.61786890000076,143.61786890000076,143.61786890000076,,003,P016,2025_Mar_07_1455,CategoryLocalizer,2021.2.3,59.971057967401194,
112.0,112.8,1,0.75,Stimuli\ImageFiles-Set1\Objects\Object_Watch_00001.png,0,0,0,178,178,178,,,,,,,,,,,,,111.99849440000253,-0.001505599997472018,None,143.81803619999846,143.81803619999846,143.81803619999846,143.81803619999846,143.81803619999846,143.81803619999846,143.81803619999846,143.81803619999846,,003,P016,2025_Mar_07_1455,CategoryLocalizer,2021.2.3,59.971057967401194,
112.8,113.0,5,0.0,Stimuli\Blank.png,0,0,0,179,179,179,,,,,,,,,,,,,112.81571579999945,0.01571579999945527,None,144.61873230000128,144.61873230000128,144.61873230000128,144.61873230000128,144.61873230000128,144.61873230000128,144.61873230000128,144.61873230000128,,003,P016,2025_Mar_07_1455,CategoryLocalizer,2021.2.3,59.971057967401194,
113.0,113.8,1,0.75,Stimuli\ImageFiles-Set1\Objects\Object_Pencil_00001.png,0,0,0,180,180,180,,,,,,,,,,,,,112.99856020000152,-0.0014397999984794296,None,144.80223100000148,144.80223100000148,144.80223100000148,144.80223100000148,144.80223100000148,144.80223100000148,144.80223100000148,144.80223100000148,,003,P016,2025_Mar_07_1455,CategoryLocalizer,2021.2.3,59.971057967401194,
113.8,114.0,5,0.0,Stimuli\Blank.png,0,0,0,181,181,181,,,,,,,,,,,,,113.79932900000131,-0.0006709999986895809,None,145.6029355999999,145.6029355999999,145.6029355999999,145.6029355999999,145.6029355999999,145.6029355999999,145.6029355999999,145.6029355999999,,003,P016,2025_Mar_07_1455,CategoryLocalizer,2021.2.3,59.971057967401194,
114.0,114.8,1,0.75,Stimuli\ImageFiles-Set1\Objects\Object_FileFolder_00001.png,0,0,0,182,182,182,,,,,,,,,,,,,114.00038889999996,0.00038889999996172264,None,145.81979720000163,145.81979720000163,145.81979720000163,145.81979720000163,145.81979720000163,145.81979720000163,145.81979720000163,145.81979720000163,,003,P016,2025_Mar_07_1455,CategoryLocalizer,2021.2.3,59.971057967401194,
114.8,115.0,5,0.0,Stimuli\Blank.png,0,0,0,183,183,183,,,,,,,,,,,,,114.81982070000231,0.019820700002313174,None,146.6371943999984,146.6371943999984,146.6371943999984,146.6371943999984,146.6371943999984,146.6371943999984,146.6371943999984,146.6371943999984,,003,P016,2025_Mar_07_1455,CategoryLocalizer,2021.2.3,59.971057967401194,
115.0,115.8,1,0.75,Stimuli\ImageFiles-Set1\Objects\Object_Baseball_00001.png,0,0,0,184,184,184,,,,,,,,,,,,,115.01865439999892,0.0186543999989226,None,146.83736190000127,146.83736190000127,146.83736190000127,146.83736190000127,146.83736190000127,146.83736190000127,146.83736190000127,146.83736190000127,,003,P016,2025_Mar_07_1455,CategoryLocalizer,2021.2.3,59.971057967401194,
115.8,116.0,5,0.0,Stimuli\Blank.png,0,0,0,185,185,185,,,,,,,,,,,,,115.81815529999949,0.01815529999949206,None,147.62138290000075,147.62138290000075,147.62138290000075,147.62138290000075,147.62138290000075,147.62138290000075,147.62138290000075,147.62138290000075,,003,P016,2025_Mar_07_1455,CategoryLocalizer,2021.2.3,59.971057967401194,
116.0,116.8,1,0.75,Stimuli\ImageFiles-Set1\Objects\Object_Oven_00001.png,0,0,0,186,186,186,,,,,,,,,,,,,116.0014016999994,0.0014016999994055368,None,147.8215268999993,147.8215268999993,147.8215268999993,147.8215268999993,147.8215268999993,147.8215268999993,147.8215268999993,147.8215268999993,,003,P016,2025_Mar_07_1455,CategoryLocalizer,2021.2.3,59.971057967401194,
116.8,117.0,5,0.0,Stimuli\Blank.png,0,0,0,187,187,187,,,,,,,,,,,,,116.81924730000173,0.019247300001737244,None,148.62228740000137,148.62228740000137,148.62228740000137,148.62228740000137,148.62228740000137,148.62228740000137,148.62228740000137,148.62228740000137,,003,P016,2025_Mar_07_1455,CategoryLocalizer,2021.2.3,59.971057967401194,
117.0,117.8,1,0.75,Stimuli\ImageFiles-Set1\Objects\Object_Bottle_00001.png,0,0,0,188,188,188,,,,,,,,,,,,,117.00263819999964,0.002638199999637436,None,148.80576400000064,148.80576400000064,148.80576400000064,148.80576400000064,148.80576400000064,148.80576400000064,148.80576400000064,148.80576400000064,,003,P016,2025_Mar_07_1455,CategoryLocalizer,2021.2.3,59.971057967401194,
117.8,118.0,5,0.0,Stimuli\Blank.png,0,0,0,189,189,189,,,,,,,,,,,,,117.80283880000206,0.0028388000020669324,None,149.60652259999915,149.60652259999915,149.60652259999915,149.60652259999915,149.60652259999915,149.60652259999915,149.60652259999915,149.60652259999915,,003,P016,2025_Mar_07_1455,CategoryLocalizer,2021.2.3,59.971057967401194,
118.0,118.8,1,0.75,Stimuli\ImageFiles-Set1\Objects\Object_Screw_00001.png,0,0,0,190,190,190,,,,,,,,,,,,,118.00374419999935,0.003744199999346165,None,149.82335199999943,149.82335199999943,149.82335199999943,149.82335199999943,149.82335199999943,149.82335199999943,149.82335199999943,149.82335199999943,,003,P016,2025_Mar_07_1455,CategoryLocalizer,2021.2.3,59.971057967401194,
118.8,119.0,5,0.0,Stimuli\Blank.png,0,0,0,191,191,191,,,,,,,,,,,,,118.82099120000203,0.020991200002029586,None,150.62403999999879,150.62403999999879,150.62403999999879,150.62403999999879,150.62403999999879,150.62403999999879,150.62403999999879,150.62403999999879,,003,P016,2025_Mar_07_1455,CategoryLocalizer,2021.2.3,59.971057967401194,
119.0,119.8,1,0.75,Stimuli\ImageFiles-Set1\Objects\Object_Wagon_00001.png,0,0,0,192,192,192,,,,,,,,,,,,,119.0036977000018,0.0036977000017941464,None,150.80753240000195,150.80753240000195,150.80753240000195,150.80753240000195,150.80753240000195,150.80753240000195,150.80753240000195,150.80753240000195,,003,P016,2025_Mar_07_1455,CategoryLocalizer,2021.2.3,59.971057967401194,
119.8,120.0,5,0.0,Stimuli\Blank.png,0,0,0,193,193,193,,,,,,,,,,,,,119.80441110000174,0.004411100001746604,None,151.60823769999843,151.60823769999843,151.60823769999843,151.60823769999843,151.60823769999843,151.60823769999843,151.60823769999843,151.60823769999843,,003,P016,2025_Mar_07_1455,CategoryLocalizer,2021.2.3,59.971057967401194,
120.0,120.8,4,0.75,Stimuli\ImageFiles-Set1\Scenes\Scenes_044.png,0,0,0,194,194,194,,,,,,,,,,,,,120.00471390000166,0.004713900001661386,None,151.8083794999984,151.8083794999984,151.8083794999984,151.8083794999984,151.8083794999984,151.8083794999984,151.8083794999984,151.8083794999984,,003,P016,2025_Mar_07_1455,CategoryLocalizer,2021.2.3,59.971057967401194,
120.8,121.0,5,0.0,Stimuli\Blank.png,0,0,0,195,195,195,,,,,,,,,,,,,120.80585839999912,0.005858399999127073,None,152.60912319999989,152.60912319999989,152.60912319999989,152.60912319999989,152.60912319999989,152.60912319999989,152.60912319999989,152.60912319999989,,003,P016,2025_Mar_07_1455,CategoryLocalizer,2021.2.3,59.971057967401194,
121.0,121.8,4,0.75,Stimuli\ImageFiles-Set1\Scenes\Scenes_001.png,0,0,0,196,196,196,,,,,,,,,,,,,121.00619920000099,0.006199200000992278,None,152.8092734999991,152.8092734999991,152.8092734999991,152.8092734999991,152.8092734999991,152.8092734999991,152.8092734999991,152.8092734999991,,003,P016,2025_Mar_07_1455,CategoryLocalizer,2021.2.3,59.971057967401194,
121.8,122.0,5,0.0,Stimuli\Blank.png,0,0,0,197,197,197,,,,,,,,,,,,,121.8061689999995,0.006168999999502489,None,153.6099807999999,153.6099807999999,153.6099807999999,153.6099807999999,153.6099807999999,153.6099807999999,153.6099807999999,153.6099807999999,,003,P016,2025_Mar_07_1455,CategoryLocalizer,2021.2.3,59.971057967401194,
122.0,122.8,4,0.75,Stimuli\ImageFiles-Set1\Scenes\Scenes_001.png,1,1,0,198,198,198,,,,,,,,,,,,,122.00640199999907,0.00640199999907054,1,153.81014069999947,153.81014069999947,153.81014069999947,153.81014069999947,153.81014069999947,153.81014069999947,153.81014069999947,153.81014069999947,0.42662710000149673,003,P016,2025_Mar_07_1455,CategoryLocalizer,2021.2.3,59.971057967401194,
122.8,123.0,5,0.0,Stimuli\Blank.png,0,0,0,199,199,199,,,,,,,,,,,,,122.80914660000053,0.009146600000534022,None,154.61090559999866,154.61090559999866,154.61090559999866,154.61090559999866,154.61090559999866,154.61090559999866,154.61090559999866,154.61090559999866,,003,P016,2025_Mar_07_1455,CategoryLocalizer,2021.2.3,59.971057967401194,
123.0,123.8,4,0.75,Stimuli\ImageFiles-Set1\Scenes\Scenes_046.png,0,0,0,200,200,200,,,,,,,,,,,,,123.00786449999941,0.007864499999413965,None,154.82775250000122,154.82775250000122,154.82775250000122,154.82775250000122,154.82775250000122,154.82775250000122,154.82775250000122,154.82775250000122,,003,P016,2025_Mar_07_1455,CategoryLocalizer,2021.2.3,59.971057967401194,
123.8,124.0,5,0.0,Stimuli\Blank.png,0,0,0,201,201,201,,,,,,,,,,,,,123.82528499999898,0.0252849999989877,None,155.62845469999957,155.62845469999957,155.62845469999957,155.62845469999957,155.62845469999957,155.62845469999957,155.62845469999957,155.62845469999957,,003,P016,2025_Mar_07_1455,CategoryLocalizer,2021.2.3,59.971057967401194,
124.0,124.8,4,0.75,Stimuli\ImageFiles-Set1\Scenes\Scenes_036.png,0,0,0,202,202,202,,,,,,,,,,,,,124.009148000001,0.00914800000100513,None,155.82864410000184,155.82864410000184,155.82864410000184,155.82864410000184,155.82864410000184,155.82864410000184,155.82864410000184,155.82864410000184,,003,P016,2025_Mar_07_1455,CategoryLocalizer,2021.2.3,59.971057967401194,
124.8,125.0,5,0.0,Stimuli\Blank.png,0,0,0,203,203,203,,,,,,,,,,,,,124.82562469999903,0.025624699999028167,None,156.629342799999,156.629342799999,156.629342799999,156.629342799999,156.629342799999,156.629342799999,156.629342799999,156.629342799999,,003,P016,2025_Mar_07_1455,CategoryLocalizer,2021.2.3,59.971057967401194,
125.0,125.8,4,0.75,Stimuli\ImageFiles-Set1\Scenes\Scenes_049.png,0,0,0,204,204,204,,,,,,,,,,,,,125.00983400000041,0.009834000000410015,None,156.829525000001,156.829525000001,156.829525000001,156.829525000001,156.829525000001,156.829525000001,156.829525000001,156.829525000001,,003,P016,2025_Mar_07_1455,CategoryLocalizer,2021.2.3,59.971057967401194,
125.8,126.0,5,0.0,Stimuli\Blank.png,0,0,0,205,205,205,,,,,,,,,,,,,125.82904129999952,0.029041299999519765,None,157.6469528000016,157.6469528000016,157.6469528000016,157.6469528000016,157.6469528000016,157.6469528000016,157.6469528000016,157.6469528000016,,003,P016,2025_Mar_07_1455,CategoryLocalizer,2021.2.3,59.971057967401194,
126.0,126.8,4,0.75,Stimuli\ImageFiles-Set1\Scenes\Scenes_027.png,0,0,0,206,206,206,,,,,,,,,,,,,126.02672040000107,0.0267204000010679,None,157.8304047999991,157.8304047999991,157.8304047999991,157.8304047999991,157.8304047999991,157.8304047999991,157.8304047999991,157.8304047999991,,003,P016,2025_Mar_07_1455,CategoryLocalizer,2021.2.3,59.971057967401194,
126.8,127.0,5,0.0,Stimuli\Blank.png,0,0,0,207,207,207,,,,,,,,,,,,,126.81087639999896,0.010876399998963393,None,158.6144322,158.6144322,158.6144322,158.6144322,158.6144322,158.6144322,158.6144322,158.6144322,,003,P016,2025_Mar_07_1455,CategoryLocalizer,2021.2.3,59.971057967401194,
127.0,127.8,4,0.75,Stimuli\ImageFiles-Set1\Scenes\Scenes_048.png,0,0,0,208,208,208,,,,,,,,,,,,,127.01170909999928,0.011709099999279715,None,158.83128880000004,158.83128880000004,158.83128880000004,158.83128880000004,158.83128880000004,158.83128880000004,158.83128880000004,158.83128880000004,,003,P016,2025_Mar_07_1455,CategoryLocalizer,2021.2.3,59.971057967401194,
127.8,128.0,5,0.0,Stimuli\Blank.png,0,0,0,209,209,209,,,,,,,,,,,,,127.82923479999954,0.029234799999542815,None,159.63199760000134,159.63199760000134,159.63199760000134,159.63199760000134,159.63199760000134,159.63199760000134,159.63199760000134,159.63199760000134,,003,P016,2025_Mar_07_1455,CategoryLocalizer,2021.2.3,59.971057967401194,
128.0,128.8,4,0.75,Stimuli\ImageFiles-Set1\Scenes\Scenes_029.png,0,0,0,210,210,210,,,,,,,,,,,,,128.01264900000024,0.01264900000023772,None,159.8155000000006,159.8155000000006,159.8155000000006,159.8155000000006,159.8155000000006,159.8155000000006,159.8155000000006,159.8155000000006,,003,P016,2025_Mar_07_1455,CategoryLocalizer,2021.2.3,59.971057967401194,
128.8,129.0,5,0.0,Stimuli\Blank.png,0,0,0,211,211,211,,,,,,,,,,,,,128.81480250000095,0.014802500000939744,None,160.6328958999984,160.6328958999984,160.6328958999984,160.6328958999984,160.6328958999984,160.6328958999984,160.6328958999984,160.6328958999984,,003,P016,2025_Mar_07_1455,CategoryLocalizer,2021.2.3,59.971057967401194,
129.0,129.8,4,0.75,Stimuli\ImageFiles-Set1\Scenes\Scenes_015.png,0,0,0,212,212,212,,,,,,,,,,,,,129.03011659999902,0.030116599999018945,None,160.83306950000042,160.83306950000042,160.83306950000042,160.83306950000042,160.83306950000042,160.83306950000042,160.83306950000042,160.83306950000042,,003,P016,2025_Mar_07_1455,CategoryLocalizer,2021.2.3,59.971057967401194,
129.8,130.0,5,0.0,Stimuli\Blank.png,0,0,0,213,213,213,,,,,,,,,,,,,129.8137983000015,0.013798300001496955,None,161.61709220000193,161.61709220000193,161.61709220000193,161.61709220000193,161.61709220000193,161.61709220000193,161.61709220000193,161.61709220000193,,003,P016,2025_Mar_07_1455,CategoryLocalizer,2021.2.3,59.971057967401194,
130.0,130.8,4,0.75,Stimuli\ImageFiles-Set1\Scenes\Scenes_055.png,0,0,0,214,214,214,,,,,,,,,,,,,130.01396020000175,0.01396020000174758,None,161.81726619999972,161.81726619999972,161.81726619999972,161.81726619999972,161.81726619999972,161.81726619999972,161.81726619999972,161.81726619999972,,003,P016,2025_Mar_07_1455,CategoryLocalizer,2021.2.3,59.971057967401194,
130.8,131.0,5,0.0,Stimuli\Blank.png,0,0,0,215,215,215,,,,,,,,,,,,,130.8147897000017,0.014789700001699657,None,162.61797039999874,162.61797039999874,162.61797039999874,162.61797039999874,162.61797039999874,162.61797039999874,162.61797039999874,162.61797039999874,,003,P016,2025_Mar_07_1455,CategoryLocalizer,2021.2.3,59.971057967401194,
131.0,131.8,4,0.75,Stimuli\ImageFiles-Set1\Scenes\Scenes_014.png,0,0,0,216,216,216,,,,,,,,,,,,,131.01512680000087,0.015126800000871299,None,162.81815379999898,162.81815379999898,162.81815379999898,162.81815379999898,162.81815379999898,162.81815379999898,162.81815379999898,162.81815379999898,,003,P016,2025_Mar_07_1455,CategoryLocalizer,2021.2.3,59.971057967401194,
131.8,132.0,5,0.0,Stimuli\Blank.png,0,0,0,217,217,217,,,,,,,,,,,,,131.7985303000023,-0.001469699997699081,None,163.60215339999922,163.60215339999922,163.60215339999922,163.60215339999922,163.60215339999922,163.60215339999922,163.60215339999922,163.60215339999922,,003,P016,2025_Mar_07_1455,CategoryLocalizer,2021.2.3,59.971057967401194,
132.0,132.8,4,0.75,Stimuli\ImageFiles-Set1\Scenes\Scenes_045.png,0,0,0,218,218,218,,,,,,,,,,,,,132.01538119999896,0.015381199998955708,None,163.8190343999995,163.8190343999995,163.8190343999995,163.8190343999995,163.8190343999995,163.8190343999995,163.8190343999995,163.8190343999995,,003,P016,2025_Mar_07_1455,CategoryLocalizer,2021.2.3,59.971057967401194,
132.8,133.0,5,0.0,Stimuli\Blank.png,0,0,0,219,219,219,,,,,,,,,,,,,132.80074719999902,0.0007471999990116274,None,164.60314350000044,164.60314350000044,164.60314350000044,164.60314350000044,164.60314350000044,164.60314350000044,164.60314350000044,164.60314350000044,,003,P016,2025_Mar_07_1455,CategoryLocalizer,2021.2.3,59.971057967401194,
133.0,133.8,4,0.75,Stimuli\ImageFiles-Set1\Scenes\Scenes_002.png,1,1,0,220,220,220,,,,,,,,,,,,,133.00025219999952,0.0002521999995224178,None,164.80324259999907,164.80324259999907,164.80324259999907,164.80324259999907,164.80324259999907,164.80324259999907,164.80324259999907,164.80324259999907,,003,P016,2025_Mar_07_1455,CategoryLocalizer,2021.2.3,59.971057967401194,
133.8,134.0,5,0.0,Stimuli\Blank.png,0,0,0,221,221,221,,,,,,,,,,,,,133.8007232000018,0.0007232000018007056,None,165.60394420000011,165.60394420000011,165.60394420000011,165.60394420000011,165.60394420000011,165.60394420000011,165.60394420000011,165.60394420000011,,003,P016,2025_Mar_07_1455,CategoryLocalizer,2021.2.3,59.971057967401194,
134.0,134.8,4,0.75,Stimuli\ImageFiles-Set1\Scenes\Scenes_054.png,0,0,0,222,222,222,,,,,,,,,,,,,134.0009628000007,0.0009628000007069204,None,165.82078510000065,165.82078510000065,165.82078510000065,165.82078510000065,165.82078510000065,165.82078510000065,165.82078510000065,165.82078510000065,,003,P016,2025_Mar_07_1455,CategoryLocalizer,2021.2.3,59.971057967401194,
134.8,135.0,5,0.0,Stimuli\Blank.png,0,0,0,223,223,223,,,,,,,,,,,,,134.81771590000062,0.017715900000609963,None,166.62155500000154,166.62155500000154,166.62155500000154,166.62155500000154,166.62155500000154,166.62155500000154,166.62155500000154,166.62155500000154,,003,P016,2025_Mar_07_1455,CategoryLocalizer,2021.2.3,59.971057967401194,
135.0,135.8,4,0.75,Stimuli\ImageFiles-Set1\Scenes\Scenes_054.png,0,0,0,224,224,224,,,,,,,,,,,,,135.00392339999962,0.003923399999621324,1,166.82168589999856,166.82168589999856,166.82168589999856,166.82168589999856,166.82168589999856,166.82168589999856,166.82168589999856,166.82168589999856,0.4581261999992421,003,P016,2025_Mar_07_1455,CategoryLocalizer,2021.2.3,59.971057967401194,
135.8,136.0,5,0.0,Stimuli\Blank.png,0,0,0,225,225,225,,,,,,,,,,,,,135.81863430000158,0.018634300001565407,None,167.6223944000012,167.6223944000012,167.6223944000012,167.6223944000012,167.6223944000012,167.6223944000012,167.6223944000012,167.6223944000012,,003,P016,2025_Mar_07_1455,CategoryLocalizer,2021.2.3,59.971057967401194,
136.0,136.8,2,0.75,Stimuli\ImageFiles-Set1\Bodies\Bodies_SittingStretch_00002.png,0,0,0,226,226,226,,,,,,,,,,,,,136.00290099999984,0.00290099999983795,None,167.80589619999955,167.80589619999955,167.80589619999955,167.80589619999955,167.80589619999955,167.80589619999955,167.80589619999955,167.80589619999955,,003,P016,2025_Mar_07_1455,CategoryLocalizer,2021.2.3,59.971057967401194,
136.8,137.0,5,0.0,Stimuli\Blank.png,0,0,0,227,227,227,,,,,,,,,,,,,136.80275500000062,0.0027550000006044684,None,168.60660869999992,168.60660869999992,168.60660869999992,168.60660869999992,168.60660869999992,168.60660869999992,168.60660869999992,168.60660869999992,,003,P016,2025_Mar_07_1455,CategoryLocalizer,2021.2.3,59.971057967401194,
137.0,137.8,2,0.75,Stimuli\ImageFiles-Set1\Bodies\Bodies_Lunging_00004.png,0,0,0,228,228,228,,,,,,,,,,,,,137.00448510000206,0.004485100002057152,None,168.82345310000164,168.82345310000164,168.82345310000164,168.82345310000164,168.82345310000164,168.82345310000164,168.82345310000164,168.82345310000164,,003,P016,2025_Mar_07_1455,CategoryLocalizer,2021.2.3,59.971057967401194,
137.8,138.0,5,0.0,Stimuli\Blank.png,0,0,0,229,229,229,,,,,,,,,,,,,137.82135389999894,0.021353899998928227,None,169.62417170000117,169.62417170000117,169.62417170000117,169.62417170000117,169.62417170000117,169.62417170000117,169.62417170000117,169.62417170000117,,003,P016,2025_Mar_07_1455,CategoryLocalizer,2021.2.3,59.971057967401194,
138.0,138.8,2,0.75,Stimuli\ImageFiles-Set1\Bodies\Bodies_Kicking_00005.png,0,0,0,230,230,230,,,,,,,,,,,,,138.00442040000053,0.00442040000052657,None,169.80763099999967,169.80763099999967,169.80763099999967,169.80763099999967,169.80763099999967,169.80763099999967,169.80763099999967,169.80763099999967,,003,P016,2025_Mar_07_1455,CategoryLocalizer,2021.2.3,59.971057967401194,
138.8,139.0,5,0.0,Stimuli\Blank.png,0,0,0,231,231,231,,,,,,,,,,,,,138.80516999999963,0.005169999999623087,None,170.6083695999987,170.6083695999987,170.6083695999987,170.6083695999987,170.6083695999987,170.6083695999987,170.6083695999987,170.6083695999987,,003,P016,2025_Mar_07_1455,CategoryLocalizer,2021.2.3,59.971057967401194,
139.0,139.8,2,0.75,Stimuli\ImageFiles-Set1\Bodies\Bodies_Jumping_00002.png,0,0,0,232,232,232,,,,,,,,,,,,,139.00497729999915,0.0049772999991546385,None,170.8252563999995,170.8252563999995,170.8252563999995,170.8252563999995,170.8252563999995,170.8252563999995,170.8252563999995,170.8252563999995,,003,P016,2025_Mar_07_1455,CategoryLocalizer,2021.2.3,59.971057967401194,
139.8,140.0,5,0.0,Stimuli\Blank.png,0,0,0,233,233,233,,,,,,,,,,,,,139.82276690000072,0.022766900000704027,None,171.62599580000096,171.62599580000096,171.62599580000096,171.62599580000096,171.62599580000096,171.62599580000096,171.62599580000096,171.62599580000096,,003,P016,2025_Mar_07_1455,CategoryLocalizer,2021.2.3,59.971057967401194,
140.0,140.8,2,0.75,Stimuli\ImageFiles-Set1\Bodies\Bodies_Crawling_00003.png,0,0,0,234,234,234,,,,,,,,,,,,,140.00576759999967,0.005767599999671802,None,171.80942969999887,171.80942969999887,171.80942969999887,171.80942969999887,171.80942969999887,171.80942969999887,171.80942969999887,171.80942969999887,,003,P016,2025_Mar_07_1455,CategoryLocalizer,2021.2.3,59.971057967401194,
140.8,141.0,5,0.0,Stimuli\Blank.png,0,0,0,235,235,235,,,,,,,,,,,,,140.80908289999934,0.009082899999327765,None,172.6268659999987,172.6268659999987,172.6268659999987,172.6268659999987,172.6268659999987,172.6268659999987,172.6268659999987,172.6268659999987,,003,P016,2025_Mar_07_1455,CategoryLocalizer,2021.2.3,59.971057967401194,
141.0,141.8,2,0.75,Stimuli\ImageFiles-Set1\Bodies\Bodies_Crawling_00003.png,1,1,0,236,236,236,,,,,,,,,,,,,141.0239255000015,0.023925500001496403,1,172.82699309999953,172.82699309999953,172.82699309999953,172.82699309999953,172.82699309999953,172.82699309999953,172.82699309999953,172.82699309999953,0.5146225000025879,003,P016,2025_Mar_07_1455,CategoryLocalizer,2021.2.3,59.971057967401194,
141.8,142.0,5,0.0,Stimuli\Blank.png,0,0,0,237,237,237,,,,,,,,,,,,,141.8081224000016,0.008122400001582264,None,173.611022699999,173.611022699999,173.611022699999,173.611022699999,173.611022699999,173.611022699999,173.611022699999,173.611022699999,,003,P016,2025_Mar_07_1455,CategoryLocalizer,2021.2.3,59.971057967401194,
142.0,142.8,2,0.75,Stimuli\ImageFiles-Set1\Bodies\Bodies_DownwardDog_00006.png,0,0,0,238,238,238,,,,,,,,,,,,,142.00852790000135,0.008527900001354283,None,173.827891500001,173.827891500001,173.827891500001,173.827891500001,173.827891500001,173.827891500001,173.827891500001,173.827891500001,,003,P016,2025_Mar_07_1455,CategoryLocalizer,2021.2.3,59.971057967401194,
142.8,143.0,5,0.0,Stimuli\Blank.png,0,0,0,239,239,239,,,,,,,,,,,,,142.82540399999925,0.025403999999241478,None,174.628584099999,174.628584099999,174.628584099999,174.628584099999,174.628584099999,174.628584099999,174.628584099999,174.628584099999,,003,P016,2025_Mar_07_1455,CategoryLocalizer,2021.2.3,59.971057967401194,
143.0,143.8,2,0.75,Stimuli\ImageFiles-Set1\Bodies\Bodies_QuadStretch_00001.png,0,0,0,240,240,240,,,,,,,,,,,,,143.0091207000005,0.009120700000494253,None,174.82878790000177,174.82878790000177,174.82878790000177,174.82878790000177,174.82878790000177,174.82878790000177,174.82878790000177,174.82878790000177,,003,P016,2025_Mar_07_1455,CategoryLocalizer,2021.2.3,59.971057967401194,
143.8,144.0,5,0.0,Stimuli\Blank.png,0,0,0,241,241,241,,,,,,,,,,,,,143.82652320000125,0.02652320000123609,None,175.62956900000063,175.62956900000063,175.62956900000063,175.62956900000063,175.62956900000063,175.62956900000063,175.62956900000063,175.62956900000063,,003,P016,2025_Mar_07_1455,CategoryLocalizer,2021.2.3,59.971057967401194,
144.0,144.8,2,0.75,Stimuli\ImageFiles-Set1\Bodies\Bodies_SittingStretch_00005.png,0,0,0,242,242,242,,,,,,,,,,,,,144.0100005000022,0.010000500002206536,None,175.81297130000166,175.81297130000166,175.81297130000166,175.81297130000166,175.81297130000166,175.81297130000166,175.81297130000166,175.81297130000166,,003,P016,2025_Mar_07_1455,CategoryLocalizer,2021.2.3,59.971057967401194,
144.8,145.0,5,0.0,Stimuli\Blank.png,0,0,0,243,243,243,,,,,,,,,,,,,144.81023520000235,0.010235200002341571,None,176.61367800000153,176.61367800000153,176.61367800000153,176.61367800000153,176.61367800000153,176.61367800000153,176.61367800000153,176.61367800000153,,003,P016,2025_Mar_07_1455,CategoryLocalizer,2021.2.3,59.971057967401194,
145.0,145.8,2,0.75,Stimuli\ImageFiles-Set1\Bodies\Bodies_Falling_00006.png,0,0,0,244,244,244,,,,,,,,,,,,,145.01074639999933,0.010746399999334244,None,176.81385139999838,176.81385139999838,176.81385139999838,176.81385139999838,176.81385139999838,176.81385139999838,176.81385139999838,176.81385139999838,,003,P016,2025_Mar_07_1455,CategoryLocalizer,2021.2.3,59.971057967401194,
145.8,146.0,5,0.0,Stimuli\Blank.png,0,0,0,245,245,245,,,,,,,,,,,,,145.81094890000168,0.010948900001665152,None,177.61455719999867,177.61455719999867,177.61455719999867,177.61455719999867,177.61455719999867,177.61455719999867,177.61455719999867,177.61455719999867,,003,P016,2025_Mar_07_1455,CategoryLocalizer,2021.2.3,59.971057967401194,
146.0,146.8,2,0.75,Stimuli\ImageFiles-Set1\Bodies\Bodies_Standing_00007.png,0,0,0,246,246,246,,,,,,,,,,,,,146.0113999999994,0.011399999999412103,None,177.83138790000157,177.83138790000157,177.83138790000157,177.83138790000157,177.83138790000157,177.83138790000157,177.83138790000157,177.83138790000157,,003,P016,2025_Mar_07_1455,CategoryLocalizer,2021.2.3,59.971057967401194,
146.8,147.0,5,0.0,Stimuli\Blank.png,0,0,0,247,247,247,,,,,,,,,,,,,146.82960889999958,0.02960889999957317,None,178.63213389999873,178.63213389999873,178.63213389999873,178.63213389999873,178.63213389999873,178.63213389999873,178.63213389999873,178.63213389999873,,003,P016,2025_Mar_07_1455,CategoryLocalizer,2021.2.3,59.971057967401194,
147.0,147.8,2,0.75,Stimuli\ImageFiles-Set1\Bodies\Bodies_Lunging_00003.png,0,0,0,248,248,248,,,,,,,,,,,,,147.01407400000244,0.01407400000243797,None,178.832310400001,178.832310400001,178.832310400001,178.832310400001,178.832310400001,178.832310400001,178.832310400001,178.832310400001,,003,P016,2025_Mar_07_1455,CategoryLocalizer,2021.2.3,59.971057967401194,
147.8,148.0,5,0.0,Stimuli\Blank.png,0,0,0,249,249,249,,,,,,,,,,,,,147.82925969999997,0.02925969999995459,None,179.6330091000018,179.6330091000018,179.6330091000018,179.6330091000018,179.6330091000018,179.6330091000018,179.6330091000018,179.6330091000018,,003,P016,2025_Mar_07_1455,CategoryLocalizer,2021.2.3,59.971057967401194,
148.0,148.8,2,0.75,Stimuli\ImageFiles-Set1\Bodies\Bodies_Pushing_00005.png,0,0,0,250,250,250,,,,,,,,,,,,,148.01301260000037,0.013012600000365637,None,179.81650420000005,179.81650420000005,179.81650420000005,179.81650420000005,179.81650420000005,179.81650420000005,179.81650420000005,179.81650420000005,,003,P016,2025_Mar_07_1455,CategoryLocalizer,2021.2.3,59.971057967401194,
148.8,149.0,5,0.0,Stimuli\Blank.png,0,0,0,251,251,251,,,,,,,,,,,,,148.81433860000107,0.014338600001053692,None,180.6172157000001,180.6172157000001,180.6172157000001,180.6172157000001,180.6172157000001,180.6172157000001,180.6172157000001,180.6172157000001,,003,P016,2025_Mar_07_1455,CategoryLocalizer,2021.2.3,59.971057967401194,
149.0,149.8,2,0.75,Stimuli\ImageFiles-Set1\Bodies\Bodies_SittingChair_00001.png,0,0,0,252,252,252,,,,,,,,,,,,,149.01473719999922,0.01473719999921741,None,180.81740720000016,180.81740720000016,180.81740720000016,180.81740720000016,180.81740720000016,180.81740720000016,180.81740720000016,180.81740720000016,,003,P016,2025_Mar_07_1455,CategoryLocalizer,2021.2.3,59.971057967401194,
149.8,150.0,5,0.0,Stimuli\Blank.png,0,0,0,253,253,253,,,,,,,,,,,,,149.8144140000004,0.01441400000038584,None,181.61809360000188,181.61809360000188,181.61809360000188,181.61809360000188,181.61809360000188,181.61809360000188,181.61809360000188,181.61809360000188,,003,P016,2025_Mar_07_1455,CategoryLocalizer,2021.2.3,59.971057967401194,
150.0,150.8,2,0.75,Stimuli\ImageFiles-Set1\Bodies\Bodies_CobraPose_00003.png,0,0,0,254,254,254,,,,,,,,,,,,,150.0144782000025,0.014478200002486119,None,181.83495680000124,181.83495680000124,181.83495680000124,181.83495680000124,181.83495680000124,181.83495680000124,181.83495680000124,181.83495680000124,,003,P016,2025_Mar_07_1455,CategoryLocalizer,2021.2.3,59.971057967401194,
150.8,151.0,5,0.0,Stimuli\Blank.png,0,0,0,255,255,255,,,,,,,,,,,,,150.83368790000168,0.03368790000166655,None,182.6523554000014,182.6523554000014,182.6523554000014,182.6523554000014,182.6523554000014,182.6523554000014,182.6523554000014,182.6523554000014,,003,P016,2025_Mar_07_1455,CategoryLocalizer,2021.2.3,59.971057967401194,
151.0,151.8,2,0.75,Stimuli\ImageFiles-Set1\Bodies\Bodies_Walking_00002.png,0,0,0,256,256,256,,,,,,,,,,,,,151.01612699999896,0.016126999998959946,None,182.83585350000067,182.83585350000067,182.83585350000067,182.83585350000067,182.83585350000067,182.83585350000067,182.83585350000067,182.83585350000067,,003,P016,2025_Mar_07_1455,CategoryLocalizer,2021.2.3,59.971057967401194,
151.8,152.0,5,0.0,Stimuli\Blank.png,0,0,0,257,257,257,,,,,,,,,,,,,151.81722340000124,0.01722340000122813,None,183.61988049999854,183.61988049999854,183.61988049999854,183.61988049999854,183.61988049999854,183.61988049999854,183.61988049999854,183.61988049999854,,003,P016,2025_Mar_07_1455,CategoryLocalizer,2021.2.3,59.971057967401194,
152.0,164.0,0,0.0,Stimuli\Blank.png,0,0,0,258,258,258,,,,,,,,,,,,,152.00022069999977,0.0002206999997724779,None,183.80332669999916,183.80332669999916,183.80332669999916,183.80332669999916,183.80332669999916,183.80332669999916,183.80332669999916,183.80332669999916,,003,P016,2025_Mar_07_1455,CategoryLocalizer,2021.2.3,59.971057967401194,
164.0,164.8,4,0.75,Stimuli\ImageFiles-Set1\Scenes\Scenes_043.png,0,0,0,259,259,259,,,,,,,,,,,,,164.0106713000023,0.010671300002286443,None,195.81397640000068,195.81397640000068,195.81397640000068,195.81397640000068,195.81397640000068,195.81397640000068,195.81397640000068,195.81397640000068,,003,P016,2025_Mar_07_1455,CategoryLocalizer,2021.2.3,59.971057967401194,
164.8,165.0,5,0.0,Stimuli\Blank.png,0,0,0,260,260,260,,,,,,,,,,,,,164.81162300000142,0.011623000001407036,None,196.6146512999985,196.6146512999985,196.6146512999985,196.6146512999985,196.6146512999985,196.6146512999985,196.6146512999985,196.6146512999985,,003,P016,2025_Mar_07_1455,CategoryLocalizer,2021.2.3,59.971057967401194,
165.0,165.8,4,0.75,Stimuli\ImageFiles-Set1\Scenes\Scenes_034.png,0,0,0,261,261,261,,,,,,,,,,,,,165.01110220000191,0.011102200001914753,None,196.81489180000062,196.81489180000062,196.81489180000062,196.81489180000062,196.81489180000062,196.81489180000062,196.81489180000062,196.81489180000062,,003,P016,2025_Mar_07_1455,CategoryLocalizer,2021.2.3,59.971057967401194,
165.8,166.0,5,0.0,Stimuli\Blank.png,0,0,0,262,262,262,,,,,,,,,,,,,165.81374219999998,0.013742199999967397,None,197.61558420000074,197.61558420000074,197.61558420000074,197.61558420000074,197.61558420000074,197.61558420000074,197.61558420000074,197.61558420000074,,003,P016,2025_Mar_07_1455,CategoryLocalizer,2021.2.3,59.971057967401194,
166.0,166.8,4,0.75,Stimuli\ImageFiles-Set1\Scenes\Scenes_020.png,0,0,0,263,263,263,,,,,,,,,,,,,166.01375240000198,0.013752400001976639,None,197.8324375000011,197.8324375000011,197.8324375000011,197.8324375000011,197.8324375000011,197.8324375000011,197.8324375000011,197.8324375000011,,003,P016,2025_Mar_07_1455,CategoryLocalizer,2021.2.3,59.971057967401194,
166.8,167.0,5,0.0,Stimuli\Blank.png,0,0,0,264,264,264,,,,,,,,,,,,,166.82948469999974,0.02948469999972758,None,198.63311279999834,198.63311279999834,198.63311279999834,198.63311279999834,198.63311279999834,198.63311279999834,198.63311279999834,198.63311279999834,,003,P016,2025_Mar_07_1455,CategoryLocalizer,2021.2.3,59.971057967401194,
167.0,167.8,4,0.75,Stimuli\ImageFiles-Set1\Scenes\Scenes_042.png,0,0,0,265,265,265,,,,,,,,,,,,,167.01344479999898,0.013444799998978851,None,198.83332270000028,198.83332270000028,198.83332270000028,198.83332270000028,198.83332270000028,198.83332270000028,198.83332270000028,198.83332270000028,,003,P016,2025_Mar_07_1455,CategoryLocalizer,2021.2.3,59.971057967401194,
167.8,168.0,5,0.0,Stimuli\Blank.png,0,0,0,266,266,266,,,,,,,,,,,,,167.83136460000242,0.03136460000240504,None,199.63402359999964,199.63402359999964,199.63402359999964,199.63402359999964,199.63402359999964,199.63402359999964,199.63402359999964,199.63402359999964,,003,P016,2025_Mar_07_1455,CategoryLocalizer,2021.2.3,59.971057967401194,
168.0,168.8,4,0.75,Stimuli\ImageFiles-Set1\Scenes\Scenes_031.png,0,0,0,267,267,267,,,,,,,,,,,,,168.01471569999921,0.014715699999214849,None,199.83420670000123,199.83420670000123,199.83420670000123,199.83420670000123,199.83420670000123,199.83420670000123,199.83420670000123,199.83420670000123,,003,P016,2025_Mar_07_1455,CategoryLocalizer,2021.2.3,59.971057967401194,
168.8,169.0,5,0.0,Stimuli\Blank.png,0,0,0,268,268,268,,,,,,,,,,,,,168.83187589999943,0.0318758999994202,None,200.63491520000025,200.63491520000025,200.63491520000025,200.63491520000025,200.63491520000025,200.63491520000025,200.63491520000025,200.63491520000025,,003,P016,2025_Mar_07_1455,CategoryLocalizer,2021.2.3,59.971057967401194,
169.0,169.8,4,0.75,Stimuli\ImageFiles-Set1\Scenes\Scenes_050.png,0,0,0,269,269,269,,,,,,,,,,,,,169.0154900000016,0.015490000001591397,None,200.81840530000045,200.81840530000045,200.81840530000045,200.81840530000045,200.81840530000045,200.81840530000045,200.81840530000045,200.81840530000045,,003,P016,2025_Mar_07_1455,CategoryLocalizer,2021.2.3,59.971057967401194,
169.8,170.0,5,0.0,Stimuli\Blank.png,0,0,0,270,270,270,,,,,,,,,,,,,169.80005670000173,5.67000017213104e-05,None,201.6024451000012,201.6024451000012,201.6024451000012,201.6024451000012,201.6024451000012,201.6024451000012,201.6024451000012,201.6024451000012,,003,P016,2025_Mar_07_1455,CategoryLocalizer,2021.2.3,59.971057967401194,
170.0,170.8,4,0.75,Stimuli\ImageFiles-Set1\Scenes\Scenes_050.png,1,1,0,271,271,271,,,,,,,,,,,,,169.99942360000205,-0.0005763999979535583,1,201.80260329999874,201.80260329999874,201.80260329999874,201.80260329999874,201.80260329999874,201.80260329999874,201.80260329999874,201.80260329999874,0.34093900000152644,003,P016,2025_Mar_07_1455,CategoryLocalizer,2021.2.3,59.971057967401194,
170.8,171.0,5,0.0,Stimuli\Blank.png,0,0,0,272,272,272,,,,,,,,,,,,,170.7994968999992,-0.000503100000798895,None,202.60331120000046,202.60331120000046,202.60331120000046,202.60331120000046,202.60331120000046,202.60331120000046,202.60331120000046,202.60331120000046,,003,P016,2025_Mar_07_1455,CategoryLocalizer,2021.2.3,59.971057967401194,
171.0,171.8,4,0.75,Stimuli\ImageFiles-Set1\Scenes\Scenes_007.png,0,0,0,273,273,273,,,,,,,,,,,,,170.99989959999948,-0.00010040000051958486,None,202.836873799999,202.836873799999,202.836873799999,202.836873799999,202.836873799999,202.836873799999,202.836873799999,202.836873799999,,003,P016,2025_Mar_07_1455,CategoryLocalizer,2021.2.3,59.971057967401194,
171.8,172.0,5,0.0,Stimuli\Blank.png,0,0,0,274,274,274,,,,,,,,,,,,,171.83513519999906,0.03513519999904702,None,203.63758880000023,203.63758880000023,203.63758880000023,203.63758880000023,203.63758880000023,203.63758880000023,203.63758880000023,203.63758880000023,,003,P016,2025_Mar_07_1455,CategoryLocalizer,2021.2.3,59.971057967401194,
172.0,172.8,4,0.75,Stimuli\ImageFiles-Set1\Scenes\Scenes_018.png,0,0,0,275,275,275,,,,,,,,,,,,,172.00078570000187,0.000785700001870282,None,203.82106030000068,203.82106030000068,203.82106030000068,203.82106030000068,203.82106030000068,203.82106030000068,203.82106030000068,203.82106030000068,,003,P016,2025_Mar_07_1455,CategoryLocalizer,2021.2.3,59.971057967401194,
172.8,173.0,5,0.0,Stimuli\Blank.png,0,0,0,276,276,276,,,,,,,,,,,,,172.81795670000065,0.017956700000638648,None,204.62181160000182,204.62181160000182,204.62181160000182,204.62181160000182,204.62181160000182,204.62181160000182,204.62181160000182,204.62181160000182,,003,P016,2025_Mar_07_1455,CategoryLocalizer,2021.2.3,59.971057967401194,
173.0,173.8,4,0.75,Stimuli\ImageFiles-Set1\Scenes\Scenes_039.png,1,1,0,277,277,277,,,,,,,,,,,,,173.0013551000011,0.0013551000010920689,None,204.80526140000075,204.80526140000075,204.80526140000075,204.80526140000075,204.80526140000075,204.80526140000075,204.80526140000075,204.80526140000075,,003,P016,2025_Mar_07_1455,CategoryLocalizer,2021.2.3,59.971057967401194,
173.8,174.0,5,0.0,Stimuli\Blank.png,0,0,0,278,278,278,,,,,,,,,,,,,173.8039374,0.003937399999983882,None,205.62274460000117,205.62274460000117,205.62274460000117,205.62274460000117,205.62274460000117,205.62274460000117,205.62274460000117,205.62274460000117,,003,P016,2025_Mar_07_1455,CategoryLocalizer,2021.2.3,59.971057967401194,
174.0,174.8,4,0.75,Stimuli\ImageFiles-Set1\Scenes\Scenes_035.png,0,0,0,279,279,279,,,,,,,,,,,,,174.01912810000067,0.01912810000067111,None,205.83955060000153,205.83955060000153,205.83955060000153,205.83955060000153,205.83955060000153,205.83955060000153,205.83955060000153,205.83955060000153,,003,P016,2025_Mar_07_1455,CategoryLocalizer,2021.2.3,59.971057967401194,
174.8,175.0,5,0.0,Stimuli\Blank.png,0,0,0,280,280,280,,,,,,,,,,,,,174.8197607000002,0.019760700000176712,None,206.62353710000025,206.62353710000025,206.62353710000025,206.62353710000025,206.62353710000025,206.62353710000025,206.62353710000025,206.62353710000025,,003,P016,2025_Mar_07_1455,CategoryLocalizer,2021.2.3,59.971057967401194,
175.0,175.8,4,0.75,Stimuli\ImageFiles-Set1\Scenes\Scenes_035.png,0,0,0,281,281,281,,,,,,,,,,,,,175.00428330000068,0.004283300000679446,1,206.80703469999935,206.80703469999935,206.80703469999935,206.80703469999935,206.80703469999935,206.80703469999935,206.80703469999935,206.80703469999935,0.6115592999994988,003,P016,2025_Mar_07_1455,CategoryLocalizer,2021.2.3,59.971057967401194,
175.8,176.0,5,0.0,Stimuli\Blank.png,0,0,0,282,282,282,,,,,,,,,,,,,175.80462690000059,0.004626900000573642,None,207.6077484999987,207.6077484999987,207.6077484999987,207.6077484999987,207.6077484999987,207.6077484999987,207.6077484999987,207.6077484999987,,003,P016,2025_Mar_07_1455,CategoryLocalizer,2021.2.3,59.971057967401194,
176.0,176.8,4,0.75,Stimuli\ImageFiles-Set1\Scenes\Scenes_047.png,0,0,0,283,283,283,,,,,,,,,,,,,176.00425679999898,0.0042567999989842065,None,207.80793890000132,207.80793890000132,207.80793890000132,207.80793890000132,207.80793890000132,207.80793890000132,207.80793890000132,207.80793890000132,,003,P016,2025_Mar_07_1455,CategoryLocalizer,2021.2.3,59.971057967401194,
176.8,177.0,5,0.0,Stimuli\Blank.png,0,0,0,284,284,284,,,,,,,,,,,,,176.80550539999967,0.005505399999663041,None,208.6086729000017,208.6086729000017,208.6086729000017,208.6086729000017,208.6086729000017,208.6086729000017,208.6086729000017,208.6086729000017,,003,P016,2025_Mar_07_1455,CategoryLocalizer,2021.2.3,59.971057967401194,
