eventStartTime,eventEndTime,eventCond,imSize,imFile,repeatedImage,responseEvent,Events.thisRepN,Events.thisTrialN,Events.thisN,Events.thisIndex,Instructions.started,Instructions.stopped,participantReadyResponse.keys,participantReadyResponse.rt,participantReadyResponse.started,participantReadyResponse.stopped,startWaitforTrigger,triggerResponse.keys,triggerResponse.rt,triggerResponse.started,triggerResponse.stopped,globalTimer,actualStartTime,startTimingDiff,participantResponse.keys,participantResponse.started,participantResponse.stopped,image.started,image.stopped,fixationOutside.started,fixationOutside.stopped,fixationInside.started,fixationInside.stopped,participantResponse.rt,session,participant,date,expName,psychopyVersion,frameRate,
,,,,,,,,,,,16.787563199999568,None,1,26.832360000000335,16.787563199999568,None,,,,,,,,,,,,,,,,,,,001,P016,2025_Mar_07_1357,CategoryLocalizer,2021.2.3,59.950205358885334,
,,,,,,,,,,,,,,,,,43.62972269999955,5,78.27106400000048,43.64277159999983,None,,,,,,,,,,,,,,001,P016,2025_Mar_07_1357,CategoryLocalizer,2021.2.3,59.950205358885334,
0.0,12.0,0,0.0,Stimuli\Blank.png,0,0,0,0,0,0,,,,,,,,,,,,121.91520970000056,0.029688700000406243,0.029688700000406243,None,121.9620150999981,None,121.9620150999981,None,121.9620150999981,None,121.9620150999981,None,,001,P016,2025_Mar_07_1357,CategoryLocalizer,2021.2.3,59.950205358885334,
12.0,12.8,1,0.75,Stimuli\ImageFiles-Set1\Objects\Object_Pipe_00001.png,0,0,0,1,1,1,,,,,,,,,,,,,12.010915200000454,0.010915200000454206,None,133.95591259999856,133.95591259999856,133.95591259999856,133.95591259999856,133.95591259999856,133.95591259999856,133.95591259999856,133.95591259999856,,001,P016,2025_Mar_07_1357,CategoryLocalizer,2021.2.3,59.950205358885334,
12.8,13.0,5,0.0,Stimuli\Blank.png,0,0,0,2,2,2,,,,,,,,,,,,,12.826956900000368,0.026956900000367767,None,134.7566571999996,134.7566571999996,134.7566571999996,134.7566571999996,134.7566571999996,134.7566571999996,134.7566571999996,134.7566571999996,,001,P016,2025_Mar_07_1357,CategoryLocalizer,2021.2.3,59.950205358885334,
13.0,13.8,1,0.75,Stimuli\ImageFiles-Set1\Objects\Object_Peanut_00001.png,0,0,0,3,3,3,,,,,,,,,,,,,13.010628100000758,0.010628100000758423,None,134.95683719999943,134.95683719999943,134.95683719999943,134.95683719999943,134.95683719999943,134.95683719999943,134.95683719999943,134.95683719999943,,001,P016,2025_Mar_07_1357,CategoryLocalizer,2021.2.3,59.950205358885334,
13.8,14.0,5,0.0,Stimuli\Blank.png,0,0,0,4,4,4,,,,,,,,,,,,,13.828409300000203,0.028409300000202364,None,135.75756069999989,135.75756069999989,135.75756069999989,135.75756069999989,135.75756069999989,135.75756069999989,135.75756069999989,135.75756069999989,,001,P016,2025_Mar_07_1357,CategoryLocalizer,2021.2.3,59.950205358885334,
14.0,14.8,1,0.75,Stimuli\ImageFiles-Set1\Objects\Object_Peanut_00001.png,1,1,0,5,5,5,,,,,,,,,,,,,14.011148300000059,0.011148300000058953,1,135.95773869999903,135.95773869999903,135.95773869999903,135.95773869999903,135.95773869999903,135.95773869999903,135.95773869999903,135.95773869999903,0.4690231999993557,001,P016,2025_Mar_07_1357,CategoryLocalizer,2021.2.3,59.950205358885334,
14.8,15.0,5,0.0,Stimuli\Blank.png,0,0,0,6,6,6,,,,,,,,,,,,,14.82927859999836,0.029278599998360022,None,136.75843019999957,136.75843019999957,136.75843019999957,136.75843019999957,136.75843019999957,136.75843019999957,136.75843019999957,136.75843019999957,,001,P016,2025_Mar_07_1357,CategoryLocalizer,2021.2.3,59.950205358885334,
15.0,15.8,1,0.75,Stimuli\ImageFiles-Set1\Objects\Object_Brush_00001.png,0,0,0,7,7,7,,,,,,,,,,,,,15.014794099999563,0.014794099999562604,None,136.97531549999985,136.97531549999985,136.97531549999985,136.97531549999985,136.97531549999985,136.97531549999985,136.97531549999985,136.97531549999985,,001,P016,2025_Mar_07_1357,CategoryLocalizer,2021.2.3,59.950205358885334,
15.8,16.0,5,0.0,Stimuli\Blank.png,0,0,0,8,8,8,,,,,,,,,,,,,15.846183400000882,0.04618340000088139,None,137.77600230000098,137.77600230000098,137.77600230000098,137.77600230000098,137.77600230000098,137.77600230000098,137.77600230000098,137.77600230000098,,001,P016,2025_Mar_07_1357,CategoryLocalizer,2021.2.3,59.950205358885334,
16.0,16.8,1,0.75,Stimuli\ImageFiles-Set1\Objects\Object_Screw_00001.png,0,0,0,9,9,9,,,,,,,,,,,,,16.015702799999417,0.01570279999941704,None,137.95950630000152,137.95950630000152,137.95950630000152,137.95950630000152,137.95950630000152,137.95950630000152,137.95950630000152,137.95950630000152,,001,P016,2025_Mar_07_1357,CategoryLocalizer,2021.2.3,59.950205358885334,
16.8,17.0,5,0.0,Stimuli\Blank.png,0,0,0,10,10,10,,,,,,,,,,,,,16.816054899998562,0.016054899998561467,None,138.76020639999842,138.76020639999842,138.76020639999842,138.76020639999842,138.76020639999842,138.76020639999842,138.76020639999842,138.76020639999842,,001,P016,2025_Mar_07_1357,CategoryLocalizer,2021.2.3,59.950205358885334,
17.0,17.8,1,0.75,Stimuli\ImageFiles-Set1\Objects\Object_Door_00001.png,0,0,0,11,11,11,,,,,,,,,,,,,17.01522549999936,0.015225499999360181,None,138.96037589999833,138.96037589999833,138.96037589999833,138.96037589999833,138.96037589999833,138.96037589999833,138.96037589999833,138.96037589999833,,001,P016,2025_Mar_07_1357,CategoryLocalizer,2021.2.3,59.950205358885334,
17.8,18.0,5,0.0,Stimuli\Blank.png,0,0,0,12,12,12,,,,,,,,,,,,,17.815943999998126,0.015943999998125236,None,139.74441339999976,139.74441339999976,139.74441339999976,139.74441339999976,139.74441339999976,139.74441339999976,139.74441339999976,139.74441339999976,,001,P016,2025_Mar_07_1357,CategoryLocalizer,2021.2.3,59.950205358885334,
18.0,18.8,1,0.75,Stimuli\ImageFiles-Set1\Objects\Object_Wagon_00001.png,0,0,0,13,13,13,,,,,,,,,,,,,18.000192999999854,0.00019299999985378236,None,139.9445401999983,139.9445401999983,139.9445401999983,139.9445401999983,139.9445401999983,139.9445401999983,139.9445401999983,139.9445401999983,,001,P016,2025_Mar_07_1357,CategoryLocalizer,2021.2.3,59.950205358885334,
18.8,19.0,5,0.0,Stimuli\Blank.png,0,0,0,14,14,14,,,,,,,,,,,,,18.81577280000056,0.015772800000558362,None,140.74528550000105,140.74528550000105,140.74528550000105,140.74528550000105,140.74528550000105,140.74528550000105,140.74528550000105,140.74528550000105,,001,P016,2025_Mar_07_1357,CategoryLocalizer,2021.2.3,59.950205358885334,
19.0,19.8,1,0.75,Stimuli\ImageFiles-Set1\Objects\Object_Whistle_00001.png,0,0,0,15,15,15,,,,,,,,,,,,,18.999312799998734,-0.0006872000012663193,None,140.94548669999858,140.94548669999858,140.94548669999858,140.94548669999858,140.94548669999858,140.94548669999858,140.94548669999858,140.94548669999858,,001,P016,2025_Mar_07_1357,CategoryLocalizer,2021.2.3,59.950205358885334,
19.8,20.0,5,0.0,Stimuli\Blank.png,0,0,0,16,16,16,,,,,,,,,,,,,19.817187799999374,0.017187799999373254,None,141.7461723999986,141.7461723999986,141.7461723999986,141.7461723999986,141.7461723999986,141.7461723999986,141.7461723999986,141.7461723999986,,001,P016,2025_Mar_07_1357,CategoryLocalizer,2021.2.3,59.950205358885334,
20.0,20.8,1,0.75,Stimuli\ImageFiles-Set1\Objects\Object_Pillow_00001.png,0,0,0,17,17,17,,,,,,,,,,,,,20.000406200000725,0.0004062000007252209,None,141.96307040000102,141.96307040000102,141.96307040000102,141.96307040000102,141.96307040000102,141.96307040000102,141.96307040000102,141.96307040000102,,001,P016,2025_Mar_07_1357,CategoryLocalizer,2021.2.3,59.950205358885334,
20.8,21.0,5,0.0,Stimuli\Blank.png,0,0,0,18,18,18,,,,,,,,,,,,,20.83379839999907,0.03379839999906764,None,142.76371440000003,142.76371440000003,142.76371440000003,142.76371440000003,142.76371440000003,142.76371440000003,142.76371440000003,142.76371440000003,,001,P016,2025_Mar_07_1357,CategoryLocalizer,2021.2.3,59.950205358885334,
21.0,21.8,1,0.75,Stimuli\ImageFiles-Set1\Objects\Object_PepperShaker_00001.png,0,0,0,19,19,19,,,,,,,,,,,,,21.00058689999787,0.000586899997870205,None,142.94727820000116,142.94727820000116,142.94727820000116,142.94727820000116,142.94727820000116,142.94727820000116,142.94727820000116,142.94727820000116,,001,P016,2025_Mar_07_1357,CategoryLocalizer,2021.2.3,59.950205358885334,
21.8,22.0,5,0.0,Stimuli\Blank.png,0,0,0,20,20,20,,,,,,,,,,,,,21.820055299998785,0.020055299998784193,None,143.76463049999802,143.76463049999802,143.76463049999802,143.76463049999802,143.76463049999802,143.76463049999802,143.76463049999802,143.76463049999802,,001,P016,2025_Mar_07_1357,CategoryLocalizer,2021.2.3,59.950205358885334,
22.0,22.8,1,0.75,Stimuli\ImageFiles-Set1\Objects\Object_Dice_00001.png,1,1,0,21,21,21,,,,,,,,,,,,,22.020316499998444,0.02031649999844376,None,143.98149399999966,143.98149399999966,143.98149399999966,143.98149399999966,143.98149399999966,143.98149399999966,143.98149399999966,143.98149399999966,,001,P016,2025_Mar_07_1357,CategoryLocalizer,2021.2.3,59.950205358885334,
22.8,23.0,5,0.0,Stimuli\Blank.png,0,0,0,22,22,22,,,,,,,,,,,,,22.836074099999678,0.036074099999677145,None,144.76551280000058,144.76551280000058,144.76551280000058,144.76551280000058,144.76551280000058,144.76551280000058,144.76551280000058,144.76551280000058,,001,P016,2025_Mar_07_1357,CategoryLocalizer,2021.2.3,59.950205358885334,
23.0,23.8,1,0.75,Stimuli\ImageFiles-Set1\Objects\Object_Recliner_00001.png,0,0,0,23,23,23,,,,,,,,,,,,,23.005102399998577,0.005102399998577312,None,144.94902509999883,144.94902509999883,144.94902509999883,144.94902509999883,144.94902509999883,144.94902509999883,144.94902509999883,144.94902509999883,,001,P016,2025_Mar_07_1357,CategoryLocalizer,2021.2.3,59.950205358885334,
23.8,24.0,5,0.0,Stimuli\Blank.png,0,0,0,24,24,24,,,,,,,,,,,,,23.820314000000508,0.020314000000507093,None,145.7497132999997,145.7497132999997,145.7497132999997,145.7497132999997,145.7497132999997,145.7497132999997,145.7497132999997,145.7497132999997,,001,P016,2025_Mar_07_1357,CategoryLocalizer,2021.2.3,59.950205358885334,
24.0,24.8,1,0.75,Stimuli\ImageFiles-Set1\Objects\Object_Recliner_00001.png,0,0,0,25,25,25,,,,,,,,,,,,,24.00591060000079,0.0059106000007886905,1,145.94991300000038,145.94991300000038,145.94991300000038,145.94991300000038,145.94991300000038,145.94991300000038,145.94991300000038,145.94991300000038,0.41492839999773423,001,P016,2025_Mar_07_1357,CategoryLocalizer,2021.2.3,59.950205358885334,
24.8,25.0,5,0.0,Stimuli\Blank.png,0,0,0,26,26,26,,,,,,,,,,,,,24.82076159999997,0.020761599999968183,None,146.7506050000011,146.7506050000011,146.7506050000011,146.7506050000011,146.7506050000011,146.7506050000011,146.7506050000011,146.7506050000011,,001,P016,2025_Mar_07_1357,CategoryLocalizer,2021.2.3,59.950205358885334,
25.0,25.8,1,0.75,Stimuli\ImageFiles-Set1\Objects\Object_Motorcycle_00001.png,0,0,0,27,27,27,,,,,,,,,,,,,25.004877399998804,0.0048773999988043215,None,146.95076979999794,146.95076979999794,146.95076979999794,146.95076979999794,146.95076979999794,146.95076979999794,146.95076979999794,146.95076979999794,,001,P016,2025_Mar_07_1357,CategoryLocalizer,2021.2.3,59.950205358885334,
25.8,26.0,5,0.0,Stimuli\Blank.png,0,0,0,28,28,28,,,,,,,,,,,,,25.822461199997633,0.02246119999763252,None,147.75148249999984,147.75148249999984,147.75148249999984,147.75148249999984,147.75148249999984,147.75148249999984,147.75148249999984,147.75148249999984,,001,P016,2025_Mar_07_1357,CategoryLocalizer,2021.2.3,59.950205358885334,
26.0,26.8,1,0.75,Stimuli\ImageFiles-Set1\Objects\Object_Glasses_00001.png,0,0,0,29,29,29,,,,,,,,,,,,,26.005097900000692,0.0050979000006918795,None,147.93493450000096,147.93493450000096,147.93493450000096,147.93493450000096,147.93493450000096,147.93493450000096,147.93493450000096,147.93493450000096,,001,P016,2025_Mar_07_1357,CategoryLocalizer,2021.2.3,59.950205358885334,
26.8,27.0,5,0.0,Stimuli\Blank.png,0,0,0,30,30,30,,,,,,,,,,,,,26.80610109999907,0.006101099999067827,None,148.73569470000075,148.73569470000075,148.73569470000075,148.73569470000075,148.73569470000075,148.73569470000075,148.73569470000075,148.73569470000075,,001,P016,2025_Mar_07_1357,CategoryLocalizer,2021.2.3,59.950205358885334,
27.0,27.8,1,0.75,Stimuli\ImageFiles-Set1\Objects\Object_TeaBag_00001.png,0,0,0,31,31,31,,,,,,,,,,,,,27.006880599998112,0.006880599998112302,None,148.93586869999854,148.93586869999854,148.93586869999854,148.93586869999854,148.93586869999854,148.93586869999854,148.93586869999854,148.93586869999854,,001,P016,2025_Mar_07_1357,CategoryLocalizer,2021.2.3,59.950205358885334,
27.8,28.0,5,0.0,Stimuli\Blank.png,0,0,0,32,32,32,,,,,,,,,,,,,27.807432400000835,0.007432400000833894,None,149.7366546000012,149.7366546000012,149.7366546000012,149.7366546000012,149.7366546000012,149.7366546000012,149.7366546000012,149.7366546000012,,001,P016,2025_Mar_07_1357,CategoryLocalizer,2021.2.3,59.950205358885334,
28.0,28.8,2,0.75,Stimuli\ImageFiles-Set1\Bodies\Bodies_Hanging_00006.png,0,0,0,33,33,33,,,,,,,,,,,,,28.007329000000027,0.007329000000027008,None,149.93670930000008,149.93670930000008,149.93670930000008,149.93670930000008,149.93670930000008,149.93670930000008,149.93670930000008,149.93670930000008,,001,P016,2025_Mar_07_1357,CategoryLocalizer,2021.2.3,59.950205358885334,
28.8,29.0,5,0.0,Stimuli\Blank.png,0,0,0,34,34,34,,,,,,,,,,,,,28.80819110000084,0.008191100000839668,None,150.73746499999834,150.73746499999834,150.73746499999834,150.73746499999834,150.73746499999834,150.73746499999834,150.73746499999834,150.73746499999834,,001,P016,2025_Mar_07_1357,CategoryLocalizer,2021.2.3,59.950205358885334,
29.0,29.8,2,0.75,Stimuli\ImageFiles-Set1\Bodies\Bodies_SittingStretch_00002.png,0,0,0,35,35,35,,,,,,,,,,,,,29.009633999998186,0.009633999998186482,None,150.95439389999956,150.95439389999956,150.95439389999956,150.95439389999956,150.95439389999956,150.95439389999956,150.95439389999956,150.95439389999956,,001,P016,2025_Mar_07_1357,CategoryLocalizer,2021.2.3,59.950205358885334,
29.8,30.0,5,0.0,Stimuli\Blank.png,0,0,0,36,36,36,,,,,,,,,,,,,29.825189899998804,0.02518989999880361,None,151.75506659999883,151.75506659999883,151.75506659999883,151.75506659999883,151.75506659999883,151.75506659999883,151.75506659999883,151.75506659999883,,001,P016,2025_Mar_07_1357,CategoryLocalizer,2021.2.3,59.950205358885334,
30.0,30.8,2,0.75,Stimuli\ImageFiles-Set1\Bodies\Bodies_Lunging_00003.png,0,0,0,37,37,37,,,,,,,,,,,,,30.00879939999868,0.008799399998679291,None,151.95524809999915,151.95524809999915,151.95524809999915,151.95524809999915,151.95524809999915,151.95524809999915,151.95524809999915,151.95524809999915,,001,P016,2025_Mar_07_1357,CategoryLocalizer,2021.2.3,59.950205358885334,
30.8,31.0,5,0.0,Stimuli\Blank.png,0,0,0,38,38,38,,,,,,,,,,,,,30.82596569999805,0.025965699998049985,None,152.75590620000003,152.75590620000003,152.75590620000003,152.75590620000003,152.75590620000003,152.75590620000003,152.75590620000003,152.75590620000003,,001,P016,2025_Mar_07_1357,CategoryLocalizer,2021.2.3,59.950205358885334,
31.0,31.8,2,0.75,Stimuli\ImageFiles-Set1\Bodies\Bodies_Crawling_00006.png,0,0,0,39,39,39,,,,,,,,,,,,,31.01075619999756,0.010756199997558724,None,152.95608229999925,152.95608229999925,152.95608229999925,152.95608229999925,152.95608229999925,152.95608229999925,152.95608229999925,152.95608229999925,,001,P016,2025_Mar_07_1357,CategoryLocalizer,2021.2.3,59.950205358885334,
31.8,32.0,5,0.0,Stimuli\Blank.png,0,0,0,40,40,40,,,,,,,,,,,,,31.829684299998917,0.029684299998915975,None,153.77349279999908,153.77349279999908,153.77349279999908,153.77349279999908,153.77349279999908,153.77349279999908,153.77349279999908,153.77349279999908,,001,P016,2025_Mar_07_1357,CategoryLocalizer,2021.2.3,59.950205358885334,
32.0,32.8,2,0.75,Stimuli\ImageFiles-Set1\Bodies\Bodies_Kneeling_00005.png,0,0,0,41,41,41,,,,,,,,,,,,,32.02708559999883,0.027085599998827092,None,153.97365329999957,153.97365329999957,153.97365329999957,153.97365329999957,153.97365329999957,153.97365329999957,153.97365329999957,153.97365329999957,,001,P016,2025_Mar_07_1357,CategoryLocalizer,2021.2.3,59.950205358885334,
32.8,33.0,5,0.0,Stimuli\Blank.png,0,0,0,42,42,42,,,,,,,,,,,,,32.83005779999803,0.030057799998033374,None,154.77437559999817,154.77437559999817,154.77437559999817,154.77437559999817,154.77437559999817,154.77437559999817,154.77437559999817,154.77437559999817,,001,P016,2025_Mar_07_1357,CategoryLocalizer,2021.2.3,59.950205358885334,
33.0,33.8,2,0.75,Stimuli\ImageFiles-Set1\Bodies\Bodies_Kicking_00007.png,0,0,0,43,43,43,,,,,,,,,,,,,33.0298088999989,0.029808899998897687,None,154.97453269999824,154.97453269999824,154.97453269999824,154.97453269999824,154.97453269999824,154.97453269999824,154.97453269999824,154.97453269999824,,001,P016,2025_Mar_07_1357,CategoryLocalizer,2021.2.3,59.950205358885334,
33.8,34.0,5,0.0,Stimuli\Blank.png,0,0,0,44,44,44,,,,,,,,,,,,,33.82937669999956,0.02937669999955972,None,155.75856399999975,155.75856399999975,155.75856399999975,155.75856399999975,155.75856399999975,155.75856399999975,155.75856399999975,155.75856399999975,,001,P016,2025_Mar_07_1357,CategoryLocalizer,2021.2.3,59.950205358885334,
34.0,34.8,2,0.75,Stimuli\ImageFiles-Set1\Bodies\Bodies_Hanging_00002.png,0,0,0,45,45,45,,,,,,,,,,,,,34.012141999999585,0.012141999999585096,None,155.95873239999855,155.95873239999855,155.95873239999855,155.95873239999855,155.95873239999855,155.95873239999855,155.95873239999855,155.95873239999855,,001,P016,2025_Mar_07_1357,CategoryLocalizer,2021.2.3,59.950205358885334,
34.8,35.0,5,0.0,Stimuli\Blank.png,0,0,0,46,46,46,,,,,,,,,,,,,34.83091009999771,0.030910099997711882,None,156.75945090000096,156.75945090000096,156.75945090000096,156.75945090000096,156.75945090000096,156.75945090000096,156.75945090000096,156.75945090000096,,001,P016,2025_Mar_07_1357,CategoryLocalizer,2021.2.3,59.950205358885334,
35.0,35.8,2,0.75,Stimuli\ImageFiles-Set1\Bodies\Bodies_SittingChair_00001.png,0,0,0,47,47,47,,,,,,,,,,,,,35.01362629999858,0.013626299998577451,None,156.95963370000027,156.95963370000027,156.95963370000027,156.95963370000027,156.95963370000027,156.95963370000027,156.95963370000027,156.95963370000027,,001,P016,2025_Mar_07_1357,CategoryLocalizer,2021.2.3,59.950205358885334,
35.8,36.0,5,0.0,Stimuli\Blank.png,0,0,0,48,48,48,,,,,,,,,,,,,35.830941399999574,0.030941399999576902,None,157.76033059999827,157.76033059999827,157.76033059999827,157.76033059999827,157.76033059999827,157.76033059999827,157.76033059999827,157.76033059999827,,001,P016,2025_Mar_07_1357,CategoryLocalizer,2021.2.3,59.950205358885334,
36.0,36.8,2,0.75,Stimuli\ImageFiles-Set1\Bodies\Bodies_Kneeling_00007.png,0,0,0,49,49,49,,,,,,,,,,,,,36.01456150000013,0.014561500000127126,None,157.97722200000135,157.97722200000135,157.97722200000135,157.97722200000135,157.97722200000135,157.97722200000135,157.97722200000135,157.97722200000135,,001,P016,2025_Mar_07_1357,CategoryLocalizer,2021.2.3,59.950205358885334,
36.8,37.0,5,0.0,Stimuli\Blank.png,0,0,0,50,50,50,,,,,,,,,,,,,36.84824909999952,0.04824909999952354,None,158.77790729999833,158.77790729999833,158.77790729999833,158.77790729999833,158.77790729999833,158.77790729999833,158.77790729999833,158.77790729999833,,001,P016,2025_Mar_07_1357,CategoryLocalizer,2021.2.3,59.950205358885334,
37.0,37.8,2,0.75,Stimuli\ImageFiles-Set1\Bodies\Bodies_SittingChair_00007.png,0,0,0,51,51,51,,,,,,,,,,,,,37.01558379999915,0.01558379999914905,None,158.96139369999946,158.96139369999946,158.96139369999946,158.96139369999946,158.96139369999946,158.96139369999946,158.96139369999946,158.96139369999946,,001,P016,2025_Mar_07_1357,CategoryLocalizer,2021.2.3,59.950205358885334,
37.8,38.0,5,0.0,Stimuli\Blank.png,0,0,0,52,52,52,,,,,,,,,,,,,37.81636770000114,0.016367700001140406,None,159.74542569999903,159.74542569999903,159.74542569999903,159.74542569999903,159.74542569999903,159.74542569999903,159.74542569999903,159.74542569999903,,001,P016,2025_Mar_07_1357,CategoryLocalizer,2021.2.3,59.950205358885334,
38.0,38.8,2,0.75,Stimuli\ImageFiles-Set1\Bodies\Bodies_DownwardDog_00006.png,0,0,0,53,53,53,,,,,,,,,,,,,38.00060559999838,0.0006055999983800575,None,159.94555639999817,159.94555639999817,159.94555639999817,159.94555639999817,159.94555639999817,159.94555639999817,159.94555639999817,159.94555639999817,,001,P016,2025_Mar_07_1357,CategoryLocalizer,2021.2.3,59.950205358885334,
38.8,39.0,5,0.0,Stimuli\Blank.png,0,0,0,54,54,54,,,,,,,,,,,,,38.816400600000634,0.0164006000006367,None,160.74630270000125,160.74630270000125,160.74630270000125,160.74630270000125,160.74630270000125,160.74630270000125,160.74630270000125,160.74630270000125,,001,P016,2025_Mar_07_1357,CategoryLocalizer,2021.2.3,59.950205358885334,
39.0,39.8,2,0.75,Stimuli\ImageFiles-Set1\Bodies\Bodies_DownwardDog_00006.png,1,1,0,55,55,55,,,,,,,,,,,,,39.001088599998184,0.0010885999981837813,1,160.9464192000014,160.9464192000014,160.9464192000014,160.9464192000014,160.9464192000014,160.9464192000014,160.9464192000014,160.9464192000014,0.7023719000026176,001,P016,2025_Mar_07_1357,CategoryLocalizer,2021.2.3,59.950205358885334,
39.8,40.0,5,0.0,Stimuli\Blank.png,0,0,0,56,56,56,,,,,,,,,,,,,39.817487000000256,0.01748700000025849,None,161.74717779999992,161.74717779999992,161.74717779999992,161.74717779999992,161.74717779999992,161.74717779999992,161.74717779999992,161.74717779999992,,001,P016,2025_Mar_07_1357,CategoryLocalizer,2021.2.3,59.950205358885334,
40.0,40.8,2,0.75,Stimuli\ImageFiles-Set1\Bodies\Bodies_Walking_00002.png,0,0,0,57,57,57,,,,,,,,,,,,,40.00101689999792,0.0010168999979214277,None,161.96404460000122,161.96404460000122,161.96404460000122,161.96404460000122,161.96404460000122,161.96404460000122,161.96404460000122,161.96404460000122,,001,P016,2025_Mar_07_1357,CategoryLocalizer,2021.2.3,59.950205358885334,
40.8,41.0,5,0.0,Stimuli\Blank.png,0,0,0,58,58,58,,,,,,,,,,,,,40.83616830000028,0.03616830000028415,None,162.7647537999983,162.7647537999983,162.7647537999983,162.7647537999983,162.7647537999983,162.7647537999983,162.7647537999983,162.7647537999983,,001,P016,2025_Mar_07_1357,CategoryLocalizer,2021.2.3,59.950205358885334,
41.0,41.8,2,0.75,Stimuli\ImageFiles-Set1\Bodies\Bodies_CobraPose_00005.png,0,0,0,59,59,59,,,,,,,,,,,,,41.001629300000786,0.0016293000007863156,None,162.94824979999976,162.94824979999976,162.94824979999976,162.94824979999976,162.94824979999976,162.94824979999976,162.94824979999976,162.94824979999976,,001,P016,2025_Mar_07_1357,CategoryLocalizer,2021.2.3,59.950205358885334,
41.8,42.0,5,0.0,Stimuli\Blank.png,0,0,0,60,60,60,,,,,,,,,,,,,41.82064159999936,0.020641599999365212,None,163.74896539999827,163.74896539999827,163.74896539999827,163.74896539999827,163.74896539999827,163.74896539999827,163.74896539999827,163.74896539999827,,001,P016,2025_Mar_07_1357,CategoryLocalizer,2021.2.3,59.950205358885334,
42.0,42.8,2,0.75,Stimuli\ImageFiles-Set1\Bodies\Bodies_SittingFloor_00003.png,0,0,0,61,61,61,,,,,,,,,,,,,42.002666299998964,0.00266629999896395,None,163.93241660000058,163.93241660000058,163.93241660000058,163.93241660000058,163.93241660000058,163.93241660000058,163.93241660000058,163.93241660000058,,001,P016,2025_Mar_07_1357,CategoryLocalizer,2021.2.3,59.950205358885334,
42.8,43.0,5,0.0,Stimuli\Blank.png,0,0,0,62,62,62,,,,,,,,,,,,,42.805077099998016,0.0050770999980187526,None,164.74985300000117,164.74985300000117,164.74985300000117,164.74985300000117,164.74985300000117,164.74985300000117,164.74985300000117,164.74985300000117,,001,P016,2025_Mar_07_1357,CategoryLocalizer,2021.2.3,59.950205358885334,
43.0,43.8,2,0.75,Stimuli\ImageFiles-Set1\Bodies\Bodies_Standing_00003.png,0,0,0,63,63,63,,,,,,,,,,,,,43.02119419999872,0.021194199998717522,None,164.9667120999984,164.9667120999984,164.9667120999984,164.9667120999984,164.9667120999984,164.9667120999984,164.9667120999984,164.9667120999984,,001,P016,2025_Mar_07_1357,CategoryLocalizer,2021.2.3,59.950205358885334,
43.8,44.0,5,0.0,Stimuli\Blank.png,0,0,0,64,64,64,,,,,,,,,,,,,43.82079529999828,0.020795299998283667,None,165.75072290000026,165.75072290000026,165.75072290000026,165.75072290000026,165.75072290000026,165.75072290000026,165.75072290000026,165.75072290000026,,001,P016,2025_Mar_07_1357,CategoryLocalizer,2021.2.3,59.950205358885334,
44.0,44.8,3,0.75,Stimuli\ImageFiles-Set1\Faces\Face_00079.png,0,0,0,65,65,65,,,,,,,,,,,,,44.00503539999772,0.005035399997723289,None,165.95092049999948,165.95092049999948,165.95092049999948,165.95092049999948,165.95092049999948,165.95092049999948,165.95092049999948,165.95092049999948,,001,P016,2025_Mar_07_1357,CategoryLocalizer,2021.2.3,59.950205358885334,
44.8,45.0,5,0.0,Stimuli\Blank.png,0,0,0,66,66,66,,,,,,,,,,,,,44.82178270000077,0.021782700000770205,None,166.75157860000036,166.75157860000036,166.75157860000036,166.75157860000036,166.75157860000036,166.75157860000036,166.75157860000036,166.75157860000036,,001,P016,2025_Mar_07_1357,CategoryLocalizer,2021.2.3,59.950205358885334,
45.0,45.8,3,0.75,Stimuli\ImageFiles-Set1\Faces\Face_00045.png,0,0,0,67,67,67,,,,,,,,,,,,,45.005765599998995,0.00576559999899473,None,166.96850519999862,166.96850519999862,166.96850519999862,166.96850519999862,166.96850519999862,166.96850519999862,166.96850519999862,166.96850519999862,,001,P016,2025_Mar_07_1357,CategoryLocalizer,2021.2.3,59.950205358885334,
45.8,46.0,5,0.0,Stimuli\Blank.png,0,0,0,68,68,68,,,,,,,,,,,,,45.839634100000694,0.039634100000697,None,167.76917179999873,167.76917179999873,167.76917179999873,167.76917179999873,167.76917179999873,167.76917179999873,167.76917179999873,167.76917179999873,,001,P016,2025_Mar_07_1357,CategoryLocalizer,2021.2.3,59.950205358885334,
46.0,46.8,3,0.75,Stimuli\ImageFiles-Set1\Faces\Face_00077.png,0,0,0,69,69,69,,,,,,,,,,,,,46.00706309999805,0.007063099998049438,None,167.96936310000092,167.96936310000092,167.96936310000092,167.96936310000092,167.96936310000092,167.96936310000092,167.96936310000092,167.96936310000092,,001,P016,2025_Mar_07_1357,CategoryLocalizer,2021.2.3,59.950205358885334,
46.8,47.0,5,0.0,Stimuli\Blank.png,0,0,0,70,70,70,,,,,,,,,,,,,46.84027040000001,0.040270400000011364,None,168.77006719999918,168.77006719999918,168.77006719999918,168.77006719999918,168.77006719999918,168.77006719999918,168.77006719999918,168.77006719999918,,001,P016,2025_Mar_07_1357,CategoryLocalizer,2021.2.3,59.950205358885334,
47.0,47.8,3,0.75,Stimuli\ImageFiles-Set1\Faces\Face_00085.png,0,0,0,71,71,71,,,,,,,,,,,,,47.00986279999779,0.009862799997790717,None,168.95356710000124,168.95356710000124,168.95356710000124,168.95356710000124,168.95356710000124,168.95356710000124,168.95356710000124,168.95356710000124,,001,P016,2025_Mar_07_1357,CategoryLocalizer,2021.2.3,59.950205358885334,
47.8,48.0,5,0.0,Stimuli\Blank.png,0,0,0,72,72,72,,,,,,,,,,,,,47.824940499998775,0.024940499998777454,None,169.7542672999989,169.7542672999989,169.7542672999989,169.7542672999989,169.7542672999989,169.7542672999989,169.7542672999989,169.7542672999989,,001,P016,2025_Mar_07_1357,CategoryLocalizer,2021.2.3,59.950205358885334,
48.0,48.8,3,0.75,Stimuli\ImageFiles-Set1\Faces\Face_00097.png,0,0,0,73,73,73,,,,,,,,,,,,,48.00995319999856,0.009953199998562923,None,169.9711212000002,169.9711212000002,169.9711212000002,169.9711212000002,169.9711212000002,169.9711212000002,169.9711212000002,169.9711212000002,,001,P016,2025_Mar_07_1357,CategoryLocalizer,2021.2.3,59.950205358885334,
48.8,49.0,5,0.0,Stimuli\Blank.png,0,0,0,74,74,74,,,,,,,,,,,,,48.84201539999776,0.04201539999776571,None,170.77183119999972,170.77183119999972,170.77183119999972,170.77183119999972,170.77183119999972,170.77183119999972,170.77183119999972,170.77183119999972,,001,P016,2025_Mar_07_1357,CategoryLocalizer,2021.2.3,59.950205358885334,
49.0,49.8,3,0.75,Stimuli\ImageFiles-Set1\Faces\Face_00097.png,1,1,0,75,75,75,,,,,,,,,,,,,49.009305999999924,0.009305999999924097,1,170.9553440999989,170.9553440999989,170.9553440999989,170.9553440999989,170.9553440999989,170.9553440999989,170.9553440999989,170.9553440999989,0.523493700002291,001,P016,2025_Mar_07_1357,CategoryLocalizer,2021.2.3,59.950205358885334,
49.8,50.0,5,0.0,Stimuli\Blank.png,0,0,0,76,76,76,,,,,,,,,,,,,49.82631499999843,0.026314999998433564,None,171.75603480000063,171.75603480000063,171.75603480000063,171.75603480000063,171.75603480000063,171.75603480000063,171.75603480000063,171.75603480000063,,001,P016,2025_Mar_07_1357,CategoryLocalizer,2021.2.3,59.950205358885334,
50.0,50.8,3,0.75,Stimuli\ImageFiles-Set1\Faces\Face_00053.png,0,0,0,77,77,77,,,,,,,,,,,,,50.01093530000071,0.010935300000710413,None,171.95623390000037,171.95623390000037,171.95623390000037,171.95623390000037,171.95623390000037,171.95623390000037,171.95623390000037,171.95623390000037,,001,P016,2025_Mar_07_1357,CategoryLocalizer,2021.2.3,59.950205358885334,
50.8,51.0,5,0.0,Stimuli\Blank.png,0,0,0,78,78,78,,,,,,,,,,,,,50.830497599999944,0.030497599999947056,None,172.77365419999842,172.77365419999842,172.77365419999842,172.77365419999842,172.77365419999842,172.77365419999842,172.77365419999842,172.77365419999842,,001,P016,2025_Mar_07_1357,CategoryLocalizer,2021.2.3,59.950205358885334,
51.0,51.8,3,0.75,Stimuli\ImageFiles-Set1\Faces\Face_00024.png,0,0,0,79,79,79,,,,,,,,,,,,,51.02765599999839,0.027655999998387415,None,172.97377159999814,172.97377159999814,172.97377159999814,172.97377159999814,172.97377159999814,172.97377159999814,172.97377159999814,172.97377159999814,,001,P016,2025_Mar_07_1357,CategoryLocalizer,2021.2.3,59.950205358885334,
51.8,52.0,5,0.0,Stimuli\Blank.png,0,0,0,80,80,80,,,,,,,,,,,,,51.829208299997845,0.029208299997847575,None,173.75781709999865,173.75781709999865,173.75781709999865,173.75781709999865,173.75781709999865,173.75781709999865,173.75781709999865,173.75781709999865,,001,P016,2025_Mar_07_1357,CategoryLocalizer,2021.2.3,59.950205358885334,
52.0,52.8,3,0.75,Stimuli\ImageFiles-Set1\Faces\Face_00063.png,1,1,0,81,81,81,,,,,,,,,,,,,52.011445000000094,0.011445000000094296,None,173.94126020000112,173.94126020000112,173.94126020000112,173.94126020000112,173.94126020000112,173.94126020000112,173.94126020000112,173.94126020000112,,001,P016,2025_Mar_07_1357,CategoryLocalizer,2021.2.3,59.950205358885334,
52.8,53.0,5,0.0,Stimuli\Blank.png,0,0,0,82,82,82,,,,,,,,,,,,,52.812061199998425,0.012061199998427696,None,174.74199959999896,174.74199959999896,174.74199959999896,174.74199959999896,174.74199959999896,174.74199959999896,174.74199959999896,174.74199959999896,,001,P016,2025_Mar_07_1357,CategoryLocalizer,2021.2.3,59.950205358885334,
53.0,53.8,3,0.75,Stimuli\ImageFiles-Set1\Faces\Face_00035.png,0,0,0,83,83,83,,,,,,,,,,,,,53.01467309999862,0.014673099998617545,None,174.95894879999832,174.95894879999832,174.95894879999832,174.95894879999832,174.95894879999832,174.95894879999832,174.95894879999832,174.95894879999832,,001,P016,2025_Mar_07_1357,CategoryLocalizer,2021.2.3,59.950205358885334,
53.8,54.0,5,0.0,Stimuli\Blank.png,0,0,0,84,84,84,,,,,,,,,,,,,53.830321900000854,0.030321900000856772,None,175.75959389999844,175.75959389999844,175.75959389999844,175.75959389999844,175.75959389999844,175.75959389999844,175.75959389999844,175.75959389999844,,001,P016,2025_Mar_07_1357,CategoryLocalizer,2021.2.3,59.950205358885334,
54.0,54.8,3,0.75,Stimuli\ImageFiles-Set1\Faces\Face_00035.png,0,0,0,85,85,85,,,,,,,,,,,,,54.0140012999982,0.014001299998199102,1,175.9597513999979,175.9597513999979,175.9597513999979,175.9597513999979,175.9597513999979,175.9597513999979,175.9597513999979,175.9597513999979,0.48004799999762326,001,P016,2025_Mar_07_1357,CategoryLocalizer,2021.2.3,59.950205358885334,
54.8,55.0,5,0.0,Stimuli\Blank.png,0,0,0,86,86,86,,,,,,,,,,,,,54.83163499999864,0.031634999998644275,None,176.76046700000006,176.76046700000006,176.76046700000006,176.76046700000006,176.76046700000006,176.76046700000006,176.76046700000006,176.76046700000006,,001,P016,2025_Mar_07_1357,CategoryLocalizer,2021.2.3,59.950205358885334,
55.0,55.8,3,0.75,Stimuli\ImageFiles-Set1\Faces\Face_00051.png,0,0,0,87,87,87,,,,,,,,,,,,,55.01469899999938,0.014698999999382067,None,176.96063660000073,176.96063660000073,176.96063660000073,176.96063660000073,176.96063660000073,176.96063660000073,176.96063660000073,176.96063660000073,,001,P016,2025_Mar_07_1357,CategoryLocalizer,2021.2.3,59.950205358885334,
55.8,56.0,5,0.0,Stimuli\Blank.png,0,0,0,88,88,88,,,,,,,,,,,,,55.83143220000056,0.03143220000056601,None,177.7613452000005,177.7613452000005,177.7613452000005,177.7613452000005,177.7613452000005,177.7613452000005,177.7613452000005,177.7613452000005,,001,P016,2025_Mar_07_1357,CategoryLocalizer,2021.2.3,59.950205358885334,
56.0,56.8,3,0.75,Stimuli\ImageFiles-Set1\Faces\Face_00001.png,0,0,0,89,89,89,,,,,,,,,,,,,56.01497929999823,0.014979299998231,None,177.96149719999812,177.96149719999812,177.96149719999812,177.96149719999812,177.96149719999812,177.96149719999812,177.96149719999812,177.96149719999812,,001,P016,2025_Mar_07_1357,CategoryLocalizer,2021.2.3,59.950205358885334,
56.8,57.0,5,0.0,Stimuli\Blank.png,0,0,0,90,90,90,,,,,,,,,,,,,56.81615790000069,0.016157900000692393,None,178.74556519999896,178.74556519999896,178.74556519999896,178.74556519999896,178.74556519999896,178.74556519999896,178.74556519999896,178.74556519999896,,001,P016,2025_Mar_07_1357,CategoryLocalizer,2021.2.3,59.950205358885334,
57.0,57.8,3,0.75,Stimuli\ImageFiles-Set1\Faces\Face_00003.png,0,0,0,91,91,91,,,,,,,,,,,,,56.99974719999955,-0.000252800000453135,None,178.96243699999832,178.96243699999832,178.96243699999832,178.96243699999832,178.96243699999832,178.96243699999832,178.96243699999832,178.96243699999832,,001,P016,2025_Mar_07_1357,CategoryLocalizer,2021.2.3,59.950205358885334,
57.8,58.0,5,0.0,Stimuli\Blank.png,0,0,0,92,92,92,,,,,,,,,,,,,57.83503589999964,0.03503589999964163,None,179.7631818000009,179.7631818000009,179.7631818000009,179.7631818000009,179.7631818000009,179.7631818000009,179.7631818000009,179.7631818000009,,001,P016,2025_Mar_07_1357,CategoryLocalizer,2021.2.3,59.950205358885334,
58.0,58.8,3,0.75,Stimuli\ImageFiles-Set1\Faces\Face_00067.png,0,0,0,93,93,93,,,,,,,,,,,,,58.000082399998064,8.239999806392007e-05,None,179.9633145000007,179.9633145000007,179.9633145000007,179.9633145000007,179.9633145000007,179.9633145000007,179.9633145000007,179.9633145000007,,001,P016,2025_Mar_07_1357,CategoryLocalizer,2021.2.3,59.950205358885334,
58.8,59.0,5,0.0,Stimuli\Blank.png,0,0,0,94,94,94,,,,,,,,,,,,,58.83512789999804,0.03512789999804511,None,180.76400419999845,180.76400419999845,180.76400419999845,180.76400419999845,180.76400419999845,180.76400419999845,180.76400419999845,180.76400419999845,,001,P016,2025_Mar_07_1357,CategoryLocalizer,2021.2.3,59.950205358885334,
59.0,59.8,3,0.75,Stimuli\ImageFiles-Set1\Faces\Face_00043.png,0,0,0,95,95,95,,,,,,,,,,,,,59.001832699999795,0.0018326999997952953,None,180.94749370000136,180.94749370000136,180.94749370000136,180.94749370000136,180.94749370000136,180.94749370000136,180.94749370000136,180.94749370000136,,001,P016,2025_Mar_07_1357,CategoryLocalizer,2021.2.3,59.950205358885334,
59.8,60.0,5,0.0,Stimuli\Blank.png,0,0,0,96,96,96,,,,,,,,,,,,,59.819995999998355,0.01999599999835766,None,181.76489610000135,181.76489610000135,181.76489610000135,181.76489610000135,181.76489610000135,181.76489610000135,181.76489610000135,181.76489610000135,,001,P016,2025_Mar_07_1357,CategoryLocalizer,2021.2.3,59.950205358885334,
60.0,60.8,4,0.75,Stimuli\ImageFiles-Set1\Scenes\Scenes_008.png,0,0,0,97,97,97,,,,,,,,,,,,,60.020725800000946,0.020725800000946037,None,181.98178270000062,181.98178270000062,181.98178270000062,181.98178270000062,181.98178270000062,181.98178270000062,181.98178270000062,181.98178270000062,,001,P016,2025_Mar_07_1357,CategoryLocalizer,2021.2.3,59.950205358885334,
60.8,61.0,5,0.0,Stimuli\Blank.png,0,0,0,98,98,98,,,,,,,,,,,,,60.836638500000845,0.036638500000847785,None,182.76576489999934,182.76576489999934,182.76576489999934,182.76576489999934,182.76576489999934,182.76576489999934,182.76576489999934,182.76576489999934,,001,P016,2025_Mar_07_1357,CategoryLocalizer,2021.2.3,59.950205358885334,
61.0,61.8,4,0.75,Stimuli\ImageFiles-Set1\Scenes\Scenes_033.png,0,0,0,99,99,99,,,,,,,,,,,,,61.0050768000001,0.005076800000097137,None,182.96599140000035,182.96599140000035,182.96599140000035,182.96599140000035,182.96599140000035,182.96599140000035,182.96599140000035,182.96599140000035,,001,P016,2025_Mar_07_1357,CategoryLocalizer,2021.2.3,59.950205358885334,
61.8,62.0,5,0.0,Stimuli\Blank.png,0,0,0,100,100,100,,,,,,,,,,,,,61.83683889999884,0.03683889999884116,None,183.76665489999868,183.76665489999868,183.76665489999868,183.76665489999868,183.76665489999868,183.76665489999868,183.76665489999868,183.76665489999868,,001,P016,2025_Mar_07_1357,CategoryLocalizer,2021.2.3,59.950205358885334,
62.0,62.8,4,0.75,Stimuli\ImageFiles-Set1\Scenes\Scenes_036.png,0,0,0,101,101,101,,,,,,,,,,,,,62.005988299999444,0.00598829999944428,None,183.96684280000045,183.96684280000045,183.96684280000045,183.96684280000045,183.96684280000045,183.96684280000045,183.96684280000045,183.96684280000045,,001,P016,2025_Mar_07_1357,CategoryLocalizer,2021.2.3,59.950205358885334,
62.8,63.0,5,0.0,Stimuli\Blank.png,0,0,0,102,102,102,,,,,,,,,,,,,62.83952689999933,0.03952689999933057,None,184.78423869999824,184.78423869999824,184.78423869999824,184.78423869999824,184.78423869999824,184.78423869999824,184.78423869999824,184.78423869999824,,001,P016,2025_Mar_07_1357,CategoryLocalizer,2021.2.3,59.950205358885334,
63.0,63.8,4,0.75,Stimuli\ImageFiles-Set1\Scenes\Scenes_036.png,1,1,0,103,103,103,,,,,,,,,,,,,63.02114799999981,0.021147999999811873,1,184.95103639999797,184.95103639999797,184.95103639999797,184.95103639999797,184.95103639999797,184.95103639999797,184.95103639999797,184.95103639999797,0.3566824999979872,001,P016,2025_Mar_07_1357,CategoryLocalizer,2021.2.3,59.950205358885334,
63.8,64.0,5,0.0,Stimuli\Blank.png,0,0,0,104,104,104,,,,,,,,,,,,,63.80586849999963,0.005868499999635901,None,185.7351106999995,185.7351106999995,185.7351106999995,185.7351106999995,185.7351106999995,185.7351106999995,185.7351106999995,185.7351106999995,,001,P016,2025_Mar_07_1357,CategoryLocalizer,2021.2.3,59.950205358885334,
64.0,64.8,4,0.75,Stimuli\ImageFiles-Set1\Scenes\Scenes_037.png,0,0,0,105,105,105,,,,,,,,,,,,,64.00550310000108,0.005503100001078565,None,185.9518876000002,185.9518876000002,185.9518876000002,185.9518876000002,185.9518876000002,185.9518876000002,185.9518876000002,185.9518876000002,,001,P016,2025_Mar_07_1357,CategoryLocalizer,2021.2.3,59.950205358885334,
64.8,65.0,5,0.0,Stimuli\Blank.png,0,0,0,106,106,106,,,,,,,,,,,,,64.82505409999794,0.025054099997944945,None,186.76931599999807,186.76931599999807,186.76931599999807,186.76931599999807,186.76931599999807,186.76931599999807,186.76931599999807,186.76931599999807,,001,P016,2025_Mar_07_1357,CategoryLocalizer,2021.2.3,59.950205358885334,
65.0,65.8,4,0.75,Stimuli\ImageFiles-Set1\Scenes\Scenes_034.png,0,0,0,107,107,107,,,,,,,,,,,,,65.02432530000078,0.02432530000078259,None,186.96948110000085,186.96948110000085,186.96948110000085,186.96948110000085,186.96948110000085,186.96948110000085,186.96948110000085,186.96948110000085,,001,P016,2025_Mar_07_1357,CategoryLocalizer,2021.2.3,59.950205358885334,
65.8,66.0,5,0.0,Stimuli\Blank.png,0,0,0,108,108,108,,,,,,,,,,,,,65.8245954999984,0.02459549999839794,None,187.75351809999847,187.75351809999847,187.75351809999847,187.75351809999847,187.75351809999847,187.75351809999847,187.75351809999847,187.75351809999847,,001,P016,2025_Mar_07_1357,CategoryLocalizer,2021.2.3,59.950205358885334,
66.0,66.8,4,0.75,Stimuli\ImageFiles-Set1\Scenes\Scenes_015.png,0,0,0,109,109,109,,,,,,,,,,,,,66.00762109999778,0.007621099997777492,None,187.97036909999952,187.97036909999952,187.97036909999952,187.97036909999952,187.97036909999952,187.97036909999952,187.97036909999952,187.97036909999952,,001,P016,2025_Mar_07_1357,CategoryLocalizer,2021.2.3,59.950205358885334,
66.8,67.0,5,0.0,Stimuli\Blank.png,0,0,0,110,110,110,,,,,,,,,,,,,66.84169589999874,0.0416958999987429,None,188.7710748999998,188.7710748999998,188.7710748999998,188.7710748999998,188.7710748999998,188.7710748999998,188.7710748999998,188.7710748999998,,001,P016,2025_Mar_07_1357,CategoryLocalizer,2021.2.3,59.950205358885334,
67.0,67.8,4,0.75,Stimuli\ImageFiles-Set1\Scenes\Scenes_044.png,0,0,0,111,111,111,,,,,,,,,,,,,67.00994720000017,0.009947200000169687,None,188.97125279999818,188.97125279999818,188.97125279999818,188.97125279999818,188.97125279999818,188.97125279999818,188.97125279999818,188.97125279999818,,001,P016,2025_Mar_07_1357,CategoryLocalizer,2021.2.3,59.950205358885334,
67.8,68.0,5,0.0,Stimuli\Blank.png,0,0,0,112,112,112,,,,,,,,,,,,,67.84265479999885,0.04265479999885713,None,189.77197159999923,189.77197159999923,189.77197159999923,189.77197159999923,189.77197159999923,189.77197159999923,189.77197159999923,189.77197159999923,,001,P016,2025_Mar_07_1357,CategoryLocalizer,2021.2.3,59.950205358885334,
68.0,68.8,4,0.75,Stimuli\ImageFiles-Set1\Scenes\Scenes_014.png,0,0,0,113,113,113,,,,,,,,,,,,,68.00901209999938,0.009012099999381462,None,189.955453999999,189.955453999999,189.955453999999,189.955453999999,189.955453999999,189.955453999999,189.955453999999,189.955453999999,,001,P016,2025_Mar_07_1357,CategoryLocalizer,2021.2.3,59.950205358885334,
68.8,69.0,5,0.0,Stimuli\Blank.png,0,0,0,114,114,114,,,,,,,,,,,,,68.82644900000014,0.02644900000014161,None,190.75615800000014,190.75615800000014,190.75615800000014,190.75615800000014,190.75615800000014,190.75615800000014,190.75615800000014,190.75615800000014,,001,P016,2025_Mar_07_1357,CategoryLocalizer,2021.2.3,59.950205358885334,
69.0,69.8,4,0.75,Stimuli\ImageFiles-Set1\Scenes\Scenes_047.png,1,1,0,115,115,115,,,,,,,,,,,,,69.01071279999815,0.010712799998145783,None,190.95635089999996,190.95635089999996,190.95635089999996,190.95635089999996,190.95635089999996,190.95635089999996,190.95635089999996,190.95635089999996,,001,P016,2025_Mar_07_1357,CategoryLocalizer,2021.2.3,59.950205358885334,
69.8,70.0,5,0.0,Stimuli\Blank.png,0,0,0,116,116,116,,,,,,,,,,,,,69.82745539999814,0.02745539999814639,None,191.75702349999847,191.75702349999847,191.75702349999847,191.75702349999847,191.75702349999847,191.75702349999847,191.75702349999847,191.75702349999847,,001,P016,2025_Mar_07_1357,CategoryLocalizer,2021.2.3,59.950205358885334,
70.0,70.8,4,0.75,Stimuli\ImageFiles-Set1\Scenes\Scenes_016.png,0,0,0,117,117,117,,,,,,,,,,,,,70.01141809999899,0.011418099998991238,None,191.97390649999943,191.97390649999943,191.97390649999943,191.97390649999943,191.97390649999943,191.97390649999943,191.97390649999943,191.97390649999943,,001,P016,2025_Mar_07_1357,CategoryLocalizer,2021.2.3,59.950205358885334,
70.8,71.0,5,0.0,Stimuli\Blank.png,0,0,0,118,118,118,,,,,,,,,,,,,70.84574409999914,0.04574409999914053,None,192.77462229999946,192.77462229999946,192.77462229999946,192.77462229999946,192.77462229999946,192.77462229999946,192.77462229999946,192.77462229999946,,001,P016,2025_Mar_07_1357,CategoryLocalizer,2021.2.3,59.950205358885334,
71.0,71.8,4,0.75,Stimuli\ImageFiles-Set1\Scenes\Scenes_016.png,0,0,0,119,119,119,,,,,,,,,,,,,71.01219270000001,0.012192700000014156,1,192.94142939999801,192.94142939999801,192.94142939999801,192.94142939999801,192.94142939999801,192.94142939999801,192.94142939999801,192.94142939999801,0.39248460000089835,001,P016,2025_Mar_07_1357,CategoryLocalizer,2021.2.3,59.950205358885334,
71.8,72.0,5,0.0,Stimuli\Blank.png,0,0,0,120,120,120,,,,,,,,,,,,,71.81483749999825,0.014837499998250792,None,193.7588708000003,193.7588708000003,193.7588708000003,193.7588708000003,193.7588708000003,193.7588708000003,193.7588708000003,193.7588708000003,,001,P016,2025_Mar_07_1357,CategoryLocalizer,2021.2.3,59.950205358885334,
72.0,72.8,4,0.75,Stimuli\ImageFiles-Set1\Scenes\Scenes_027.png,0,0,0,121,121,121,,,,,,,,,,,,,72.03093779999836,0.03093779999835533,None,193.9923591000006,193.9923591000006,193.9923591000006,193.9923591000006,193.9923591000006,193.9923591000006,193.9923591000006,193.9923591000006,,001,P016,2025_Mar_07_1357,CategoryLocalizer,2021.2.3,59.950205358885334,
72.8,73.0,5,0.0,Stimuli\Blank.png,0,0,0,122,122,122,,,,,,,,,,,,,72.84666629999992,0.04666629999992722,None,194.77638029999798,194.77638029999798,194.77638029999798,194.77638029999798,194.77638029999798,194.77638029999798,194.77638029999798,194.77638029999798,,001,P016,2025_Mar_07_1357,CategoryLocalizer,2021.2.3,59.950205358885334,
73.0,73.8,4,0.75,Stimuli\ImageFiles-Set1\Scenes\Scenes_011.png,0,0,0,123,123,123,,,,,,,,,,,,,73.0156320999995,0.01563209999949322,None,194.9598823999986,194.9598823999986,194.9598823999986,194.9598823999986,194.9598823999986,194.9598823999986,194.9598823999986,194.9598823999986,,001,P016,2025_Mar_07_1357,CategoryLocalizer,2021.2.3,59.950205358885334,
73.8,74.0,5,0.0,Stimuli\Blank.png,0,0,0,124,124,124,,,,,,,,,,,,,73.81482049999977,0.014820499999771641,None,195.7439033999981,195.7439033999981,195.7439033999981,195.7439033999981,195.7439033999981,195.7439033999981,195.7439033999981,195.7439033999981,,001,P016,2025_Mar_07_1357,CategoryLocalizer,2021.2.3,59.950205358885334,
74.0,74.8,4,0.75,Stimuli\ImageFiles-Set1\Scenes\Scenes_021.png,0,0,0,125,125,125,,,,,,,,,,,,,74.01488369999788,0.014883699997881195,None,195.9774464000002,195.9774464000002,195.9774464000002,195.9774464000002,195.9774464000002,195.9774464000002,195.9774464000002,195.9774464000002,,001,P016,2025_Mar_07_1357,CategoryLocalizer,2021.2.3,59.950205358885334,
74.8,75.0,5,0.0,Stimuli\Blank.png,0,0,0,126,126,126,,,,,,,,,,,,,74.85008190000008,0.05008190000008028,None,196.79488670000137,196.79488670000137,196.79488670000137,196.79488670000137,196.79488670000137,196.79488670000137,196.79488670000137,196.79488670000137,,001,P016,2025_Mar_07_1357,CategoryLocalizer,2021.2.3,59.950205358885334,
75.0,75.8,4,0.75,Stimuli\ImageFiles-Set1\Scenes\Scenes_006.png,0,0,0,127,127,127,,,,,,,,,,,,,75.01663030000054,0.016630300000542775,None,196.96165380000093,196.96165380000093,196.96165380000093,196.96165380000093,196.96165380000093,196.96165380000093,196.96165380000093,196.96165380000093,,001,P016,2025_Mar_07_1357,CategoryLocalizer,2021.2.3,59.950205358885334,
75.8,76.0,5,0.0,Stimuli\Blank.png,0,0,0,128,128,128,,,,,,,,,,,,,75.81615779999993,0.016157799999930944,None,197.74587149999934,197.74587149999934,197.74587149999934,197.74587149999934,197.74587149999934,197.74587149999934,197.74587149999934,197.74587149999934,,001,P016,2025_Mar_07_1357,CategoryLocalizer,2021.2.3,59.950205358885334,
76.0,88.0,0,0.0,Stimuli\Blank.png,0,0,0,129,129,129,,,,,,,,,,,,,75.9999788999994,-2.1100000594742596e-05,None,197.9291989000012,197.9291989000012,197.9291989000012,197.9291989000012,197.9291989000012,197.9291989000012,197.9291989000012,197.9291989000012,,001,P016,2025_Mar_07_1357,CategoryLocalizer,2021.2.3,59.950205358885334,
88.0,88.8,3,0.75,Stimuli\ImageFiles-Set1\Faces\Face_00047.png,0,0,0,130,130,130,,,,,,,,,,,,,88.01079369999934,0.010793699999339879,None,209.9564723000003,209.9564723000003,209.9564723000003,209.9564723000003,209.9564723000003,209.9564723000003,209.9564723000003,209.9564723000003,,001,P016,2025_Mar_07_1357,CategoryLocalizer,2021.2.3,59.950205358885334,
88.8,89.0,5,0.0,Stimuli\Blank.png,0,0,0,131,131,131,,,,,,,,,,,,,88.82772130000012,0.02772130000012396,None,210.75717570000052,210.75717570000052,210.75717570000052,210.75717570000052,210.75717570000052,210.75717570000052,210.75717570000052,210.75717570000052,,001,P016,2025_Mar_07_1357,CategoryLocalizer,2021.2.3,59.950205358885334,
89.0,89.8,3,0.75,Stimuli\ImageFiles-Set1\Faces\Face_00029.png,0,0,0,132,132,132,,,,,,,,,,,,,89.0114493000001,0.011449300000094809,None,210.94067279999945,210.94067279999945,210.94067279999945,210.94067279999945,210.94067279999945,210.94067279999945,210.94067279999945,210.94067279999945,,001,P016,2025_Mar_07_1357,CategoryLocalizer,2021.2.3,59.950205358885334,
89.8,90.0,5,0.0,Stimuli\Blank.png,0,0,0,133,133,133,,,,,,,,,,,,,89.8114691999981,0.011469199998103363,None,211.74138419999872,211.74138419999872,211.74138419999872,211.74138419999872,211.74138419999872,211.74138419999872,211.74138419999872,211.74138419999872,,001,P016,2025_Mar_07_1357,CategoryLocalizer,2021.2.3,59.950205358885334,
90.0,90.8,3,0.75,Stimuli\ImageFiles-Set1\Faces\Face_00037.png,0,0,0,134,134,134,,,,,,,,,,,,,90.01164459999927,0.011644599999272032,None,211.95819889999984,211.95819889999984,211.95819889999984,211.95819889999984,211.95819889999984,211.95819889999984,211.95819889999984,211.95819889999984,,001,P016,2025_Mar_07_1357,CategoryLocalizer,2021.2.3,59.950205358885334,
90.8,91.0,5,0.0,Stimuli\Blank.png,0,0,0,135,135,135,,,,,,,,,,,,,90.83007889999863,0.030078899998628117,None,212.7589681999998,212.7589681999998,212.7589681999998,212.7589681999998,212.7589681999998,212.7589681999998,212.7589681999998,212.7589681999998,,001,P016,2025_Mar_07_1357,CategoryLocalizer,2021.2.3,59.950205358885334,
91.0,91.8,3,0.75,Stimuli\ImageFiles-Set1\Faces\Face_00005.png,0,0,0,136,136,136,,,,,,,,,,,,,91.01458339999954,0.014583399999537505,None,212.97582020000118,212.97582020000118,212.97582020000118,212.97582020000118,212.97582020000118,212.97582020000118,212.97582020000118,212.97582020000118,,001,P016,2025_Mar_07_1357,CategoryLocalizer,2021.2.3,59.950205358885334,
91.8,92.0,5,0.0,Stimuli\Blank.png,0,0,0,137,137,137,,,,,,,,,,,,,91.84708749999845,0.04708749999845452,None,213.77651759999935,213.77651759999935,213.77651759999935,213.77651759999935,213.77651759999935,213.77651759999935,213.77651759999935,213.77651759999935,,001,P016,2025_Mar_07_1357,CategoryLocalizer,2021.2.3,59.950205358885334,
92.0,92.8,3,0.75,Stimuli\ImageFiles-Set1\Faces\Face_00005.png,1,1,0,138,138,138,,,,,,,,,,,,,92.01557619999949,0.015576199999486562,1,213.96001070000057,213.96001070000057,213.96001070000057,213.96001070000057,213.96001070000057,213.96001070000057,213.96001070000057,213.96001070000057,0.4978592999977991,001,P016,2025_Mar_07_1357,CategoryLocalizer,2021.2.3,59.950205358885334,
92.8,93.0,5,0.0,Stimuli\Blank.png,0,0,0,139,139,139,,,,,,,,,,,,,92.81465899999966,0.014658999999667799,None,214.74404149999827,214.74404149999827,214.74404149999827,214.74404149999827,214.74404149999827,214.74404149999827,214.74404149999827,214.74404149999827,,001,P016,2025_Mar_07_1357,CategoryLocalizer,2021.2.3,59.950205358885334,
93.0,93.8,3,0.75,Stimuli\ImageFiles-Set1\Faces\Face_00087.png,0,0,0,140,140,140,,,,,,,,,,,,,93.0158397999985,0.015839799998502713,None,214.96089329999813,214.96089329999813,214.96089329999813,214.96089329999813,214.96089329999813,214.96089329999813,214.96089329999813,214.96089329999813,,001,P016,2025_Mar_07_1357,CategoryLocalizer,2021.2.3,59.950205358885334,
93.8,94.0,5,0.0,Stimuli\Blank.png,0,0,0,141,141,141,,,,,,,,,,,,,93.81659159999981,0.01659159999981341,None,215.7457957000006,215.7457957000006,215.7457957000006,215.7457957000006,215.7457957000006,215.7457957000006,215.7457957000006,215.7457957000006,,001,P016,2025_Mar_07_1357,CategoryLocalizer,2021.2.3,59.950205358885334,
94.0,94.8,3,0.75,Stimuli\ImageFiles-Set1\Faces\Face_00109.png,0,0,0,142,142,142,,,,,,,,,,,,,93.99886759999936,-0.0011324000006425194,None,215.94523769999796,215.94523769999796,215.94523769999796,215.94523769999796,215.94523769999796,215.94523769999796,215.94523769999796,215.94523769999796,,001,P016,2025_Mar_07_1357,CategoryLocalizer,2021.2.3,59.950205358885334,
94.8,95.0,5,0.0,Stimuli\Blank.png,0,0,0,143,143,143,,,,,,,,,,,,,94.81601410000076,0.016014100000759868,None,216.74580979999882,216.74580979999882,216.74580979999882,216.74580979999882,216.74580979999882,216.74580979999882,216.74580979999882,216.74580979999882,,001,P016,2025_Mar_07_1357,CategoryLocalizer,2021.2.3,59.950205358885334,
95.0,95.8,3,0.75,Stimuli\ImageFiles-Set1\Faces\Face_00041.png,0,0,0,144,144,144,,,,,,,,,,,,,95.0009730999991,0.0009730999991006684,None,216.94597950000025,216.94597950000025,216.94597950000025,216.94597950000025,216.94597950000025,216.94597950000025,216.94597950000025,216.94597950000025,,001,P016,2025_Mar_07_1357,CategoryLocalizer,2021.2.3,59.950205358885334,
95.8,96.0,5,0.0,Stimuli\Blank.png,0,0,0,145,145,145,,,,,,,,,,,,,95.81713899999886,0.01713899999886337,None,217.74679639999886,217.74679639999886,217.74679639999886,217.74679639999886,217.74679639999886,217.74679639999886,217.74679639999886,217.74679639999886,,001,P016,2025_Mar_07_1357,CategoryLocalizer,2021.2.3,59.950205358885334,
96.0,96.8,3,0.75,Stimuli\ImageFiles-Set1\Faces\Face_00018.png,0,0,0,146,146,146,,,,,,,,,,,,,96.00115240000014,0.001152400000137277,None,217.9468725000006,217.9468725000006,217.9468725000006,217.9468725000006,217.9468725000006,217.9468725000006,217.9468725000006,217.9468725000006,,001,P016,2025_Mar_07_1357,CategoryLocalizer,2021.2.3,59.950205358885334,
96.8,97.0,5,0.0,Stimuli\Blank.png,0,0,0,147,147,147,,,,,,,,,,,,,96.81977030000053,0.019770300000530483,None,218.76428540000052,218.76428540000052,218.76428540000052,218.76428540000052,218.76428540000052,218.76428540000052,218.76428540000052,218.76428540000052,,001,P016,2025_Mar_07_1357,CategoryLocalizer,2021.2.3,59.950205358885334,
97.0,97.8,3,0.75,Stimuli\ImageFiles-Set1\Faces\Face_00049.png,0,0,0,148,148,148,,,,,,,,,,,,,97.01985810000042,0.019858100000419654,None,218.9811445000014,218.9811445000014,218.9811445000014,218.9811445000014,218.9811445000014,218.9811445000014,218.9811445000014,218.9811445000014,,001,P016,2025_Mar_07_1357,CategoryLocalizer,2021.2.3,59.950205358885334,
97.8,98.0,5,0.0,Stimuli\Blank.png,0,0,0,149,149,149,,,,,,,,,,,,,97.83715049999955,0.03715049999955511,None,219.76525250000122,219.76525250000122,219.76525250000122,219.76525250000122,219.76525250000122,219.76525250000122,219.76525250000122,219.76525250000122,,001,P016,2025_Mar_07_1357,CategoryLocalizer,2021.2.3,59.950205358885334,
98.0,98.8,3,0.75,Stimuli\ImageFiles-Set1\Faces\Face_00016.png,0,0,0,150,150,150,,,,,,,,,,,,,98.00277949999872,0.0027794999987236224,None,219.93190930000128,219.93190930000128,219.93190930000128,219.93190930000128,219.93190930000128,219.93190930000128,219.93190930000128,219.93190930000128,,001,P016,2025_Mar_07_1357,CategoryLocalizer,2021.2.3,59.950205358885334,
98.8,99.0,5,0.0,Stimuli\Blank.png,0,0,0,151,151,151,,,,,,,,,,,,,98.80504139999903,0.00504139999902975,None,220.74935330000153,220.74935330000153,220.74935330000153,220.74935330000153,220.74935330000153,220.74935330000153,220.74935330000153,220.74935330000153,,001,P016,2025_Mar_07_1357,CategoryLocalizer,2021.2.3,59.950205358885334,
99.0,99.8,3,0.75,Stimuli\ImageFiles-Set1\Faces\Face_00107.png,0,0,0,152,152,152,,,,,,,,,,,,,99.02087169999868,0.020871699998679105,None,220.9829067999999,220.9829067999999,220.9829067999999,220.9829067999999,220.9829067999999,220.9829067999999,220.9829067999999,220.9829067999999,,001,P016,2025_Mar_07_1357,CategoryLocalizer,2021.2.3,59.950205358885334,
99.8,100.0,5,0.0,Stimuli\Blank.png,0,0,0,153,153,153,,,,,,,,,,,,,99.83720339999854,0.03720339999854616,None,221.76689559999795,221.76689559999795,221.76689559999795,221.76689559999795,221.76689559999795,221.76689559999795,221.76689559999795,221.76689559999795,,001,P016,2025_Mar_07_1357,CategoryLocalizer,2021.2.3,59.950205358885334,
100.0,100.8,3,0.75,Stimuli\ImageFiles-Set1\Faces\Face_00073.png,0,0,0,154,154,154,,,,,,,,,,,,,100.00452210000003,0.00452210000003106,None,221.96707759999845,221.96707759999845,221.96707759999845,221.96707759999845,221.96707759999845,221.96707759999845,221.96707759999845,221.96707759999845,,001,P016,2025_Mar_07_1357,CategoryLocalizer,2021.2.3,59.950205358885334,
100.8,101.0,5,0.0,Stimuli\Blank.png,0,0,0,155,155,155,,,,,,,,,,,,,100.83854689999862,0.0385468999986216,None,222.7678511999984,222.7678511999984,222.7678511999984,222.7678511999984,222.7678511999984,222.7678511999984,222.7678511999984,222.7678511999984,,001,P016,2025_Mar_07_1357,CategoryLocalizer,2021.2.3,59.950205358885334,
101.0,101.8,3,0.75,Stimuli\ImageFiles-Set1\Faces\Face_00093.png,0,0,0,156,156,156,,,,,,,,,,,,,101.0058926999991,0.005892699999094475,None,222.9512911999991,222.9512911999991,222.9512911999991,222.9512911999991,222.9512911999991,222.9512911999991,222.9512911999991,222.9512911999991,,001,P016,2025_Mar_07_1357,CategoryLocalizer,2021.2.3,59.950205358885334,
101.8,102.0,5,0.0,Stimuli\Blank.png,0,0,0,157,157,157,,,,,,,,,,,,,101.82205389999945,0.022053899999448845,None,223.75199799999973,223.75199799999973,223.75199799999973,223.75199799999973,223.75199799999973,223.75199799999973,223.75199799999973,223.75199799999973,,001,P016,2025_Mar_07_1357,CategoryLocalizer,2021.2.3,59.950205358885334,
102.0,102.8,3,0.75,Stimuli\ImageFiles-Set1\Faces\Face_00103.png,0,0,0,158,158,158,,,,,,,,,,,,,102.00614489999862,0.006144899998616893,None,223.93545919999815,223.93545919999815,223.93545919999815,223.93545919999815,223.93545919999815,223.93545919999815,223.93545919999815,223.93545919999815,,001,P016,2025_Mar_07_1357,CategoryLocalizer,2021.2.3,59.950205358885334,
102.8,103.0,5,0.0,Stimuli\Blank.png,0,0,0,159,159,159,,,,,,,,,,,,,102.80638890000046,0.00638890000045933,None,224.7362041000015,224.7362041000015,224.7362041000015,224.7362041000015,224.7362041000015,224.7362041000015,224.7362041000015,224.7362041000015,,001,P016,2025_Mar_07_1357,CategoryLocalizer,2021.2.3,59.950205358885334,
103.0,103.8,3,0.75,Stimuli\ImageFiles-Set1\Faces\Face_00061.png,0,0,0,160,160,160,,,,,,,,,,,,,103.0064672999979,0.0064672999978938606,None,224.93637390000004,224.93637390000004,224.93637390000004,224.93637390000004,224.93637390000004,224.93637390000004,224.93637390000004,224.93637390000004,,001,P016,2025_Mar_07_1357,CategoryLocalizer,2021.2.3,59.950205358885334,
103.8,104.0,5,0.0,Stimuli\Blank.png,0,0,0,161,161,161,,,,,,,,,,,,,103.81067279999843,0.010672799998431515,None,225.753778899998,225.753778899998,225.753778899998,225.753778899998,225.753778899998,225.753778899998,225.753778899998,225.753778899998,,001,P016,2025_Mar_07_1357,CategoryLocalizer,2021.2.3,59.950205358885334,
104.0,104.8,1,0.75,Stimuli\ImageFiles-Set1\Objects\Object_Locker_00001.png,0,0,0,162,162,162,,,,,,,,,,,,,104.02548949999982,0.02548949999982142,None,225.97065329999896,225.97065329999896,225.97065329999896,225.97065329999896,225.97065329999896,225.97065329999896,225.97065329999896,225.97065329999896,,001,P016,2025_Mar_07_1357,CategoryLocalizer,2021.2.3,59.950205358885334,
104.8,105.0,5,0.0,Stimuli\Blank.png,0,0,0,163,163,163,,,,,,,,,,,,,104.82485910000105,0.02485910000105207,None,226.75465899999836,226.75465899999836,226.75465899999836,226.75465899999836,226.75465899999836,226.75465899999836,226.75465899999836,226.75465899999836,,001,P016,2025_Mar_07_1357,CategoryLocalizer,2021.2.3,59.950205358885334,
105.0,105.8,1,0.75,Stimuli\ImageFiles-Set1\Objects\Object_Football_00001.png,0,0,0,164,164,164,,,,,,,,,,,,,105.00988639999923,0.009886399999231799,None,226.97151640000084,226.97151640000084,226.97151640000084,226.97151640000084,226.97151640000084,226.97151640000084,226.97151640000084,226.97151640000084,,001,P016,2025_Mar_07_1357,CategoryLocalizer,2021.2.3,59.950205358885334,
105.8,106.0,5,0.0,Stimuli\Blank.png,0,0,0,165,165,165,,,,,,,,,,,,,105.84472900000037,0.044729000000373276,None,227.7889111000004,227.7889111000004,227.7889111000004,227.7889111000004,227.7889111000004,227.7889111000004,227.7889111000004,227.7889111000004,,001,P016,2025_Mar_07_1357,CategoryLocalizer,2021.2.3,59.950205358885334,
106.0,106.8,1,0.75,Stimuli\ImageFiles-Set1\Objects\Object_Book_00001.png,0,0,0,166,166,166,,,,,,,,,,,,,106.0266804999992,0.026680499999201857,None,227.97240310000052,227.97240310000052,227.97240310000052,227.97240310000052,227.97240310000052,227.97240310000052,227.97240310000052,227.97240310000052,,001,P016,2025_Mar_07_1357,CategoryLocalizer,2021.2.3,59.950205358885334,
106.8,107.0,5,0.0,Stimuli\Blank.png,0,0,0,167,167,167,,,,,,,,,,,,,106.82655069999964,0.0265506999996461,None,228.75642869999865,228.75642869999865,228.75642869999865,228.75642869999865,228.75642869999865,228.75642869999865,228.75642869999865,228.75642869999865,,001,P016,2025_Mar_07_1357,CategoryLocalizer,2021.2.3,59.950205358885334,
107.0,107.8,1,0.75,Stimuli\ImageFiles-Set1\Objects\Object_Book_00001.png,1,1,0,168,168,168,,,,,,,,,,,,,107.01001969999925,0.010019699999247678,1,228.93993010000122,228.93993010000122,228.93993010000122,228.93993010000122,228.93993010000122,228.93993010000122,228.93993010000122,228.93993010000122,0.36875900000086403,001,P016,2025_Mar_07_1357,CategoryLocalizer,2021.2.3,59.950205358885334,
107.8,108.0,5,0.0,Stimuli\Blank.png,0,0,0,169,169,169,,,,,,,,,,,,,107.81069819999902,0.01069819999902677,None,229.74062380000032,229.74062380000032,229.74062380000032,229.74062380000032,229.74062380000032,229.74062380000032,229.74062380000032,229.74062380000032,,001,P016,2025_Mar_07_1357,CategoryLocalizer,2021.2.3,59.950205358885334,
108.0,108.8,1,0.75,Stimuli\ImageFiles-Set1\Objects\Object_Table_00001.png,0,0,0,170,170,170,,,,,,,,,,,,,108.0108982999991,0.010898299999098526,None,229.95745619999798,229.95745619999798,229.95745619999798,229.95745619999798,229.95745619999798,229.95745619999798,229.95745619999798,229.95745619999798,,001,P016,2025_Mar_07_1357,CategoryLocalizer,2021.2.3,59.950205358885334,
108.8,109.0,5,0.0,Stimuli\Blank.png,0,0,0,171,171,171,,,,,,,,,,,,,108.83077469999989,0.03077469999989546,None,230.7748829000011,230.7748829000011,230.7748829000011,230.7748829000011,230.7748829000011,230.7748829000011,230.7748829000011,230.7748829000011,,001,P016,2025_Mar_07_1357,CategoryLocalizer,2021.2.3,59.950205358885334,
109.0,109.8,1,0.75,Stimuli\ImageFiles-Set1\Objects\Object_Knife_00001.png,0,0,0,172,172,172,,,,,,,,,,,,,109.03031809999811,0.030318099998112302,None,230.9750505000011,230.9750505000011,230.9750505000011,230.9750505000011,230.9750505000011,230.9750505000011,230.9750505000011,230.9750505000011,,001,P016,2025_Mar_07_1357,CategoryLocalizer,2021.2.3,59.950205358885334,
109.8,110.0,5,0.0,Stimuli\Blank.png,0,0,0,173,173,173,,,,,,,,,,,,,109.82921839999835,0.029218399998356404,None,231.75914320000084,231.75914320000084,231.75914320000084,231.75914320000084,231.75914320000084,231.75914320000084,231.75914320000084,231.75914320000084,,001,P016,2025_Mar_07_1357,CategoryLocalizer,2021.2.3,59.950205358885334,
110.0,110.8,1,0.75,Stimuli\ImageFiles-Set1\Objects\Object_Canoe_00001.png,0,0,0,174,174,174,,,,,,,,,,,,,110.0131235000008,0.013123500000801869,None,231.95922639999844,231.95922639999844,231.95922639999844,231.95922639999844,231.95922639999844,231.95922639999844,231.95922639999844,231.95922639999844,,001,P016,2025_Mar_07_1357,CategoryLocalizer,2021.2.3,59.950205358885334,
110.8,111.0,5,0.0,Stimuli\Blank.png,0,0,0,175,175,175,,,,,,,,,,,,,110.83008110000083,0.030081100000828087,None,232.75997009999992,232.75997009999992,232.75997009999992,232.75997009999992,232.75997009999992,232.75997009999992,232.75997009999992,232.75997009999992,,001,P016,2025_Mar_07_1357,CategoryLocalizer,2021.2.3,59.950205358885334,
111.0,111.8,1,0.75,Stimuli\ImageFiles-Set1\Objects\Object_Stool_00001.png,0,0,0,176,176,176,,,,,,,,,,,,,111.01358640000035,0.013586400000349386,None,232.9601315,232.9601315,232.9601315,232.9601315,232.9601315,232.9601315,232.9601315,232.9601315,,001,P016,2025_Mar_07_1357,CategoryLocalizer,2021.2.3,59.950205358885334,
111.8,112.0,5,0.0,Stimuli\Blank.png,0,0,0,177,177,177,,,,,,,,,,,,,111.83127450000029,0.031274500000293415,None,233.76086489999943,233.76086489999943,233.76086489999943,233.76086489999943,233.76086489999943,233.76086489999943,233.76086489999943,233.76086489999943,,001,P016,2025_Mar_07_1357,CategoryLocalizer,2021.2.3,59.950205358885334,
112.0,112.8,1,0.75,Stimuli\ImageFiles-Set1\Objects\Object_Dryer_00001.png,0,0,0,178,178,178,,,,,,,,,,,,,112.01550270000007,0.015502700000070035,None,233.96167019999848,233.96167019999848,233.96167019999848,233.96167019999848,233.96167019999848,233.96167019999848,233.96167019999848,233.96167019999848,,001,P016,2025_Mar_07_1357,CategoryLocalizer,2021.2.3,59.950205358885334,
112.8,113.0,5,0.0,Stimuli\Blank.png,0,0,0,179,179,179,,,,,,,,,,,,,112.83260940000036,0.03260940000036783,None,234.7618044999981,234.7618044999981,234.7618044999981,234.7618044999981,234.7618044999981,234.7618044999981,234.7618044999981,234.7618044999981,,001,P016,2025_Mar_07_1357,CategoryLocalizer,2021.2.3,59.950205358885334,
113.0,113.8,1,0.75,Stimuli\ImageFiles-Set1\Objects\Object_Sock_00001.png,0,0,0,180,180,180,,,,,,,,,,,,,112.99925509999957,-0.0007449000004271511,None,234.9451939999999,234.9451939999999,234.9451939999999,234.9451939999999,234.9451939999999,234.9451939999999,234.9451939999999,234.9451939999999,,001,P016,2025_Mar_07_1357,CategoryLocalizer,2021.2.3,59.950205358885334,
113.8,114.0,5,0.0,Stimuli\Blank.png,0,0,0,181,181,181,,,,,,,,,,,,,113.81624609999926,0.01624609999926463,None,235.74592900000061,235.74592900000061,235.74592900000061,235.74592900000061,235.74592900000061,235.74592900000061,235.74592900000061,235.74592900000061,,001,P016,2025_Mar_07_1357,CategoryLocalizer,2021.2.3,59.950205358885334,
114.0,114.8,1,0.75,Stimuli\ImageFiles-Set1\Objects\Object_Card_00001.png,0,0,0,182,182,182,,,,,,,,,,,,,113.99955449999834,-0.00044550000166054815,None,235.9461123000001,235.9461123000001,235.9461123000001,235.9461123000001,235.9461123000001,235.9461123000001,235.9461123000001,235.9461123000001,,001,P016,2025_Mar_07_1357,CategoryLocalizer,2021.2.3,59.950205358885334,
114.8,115.0,5,0.0,Stimuli\Blank.png,0,0,0,183,183,183,,,,,,,,,,,,,114.81701640000028,0.017016400000287035,None,236.74681599999894,236.74681599999894,236.74681599999894,236.74681599999894,236.74681599999894,236.74681599999894,236.74681599999894,236.74681599999894,,001,P016,2025_Mar_07_1357,CategoryLocalizer,2021.2.3,59.950205358885334,
115.0,115.8,1,0.75,Stimuli\ImageFiles-Set1\Objects\Object_Crib_00001.png,0,0,0,184,184,184,,,,,,,,,,,,,115.00035930000013,0.00035930000012740493,None,236.94699499999842,236.94699499999842,236.94699499999842,236.94699499999842,236.94699499999842,236.94699499999842,236.94699499999842,236.94699499999842,,001,P016,2025_Mar_07_1357,CategoryLocalizer,2021.2.3,59.950205358885334,
115.8,116.0,5,0.0,Stimuli\Blank.png,0,0,0,185,185,185,,,,,,,,,,,,,115.82005750000098,0.020057500000987716,None,237.76439179999943,237.76439179999943,237.76439179999943,237.76439179999943,237.76439179999943,237.76439179999943,237.76439179999943,237.76439179999943,,001,P016,2025_Mar_07_1357,CategoryLocalizer,2021.2.3,59.950205358885334,
116.0,116.8,1,0.75,Stimuli\ImageFiles-Set1\Objects\Object_Bed_00001.png,1,1,0,186,186,186,,,,,,,,,,,,,116.01875519999885,0.018755199998850003,None,237.96456730000136,237.96456730000136,237.96456730000136,237.96456730000136,237.96456730000136,237.96456730000136,237.96456730000136,237.96456730000136,,001,P016,2025_Mar_07_1357,CategoryLocalizer,2021.2.3,59.950205358885334,
116.8,117.0,5,0.0,Stimuli\Blank.png,0,0,0,187,187,187,,,,,,,,,,,,,116.82025960000101,0.02025960000101179,None,238.74862270000085,238.74862270000085,238.74862270000085,238.74862270000085,238.74862270000085,238.74862270000085,238.74862270000085,238.74862270000085,,001,P016,2025_Mar_07_1357,CategoryLocalizer,2021.2.3,59.950205358885334,
117.0,117.8,1,0.75,Stimuli\ImageFiles-Set1\Objects\Object_Boat_00001.png,0,0,0,188,188,188,,,,,,,,,,,,,117.00219160000051,0.0021916000005148817,None,238.9654859000002,238.9654859000002,238.9654859000002,238.9654859000002,238.9654859000002,238.9654859000002,238.9654859000002,238.9654859000002,,001,P016,2025_Mar_07_1357,CategoryLocalizer,2021.2.3,59.950205358885334,
117.8,118.0,5,0.0,Stimuli\Blank.png,0,0,0,189,189,189,,,,,,,,,,,,,117.83720510000057,0.03720510000057686,None,239.76615440000023,239.76615440000023,239.76615440000023,239.76615440000023,239.76615440000023,239.76615440000023,239.76615440000023,239.76615440000023,,001,P016,2025_Mar_07_1357,CategoryLocalizer,2021.2.3,59.950205358885334,
118.0,118.8,1,0.75,Stimuli\ImageFiles-Set1\Objects\Object_Boat_00001.png,0,0,0,190,190,190,,,,,,,,,,,,,118.00396069999988,0.00396069999987958,1,239.93293859999903,239.93293859999903,239.93293859999903,239.93293859999903,239.93293859999903,239.93293859999903,239.93293859999903,239.93293859999903,0.5187759000000369,001,P016,2025_Mar_07_1357,CategoryLocalizer,2021.2.3,59.950205358885334,
118.8,119.0,5,0.0,Stimuli\Blank.png,0,0,0,191,191,191,,,,,,,,,,,,,118.80460899999889,0.004608999998893637,None,240.7336964999995,240.7336964999995,240.7336964999995,240.7336964999995,240.7336964999995,240.7336964999995,240.7336964999995,240.7336964999995,,001,P016,2025_Mar_07_1357,CategoryLocalizer,2021.2.3,59.950205358885334,
119.0,119.8,1,0.75,Stimuli\ImageFiles-Set1\Objects\Object_Box_00001.png,0,0,0,192,192,192,,,,,,,,,,,,,119.00515660000019,0.005156600000191247,None,240.95054629999868,240.95054629999868,240.95054629999868,240.95054629999868,240.95054629999868,240.95054629999868,240.95054629999868,240.95054629999868,,001,P016,2025_Mar_07_1357,CategoryLocalizer,2021.2.3,59.950205358885334,
119.8,120.0,5,0.0,Stimuli\Blank.png,0,0,0,193,193,193,,,,,,,,,,,,,119.82223689999955,0.02223689999955525,None,241.7512483999999,241.7512483999999,241.7512483999999,241.7512483999999,241.7512483999999,241.7512483999999,241.7512483999999,241.7512483999999,,001,P016,2025_Mar_07_1357,CategoryLocalizer,2021.2.3,59.950205358885334,
120.0,120.8,4,0.75,Stimuli\ImageFiles-Set1\Scenes\Scenes_012.png,0,0,0,194,194,194,,,,,,,,,,,,,120.00542249999853,0.005422499998530839,None,241.95141800000056,241.95141800000056,241.95141800000056,241.95141800000056,241.95141800000056,241.95141800000056,241.95141800000056,241.95141800000056,,001,P016,2025_Mar_07_1357,CategoryLocalizer,2021.2.3,59.950205358885334,
120.8,121.0,5,0.0,Stimuli\Blank.png,0,0,0,195,195,195,,,,,,,,,,,,,120.82216749999861,0.022167499998616336,None,242.75213639999856,242.75213639999856,242.75213639999856,242.75213639999856,242.75213639999856,242.75213639999856,242.75213639999856,242.75213639999856,,001,P016,2025_Mar_07_1357,CategoryLocalizer,2021.2.3,59.950205358885334,
121.0,121.8,4,0.75,Stimuli\ImageFiles-Set1\Scenes\Scenes_046.png,0,0,0,196,196,196,,,,,,,,,,,,,121.00627320000058,0.006273200000578072,None,242.95231670000067,242.95231670000067,242.95231670000067,242.95231670000067,242.95231670000067,242.95231670000067,242.95231670000067,242.95231670000067,,001,P016,2025_Mar_07_1357,CategoryLocalizer,2021.2.3,59.950205358885334,
121.8,122.0,5,0.0,Stimuli\Blank.png,0,0,0,197,197,197,,,,,,,,,,,,,121.82479600000079,0.02479600000079074,None,243.7697036999998,243.7697036999998,243.7697036999998,243.7697036999998,243.7697036999998,243.7697036999998,243.7697036999998,243.7697036999998,,001,P016,2025_Mar_07_1357,CategoryLocalizer,2021.2.3,59.950205358885334,
122.0,122.8,4,0.75,Stimuli\ImageFiles-Set1\Scenes\Scenes_004.png,0,0,0,198,198,198,,,,,,,,,,,,,122.024227599999,0.024227599998994265,None,243.98659110000153,243.98659110000153,243.98659110000153,243.98659110000153,243.98659110000153,243.98659110000153,243.98659110000153,243.98659110000153,,001,P016,2025_Mar_07_1357,CategoryLocalizer,2021.2.3,59.950205358885334,
122.8,123.0,5,0.0,Stimuli\Blank.png,0,0,0,199,199,199,,,,,,,,,,,,,122.8407944999999,0.04079449999990459,None,244.77057779999814,244.77057779999814,244.77057779999814,244.77057779999814,244.77057779999814,244.77057779999814,244.77057779999814,244.77057779999814,,001,P016,2025_Mar_07_1357,CategoryLocalizer,2021.2.3,59.950205358885334,
123.0,123.8,4,0.75,Stimuli\ImageFiles-Set1\Scenes\Scenes_004.png,1,1,0,200,200,200,,,,,,,,,,,,,123.00961249999818,0.009612499998183921,1,244.95407839999825,244.95407839999825,244.95407839999825,244.95407839999825,244.95407839999825,244.95407839999825,244.95407839999825,244.95407839999825,0.5416570000015781,001,P016,2025_Mar_07_1357,CategoryLocalizer,2021.2.3,59.950205358885334,
123.8,124.0,5,0.0,Stimuli\Blank.png,0,0,0,201,201,201,,,,,,,,,,,,,123.82612189999782,0.026121899997818332,None,245.75478559999829,245.75478559999829,245.75478559999829,245.75478559999829,245.75478559999829,245.75478559999829,245.75478559999829,245.75478559999829,,001,P016,2025_Mar_07_1357,CategoryLocalizer,2021.2.3,59.950205358885334,
124.0,124.8,4,0.75,Stimuli\ImageFiles-Set1\Scenes\Scenes_017.png,0,0,0,202,202,202,,,,,,,,,,,,,124.01102130000072,0.011021300000720657,None,245.97164260000136,245.97164260000136,245.97164260000136,245.97164260000136,245.97164260000136,245.97164260000136,245.97164260000136,245.97164260000136,,001,P016,2025_Mar_07_1357,CategoryLocalizer,2021.2.3,59.950205358885334,
124.8,125.0,5,0.0,Stimuli\Blank.png,0,0,0,203,203,203,,,,,,,,,,,,,124.84239639999942,0.04239639999941858,None,246.77234509999835,246.77234509999835,246.77234509999835,246.77234509999835,246.77234509999835,246.77234509999835,246.77234509999835,246.77234509999835,,001,P016,2025_Mar_07_1357,CategoryLocalizer,2021.2.3,59.950205358885334,
125.0,125.8,4,0.75,Stimuli\ImageFiles-Set1\Scenes\Scenes_045.png,0,0,0,204,204,204,,,,,,,,,,,,,125.00953830000071,0.009538300000713207,None,246.9725400999996,246.9725400999996,246.9725400999996,246.9725400999996,246.9725400999996,246.9725400999996,246.9725400999996,246.9725400999996,,001,P016,2025_Mar_07_1357,CategoryLocalizer,2021.2.3,59.950205358885334,
125.8,126.0,5,0.0,Stimuli\Blank.png,0,0,0,205,205,205,,,,,,,,,,,,,125.84501199999795,0.04501199999795347,None,247.7899228999995,247.7899228999995,247.7899228999995,247.7899228999995,247.7899228999995,247.7899228999995,247.7899228999995,247.7899228999995,,001,P016,2025_Mar_07_1357,CategoryLocalizer,2021.2.3,59.950205358885334,
126.0,126.8,4,0.75,Stimuli\ImageFiles-Set1\Scenes\Scenes_020.png,0,0,0,206,206,206,,,,,,,,,,,,,126.02731839999979,0.02731839999978547,None,247.99010759999874,247.99010759999874,247.99010759999874,247.99010759999874,247.99010759999874,247.99010759999874,247.99010759999874,247.99010759999874,,001,P016,2025_Mar_07_1357,CategoryLocalizer,2021.2.3,59.950205358885334,
126.8,127.0,5,0.0,Stimuli\Blank.png,0,0,0,207,207,207,,,,,,,,,,,,,126.84487249999802,0.04487249999802145,None,248.77412220000042,248.77412220000042,248.77412220000042,248.77412220000042,248.77412220000042,248.77412220000042,248.77412220000042,248.77412220000042,,001,P016,2025_Mar_07_1357,CategoryLocalizer,2021.2.3,59.950205358885334,
127.0,127.8,4,0.75,Stimuli\ImageFiles-Set1\Scenes\Scenes_009.png,0,0,0,208,208,208,,,,,,,,,,,,,127.01108419999946,0.011084199999459088,None,248.97430689999965,248.97430689999965,248.97430689999965,248.97430689999965,248.97430689999965,248.97430689999965,248.97430689999965,248.97430689999965,,001,P016,2025_Mar_07_1357,CategoryLocalizer,2021.2.3,59.950205358885334,
127.8,128.0,5,0.0,Stimuli\Blank.png,0,0,0,209,209,209,,,,,,,,,,,,,127.84598259999984,0.045982599999845775,None,249.77500860000146,249.77500860000146,249.77500860000146,249.77500860000146,249.77500860000146,249.77500860000146,249.77500860000146,249.77500860000146,,001,P016,2025_Mar_07_1357,CategoryLocalizer,2021.2.3,59.950205358885334,
128.0,128.8,4,0.75,Stimuli\ImageFiles-Set1\Scenes\Scenes_038.png,0,0,0,210,210,210,,,,,,,,,,,,,128.01247489999878,0.01247489999877871,None,249.95854500000132,249.95854500000132,249.95854500000132,249.95854500000132,249.95854500000132,249.95854500000132,249.95854500000132,249.95854500000132,,001,P016,2025_Mar_07_1357,CategoryLocalizer,2021.2.3,59.950205358885334,
128.8,129.0,5,0.0,Stimuli\Blank.png,0,0,0,211,211,211,,,,,,,,,,,,,128.8304750999996,0.030475099999591748,None,250.75921350000135,250.75921350000135,250.75921350000135,250.75921350000135,250.75921350000135,250.75921350000135,250.75921350000135,250.75921350000135,,001,P016,2025_Mar_07_1357,CategoryLocalizer,2021.2.3,59.950205358885334,
129.0,129.8,4,0.75,Stimuli\ImageFiles-Set1\Scenes\Scenes_028.png,0,0,0,212,212,212,,,,,,,,,,,,,129.01467449999836,0.014674499998363899,None,250.9594302000005,250.9594302000005,250.9594302000005,250.9594302000005,250.9594302000005,250.9594302000005,250.9594302000005,250.9594302000005,,001,P016,2025_Mar_07_1357,CategoryLocalizer,2021.2.3,59.950205358885334,
129.8,130.0,5,0.0,Stimuli\Blank.png,0,0,0,213,213,213,,,,,,,,,,,,,129.83088809999754,0.030888099997525842,None,251.76010360000146,251.76010360000146,251.76010360000146,251.76010360000146,251.76010360000146,251.76010360000146,251.76010360000146,251.76010360000146,,001,P016,2025_Mar_07_1357,CategoryLocalizer,2021.2.3,59.950205358885334,
130.0,130.8,4,0.75,Stimuli\ImageFiles-Set1\Scenes\Scenes_032.png,0,0,0,214,214,214,,,,,,,,,,,,,130.013725599998,0.013725599997997051,None,251.97698010000022,251.97698010000022,251.97698010000022,251.97698010000022,251.97698010000022,251.97698010000022,251.97698010000022,251.97698010000022,,001,P016,2025_Mar_07_1357,CategoryLocalizer,2021.2.3,59.950205358885334,
130.8,131.0,5,0.0,Stimuli\Blank.png,0,0,0,215,215,215,,,,,,,,,,,,,130.84995799999888,0.04995799999886685,None,252.79437269999835,252.79437269999835,252.79437269999835,252.79437269999835,252.79437269999835,252.79437269999835,252.79437269999835,252.79437269999835,,001,P016,2025_Mar_07_1357,CategoryLocalizer,2021.2.3,59.950205358885334,
131.0,131.8,4,0.75,Stimuli\ImageFiles-Set1\Scenes\Scenes_051.png,0,0,0,216,216,216,,,,,,,,,,,,,131.0160004999998,0.016000499999790918,None,252.97784020000108,252.97784020000108,252.97784020000108,252.97784020000108,252.97784020000108,252.97784020000108,252.97784020000108,252.97784020000108,,001,P016,2025_Mar_07_1357,CategoryLocalizer,2021.2.3,59.950205358885334,
131.8,132.0,5,0.0,Stimuli\Blank.png,0,0,0,217,217,217,,,,,,,,,,,,,131.8346328000007,0.034632800000679254,None,253.77858099999867,253.77858099999867,253.77858099999867,253.77858099999867,253.77858099999867,253.77858099999867,253.77858099999867,253.77858099999867,,001,P016,2025_Mar_07_1357,CategoryLocalizer,2021.2.3,59.950205358885334,
132.0,132.8,4,0.75,Stimuli\ImageFiles-Set1\Scenes\Scenes_040.png,0,0,0,218,218,218,,,,,,,,,,,,,132.01602649999768,0.01602649999767891,None,253.97872519999873,253.97872519999873,253.97872519999873,253.97872519999873,253.97872519999873,253.97872519999873,253.97872519999873,253.97872519999873,,001,P016,2025_Mar_07_1357,CategoryLocalizer,2021.2.3,59.950205358885334,
132.8,133.0,5,0.0,Stimuli\Blank.png,0,0,0,219,219,219,,,,,,,,,,,,,132.8350344999999,0.035034499999881064,None,254.77945429999818,254.77945429999818,254.77945429999818,254.77945429999818,254.77945429999818,254.77945429999818,254.77945429999818,254.77945429999818,,001,P016,2025_Mar_07_1357,CategoryLocalizer,2021.2.3,59.950205358885334,
133.0,133.8,4,0.75,Stimuli\ImageFiles-Set1\Scenes\Scenes_041.png,0,0,0,220,220,220,,,,,,,,,,,,,133.01635339999848,0.01635339999847929,None,254.96292510000058,254.96292510000058,254.96292510000058,254.96292510000058,254.96292510000058,254.96292510000058,254.96292510000058,254.96292510000058,,001,P016,2025_Mar_07_1357,CategoryLocalizer,2021.2.3,59.950205358885334,
133.8,134.0,5,0.0,Stimuli\Blank.png,0,0,0,221,221,221,,,,,,,,,,,,,133.81762230000095,0.01762230000093723,None,255.7469560999998,255.7469560999998,255.7469560999998,255.7469560999998,255.7469560999998,255.7469560999998,255.7469560999998,255.7469560999998,,001,P016,2025_Mar_07_1357,CategoryLocalizer,2021.2.3,59.950205358885334,
134.0,134.8,4,0.75,Stimuli\ImageFiles-Set1\Scenes\Scenes_043.png,0,0,0,222,222,222,,,,,,,,,,,,,134.00066779999906,0.0006677999990643002,None,255.9638113000001,255.9638113000001,255.9638113000001,255.9638113000001,255.9638113000001,255.9638113000001,255.9638113000001,255.9638113000001,,001,P016,2025_Mar_07_1357,CategoryLocalizer,2021.2.3,59.950205358885334,
134.8,135.0,5,0.0,Stimuli\Blank.png,0,0,0,223,223,223,,,,,,,,,,,,,134.83576410000023,0.03576410000022179,None,256.7645181000007,256.7645181000007,256.7645181000007,256.7645181000007,256.7645181000007,256.7645181000007,256.7645181000007,256.7645181000007,,001,P016,2025_Mar_07_1357,CategoryLocalizer,2021.2.3,59.950205358885334,
135.0,135.8,4,0.75,Stimuli\ImageFiles-Set1\Scenes\Scenes_052.png,0,0,0,224,224,224,,,,,,,,,,,,,135.00142679999772,0.0014267999977164436,None,256.9479732,256.9479732,256.9479732,256.9479732,256.9479732,256.9479732,256.9479732,256.9479732,,001,P016,2025_Mar_07_1357,CategoryLocalizer,2021.2.3,59.950205358885334,
135.8,136.0,5,0.0,Stimuli\Blank.png,0,0,0,225,225,225,,,,,,,,,,,,,135.81940509999913,0.019405099999119102,None,257.74871599999824,257.74871599999824,257.74871599999824,257.74871599999824,257.74871599999824,257.74871599999824,257.74871599999824,257.74871599999824,,001,P016,2025_Mar_07_1357,CategoryLocalizer,2021.2.3,59.950205358885334,
136.0,136.8,2,0.75,Stimuli\ImageFiles-Set1\Bodies\Bodies_Standing_00007.png,0,0,0,226,226,226,,,,,,,,,,,,,136.00235579999935,0.0023557999993499834,None,257.9489118999991,257.9489118999991,257.9489118999991,257.9489118999991,257.9489118999991,257.9489118999991,257.9489118999991,257.9489118999991,,001,P016,2025_Mar_07_1357,CategoryLocalizer,2021.2.3,59.950205358885334,
136.8,137.0,5,0.0,Stimuli\Blank.png,0,0,0,227,227,227,,,,,,,,,,,,,136.82048270000087,0.020482700000854948,None,258.7496092000001,258.7496092000001,258.7496092000001,258.7496092000001,258.7496092000001,258.7496092000001,258.7496092000001,258.7496092000001,,001,P016,2025_Mar_07_1357,CategoryLocalizer,2021.2.3,59.950205358885334,
137.0,137.8,2,0.75,Stimuli\ImageFiles-Set1\Bodies\Bodies_Waving_00007.png,0,0,0,228,228,228,,,,,,,,,,,,,137.0042437000011,0.00424370000109775,None,258.9497549000007,258.9497549000007,258.9497549000007,258.9497549000007,258.9497549000007,258.9497549000007,258.9497549000007,258.9497549000007,,001,P016,2025_Mar_07_1357,CategoryLocalizer,2021.2.3,59.950205358885334,
137.8,138.0,5,0.0,Stimuli\Blank.png,0,0,0,229,229,229,,,,,,,,,,,,,137.82125539999834,0.021255399998324265,None,259.750495100001,259.750495100001,259.750495100001,259.750495100001,259.750495100001,259.750495100001,259.750495100001,259.750495100001,,001,P016,2025_Mar_07_1357,CategoryLocalizer,2021.2.3,59.950205358885334,
138.0,138.8,2,0.75,Stimuli\ImageFiles-Set1\Bodies\Bodies_CobraPose_00001.png,0,0,0,230,230,230,,,,,,,,,,,,,138.00461670000004,0.004616700000042329,None,259.9506595999992,259.9506595999992,259.9506595999992,259.9506595999992,259.9506595999992,259.9506595999992,259.9506595999992,259.9506595999992,,001,P016,2025_Mar_07_1357,CategoryLocalizer,2021.2.3,59.950205358885334,
138.8,139.0,5,0.0,Stimuli\Blank.png,0,0,0,231,231,231,,,,,,,,,,,,,138.82145979999768,0.02145979999767178,None,260.751369900001,260.751369900001,260.751369900001,260.751369900001,260.751369900001,260.751369900001,260.751369900001,260.751369900001,,001,P016,2025_Mar_07_1357,CategoryLocalizer,2021.2.3,59.950205358885334,
139.0,139.8,2,0.75,Stimuli\ImageFiles-Set1\Bodies\Bodies_CobraPose_00001.png,1,1,0,232,232,232,,,,,,,,,,,,,139.00605730000098,0.006057300000975374,1,260.9515715999987,260.9515715999987,260.9515715999987,260.9515715999987,260.9515715999987,260.9515715999987,260.9515715999987,260.9515715999987,0.4651750999983051,001,P016,2025_Mar_07_1357,CategoryLocalizer,2021.2.3,59.950205358885334,
139.8,140.0,5,0.0,Stimuli\Blank.png,0,0,0,233,233,233,,,,,,,,,,,,,139.82313169999907,0.0231316999990554,None,261.75225599999976,261.75225599999976,261.75225599999976,261.75225599999976,261.75225599999976,261.75225599999976,261.75225599999976,261.75225599999976,,001,P016,2025_Mar_07_1357,CategoryLocalizer,2021.2.3,59.950205358885334,
140.0,140.8,2,0.75,Stimuli\ImageFiles-Set1\Bodies\Bodies_QuadStretch_00003.png,0,0,0,234,234,234,,,,,,,,,,,,,140.00650409999798,0.0065040999979828484,None,261.95242829999916,261.95242829999916,261.95242829999916,261.95242829999916,261.95242829999916,261.95242829999916,261.95242829999916,261.95242829999916,,001,P016,2025_Mar_07_1357,CategoryLocalizer,2021.2.3,59.950205358885334,
140.8,141.0,5,0.0,Stimuli\Blank.png,0,0,0,235,235,235,,,,,,,,,,,,,140.82560809999995,0.025608099999942624,None,262.7698571000001,262.7698571000001,262.7698571000001,262.7698571000001,262.7698571000001,262.7698571000001,262.7698571000001,262.7698571000001,,001,P016,2025_Mar_07_1357,CategoryLocalizer,2021.2.3,59.950205358885334,
141.0,141.8,2,0.75,Stimuli\ImageFiles-Set1\Bodies\Bodies_DownwardDog_00005.png,0,0,0,236,236,236,,,,,,,,,,,,,141.02512819999902,0.025128199999016942,None,262.9700053999986,262.9700053999986,262.9700053999986,262.9700053999986,262.9700053999986,262.9700053999986,262.9700053999986,262.9700053999986,,001,P016,2025_Mar_07_1357,CategoryLocalizer,2021.2.3,59.950205358885334,
141.8,142.0,5,0.0,Stimuli\Blank.png,0,0,0,237,237,237,,,,,,,,,,,,,141.82483280000088,0.024832800000865518,None,263.7540270999998,263.7540270999998,263.7540270999998,263.7540270999998,263.7540270999998,263.7540270999998,263.7540270999998,263.7540270999998,,001,P016,2025_Mar_07_1357,CategoryLocalizer,2021.2.3,59.950205358885334,
142.0,142.8,2,0.75,Stimuli\ImageFiles-Set1\Bodies\Bodies_Waving_00003.png,0,0,0,238,238,238,,,,,,,,,,,,,142.00871019999977,0.00871019999976852,None,263.95421200000055,263.95421200000055,263.95421200000055,263.95421200000055,263.95421200000055,263.95421200000055,263.95421200000055,263.95421200000055,,001,P016,2025_Mar_07_1357,CategoryLocalizer,2021.2.3,59.950205358885334,
142.8,143.0,5,0.0,Stimuli\Blank.png,0,0,0,239,239,239,,,,,,,,,,,,,142.82729489999838,0.027294899998366873,None,264.7549427999984,264.7549427999984,264.7549427999984,264.7549427999984,264.7549427999984,264.7549427999984,264.7549427999984,264.7549427999984,,001,P016,2025_Mar_07_1357,CategoryLocalizer,2021.2.3,59.950205358885334,
143.0,143.8,2,0.75,Stimuli\ImageFiles-Set1\Bodies\Bodies_Falling_00002.png,0,0,0,240,240,240,,,,,,,,,,,,,143.0102764000003,0.010276400000293506,None,264.95515349999914,264.95515349999914,264.95515349999914,264.95515349999914,264.95515349999914,264.95515349999914,264.95515349999914,264.95515349999914,,001,P016,2025_Mar_07_1357,CategoryLocalizer,2021.2.3,59.950205358885334,
143.8,144.0,5,0.0,Stimuli\Blank.png,0,0,0,241,241,241,,,,,,,,,,,,,143.8265743999982,0.02657439999819644,None,265.75580439999976,265.75580439999976,265.75580439999976,265.75580439999976,265.75580439999976,265.75580439999976,265.75580439999976,265.75580439999976,,001,P016,2025_Mar_07_1357,CategoryLocalizer,2021.2.3,59.950205358885334,
144.0,144.8,2,0.75,Stimuli\ImageFiles-Set1\Bodies\Bodies_Walking_00006.png,0,0,0,242,242,242,,,,,,,,,,,,,144.01008490000095,0.010084900000947528,None,265.9392712000008,265.9392712000008,265.9392712000008,265.9392712000008,265.9392712000008,265.9392712000008,265.9392712000008,265.9392712000008,,001,P016,2025_Mar_07_1357,CategoryLocalizer,2021.2.3,59.950205358885334,
144.8,145.0,5,0.0,Stimuli\Blank.png,0,0,0,243,243,243,,,,,,,,,,,,,144.81005860000005,0.010058600000036222,None,266.73999790000016,266.73999790000016,266.73999790000016,266.73999790000016,266.73999790000016,266.73999790000016,266.73999790000016,266.73999790000016,,001,P016,2025_Mar_07_1357,CategoryLocalizer,2021.2.3,59.950205358885334,
145.0,145.8,2,0.75,Stimuli\ImageFiles-Set1\Bodies\Bodies_SittingChair_00003.png,0,0,0,244,244,244,,,,,,,,,,,,,145.01058159999957,0.010581599999568425,None,266.97361459999956,266.97361459999956,266.97361459999956,266.97361459999956,266.97361459999956,266.97361459999956,266.97361459999956,266.97361459999956,,001,P016,2025_Mar_07_1357,CategoryLocalizer,2021.2.3,59.950205358885334,
145.8,146.0,5,0.0,Stimuli\Blank.png,0,0,0,245,245,245,,,,,,,,,,,,,145.84433720000015,0.044337200000143184,None,267.77425909999874,267.77425909999874,267.77425909999874,267.77425909999874,267.77425909999874,267.77425909999874,267.77425909999874,267.77425909999874,,001,P016,2025_Mar_07_1357,CategoryLocalizer,2021.2.3,59.950205358885334,
146.0,146.8,2,0.75,Stimuli\ImageFiles-Set1\Bodies\Bodies_DownwardDog_00007.png,0,0,0,246,246,246,,,,,,,,,,,,,146.01119000000108,0.01119000000107917,None,267.9577527000001,267.9577527000001,267.9577527000001,267.9577527000001,267.9577527000001,267.9577527000001,267.9577527000001,267.9577527000001,,001,P016,2025_Mar_07_1357,CategoryLocalizer,2021.2.3,59.950205358885334,
146.8,147.0,5,0.0,Stimuli\Blank.png,0,0,0,247,247,247,,,,,,,,,,,,,146.8302767999994,0.030276799999398918,None,268.7751544999992,268.7751544999992,268.7751544999992,268.7751544999992,268.7751544999992,268.7751544999992,268.7751544999992,268.7751544999992,,001,P016,2025_Mar_07_1357,CategoryLocalizer,2021.2.3,59.950205358885334,
147.0,147.8,2,0.75,Stimuli\ImageFiles-Set1\Bodies\Bodies_SittingFloor_00007.png,0,0,0,248,248,248,,,,,,,,,,,,,147.0287630999992,0.02876309999919613,None,268.9753110999991,268.9753110999991,268.9753110999991,268.9753110999991,268.9753110999991,268.9753110999991,268.9753110999991,268.9753110999991,,001,P016,2025_Mar_07_1357,CategoryLocalizer,2021.2.3,59.950205358885334,
147.8,148.0,5,0.0,Stimuli\Blank.png,0,0,0,249,249,249,,,,,,,,,,,,,147.8308857000011,0.03088570000107893,None,269.7760090999982,269.7760090999982,269.7760090999982,269.7760090999982,269.7760090999982,269.7760090999982,269.7760090999982,269.7760090999982,,001,P016,2025_Mar_07_1357,CategoryLocalizer,2021.2.3,59.950205358885334,
148.0,148.8,2,0.75,Stimuli\ImageFiles-Set1\Bodies\Bodies_Kicking_00003.png,0,0,0,250,250,250,,,,,,,,,,,,,148.02987679999933,0.029876799999328796,None,269.97619850000046,269.97619850000046,269.97619850000046,269.97619850000046,269.97619850000046,269.97619850000046,269.97619850000046,269.97619850000046,,001,P016,2025_Mar_07_1357,CategoryLocalizer,2021.2.3,59.950205358885334,
148.8,149.0,5,0.0,Stimuli\Blank.png,0,0,0,251,251,251,,,,,,,,,,,,,148.83087299999897,0.030872999998962314,None,270.76022309999826,270.76022309999826,270.76022309999826,270.76022309999826,270.76022309999826,270.76022309999826,270.76022309999826,270.76022309999826,,001,P016,2025_Mar_07_1357,CategoryLocalizer,2021.2.3,59.950205358885334,
149.0,149.8,2,0.75,Stimuli\ImageFiles-Set1\Bodies\Bodies_Punching_00006.png,0,0,0,252,252,252,,,,,,,,,,,,,149.014441299998,0.014441299997997703,None,270.9603935999985,270.9603935999985,270.9603935999985,270.9603935999985,270.9603935999985,270.9603935999985,270.9603935999985,270.9603935999985,,001,P016,2025_Mar_07_1357,CategoryLocalizer,2021.2.3,59.950205358885334,
149.8,150.0,5,0.0,Stimuli\Blank.png,0,0,0,253,253,253,,,,,,,,,,,,,149.8319601000003,0.03196010000027627,None,271.76110020000124,271.76110020000124,271.76110020000124,271.76110020000124,271.76110020000124,271.76110020000124,271.76110020000124,271.76110020000124,,001,P016,2025_Mar_07_1357,CategoryLocalizer,2021.2.3,59.950205358885334,
150.0,150.8,2,0.75,Stimuli\ImageFiles-Set1\Bodies\Bodies_Jumping_00002.png,0,0,0,254,254,254,,,,,,,,,,,,,150.01523449999877,0.015234499998769024,None,271.96124899999995,271.96124899999995,271.96124899999995,271.96124899999995,271.96124899999995,271.96124899999995,271.96124899999995,271.96124899999995,,001,P016,2025_Mar_07_1357,CategoryLocalizer,2021.2.3,59.950205358885334,
150.8,151.0,5,0.0,Stimuli\Blank.png,0,0,0,255,255,255,,,,,,,,,,,,,150.81606649999958,0.01606649999956744,None,272.74527260000104,272.74527260000104,272.74527260000104,272.74527260000104,272.74527260000104,272.74527260000104,272.74527260000104,272.74527260000104,,001,P016,2025_Mar_07_1357,CategoryLocalizer,2021.2.3,59.950205358885334,
151.0,151.8,2,0.75,Stimuli\ImageFiles-Set1\Bodies\Bodies_Punching_00003.png,0,0,0,256,256,256,,,,,,,,,,,,,150.99897620000047,-0.0010237999995297287,None,272.9287970000005,272.9287970000005,272.9287970000005,272.9287970000005,272.9287970000005,272.9287970000005,272.9287970000005,272.9287970000005,,001,P016,2025_Mar_07_1357,CategoryLocalizer,2021.2.3,59.950205358885334,
151.8,152.0,5,0.0,Stimuli\Blank.png,0,0,0,257,257,257,,,,,,,,,,,,,151.80041119999805,0.0004111999980409564,None,273.72951589999866,273.72951589999866,273.72951589999866,273.72951589999866,273.72951589999866,273.72951589999866,273.72951589999866,273.72951589999866,,001,P016,2025_Mar_07_1357,CategoryLocalizer,2021.2.3,59.950205358885334,
152.0,164.0,0,0.0,Stimuli\Blank.png,0,0,0,258,258,258,,,,,,,,,,,,,152.0004067000009,0.00040670000089448877,None,273.929688799999,273.929688799999,273.929688799999,273.929688799999,273.929688799999,273.929688799999,273.929688799999,273.929688799999,,001,P016,2025_Mar_07_1357,CategoryLocalizer,2021.2.3,59.950205358885334,
164.0,164.8,4,0.75,Stimuli\ImageFiles-Set1\Scenes\Scenes_053.png,0,0,0,259,259,259,,,,,,,,,,,,,164.01101589999962,0.01101589999962016,None,285.97366820000025,285.97366820000025,285.97366820000025,285.97366820000025,285.97366820000025,285.97366820000025,285.97366820000025,285.97366820000025,,001,P016,2025_Mar_07_1357,CategoryLocalizer,2021.2.3,59.950205358885334,
164.8,165.0,5,0.0,Stimuli\Blank.png,0,0,0,260,260,260,,,,,,,,,,,,,164.84432620000007,0.04432620000005727,None,286.77437629999986,286.77437629999986,286.77437629999986,286.77437629999986,286.77437629999986,286.77437629999986,286.77437629999986,286.77437629999986,,001,P016,2025_Mar_07_1357,CategoryLocalizer,2021.2.3,59.950205358885334,
165.0,165.8,4,0.75,Stimuli\ImageFiles-Set1\Scenes\Scenes_003.png,0,0,0,261,261,261,,,,,,,,,,,,,165.01185799999803,0.01185799999802839,None,286.9745656999985,286.9745656999985,286.9745656999985,286.9745656999985,286.9745656999985,286.9745656999985,286.9745656999985,286.9745656999985,,001,P016,2025_Mar_07_1357,CategoryLocalizer,2021.2.3,59.950205358885334,
165.8,166.0,5,0.0,Stimuli\Blank.png,0,0,0,262,262,262,,,,,,,,,,,,,165.84604059999765,0.046040599997638765,None,287.7752479999981,287.7752479999981,287.7752479999981,287.7752479999981,287.7752479999981,287.7752479999981,287.7752479999981,287.7752479999981,,001,P016,2025_Mar_07_1357,CategoryLocalizer,2021.2.3,59.950205358885334,
166.0,166.8,4,0.75,Stimuli\ImageFiles-Set1\Scenes\Scenes_050.png,0,0,0,263,263,263,,,,,,,,,,,,,166.01493219999975,0.014932199999748264,None,287.9754491999993,287.9754491999993,287.9754491999993,287.9754491999993,287.9754491999993,287.9754491999993,287.9754491999993,287.9754491999993,,001,P016,2025_Mar_07_1357,CategoryLocalizer,2021.2.3,59.950205358885334,
166.8,167.0,5,0.0,Stimuli\Blank.png,0,0,0,264,264,264,,,,,,,,,,,,,166.84640559999752,0.046405599997513036,None,288.7761410999992,288.7761410999992,288.7761410999992,288.7761410999992,288.7761410999992,288.7761410999992,288.7761410999992,288.7761410999992,,001,P016,2025_Mar_07_1357,CategoryLocalizer,2021.2.3,59.950205358885334,
167.0,167.8,4,0.75,Stimuli\ImageFiles-Set1\Scenes\Scenes_029.png,0,0,0,265,265,265,,,,,,,,,,,,,167.01314339999954,0.013143399999535177,None,288.95963629999824,288.95963629999824,288.95963629999824,288.95963629999824,288.95963629999824,288.95963629999824,288.95963629999824,288.95963629999824,,001,P016,2025_Mar_07_1357,CategoryLocalizer,2021.2.3,59.950205358885334,
167.8,168.0,5,0.0,Stimuli\Blank.png,0,0,0,266,266,266,,,,,,,,,,,,,167.83130700000038,0.03130700000036768,None,289.7603507999993,289.7603507999993,289.7603507999993,289.7603507999993,289.7603507999993,289.7603507999993,289.7603507999993,289.7603507999993,,001,P016,2025_Mar_07_1357,CategoryLocalizer,2021.2.3,59.950205358885334,
168.0,168.8,4,0.75,Stimuli\ImageFiles-Set1\Scenes\Scenes_013.png,0,0,0,267,267,267,,,,,,,,,,,,,168.01455749999877,0.014557499998772983,None,289.9772096000015,289.9772096000015,289.9772096000015,289.9772096000015,289.9772096000015,289.9772096000015,289.9772096000015,289.9772096000015,,001,P016,2025_Mar_07_1357,CategoryLocalizer,2021.2.3,59.950205358885334,
168.8,169.0,5,0.0,Stimuli\Blank.png,0,0,0,268,268,268,,,,,,,,,,,,,168.850325899999,0.05032589999899528,None,290.7946134999984,290.7946134999984,290.7946134999984,290.7946134999984,290.7946134999984,290.7946134999984,290.7946134999984,290.7946134999984,,001,P016,2025_Mar_07_1357,CategoryLocalizer,2021.2.3,59.950205358885334,
169.0,169.8,4,0.75,Stimuli\ImageFiles-Set1\Scenes\Scenes_013.png,1,1,0,269,269,269,,,,,,,,,,,,,169.01648619999833,0.0164861999983259,1,290.9614173000009,290.9614173000009,290.9614173000009,290.9614173000009,290.9614173000009,290.9614173000009,290.9614173000009,290.9614173000009,0.5295146999997087,001,P016,2025_Mar_07_1357,CategoryLocalizer,2021.2.3,59.950205358885334,
169.8,170.0,5,0.0,Stimuli\Blank.png,0,0,0,270,270,270,,,,,,,,,,,,,169.81645560000106,0.016455600001052062,None,291.74543189999895,291.74543189999895,291.74543189999895,291.74543189999895,291.74543189999895,291.74543189999895,291.74543189999895,291.74543189999895,,001,P016,2025_Mar_07_1357,CategoryLocalizer,2021.2.3,59.950205358885334,
170.0,170.8,4,0.75,Stimuli\ImageFiles-Set1\Scenes\Scenes_039.png,0,0,0,271,271,271,,,,,,,,,,,,,169.99955969999792,-0.0004403000020829495,None,291.9623027999987,291.9623027999987,291.9623027999987,291.9623027999987,291.9623027999987,291.9623027999987,291.9623027999987,291.9623027999987,,001,P016,2025_Mar_07_1357,CategoryLocalizer,2021.2.3,59.950205358885334,
170.8,171.0,5,0.0,Stimuli\Blank.png,0,0,0,272,272,272,,,,,,,,,,,,,170.83444769999915,0.03444769999913433,None,292.7630194000012,292.7630194000012,292.7630194000012,292.7630194000012,292.7630194000012,292.7630194000012,292.7630194000012,292.7630194000012,,001,P016,2025_Mar_07_1357,CategoryLocalizer,2021.2.3,59.950205358885334,
171.0,171.8,4,0.75,Stimuli\ImageFiles-Set1\Scenes\Scenes_049.png,0,0,0,273,273,273,,,,,,,,,,,,,171.00063070000033,0.0006307000003289431,None,292.9631836000008,292.9631836000008,292.9631836000008,292.9631836000008,292.9631836000008,292.9631836000008,292.9631836000008,292.9631836000008,,001,P016,2025_Mar_07_1357,CategoryLocalizer,2021.2.3,59.950205358885334,
171.8,172.0,5,0.0,Stimuli\Blank.png,0,0,0,274,274,274,,,,,,,,,,,,,171.83391330000086,0.03391330000084736,None,293.76389109999946,293.76389109999946,293.76389109999946,293.76389109999946,293.76389109999946,293.76389109999946,293.76389109999946,293.76389109999946,,001,P016,2025_Mar_07_1357,CategoryLocalizer,2021.2.3,59.950205358885334,
172.0,172.8,4,0.75,Stimuli\ImageFiles-Set1\Scenes\Scenes_031.png,0,0,0,275,275,275,,,,,,,,,,,,,172.0009351000008,0.0009351000007882249,None,293.9640804999981,293.9640804999981,293.9640804999981,293.9640804999981,293.9640804999981,293.9640804999981,293.9640804999981,293.9640804999981,,001,P016,2025_Mar_07_1357,CategoryLocalizer,2021.2.3,59.950205358885334,
172.8,173.0,5,0.0,Stimuli\Blank.png,0,0,0,276,276,276,,,,,,,,,,,,,172.83554490000097,0.035544900000957114,None,294.7647719000015,294.7647719000015,294.7647719000015,294.7647719000015,294.7647719000015,294.7647719000015,294.7647719000015,294.7647719000015,,001,P016,2025_Mar_07_1357,CategoryLocalizer,2021.2.3,59.950205358885334,
173.0,173.8,4,0.75,Stimuli\ImageFiles-Set1\Scenes\Scenes_055.png,0,0,0,277,277,277,,,,,,,,,,,,,173.00205339999957,0.002053399999567773,None,294.94826869999815,294.94826869999815,294.94826869999815,294.94826869999815,294.94826869999815,294.94826869999815,294.94826869999815,294.94826869999815,,001,P016,2025_Mar_07_1357,CategoryLocalizer,2021.2.3,59.950205358885334,
173.8,174.0,5,0.0,Stimuli\Blank.png,0,0,0,278,278,278,,,,,,,,,,,,,173.81977130000087,0.019771300000854808,None,295.7489930999982,295.7489930999982,295.7489930999982,295.7489930999982,295.7489930999982,295.7489930999982,295.7489930999982,295.7489930999982,,001,P016,2025_Mar_07_1357,CategoryLocalizer,2021.2.3,59.950205358885334,
174.0,174.8,4,0.75,Stimuli\ImageFiles-Set1\Scenes\Scenes_023.png,0,0,0,279,279,279,,,,,,,,,,,,,174.0026226000009,0.00262260000090464,None,295.9324783999982,295.9324783999982,295.9324783999982,295.9324783999982,295.9324783999982,295.9324783999982,295.9324783999982,295.9324783999982,,001,P016,2025_Mar_07_1357,CategoryLocalizer,2021.2.3,59.950205358885334,
174.8,175.0,5,0.0,Stimuli\Blank.png,0,0,0,280,280,280,,,,,,,,,,,,,174.80419709999842,0.004197099998407339,None,296.7331935000002,296.7331935000002,296.7331935000002,296.7331935000002,296.7331935000002,296.7331935000002,296.7331935000002,296.7331935000002,,001,P016,2025_Mar_07_1357,CategoryLocalizer,2021.2.3,59.950205358885334,
175.0,175.8,4,0.75,Stimuli\ImageFiles-Set1\Scenes\Scenes_048.png,0,0,0,281,281,281,,,,,,,,,,,,,175.00608490000013,0.00608490000013262,None,296.95003780000116,296.95003780000116,296.95003780000116,296.95003780000116,296.95003780000116,296.95003780000116,296.95003780000116,296.95003780000116,,001,P016,2025_Mar_07_1357,CategoryLocalizer,2021.2.3,59.950205358885334,
175.8,176.0,5,0.0,Stimuli\Blank.png,0,0,0,282,282,282,,,,,,,,,,,,,175.82090020000032,0.020900200000312452,None,297.7507493999983,297.7507493999983,297.7507493999983,297.7507493999983,297.7507493999983,297.7507493999983,297.7507493999983,297.7507493999983,,001,P016,2025_Mar_07_1357,CategoryLocalizer,2021.2.3,59.950205358885334,
