eventStartTime,eventEndTime,eventCond,imSize,imFile,repeatedImage,responseEvent,Events.thisRepN,Events.thisTrialN,Events.thisN,Events.thisIndex,Instructions.started,Instructions.stopped,participantReadyResponse.keys,participantReadyResponse.rt,participantReadyResponse.started,participantReadyResponse.stopped,startWaitforTrigger,triggerResponse.keys,triggerResponse.rt,triggerResponse.started,triggerResponse.stopped,globalTimer,actualStartTime,startTimingDiff,participantResponse.keys,participantResponse.started,participantResponse.stopped,image.started,image.stopped,fixationOutside.started,fixationOutside.stopped,fixationInside.started,fixationInside.stopped,participantResponse.rt,session,participant,date,expName,psychopyVersion,frameRate,
,,,,,,,,,,,25.21100860000297,None,1,27.975816699999996,25.21100860000297,None,,,,,,,,,,,,,,,,,,,002,P016,2025_Mar_07_1427,CategoryLocalizer,2021.2.3,59.93450357464808,
,,,,,,,,,,,,,,,,,53.19978670000273,5,14.176573099997768,53.21289489999981,None,,,,,,,,,,,,,,002,P016,2025_Mar_07_1427,CategoryLocalizer,2021.2.3,59.93450357464808,
0.0,12.0,0,0.0,Stimuli\Blank.png,0,0,0,0,0,0,,,,,,,,,,,,67.39528340000106,0.037638000001607,0.037638000001607,None,67.45879940000304,None,67.45879940000304,None,67.45879940000304,None,67.45879940000304,None,,002,P016,2025_Mar_07_1427,CategoryLocalizer,2021.2.3,59.93450357464808,
12.0,12.8,1,0.75,Stimuli\ImageFiles-Set2\Objects\Object_Pepper_00001.png,0,0,0,1,1,1,,,,,,,,,,,,,12.02710510000179,0.02710510000179056,None,79.45272699999987,79.45272699999987,79.45272699999987,79.45272699999987,79.45272699999987,79.45272699999987,79.45272699999987,79.45272699999987,,002,P016,2025_Mar_07_1427,CategoryLocalizer,2021.2.3,59.93450357464808,
12.8,13.0,5,0.0,Stimuli\Blank.png,0,0,0,2,2,2,,,,,,,,,,,,,12.829366300000402,0.02936630000040097,None,80.2534575000027,80.2534575000027,80.2534575000027,80.2534575000027,80.2534575000027,80.2534575000027,80.2534575000027,80.2534575000027,,002,P016,2025_Mar_07_1427,CategoryLocalizer,2021.2.3,59.93450357464808,
13.0,13.8,1,0.75,Stimuli\ImageFiles-Set2\Objects\Object_Glass_00001.png,0,0,0,3,3,3,,,,,,,,,,,,,13.026961399998982,0.026961399998981506,None,80.45362500000192,80.45362500000192,80.45362500000192,80.45362500000192,80.45362500000192,80.45362500000192,80.45362500000192,80.45362500000192,,002,P016,2025_Mar_07_1427,CategoryLocalizer,2021.2.3,59.93450357464808,
13.8,14.0,5,0.0,Stimuli\Blank.png,0,0,0,4,4,4,,,,,,,,,,,,,13.829593400001613,0.02959340000161248,None,81.25433600000179,81.25433600000179,81.25433600000179,81.25433600000179,81.25433600000179,81.25433600000179,81.25433600000179,81.25433600000179,,002,P016,2025_Mar_07_1427,CategoryLocalizer,2021.2.3,59.93450357464808,
14.0,14.8,1,0.75,Stimuli\ImageFiles-Set2\Objects\Object_Lawnmower_00001.png,0,0,0,5,5,5,,,,,,,,,,,,,14.030744499999855,0.03074449999985518,None,81.47119790000215,81.47119790000215,81.47119790000215,81.47119790000215,81.47119790000215,81.47119790000215,81.47119790000215,81.47119790000215,,002,P016,2025_Mar_07_1427,CategoryLocalizer,2021.2.3,59.93450357464808,
14.8,15.0,5,0.0,Stimuli\Blank.png,0,0,0,6,6,6,,,,,,,,,,,,,14.845218800001021,0.0452188000010203,None,82.25520990000223,82.25520990000223,82.25520990000223,82.25520990000223,82.25520990000223,82.25520990000223,82.25520990000223,82.25520990000223,,002,P016,2025_Mar_07_1427,CategoryLocalizer,2021.2.3,59.93450357464808,
15.0,15.8,1,0.75,Stimuli\ImageFiles-Set2\Objects\Object_Boot_00001.png,0,0,0,7,7,7,,,,,,,,,,,,,15.012507800001913,0.012507800001912983,None,82.43870670000251,82.43870670000251,82.43870670000251,82.43870670000251,82.43870670000251,82.43870670000251,82.43870670000251,82.43870670000251,,002,P016,2025_Mar_07_1427,CategoryLocalizer,2021.2.3,59.93450357464808,
15.8,16.0,5,0.0,Stimuli\Blank.png,0,0,0,8,8,8,,,,,,,,,,,,,15.829273100000137,0.029273100000136054,None,83.23942060000263,83.23942060000263,83.23942060000263,83.23942060000263,83.23942060000263,83.23942060000263,83.23942060000263,83.23942060000263,,002,P016,2025_Mar_07_1427,CategoryLocalizer,2021.2.3,59.93450357464808,
16.0,16.8,1,0.75,Stimuli\ImageFiles-Set2\Objects\Object_Hook_00001.png,0,0,0,9,9,9,,,,,,,,,,,,,16.01359550000052,0.013595500000519678,None,83.43958180000118,83.43958180000118,83.43958180000118,83.43958180000118,83.43958180000118,83.43958180000118,83.43958180000118,83.43958180000118,,002,P016,2025_Mar_07_1427,CategoryLocalizer,2021.2.3,59.93450357464808,
16.8,17.0,5,0.0,Stimuli\Blank.png,0,0,0,10,10,10,,,,,,,,,,,,,16.830943100001605,0.03094310000160405,None,84.24030120000316,84.24030120000316,84.24030120000316,84.24030120000316,84.24030120000316,84.24030120000316,84.24030120000316,84.24030120000316,,002,P016,2025_Mar_07_1427,CategoryLocalizer,2021.2.3,59.93450357464808,
17.0,17.8,1,0.75,Stimuli\ImageFiles-Set2\Objects\Object_Button1_00001.png,0,0,0,11,11,11,,,,,,,,,,,,,17.01391119999971,0.013911199999711243,None,84.42381400000158,84.42381400000158,84.42381400000158,84.42381400000158,84.42381400000158,84.42381400000158,84.42381400000158,84.42381400000158,,002,P016,2025_Mar_07_1427,CategoryLocalizer,2021.2.3,59.93450357464808,
17.8,18.0,5,0.0,Stimuli\Blank.png,0,0,0,12,12,12,,,,,,,,,,,,,17.81563250000181,0.015632500001810712,None,85.22458810000171,85.22458810000171,85.22458810000171,85.22458810000171,85.22458810000171,85.22458810000171,85.22458810000171,85.22458810000171,,002,P016,2025_Mar_07_1427,CategoryLocalizer,2021.2.3,59.93450357464808,
18.0,18.8,1,0.75,Stimuli\ImageFiles-Set2\Objects\Object_Wheelchair_00001.png,0,0,0,13,13,13,,,,,,,,,,,,,18.000717599999916,0.0007175999999162741,None,85.42467490000126,85.42467490000126,85.42467490000126,85.42467490000126,85.42467490000126,85.42467490000126,85.42467490000126,85.42467490000126,,002,P016,2025_Mar_07_1427,CategoryLocalizer,2021.2.3,59.93450357464808,
18.8,19.0,5,0.0,Stimuli\Blank.png,0,0,0,14,14,14,,,,,,,,,,,,,18.816119400002208,0.01611940000220713,None,86.22539170000164,86.22539170000164,86.22539170000164,86.22539170000164,86.22539170000164,86.22539170000164,86.22539170000164,86.22539170000164,,002,P016,2025_Mar_07_1427,CategoryLocalizer,2021.2.3,59.93450357464808,
19.0,19.8,1,0.75,Stimuli\ImageFiles-Set2\Objects\Object_Wheelchair_00001.png,1,1,0,15,15,15,,,,,,,,,,,,,18.99899440000081,-0.001005599999189144,1,86.40887230000226,86.40887230000226,86.40887230000226,86.40887230000226,86.40887230000226,86.40887230000226,86.40887230000226,86.40887230000226,0.3091636999997718,002,P016,2025_Mar_07_1427,CategoryLocalizer,2021.2.3,59.93450357464808,
19.8,20.0,5,0.0,Stimuli\Blank.png,0,0,0,16,16,16,,,,,,,,,,,,,19.800356399999146,0.0003563999991449407,None,87.20958770000288,87.20958770000288,87.20958770000288,87.20958770000288,87.20958770000288,87.20958770000288,87.20958770000288,87.20958770000288,,002,P016,2025_Mar_07_1427,CategoryLocalizer,2021.2.3,59.93450357464808,
20.0,20.8,1,0.75,Stimuli\ImageFiles-Set2\Objects\Object_Grill_00001.png,0,0,0,17,17,17,,,,,,,,,,,,,20.000506600001245,0.0005066000012448058,None,87.42641790000198,87.42641790000198,87.42641790000198,87.42641790000198,87.42641790000198,87.42641790000198,87.42641790000198,87.42641790000198,,002,P016,2025_Mar_07_1427,CategoryLocalizer,2021.2.3,59.93450357464808,
20.8,21.0,5,0.0,Stimuli\Blank.png,0,0,0,18,18,18,,,,,,,,,,,,,20.819306000001234,0.01930600000123306,None,88.24383600000147,88.24383600000147,88.24383600000147,88.24383600000147,88.24383600000147,88.24383600000147,88.24383600000147,88.24383600000147,,002,P016,2025_Mar_07_1427,CategoryLocalizer,2021.2.3,59.93450357464808,
21.0,21.8,1,0.75,Stimuli\ImageFiles-Set2\Objects\Object_Shelves_00001.png,0,0,0,19,19,19,,,,,,,,,,,,,21.019774399999733,0.01977439999973285,None,88.46072679999997,88.46072679999997,88.46072679999997,88.46072679999997,88.46072679999997,88.46072679999997,88.46072679999997,88.46072679999997,,002,P016,2025_Mar_07_1427,CategoryLocalizer,2021.2.3,59.93450357464808,
21.8,22.0,5,0.0,Stimuli\Blank.png,0,0,0,20,20,20,,,,,,,,,,,,,21.835515400001896,0.0355154000018949,None,89.24471710000216,89.24471710000216,89.24471710000216,89.24471710000216,89.24471710000216,89.24471710000216,89.24471710000216,89.24471710000216,,002,P016,2025_Mar_07_1427,CategoryLocalizer,2021.2.3,59.93450357464808,
22.0,22.8,1,0.75,Stimuli\ImageFiles-Set2\Objects\Object_Bicycle_00001.png,0,0,0,21,21,21,,,,,,,,,,,,,22.00213689999873,0.0021368999987316784,None,89.4281813000016,89.4281813000016,89.4281813000016,89.4281813000016,89.4281813000016,89.4281813000016,89.4281813000016,89.4281813000016,,002,P016,2025_Mar_07_1427,CategoryLocalizer,2021.2.3,59.93450357464808,
22.8,23.0,5,0.0,Stimuli\Blank.png,0,0,0,22,22,22,,,,,,,,,,,,,22.819603500000085,0.01960350000008404,None,90.22892169999977,90.22892169999977,90.22892169999977,90.22892169999977,90.22892169999977,90.22892169999977,90.22892169999977,90.22892169999977,,002,P016,2025_Mar_07_1427,CategoryLocalizer,2021.2.3,59.93450357464808,
23.0,23.8,1,0.75,Stimuli\ImageFiles-Set2\Objects\Object_Keyboard_00001.png,0,0,0,23,23,23,,,,,,,,,,,,,23.004629800001567,0.004629800001566764,None,90.42911100000128,90.42911100000128,90.42911100000128,90.42911100000128,90.42911100000128,90.42911100000128,90.42911100000128,90.42911100000128,,002,P016,2025_Mar_07_1427,CategoryLocalizer,2021.2.3,59.93450357464808,
23.8,24.0,5,0.0,Stimuli\Blank.png,0,0,0,24,24,24,,,,,,,,,,,,,23.820681799999875,0.020681799999874073,None,91.2298174000025,91.2298174000025,91.2298174000025,91.2298174000025,91.2298174000025,91.2298174000025,91.2298174000025,91.2298174000025,,002,P016,2025_Mar_07_1427,CategoryLocalizer,2021.2.3,59.93450357464808,
24.0,24.8,1,0.75,Stimuli\ImageFiles-Set2\Objects\Object_Ladder_00001.png,0,0,0,25,25,25,,,,,,,,,,,,,24.004555999999866,0.0045559999998658895,None,91.4299869000024,91.4299869000024,91.4299869000024,91.4299869000024,91.4299869000024,91.4299869000024,91.4299869000024,91.4299869000024,,002,P016,2025_Mar_07_1427,CategoryLocalizer,2021.2.3,59.93450357464808,
24.8,25.0,5,0.0,Stimuli\Blank.png,0,0,0,26,26,26,,,,,,,,,,,,,24.820697399998608,0.02069739999860687,None,92.23070050000024,92.23070050000024,92.23070050000024,92.23070050000024,92.23070050000024,92.23070050000024,92.23070050000024,92.23070050000024,,002,P016,2025_Mar_07_1427,CategoryLocalizer,2021.2.3,59.93450357464808,
25.0,25.8,1,0.75,Stimuli\ImageFiles-Set2\Objects\Object_Walker_00001.png,0,0,0,27,27,27,,,,,,,,,,,,,25.005381599999964,0.005381599999964237,None,92.4308654000015,92.4308654000015,92.4308654000015,92.4308654000015,92.4308654000015,92.4308654000015,92.4308654000015,92.4308654000015,,002,P016,2025_Mar_07_1427,CategoryLocalizer,2021.2.3,59.93450357464808,
25.8,26.0,5,0.0,Stimuli\Blank.png,0,0,0,28,28,28,,,,,,,,,,,,,25.821717800001352,0.02171780000135115,None,93.2315699000028,93.2315699000028,93.2315699000028,93.2315699000028,93.2315699000028,93.2315699000028,93.2315699000028,93.2315699000028,,002,P016,2025_Mar_07_1427,CategoryLocalizer,2021.2.3,59.93450357464808,
26.0,26.8,1,0.75,Stimuli\ImageFiles-Set2\Objects\Object_Dresser_00001.png,0,0,0,29,29,29,,,,,,,,,,,,,26.005201600000873,0.005201600000873441,None,93.43174960000033,93.43174960000033,93.43174960000033,93.43174960000033,93.43174960000033,93.43174960000033,93.43174960000033,93.43174960000033,,002,P016,2025_Mar_07_1427,CategoryLocalizer,2021.2.3,59.93450357464808,
26.8,27.0,5,0.0,Stimuli\Blank.png,0,0,0,30,30,30,,,,,,,,,,,,,26.82435980000082,0.02435980000081983,None,94.24916120000125,94.24916120000125,94.24916120000125,94.24916120000125,94.24916120000125,94.24916120000125,94.24916120000125,94.24916120000125,,002,P016,2025_Mar_07_1427,CategoryLocalizer,2021.2.3,59.93450357464808,
27.0,27.8,1,0.75,Stimuli\ImageFiles-Set2\Objects\Object_Belt_00001.png,0,0,0,31,31,31,,,,,,,,,,,,,27.025515000001178,0.025515000001178123,None,94.46600160000162,94.46600160000162,94.46600160000162,94.46600160000162,94.46600160000162,94.46600160000162,94.46600160000162,94.46600160000162,,002,P016,2025_Mar_07_1427,CategoryLocalizer,2021.2.3,59.93450357464808,
27.8,28.0,5,0.0,Stimuli\Blank.png,0,0,0,32,32,32,,,,,,,,,,,,,27.84005850000176,0.040058500001759256,None,95.25002430000313,95.25002430000313,95.25002430000313,95.25002430000313,95.25002430000313,95.25002430000313,95.25002430000313,95.25002430000313,,002,P016,2025_Mar_07_1427,CategoryLocalizer,2021.2.3,59.93450357464808,
28.0,28.8,2,0.75,Stimuli\ImageFiles-Set2\Bodies\Bodies_Kneeling_00006.png,0,0,0,33,33,33,,,,,,,,,,,,,28.00686069999938,0.006860699999378994,None,95.43351930000063,95.43351930000063,95.43351930000063,95.43351930000063,95.43351930000063,95.43351930000063,95.43351930000063,95.43351930000063,,002,P016,2025_Mar_07_1427,CategoryLocalizer,2021.2.3,59.93450357464808,
28.8,29.0,5,0.0,Stimuli\Blank.png,0,0,0,34,34,34,,,,,,,,,,,,,28.824915299999702,0.024915299999701546,None,96.23422610000125,96.23422610000125,96.23422610000125,96.23422610000125,96.23422610000125,96.23422610000125,96.23422610000125,96.23422610000125,,002,P016,2025_Mar_07_1427,CategoryLocalizer,2021.2.3,59.93450357464808,
29.0,29.8,2,0.75,Stimuli\ImageFiles-Set2\Bodies\Bodies_Falling_00001.png,0,0,0,35,35,35,,,,,,,,,,,,,29.009747299998708,0.009747299998707604,None,96.4344228000009,96.4344228000009,96.4344228000009,96.4344228000009,96.4344228000009,96.4344228000009,96.4344228000009,96.4344228000009,,002,P016,2025_Mar_07_1427,CategoryLocalizer,2021.2.3,59.93450357464808,
29.8,30.0,5,0.0,Stimuli\Blank.png,0,0,0,36,36,36,,,,,,,,,,,,,29.82591020000109,0.025910200001089123,None,97.23511570000119,97.23511570000119,97.23511570000119,97.23511570000119,97.23511570000119,97.23511570000119,97.23511570000119,97.23511570000119,,002,P016,2025_Mar_07_1427,CategoryLocalizer,2021.2.3,59.93450357464808,
30.0,30.8,2,0.75,Stimuli\ImageFiles-Set2\Bodies\Bodies_Running_00007.png,0,0,0,37,37,37,,,,,,,,,,,,,30.00936340000044,0.00936340000043856,None,97.43528880000304,97.43528880000304,97.43528880000304,97.43528880000304,97.43528880000304,97.43528880000304,97.43528880000304,97.43528880000304,,002,P016,2025_Mar_07_1427,CategoryLocalizer,2021.2.3,59.93450357464808,
30.8,31.0,5,0.0,Stimuli\Blank.png,0,0,0,38,38,38,,,,,,,,,,,,,30.826342700001987,0.026342700001986685,None,98.23600670000087,98.23600670000087,98.23600670000087,98.23600670000087,98.23600670000087,98.23600670000087,98.23600670000087,98.23600670000087,,002,P016,2025_Mar_07_1427,CategoryLocalizer,2021.2.3,59.93450357464808,
31.0,31.8,2,0.75,Stimuli\ImageFiles-Set2\Bodies\Bodies_Running_00007.png,1,1,0,39,39,39,,,,,,,,,,,,,31.01008440000078,0.01008440000077826,1,98.43619039999976,98.43619039999976,98.43619039999976,98.43619039999976,98.43619039999976,98.43619039999976,98.43619039999976,98.43619039999976,0.5924952999994275,002,P016,2025_Mar_07_1427,CategoryLocalizer,2021.2.3,59.93450357464808,
31.8,32.0,5,0.0,Stimuli\Blank.png,0,0,0,40,40,40,,,,,,,,,,,,,31.82690039999943,0.02690039999943039,None,99.23688160000165,99.23688160000165,99.23688160000165,99.23688160000165,99.23688160000165,99.23688160000165,99.23688160000165,99.23688160000165,,002,P016,2025_Mar_07_1427,CategoryLocalizer,2021.2.3,59.93450357464808,
32.0,32.8,2,0.75,Stimuli\ImageFiles-Set2\Bodies\Bodies_SittingChair_00002.png,0,0,0,41,41,41,,,,,,,,,,,,,32.011314200000925,0.011314200000924757,None,99.43706200000088,99.43706200000088,99.43706200000088,99.43706200000088,99.43706200000088,99.43706200000088,99.43706200000088,99.43706200000088,,002,P016,2025_Mar_07_1427,CategoryLocalizer,2021.2.3,59.93450357464808,
32.8,33.0,5,0.0,Stimuli\Blank.png,0,0,0,42,42,42,,,,,,,,,,,,,32.83027149999907,0.03027149999907408,None,100.25446400000146,100.25446400000146,100.25446400000146,100.25446400000146,100.25446400000146,100.25446400000146,100.25446400000146,100.25446400000146,,002,P016,2025_Mar_07_1427,CategoryLocalizer,2021.2.3,59.93450357464808,
33.0,33.8,2,0.75,Stimuli\ImageFiles-Set2\Bodies\Bodies_SittingStretch_00006.png,0,0,0,43,43,43,,,,,,,,,,,,,33.02970180000193,0.029701800001930678,None,100.45465320000221,100.45465320000221,100.45465320000221,100.45465320000221,100.45465320000221,100.45465320000221,100.45465320000221,100.45465320000221,,002,P016,2025_Mar_07_1427,CategoryLocalizer,2021.2.3,59.93450357464808,
33.8,34.0,5,0.0,Stimuli\Blank.png,0,0,0,44,44,44,,,,,,,,,,,,,33.82973349999884,0.029733499998840784,None,101.23867340000288,101.23867340000288,101.23867340000288,101.23867340000288,101.23867340000288,101.23867340000288,101.23867340000288,101.23867340000288,,002,P016,2025_Mar_07_1427,CategoryLocalizer,2021.2.3,59.93450357464808,
34.0,34.8,2,0.75,Stimuli\ImageFiles-Set2\Bodies\Bodies_Walking_00007.png,0,0,0,45,45,45,,,,,,,,,,,,,34.013370399999985,0.013370399999985239,None,101.43883460000143,101.43883460000143,101.43883460000143,101.43883460000143,101.43883460000143,101.43883460000143,101.43883460000143,101.43883460000143,,002,P016,2025_Mar_07_1427,CategoryLocalizer,2021.2.3,59.93450357464808,
34.8,35.0,5,0.0,Stimuli\Blank.png,0,0,0,46,46,46,,,,,,,,,,,,,34.829592400001275,0.029592400001277497,None,102.23954800000138,102.23954800000138,102.23954800000138,102.23954800000138,102.23954800000138,102.23954800000138,102.23954800000138,102.23954800000138,,002,P016,2025_Mar_07_1427,CategoryLocalizer,2021.2.3,59.93450357464808,
35.0,35.8,2,0.75,Stimuli\ImageFiles-Set2\Bodies\Bodies_Running_00004.png,0,0,0,47,47,47,,,,,,,,,,,,,35.01549620000151,0.015496200001507532,None,102.4397334000023,102.4397334000023,102.4397334000023,102.4397334000023,102.4397334000023,102.4397334000023,102.4397334000023,102.4397334000023,,002,P016,2025_Mar_07_1427,CategoryLocalizer,2021.2.3,59.93450357464808,
35.8,36.0,5,0.0,Stimuli\Blank.png,0,0,0,48,48,48,,,,,,,,,,,,,35.81399959999908,0.013999599999081624,None,103.22395420000248,103.22395420000248,103.22395420000248,103.22395420000248,103.22395420000248,103.22395420000248,103.22395420000248,103.22395420000248,,002,P016,2025_Mar_07_1427,CategoryLocalizer,2021.2.3,59.93450357464808,
36.0,36.8,2,0.75,Stimuli\ImageFiles-Set2\Bodies\Bodies_Falling_00003.png,0,0,0,49,49,49,,,,,,,,,,,,,36.01515350000045,0.015153500000451459,None,103.44061290000172,103.44061290000172,103.44061290000172,103.44061290000172,103.44061290000172,103.44061290000172,103.44061290000172,103.44061290000172,,002,P016,2025_Mar_07_1427,CategoryLocalizer,2021.2.3,59.93450357464808,
36.8,37.0,5,0.0,Stimuli\Blank.png,0,0,0,50,50,50,,,,,,,,,,,,,36.81535019999865,0.015350199998650282,None,104.22462509999968,104.22462509999968,104.22462509999968,104.22462509999968,104.22462509999968,104.22462509999968,104.22462509999968,104.22462509999968,,002,P016,2025_Mar_07_1427,CategoryLocalizer,2021.2.3,59.93450357464808,
37.0,37.8,2,0.75,Stimuli\ImageFiles-Set2\Bodies\Bodies_Walking_00003.png,0,0,0,51,51,51,,,,,,,,,,,,,37.015415400001075,0.015415400001074886,None,104.44148450000284,104.44148450000284,104.44148450000284,104.44148450000284,104.44148450000284,104.44148450000284,104.44148450000284,104.44148450000284,,002,P016,2025_Mar_07_1427,CategoryLocalizer,2021.2.3,59.93450357464808,
37.8,38.0,5,0.0,Stimuli\Blank.png,0,0,0,52,52,52,,,,,,,,,,,,,37.81619789999968,0.01619789999968191,None,105.22550240000055,105.22550240000055,105.22550240000055,105.22550240000055,105.22550240000055,105.22550240000055,105.22550240000055,105.22550240000055,,002,P016,2025_Mar_07_1427,CategoryLocalizer,2021.2.3,59.93450357464808,
38.0,38.8,2,0.75,Stimuli\ImageFiles-Set2\Bodies\Bodies_Waving_00002.png,0,0,0,53,53,53,,,,,,,,,,,,,38.000483600000734,0.000483600000734441,None,105.44240030000219,105.44240030000219,105.44240030000219,105.44240030000219,105.44240030000219,105.44240030000219,105.44240030000219,105.44240030000219,,002,P016,2025_Mar_07_1427,CategoryLocalizer,2021.2.3,59.93450357464808,
38.8,39.0,5,0.0,Stimuli\Blank.png,0,0,0,54,54,54,,,,,,,,,,,,,38.83589790000042,0.035897900000421146,None,106.2597663000015,106.2597663000015,106.2597663000015,106.2597663000015,106.2597663000015,106.2597663000015,106.2597663000015,106.2597663000015,,002,P016,2025_Mar_07_1427,CategoryLocalizer,2021.2.3,59.93450357464808,
39.0,39.8,2,0.75,Stimuli\ImageFiles-Set2\Bodies\Bodies_Standing_00002.png,0,0,0,55,55,55,,,,,,,,,,,,,39.01733570000215,0.01733570000214968,None,106.42657520000284,106.42657520000284,106.42657520000284,106.42657520000284,106.42657520000284,106.42657520000284,106.42657520000284,106.42657520000284,,002,P016,2025_Mar_07_1427,CategoryLocalizer,2021.2.3,59.93450357464808,
39.8,40.0,5,0.0,Stimuli\Blank.png,0,0,0,56,56,56,,,,,,,,,,,,,39.80129920000036,0.0012992000003606563,None,107.21059210000021,107.21059210000021,107.21059210000021,107.21059210000021,107.21059210000021,107.21059210000021,107.21059210000021,107.21059210000021,,002,P016,2025_Mar_07_1427,CategoryLocalizer,2021.2.3,59.93450357464808,
40.0,40.8,2,0.75,Stimuli\ImageFiles-Set2\Bodies\Bodies_Hanging_00001.png,1,1,0,57,57,57,,,,,,,,,,,,,40.00081330000103,0.0008133000010275282,None,107.44415050000316,107.44415050000316,107.44415050000316,107.44415050000316,107.44415050000316,107.44415050000316,107.44415050000316,107.44415050000316,,002,P016,2025_Mar_07_1427,CategoryLocalizer,2021.2.3,59.93450357464808,
40.8,41.0,5,0.0,Stimuli\Blank.png,0,0,0,58,58,58,,,,,,,,,,,,,40.83578490000218,0.03578490000218437,None,108.24485520000235,108.24485520000235,108.24485520000235,108.24485520000235,108.24485520000235,108.24485520000235,108.24485520000235,108.24485520000235,,002,P016,2025_Mar_07_1427,CategoryLocalizer,2021.2.3,59.93450357464808,
41.0,41.8,2,0.75,Stimuli\ImageFiles-Set2\Bodies\Bodies_Kicking_00006.png,0,0,0,59,59,59,,,,,,,,,,,,,41.001737700000376,0.0017377000003762078,None,108.42835780000314,108.42835780000314,108.42835780000314,108.42835780000314,108.42835780000314,108.42835780000314,108.42835780000314,108.42835780000314,,002,P016,2025_Mar_07_1427,CategoryLocalizer,2021.2.3,59.93450357464808,
41.8,42.0,5,0.0,Stimuli\Blank.png,0,0,0,60,60,60,,,,,,,,,,,,,41.82012300000133,0.020123000001333935,None,109.22905560000072,109.22905560000072,109.22905560000072,109.22905560000072,109.22905560000072,109.22905560000072,109.22905560000072,109.22905560000072,,002,P016,2025_Mar_07_1427,CategoryLocalizer,2021.2.3,59.93450357464808,
42.0,42.8,2,0.75,Stimuli\ImageFiles-Set2\Bodies\Bodies_Kicking_00006.png,0,0,0,61,61,61,,,,,,,,,,,,,42.004050300001836,0.004050300001836149,1,109.41255640000236,109.41255640000236,109.41255640000236,109.41255640000236,109.41255640000236,109.41255640000236,109.41255640000236,109.41255640000236,0.49013669999840204,002,P016,2025_Mar_07_1427,CategoryLocalizer,2021.2.3,59.93450357464808,
42.8,43.0,5,0.0,Stimuli\Blank.png,0,0,0,62,62,62,,,,,,,,,,,,,42.80444820000048,0.004448200000481961,None,110.21324920000188,110.21324920000188,110.21324920000188,110.21324920000188,110.21324920000188,110.21324920000188,110.21324920000188,110.21324920000188,,002,P016,2025_Mar_07_1427,CategoryLocalizer,2021.2.3,59.93450357464808,
43.0,43.8,2,0.75,Stimuli\ImageFiles-Set2\Bodies\Bodies_Running_00003.png,0,0,0,63,63,63,,,,,,,,,,,,,43.00465470000199,0.004654700001992751,None,110.43011710000064,110.43011710000064,110.43011710000064,110.43011710000064,110.43011710000064,110.43011710000064,110.43011710000064,110.43011710000064,,002,P016,2025_Mar_07_1427,CategoryLocalizer,2021.2.3,59.93450357464808,
43.8,44.0,5,0.0,Stimuli\Blank.png,0,0,0,64,64,64,,,,,,,,,,,,,43.821331200000714,0.02133120000071642,None,111.23082270000305,111.23082270000305,111.23082270000305,111.23082270000305,111.23082270000305,111.23082270000305,111.23082270000305,111.23082270000305,,002,P016,2025_Mar_07_1427,CategoryLocalizer,2021.2.3,59.93450357464808,
44.0,44.8,3,0.75,Stimuli\ImageFiles-Set2\Faces\Face_00070.png,0,0,0,65,65,65,,,,,,,,,,,,,44.004408500000864,0.004408500000863569,None,111.43102110000109,111.43102110000109,111.43102110000109,111.43102110000109,111.43102110000109,111.43102110000109,111.43102110000109,111.43102110000109,,002,P016,2025_Mar_07_1427,CategoryLocalizer,2021.2.3,59.93450357464808,
44.8,45.0,5,0.0,Stimuli\Blank.png,0,0,0,66,66,66,,,,,,,,,,,,,44.8216648000016,0.021664800001602202,None,112.23170790000222,112.23170790000222,112.23170790000222,112.23170790000222,112.23170790000222,112.23170790000222,112.23170790000222,112.23170790000222,,002,P016,2025_Mar_07_1427,CategoryLocalizer,2021.2.3,59.93450357464808,
45.0,45.8,3,0.75,Stimuli\ImageFiles-Set2\Faces\Face_00034.png,0,0,0,67,67,67,,,,,,,,,,,,,45.005110300000524,0.005110300000524148,None,112.43189840000196,112.43189840000196,112.43189840000196,112.43189840000196,112.43189840000196,112.43189840000196,112.43189840000196,112.43189840000196,,002,P016,2025_Mar_07_1427,CategoryLocalizer,2021.2.3,59.93450357464808,
45.8,46.0,5,0.0,Stimuli\Blank.png,0,0,0,68,68,68,,,,,,,,,,,,,45.82504930000141,0.025049300001413144,None,113.24928060000093,113.24928060000093,113.24928060000093,113.24928060000093,113.24928060000093,113.24928060000093,113.24928060000093,113.24928060000093,,002,P016,2025_Mar_07_1427,CategoryLocalizer,2021.2.3,59.93450357464808,
46.0,46.8,3,0.75,Stimuli\ImageFiles-Set2\Faces\Face_00032.png,0,0,0,69,69,69,,,,,,,,,,,,,46.02278260000094,0.022782600000937236,None,113.43275950000316,113.43275950000316,113.43275950000316,113.43275950000316,113.43275950000316,113.43275950000316,113.43275950000316,113.43275950000316,,002,P016,2025_Mar_07_1427,CategoryLocalizer,2021.2.3,59.93450357464808,
46.8,47.0,5,0.0,Stimuli\Blank.png,0,0,0,70,70,70,,,,,,,,,,,,,46.80779859999893,0.007798599998935174,None,114.21680510000078,114.21680510000078,114.21680510000078,114.21680510000078,114.21680510000078,114.21680510000078,114.21680510000078,114.21680510000078,,002,P016,2025_Mar_07_1427,CategoryLocalizer,2021.2.3,59.93450357464808,
47.0,47.8,3,0.75,Stimuli\ImageFiles-Set2\Faces\Face_00013.png,0,0,0,71,71,71,,,,,,,,,,,,,47.00762699999905,0.007626999999047257,None,114.4336749000031,114.4336749000031,114.4336749000031,114.4336749000031,114.4336749000031,114.4336749000031,114.4336749000031,114.4336749000031,,002,P016,2025_Mar_07_1427,CategoryLocalizer,2021.2.3,59.93450357464808,
47.8,48.0,5,0.0,Stimuli\Blank.png,0,0,0,72,72,72,,,,,,,,,,,,,47.82455060000211,0.024550600002115175,None,115.23442380000051,115.23442380000051,115.23442380000051,115.23442380000051,115.23442380000051,115.23442380000051,115.23442380000051,115.23442380000051,,002,P016,2025_Mar_07_1427,CategoryLocalizer,2021.2.3,59.93450357464808,
48.0,48.8,3,0.75,Stimuli\ImageFiles-Set2\Faces\Face_00082.png,0,0,0,73,73,73,,,,,,,,,,,,,48.00850960000025,0.008509600000252249,None,115.45118730000104,115.45118730000104,115.45118730000104,115.45118730000104,115.45118730000104,115.45118730000104,115.45118730000104,115.45118730000104,,002,P016,2025_Mar_07_1427,CategoryLocalizer,2021.2.3,59.93450357464808,
48.8,49.0,5,0.0,Stimuli\Blank.png,0,0,0,74,74,74,,,,,,,,,,,,,48.84266330000173,0.04266330000173468,None,116.25200910000058,116.25200910000058,116.25200910000058,116.25200910000058,116.25200910000058,116.25200910000058,116.25200910000058,116.25200910000058,,002,P016,2025_Mar_07_1427,CategoryLocalizer,2021.2.3,59.93450357464808,
49.0,49.8,3,0.75,Stimuli\ImageFiles-Set2\Faces\Face_00010.png,0,0,0,75,75,75,,,,,,,,,,,,,49.01022830000147,0.010228300001472235,None,116.43542510000043,116.43542510000043,116.43542510000043,116.43542510000043,116.43542510000043,116.43542510000043,116.43542510000043,116.43542510000043,,002,P016,2025_Mar_07_1427,CategoryLocalizer,2021.2.3,59.93450357464808,
49.8,50.0,5,0.0,Stimuli\Blank.png,0,0,0,76,76,76,,,,,,,,,,,,,49.826564099999814,0.026564099999816904,None,117.23613600000317,117.23613600000317,117.23613600000317,117.23613600000317,117.23613600000317,117.23613600000317,117.23613600000317,117.23613600000317,,002,P016,2025_Mar_07_1427,CategoryLocalizer,2021.2.3,59.93450357464808,
50.0,50.8,3,0.75,Stimuli\ImageFiles-Set2\Faces\Face_00021.png,0,0,0,77,77,77,,,,,,,,,,,,,50.009677800000645,0.00967780000064522,None,117.45298259999981,117.45298259999981,117.45298259999981,117.45298259999981,117.45298259999981,117.45298259999981,117.45298259999981,117.45298259999981,,002,P016,2025_Mar_07_1427,CategoryLocalizer,2021.2.3,59.93450357464808,
50.8,51.0,5,0.0,Stimuli\Blank.png,0,0,0,78,78,78,,,,,,,,,,,,,50.84433210000134,0.044332100001341246,None,118.25369890000002,118.25369890000002,118.25369890000002,118.25369890000002,118.25369890000002,118.25369890000002,118.25369890000002,118.25369890000002,,002,P016,2025_Mar_07_1427,CategoryLocalizer,2021.2.3,59.93450357464808,
51.0,51.8,3,0.75,Stimuli\ImageFiles-Set2\Faces\Face_00056.png,0,0,0,79,79,79,,,,,,,,,,,,,51.011235199999646,0.011235199999646284,None,118.43718190000072,118.43718190000072,118.43718190000072,118.43718190000072,118.43718190000072,118.43718190000072,118.43718190000072,118.43718190000072,,002,P016,2025_Mar_07_1427,CategoryLocalizer,2021.2.3,59.93450357464808,
51.8,52.0,5,0.0,Stimuli\Blank.png,0,0,0,80,80,80,,,,,,,,,,,,,51.83054919999995,0.030549199999953203,None,119.25459610000325,119.25459610000325,119.25459610000325,119.25459610000325,119.25459610000325,119.25459610000325,119.25459610000325,119.25459610000325,,002,P016,2025_Mar_07_1427,CategoryLocalizer,2021.2.3,59.93450357464808,
52.0,52.8,3,0.75,Stimuli\ImageFiles-Set2\Faces\Face_00004.png,0,0,0,81,81,81,,,,,,,,,,,,,52.02844009999899,0.028440099998988444,None,119.43807500000185,119.43807500000185,119.43807500000185,119.43807500000185,119.43807500000185,119.43807500000185,119.43807500000185,119.43807500000185,,002,P016,2025_Mar_07_1427,CategoryLocalizer,2021.2.3,59.93450357464808,
52.8,53.0,5,0.0,Stimuli\Blank.png,0,0,0,82,82,82,,,,,,,,,,,,,52.81482519999918,0.014825199999179972,None,120.23877960000027,120.23877960000027,120.23877960000027,120.23877960000027,120.23877960000027,120.23877960000027,120.23877960000027,120.23877960000027,,002,P016,2025_Mar_07_1427,CategoryLocalizer,2021.2.3,59.93450357464808,
53.0,53.8,3,0.75,Stimuli\ImageFiles-Set2\Faces\Face_00017.png,0,0,0,83,83,83,,,,,,,,,,,,,53.02939930000139,0.02939930000138702,None,120.47238840000136,120.47238840000136,120.47238840000136,120.47238840000136,120.47238840000136,120.47238840000136,120.47238840000136,120.47238840000136,,002,P016,2025_Mar_07_1427,CategoryLocalizer,2021.2.3,59.93450357464808,
53.8,54.0,5,0.0,Stimuli\Blank.png,0,0,0,84,84,84,,,,,,,,,,,,,53.84736189999967,0.047361899999671664,None,121.25720600000204,121.25720600000204,121.25720600000204,121.25720600000204,121.25720600000204,121.25720600000204,121.25720600000204,121.25720600000204,,002,P016,2025_Mar_07_1427,CategoryLocalizer,2021.2.3,59.93450357464808,
54.0,54.8,3,0.75,Stimuli\ImageFiles-Set2\Faces\Face_00102.png,0,0,0,85,85,85,,,,,,,,,,,,,54.01327769999989,0.013277699999889592,None,121.42331540000305,121.42331540000305,121.42331540000305,121.42331540000305,121.42331540000305,121.42331540000305,121.42331540000305,121.42331540000305,,002,P016,2025_Mar_07_1427,CategoryLocalizer,2021.2.3,59.93450357464808,
54.8,55.0,5,0.0,Stimuli\Blank.png,0,0,0,86,86,86,,,,,,,,,,,,,54.81384859999889,0.013848599998894429,None,122.22391340000104,122.22391340000104,122.22391340000104,122.22391340000104,122.22391340000104,122.22391340000104,122.22391340000104,122.22391340000104,,002,P016,2025_Mar_07_1427,CategoryLocalizer,2021.2.3,59.93450357464808,
55.0,55.8,3,0.75,Stimuli\ImageFiles-Set2\Faces\Face_00088.png,0,0,0,87,87,87,,,,,,,,,,,,,55.014635600000474,0.01463560000047437,None,122.45742800000153,122.45742800000153,122.45742800000153,122.45742800000153,122.45742800000153,122.45742800000153,122.45742800000153,122.45742800000153,,002,P016,2025_Mar_07_1427,CategoryLocalizer,2021.2.3,59.93450357464808,
55.8,56.0,5,0.0,Stimuli\Blank.png,0,0,0,88,88,88,,,,,,,,,,,,,55.85035300000163,0.05035300000163545,None,123.27480930000092,123.27480930000092,123.27480930000092,123.27480930000092,123.27480930000092,123.27480930000092,123.27480930000092,123.27480930000092,,002,P016,2025_Mar_07_1427,CategoryLocalizer,2021.2.3,59.93450357464808,
56.0,56.8,3,0.75,Stimuli\ImageFiles-Set2\Faces\Face_00088.png,1,1,0,89,89,89,,,,,,,,,,,,,56.0156707999995,0.01567079999949783,1,123.44164060000185,123.44164060000185,123.44164060000185,123.44164060000185,123.44164060000185,123.44164060000185,123.44164060000185,123.44164060000185,0.39403800000218325,002,P016,2025_Mar_07_1427,CategoryLocalizer,2021.2.3,59.93450357464808,
56.8,57.0,5,0.0,Stimuli\Blank.png,0,0,0,90,90,90,,,,,,,,,,,,,56.8163601999986,0.016360199998601388,None,124.22563820000141,124.22563820000141,124.22563820000141,124.22563820000141,124.22563820000141,124.22563820000141,124.22563820000141,124.22563820000141,,002,P016,2025_Mar_07_1427,CategoryLocalizer,2021.2.3,59.93450357464808,
57.0,57.8,3,0.75,Stimuli\ImageFiles-Set2\Faces\Face_00092.png,0,0,0,91,91,91,,,,,,,,,,,,,56.99925380000059,-0.0007461999994120561,None,124.40913490000094,124.40913490000094,124.40913490000094,124.40913490000094,124.40913490000094,124.40913490000094,124.40913490000094,124.40913490000094,,002,P016,2025_Mar_07_1427,CategoryLocalizer,2021.2.3,59.93450357464808,
57.8,58.0,5,0.0,Stimuli\Blank.png,0,0,0,92,92,92,,,,,,,,,,,,,57.80061520000163,0.0006152000016328429,None,125.20984250000038,125.20984250000038,125.20984250000038,125.20984250000038,125.20984250000038,125.20984250000038,125.20984250000038,125.20984250000038,,002,P016,2025_Mar_07_1427,CategoryLocalizer,2021.2.3,59.93450357464808,
58.0,58.8,3,0.75,Stimuli\ImageFiles-Set2\Faces\Face_00038.png,0,0,0,93,93,93,,,,,,,,,,,,,58.00044870000056,0.0004487000005610753,None,125.44339610000316,125.44339610000316,125.44339610000316,125.44339610000316,125.44339610000316,125.44339610000316,125.44339610000316,125.44339610000316,,002,P016,2025_Mar_07_1427,CategoryLocalizer,2021.2.3,59.93450357464808,
58.8,59.0,5,0.0,Stimuli\Blank.png,0,0,0,94,94,94,,,,,,,,,,,,,58.834073300000455,0.03407330000045761,None,126.24408870000116,126.24408870000116,126.24408870000116,126.24408870000116,126.24408870000116,126.24408870000116,126.24408870000116,126.24408870000116,,002,P016,2025_Mar_07_1427,CategoryLocalizer,2021.2.3,59.93450357464808,
59.0,59.8,3,0.75,Stimuli\ImageFiles-Set2\Faces\Face_00050.png,0,0,0,95,95,95,,,,,,,,,,,,,59.00172179999936,0.0017217999993590638,None,126.42758220000178,126.42758220000178,126.42758220000178,126.42758220000178,126.42758220000178,126.42758220000178,126.42758220000178,126.42758220000178,,002,P016,2025_Mar_07_1427,CategoryLocalizer,2021.2.3,59.93450357464808,
59.8,60.0,5,0.0,Stimuli\Blank.png,0,0,0,96,96,96,,,,,,,,,,,,,59.819054399999004,0.019054399999006932,None,127.22829940000156,127.22829940000156,127.22829940000156,127.22829940000156,127.22829940000156,127.22829940000156,127.22829940000156,127.22829940000156,,002,P016,2025_Mar_07_1427,CategoryLocalizer,2021.2.3,59.93450357464808,
60.0,60.8,4,0.75,Stimuli\ImageFiles-Set2\Scenes\Scenes_113.png,0,0,0,97,97,97,,,,,,,,,,,,,60.001904799999465,0.0019047999994654674,None,127.42846869999994,127.42846869999994,127.42846869999994,127.42846869999994,127.42846869999994,127.42846869999994,127.42846869999994,127.42846869999994,,002,P016,2025_Mar_07_1427,CategoryLocalizer,2021.2.3,59.93450357464808,
60.8,61.0,5,0.0,Stimuli\Blank.png,0,0,0,98,98,98,,,,,,,,,,,,,60.82015450000108,0.020154500001083875,None,128.22917770000277,128.22917770000277,128.22917770000277,128.22917770000277,128.22917770000277,128.22917770000277,128.22917770000277,128.22917770000277,,002,P016,2025_Mar_07_1427,CategoryLocalizer,2021.2.3,59.93450357464808,
61.0,61.8,4,0.75,Stimuli\ImageFiles-Set2\Scenes\Scenes_073.png,0,0,0,99,99,99,,,,,,,,,,,,,61.005513500000234,0.005513500000233762,None,128.4460669,128.4460669,128.4460669,128.4460669,128.4460669,128.4460669,128.4460669,128.4460669,,002,P016,2025_Mar_07_1427,CategoryLocalizer,2021.2.3,59.93450357464808,
61.8,62.0,5,0.0,Stimuli\Blank.png,0,0,0,100,100,100,,,,,,,,,,,,,61.8374330000006,0.03743300000060401,None,129.24681380000038,129.24681380000038,129.24681380000038,129.24681380000038,129.24681380000038,129.24681380000038,129.24681380000038,129.24681380000038,,002,P016,2025_Mar_07_1427,CategoryLocalizer,2021.2.3,59.93450357464808,
62.0,62.8,4,0.75,Stimuli\ImageFiles-Set2\Scenes\Scenes_067.png,0,0,0,101,101,101,,,,,,,,,,,,,62.004388800000015,0.0043888000000151806,None,129.4469201000029,129.4469201000029,129.4469201000029,129.4469201000029,129.4469201000029,129.4469201000029,129.4469201000029,129.4469201000029,,002,P016,2025_Mar_07_1427,CategoryLocalizer,2021.2.3,59.93450357464808,
62.8,63.0,5,0.0,Stimuli\Blank.png,0,0,0,102,102,102,,,,,,,,,,,,,62.84122690000004,0.0412269000000407,None,130.26433820000238,130.26433820000238,130.26433820000238,130.26433820000238,130.26433820000238,130.26433820000238,130.26433820000238,130.26433820000238,,002,P016,2025_Mar_07_1427,CategoryLocalizer,2021.2.3,59.93450357464808,
63.0,63.8,4,0.75,Stimuli\ImageFiles-Set2\Scenes\Scenes_112.png,0,0,0,103,103,103,,,,,,,,,,,,,63.02114989999973,0.021149899999727495,None,130.44783650000318,130.44783650000318,130.44783650000318,130.44783650000318,130.44783650000318,130.44783650000318,130.44783650000318,130.44783650000318,,002,P016,2025_Mar_07_1427,CategoryLocalizer,2021.2.3,59.93450357464808,
63.8,64.0,5,0.0,Stimuli\Blank.png,0,0,0,104,104,104,,,,,,,,,,,,,63.821883000000525,0.02188300000052834,None,131.23183380000046,131.23183380000046,131.23183380000046,131.23183380000046,131.23183380000046,131.23183380000046,131.23183380000046,131.23183380000046,,002,P016,2025_Mar_07_1427,CategoryLocalizer,2021.2.3,59.93450357464808,
64.0,64.8,4,0.75,Stimuli\ImageFiles-Set2\Scenes\Scenes_075.png,0,0,0,105,105,105,,,,,,,,,,,,,64.00617989999955,0.006179899999551708,None,131.4320112000023,131.4320112000023,131.4320112000023,131.4320112000023,131.4320112000023,131.4320112000023,131.4320112000023,131.4320112000023,,002,P016,2025_Mar_07_1427,CategoryLocalizer,2021.2.3,59.93450357464808,
64.8,65.0,5,0.0,Stimuli\Blank.png,0,0,0,106,106,106,,,,,,,,,,,,,64.82540700000027,0.025407000000271296,None,132.2493992000018,132.2493992000018,132.2493992000018,132.2493992000018,132.2493992000018,132.2493992000018,132.2493992000018,132.2493992000018,,002,P016,2025_Mar_07_1427,CategoryLocalizer,2021.2.3,59.93450357464808,
65.0,65.8,4,0.75,Stimuli\ImageFiles-Set2\Scenes\Scenes_099.png,0,0,0,107,107,107,,,,,,,,,,,,,65.02537060000031,0.02537060000031488,None,132.46627830000216,132.46627830000216,132.46627830000216,132.46627830000216,132.46627830000216,132.46627830000216,132.46627830000216,132.46627830000216,,002,P016,2025_Mar_07_1427,CategoryLocalizer,2021.2.3,59.93450357464808,
65.8,66.0,5,0.0,Stimuli\Blank.png,0,0,0,108,108,108,,,,,,,,,,,,,65.84111359999952,0.04111359999951958,None,133.25027709999995,133.25027709999995,133.25027709999995,133.25027709999995,133.25027709999995,133.25027709999995,133.25027709999995,133.25027709999995,,002,P016,2025_Mar_07_1427,CategoryLocalizer,2021.2.3,59.93450357464808,
66.0,66.8,4,0.75,Stimuli\ImageFiles-Set2\Scenes\Scenes_074.png,0,0,0,109,109,109,,,,,,,,,,,,,66.00827550000031,0.008275500000308966,None,133.4337809000026,133.4337809000026,133.4337809000026,133.4337809000026,133.4337809000026,133.4337809000026,133.4337809000026,133.4337809000026,,002,P016,2025_Mar_07_1427,CategoryLocalizer,2021.2.3,59.93450357464808,
66.8,67.0,5,0.0,Stimuli\Blank.png,0,0,0,110,110,110,,,,,,,,,,,,,66.82516709999982,0.025167099999819698,None,134.2344836000011,134.2344836000011,134.2344836000011,134.2344836000011,134.2344836000011,134.2344836000011,134.2344836000011,134.2344836000011,,002,P016,2025_Mar_07_1427,CategoryLocalizer,2021.2.3,59.93450357464808,
67.0,67.8,4,0.75,Stimuli\ImageFiles-Set2\Scenes\Scenes_097.png,0,0,0,111,111,111,,,,,,,,,,,,,67.00983819999965,0.009838199999649078,None,134.43466380000245,134.43466380000245,134.43466380000245,134.43466380000245,134.43466380000245,134.43466380000245,134.43466380000245,134.43466380000245,,002,P016,2025_Mar_07_1427,CategoryLocalizer,2021.2.3,59.93450357464808,
67.8,68.0,5,0.0,Stimuli\Blank.png,0,0,0,112,112,112,,,,,,,,,,,,,67.82616960000087,0.026169600000869764,None,135.23536700000113,135.23536700000113,135.23536700000113,135.23536700000113,135.23536700000113,135.23536700000113,135.23536700000113,135.23536700000113,,002,P016,2025_Mar_07_1427,CategoryLocalizer,2021.2.3,59.93450357464808,
68.0,68.8,4,0.75,Stimuli\ImageFiles-Set2\Scenes\Scenes_106.png,0,0,0,113,113,113,,,,,,,,,,,,,68.00973240000167,0.009732400001666974,None,135.43552380000256,135.43552380000256,135.43552380000256,135.43552380000256,135.43552380000256,135.43552380000256,135.43552380000256,135.43552380000256,,002,P016,2025_Mar_07_1427,CategoryLocalizer,2021.2.3,59.93450357464808,
68.8,69.0,5,0.0,Stimuli\Blank.png,0,0,0,114,114,114,,,,,,,,,,,,,68.82695890000105,0.02695890000104839,None,136.23625880000327,136.23625880000327,136.23625880000327,136.23625880000327,136.23625880000327,136.23625880000327,136.23625880000327,136.23625880000327,,002,P016,2025_Mar_07_1427,CategoryLocalizer,2021.2.3,59.93450357464808,
69.0,69.8,4,0.75,Stimuli\ImageFiles-Set2\Scenes\Scenes_109.png,0,0,0,115,115,115,,,,,,,,,,,,,69.01097060000029,0.010970600000291597,None,136.43642790000013,136.43642790000013,136.43642790000013,136.43642790000013,136.43642790000013,136.43642790000013,136.43642790000013,136.43642790000013,,002,P016,2025_Mar_07_1427,CategoryLocalizer,2021.2.3,59.93450357464808,
69.8,70.0,5,0.0,Stimuli\Blank.png,0,0,0,116,116,116,,,,,,,,,,,,,69.82708439999988,0.027084399999878883,None,137.23713860000134,137.23713860000134,137.23713860000134,137.23713860000134,137.23713860000134,137.23713860000134,137.23713860000134,137.23713860000134,,002,P016,2025_Mar_07_1427,CategoryLocalizer,2021.2.3,59.93450357464808,
70.0,70.8,4,0.75,Stimuli\ImageFiles-Set2\Scenes\Scenes_071.png,0,0,0,117,117,117,,,,,,,,,,,,,70.01067080000212,0.010670800002117176,None,137.43730970000252,137.43730970000252,137.43730970000252,137.43730970000252,137.43730970000252,137.43730970000252,137.43730970000252,137.43730970000252,,002,P016,2025_Mar_07_1427,CategoryLocalizer,2021.2.3,59.93450357464808,
70.8,71.0,5,0.0,Stimuli\Blank.png,0,0,0,118,118,118,,,,,,,,,,,,,70.82882950000203,0.02882950000203266,None,138.2380484000023,138.2380484000023,138.2380484000023,138.2380484000023,138.2380484000023,138.2380484000023,138.2380484000023,138.2380484000023,,002,P016,2025_Mar_07_1427,CategoryLocalizer,2021.2.3,59.93450357464808,
71.0,71.8,4,0.75,Stimuli\ImageFiles-Set2\Scenes\Scenes_081.png,0,0,0,119,119,119,,,,,,,,,,,,,71.0116323000002,0.011632300000201212,None,138.4548786000014,138.4548786000014,138.4548786000014,138.4548786000014,138.4548786000014,138.4548786000014,138.4548786000014,138.4548786000014,,002,P016,2025_Mar_07_1427,CategoryLocalizer,2021.2.3,59.93450357464808,
71.8,72.0,5,0.0,Stimuli\Blank.png,0,0,0,120,120,120,,,,,,,,,,,,,71.84586409999974,0.045864099999747054,None,139.25558509999973,139.25558509999973,139.25558509999973,139.25558509999973,139.25558509999973,139.25558509999973,139.25558509999973,139.25558509999973,,002,P016,2025_Mar_07_1427,CategoryLocalizer,2021.2.3,59.93450357464808,
72.0,72.8,4,0.75,Stimuli\ImageFiles-Set2\Scenes\Scenes_061.png,0,0,0,121,121,121,,,,,,,,,,,,,72.01438749999943,0.014387499999429565,None,139.43921110000156,139.43921110000156,139.43921110000156,139.43921110000156,139.43921110000156,139.43921110000156,139.43921110000156,139.43921110000156,,002,P016,2025_Mar_07_1427,CategoryLocalizer,2021.2.3,59.93450357464808,
72.8,73.0,5,0.0,Stimuli\Blank.png,0,0,0,122,122,122,,,,,,,,,,,,,72.83092960000067,0.03092960000067535,None,140.23979330000293,140.23979330000293,140.23979330000293,140.23979330000293,140.23979330000293,140.23979330000293,140.23979330000293,140.23979330000293,,002,P016,2025_Mar_07_1427,CategoryLocalizer,2021.2.3,59.93450357464808,
73.0,73.8,4,0.75,Stimuli\ImageFiles-Set2\Scenes\Scenes_115.png,0,0,0,123,123,123,,,,,,,,,,,,,73.01407449999897,0.014074499998969259,None,140.45665000000008,140.45665000000008,140.45665000000008,140.45665000000008,140.45665000000008,140.45665000000008,140.45665000000008,140.45665000000008,,002,P016,2025_Mar_07_1427,CategoryLocalizer,2021.2.3,59.93450357464808,
73.8,74.0,5,0.0,Stimuli\Blank.png,0,0,0,124,124,124,,,,,,,,,,,,,73.84733889999916,0.0473388999991613,None,141.25736280000274,141.25736280000274,141.25736280000274,141.25736280000274,141.25736280000274,141.25736280000274,141.25736280000274,141.25736280000274,,002,P016,2025_Mar_07_1427,CategoryLocalizer,2021.2.3,59.93450357464808,
74.0,74.8,4,0.75,Stimuli\ImageFiles-Set2\Scenes\Scenes_115.png,1,1,0,125,125,125,,,,,,,,,,,,,74.01417610000135,0.014176100001350278,1,141.44088390000252,141.44088390000252,141.44088390000252,141.44088390000252,141.44088390000252,141.44088390000252,141.44088390000252,141.44088390000252,0.5148009000004095,002,P016,2025_Mar_07_1427,CategoryLocalizer,2021.2.3,59.93450357464808,
74.8,75.0,5,0.0,Stimuli\Blank.png,0,0,0,126,126,126,,,,,,,,,,,,,74.8318356000018,0.031835600001798525,None,142.2415663000029,142.2415663000029,142.2415663000029,142.2415663000029,142.2415663000029,142.2415663000029,142.2415663000029,142.2415663000029,,002,P016,2025_Mar_07_1427,CategoryLocalizer,2021.2.3,59.93450357464808,
75.0,75.8,4,0.75,Stimuli\ImageFiles-Set2\Scenes\Scenes_120.png,0,0,0,127,127,127,,,,,,,,,,,,,75.01502120000077,0.015021200000774115,None,142.458442500003,142.458442500003,142.458442500003,142.458442500003,142.458442500003,142.458442500003,142.458442500003,142.458442500003,,002,P016,2025_Mar_07_1427,CategoryLocalizer,2021.2.3,59.93450357464808,
75.8,76.0,5,0.0,Stimuli\Blank.png,0,0,0,128,128,128,,,,,,,,,,,,,75.83493250000174,0.034932500001744415,None,143.2591551000005,143.2591551000005,143.2591551000005,143.2591551000005,143.2591551000005,143.2591551000005,143.2591551000005,143.2591551000005,,002,P016,2025_Mar_07_1427,CategoryLocalizer,2021.2.3,59.93450357464808,
76.0,88.0,0,0.0,Stimuli\Blank.png,0,0,0,129,129,129,,,,,,,,,,,,,76.01601970000047,0.01601970000047004,None,143.42594100000133,143.42594100000133,143.42594100000133,143.42594100000133,143.42594100000133,143.42594100000133,143.42594100000133,143.42594100000133,,002,P016,2025_Mar_07_1427,CategoryLocalizer,2021.2.3,59.93450357464808,
88.0,88.8,3,0.75,Stimuli\ImageFiles-Set2\Faces\Face_00104.png,0,0,0,130,130,130,,,,,,,,,,,,,88.00996700000178,0.009967000001779525,None,155.4532431000007,155.4532431000007,155.4532431000007,155.4532431000007,155.4532431000007,155.4532431000007,155.4532431000007,155.4532431000007,,002,P016,2025_Mar_07_1427,CategoryLocalizer,2021.2.3,59.93450357464808,
88.8,89.0,5,0.0,Stimuli\Blank.png,0,0,0,131,131,131,,,,,,,,,,,,,88.84401079999952,0.044010799999526284,None,156.25399680000191,156.25399680000191,156.25399680000191,156.25399680000191,156.25399680000191,156.25399680000191,156.25399680000191,156.25399680000191,,002,P016,2025_Mar_07_1427,CategoryLocalizer,2021.2.3,59.93450357464808,
89.0,89.8,3,0.75,Stimuli\ImageFiles-Set2\Faces\Face_00052.png,0,0,0,132,132,132,,,,,,,,,,,,,89.01079670000036,0.010796700000355486,None,156.42076240000097,156.42076240000097,156.42076240000097,156.42076240000097,156.42076240000097,156.42076240000097,156.42076240000097,156.42076240000097,,002,P016,2025_Mar_07_1427,CategoryLocalizer,2021.2.3,59.93450357464808,
89.8,90.0,5,0.0,Stimuli\Blank.png,0,0,0,133,133,133,,,,,,,,,,,,,89.81160689999888,0.011606899998881204,None,157.22146760000032,157.22146760000032,157.22146760000032,157.22146760000032,157.22146760000032,157.22146760000032,157.22146760000032,157.22146760000032,,002,P016,2025_Mar_07_1427,CategoryLocalizer,2021.2.3,59.93450357464808,
90.0,90.8,3,0.75,Stimuli\ImageFiles-Set2\Faces\Face_00072.png,0,0,0,134,134,134,,,,,,,,,,,,,90.01201270000092,0.01201270000092336,None,157.43883050000295,157.43883050000295,157.43883050000295,157.43883050000295,157.43883050000295,157.43883050000295,157.43883050000295,157.43883050000295,,002,P016,2025_Mar_07_1427,CategoryLocalizer,2021.2.3,59.93450357464808,
90.8,91.0,5,0.0,Stimuli\Blank.png,0,0,0,135,135,135,,,,,,,,,,,,,90.82924070000081,0.02924070000081258,None,158.23903580000115,158.23903580000115,158.23903580000115,158.23903580000115,158.23903580000115,158.23903580000115,158.23903580000115,158.23903580000115,,002,P016,2025_Mar_07_1427,CategoryLocalizer,2021.2.3,59.93450357464808,
91.0,91.8,3,0.75,Stimuli\ImageFiles-Set2\Faces\Face_00072.png,1,1,0,136,136,136,,,,,,,,,,,,,91.01400590000048,0.014005900000483962,1,158.4392149000014,158.4392149000014,158.4392149000014,158.4392149000014,158.4392149000014,158.4392149000014,158.4392149000014,158.4392149000014,0.453241799998068,002,P016,2025_Mar_07_1427,CategoryLocalizer,2021.2.3,59.93450357464808,
91.8,92.0,5,0.0,Stimuli\Blank.png,0,0,0,137,137,137,,,,,,,,,,,,,91.83018300000185,0.030183000001855476,None,159.23991890000252,159.23991890000252,159.23991890000252,159.23991890000252,159.23991890000252,159.23991890000252,159.23991890000252,159.23991890000252,,002,P016,2025_Mar_07_1427,CategoryLocalizer,2021.2.3,59.93450357464808,
92.0,92.8,3,0.75,Stimuli\ImageFiles-Set2\Faces\Face_00054.png,0,0,0,138,138,138,,,,,,,,,,,,,92.01355790000162,0.013557900001615053,None,159.4234181000029,159.4234181000029,159.4234181000029,159.4234181000029,159.4234181000029,159.4234181000029,159.4234181000029,159.4234181000029,,002,P016,2025_Mar_07_1427,CategoryLocalizer,2021.2.3,59.93450357464808,
92.8,93.0,5,0.0,Stimuli\Blank.png,0,0,0,139,139,139,,,,,,,,,,,,,92.81472790000043,0.014727900000437444,None,160.22413170000073,160.22413170000073,160.22413170000073,160.22413170000073,160.22413170000073,160.22413170000073,160.22413170000073,160.22413170000073,,002,P016,2025_Mar_07_1427,CategoryLocalizer,2021.2.3,59.93450357464808,
93.0,93.8,3,0.75,Stimuli\ImageFiles-Set2\Faces\Face_00112.png,0,0,0,140,140,140,,,,,,,,,,,,,93.01553169999897,0.015531699998973636,None,160.44101200000296,160.44101200000296,160.44101200000296,160.44101200000296,160.44101200000296,160.44101200000296,160.44101200000296,160.44101200000296,,002,P016,2025_Mar_07_1427,CategoryLocalizer,2021.2.3,59.93450357464808,
93.8,94.0,5,0.0,Stimuli\Blank.png,0,0,0,141,141,141,,,,,,,,,,,,,93.81513339999947,0.015133399999470498,None,161.22501100000227,161.22501100000227,161.22501100000227,161.22501100000227,161.22501100000227,161.22501100000227,161.22501100000227,161.22501100000227,,002,P016,2025_Mar_07_1427,CategoryLocalizer,2021.2.3,59.93450357464808,
94.0,94.8,3,0.75,Stimuli\ImageFiles-Set2\Faces\Face_00076.png,0,0,0,142,142,142,,,,,,,,,,,,,94.01554580000084,0.015545800000836607,None,161.458555600002,161.458555600002,161.458555600002,161.458555600002,161.458555600002,161.458555600002,161.458555600002,161.458555600002,,002,P016,2025_Mar_07_1427,CategoryLocalizer,2021.2.3,59.93450357464808,
94.8,95.0,5,0.0,Stimuli\Blank.png,0,0,0,143,143,143,,,,,,,,,,,,,94.83384579999984,0.03384579999983828,None,162.24258200000259,162.24258200000259,162.24258200000259,162.24258200000259,162.24258200000259,162.24258200000259,162.24258200000259,162.24258200000259,,002,P016,2025_Mar_07_1427,CategoryLocalizer,2021.2.3,59.93450357464808,
95.0,95.8,3,0.75,Stimuli\ImageFiles-Set2\Faces\Face_00118.png,0,0,0,144,144,144,,,,,,,,,,,,,94.9993304999989,-0.0006695000010950025,None,162.40939770000114,162.40939770000114,162.40939770000114,162.40939770000114,162.40939770000114,162.40939770000114,162.40939770000114,162.40939770000114,,002,P016,2025_Mar_07_1427,CategoryLocalizer,2021.2.3,59.93450357464808,
95.8,96.0,5,0.0,Stimuli\Blank.png,0,0,0,145,145,145,,,,,,,,,,,,,95.80007370000021,7.370000021467149e-05,None,163.21009630000117,163.21009630000117,163.21009630000117,163.21009630000117,163.21009630000117,163.21009630000117,163.21009630000117,163.21009630000117,,002,P016,2025_Mar_07_1427,CategoryLocalizer,2021.2.3,59.93450357464808,
96.0,96.8,3,0.75,Stimuli\ImageFiles-Set2\Faces\Face_00064.png,0,0,0,146,146,146,,,,,,,,,,,,,96.001106300002,0.0011063000019930769,None,163.42694920000213,163.42694920000213,163.42694920000213,163.42694920000213,163.42694920000213,163.42694920000213,163.42694920000213,163.42694920000213,,002,P016,2025_Mar_07_1427,CategoryLocalizer,2021.2.3,59.93450357464808,
96.8,97.0,5,0.0,Stimuli\Blank.png,0,0,0,147,147,147,,,,,,,,,,,,,96.8196495000011,0.019649500001108322,None,164.24434740000288,164.24434740000288,164.24434740000288,164.24434740000288,164.24434740000288,164.24434740000288,164.24434740000288,164.24434740000288,,002,P016,2025_Mar_07_1427,CategoryLocalizer,2021.2.3,59.93450357464808,
97.0,97.8,3,0.75,Stimuli\ImageFiles-Set2\Faces\Face_00036.png,0,0,0,148,148,148,,,,,,,,,,,,,97.02030999999988,0.020309999999881256,None,164.4612491000007,164.4612491000007,164.4612491000007,164.4612491000007,164.4612491000007,164.4612491000007,164.4612491000007,164.4612491000007,,002,P016,2025_Mar_07_1427,CategoryLocalizer,2021.2.3,59.93450357464808,
97.8,98.0,5,0.0,Stimuli\Blank.png,0,0,0,149,149,149,,,,,,,,,,,,,97.83609739999883,0.03609739999883743,None,165.24523560000307,165.24523560000307,165.24523560000307,165.24523560000307,165.24523560000307,165.24523560000307,165.24523560000307,165.24523560000307,,002,P016,2025_Mar_07_1427,CategoryLocalizer,2021.2.3,59.93450357464808,
98.0,98.8,3,0.75,Stimuli\ImageFiles-Set2\Faces\Face_00090.png,0,0,0,150,150,150,,,,,,,,,,,,,98.00252370000089,0.002523700000892859,None,165.42872870000065,165.42872870000065,165.42872870000065,165.42872870000065,165.42872870000065,165.42872870000065,165.42872870000065,165.42872870000065,,002,P016,2025_Mar_07_1427,CategoryLocalizer,2021.2.3,59.93450357464808,
98.8,99.0,5,0.0,Stimuli\Blank.png,0,0,0,151,151,151,,,,,,,,,,,,,98.82017149999956,0.020171499999563025,None,166.2294333000027,166.2294333000027,166.2294333000027,166.2294333000027,166.2294333000027,166.2294333000027,166.2294333000027,166.2294333000027,,002,P016,2025_Mar_07_1427,CategoryLocalizer,2021.2.3,59.93450357464808,
99.0,99.8,3,0.75,Stimuli\ImageFiles-Set2\Faces\Face_00116.png,0,0,0,152,152,152,,,,,,,,,,,,,99.00385970000207,0.0038597000020672567,None,166.42960970000058,166.42960970000058,166.42960970000058,166.42960970000058,166.42960970000058,166.42960970000058,166.42960970000058,166.42960970000058,,002,P016,2025_Mar_07_1427,CategoryLocalizer,2021.2.3,59.93450357464808,
99.8,100.0,5,0.0,Stimuli\Blank.png,0,0,0,153,153,153,,,,,,,,,,,,,99.82025839999915,0.020258399999150356,None,167.23031240000273,167.23031240000273,167.23031240000273,167.23031240000273,167.23031240000273,167.23031240000273,167.23031240000273,167.23031240000273,,002,P016,2025_Mar_07_1427,CategoryLocalizer,2021.2.3,59.93450357464808,
100.0,100.8,3,0.75,Stimuli\ImageFiles-Set2\Faces\Face_00026.png,0,0,0,154,154,154,,,,,,,,,,,,,100.0044478000018,0.004447800001798896,None,167.43046170000162,167.43046170000162,167.43046170000162,167.43046170000162,167.43046170000162,167.43046170000162,167.43046170000162,167.43046170000162,,002,P016,2025_Mar_07_1427,CategoryLocalizer,2021.2.3,59.93450357464808,
100.8,101.0,5,0.0,Stimuli\Blank.png,0,0,0,155,155,155,,,,,,,,,,,,,100.82213609999963,0.022136099999627845,None,168.23120660000131,168.23120660000131,168.23120660000131,168.23120660000131,168.23120660000131,168.23120660000131,168.23120660000131,168.23120660000131,,002,P016,2025_Mar_07_1427,CategoryLocalizer,2021.2.3,59.93450357464808,
101.0,101.8,3,0.75,Stimuli\ImageFiles-Set2\Faces\Face_00040.png,0,0,0,156,156,156,,,,,,,,,,,,,101.00548490000074,0.00548490000073798,None,168.44812360000287,168.44812360000287,168.44812360000287,168.44812360000287,168.44812360000287,168.44812360000287,168.44812360000287,168.44812360000287,,002,P016,2025_Mar_07_1427,CategoryLocalizer,2021.2.3,59.93450357464808,
101.8,102.0,5,0.0,Stimuli\Blank.png,0,0,0,157,157,157,,,,,,,,,,,,,101.84002310000142,0.040023100001420175,None,169.24877150000248,169.24877150000248,169.24877150000248,169.24877150000248,169.24877150000248,169.24877150000248,169.24877150000248,169.24877150000248,,002,P016,2025_Mar_07_1427,CategoryLocalizer,2021.2.3,59.93450357464808,
102.0,102.8,3,0.75,Stimuli\ImageFiles-Set2\Faces\Face_00114.png,0,0,0,158,158,158,,,,,,,,,,,,,102.00560680000126,0.005606800001260126,None,169.44896190000145,169.44896190000145,169.44896190000145,169.44896190000145,169.44896190000145,169.44896190000145,169.44896190000145,169.44896190000145,,002,P016,2025_Mar_07_1427,CategoryLocalizer,2021.2.3,59.93450357464808,
102.8,103.0,5,0.0,Stimuli\Blank.png,0,0,0,159,159,159,,,,,,,,,,,,,102.84027929999866,0.04027929999865876,None,170.24965590000284,170.24965590000284,170.24965590000284,170.24965590000284,170.24965590000284,170.24965590000284,170.24965590000284,170.24965590000284,,002,P016,2025_Mar_07_1427,CategoryLocalizer,2021.2.3,59.93450357464808,
103.0,103.8,3,0.75,Stimuli\ImageFiles-Set2\Faces\Face_00019.png,0,0,0,160,160,160,,,,,,,,,,,,,103.00722830000086,0.007228300000861054,None,170.44984250000198,170.44984250000198,170.44984250000198,170.44984250000198,170.44984250000198,170.44984250000198,170.44984250000198,170.44984250000198,,002,P016,2025_Mar_07_1427,CategoryLocalizer,2021.2.3,59.93450357464808,
103.8,104.0,5,0.0,Stimuli\Blank.png,0,0,0,161,161,161,,,,,,,,,,,,,103.84160469999915,0.04160469999915506,None,171.2672259000028,171.2672259000028,171.2672259000028,171.2672259000028,171.2672259000028,171.2672259000028,171.2672259000028,171.2672259000028,,002,P016,2025_Mar_07_1427,CategoryLocalizer,2021.2.3,59.93450357464808,
104.0,104.8,1,0.75,Stimuli\ImageFiles-Set2\Objects\Object_Scissors_00001.png,0,0,0,162,162,162,,,,,,,,,,,,,104.02475770000092,0.024757700000918703,None,171.45074230000318,171.45074230000318,171.45074230000318,171.45074230000318,171.45074230000318,171.45074230000318,171.45074230000318,171.45074230000318,,002,P016,2025_Mar_07_1427,CategoryLocalizer,2021.2.3,59.93450357464808,
104.8,105.0,5,0.0,Stimuli\Blank.png,0,0,0,163,163,163,,,,,,,,,,,,,104.82591709999906,0.025917099999062998,None,172.23477869999988,172.23477869999988,172.23477869999988,172.23477869999988,172.23477869999988,172.23477869999988,172.23477869999988,172.23477869999988,,002,P016,2025_Mar_07_1427,CategoryLocalizer,2021.2.3,59.93450357464808,
105.0,105.8,1,0.75,Stimuli\ImageFiles-Set2\Objects\Object_Hamburger_00001.png,0,0,0,164,164,164,,,,,,,,,,,,,105.00890210000216,0.008902100002160296,None,172.43492570000308,172.43492570000308,172.43492570000308,172.43492570000308,172.43492570000308,172.43492570000308,172.43492570000308,172.43492570000308,,002,P016,2025_Mar_07_1427,CategoryLocalizer,2021.2.3,59.93450357464808,
105.8,106.0,5,0.0,Stimuli\Blank.png,0,0,0,165,165,165,,,,,,,,,,,,,105.82561720000012,0.025617200000127127,None,173.23563009999998,173.23563009999998,173.23563009999998,173.23563009999998,173.23563009999998,173.23563009999998,173.23563009999998,173.23563009999998,,002,P016,2025_Mar_07_1427,CategoryLocalizer,2021.2.3,59.93450357464808,
106.0,106.8,1,0.75,Stimuli\ImageFiles-Set2\Objects\Object_Coffee_00001.png,0,0,0,166,166,166,,,,,,,,,,,,,106.01042140000209,0.010421400002087466,None,173.43580360000124,173.43580360000124,173.43580360000124,173.43580360000124,173.43580360000124,173.43580360000124,173.43580360000124,173.43580360000124,,002,P016,2025_Mar_07_1427,CategoryLocalizer,2021.2.3,59.93450357464808,
106.8,107.0,5,0.0,Stimuli\Blank.png,0,0,0,167,167,167,,,,,,,,,,,,,106.82714250000208,0.027142500002085512,None,174.23647940000228,174.23647940000228,174.23647940000228,174.23647940000228,174.23647940000228,174.23647940000228,174.23647940000228,174.23647940000228,,002,P016,2025_Mar_07_1427,CategoryLocalizer,2021.2.3,59.93450357464808,
107.0,107.8,1,0.75,Stimuli\ImageFiles-Set2\Objects\Object_Sandal_00001.png,0,0,0,168,168,168,,,,,,,,,,,,,107.01058679999915,0.010586799999146024,None,174.43668740000066,174.43668740000066,174.43668740000066,174.43668740000066,174.43668740000066,174.43668740000066,174.43668740000066,174.43668740000066,,002,P016,2025_Mar_07_1427,CategoryLocalizer,2021.2.3,59.93450357464808,
107.8,108.0,5,0.0,Stimuli\Blank.png,0,0,0,169,169,169,,,,,,,,,,,,,107.82743499999924,0.027434999999243814,None,175.2373398000018,175.2373398000018,175.2373398000018,175.2373398000018,175.2373398000018,175.2373398000018,175.2373398000018,175.2373398000018,,002,P016,2025_Mar_07_1427,CategoryLocalizer,2021.2.3,59.93450357464808,
108.0,108.8,1,0.75,Stimuli\ImageFiles-Set2\Objects\Object_Ambulance_00001.png,0,0,0,170,170,170,,,,,,,,,,,,,108.0113420000016,0.011342000001604902,None,175.43756740000026,175.43756740000026,175.43756740000026,175.43756740000026,175.43756740000026,175.43756740000026,175.43756740000026,175.43756740000026,,002,P016,2025_Mar_07_1427,CategoryLocalizer,2021.2.3,59.93450357464808,
108.8,109.0,5,0.0,Stimuli\Blank.png,0,0,0,171,171,171,,,,,,,,,,,,,108.8293072000015,0.029307200001497336,None,176.2382787000024,176.2382787000024,176.2382787000024,176.2382787000024,176.2382787000024,176.2382787000024,176.2382787000024,176.2382787000024,,002,P016,2025_Mar_07_1427,CategoryLocalizer,2021.2.3,59.93450357464808,
109.0,109.8,1,0.75,Stimuli\ImageFiles-Set2\Objects\Object_Ambulance_00001.png,1,1,0,172,172,172,,,,,,,,,,,,,109.01181459999862,0.01181459999861545,1,176.4217731000026,176.4217731000026,176.4217731000026,176.4217731000026,176.4217731000026,176.4217731000026,176.4217731000026,176.4217731000026,0.4307163999983459,002,P016,2025_Mar_07_1427,CategoryLocalizer,2021.2.3,59.93450357464808,
109.8,110.0,5,0.0,Stimuli\Blank.png,0,0,0,173,173,173,,,,,,,,,,,,,109.81452160000117,0.014521600001174306,None,177.2391912000021,177.2391912000021,177.2391912000021,177.2391912000021,177.2391912000021,177.2391912000021,177.2391912000021,177.2391912000021,,002,P016,2025_Mar_07_1427,CategoryLocalizer,2021.2.3,59.93450357464808,
110.0,110.8,1,0.75,Stimuli\ImageFiles-Set2\Objects\Object_Toast_00001.png,0,0,0,174,174,174,,,,,,,,,,,,,110.03002620000188,0.030026200001884717,None,177.47270930000013,177.47270930000013,177.47270930000013,177.47270930000013,177.47270930000013,177.47270930000013,177.47270930000013,177.47270930000013,,002,P016,2025_Mar_07_1427,CategoryLocalizer,2021.2.3,59.93450357464808,
110.8,111.0,5,0.0,Stimuli\Blank.png,0,0,0,175,175,175,,,,,,,,,,,,,110.84699360000013,0.046993600000135416,None,178.25673680000182,178.25673680000182,178.25673680000182,178.25673680000182,178.25673680000182,178.25673680000182,178.25673680000182,178.25673680000182,,002,P016,2025_Mar_07_1427,CategoryLocalizer,2021.2.3,59.93450357464808,
111.0,111.8,1,0.75,Stimuli\ImageFiles-Set2\Objects\Object_Plate_00001.png,0,0,0,176,176,176,,,,,,,,,,,,,111.0141967999989,0.014196799998899223,None,178.44024400000126,178.44024400000126,178.44024400000126,178.44024400000126,178.44024400000126,178.44024400000126,178.44024400000126,178.44024400000126,,002,P016,2025_Mar_07_1427,CategoryLocalizer,2021.2.3,59.93450357464808,
111.8,112.0,5,0.0,Stimuli\Blank.png,0,0,0,177,177,177,,,,,,,,,,,,,111.83158380000168,0.031583800001683926,None,179.24092890000247,179.24092890000247,179.24092890000247,179.24092890000247,179.24092890000247,179.24092890000247,179.24092890000247,179.24092890000247,,002,P016,2025_Mar_07_1427,CategoryLocalizer,2021.2.3,59.93450357464808,
112.0,112.8,1,0.75,Stimuli\ImageFiles-Set2\Objects\Object_Mug_00001.png,0,0,0,178,178,178,,,,,,,,,,,,,112.01489190000211,0.01489190000211238,None,179.45779500000208,179.45779500000208,179.45779500000208,179.45779500000208,179.45779500000208,179.45779500000208,179.45779500000208,179.45779500000208,,002,P016,2025_Mar_07_1427,CategoryLocalizer,2021.2.3,59.93450357464808,
112.8,113.0,5,0.0,Stimuli\Blank.png,0,0,0,179,179,179,,,,,,,,,,,,,112.84952239999984,0.049522399999844424,None,180.25850510000237,180.25850510000237,180.25850510000237,180.25850510000237,180.25850510000237,180.25850510000237,180.25850510000237,180.25850510000237,,002,P016,2025_Mar_07_1427,CategoryLocalizer,2021.2.3,59.93450357464808,
113.0,113.8,1,0.75,Stimuli\ImageFiles-Set2\Objects\Object_Dishwasher_00001.png,0,0,0,180,180,180,,,,,,,,,,,,,112.99913980000201,-0.0008601999979873654,None,180.44201430000248,180.44201430000248,180.44201430000248,180.44201430000248,180.44201430000248,180.44201430000248,180.44201430000248,180.44201430000248,,002,P016,2025_Mar_07_1427,CategoryLocalizer,2021.2.3,59.93450357464808,
113.8,114.0,5,0.0,Stimuli\Blank.png,0,0,0,181,181,181,,,,,,,,,,,,,113.83499429999938,0.03499429999938286,None,181.2594375000008,181.2594375000008,181.2594375000008,181.2594375000008,181.2594375000008,181.2594375000008,181.2594375000008,181.2594375000008,,002,P016,2025_Mar_07_1427,CategoryLocalizer,2021.2.3,59.93450357464808,
114.0,114.8,1,0.75,Stimuli\ImageFiles-Set2\Objects\Object_ArmChair_00001.png,0,0,0,182,182,182,,,,,,,,,,,,,114.0166907999992,0.016690799999196315,None,181.4428850000004,181.4428850000004,181.4428850000004,181.4428850000004,181.4428850000004,181.4428850000004,181.4428850000004,181.4428850000004,,002,P016,2025_Mar_07_1427,CategoryLocalizer,2021.2.3,59.93450357464808,
114.8,115.0,5,0.0,Stimuli\Blank.png,0,0,0,183,183,183,,,,,,,,,,,,,114.81966190000094,0.01966190000094059,None,182.24358940000093,182.24358940000093,182.24358940000093,182.24358940000093,182.24358940000093,182.24358940000093,182.24358940000093,182.24358940000093,,002,P016,2025_Mar_07_1427,CategoryLocalizer,2021.2.3,59.93450357464808,
115.0,115.8,1,0.75,Stimuli\ImageFiles-Set2\Objects\Object_Mailbox_00001.png,1,1,0,184,184,184,,,,,,,,,,,,,115.01991389999966,0.019913899999664864,None,182.46044489999986,182.46044489999986,182.46044489999986,182.46044489999986,182.46044489999986,182.46044489999986,182.46044489999986,182.46044489999986,,002,P016,2025_Mar_07_1427,CategoryLocalizer,2021.2.3,59.93450357464808,
115.8,116.0,5,0.0,Stimuli\Blank.png,0,0,0,185,185,185,,,,,,,,,,,,,115.83461990000069,0.03461990000069193,None,183.2444441000007,183.2444441000007,183.2444441000007,183.2444441000007,183.2444441000007,183.2444441000007,183.2444441000007,183.2444441000007,,002,P016,2025_Mar_07_1427,CategoryLocalizer,2021.2.3,59.93450357464808,
116.0,116.8,1,0.75,Stimuli\ImageFiles-Set2\Objects\Object_Car_00001.png,0,0,0,186,186,186,,,,,,,,,,,,,116.0021416999989,0.0021416999989014585,None,183.427939600002,183.427939600002,183.427939600002,183.427939600002,183.427939600002,183.427939600002,183.427939600002,183.427939600002,,002,P016,2025_Mar_07_1427,CategoryLocalizer,2021.2.3,59.93450357464808,
116.8,117.0,5,0.0,Stimuli\Blank.png,0,0,0,187,187,187,,,,,,,,,,,,,116.81939350000175,0.01939350000175466,None,184.2286763000011,184.2286763000011,184.2286763000011,184.2286763000011,184.2286763000011,184.2286763000011,184.2286763000011,184.2286763000011,,002,P016,2025_Mar_07_1427,CategoryLocalizer,2021.2.3,59.93450357464808,
117.0,117.8,1,0.75,Stimuli\ImageFiles-Set2\Objects\Object_Car_00001.png,0,0,0,188,188,188,,,,,,,,,,,,,117.0029366000017,0.002936600001703482,1,184.42888590000075,184.42888590000075,184.42888590000075,184.42888590000075,184.42888590000075,184.42888590000075,184.42888590000075,184.42888590000075,0.4137216000017361,002,P016,2025_Mar_07_1427,CategoryLocalizer,2021.2.3,59.93450357464808,
117.8,118.0,5,0.0,Stimuli\Blank.png,0,0,0,189,189,189,,,,,,,,,,,,,117.82059899999877,0.02059899999876791,None,185.22957260000112,185.22957260000112,185.22957260000112,185.22957260000112,185.22957260000112,185.22957260000112,185.22957260000112,185.22957260000112,,002,P016,2025_Mar_07_1427,CategoryLocalizer,2021.2.3,59.93450357464808,
118.0,118.8,1,0.75,Stimuli\ImageFiles-Set2\Objects\Object_Battery_00001.png,0,0,0,190,190,190,,,,,,,,,,,,,118.00410290000218,0.0041029000021808315,None,185.44641860000047,185.44641860000047,185.44641860000047,185.44641860000047,185.44641860000047,185.44641860000047,185.44641860000047,185.44641860000047,,002,P016,2025_Mar_07_1427,CategoryLocalizer,2021.2.3,59.93450357464808,
118.8,119.0,5,0.0,Stimuli\Blank.png,0,0,0,191,191,191,,,,,,,,,,,,,118.83838399999877,0.0383839999987714,None,186.2471409000027,186.2471409000027,186.2471409000027,186.2471409000027,186.2471409000027,186.2471409000027,186.2471409000027,186.2471409000027,,002,P016,2025_Mar_07_1427,CategoryLocalizer,2021.2.3,59.93450357464808,
119.0,119.8,1,0.75,Stimuli\ImageFiles-Set2\Objects\Object_Perfume_00001.png,0,0,0,192,192,192,,,,,,,,,,,,,119.0048241000004,0.004824100000405451,None,186.4306198000013,186.4306198000013,186.4306198000013,186.4306198000013,186.4306198000013,186.4306198000013,186.4306198000013,186.4306198000013,,002,P016,2025_Mar_07_1427,CategoryLocalizer,2021.2.3,59.93450357464808,
119.8,120.0,5,0.0,Stimuli\Blank.png,0,0,0,193,193,193,,,,,,,,,,,,,119.82195380000121,0.021953800001213608,None,187.23132500000065,187.23132500000065,187.23132500000065,187.23132500000065,187.23132500000065,187.23132500000065,187.23132500000065,187.23132500000065,,002,P016,2025_Mar_07_1427,CategoryLocalizer,2021.2.3,59.93450357464808,
120.0,120.8,4,0.75,Stimuli\ImageFiles-Set2\Scenes\Scenes_093.png,0,0,0,194,194,194,,,,,,,,,,,,,120.00644549999924,0.00644549999924493,None,187.44819880000068,187.44819880000068,187.44819880000068,187.44819880000068,187.44819880000068,187.44819880000068,187.44819880000068,187.44819880000068,,002,P016,2025_Mar_07_1427,CategoryLocalizer,2021.2.3,59.93450357464808,
120.8,121.0,5,0.0,Stimuli\Blank.png,0,0,0,195,195,195,,,,,,,,,,,,,120.83952969999882,0.039529699998823276,None,188.2488927000013,188.2488927000013,188.2488927000013,188.2488927000013,188.2488927000013,188.2488927000013,188.2488927000013,188.2488927000013,,002,P016,2025_Mar_07_1427,CategoryLocalizer,2021.2.3,59.93450357464808,
121.0,121.8,4,0.75,Stimuli\ImageFiles-Set2\Scenes\Scenes_093.png,1,1,0,196,196,196,,,,,,,,,,,,,121.00573480000094,0.005734800000936957,1,188.43242090000058,188.43242090000058,188.43242090000058,188.43242090000058,188.43242090000058,188.43242090000058,188.43242090000058,188.43242090000058,0.507128899997042,002,P016,2025_Mar_07_1427,CategoryLocalizer,2021.2.3,59.93450357464808,
121.8,122.0,5,0.0,Stimuli\Blank.png,0,0,0,197,197,197,,,,,,,,,,,,,121.82574000000022,0.02574000000022636,None,189.24979800000074,189.24979800000074,189.24979800000074,189.24979800000074,189.24979800000074,189.24979800000074,189.24979800000074,189.24979800000074,,002,P016,2025_Mar_07_1427,CategoryLocalizer,2021.2.3,59.93450357464808,
122.0,122.8,4,0.75,Stimuli\ImageFiles-Set2\Scenes\Scenes_087.png,0,0,0,198,198,198,,,,,,,,,,,,,122.02381249999962,0.02381249999962165,None,189.44996570000148,189.44996570000148,189.44996570000148,189.44996570000148,189.44996570000148,189.44996570000148,189.44996570000148,189.44996570000148,,002,P016,2025_Mar_07_1427,CategoryLocalizer,2021.2.3,59.93450357464808,
122.8,123.0,5,0.0,Stimuli\Blank.png,0,0,0,199,199,199,,,,,,,,,,,,,122.82401100000061,0.024011000000612626,None,190.23398430000088,190.23398430000088,190.23398430000088,190.23398430000088,190.23398430000088,190.23398430000088,190.23398430000088,190.23398430000088,,002,P016,2025_Mar_07_1427,CategoryLocalizer,2021.2.3,59.93450357464808,
123.0,123.8,4,0.75,Stimuli\ImageFiles-Set2\Scenes\Scenes_068.png,0,0,0,200,200,200,,,,,,,,,,,,,123.00988900000084,0.009889000000839587,None,190.43418010000096,190.43418010000096,190.43418010000096,190.43418010000096,190.43418010000096,190.43418010000096,190.43418010000096,190.43418010000096,,002,P016,2025_Mar_07_1427,CategoryLocalizer,2021.2.3,59.93450357464808,
123.8,124.0,5,0.0,Stimuli\Blank.png,0,0,0,201,201,201,,,,,,,,,,,,,123.82620360000146,0.026203600001466043,None,191.23487290000048,191.23487290000048,191.23487290000048,191.23487290000048,191.23487290000048,191.23487290000048,191.23487290000048,191.23487290000048,,002,P016,2025_Mar_07_1427,CategoryLocalizer,2021.2.3,59.93450357464808,
124.0,124.8,4,0.75,Stimuli\ImageFiles-Set2\Scenes\Scenes_095.png,0,0,0,202,202,202,,,,,,,,,,,,,124.00882139999885,0.00882139999885112,None,191.45172930000263,191.45172930000263,191.45172930000263,191.45172930000263,191.45172930000263,191.45172930000263,191.45172930000263,191.45172930000263,,002,P016,2025_Mar_07_1427,CategoryLocalizer,2021.2.3,59.93450357464808,
124.8,125.0,5,0.0,Stimuli\Blank.png,0,0,0,203,203,203,,,,,,,,,,,,,124.84385810000094,0.043858100000946365,None,192.25245350000114,192.25245350000114,192.25245350000114,192.25245350000114,192.25245350000114,192.25245350000114,192.25245350000114,192.25245350000114,,002,P016,2025_Mar_07_1427,CategoryLocalizer,2021.2.3,59.93450357464808,
125.0,125.8,4,0.75,Stimuli\ImageFiles-Set2\Scenes\Scenes_118.png,0,0,0,204,204,204,,,,,,,,,,,,,125.00920369999949,0.00920369999948889,None,192.45261970000138,192.45261970000138,192.45261970000138,192.45261970000138,192.45261970000138,192.45261970000138,192.45261970000138,192.45261970000138,,002,P016,2025_Mar_07_1427,CategoryLocalizer,2021.2.3,59.93450357464808,
125.8,126.0,5,0.0,Stimuli\Blank.png,0,0,0,205,205,205,,,,,,,,,,,,,125.84357929999896,0.04357929999896726,None,193.25332710000293,193.25332710000293,193.25332710000293,193.25332710000293,193.25332710000293,193.25332710000293,193.25332710000293,193.25332710000293,,002,P016,2025_Mar_07_1427,CategoryLocalizer,2021.2.3,59.93450357464808,
126.0,126.8,4,0.75,Stimuli\ImageFiles-Set2\Scenes\Scenes_072.png,0,0,0,206,206,206,,,,,,,,,,,,,126.01078160000179,0.010781600001791958,None,193.45351900000242,193.45351900000242,193.45351900000242,193.45351900000242,193.45351900000242,193.45351900000242,193.45351900000242,193.45351900000242,,002,P016,2025_Mar_07_1427,CategoryLocalizer,2021.2.3,59.93450357464808,
126.8,127.0,5,0.0,Stimuli\Blank.png,0,0,0,207,207,207,,,,,,,,,,,,,126.84579959999974,0.04579959999973937,None,194.25421330000245,194.25421330000245,194.25421330000245,194.25421330000245,194.25421330000245,194.25421330000245,194.25421330000245,194.25421330000245,,002,P016,2025_Mar_07_1427,CategoryLocalizer,2021.2.3,59.93450357464808,
127.0,127.8,4,0.75,Stimuli\ImageFiles-Set2\Scenes\Scenes_092.png,0,0,0,208,208,208,,,,,,,,,,,,,127.01184420000209,0.011844200002087746,None,194.45438149999973,194.45438149999973,194.45438149999973,194.45438149999973,194.45438149999973,194.45438149999973,194.45438149999973,194.45438149999973,,002,P016,2025_Mar_07_1427,CategoryLocalizer,2021.2.3,59.93450357464808,
127.8,128.0,5,0.0,Stimuli\Blank.png,0,0,0,209,209,209,,,,,,,,,,,,,127.84573369999998,0.04573369999998533,None,195.25508199999967,195.25508199999967,195.25508199999967,195.25508199999967,195.25508199999967,195.25508199999967,195.25508199999967,195.25508199999967,,002,P016,2025_Mar_07_1427,CategoryLocalizer,2021.2.3,59.93450357464808,
128.0,128.8,4,0.75,Stimuli\ImageFiles-Set2\Scenes\Scenes_065.png,1,1,0,210,210,210,,,,,,,,,,,,,128.0124270999986,0.012427099998603808,None,195.438580500002,195.438580500002,195.438580500002,195.438580500002,195.438580500002,195.438580500002,195.438580500002,195.438580500002,,002,P016,2025_Mar_07_1427,CategoryLocalizer,2021.2.3,59.93450357464808,
128.8,129.0,5,0.0,Stimuli\Blank.png,0,0,0,211,211,211,,,,,,,,,,,,,128.8299736000008,0.02997360000080107,None,196.23929630000202,196.23929630000202,196.23929630000202,196.23929630000202,196.23929630000202,196.23929630000202,196.23929630000202,196.23929630000202,,002,P016,2025_Mar_07_1427,CategoryLocalizer,2021.2.3,59.93450357464808,
129.0,129.8,4,0.75,Stimuli\ImageFiles-Set2\Scenes\Scenes_086.png,0,0,0,212,212,212,,,,,,,,,,,,,129.0155679999989,0.015567999998893356,None,196.43950960000075,196.43950960000075,196.43950960000075,196.43950960000075,196.43950960000075,196.43950960000075,196.43950960000075,196.43950960000075,,002,P016,2025_Mar_07_1427,CategoryLocalizer,2021.2.3,59.93450357464808,
129.8,130.0,5,0.0,Stimuli\Blank.png,0,0,0,213,213,213,,,,,,,,,,,,,129.8150366000009,0.015036600000883027,None,197.22349450000183,197.22349450000183,197.22349450000183,197.22349450000183,197.22349450000183,197.22349450000183,197.22349450000183,197.22349450000183,,002,P016,2025_Mar_07_1427,CategoryLocalizer,2021.2.3,59.93450357464808,
130.0,130.8,4,0.75,Stimuli\ImageFiles-Set2\Scenes\Scenes_086.png,0,0,0,214,214,214,,,,,,,,,,,,,130.01452250000148,0.014522500001476146,1,197.42367650000233,197.42367650000233,197.42367650000233,197.42367650000233,197.42367650000233,197.42367650000233,197.42367650000233,197.42367650000233,0.5191417999994883,002,P016,2025_Mar_07_1427,CategoryLocalizer,2021.2.3,59.93450357464808,
130.8,131.0,5,0.0,Stimuli\Blank.png,0,0,0,215,215,215,,,,,,,,,,,,,130.81553220000205,0.015532200002041918,None,198.22437189999982,198.22437189999982,198.22437189999982,198.22437189999982,198.22437189999982,198.22437189999982,198.22437189999982,198.22437189999982,,002,P016,2025_Mar_07_1427,CategoryLocalizer,2021.2.3,59.93450357464808,
131.0,131.8,4,0.75,Stimuli\ImageFiles-Set2\Scenes\Scenes_101.png,0,0,0,216,216,216,,,,,,,,,,,,,130.99838470000032,-0.0016152999996847939,None,198.4245469000016,198.4245469000016,198.4245469000016,198.4245469000016,198.4245469000016,198.4245469000016,198.4245469000016,198.4245469000016,,002,P016,2025_Mar_07_1427,CategoryLocalizer,2021.2.3,59.93450357464808,
131.8,132.0,5,0.0,Stimuli\Blank.png,0,0,0,217,217,217,,,,,,,,,,,,,131.81596790000185,0.015967900001840007,None,199.22526819999985,199.22526819999985,199.22526819999985,199.22526819999985,199.22526819999985,199.22526819999985,199.22526819999985,199.22526819999985,,002,P016,2025_Mar_07_1427,CategoryLocalizer,2021.2.3,59.93450357464808,
132.0,132.8,4,0.75,Stimuli\ImageFiles-Set2\Scenes\Scenes_082.png,0,0,0,218,218,218,,,,,,,,,,,,,131.9996338000019,-0.0003661999980977271,None,199.44212640000114,199.44212640000114,199.44212640000114,199.44212640000114,199.44212640000114,199.44212640000114,199.44212640000114,199.44212640000114,,002,P016,2025_Mar_07_1427,CategoryLocalizer,2021.2.3,59.93450357464808,
132.8,133.0,5,0.0,Stimuli\Blank.png,0,0,0,219,219,219,,,,,,,,,,,,,132.83476249999876,0.03476249999874881,None,200.25952750000215,200.25952750000215,200.25952750000215,200.25952750000215,200.25952750000215,200.25952750000215,200.25952750000215,200.25952750000215,,002,P016,2025_Mar_07_1427,CategoryLocalizer,2021.2.3,59.93450357464808,
133.0,133.8,4,0.75,Stimuli\ImageFiles-Set2\Scenes\Scenes_077.png,0,0,0,220,220,220,,,,,,,,,,,,,133.01676710000174,0.01676710000174353,None,200.4430026000009,200.4430026000009,200.4430026000009,200.4430026000009,200.4430026000009,200.4430026000009,200.4430026000009,200.4430026000009,,002,P016,2025_Mar_07_1427,CategoryLocalizer,2021.2.3,59.93450357464808,
133.8,134.0,5,0.0,Stimuli\Blank.png,0,0,0,221,221,221,,,,,,,,,,,,,133.81709160000173,0.017091600001720053,None,201.22704110000268,201.22704110000268,201.22704110000268,201.22704110000268,201.22704110000268,201.22704110000268,201.22704110000268,201.22704110000268,,002,P016,2025_Mar_07_1427,CategoryLocalizer,2021.2.3,59.93450357464808,
134.0,134.8,4,0.75,Stimuli\ImageFiles-Set2\Scenes\Scenes_096.png,0,0,0,222,222,222,,,,,,,,,,,,,134.00126309999905,0.0012630999990506098,None,201.44385479999983,201.44385479999983,201.44385479999983,201.44385479999983,201.44385479999983,201.44385479999983,201.44385479999983,201.44385479999983,,002,P016,2025_Mar_07_1427,CategoryLocalizer,2021.2.3,59.93450357464808,
134.8,135.0,5,0.0,Stimuli\Blank.png,0,0,0,223,223,223,,,,,,,,,,,,,134.83529970000018,0.03529970000016647,None,202.2446204000007,202.2446204000007,202.2446204000007,202.2446204000007,202.2446204000007,202.2446204000007,202.2446204000007,202.2446204000007,,002,P016,2025_Mar_07_1427,CategoryLocalizer,2021.2.3,59.93450357464808,
135.0,135.8,4,0.75,Stimuli\ImageFiles-Set2\Scenes\Scenes_069.png,0,0,0,224,224,224,,,,,,,,,,,,,135.0021497000016,0.0021497000016097445,None,202.44477420000112,202.44477420000112,202.44477420000112,202.44477420000112,202.44477420000112,202.44477420000112,202.44477420000112,202.44477420000112,,002,P016,2025_Mar_07_1427,CategoryLocalizer,2021.2.3,59.93450357464808,
135.8,136.0,5,0.0,Stimuli\Blank.png,0,0,0,225,225,225,,,,,,,,,,,,,135.83546829999977,0.03546829999976353,None,203.24549340000158,203.24549340000158,203.24549340000158,203.24549340000158,203.24549340000158,203.24549340000158,203.24549340000158,203.24549340000158,,002,P016,2025_Mar_07_1427,CategoryLocalizer,2021.2.3,59.93450357464808,
136.0,136.8,2,0.75,Stimuli\ImageFiles-Set2\Bodies\Bodies_Waving_00006.png,0,0,0,226,226,226,,,,,,,,,,,,,136.00301500000205,0.003015000002051238,None,203.42896560000008,203.42896560000008,203.42896560000008,203.42896560000008,203.42896560000008,203.42896560000008,203.42896560000008,203.42896560000008,,002,P016,2025_Mar_07_1427,CategoryLocalizer,2021.2.3,59.93450357464808,
136.8,137.0,5,0.0,Stimuli\Blank.png,0,0,0,227,227,227,,,,,,,,,,,,,136.82038829999874,0.0203882999987286,None,204.22969260000173,204.22969260000173,204.22969260000173,204.22969260000173,204.22969260000173,204.22969260000173,204.22969260000173,204.22969260000173,,002,P016,2025_Mar_07_1427,CategoryLocalizer,2021.2.3,59.93450357464808,
137.0,137.8,2,0.75,Stimuli\ImageFiles-Set2\Bodies\Bodies_SittingFloor_00006.png,0,0,0,228,228,228,,,,,,,,,,,,,137.00338959999863,0.003389599998627091,None,204.44656660000328,204.44656660000328,204.44656660000328,204.44656660000328,204.44656660000328,204.44656660000328,204.44656660000328,204.44656660000328,,002,P016,2025_Mar_07_1427,CategoryLocalizer,2021.2.3,59.93450357464808,
137.8,138.0,5,0.0,Stimuli\Blank.png,0,0,0,229,229,229,,,,,,,,,,,,,137.83810119999907,0.03810119999906192,None,205.24727450000137,205.24727450000137,205.24727450000137,205.24727450000137,205.24727450000137,205.24727450000137,205.24727450000137,205.24727450000137,,002,P016,2025_Mar_07_1427,CategoryLocalizer,2021.2.3,59.93450357464808,
138.0,138.8,2,0.75,Stimuli\ImageFiles-Set2\Bodies\Bodies_Crawling_00004.png,0,0,0,230,230,230,,,,,,,,,,,,,138.0055868999989,0.005586899998888839,None,205.43081040000106,205.43081040000106,205.43081040000106,205.43081040000106,205.43081040000106,205.43081040000106,205.43081040000106,205.43081040000106,,002,P016,2025_Mar_07_1427,CategoryLocalizer,2021.2.3,59.93450357464808,
138.8,139.0,5,0.0,Stimuli\Blank.png,0,0,0,231,231,231,,,,,,,,,,,,,138.82140920000165,0.021409200001642148,None,206.23145600000134,206.23145600000134,206.23145600000134,206.23145600000134,206.23145600000134,206.23145600000134,206.23145600000134,206.23145600000134,,002,P016,2025_Mar_07_1427,CategoryLocalizer,2021.2.3,59.93450357464808,
139.0,139.8,2,0.75,Stimuli\ImageFiles-Set2\Bodies\Bodies_Lunging_00006.png,0,0,0,232,232,232,,,,,,,,,,,,,139.0058570000001,0.005857000000105472,None,206.43171520000033,206.43171520000033,206.43171520000033,206.43171520000033,206.43171520000033,206.43171520000033,206.43171520000033,206.43171520000033,,002,P016,2025_Mar_07_1427,CategoryLocalizer,2021.2.3,59.93450357464808,
139.8,140.0,5,0.0,Stimuli\Blank.png,0,0,0,233,233,233,,,,,,,,,,,,,139.82249650000085,0.022496500000841024,None,207.23234180000145,207.23234180000145,207.23234180000145,207.23234180000145,207.23234180000145,207.23234180000145,207.23234180000145,207.23234180000145,,002,P016,2025_Mar_07_1427,CategoryLocalizer,2021.2.3,59.93450357464808,
140.0,140.8,2,0.75,Stimuli\ImageFiles-Set2\Bodies\Bodies_Pushing_00002.png,0,0,0,234,234,234,,,,,,,,,,,,,140.00600000000122,0.006000000001222361,None,207.43251539999983,207.43251539999983,207.43251539999983,207.43251539999983,207.43251539999983,207.43251539999983,207.43251539999983,207.43251539999983,,002,P016,2025_Mar_07_1427,CategoryLocalizer,2021.2.3,59.93450357464808,
140.8,141.0,5,0.0,Stimuli\Blank.png,0,0,0,235,235,235,,,,,,,,,,,,,140.82443200000125,0.024432000001240795,None,208.2332329000019,208.2332329000019,208.2332329000019,208.2332329000019,208.2332329000019,208.2332329000019,208.2332329000019,208.2332329000019,,002,P016,2025_Mar_07_1427,CategoryLocalizer,2021.2.3,59.93450357464808,
141.0,141.8,2,0.75,Stimuli\ImageFiles-Set2\Bodies\Bodies_Waving_00004.png,0,0,0,236,236,236,,,,,,,,,,,,,141.00680320000174,0.006803200001741061,None,208.41672250000192,208.41672250000192,208.41672250000192,208.41672250000192,208.41672250000192,208.41672250000192,208.41672250000192,208.41672250000192,,002,P016,2025_Mar_07_1427,CategoryLocalizer,2021.2.3,59.93450357464808,
141.8,142.0,5,0.0,Stimuli\Blank.png,0,0,0,237,237,237,,,,,,,,,,,,,141.80881180000142,0.008811800001410575,None,209.21743270000297,209.21743270000297,209.21743270000297,209.21743270000297,209.21743270000297,209.21743270000297,209.21743270000297,209.21743270000297,,002,P016,2025_Mar_07_1427,CategoryLocalizer,2021.2.3,59.93450357464808,
142.0,142.8,2,0.75,Stimuli\ImageFiles-Set2\Bodies\Bodies_Waving_00004.png,1,1,0,238,238,238,,,,,,,,,,,,,142.0089279999993,0.00892799999928684,1,209.43430410000292,209.43430410000292,209.43430410000292,209.43430410000292,209.43430410000292,209.43430410000292,209.43430410000292,209.43430410000292,0.4364054999969085,002,P016,2025_Mar_07_1427,CategoryLocalizer,2021.2.3,59.93450357464808,
142.8,143.0,5,0.0,Stimuli\Blank.png,0,0,0,239,239,239,,,,,,,,,,,,,142.82499540000208,0.024995400002069346,None,210.23499960000117,210.23499960000117,210.23499960000117,210.23499960000117,210.23499960000117,210.23499960000117,210.23499960000117,210.23499960000117,,002,P016,2025_Mar_07_1427,CategoryLocalizer,2021.2.3,59.93450357464808,
143.0,143.8,2,0.75,Stimuli\ImageFiles-Set2\Bodies\Bodies_Walking_00001.png,0,0,0,240,240,240,,,,,,,,,,,,,143.00923160000093,0.009231600000930484,None,210.43516760000057,210.43516760000057,210.43516760000057,210.43516760000057,210.43516760000057,210.43516760000057,210.43516760000057,210.43516760000057,,002,P016,2025_Mar_07_1427,CategoryLocalizer,2021.2.3,59.93450357464808,
143.8,144.0,5,0.0,Stimuli\Blank.png,0,0,0,241,241,241,,,,,,,,,,,,,143.82594410000092,0.025944100000913295,None,211.23585770000136,211.23585770000136,211.23585770000136,211.23585770000136,211.23585770000136,211.23585770000136,211.23585770000136,211.23585770000136,,002,P016,2025_Mar_07_1427,CategoryLocalizer,2021.2.3,59.93450357464808,
144.0,144.8,2,0.75,Stimuli\ImageFiles-Set2\Bodies\Bodies_SittingChair_00006.png,0,0,0,242,242,242,,,,,,,,,,,,,144.00969130000158,0.009691300001577474,None,211.45271720000164,211.45271720000164,211.45271720000164,211.45271720000164,211.45271720000164,211.45271720000164,211.45271720000164,211.45271720000164,,002,P016,2025_Mar_07_1427,CategoryLocalizer,2021.2.3,59.93450357464808,
144.8,145.0,5,0.0,Stimuli\Blank.png,0,0,0,243,243,243,,,,,,,,,,,,,144.8441840000014,0.044184000001394,None,212.25345329999982,212.25345329999982,212.25345329999982,212.25345329999982,212.25345329999982,212.25345329999982,212.25345329999982,212.25345329999982,,002,P016,2025_Mar_07_1427,CategoryLocalizer,2021.2.3,59.93450357464808,
145.0,145.8,2,0.75,Stimuli\ImageFiles-Set2\Bodies\Bodies_SittingFloor_00004.png,0,0,0,244,244,244,,,,,,,,,,,,,145.0106569999989,0.010656999998900574,None,212.4369559000006,212.4369559000006,212.4369559000006,212.4369559000006,212.4369559000006,212.4369559000006,212.4369559000006,212.4369559000006,,002,P016,2025_Mar_07_1427,CategoryLocalizer,2021.2.3,59.93450357464808,
145.8,146.0,5,0.0,Stimuli\Blank.png,0,0,0,245,245,245,,,,,,,,,,,,,145.82842879999953,0.028428799999517196,None,213.23764650000157,213.23764650000157,213.23764650000157,213.23764650000157,213.23764650000157,213.23764650000157,213.23764650000157,213.23764650000157,,002,P016,2025_Mar_07_1427,CategoryLocalizer,2021.2.3,59.93450357464808,
146.0,146.8,2,0.75,Stimuli\ImageFiles-Set2\Bodies\Bodies_Punching_00002.png,0,0,0,246,246,246,,,,,,,,,,,,,146.01113239999904,0.011132399999041809,None,213.454512100001,213.454512100001,213.454512100001,213.454512100001,213.454512100001,213.454512100001,213.454512100001,213.454512100001,,002,P016,2025_Mar_07_1427,CategoryLocalizer,2021.2.3,59.93450357464808,
146.8,147.0,5,0.0,Stimuli\Blank.png,0,0,0,247,247,247,,,,,,,,,,,,,146.84533089999968,0.04533089999966933,None,214.2552155000012,214.2552155000012,214.2552155000012,214.2552155000012,214.2552155000012,214.2552155000012,214.2552155000012,214.2552155000012,,002,P016,2025_Mar_07_1427,CategoryLocalizer,2021.2.3,59.93450357464808,
147.0,147.8,2,0.75,Stimuli\ImageFiles-Set2\Bodies\Bodies_SittingFloor_00001.png,0,0,0,248,248,248,,,,,,,,,,,,,147.012643500002,0.012643500002013752,None,214.43871820000277,214.43871820000277,214.43871820000277,214.43871820000277,214.43871820000277,214.43871820000277,214.43871820000277,214.43871820000277,,002,P016,2025_Mar_07_1427,CategoryLocalizer,2021.2.3,59.93450357464808,
147.8,148.0,5,0.0,Stimuli\Blank.png,0,0,0,249,249,249,,,,,,,,,,,,,147.83071439999912,0.03071439999911263,None,215.23942499999976,215.23942499999976,215.23942499999976,215.23942499999976,215.23942499999976,215.23942499999976,215.23942499999976,215.23942499999976,,002,P016,2025_Mar_07_1427,CategoryLocalizer,2021.2.3,59.93450357464808,
148.0,148.8,2,0.75,Stimuli\ImageFiles-Set2\Bodies\Bodies_Jumping_00001.png,1,1,0,250,250,250,,,,,,,,,,,,,148.01373800000147,0.013738000001467299,None,215.43960920000245,215.43960920000245,215.43960920000245,215.43960920000245,215.43960920000245,215.43960920000245,215.43960920000245,215.43960920000245,,002,P016,2025_Mar_07_1427,CategoryLocalizer,2021.2.3,59.93450357464808,
148.8,149.0,5,0.0,Stimuli\Blank.png,0,0,0,251,251,251,,,,,,,,,,,,,148.83096080000178,0.03096080000176471,None,216.24029860000155,216.24029860000155,216.24029860000155,216.24029860000155,216.24029860000155,216.24029860000155,216.24029860000155,216.24029860000155,,002,P016,2025_Mar_07_1427,CategoryLocalizer,2021.2.3,59.93450357464808,
149.0,149.8,2,0.75,Stimuli\ImageFiles-Set2\Bodies\Bodies_PushUp_00001.png,0,0,0,252,252,252,,,,,,,,,,,,,149.01406839999981,0.014068399999814574,None,216.44048440000188,216.44048440000188,216.44048440000188,216.44048440000188,216.44048440000188,216.44048440000188,216.44048440000188,216.44048440000188,,002,P016,2025_Mar_07_1427,CategoryLocalizer,2021.2.3,59.93450357464808,
149.8,150.0,5,0.0,Stimuli\Blank.png,0,0,0,253,253,253,,,,,,,,,,,,,149.83199660000173,0.03199660000171889,None,217.24119150000115,217.24119150000115,217.24119150000115,217.24119150000115,217.24119150000115,217.24119150000115,217.24119150000115,217.24119150000115,,002,P016,2025_Mar_07_1427,CategoryLocalizer,2021.2.3,59.93450357464808,
150.0,150.8,2,0.75,Stimuli\ImageFiles-Set2\Bodies\Bodies_PushUp_00001.png,0,0,0,254,254,254,,,,,,,,,,,,,150.01619819999905,0.01619819999905303,1,217.42468820000067,217.42468820000067,217.42468820000067,217.42468820000067,217.42468820000067,217.42468820000067,217.42468820000067,217.42468820000067,0.6917833000006794,002,P016,2025_Mar_07_1427,CategoryLocalizer,2021.2.3,59.93450357464808,
150.8,151.0,5,0.0,Stimuli\Blank.png,0,0,0,255,255,255,,,,,,,,,,,,,150.80018869999913,0.00018869999911430568,None,218.20872510000117,218.20872510000117,218.20872510000117,218.20872510000117,218.20872510000117,218.20872510000117,218.20872510000117,218.20872510000117,,002,P016,2025_Mar_07_1427,CategoryLocalizer,2021.2.3,59.93450357464808,
151.0,151.8,2,0.75,Stimuli\ImageFiles-Set2\Bodies\Bodies_Crawling_00002.png,0,0,0,256,256,256,,,,,,,,,,,,,150.99941860000035,-0.0005813999996462371,None,218.42558540000027,218.42558540000027,218.42558540000027,218.42558540000027,218.42558540000027,218.42558540000027,218.42558540000027,218.42558540000027,,002,P016,2025_Mar_07_1427,CategoryLocalizer,2021.2.3,59.93450357464808,
151.8,152.0,5,0.0,Stimuli\Blank.png,0,0,0,257,257,257,,,,,,,,,,,,,151.81633460000012,0.016334600000107002,None,219.2262692000004,219.2262692000004,219.2262692000004,219.2262692000004,219.2262692000004,219.2262692000004,219.2262692000004,219.2262692000004,,002,P016,2025_Mar_07_1427,CategoryLocalizer,2021.2.3,59.93450357464808,
152.0,164.0,0,0.0,Stimuli\Blank.png,0,0,0,258,258,258,,,,,,,,,,,,,152.00080720000187,0.0008072000018728431,None,219.4098085000005,219.4098085000005,219.4098085000005,219.4098085000005,219.4098085000005,219.4098085000005,219.4098085000005,219.4098085000005,,002,P016,2025_Mar_07_1427,CategoryLocalizer,2021.2.3,59.93450357464808,
164.0,164.8,4,0.75,Stimuli\ImageFiles-Set2\Scenes\Scenes_076.png,0,0,0,259,259,259,,,,,,,,,,,,,164.01080659999934,0.010806599999341415,None,231.45377790000202,231.45377790000202,231.45377790000202,231.45377790000202,231.45377790000202,231.45377790000202,231.45377790000202,231.45377790000202,,002,P016,2025_Mar_07_1427,CategoryLocalizer,2021.2.3,59.93450357464808,
164.8,165.0,5,0.0,Stimuli\Blank.png,0,0,0,260,260,260,,,,,,,,,,,,,164.84443870000177,0.044438700001762754,None,232.2544581000002,232.2544581000002,232.2544581000002,232.2544581000002,232.2544581000002,232.2544581000002,232.2544581000002,232.2544581000002,,002,P016,2025_Mar_07_1427,CategoryLocalizer,2021.2.3,59.93450357464808,
165.0,165.8,4,0.75,Stimuli\ImageFiles-Set2\Scenes\Scenes_083.png,0,0,0,261,261,261,,,,,,,,,,,,,165.01212759999908,0.012127599999075755,None,232.4379536000015,232.4379536000015,232.4379536000015,232.4379536000015,232.4379536000015,232.4379536000015,232.4379536000015,232.4379536000015,,002,P016,2025_Mar_07_1427,CategoryLocalizer,2021.2.3,59.93450357464808,
165.8,166.0,5,0.0,Stimuli\Blank.png,0,0,0,262,262,262,,,,,,,,,,,,,165.830741400001,0.030741400000977137,None,233.2553712000008,233.2553712000008,233.2553712000008,233.2553712000008,233.2553712000008,233.2553712000008,233.2553712000008,233.2553712000008,,002,P016,2025_Mar_07_1427,CategoryLocalizer,2021.2.3,59.93450357464808,
166.0,166.8,4,0.75,Stimuli\ImageFiles-Set2\Scenes\Scenes_089.png,0,0,0,263,263,263,,,,,,,,,,,,,166.02975220000008,0.02975220000007539,None,233.45551900000282,233.45551900000282,233.45551900000282,233.45551900000282,233.45551900000282,233.45551900000282,233.45551900000282,233.45551900000282,,002,P016,2025_Mar_07_1427,CategoryLocalizer,2021.2.3,59.93450357464808,
166.8,167.0,5,0.0,Stimuli\Blank.png,0,0,0,264,264,264,,,,,,,,,,,,,166.8304382999995,0.03043829999950276,None,234.23954740000045,234.23954740000045,234.23954740000045,234.23954740000045,234.23954740000045,234.23954740000045,234.23954740000045,234.23954740000045,,002,P016,2025_Mar_07_1427,CategoryLocalizer,2021.2.3,59.93450357464808,
167.0,167.8,4,0.75,Stimuli\ImageFiles-Set2\Scenes\Scenes_090.png,0,0,0,265,265,265,,,,,,,,,,,,,167.01477589999922,0.01477589999922202,None,234.45639970000047,234.45639970000047,234.45639970000047,234.45639970000047,234.45639970000047,234.45639970000047,234.45639970000047,234.45639970000047,,002,P016,2025_Mar_07_1427,CategoryLocalizer,2021.2.3,59.93450357464808,
167.8,168.0,5,0.0,Stimuli\Blank.png,0,0,0,266,266,266,,,,,,,,,,,,,167.84711289999905,0.04711289999903556,None,235.25712470000144,235.25712470000144,235.25712470000144,235.25712470000144,235.25712470000144,235.25712470000144,235.25712470000144,235.25712470000144,,002,P016,2025_Mar_07_1427,CategoryLocalizer,2021.2.3,59.93450357464808,
168.0,168.8,4,0.75,Stimuli\ImageFiles-Set2\Scenes\Scenes_090.png,1,1,0,267,267,267,,,,,,,,,,,,,168.01451989999987,0.014519899999868358,1,235.4406196000018,235.4406196000018,235.4406196000018,235.4406196000018,235.4406196000018,235.4406196000018,235.4406196000018,235.4406196000018,0.6849350000011327,002,P016,2025_Mar_07_1427,CategoryLocalizer,2021.2.3,59.93450357464808,
168.8,169.0,5,0.0,Stimuli\Blank.png,0,0,0,268,268,268,,,,,,,,,,,,,168.83136100000047,0.031361000000458716,None,236.24131260000286,236.24131260000286,236.24131260000286,236.24131260000286,236.24131260000286,236.24131260000286,236.24131260000286,236.24131260000286,,002,P016,2025_Mar_07_1427,CategoryLocalizer,2021.2.3,59.93450357464808,
169.0,169.8,4,0.75,Stimuli\ImageFiles-Set2\Scenes\Scenes_084.png,0,0,0,269,269,269,,,,,,,,,,,,,169.0168010999987,0.01680109999870183,None,236.45823170000222,236.45823170000222,236.45823170000222,236.45823170000222,236.45823170000222,236.45823170000222,236.45823170000222,236.45823170000222,,002,P016,2025_Mar_07_1427,CategoryLocalizer,2021.2.3,59.93450357464808,
169.8,170.0,5,0.0,Stimuli\Blank.png,0,0,0,270,270,270,,,,,,,,,,,,,169.83214869999938,0.03214869999936809,None,237.24219270000322,237.24219270000322,237.24219270000322,237.24219270000322,237.24219270000322,237.24219270000322,237.24219270000322,237.24219270000322,,002,P016,2025_Mar_07_1427,CategoryLocalizer,2021.2.3,59.93450357464808,
170.0,170.8,4,0.75,Stimuli\ImageFiles-Set2\Scenes\Scenes_062.png,0,0,0,271,271,271,,,,,,,,,,,,,169.99965560000055,-0.00034439999944879673,None,237.44240360000185,237.44240360000185,237.44240360000185,237.44240360000185,237.44240360000185,237.44240360000185,237.44240360000185,237.44240360000185,,002,P016,2025_Mar_07_1427,CategoryLocalizer,2021.2.3,59.93450357464808,
170.8,171.0,5,0.0,Stimuli\Blank.png,0,0,0,272,272,272,,,,,,,,,,,,,170.83552350000173,0.035523500001716,None,238.25978640000176,238.25978640000176,238.25978640000176,238.25978640000176,238.25978640000176,238.25978640000176,238.25978640000176,238.25978640000176,,002,P016,2025_Mar_07_1427,CategoryLocalizer,2021.2.3,59.93450357464808,
171.0,171.8,4,0.75,Stimuli\ImageFiles-Set2\Scenes\Scenes_078.png,0,0,0,273,273,273,,,,,,,,,,,,,171.01715270000204,0.017152700002043275,None,238.44327450000128,238.44327450000128,238.44327450000128,238.44327450000128,238.44327450000128,238.44327450000128,238.44327450000128,238.44327450000128,,002,P016,2025_Mar_07_1427,CategoryLocalizer,2021.2.3,59.93450357464808,
171.8,172.0,5,0.0,Stimuli\Blank.png,0,0,0,274,274,274,,,,,,,,,,,,,171.81731199999922,0.017311999999208183,None,239.22728960000313,239.22728960000313,239.22728960000313,239.22728960000313,239.22728960000313,239.22728960000313,239.22728960000313,239.22728960000313,,002,P016,2025_Mar_07_1427,CategoryLocalizer,2021.2.3,59.93450357464808,
172.0,172.8,4,0.75,Stimuli\ImageFiles-Set2\Scenes\Scenes_066.png,0,0,0,275,275,275,,,,,,,,,,,,,172.001408600001,0.0014086000010138378,None,239.42752010000186,239.42752010000186,239.42752010000186,239.42752010000186,239.42752010000186,239.42752010000186,239.42752010000186,239.42752010000186,,002,P016,2025_Mar_07_1427,CategoryLocalizer,2021.2.3,59.93450357464808,
172.8,173.0,5,0.0,Stimuli\Blank.png,0,0,0,276,276,276,,,,,,,,,,,,,172.81990560000122,0.019905600001209223,None,240.24488050000218,240.24488050000218,240.24488050000218,240.24488050000218,240.24488050000218,240.24488050000218,240.24488050000218,240.24488050000218,,002,P016,2025_Mar_07_1427,CategoryLocalizer,2021.2.3,59.93450357464808,
173.0,173.8,4,0.75,Stimuli\ImageFiles-Set2\Scenes\Scenes_070.png,0,0,0,277,277,277,,,,,,,,,,,,,173.01846260000093,0.01846260000093025,None,240.44505370000115,240.44505370000115,240.44505370000115,240.44505370000115,240.44505370000115,240.44505370000115,240.44505370000115,240.44505370000115,,002,P016,2025_Mar_07_1427,CategoryLocalizer,2021.2.3,59.93450357464808,
173.8,174.0,5,0.0,Stimuli\Blank.png,0,0,0,278,278,278,,,,,,,,,,,,,173.8190953000012,0.019095300001197302,None,241.22902630000317,241.22902630000317,241.22902630000317,241.22902630000317,241.22902630000317,241.22902630000317,241.22902630000317,241.22902630000317,,002,P016,2025_Mar_07_1427,CategoryLocalizer,2021.2.3,59.93450357464808,
174.0,174.8,4,0.75,Stimuli\ImageFiles-Set2\Scenes\Scenes_100.png,0,0,0,279,279,279,,,,,,,,,,,,,174.00458910000089,0.004589100000885082,None,241.44598020000194,241.44598020000194,241.44598020000194,241.44598020000194,241.44598020000194,241.44598020000194,241.44598020000194,241.44598020000194,,002,P016,2025_Mar_07_1427,CategoryLocalizer,2021.2.3,59.93450357464808,
174.8,175.0,5,0.0,Stimuli\Blank.png,0,0,0,280,280,280,,,,,,,,,,,,,174.83661330000177,0.03661330000176122,None,242.24663080000028,242.24663080000028,242.24663080000028,242.24663080000028,242.24663080000028,242.24663080000028,242.24663080000028,242.24663080000028,,002,P016,2025_Mar_07_1427,CategoryLocalizer,2021.2.3,59.93450357464808,
175.0,175.8,4,0.75,Stimuli\ImageFiles-Set2\Scenes\Scenes_098.png,0,0,0,281,281,281,,,,,,,,,,,,,175.00412309999956,0.004123099999560509,None,242.43011269999988,242.43011269999988,242.43011269999988,242.43011269999988,242.43011269999988,242.43011269999988,242.43011269999988,242.43011269999988,,002,P016,2025_Mar_07_1427,CategoryLocalizer,2021.2.3,59.93450357464808,
175.8,176.0,5,0.0,Stimuli\Blank.png,0,0,0,282,282,282,,,,,,,,,,,,,175.8210454,0.021045399999991332,None,243.23082460000296,243.23082460000296,243.23082460000296,243.23082460000296,243.23082460000296,243.23082460000296,243.23082460000296,243.23082460000296,,002,P016,2025_Mar_07_1427,CategoryLocalizer,2021.2.3,59.93450357464808,
176.0,176.8,4,0.75,Stimuli\ImageFiles-Set2\Scenes\Scenes_119.png,0,0,0,283,283,283,,,,,,,,,,,,,176.0049852000011,0.004985200001101475,None,243.4310039000011,243.4310039000011,243.4310039000011,243.4310039000011,243.4310039000011,243.4310039000011,243.4310039000011,243.4310039000011,,002,P016,2025_Mar_07_1427,CategoryLocalizer,2021.2.3,59.93450357464808,
