eventStartTime,eventEndTime,eventCond,imSize,imFile,repeatedImage,responseEvent,Events.thisRepN,Events.thisTrialN,Events.thisN,Events.thisIndex,Instructions.started,Instructions.stopped,participantReadyResponse.keys,participantReadyResponse.rt,participantReadyResponse.started,participantReadyResponse.stopped,startWaitforTrigger,triggerResponse.keys,triggerResponse.rt,triggerResponse.started,triggerResponse.stopped,globalTimer,actualStartTime,startTimingDiff,participantResponse.keys,participantResponse.started,participantResponse.stopped,image.started,image.stopped,fixationOutside.started,fixationOutside.stopped,fixationInside.started,fixationInside.stopped,participantResponse.rt,session,participant,date,expName,psychopyVersion,frameRate,
,,,,,,,,,,,29.450936499997624,None,1,4.690862299998116,29.450936499997624,None,,,,,,,,,,,,,,,,,,,001,P017,2025_Mar_07_1613,CategoryLocalizer,2021.2.3,59.94916310904855,
,,,,,,,,,,,,,,,,,34.14619479999965,5,14.341188900001725,34.15865660000054,None,,,,,,,,,,,,,,001,P017,2025_Mar_07_1613,CategoryLocalizer,2021.2.3,59.94916310904855,
0.0,12.0,0,0.0,Stimuli\Blank.png,0,0,0,0,0,0,,,,,,,,,,,,48.50874059999842,0.04119619999983115,0.04119619999983115,None,48.57136279999759,None,48.57136279999759,None,48.57136279999759,None,48.57136279999759,None,,001,P017,2025_Mar_07_1613,CategoryLocalizer,2021.2.3,59.94916310904855,
12.0,12.8,1,0.75,Stimuli\ImageFiles-Set1\Objects\Object_Door_00001.png,0,0,0,1,1,1,,,,,,,,,,,,,12.010272100000293,0.010272100000292994,None,60.54867209999793,60.54867209999793,60.54867209999793,60.54867209999793,60.54867209999793,60.54867209999793,60.54867209999793,60.54867209999793,,001,P017,2025_Mar_07_1613,CategoryLocalizer,2021.2.3,59.94916310904855,
12.8,13.0,5,0.0,Stimuli\Blank.png,0,0,0,2,2,2,,,,,,,,,,,,,12.827611400000023,0.027611400000022712,None,61.3660624999975,61.3660624999975,61.3660624999975,61.3660624999975,61.3660624999975,61.3660624999975,61.3660624999975,61.3660624999975,,001,P017,2025_Mar_07_1613,CategoryLocalizer,2021.2.3,59.94916310904855,
13.0,13.8,1,0.75,Stimuli\ImageFiles-Set1\Objects\Object_Sock_00001.png,0,0,0,3,3,3,,,,,,,,,,,,,13.029080399999657,0.029080399999656947,None,61.56624269999884,61.56624269999884,61.56624269999884,61.56624269999884,61.56624269999884,61.56624269999884,61.56624269999884,61.56624269999884,,001,P017,2025_Mar_07_1613,CategoryLocalizer,2021.2.3,59.94916310904855,
13.8,14.0,5,0.0,Stimuli\Blank.png,0,0,0,4,4,4,,,,,,,,,,,,,13.82731689999855,0.02731689999854936,None,62.35023759999967,62.35023759999967,62.35023759999967,62.35023759999967,62.35023759999967,62.35023759999967,62.35023759999967,62.35023759999967,,001,P017,2025_Mar_07_1613,CategoryLocalizer,2021.2.3,59.94916310904855,
14.0,14.8,1,0.75,Stimuli\ImageFiles-Set1\Objects\Object_Dice_00001.png,0,0,0,5,5,5,,,,,,,,,,,,,14.010304600000381,0.01030460000038147,None,62.533731600000465,62.533731600000465,62.533731600000465,62.533731600000465,62.533731600000465,62.533731600000465,62.533731600000465,62.533731600000465,,001,P017,2025_Mar_07_1613,CategoryLocalizer,2021.2.3,59.94916310904855,
14.8,15.0,5,0.0,Stimuli\Blank.png,0,0,0,6,6,6,,,,,,,,,,,,,14.811824299998989,0.011824299998988153,None,63.33439219999855,63.33439219999855,63.33439219999855,63.33439219999855,63.33439219999855,63.33439219999855,63.33439219999855,63.33439219999855,,001,P017,2025_Mar_07_1613,CategoryLocalizer,2021.2.3,59.94916310904855,
15.0,15.8,1,0.75,Stimuli\ImageFiles-Set1\Objects\Object_Gun_00001.png,0,0,0,7,7,7,,,,,,,,,,,,,15.012388799998007,0.012388799998007016,None,63.5346200999993,63.5346200999993,63.5346200999993,63.5346200999993,63.5346200999993,63.5346200999993,63.5346200999993,63.5346200999993,,001,P017,2025_Mar_07_1613,CategoryLocalizer,2021.2.3,59.94916310904855,
15.8,16.0,5,0.0,Stimuli\Blank.png,0,0,0,8,8,8,,,,,,,,,,,,,15.811993899998924,0.011993899998923752,None,64.33528939999815,64.33528939999815,64.33528939999815,64.33528939999815,64.33528939999815,64.33528939999815,64.33528939999815,64.33528939999815,,001,P017,2025_Mar_07_1613,CategoryLocalizer,2021.2.3,59.94916310904855,
16.0,16.8,1,0.75,Stimuli\ImageFiles-Set1\Objects\Object_Gun_00001.png,1,1,0,9,9,9,,,,,,,,,,,,,16.011978499998804,0.011978499998804182,1,64.53550429999814,64.53550429999814,64.53550429999814,64.53550429999814,64.53550429999814,64.53550429999814,64.53550429999814,64.53550429999814,0.36444549999941955,001,P017,2025_Mar_07_1613,CategoryLocalizer,2021.2.3,59.94916310904855,
16.8,17.0,5,0.0,Stimuli\Blank.png,0,0,0,10,10,10,,,,,,,,,,,,,16.81293469999946,0.012934699999458843,None,65.33620610000071,65.33620610000071,65.33620610000071,65.33620610000071,65.33620610000071,65.33620610000071,65.33620610000071,65.33620610000071,,001,P017,2025_Mar_07_1613,CategoryLocalizer,2021.2.3,59.94916310904855,
17.0,17.8,1,0.75,Stimuli\ImageFiles-Set1\Objects\Object_Brush_00001.png,0,0,0,11,11,11,,,,,,,,,,,,,17.013282899999467,0.01328289999946719,None,65.53638539999884,65.53638539999884,65.53638539999884,65.53638539999884,65.53638539999884,65.53638539999884,65.53638539999884,65.53638539999884,,001,P017,2025_Mar_07_1613,CategoryLocalizer,2021.2.3,59.94916310904855,
17.8,18.0,5,0.0,Stimuli\Blank.png,0,0,0,12,12,12,,,,,,,,,,,,,17.81440669999938,0.014406699999380379,None,66.33710000000065,66.33710000000065,66.33710000000065,66.33710000000065,66.33710000000065,66.33710000000065,66.33710000000065,66.33710000000065,,001,P017,2025_Mar_07_1613,CategoryLocalizer,2021.2.3,59.94916310904855,
18.0,18.8,1,0.75,Stimuli\ImageFiles-Set1\Objects\Object_Knife_00001.png,0,0,0,13,13,13,,,,,,,,,,,,,18.013999099999637,0.01399909999963711,None,66.53728649999903,66.53728649999903,66.53728649999903,66.53728649999903,66.53728649999903,66.53728649999903,66.53728649999903,66.53728649999903,,001,P017,2025_Mar_07_1613,CategoryLocalizer,2021.2.3,59.94916310904855,
18.8,19.0,5,0.0,Stimuli\Blank.png,0,0,0,14,14,14,,,,,,,,,,,,,18.814701600000262,0.01470160000026155,None,67.3379763999983,67.3379763999983,67.3379763999983,67.3379763999983,67.3379763999983,67.3379763999983,67.3379763999983,67.3379763999983,,001,P017,2025_Mar_07_1613,CategoryLocalizer,2021.2.3,59.94916310904855,
19.0,19.8,1,0.75,Stimuli\ImageFiles-Set1\Objects\Object_Toilet_00001.png,0,0,0,15,15,15,,,,,,,,,,,,,19.015234299997246,0.015234299997246126,None,67.53816219999862,67.53816219999862,67.53816219999862,67.53816219999862,67.53816219999862,67.53816219999862,67.53816219999862,67.53816219999862,,001,P017,2025_Mar_07_1613,CategoryLocalizer,2021.2.3,59.94916310904855,
19.8,20.0,5,0.0,Stimuli\Blank.png,0,0,0,16,16,16,,,,,,,,,,,,,19.799389600000723,-0.0006103999992781439,None,68.32218099999955,68.32218099999955,68.32218099999955,68.32218099999955,68.32218099999955,68.32218099999955,68.32218099999955,68.32218099999955,,001,P017,2025_Mar_07_1613,CategoryLocalizer,2021.2.3,59.94916310904855,
20.0,20.8,1,0.75,Stimuli\ImageFiles-Set1\Objects\Object_Card_00001.png,0,0,0,17,17,17,,,,,,,,,,,,,19.999739700000646,-0.00026029999935417436,None,68.52232119999826,68.52232119999826,68.52232119999826,68.52232119999826,68.52232119999826,68.52232119999826,68.52232119999826,68.52232119999826,,001,P017,2025_Mar_07_1613,CategoryLocalizer,2021.2.3,59.94916310904855,
20.8,21.0,5,0.0,Stimuli\Blank.png,0,0,0,18,18,18,,,,,,,,,,,,,20.802045599997655,0.0020455999976540795,None,69.33977349999986,69.33977349999986,69.33977349999986,69.33977349999986,69.33977349999986,69.33977349999986,69.33977349999986,69.33977349999986,,001,P017,2025_Mar_07_1613,CategoryLocalizer,2021.2.3,59.94916310904855,
21.0,21.8,1,0.75,Stimuli\ImageFiles-Set1\Objects\Object_Dryer_00001.png,0,0,0,19,19,19,,,,,,,,,,,,,21.017080699999497,0.017080699999496574,None,69.55660949999947,69.55660949999947,69.55660949999947,69.55660949999947,69.55660949999947,69.55660949999947,69.55660949999947,69.55660949999947,,001,P017,2025_Mar_07_1613,CategoryLocalizer,2021.2.3,59.94916310904855,
21.8,22.0,5,0.0,Stimuli\Blank.png,0,0,0,20,20,20,,,,,,,,,,,,,21.817894899999374,0.017894899999372882,None,70.34063199999946,70.34063199999946,70.34063199999946,70.34063199999946,70.34063199999946,70.34063199999946,70.34063199999946,70.34063199999946,,001,P017,2025_Mar_07_1613,CategoryLocalizer,2021.2.3,59.94916310904855,
22.0,22.8,1,0.75,Stimuli\ImageFiles-Set1\Objects\Object_Baseball_00001.png,0,0,0,21,21,21,,,,,,,,,,,,,22.00265159999981,0.0026515999998082407,None,70.54081459999725,70.54081459999725,70.54081459999725,70.54081459999725,70.54081459999725,70.54081459999725,70.54081459999725,70.54081459999725,,001,P017,2025_Mar_07_1613,CategoryLocalizer,2021.2.3,59.94916310904855,
22.8,23.0,5,0.0,Stimuli\Blank.png,0,0,0,22,22,22,,,,,,,,,,,,,22.818580799998017,0.018580799998016317,None,71.34151600000041,71.34151600000041,71.34151600000041,71.34151600000041,71.34151600000041,71.34151600000041,71.34151600000041,71.34151600000041,,001,P017,2025_Mar_07_1613,CategoryLocalizer,2021.2.3,59.94916310904855,
23.0,23.8,1,0.75,Stimuli\ImageFiles-Set1\Objects\Object_GarbageCan_00001.png,0,0,0,23,23,23,,,,,,,,,,,,,23.002259999997477,0.00225999999747728,None,71.52502199999799,71.52502199999799,71.52502199999799,71.52502199999799,71.52502199999799,71.52502199999799,71.52502199999799,71.52502199999799,,001,P017,2025_Mar_07_1613,CategoryLocalizer,2021.2.3,59.94916310904855,
23.8,24.0,5,0.0,Stimuli\Blank.png,0,0,0,24,24,24,,,,,,,,,,,,,23.802780099998927,0.0027800999989260333,None,72.32569379999768,72.32569379999768,72.32569379999768,72.32569379999768,72.32569379999768,72.32569379999768,72.32569379999768,72.32569379999768,,001,P017,2025_Mar_07_1613,CategoryLocalizer,2021.2.3,59.94916310904855,
24.0,24.8,1,0.75,Stimuli\ImageFiles-Set1\Objects\Object_Whistle_00001.png,0,0,0,25,25,25,,,,,,,,,,,,,24.00337109999964,0.003371099999640137,None,72.54260950000025,72.54260950000025,72.54260950000025,72.54260950000025,72.54260950000025,72.54260950000025,72.54260950000025,72.54260950000025,,001,P017,2025_Mar_07_1613,CategoryLocalizer,2021.2.3,59.94916310904855,
24.8,25.0,5,0.0,Stimuli\Blank.png,0,0,0,26,26,26,,,,,,,,,,,,,24.820522999998502,0.02052299999850149,None,73.34329539999817,73.34329539999817,73.34329539999817,73.34329539999817,73.34329539999817,73.34329539999817,73.34329539999817,73.34329539999817,,001,P017,2025_Mar_07_1613,CategoryLocalizer,2021.2.3,59.94916310904855,
25.0,25.8,1,0.75,Stimuli\ImageFiles-Set1\Objects\Object_Bench_00001.png,0,0,0,27,27,27,,,,,,,,,,,,,25.004012800000055,0.004012800000054995,None,73.52679409999837,73.52679409999837,73.52679409999837,73.52679409999837,73.52679409999837,73.52679409999837,73.52679409999837,73.52679409999837,,001,P017,2025_Mar_07_1613,CategoryLocalizer,2021.2.3,59.94916310904855,
25.8,26.0,5,0.0,Stimuli\Blank.png,0,0,0,28,28,28,,,,,,,,,,,,,25.80426620000071,0.0042662000007105405,None,74.32749719999993,74.32749719999993,74.32749719999993,74.32749719999993,74.32749719999993,74.32749719999993,74.32749719999993,74.32749719999993,,001,P017,2025_Mar_07_1613,CategoryLocalizer,2021.2.3,59.94916310904855,
26.0,26.8,1,0.75,Stimuli\ImageFiles-Set1\Objects\Object_TeaBag_00001.png,0,0,0,29,29,29,,,,,,,,,,,,,26.004356199999165,0.004356199999165256,None,74.54436349999742,74.54436349999742,74.54436349999742,74.54436349999742,74.54436349999742,74.54436349999742,74.54436349999742,74.54436349999742,,001,P017,2025_Mar_07_1613,CategoryLocalizer,2021.2.3,59.94916310904855,
26.8,27.0,5,0.0,Stimuli\Blank.png,0,0,0,30,30,30,,,,,,,,,,,,,26.82226989999981,0.02226989999980944,None,75.34505669999999,75.34505669999999,75.34505669999999,75.34505669999999,75.34505669999999,75.34505669999999,75.34505669999999,75.34505669999999,,001,P017,2025_Mar_07_1613,CategoryLocalizer,2021.2.3,59.94916310904855,
27.0,27.8,1,0.75,Stimuli\ImageFiles-Set1\Objects\Object_IroningBoard_00001.png,0,0,0,31,31,31,,,,,,,,,,,,,27.005822200000694,0.005822200000693556,None,75.528564799999,75.528564799999,75.528564799999,75.528564799999,75.528564799999,75.528564799999,75.528564799999,75.528564799999,,001,P017,2025_Mar_07_1613,CategoryLocalizer,2021.2.3,59.94916310904855,
27.8,28.0,5,0.0,Stimuli\Blank.png,0,0,0,32,32,32,,,,,,,,,,,,,27.80770510000002,0.007705100000020337,None,76.34599059999891,76.34599059999891,76.34599059999891,76.34599059999891,76.34599059999891,76.34599059999891,76.34599059999891,76.34599059999891,,001,P017,2025_Mar_07_1613,CategoryLocalizer,2021.2.3,59.94916310904855,
28.0,28.8,2,0.75,Stimuli\ImageFiles-Set1\Bodies\Bodies_DownwardDog_00007.png,0,0,0,33,33,33,,,,,,,,,,,,,28.024653299999045,0.024653299999044975,None,76.56281889999809,76.56281889999809,76.56281889999809,76.56281889999809,76.56281889999809,76.56281889999809,76.56281889999809,76.56281889999809,,001,P017,2025_Mar_07_1613,CategoryLocalizer,2021.2.3,59.94916310904855,
28.8,29.0,5,0.0,Stimuli\Blank.png,0,0,0,34,34,34,,,,,,,,,,,,,28.82407609999791,0.024076099997909495,None,77.34680259999732,77.34680259999732,77.34680259999732,77.34680259999732,77.34680259999732,77.34680259999732,77.34680259999732,77.34680259999732,,001,P017,2025_Mar_07_1613,CategoryLocalizer,2021.2.3,59.94916310904855,
29.0,29.8,2,0.75,Stimuli\ImageFiles-Set1\Bodies\Bodies_Walking_00004.png,0,0,0,35,35,35,,,,,,,,,,,,,29.007622599998285,0.0076225999982852954,None,77.54702410000027,77.54702410000027,77.54702410000027,77.54702410000027,77.54702410000027,77.54702410000027,77.54702410000027,77.54702410000027,,001,P017,2025_Mar_07_1613,CategoryLocalizer,2021.2.3,59.94916310904855,
29.8,30.0,5,0.0,Stimuli\Blank.png,0,0,0,36,36,36,,,,,,,,,,,,,29.824420699998882,0.02442069999888119,None,78.34770939999726,78.34770939999726,78.34770939999726,78.34770939999726,78.34770939999726,78.34770939999726,78.34770939999726,78.34770939999726,,001,P017,2025_Mar_07_1613,CategoryLocalizer,2021.2.3,59.94916310904855,
30.0,30.8,2,0.75,Stimuli\ImageFiles-Set1\Bodies\Bodies_Walking_00004.png,1,1,0,37,37,37,,,,,,,,,,,,,30.007791899999575,0.007791899999574525,1,78.53120439999839,78.53120439999839,78.53120439999839,78.53120439999839,78.53120439999839,78.53120439999839,78.53120439999839,78.53120439999839,0.27462739999828045,001,P017,2025_Mar_07_1613,CategoryLocalizer,2021.2.3,59.94916310904855,
30.8,31.0,5,0.0,Stimuli\Blank.png,0,0,0,38,38,38,,,,,,,,,,,,,30.809429699998873,0.00942969999887211,None,79.33191599999918,79.33191599999918,79.33191599999918,79.33191599999918,79.33191599999918,79.33191599999918,79.33191599999918,79.33191599999918,,001,P017,2025_Mar_07_1613,CategoryLocalizer,2021.2.3,59.94916310904855,
31.0,31.8,2,0.75,Stimuli\ImageFiles-Set1\Bodies\Bodies_QuadStretch_00001.png,0,0,0,39,39,39,,,,,,,,,,,,,31.009504300000117,0.009504300000116928,None,79.54878069999904,79.54878069999904,79.54878069999904,79.54878069999904,79.54878069999904,79.54878069999904,79.54878069999904,79.54878069999904,,001,P017,2025_Mar_07_1613,CategoryLocalizer,2021.2.3,59.94916310904855,
31.8,32.0,5,0.0,Stimuli\Blank.png,0,0,0,40,40,40,,,,,,,,,,,,,31.827836799999204,0.02783679999920352,None,80.36618409999937,80.36618409999937,80.36618409999937,80.36618409999937,80.36618409999937,80.36618409999937,80.36618409999937,80.36618409999937,,001,P017,2025_Mar_07_1613,CategoryLocalizer,2021.2.3,59.94916310904855,
32.0,32.8,2,0.75,Stimuli\ImageFiles-Set1\Bodies\Bodies_Falling_00006.png,0,0,0,41,41,41,,,,,,,,,,,,,32.02650670000003,0.026506700000027195,None,80.54966299999796,80.54966299999796,80.54966299999796,80.54966299999796,80.54966299999796,80.54966299999796,80.54966299999796,80.54966299999796,,001,P017,2025_Mar_07_1613,CategoryLocalizer,2021.2.3,59.94916310904855,
32.8,33.0,5,0.0,Stimuli\Blank.png,0,0,0,42,42,42,,,,,,,,,,,,,32.812713899998926,0.012713899998928468,None,81.35039770000003,81.35039770000003,81.35039770000003,81.35039770000003,81.35039770000003,81.35039770000003,81.35039770000003,81.35039770000003,,001,P017,2025_Mar_07_1613,CategoryLocalizer,2021.2.3,59.94916310904855,
33.0,33.8,2,0.75,Stimuli\ImageFiles-Set1\Bodies\Bodies_PushUp_00004.png,0,0,0,43,43,43,,,,,,,,,,,,,33.028518399998575,0.02851839999857475,None,81.55054670000027,81.55054670000027,81.55054670000027,81.55054670000027,81.55054670000027,81.55054670000027,81.55054670000027,81.55054670000027,,001,P017,2025_Mar_07_1613,CategoryLocalizer,2021.2.3,59.94916310904855,
33.8,34.0,5,0.0,Stimuli\Blank.png,0,0,0,44,44,44,,,,,,,,,,,,,33.811986999997316,0.011986999997319003,None,82.3345745000006,82.3345745000006,82.3345745000006,82.3345745000006,82.3345745000006,82.3345745000006,82.3345745000006,82.3345745000006,,001,P017,2025_Mar_07_1613,CategoryLocalizer,2021.2.3,59.94916310904855,
34.0,34.8,2,0.75,Stimuli\ImageFiles-Set1\Bodies\Bodies_SittingChair_00001.png,0,0,0,45,45,45,,,,,,,,,,,,,34.01216779999959,0.01216779999958817,None,82.53474540000025,82.53474540000025,82.53474540000025,82.53474540000025,82.53474540000025,82.53474540000025,82.53474540000025,82.53474540000025,,001,P017,2025_Mar_07_1613,CategoryLocalizer,2021.2.3,59.94916310904855,
34.8,35.0,5,0.0,Stimuli\Blank.png,0,0,0,46,46,46,,,,,,,,,,,,,34.81258859999798,0.012588599997982897,None,83.33546189999834,83.33546189999834,83.33546189999834,83.33546189999834,83.33546189999834,83.33546189999834,83.33546189999834,83.33546189999834,,001,P017,2025_Mar_07_1613,CategoryLocalizer,2021.2.3,59.94916310904855,
35.0,35.8,2,0.75,Stimuli\ImageFiles-Set1\Bodies\Bodies_CobraPose_00005.png,0,0,0,47,47,47,,,,,,,,,,,,,35.01250179999988,0.012501799999881769,None,83.535601399999,83.535601399999,83.535601399999,83.535601399999,83.535601399999,83.535601399999,83.535601399999,83.535601399999,,001,P017,2025_Mar_07_1613,CategoryLocalizer,2021.2.3,59.94916310904855,
35.8,36.0,5,0.0,Stimuli\Blank.png,0,0,0,48,48,48,,,,,,,,,,,,,35.81346520000079,0.013465200000794653,None,84.33633389999886,84.33633389999886,84.33633389999886,84.33633389999886,84.33633389999886,84.33633389999886,84.33633389999886,84.33633389999886,,001,P017,2025_Mar_07_1613,CategoryLocalizer,2021.2.3,59.94916310904855,
36.0,36.8,2,0.75,Stimuli\ImageFiles-Set1\Bodies\Bodies_SittingFloor_00007.png,0,0,0,49,49,49,,,,,,,,,,,,,36.01407919999838,0.01407919999837759,None,84.55321899999763,84.55321899999763,84.55321899999763,84.55321899999763,84.55321899999763,84.55321899999763,84.55321899999763,84.55321899999763,,001,P017,2025_Mar_07_1613,CategoryLocalizer,2021.2.3,59.94916310904855,
36.8,37.0,5,0.0,Stimuli\Blank.png,0,0,0,50,50,50,,,,,,,,,,,,,36.832735899999534,0.032735899999536855,None,85.35394909999741,85.35394909999741,85.35394909999741,85.35394909999741,85.35394909999741,85.35394909999741,85.35394909999741,85.35394909999741,,001,P017,2025_Mar_07_1613,CategoryLocalizer,2021.2.3,59.94916310904855,
37.0,37.8,2,0.75,Stimuli\ImageFiles-Set1\Bodies\Bodies_Waving_00007.png,0,0,0,51,51,51,,,,,,,,,,,,,36.99806170000011,-0.0019382999998924788,None,85.53742009999769,85.53742009999769,85.53742009999769,85.53742009999769,85.53742009999769,85.53742009999769,85.53742009999769,85.53742009999769,,001,P017,2025_Mar_07_1613,CategoryLocalizer,2021.2.3,59.94916310904855,
37.8,38.0,5,0.0,Stimuli\Blank.png,0,0,0,52,52,52,,,,,,,,,,,,,37.83297289999973,0.032972899999734295,None,86.35478969999895,86.35478969999895,86.35478969999895,86.35478969999895,86.35478969999895,86.35478969999895,86.35478969999895,86.35478969999895,,001,P017,2025_Mar_07_1613,CategoryLocalizer,2021.2.3,59.94916310904855,
38.0,38.8,2,0.75,Stimuli\ImageFiles-Set1\Bodies\Bodies_Standing_00005.png,0,0,0,53,53,53,,,,,,,,,,,,,37.99897989999954,-0.0010201000004599337,None,86.53828609999982,86.53828609999982,86.53828609999982,86.53828609999982,86.53828609999982,86.53828609999982,86.53828609999982,86.53828609999982,,001,P017,2025_Mar_07_1613,CategoryLocalizer,2021.2.3,59.94916310904855,
38.8,39.0,5,0.0,Stimuli\Blank.png,0,0,0,54,54,54,,,,,,,,,,,,,38.81733719999829,0.01733719999829475,None,87.35570189999999,87.35570189999999,87.35570189999999,87.35570189999999,87.35570189999999,87.35570189999999,87.35570189999999,87.35570189999999,,001,P017,2025_Mar_07_1613,CategoryLocalizer,2021.2.3,59.94916310904855,
39.0,39.8,2,0.75,Stimuli\ImageFiles-Set1\Bodies\Bodies_Waving_00001.png,1,1,0,55,55,55,,,,,,,,,,,,,39.01756249999744,0.017562499997438863,None,87.5558600000004,87.5558600000004,87.5558600000004,87.5558600000004,87.5558600000004,87.5558600000004,87.5558600000004,87.5558600000004,,001,P017,2025_Mar_07_1613,CategoryLocalizer,2021.2.3,59.94916310904855,
39.8,40.0,5,0.0,Stimuli\Blank.png,0,0,0,56,56,56,,,,,,,,,,,,,39.81843019999724,0.018430199997240493,None,88.33989339999971,88.33989339999971,88.33989339999971,88.33989339999971,88.33989339999971,88.33989339999971,88.33989339999971,88.33989339999971,,001,P017,2025_Mar_07_1613,CategoryLocalizer,2021.2.3,59.94916310904855,
40.0,40.8,2,0.75,Stimuli\ImageFiles-Set1\Bodies\Bodies_SittingStretch_00002.png,0,0,0,57,57,57,,,,,,,,,,,,,40.00028079999902,0.00028079999901819974,None,88.54007409999758,88.54007409999758,88.54007409999758,88.54007409999758,88.54007409999758,88.54007409999758,88.54007409999758,88.54007409999758,,001,P017,2025_Mar_07_1613,CategoryLocalizer,2021.2.3,59.94916310904855,
40.8,41.0,5,0.0,Stimuli\Blank.png,0,0,0,58,58,58,,,,,,,,,,,,,40.81796819999727,0.017968199997270062,None,89.34076419999838,89.34076419999838,89.34076419999838,89.34076419999838,89.34076419999838,89.34076419999838,89.34076419999838,89.34076419999838,,001,P017,2025_Mar_07_1613,CategoryLocalizer,2021.2.3,59.94916310904855,
41.0,41.8,2,0.75,Stimuli\ImageFiles-Set1\Bodies\Bodies_SittingStretch_00002.png,0,0,0,59,59,59,,,,,,,,,,,,,41.0034147999977,0.003414799997699447,1,89.54094319999786,89.54094319999786,89.54094319999786,89.54094319999786,89.54094319999786,89.54094319999786,89.54094319999786,89.54094319999786,0.277035999999498,001,P017,2025_Mar_07_1613,CategoryLocalizer,2021.2.3,59.94916310904855,
41.8,42.0,5,0.0,Stimuli\Blank.png,0,0,0,60,60,60,,,,,,,,,,,,,41.81821370000034,0.018213700000345057,None,90.3416447999989,90.3416447999989,90.3416447999989,90.3416447999989,90.3416447999989,90.3416447999989,90.3416447999989,90.3416447999989,,001,P017,2025_Mar_07_1613,CategoryLocalizer,2021.2.3,59.94916310904855,
42.0,42.8,2,0.75,Stimuli\ImageFiles-Set1\Bodies\Bodies_Kneeling_00005.png,0,0,0,61,61,61,,,,,,,,,,,,,42.00235859999884,0.002358599998842692,None,90.54182669999864,90.54182669999864,90.54182669999864,90.54182669999864,90.54182669999864,90.54182669999864,90.54182669999864,90.54182669999864,,001,P017,2025_Mar_07_1613,CategoryLocalizer,2021.2.3,59.94916310904855,
42.8,43.0,5,0.0,Stimuli\Blank.png,0,0,0,62,62,62,,,,,,,,,,,,,42.81987730000037,0.01987730000037402,None,91.34253389999867,91.34253389999867,91.34253389999867,91.34253389999867,91.34253389999867,91.34253389999867,91.34253389999867,91.34253389999867,,001,P017,2025_Mar_07_1613,CategoryLocalizer,2021.2.3,59.94916310904855,
43.0,43.8,2,0.75,Stimuli\ImageFiles-Set1\Bodies\Bodies_Jumping_00006.png,0,0,0,63,63,63,,,,,,,,,,,,,43.00318609999886,0.003186099998856662,None,91.52602649999972,91.52602649999972,91.52602649999972,91.52602649999972,91.52602649999972,91.52602649999972,91.52602649999972,91.52602649999972,,001,P017,2025_Mar_07_1613,CategoryLocalizer,2021.2.3,59.94916310904855,
43.8,44.0,5,0.0,Stimuli\Blank.png,0,0,0,64,64,64,,,,,,,,,,,,,43.803281000000425,0.0032810000004275253,None,92.32669600000008,92.32669600000008,92.32669600000008,92.32669600000008,92.32669600000008,92.32669600000008,92.32669600000008,92.32669600000008,,001,P017,2025_Mar_07_1613,CategoryLocalizer,2021.2.3,59.94916310904855,
44.0,44.8,3,0.75,Stimuli\ImageFiles-Set1\Faces\Face_00115.png,0,0,0,65,65,65,,,,,,,,,,,,,44.00457330000063,0.004573300000629388,None,92.52691709999999,92.52691709999999,92.52691709999999,92.52691709999999,92.52691709999999,92.52691709999999,92.52691709999999,92.52691709999999,,001,P017,2025_Mar_07_1613,CategoryLocalizer,2021.2.3,59.94916310904855,
44.8,45.0,5,0.0,Stimuli\Blank.png,0,0,0,66,66,66,,,,,,,,,,,,,44.80416250000053,0.004162500000532532,None,93.32762469999943,93.32762469999943,93.32762469999943,93.32762469999943,93.32762469999943,93.32762469999943,93.32762469999943,93.32762469999943,,001,P017,2025_Mar_07_1613,CategoryLocalizer,2021.2.3,59.94916310904855,
45.0,45.8,3,0.75,Stimuli\ImageFiles-Set1\Faces\Face_00115.png,1,1,0,67,67,67,,,,,,,,,,,,,45.00502789999882,0.0050278999988222495,1,93.52780200000052,93.52780200000052,93.52780200000052,93.52780200000052,93.52780200000052,93.52780200000052,93.52780200000052,93.52780200000052,0.4570587999987765,001,P017,2025_Mar_07_1613,CategoryLocalizer,2021.2.3,59.94916310904855,
45.8,46.0,5,0.0,Stimuli\Blank.png,0,0,0,68,68,68,,,,,,,,,,,,,45.805126799998106,0.005126799998109277,None,94.32851929999742,94.32851929999742,94.32851929999742,94.32851929999742,94.32851929999742,94.32851929999742,94.32851929999742,94.32851929999742,,001,P017,2025_Mar_07_1613,CategoryLocalizer,2021.2.3,59.94916310904855,
46.0,46.8,3,0.75,Stimuli\ImageFiles-Set1\Faces\Face_00065.png,0,0,0,69,69,69,,,,,,,,,,,,,46.00638379999873,0.006383799998729955,None,94.54536910000024,94.54536910000024,94.54536910000024,94.54536910000024,94.54536910000024,94.54536910000024,94.54536910000024,94.54536910000024,,001,P017,2025_Mar_07_1613,CategoryLocalizer,2021.2.3,59.94916310904855,
46.8,47.0,5,0.0,Stimuli\Blank.png,0,0,0,70,70,70,,,,,,,,,,,,,46.82390269999814,0.023902699998146204,None,95.34605179999926,95.34605179999926,95.34605179999926,95.34605179999926,95.34605179999926,95.34605179999926,95.34605179999926,95.34605179999926,,001,P017,2025_Mar_07_1613,CategoryLocalizer,2021.2.3,59.94916310904855,
47.0,47.8,3,0.75,Stimuli\ImageFiles-Set1\Faces\Face_00005.png,0,0,0,71,71,71,,,,,,,,,,,,,47.006740900000295,0.006740900000295369,None,95.54625459999806,95.54625459999806,95.54625459999806,95.54625459999806,95.54625459999806,95.54625459999806,95.54625459999806,95.54625459999806,,001,P017,2025_Mar_07_1613,CategoryLocalizer,2021.2.3,59.94916310904855,
47.8,48.0,5,0.0,Stimuli\Blank.png,0,0,0,72,72,72,,,,,,,,,,,,,47.824255299998185,0.024255299998188207,None,96.34695219999776,96.34695219999776,96.34695219999776,96.34695219999776,96.34695219999776,96.34695219999776,96.34695219999776,96.34695219999776,,001,P017,2025_Mar_07_1613,CategoryLocalizer,2021.2.3,59.94916310904855,
48.0,48.8,3,0.75,Stimuli\ImageFiles-Set1\Faces\Face_00081.png,0,0,0,73,73,73,,,,,,,,,,,,,48.006988099998125,0.006988099998125108,None,96.54715299999953,96.54715299999953,96.54715299999953,96.54715299999953,96.54715299999953,96.54715299999953,96.54715299999953,96.54715299999953,,001,P017,2025_Mar_07_1613,CategoryLocalizer,2021.2.3,59.94916310904855,
48.8,49.0,5,0.0,Stimuli\Blank.png,0,0,0,74,74,74,,,,,,,,,,,,,48.82505719999972,0.025057199999722002,None,97.34783889999744,97.34783889999744,97.34783889999744,97.34783889999744,97.34783889999744,97.34783889999744,97.34783889999744,97.34783889999744,,001,P017,2025_Mar_07_1613,CategoryLocalizer,2021.2.3,59.94916310904855,
49.0,49.8,3,0.75,Stimuli\ImageFiles-Set1\Faces\Face_00007.png,0,0,0,75,75,75,,,,,,,,,,,,,49.00790209999832,0.00790209999831859,None,97.54803979999997,97.54803979999997,97.54803979999997,97.54803979999997,97.54803979999997,97.54803979999997,97.54803979999997,97.54803979999997,,001,P017,2025_Mar_07_1613,CategoryLocalizer,2021.2.3,59.94916310904855,
49.8,50.0,5,0.0,Stimuli\Blank.png,0,0,0,76,76,76,,,,,,,,,,,,,49.82523129999754,0.025231299997543033,None,98.3486974999978,98.3486974999978,98.3486974999978,98.3486974999978,98.3486974999978,98.3486974999978,98.3486974999978,98.3486974999978,,001,P017,2025_Mar_07_1613,CategoryLocalizer,2021.2.3,59.94916310904855,
50.0,50.8,3,0.75,Stimuli\ImageFiles-Set1\Faces\Face_00014.png,0,0,0,77,77,77,,,,,,,,,,,,,50.00864949999959,0.00864949999959208,None,98.54891379999754,98.54891379999754,98.54891379999754,98.54891379999754,98.54891379999754,98.54891379999754,98.54891379999754,98.54891379999754,,001,P017,2025_Mar_07_1613,CategoryLocalizer,2021.2.3,59.94916310904855,
50.8,51.0,5,0.0,Stimuli\Blank.png,0,0,0,78,78,78,,,,,,,,,,,,,50.82613560000027,0.026135600000273485,None,99.34962649999943,99.34962649999943,99.34962649999943,99.34962649999943,99.34962649999943,99.34962649999943,99.34962649999943,99.34962649999943,,001,P017,2025_Mar_07_1613,CategoryLocalizer,2021.2.3,59.94916310904855,
51.0,51.8,3,0.75,Stimuli\ImageFiles-Set1\Faces\Face_00085.png,0,0,0,79,79,79,,,,,,,,,,,,,51.012180399997305,0.012180399997305358,None,99.5497996999984,99.5497996999984,99.5497996999984,99.5497996999984,99.5497996999984,99.5497996999984,99.5497996999984,99.5497996999984,,001,P017,2025_Mar_07_1613,CategoryLocalizer,2021.2.3,59.94916310904855,
51.8,52.0,5,0.0,Stimuli\Blank.png,0,0,0,80,80,80,,,,,,,,,,,,,51.82837339999969,0.028373399999694016,None,100.36719369999992,100.36719369999992,100.36719369999992,100.36719369999992,100.36719369999992,100.36719369999992,100.36719369999992,100.36719369999992,,001,P017,2025_Mar_07_1613,CategoryLocalizer,2021.2.3,59.94916310904855,
52.0,52.8,3,0.75,Stimuli\ImageFiles-Set1\Faces\Face_00101.png,0,0,0,81,81,81,,,,,,,,,,,,,52.028060199998436,0.028060199998435564,None,100.55067199999758,100.55067199999758,100.55067199999758,100.55067199999758,100.55067199999758,100.55067199999758,100.55067199999758,100.55067199999758,,001,P017,2025_Mar_07_1613,CategoryLocalizer,2021.2.3,59.94916310904855,
52.8,53.0,5,0.0,Stimuli\Blank.png,0,0,0,82,82,82,,,,,,,,,,,,,52.812221399999544,0.012221399999546634,None,101.3347145000007,101.3347145000007,101.3347145000007,101.3347145000007,101.3347145000007,101.3347145000007,101.3347145000007,101.3347145000007,,001,P017,2025_Mar_07_1613,CategoryLocalizer,2021.2.3,59.94916310904855,
53.0,53.8,3,0.75,Stimuli\ImageFiles-Set1\Faces\Face_00063.png,0,0,0,83,83,83,,,,,,,,,,,,,53.01214350000009,0.0121435000000929,None,101.53486920000068,101.53486920000068,101.53486920000068,101.53486920000068,101.53486920000068,101.53486920000068,101.53486920000068,101.53486920000068,,001,P017,2025_Mar_07_1613,CategoryLocalizer,2021.2.3,59.94916310904855,
53.8,54.0,5,0.0,Stimuli\Blank.png,0,0,0,84,84,84,,,,,,,,,,,,,53.81297389999963,0.012973899999636274,None,102.3355808999986,102.3355808999986,102.3355808999986,102.3355808999986,102.3355808999986,102.3355808999986,102.3355808999986,102.3355808999986,,001,P017,2025_Mar_07_1613,CategoryLocalizer,2021.2.3,59.94916310904855,
54.0,54.8,3,0.75,Stimuli\ImageFiles-Set1\Faces\Face_00047.png,0,0,0,85,85,85,,,,,,,,,,,,,54.013187199998356,0.013187199998355936,None,102.55245649999779,102.55245649999779,102.55245649999779,102.55245649999779,102.55245649999779,102.55245649999779,102.55245649999779,102.55245649999779,,001,P017,2025_Mar_07_1613,CategoryLocalizer,2021.2.3,59.94916310904855,
54.8,55.0,5,0.0,Stimuli\Blank.png,0,0,0,86,86,86,,,,,,,,,,,,,54.83210770000005,0.03210770000005425,None,103.36985499999719,103.36985499999719,103.36985499999719,103.36985499999719,103.36985499999719,103.36985499999719,103.36985499999719,103.36985499999719,,001,P017,2025_Mar_07_1613,CategoryLocalizer,2021.2.3,59.94916310904855,
55.0,55.8,3,0.75,Stimuli\ImageFiles-Set1\Faces\Face_00093.png,0,0,0,87,87,87,,,,,,,,,,,,,55.032248899999104,0.03224889999910374,None,103.57002309999734,103.57002309999734,103.57002309999734,103.57002309999734,103.57002309999734,103.57002309999734,103.57002309999734,103.57002309999734,,001,P017,2025_Mar_07_1613,CategoryLocalizer,2021.2.3,59.94916310904855,
55.8,56.0,5,0.0,Stimuli\Blank.png,0,0,0,88,88,88,,,,,,,,,,,,,55.81456029999754,0.014560299997540938,None,104.33736019999924,104.33736019999924,104.33736019999924,104.33736019999924,104.33736019999924,104.33736019999924,104.33736019999924,104.33736019999924,,001,P017,2025_Mar_07_1613,CategoryLocalizer,2021.2.3,59.94916310904855,
56.0,56.8,3,0.75,Stimuli\ImageFiles-Set1\Faces\Face_00075.png,0,0,0,89,89,89,,,,,,,,,,,,,56.01492949999738,0.014929499997379025,None,104.55420740000045,104.55420740000045,104.55420740000045,104.55420740000045,104.55420740000045,104.55420740000045,104.55420740000045,104.55420740000045,,001,P017,2025_Mar_07_1613,CategoryLocalizer,2021.2.3,59.94916310904855,
56.8,57.0,5,0.0,Stimuli\Blank.png,0,0,0,90,90,90,,,,,,,,,,,,,56.83310789999814,0.0331078999981429,None,105.35492589999922,105.35492589999922,105.35492589999922,105.35492589999922,105.35492589999922,105.35492589999922,105.35492589999922,105.35492589999922,,001,P017,2025_Mar_07_1613,CategoryLocalizer,2021.2.3,59.94916310904855,
57.0,57.8,3,0.75,Stimuli\ImageFiles-Set1\Faces\Face_00055.png,1,1,0,91,91,91,,,,,,,,,,,,,56.99830259999726,-0.0016974000027403235,None,105.52173319999929,105.52173319999929,105.52173319999929,105.52173319999929,105.52173319999929,105.52173319999929,105.52173319999929,105.52173319999929,,001,P017,2025_Mar_07_1613,CategoryLocalizer,2021.2.3,59.94916310904855,
57.8,58.0,5,0.0,Stimuli\Blank.png,0,0,0,92,92,92,,,,,,,,,,,,,57.799095899998065,-0.0009041000019323064,None,106.32244519999949,106.32244519999949,106.32244519999949,106.32244519999949,106.32244519999949,106.32244519999949,106.32244519999949,106.32244519999949,,001,P017,2025_Mar_07_1613,CategoryLocalizer,2021.2.3,59.94916310904855,
58.0,58.8,3,0.75,Stimuli\ImageFiles-Set1\Faces\Face_00024.png,0,0,0,93,93,93,,,,,,,,,,,,,57.999975099999574,-2.4900000425986946e-05,None,106.52257979999922,106.52257979999922,106.52257979999922,106.52257979999922,106.52257979999922,106.52257979999922,106.52257979999922,106.52257979999922,,001,P017,2025_Mar_07_1613,CategoryLocalizer,2021.2.3,59.94916310904855,
58.8,59.0,5,0.0,Stimuli\Blank.png,0,0,0,94,94,94,,,,,,,,,,,,,58.80074229999809,0.0007422999980946088,None,107.32333069999731,107.32333069999731,107.32333069999731,107.32333069999731,107.32333069999731,107.32333069999731,107.32333069999731,107.32333069999731,,001,P017,2025_Mar_07_1613,CategoryLocalizer,2021.2.3,59.94916310904855,
59.0,59.8,3,0.75,Stimuli\ImageFiles-Set1\Faces\Face_00024.png,0,0,0,95,95,95,,,,,,,,,,,,,59.000154599998496,0.0001545999984955415,1,107.52349999999933,107.52349999999933,107.52349999999933,107.52349999999933,107.52349999999933,107.52349999999933,107.52349999999933,107.52349999999933,0.38964300000225194,001,P017,2025_Mar_07_1613,CategoryLocalizer,2021.2.3,59.94916310904855,
59.8,60.0,5,0.0,Stimuli\Blank.png,0,0,0,96,96,96,,,,,,,,,,,,,59.80265149999832,0.0026514999983220378,None,108.34089029999814,108.34089029999814,108.34089029999814,108.34089029999814,108.34089029999814,108.34089029999814,108.34089029999814,108.34089029999814,,001,P017,2025_Mar_07_1613,CategoryLocalizer,2021.2.3,59.94916310904855,
60.0,60.8,4,0.75,Stimuli\ImageFiles-Set1\Scenes\Scenes_056.png,0,0,0,97,97,97,,,,,,,,,,,,,60.01772539999729,0.01772539999728906,None,108.54106289999982,108.54106289999982,108.54106289999982,108.54106289999982,108.54106289999982,108.54106289999982,108.54106289999982,108.54106289999982,,001,P017,2025_Mar_07_1613,CategoryLocalizer,2021.2.3,59.94916310904855,
60.8,61.0,5,0.0,Stimuli\Blank.png,0,0,0,98,98,98,,,,,,,,,,,,,60.8016733000004,0.00167330000040522,None,109.32515149999745,109.32515149999745,109.32515149999745,109.32515149999745,109.32515149999745,109.32515149999745,109.32515149999745,109.32515149999745,,001,P017,2025_Mar_07_1613,CategoryLocalizer,2021.2.3,59.94916310904855,
61.0,61.8,4,0.75,Stimuli\ImageFiles-Set1\Scenes\Scenes_023.png,0,0,0,99,99,99,,,,,,,,,,,,,61.002343699998164,0.002343699998164084,None,109.52526699999726,109.52526699999726,109.52526699999726,109.52526699999726,109.52526699999726,109.52526699999726,109.52526699999726,109.52526699999726,,001,P017,2025_Mar_07_1613,CategoryLocalizer,2021.2.3,59.94916310904855,
61.8,62.0,5,0.0,Stimuli\Blank.png,0,0,0,100,100,100,,,,,,,,,,,,,61.80322259999957,0.003222599999574527,None,110.32599209999898,110.32599209999898,110.32599209999898,110.32599209999898,110.32599209999898,110.32599209999898,110.32599209999898,110.32599209999898,,001,P017,2025_Mar_07_1613,CategoryLocalizer,2021.2.3,59.94916310904855,
62.0,62.8,4,0.75,Stimuli\ImageFiles-Set1\Scenes\Scenes_031.png,0,0,0,101,101,101,,,,,,,,,,,,,62.00350740000067,0.0035074000006716233,None,110.5261888999994,110.5261888999994,110.5261888999994,110.5261888999994,110.5261888999994,110.5261888999994,110.5261888999994,110.5261888999994,,001,P017,2025_Mar_07_1613,CategoryLocalizer,2021.2.3,59.94916310904855,
62.8,63.0,5,0.0,Stimuli\Blank.png,0,0,0,102,102,102,,,,,,,,,,,,,62.80350729999918,0.0035072999991854203,None,111.3268743999979,111.3268743999979,111.3268743999979,111.3268743999979,111.3268743999979,111.3268743999979,111.3268743999979,111.3268743999979,,001,P017,2025_Mar_07_1613,CategoryLocalizer,2021.2.3,59.94916310904855,
63.0,63.8,4,0.75,Stimuli\ImageFiles-Set1\Scenes\Scenes_021.png,0,0,0,103,103,103,,,,,,,,,,,,,63.00421809999898,0.004218099998979596,None,111.54371999999785,111.54371999999785,111.54371999999785,111.54371999999785,111.54371999999785,111.54371999999785,111.54371999999785,111.54371999999785,,001,P017,2025_Mar_07_1613,CategoryLocalizer,2021.2.3,59.94916310904855,
63.8,64.0,5,0.0,Stimuli\Blank.png,0,0,0,104,104,104,,,,,,,,,,,,,63.8228429999981,0.022842999998104574,None,112.36113669999759,112.36113669999759,112.36113669999759,112.36113669999759,112.36113669999759,112.36113669999759,112.36113669999759,112.36113669999759,,001,P017,2025_Mar_07_1613,CategoryLocalizer,2021.2.3,59.94916310904855,
64.0,64.8,4,0.75,Stimuli\ImageFiles-Set1\Scenes\Scenes_036.png,0,0,0,105,105,105,,,,,,,,,,,,,64.02163239999936,0.02163239999936195,None,112.54459919999863,112.54459919999863,112.54459919999863,112.54459919999863,112.54459919999863,112.54459919999863,112.54459919999863,112.54459919999863,,001,P017,2025_Mar_07_1613,CategoryLocalizer,2021.2.3,59.94916310904855,
64.8,65.0,5,0.0,Stimuli\Blank.png,0,0,0,106,106,106,,,,,,,,,,,,,64.80586409999887,0.0058640999988739395,None,113.32861369999955,113.32861369999955,113.32861369999955,113.32861369999955,113.32861369999955,113.32861369999955,113.32861369999955,113.32861369999955,,001,P017,2025_Mar_07_1613,CategoryLocalizer,2021.2.3,59.94916310904855,
65.0,65.8,4,0.75,Stimuli\ImageFiles-Set1\Scenes\Scenes_050.png,0,0,0,107,107,107,,,,,,,,,,,,,65.00764829999753,0.0076482999975269195,None,113.54549109999789,113.54549109999789,113.54549109999789,113.54549109999789,113.54549109999789,113.54549109999789,113.54549109999789,113.54549109999789,,001,P017,2025_Mar_07_1613,CategoryLocalizer,2021.2.3,59.94916310904855,
65.8,66.0,5,0.0,Stimuli\Blank.png,0,0,0,108,108,108,,,,,,,,,,,,,65.82307579999906,0.02307579999906295,None,114.34620129999894,114.34620129999894,114.34620129999894,114.34620129999894,114.34620129999894,114.34620129999894,114.34620129999894,114.34620129999894,,001,P017,2025_Mar_07_1613,CategoryLocalizer,2021.2.3,59.94916310904855,
66.0,66.8,4,0.75,Stimuli\ImageFiles-Set1\Scenes\Scenes_038.png,0,0,0,109,109,109,,,,,,,,,,,,,66.00716829999874,0.007168299998738803,None,114.52969839999787,114.52969839999787,114.52969839999787,114.52969839999787,114.52969839999787,114.52969839999787,114.52969839999787,114.52969839999787,,001,P017,2025_Mar_07_1613,CategoryLocalizer,2021.2.3,59.94916310904855,
66.8,67.0,5,0.0,Stimuli\Blank.png,0,0,0,110,110,110,,,,,,,,,,,,,66.80746829999771,0.0074682999977113695,None,115.33040439999968,115.33040439999968,115.33040439999968,115.33040439999968,115.33040439999968,115.33040439999968,115.33040439999968,115.33040439999968,,001,P017,2025_Mar_07_1613,CategoryLocalizer,2021.2.3,59.94916310904855,
67.0,67.8,4,0.75,Stimuli\ImageFiles-Set1\Scenes\Scenes_012.png,0,0,0,111,111,111,,,,,,,,,,,,,67.00724029999765,0.007240299997647526,None,115.54727549999734,115.54727549999734,115.54727549999734,115.54727549999734,115.54727549999734,115.54727549999734,115.54727549999734,115.54727549999734,,001,P017,2025_Mar_07_1613,CategoryLocalizer,2021.2.3,59.94916310904855,
67.8,68.0,5,0.0,Stimuli\Blank.png,0,0,0,112,112,112,,,,,,,,,,,,,67.8273730999972,0.02737309999720594,None,116.3646551999991,116.3646551999991,116.3646551999991,116.3646551999991,116.3646551999991,116.3646551999991,116.3646551999991,116.3646551999991,,001,P017,2025_Mar_07_1613,CategoryLocalizer,2021.2.3,59.94916310904855,
68.0,68.8,4,0.75,Stimuli\ImageFiles-Set1\Scenes\Scenes_022.png,0,0,0,113,113,113,,,,,,,,,,,,,68.02761900000041,0.027619000000413507,None,116.56482949999918,116.56482949999918,116.56482949999918,116.56482949999918,116.56482949999918,116.56482949999918,116.56482949999918,116.56482949999918,,001,P017,2025_Mar_07_1613,CategoryLocalizer,2021.2.3,59.94916310904855,
68.8,69.0,5,0.0,Stimuli\Blank.png,0,0,0,114,114,114,,,,,,,,,,,,,68.82764730000054,0.027647300000538166,None,117.36553959999947,117.36553959999947,117.36553959999947,117.36553959999947,117.36553959999947,117.36553959999947,117.36553959999947,117.36553959999947,,001,P017,2025_Mar_07_1613,CategoryLocalizer,2021.2.3,59.94916310904855,
69.0,69.8,4,0.75,Stimuli\ImageFiles-Set1\Scenes\Scenes_043.png,0,0,0,115,115,115,,,,,,,,,,,,,69.02832829999898,0.028328299998975126,None,117.56571369999801,117.56571369999801,117.56571369999801,117.56571369999801,117.56571369999801,117.56571369999801,117.56571369999801,117.56571369999801,,001,P017,2025_Mar_07_1613,CategoryLocalizer,2021.2.3,59.94916310904855,
69.8,70.0,5,0.0,Stimuli\Blank.png,0,0,0,116,116,116,,,,,,,,,,,,,69.82736749999822,0.027367499998220524,None,118.34988080000039,118.34988080000039,118.34988080000039,118.34988080000039,118.34988080000039,118.34988080000039,118.34988080000039,118.34988080000039,,001,P017,2025_Mar_07_1613,CategoryLocalizer,2021.2.3,59.94916310904855,
70.0,70.8,4,0.75,Stimuli\ImageFiles-Set1\Scenes\Scenes_008.png,0,0,0,117,117,117,,,,,,,,,,,,,70.01220760000069,0.012207600000692764,None,118.5499181999985,118.5499181999985,118.5499181999985,118.5499181999985,118.5499181999985,118.5499181999985,118.5499181999985,118.5499181999985,,001,P017,2025_Mar_07_1613,CategoryLocalizer,2021.2.3,59.94916310904855,
70.8,71.0,5,0.0,Stimuli\Blank.png,0,0,0,118,118,118,,,,,,,,,,,,,70.82786829999895,0.027868299998957013,None,119.35062539999853,119.35062539999853,119.35062539999853,119.35062539999853,119.35062539999853,119.35062539999853,119.35062539999853,119.35062539999853,,001,P017,2025_Mar_07_1613,CategoryLocalizer,2021.2.3,59.94916310904855,
71.0,71.8,4,0.75,Stimuli\ImageFiles-Set1\Scenes\Scenes_042.png,0,0,0,119,119,119,,,,,,,,,,,,,71.01176389999819,0.011763899998186389,None,119.55080239999734,119.55080239999734,119.55080239999734,119.55080239999734,119.55080239999734,119.55080239999734,119.55080239999734,119.55080239999734,,001,P017,2025_Mar_07_1613,CategoryLocalizer,2021.2.3,59.94916310904855,
71.8,72.0,5,0.0,Stimuli\Blank.png,0,0,0,120,120,120,,,,,,,,,,,,,71.8280526999988,0.02805269999880977,None,120.35150489999796,120.35150489999796,120.35150489999796,120.35150489999796,120.35150489999796,120.35150489999796,120.35150489999796,120.35150489999796,,001,P017,2025_Mar_07_1613,CategoryLocalizer,2021.2.3,59.94916310904855,
72.0,72.8,4,0.75,Stimuli\ImageFiles-Set1\Scenes\Scenes_052.png,0,0,0,121,121,121,,,,,,,,,,,,,72.01182309999786,0.011823099997855024,None,120.53499749999901,120.53499749999901,120.53499749999901,120.53499749999901,120.53499749999901,120.53499749999901,120.53499749999901,120.53499749999901,,001,P017,2025_Mar_07_1613,CategoryLocalizer,2021.2.3,59.94916310904855,
72.8,73.0,5,0.0,Stimuli\Blank.png,0,0,0,122,122,122,,,,,,,,,,,,,72.8128426000003,0.012842600000297466,None,121.33572619999904,121.33572619999904,121.33572619999904,121.33572619999904,121.33572619999904,121.33572619999904,121.33572619999904,121.33572619999904,,001,P017,2025_Mar_07_1613,CategoryLocalizer,2021.2.3,59.94916310904855,
73.0,73.8,4,0.75,Stimuli\ImageFiles-Set1\Scenes\Scenes_004.png,0,0,0,123,123,123,,,,,,,,,,,,,73.01347349999924,0.013473499999236083,1,121.55259359999764,121.55259359999764,121.55259359999764,121.55259359999764,121.55259359999764,121.55259359999764,121.55259359999764,121.55259359999764,0.2802292000014859,001,P017,2025_Mar_07_1613,CategoryLocalizer,2021.2.3,59.94916310904855,
73.8,74.0,5,0.0,Stimuli\Blank.png,0,0,0,124,124,124,,,,,,,,,,,,,73.83081989999846,0.030819899998462574,None,122.35330649999742,122.35330649999742,122.35330649999742,122.35330649999742,122.35330649999742,122.35330649999742,122.35330649999742,122.35330649999742,,001,P017,2025_Mar_07_1613,CategoryLocalizer,2021.2.3,59.94916310904855,
74.0,74.8,4,0.75,Stimuli\ImageFiles-Set1\Scenes\Scenes_004.png,1,1,0,125,125,125,,,,,,,,,,,,,74.01341659999889,0.013416599998890888,1,122.5534547999996,122.5534547999996,122.5534547999996,122.5534547999996,122.5534547999996,122.5534547999996,122.5534547999996,122.5534547999996,0.6113536999982898,001,P017,2025_Mar_07_1613,CategoryLocalizer,2021.2.3,59.94916310904855,
74.8,75.0,5,0.0,Stimuli\Blank.png,0,0,0,126,126,126,,,,,,,,,,,,,74.8339653999974,0.033965399997399004,None,123.37085129999832,123.37085129999832,123.37085129999832,123.37085129999832,123.37085129999832,123.37085129999832,123.37085129999832,123.37085129999832,,001,P017,2025_Mar_07_1613,CategoryLocalizer,2021.2.3,59.94916310904855,
75.0,75.8,4,0.75,Stimuli\ImageFiles-Set1\Scenes\Scenes_059.png,0,0,0,127,127,127,,,,,,,,,,,,,75.0152225999991,0.015222599999106023,None,123.53765909999856,123.53765909999856,123.53765909999856,123.53765909999856,123.53765909999856,123.53765909999856,123.53765909999856,123.53765909999856,,001,P017,2025_Mar_07_1613,CategoryLocalizer,2021.2.3,59.94916310904855,
75.8,76.0,5,0.0,Stimuli\Blank.png,0,0,0,128,128,128,,,,,,,,,,,,,75.79902749999746,-0.0009725000025326835,None,124.32167990000016,124.32167990000016,124.32167990000016,124.32167990000016,124.32167990000016,124.32167990000016,124.32167990000016,124.32167990000016,,001,P017,2025_Mar_07_1613,CategoryLocalizer,2021.2.3,59.94916310904855,
76.0,88.0,0,0.0,Stimuli\Blank.png,0,0,0,129,129,129,,,,,,,,,,,,,75.99899359999836,-0.0010064000016427599,None,124.5218488999999,124.5218488999999,124.5218488999999,124.5218488999999,124.5218488999999,124.5218488999999,124.5218488999999,124.5218488999999,,001,P017,2025_Mar_07_1613,CategoryLocalizer,2021.2.3,59.94916310904855,
88.0,88.8,3,0.75,Stimuli\ImageFiles-Set1\Faces\Face_00049.png,0,0,0,130,130,130,,,,,,,,,,,,,88.0097300999987,0.009730099998705555,None,136.53256809999948,136.53256809999948,136.53256809999948,136.53256809999948,136.53256809999948,136.53256809999948,136.53256809999948,136.53256809999948,,001,P017,2025_Mar_07_1613,CategoryLocalizer,2021.2.3,59.94916310904855,
88.8,89.0,5,0.0,Stimuli\Blank.png,0,0,0,131,131,131,,,,,,,,,,,,,88.81251879999763,0.012518799997636165,None,137.34989459999997,137.34989459999997,137.34989459999997,137.34989459999997,137.34989459999997,137.34989459999997,137.34989459999997,137.34989459999997,,001,P017,2025_Mar_07_1613,CategoryLocalizer,2021.2.3,59.94916310904855,
89.0,89.8,3,0.75,Stimuli\ImageFiles-Set1\Faces\Face_00022.png,0,0,0,132,132,132,,,,,,,,,,,,,89.02813429999878,0.028134299998782808,None,137.56672719999915,137.56672719999915,137.56672719999915,137.56672719999915,137.56672719999915,137.56672719999915,137.56672719999915,137.56672719999915,,001,P017,2025_Mar_07_1613,CategoryLocalizer,2021.2.3,59.94916310904855,
89.8,90.0,5,0.0,Stimuli\Blank.png,0,0,0,133,133,133,,,,,,,,,,,,,89.82800339999812,0.028003399998127065,None,138.35074769999846,138.35074769999846,138.35074769999846,138.35074769999846,138.35074769999846,138.35074769999846,138.35074769999846,138.35074769999846,,001,P017,2025_Mar_07_1613,CategoryLocalizer,2021.2.3,59.94916310904855,
90.0,90.8,3,0.75,Stimuli\ImageFiles-Set1\Faces\Face_00087.png,0,0,0,134,134,134,,,,,,,,,,,,,90.01092869999775,0.010928699997748481,None,138.5342380999973,138.5342380999973,138.5342380999973,138.5342380999973,138.5342380999973,138.5342380999973,138.5342380999973,138.5342380999973,,001,P017,2025_Mar_07_1613,CategoryLocalizer,2021.2.3,59.94916310904855,
90.8,91.0,5,0.0,Stimuli\Blank.png,0,0,0,135,135,135,,,,,,,,,,,,,90.81161000000066,0.01161000000065826,None,139.33498379999946,139.33498379999946,139.33498379999946,139.33498379999946,139.33498379999946,139.33498379999946,139.33498379999946,139.33498379999946,,001,P017,2025_Mar_07_1613,CategoryLocalizer,2021.2.3,59.94916310904855,
91.0,91.8,3,0.75,Stimuli\ImageFiles-Set1\Faces\Face_00059.png,0,0,0,136,136,136,,,,,,,,,,,,,91.01185690000057,0.011856900000566384,None,139.55183059999763,139.55183059999763,139.55183059999763,139.55183059999763,139.55183059999763,139.55183059999763,139.55183059999763,139.55183059999763,,001,P017,2025_Mar_07_1613,CategoryLocalizer,2021.2.3,59.94916310904855,
91.8,92.0,5,0.0,Stimuli\Blank.png,0,0,0,137,137,137,,,,,,,,,,,,,91.82961040000009,0.029610400000095183,None,140.35251380000045,140.35251380000045,140.35251380000045,140.35251380000045,140.35251380000045,140.35251380000045,140.35251380000045,140.35251380000045,,001,P017,2025_Mar_07_1613,CategoryLocalizer,2021.2.3,59.94916310904855,
92.0,92.8,3,0.75,Stimuli\ImageFiles-Set1\Faces\Face_00111.png,0,0,0,138,138,138,,,,,,,,,,,,,92.01338889999897,0.013388899998972192,None,140.55269639999824,140.55269639999824,140.55269639999824,140.55269639999824,140.55269639999824,140.55269639999824,140.55269639999824,140.55269639999824,,001,P017,2025_Mar_07_1613,CategoryLocalizer,2021.2.3,59.94916310904855,
92.8,93.0,5,0.0,Stimuli\Blank.png,0,0,0,139,139,139,,,,,,,,,,,,,92.83075109999845,0.03075109999845438,None,141.35340929999802,141.35340929999802,141.35340929999802,141.35340929999802,141.35340929999802,141.35340929999802,141.35340929999802,141.35340929999802,,001,P017,2025_Mar_07_1613,CategoryLocalizer,2021.2.3,59.94916310904855,
93.0,93.8,3,0.75,Stimuli\ImageFiles-Set1\Faces\Face_00097.png,0,0,0,140,140,140,,,,,,,,,,,,,93.01446179999766,0.014461799997661728,None,141.53688839999813,141.53688839999813,141.53688839999813,141.53688839999813,141.53688839999813,141.53688839999813,141.53688839999813,141.53688839999813,,001,P017,2025_Mar_07_1613,CategoryLocalizer,2021.2.3,59.94916310904855,
93.8,94.0,5,0.0,Stimuli\Blank.png,0,0,0,141,141,141,,,,,,,,,,,,,93.8149104999975,0.01491049999749805,None,142.33760569999868,142.33760569999868,142.33760569999868,142.33760569999868,142.33760569999868,142.33760569999868,142.33760569999868,142.33760569999868,,001,P017,2025_Mar_07_1613,CategoryLocalizer,2021.2.3,59.94916310904855,
94.0,94.8,3,0.75,Stimuli\ImageFiles-Set1\Faces\Face_00097.png,1,1,0,142,142,142,,,,,,,,,,,,,94.01443079999808,0.014430799998081056,1,142.53777679999985,142.53777679999985,142.53777679999985,142.53777679999985,142.53777679999985,142.53777679999985,142.53777679999985,142.53777679999985,0.32134920000316924,001,P017,2025_Mar_07_1613,CategoryLocalizer,2021.2.3,59.94916310904855,
94.8,95.0,5,0.0,Stimuli\Blank.png,0,0,0,143,143,143,,,,,,,,,,,,,94.8151059999982,0.015105999998198172,None,143.33850209999946,143.33850209999946,143.33850209999946,143.33850209999946,143.33850209999946,143.33850209999946,143.33850209999946,143.33850209999946,,001,P017,2025_Mar_07_1613,CategoryLocalizer,2021.2.3,59.94916310904855,
95.0,95.8,3,0.75,Stimuli\ImageFiles-Set1\Faces\Face_00073.png,0,0,0,144,144,144,,,,,,,,,,,,,95.01523529999758,0.015235299997584661,None,143.53866749999725,143.53866749999725,143.53866749999725,143.53866749999725,143.53866749999725,143.53866749999725,143.53866749999725,143.53866749999725,,001,P017,2025_Mar_07_1613,CategoryLocalizer,2021.2.3,59.94916310904855,
95.8,96.0,5,0.0,Stimuli\Blank.png,0,0,0,145,145,145,,,,,,,,,,,,,95.799920999998,-7.900000200322665e-05,None,144.32266719999825,144.32266719999825,144.32266719999825,144.32266719999825,144.32266719999825,144.32266719999825,144.32266719999825,144.32266719999825,,001,P017,2025_Mar_07_1613,CategoryLocalizer,2021.2.3,59.94916310904855,
96.0,96.8,3,0.75,Stimuli\ImageFiles-Set1\Faces\Face_00113.png,0,0,0,146,146,146,,,,,,,,,,,,,95.99964089999776,-0.00035910000224248506,None,144.52283159999934,144.52283159999934,144.52283159999934,144.52283159999934,144.52283159999934,144.52283159999934,144.52283159999934,144.52283159999934,,001,P017,2025_Mar_07_1613,CategoryLocalizer,2021.2.3,59.94916310904855,
96.8,97.0,5,0.0,Stimuli\Blank.png,0,0,0,147,147,147,,,,,,,,,,,,,96.8024665999983,0.002466599998300012,None,145.3402649999989,145.3402649999989,145.3402649999989,145.3402649999989,145.3402649999989,145.3402649999989,145.3402649999989,145.3402649999989,,001,P017,2025_Mar_07_1613,CategoryLocalizer,2021.2.3,59.94916310904855,
97.0,97.8,3,0.75,Stimuli\ImageFiles-Set1\Faces\Face_00083.png,0,0,0,148,148,148,,,,,,,,,,,,,97.01804679999987,0.01804679999986547,None,145.5570903000007,145.5570903000007,145.5570903000007,145.5570903000007,145.5570903000007,145.5570903000007,145.5570903000007,145.5570903000007,,001,P017,2025_Mar_07_1613,CategoryLocalizer,2021.2.3,59.94916310904855,
97.8,98.0,5,0.0,Stimuli\Blank.png,0,0,0,149,149,149,,,,,,,,,,,,,97.81846619999851,0.018466199998513844,None,146.34116259999792,146.34116259999792,146.34116259999792,146.34116259999792,146.34116259999792,146.34116259999792,146.34116259999792,146.34116259999792,,001,P017,2025_Mar_07_1613,CategoryLocalizer,2021.2.3,59.94916310904855,
98.0,98.8,3,0.75,Stimuli\ImageFiles-Set1\Faces\Face_00035.png,0,0,0,150,150,150,,,,,,,,,,,,,98.00179339999886,0.001793399998859968,None,146.52460009999777,146.52460009999777,146.52460009999777,146.52460009999777,146.52460009999777,146.52460009999777,146.52460009999777,146.52460009999777,,001,P017,2025_Mar_07_1613,CategoryLocalizer,2021.2.3,59.94916310904855,
98.8,99.0,5,0.0,Stimuli\Blank.png,0,0,0,151,151,151,,,,,,,,,,,,,98.80251999999746,0.0025199999974603315,None,147.32534809999925,147.32534809999925,147.32534809999925,147.32534809999925,147.32534809999925,147.32534809999925,147.32534809999925,147.32534809999925,,001,P017,2025_Mar_07_1613,CategoryLocalizer,2021.2.3,59.94916310904855,
99.0,99.8,3,0.75,Stimuli\ImageFiles-Set1\Faces\Face_00001.png,0,0,0,152,152,152,,,,,,,,,,,,,99.00261879999744,0.002618799997435417,None,147.54221379999944,147.54221379999944,147.54221379999944,147.54221379999944,147.54221379999944,147.54221379999944,147.54221379999944,147.54221379999944,,001,P017,2025_Mar_07_1613,CategoryLocalizer,2021.2.3,59.94916310904855,
99.8,100.0,5,0.0,Stimuli\Blank.png,0,0,0,153,153,153,,,,,,,,,,,,,99.81951239999762,0.01951239999762322,None,148.3429157999999,148.3429157999999,148.3429157999999,148.3429157999999,148.3429157999999,148.3429157999999,148.3429157999999,148.3429157999999,,001,P017,2025_Mar_07_1613,CategoryLocalizer,2021.2.3,59.94916310904855,
100.0,100.8,3,0.75,Stimuli\ImageFiles-Set1\Faces\Face_00119.png,0,0,0,154,154,154,,,,,,,,,,,,,100.00325180000073,0.0032518000007257797,None,148.54312629999913,148.54312629999913,148.54312629999913,148.54312629999913,148.54312629999913,148.54312629999913,148.54312629999913,148.54312629999913,,001,P017,2025_Mar_07_1613,CategoryLocalizer,2021.2.3,59.94916310904855,
100.8,101.0,5,0.0,Stimuli\Blank.png,0,0,0,155,155,155,,,,,,,,,,,,,100.82233699999779,0.022336999997790485,None,149.36049029999776,149.36049029999776,149.36049029999776,149.36049029999776,149.36049029999776,149.36049029999776,149.36049029999776,149.36049029999776,,001,P017,2025_Mar_07_1613,CategoryLocalizer,2021.2.3,59.94916310904855,
101.0,101.8,3,0.75,Stimuli\ImageFiles-Set1\Faces\Face_00043.png,0,0,0,156,156,156,,,,,,,,,,,,,101.02327660000083,0.023276600000826875,None,149.56067229999826,149.56067229999826,149.56067229999826,149.56067229999826,149.56067229999826,149.56067229999826,149.56067229999826,149.56067229999826,,001,P017,2025_Mar_07_1613,CategoryLocalizer,2021.2.3,59.94916310904855,
101.8,102.0,5,0.0,Stimuli\Blank.png,0,0,0,157,157,157,,,,,,,,,,,,,101.82207329999801,0.022073299998012885,None,150.34469959999842,150.34469959999842,150.34469959999842,150.34469959999842,150.34469959999842,150.34469959999842,150.34469959999842,150.34469959999842,,001,P017,2025_Mar_07_1613,CategoryLocalizer,2021.2.3,59.94916310904855,
102.0,102.8,3,0.75,Stimuli\ImageFiles-Set1\Faces\Face_00039.png,0,0,0,158,158,158,,,,,,,,,,,,,102.00479119999727,0.004791199997271178,None,150.52813869999954,150.52813869999954,150.52813869999954,150.52813869999954,150.52813869999954,150.52813869999954,150.52813869999954,150.52813869999954,,001,P017,2025_Mar_07_1613,CategoryLocalizer,2021.2.3,59.94916310904855,
102.8,103.0,5,0.0,Stimuli\Blank.png,0,0,0,159,159,159,,,,,,,,,,,,,102.80686509999941,0.006865099999416202,None,151.32889629999772,151.32889629999772,151.32889629999772,151.32889629999772,151.32889629999772,151.32889629999772,151.32889629999772,151.32889629999772,,001,P017,2025_Mar_07_1613,CategoryLocalizer,2021.2.3,59.94916310904855,
103.0,103.8,3,0.75,Stimuli\ImageFiles-Set1\Faces\Face_00095.png,0,0,0,160,160,160,,,,,,,,,,,,,103.0077096999994,0.007709699999395525,None,151.54577229999995,151.54577229999995,151.54577229999995,151.54577229999995,151.54577229999995,151.54577229999995,151.54577229999995,151.54577229999995,,001,P017,2025_Mar_07_1613,CategoryLocalizer,2021.2.3,59.94916310904855,
103.8,104.0,5,0.0,Stimuli\Blank.png,0,0,0,161,161,161,,,,,,,,,,,,,103.8231984999984,0.023198499998400735,None,152.34643159999905,152.34643159999905,152.34643159999905,152.34643159999905,152.34643159999905,152.34643159999905,152.34643159999905,152.34643159999905,,001,P017,2025_Mar_07_1613,CategoryLocalizer,2021.2.3,59.94916310904855,
104.0,104.8,1,0.75,Stimuli\ImageFiles-Set1\Objects\Object_Shirt_00001.png,0,0,0,162,162,162,,,,,,,,,,,,,104.00736659999893,0.007366599998931633,None,152.5299484999996,152.5299484999996,152.5299484999996,152.5299484999996,152.5299484999996,152.5299484999996,152.5299484999996,152.5299484999996,,001,P017,2025_Mar_07_1613,CategoryLocalizer,2021.2.3,59.94916310904855,
104.8,105.0,5,0.0,Stimuli\Blank.png,0,0,0,163,163,163,,,,,,,,,,,,,104.8080845000004,0.008084500000407502,None,153.33066540000073,153.33066540000073,153.33066540000073,153.33066540000073,153.33066540000073,153.33066540000073,153.33066540000073,153.33066540000073,,001,P017,2025_Mar_07_1613,CategoryLocalizer,2021.2.3,59.94916310904855,
105.0,105.8,1,0.75,Stimuli\ImageFiles-Set1\Objects\Object_Nightstand_00001.png,0,0,0,164,164,164,,,,,,,,,,,,,105.00749219999852,0.007492199998523574,None,153.5475351999994,153.5475351999994,153.5475351999994,153.5475351999994,153.5475351999994,153.5475351999994,153.5475351999994,153.5475351999994,,001,P017,2025_Mar_07_1613,CategoryLocalizer,2021.2.3,59.94916310904855,
105.8,106.0,5,0.0,Stimuli\Blank.png,0,0,0,165,165,165,,,,,,,,,,,,,105.82523779999974,0.025237799999743515,None,154.34823759999927,154.34823759999927,154.34823759999927,154.34823759999927,154.34823759999927,154.34823759999927,154.34823759999927,154.34823759999927,,001,P017,2025_Mar_07_1613,CategoryLocalizer,2021.2.3,59.94916310904855,
106.0,106.8,1,0.75,Stimuli\ImageFiles-Set1\Objects\Object_Crib_00001.png,0,0,0,166,166,166,,,,,,,,,,,,,106.00932069999908,0.009320699999079807,None,154.54853100000037,154.54853100000037,154.54853100000037,154.54853100000037,154.54853100000037,154.54853100000037,154.54853100000037,154.54853100000037,,001,P017,2025_Mar_07_1613,CategoryLocalizer,2021.2.3,59.94916310904855,
106.8,107.0,5,0.0,Stimuli\Blank.png,0,0,0,167,167,167,,,,,,,,,,,,,106.82742420000068,0.0274242000006808,None,155.34914039999785,155.34914039999785,155.34914039999785,155.34914039999785,155.34914039999785,155.34914039999785,155.34914039999785,155.34914039999785,,001,P017,2025_Mar_07_1613,CategoryLocalizer,2021.2.3,59.94916310904855,
107.0,107.8,1,0.75,Stimuli\ImageFiles-Set1\Objects\Object_ShoppingCart_00001.png,0,0,0,168,168,168,,,,,,,,,,,,,107.00936929999807,0.009369299998070346,None,155.53260039999805,155.53260039999805,155.53260039999805,155.53260039999805,155.53260039999805,155.53260039999805,155.53260039999805,155.53260039999805,,001,P017,2025_Mar_07_1613,CategoryLocalizer,2021.2.3,59.94916310904855,
107.8,108.0,5,0.0,Stimuli\Blank.png,0,0,0,169,169,169,,,,,,,,,,,,,107.81227469999794,0.012274699997945504,None,156.3500060999977,156.3500060999977,156.3500060999977,156.3500060999977,156.3500060999977,156.3500060999977,156.3500060999977,156.3500060999977,,001,P017,2025_Mar_07_1613,CategoryLocalizer,2021.2.3,59.94916310904855,
108.0,108.8,1,0.75,Stimuli\ImageFiles-Set1\Objects\Object_Bottle_00001.png,0,0,0,170,170,170,,,,,,,,,,,,,108.02742279999802,0.02742279999802122,None,156.5501707000003,156.5501707000003,156.5501707000003,156.5501707000003,156.5501707000003,156.5501707000003,156.5501707000003,156.5501707000003,,001,P017,2025_Mar_07_1613,CategoryLocalizer,2021.2.3,59.94916310904855,
108.8,109.0,5,0.0,Stimuli\Blank.png,0,0,0,171,171,171,,,,,,,,,,,,,108.81263659999968,0.012636599999680698,None,157.35088109999924,157.35088109999924,157.35088109999924,157.35088109999924,157.35088109999924,157.35088109999924,157.35088109999924,157.35088109999924,,001,P017,2025_Mar_07_1613,CategoryLocalizer,2021.2.3,59.94916310904855,
109.0,109.8,1,0.75,Stimuli\ImageFiles-Set1\Objects\Object_Chest_00001.png,0,0,0,172,172,172,,,,,,,,,,,,,109.02768110000034,0.0276811000003363,None,157.55104799999754,157.55104799999754,157.55104799999754,157.55104799999754,157.55104799999754,157.55104799999754,157.55104799999754,157.55104799999754,,001,P017,2025_Mar_07_1613,CategoryLocalizer,2021.2.3,59.94916310904855,
109.8,110.0,5,0.0,Stimuli\Blank.png,0,0,0,173,173,173,,,,,,,,,,,,,109.8122958999993,0.012295899999301696,None,158.33508249999795,158.33508249999795,158.33508249999795,158.33508249999795,158.33508249999795,158.33508249999795,158.33508249999795,158.33508249999795,,001,P017,2025_Mar_07_1613,CategoryLocalizer,2021.2.3,59.94916310904855,
110.0,110.8,1,0.75,Stimuli\ImageFiles-Set1\Objects\Object_Chest_00001.png,1,1,0,174,174,174,,,,,,,,,,,,,110.01238649999868,0.012386499998683576,1,158.53525219999938,158.53525219999938,158.53525219999938,158.53525219999938,158.53525219999938,158.53525219999938,158.53525219999938,158.53525219999938,0.4229072999987693,001,P017,2025_Mar_07_1613,CategoryLocalizer,2021.2.3,59.94916310904855,
110.8,111.0,5,0.0,Stimuli\Blank.png,0,0,0,175,175,175,,,,,,,,,,,,,110.81336219999866,0.013362199998667279,None,159.3359571000001,159.3359571000001,159.3359571000001,159.3359571000001,159.3359571000001,159.3359571000001,159.3359571000001,159.3359571000001,,001,P017,2025_Mar_07_1613,CategoryLocalizer,2021.2.3,59.94916310904855,
111.0,111.8,1,0.75,Stimuli\ImageFiles-Set1\Objects\Object_Canoe_00001.png,0,0,0,176,176,176,,,,,,,,,,,,,111.0134184999988,0.01341849999880651,None,159.53613199999745,159.53613199999745,159.53613199999745,159.53613199999745,159.53613199999745,159.53613199999745,159.53613199999745,159.53613199999745,,001,P017,2025_Mar_07_1613,CategoryLocalizer,2021.2.3,59.94916310904855,
111.8,112.0,5,0.0,Stimuli\Blank.png,0,0,0,177,177,177,,,,,,,,,,,,,111.81342389999918,0.013423899999182254,None,160.33684519999952,160.33684519999952,160.33684519999952,160.33684519999952,160.33684519999952,160.33684519999952,160.33684519999952,160.33684519999952,,001,P017,2025_Mar_07_1613,CategoryLocalizer,2021.2.3,59.94916310904855,
112.0,112.8,1,0.75,Stimuli\ImageFiles-Set1\Objects\Object_Scale_00001.png,0,0,0,178,178,178,,,,,,,,,,,,,112.01452419999987,0.01452419999986887,None,160.53702169999815,160.53702169999815,160.53702169999815,160.53702169999815,160.53702169999815,160.53702169999815,160.53702169999815,160.53702169999815,,001,P017,2025_Mar_07_1613,CategoryLocalizer,2021.2.3,59.94916310904855,
112.8,113.0,5,0.0,Stimuli\Blank.png,0,0,0,179,179,179,,,,,,,,,,,,,112.81438010000056,0.014380100000565221,None,161.3377349000002,161.3377349000002,161.3377349000002,161.3377349000002,161.3377349000002,161.3377349000002,161.3377349000002,161.3377349000002,,001,P017,2025_Mar_07_1613,CategoryLocalizer,2021.2.3,59.94916310904855,
113.0,113.8,1,0.75,Stimuli\ImageFiles-Set1\Objects\Object_Football_00001.png,1,1,0,180,180,180,,,,,,,,,,,,,113.01449379999758,0.014493799997580936,None,161.53798570000072,161.53798570000072,161.53798570000072,161.53798570000072,161.53798570000072,161.53798570000072,161.53798570000072,161.53798570000072,,001,P017,2025_Mar_07_1613,CategoryLocalizer,2021.2.3,59.94916310904855,
113.8,114.0,5,0.0,Stimuli\Blank.png,0,0,0,181,181,181,,,,,,,,,,,,,113.81606199999806,0.01606199999805824,None,162.33864139999787,162.33864139999787,162.33864139999787,162.33864139999787,162.33864139999787,162.33864139999787,162.33864139999787,162.33864139999787,,001,P017,2025_Mar_07_1613,CategoryLocalizer,2021.2.3,59.94916310904855,
114.0,114.8,1,0.75,Stimuli\ImageFiles-Set1\Objects\Object_Wagon_00001.png,0,0,0,182,182,182,,,,,,,,,,,,,113.99909249999837,-0.0009075000016309787,None,162.52207139999882,162.52207139999882,162.52207139999882,162.52207139999882,162.52207139999882,162.52207139999882,162.52207139999882,162.52207139999882,,001,P017,2025_Mar_07_1613,CategoryLocalizer,2021.2.3,59.94916310904855,
114.8,115.0,5,0.0,Stimuli\Blank.png,0,0,0,183,183,183,,,,,,,,,,,,,114.79950199999803,-0.0004980000019685349,None,163.32282169999962,163.32282169999962,163.32282169999962,163.32282169999962,163.32282169999962,163.32282169999962,163.32282169999962,163.32282169999962,,001,P017,2025_Mar_07_1613,CategoryLocalizer,2021.2.3,59.94916310904855,
115.0,115.8,1,0.75,Stimuli\ImageFiles-Set1\Objects\Object_Wagon_00001.png,0,0,0,184,184,184,,,,,,,,,,,,,115.0002362999985,0.00023629999850527383,1,163.52299399999902,163.52299399999902,163.52299399999902,163.52299399999902,163.52299399999902,163.52299399999902,163.52299399999902,163.52299399999902,0.5270253000016965,001,P017,2025_Mar_07_1613,CategoryLocalizer,2021.2.3,59.94916310904855,
115.8,116.0,5,0.0,Stimuli\Blank.png,0,0,0,185,185,185,,,,,,,,,,,,,115.80241279999973,0.002412799999731874,None,164.34039729999859,164.34039729999859,164.34039729999859,164.34039729999859,164.34039729999859,164.34039729999859,164.34039729999859,164.34039729999859,,001,P017,2025_Mar_07_1613,CategoryLocalizer,2021.2.3,59.94916310904855,
116.0,116.8,1,0.75,Stimuli\ImageFiles-Set1\Objects\Object_Banana_00001.png,0,0,0,186,186,186,,,,,,,,,,,,,116.01769280000008,0.017692800000077114,None,164.54055919999882,164.54055919999882,164.54055919999882,164.54055919999882,164.54055919999882,164.54055919999882,164.54055919999882,164.54055919999882,,001,P017,2025_Mar_07_1613,CategoryLocalizer,2021.2.3,59.94916310904855,
116.8,117.0,5,0.0,Stimuli\Blank.png,0,0,0,187,187,187,,,,,,,,,,,,,116.80296950000047,0.0029695000004750227,None,165.3246070999994,165.3246070999994,165.3246070999994,165.3246070999994,165.3246070999994,165.3246070999994,165.3246070999994,165.3246070999994,,001,P017,2025_Mar_07_1613,CategoryLocalizer,2021.2.3,59.94916310904855,
117.0,117.8,1,0.75,Stimuli\ImageFiles-Set1\Objects\Object_Book_00001.png,0,0,0,188,188,188,,,,,,,,,,,,,117.00197509999998,0.0019750999999814667,None,165.54147459999876,165.54147459999876,165.54147459999876,165.54147459999876,165.54147459999876,165.54147459999876,165.54147459999876,165.54147459999876,,001,P017,2025_Mar_07_1613,CategoryLocalizer,2021.2.3,59.94916310904855,
117.8,118.0,5,0.0,Stimuli\Blank.png,0,0,0,189,189,189,,,,,,,,,,,,,117.81948909999846,0.019489099998466486,None,166.3421629000004,166.3421629000004,166.3421629000004,166.3421629000004,166.3421629000004,166.3421629000004,166.3421629000004,166.3421629000004,,001,P017,2025_Mar_07_1613,CategoryLocalizer,2021.2.3,59.94916310904855,
118.0,118.8,1,0.75,Stimuli\ImageFiles-Set1\Objects\Object_Pillow_00001.png,0,0,0,190,190,190,,,,,,,,,,,,,118.00315769999725,0.0031576999972457998,None,166.54232969999794,166.54232969999794,166.54232969999794,166.54232969999794,166.54232969999794,166.54232969999794,166.54232969999794,166.54232969999794,,001,P017,2025_Mar_07_1613,CategoryLocalizer,2021.2.3,59.94916310904855,
118.8,119.0,5,0.0,Stimuli\Blank.png,0,0,0,191,191,191,,,,,,,,,,,,,118.82085340000049,0.020853400000490296,None,167.34305889999814,167.34305889999814,167.34305889999814,167.34305889999814,167.34305889999814,167.34305889999814,167.34305889999814,167.34305889999814,,001,P017,2025_Mar_07_1613,CategoryLocalizer,2021.2.3,59.94916310904855,
119.0,119.8,1,0.75,Stimuli\ImageFiles-Set1\Objects\Object_Locker_00001.png,0,0,0,192,192,192,,,,,,,,,,,,,119.00309609999749,0.0030960999974922743,None,167.52653210000062,167.52653210000062,167.52653210000062,167.52653210000062,167.52653210000062,167.52653210000062,167.52653210000062,167.52653210000062,,001,P017,2025_Mar_07_1613,CategoryLocalizer,2021.2.3,59.94916310904855,
119.8,120.0,5,0.0,Stimuli\Blank.png,0,0,0,193,193,193,,,,,,,,,,,,,119.80457240000032,0.004572400000327548,None,168.32724550000057,168.32724550000057,168.32724550000057,168.32724550000057,168.32724550000057,168.32724550000057,168.32724550000057,168.32724550000057,,001,P017,2025_Mar_07_1613,CategoryLocalizer,2021.2.3,59.94916310904855,
120.0,120.8,4,0.75,Stimuli\ImageFiles-Set1\Scenes\Scenes_018.png,0,0,0,194,194,194,,,,,,,,,,,,,120.0047197999993,0.004719799999293173,None,168.54410939999798,168.54410939999798,168.54410939999798,168.54410939999798,168.54410939999798,168.54410939999798,168.54410939999798,168.54410939999798,,001,P017,2025_Mar_07_1613,CategoryLocalizer,2021.2.3,59.94916310904855,
120.8,121.0,5,0.0,Stimuli\Blank.png,0,0,0,195,195,195,,,,,,,,,,,,,120.8215543999977,0.02155439999769726,None,169.34481049999886,169.34481049999886,169.34481049999886,169.34481049999886,169.34481049999886,169.34481049999886,169.34481049999886,169.34481049999886,,001,P017,2025_Mar_07_1613,CategoryLocalizer,2021.2.3,59.94916310904855,
121.0,121.8,4,0.75,Stimuli\ImageFiles-Set1\Scenes\Scenes_005.png,0,0,0,196,196,196,,,,,,,,,,,,,121.00729299999875,0.0072929999987536576,None,169.54499639999995,169.54499639999995,169.54499639999995,169.54499639999995,169.54499639999995,169.54499639999995,169.54499639999995,169.54499639999995,,001,P017,2025_Mar_07_1613,CategoryLocalizer,2021.2.3,59.94916310904855,
121.8,122.0,5,0.0,Stimuli\Blank.png,0,0,0,197,197,197,,,,,,,,,,,,,121.82340389999808,0.023403899998086786,None,170.3457070000004,170.3457070000004,170.3457070000004,170.3457070000004,170.3457070000004,170.3457070000004,170.3457070000004,170.3457070000004,,001,P017,2025_Mar_07_1613,CategoryLocalizer,2021.2.3,59.94916310904855,
122.0,122.8,4,0.75,Stimuli\ImageFiles-Set1\Scenes\Scenes_006.png,0,0,0,198,198,198,,,,,,,,,,,,,122.00667880000037,0.006678800000372576,None,170.52917940000043,170.52917940000043,170.52917940000043,170.52917940000043,170.52917940000043,170.52917940000043,170.52917940000043,170.52917940000043,,001,P017,2025_Mar_07_1613,CategoryLocalizer,2021.2.3,59.94916310904855,
122.8,123.0,5,0.0,Stimuli\Blank.png,0,0,0,199,199,199,,,,,,,,,,,,,122.80722400000013,0.0072240000001357885,None,171.32987649999995,171.32987649999995,171.32987649999995,171.32987649999995,171.32987649999995,171.32987649999995,171.32987649999995,171.32987649999995,,001,P017,2025_Mar_07_1613,CategoryLocalizer,2021.2.3,59.94916310904855,
123.0,123.8,4,0.75,Stimuli\ImageFiles-Set1\Scenes\Scenes_060.png,0,0,0,200,200,200,,,,,,,,,,,,,123.00723609999841,0.007236099998408463,None,171.54677829999855,171.54677829999855,171.54677829999855,171.54677829999855,171.54677829999855,171.54677829999855,171.54677829999855,171.54677829999855,,001,P017,2025_Mar_07_1613,CategoryLocalizer,2021.2.3,59.94916310904855,
123.8,124.0,5,0.0,Stimuli\Blank.png,0,0,0,201,201,201,,,,,,,,,,,,,123.8242336000003,0.024233600000300726,None,172.34746729999824,172.34746729999824,172.34746729999824,172.34746729999824,172.34746729999824,172.34746729999824,172.34746729999824,172.34746729999824,,001,P017,2025_Mar_07_1613,CategoryLocalizer,2021.2.3,59.94916310904855,
124.0,124.8,4,0.75,Stimuli\ImageFiles-Set1\Scenes\Scenes_003.png,0,0,0,202,202,202,,,,,,,,,,,,,124.0086745999979,0.008674599997902988,None,172.54777169999943,172.54777169999943,172.54777169999943,172.54777169999943,172.54777169999943,172.54777169999943,172.54777169999943,172.54777169999943,,001,P017,2025_Mar_07_1613,CategoryLocalizer,2021.2.3,59.94916310904855,
124.8,125.0,5,0.0,Stimuli\Blank.png,0,0,0,203,203,203,,,,,,,,,,,,,124.82756349999909,0.027563499999089913,None,173.36505100000068,173.36505100000068,173.36505100000068,173.36505100000068,173.36505100000068,173.36505100000068,173.36505100000068,173.36505100000068,,001,P017,2025_Mar_07_1613,CategoryLocalizer,2021.2.3,59.94916310904855,
125.0,125.8,4,0.75,Stimuli\ImageFiles-Set1\Scenes\Scenes_003.png,1,1,0,204,204,204,,,,,,,,,,,,,125.02506979999816,0.025069799998163944,1,173.54861639999945,173.54861639999945,173.54861639999945,173.54861639999945,173.54861639999945,173.54861639999945,173.54861639999945,173.54861639999945,0.3463392000012391,001,P017,2025_Mar_07_1613,CategoryLocalizer,2021.2.3,59.94916310904855,
125.8,126.0,5,0.0,Stimuli\Blank.png,0,0,0,205,205,205,,,,,,,,,,,,,125.80993350000062,0.00993350000062776,None,174.3325526999979,174.3325526999979,174.3325526999979,174.3325526999979,174.3325526999979,174.3325526999979,174.3325526999979,174.3325526999979,,001,P017,2025_Mar_07_1613,CategoryLocalizer,2021.2.3,59.94916310904855,
126.0,126.8,4,0.75,Stimuli\ImageFiles-Set1\Scenes\Scenes_045.png,0,0,0,206,206,206,,,,,,,,,,,,,126.01031389999844,0.010313899998436682,None,174.53272559999823,174.53272559999823,174.53272559999823,174.53272559999823,174.53272559999823,174.53272559999823,174.53272559999823,174.53272559999823,,001,P017,2025_Mar_07_1613,CategoryLocalizer,2021.2.3,59.94916310904855,
126.8,127.0,5,0.0,Stimuli\Blank.png,0,0,0,207,207,207,,,,,,,,,,,,,126.81245119999949,0.012451199999489404,None,175.3501273999973,175.3501273999973,175.3501273999973,175.3501273999973,175.3501273999973,175.3501273999973,175.3501273999973,175.3501273999973,,001,P017,2025_Mar_07_1613,CategoryLocalizer,2021.2.3,59.94916310904855,
127.0,127.8,4,0.75,Stimuli\ImageFiles-Set1\Scenes\Scenes_041.png,0,0,0,208,208,208,,,,,,,,,,,,,127.02738039999895,0.027380399998946814,None,175.5670007999979,175.5670007999979,175.5670007999979,175.5670007999979,175.5670007999979,175.5670007999979,175.5670007999979,175.5670007999979,,001,P017,2025_Mar_07_1613,CategoryLocalizer,2021.2.3,59.94916310904855,
127.8,128.0,5,0.0,Stimuli\Blank.png,0,0,0,209,209,209,,,,,,,,,,,,,127.82904339999732,0.029043399997320307,None,176.35101719999875,176.35101719999875,176.35101719999875,176.35101719999875,176.35101719999875,176.35101719999875,176.35101719999875,176.35101719999875,,001,P017,2025_Mar_07_1613,CategoryLocalizer,2021.2.3,59.94916310904855,
128.0,128.8,4,0.75,Stimuli\ImageFiles-Set1\Scenes\Scenes_019.png,0,0,0,210,210,210,,,,,,,,,,,,,128.01132769999822,0.011327699998219032,None,176.53449719999844,176.53449719999844,176.53449719999844,176.53449719999844,176.53449719999844,176.53449719999844,176.53449719999844,176.53449719999844,,001,P017,2025_Mar_07_1613,CategoryLocalizer,2021.2.3,59.94916310904855,
128.8,129.0,5,0.0,Stimuli\Blank.png,0,0,0,211,211,211,,,,,,,,,,,,,128.81300719999854,0.013007199998526175,None,177.33521309999924,177.33521309999924,177.33521309999924,177.33521309999924,177.33521309999924,177.33521309999924,177.33521309999924,177.33521309999924,,001,P017,2025_Mar_07_1613,CategoryLocalizer,2021.2.3,59.94916310904855,
129.0,129.8,4,0.75,Stimuli\ImageFiles-Set1\Scenes\Scenes_057.png,0,0,0,212,212,212,,,,,,,,,,,,,129.01236419999987,0.012364199999865377,None,177.55209099999774,177.55209099999774,177.55209099999774,177.55209099999774,177.55209099999774,177.55209099999774,177.55209099999774,177.55209099999774,,001,P017,2025_Mar_07_1613,CategoryLocalizer,2021.2.3,59.94916310904855,
129.8,130.0,5,0.0,Stimuli\Blank.png,0,0,0,213,213,213,,,,,,,,,,,,,129.82945669999754,0.029456699997524538,None,178.35277719999794,178.35277719999794,178.35277719999794,178.35277719999794,178.35277719999794,178.35277719999794,178.35277719999794,178.35277719999794,,001,P017,2025_Mar_07_1613,CategoryLocalizer,2021.2.3,59.94916310904855,
130.0,130.8,4,0.75,Stimuli\ImageFiles-Set1\Scenes\Scenes_028.png,0,0,0,214,214,214,,,,,,,,,,,,,130.01416550000067,0.014165500000672182,None,178.55295320000005,178.55295320000005,178.55295320000005,178.55295320000005,178.55295320000005,178.55295320000005,178.55295320000005,178.55295320000005,,001,P017,2025_Mar_07_1613,CategoryLocalizer,2021.2.3,59.94916310904855,
130.8,131.0,5,0.0,Stimuli\Blank.png,0,0,0,215,215,215,,,,,,,,,,,,,130.83099719999882,0.0309971999988079,None,179.35365929999898,179.35365929999898,179.35365929999898,179.35365929999898,179.35365929999898,179.35365929999898,179.35365929999898,179.35365929999898,,001,P017,2025_Mar_07_1613,CategoryLocalizer,2021.2.3,59.94916310904855,
131.0,131.8,4,0.75,Stimuli\ImageFiles-Set1\Scenes\Scenes_034.png,0,0,0,216,216,216,,,,,,,,,,,,,131.0137766000007,0.01377660000071046,None,179.53731060000064,179.53731060000064,179.53731060000064,179.53731060000064,179.53731060000064,179.53731060000064,179.53731060000064,179.53731060000064,,001,P017,2025_Mar_07_1613,CategoryLocalizer,2021.2.3,59.94916310904855,
131.8,132.0,5,0.0,Stimuli\Blank.png,0,0,0,217,217,217,,,,,,,,,,,,,131.8152998000005,0.01529980000049136,None,180.33786519999921,180.33786519999921,180.33786519999921,180.33786519999921,180.33786519999921,180.33786519999921,180.33786519999921,180.33786519999921,,001,P017,2025_Mar_07_1613,CategoryLocalizer,2021.2.3,59.94916310904855,
132.0,132.8,4,0.75,Stimuli\ImageFiles-Set1\Scenes\Scenes_001.png,0,0,0,218,218,218,,,,,,,,,,,,,132.01559009999983,0.015590099999826634,None,180.53803499999776,180.53803499999776,180.53803499999776,180.53803499999776,180.53803499999776,180.53803499999776,180.53803499999776,180.53803499999776,,001,P017,2025_Mar_07_1613,CategoryLocalizer,2021.2.3,59.94916310904855,
132.8,133.0,5,0.0,Stimuli\Blank.png,0,0,0,219,219,219,,,,,,,,,,,,,132.79922909999732,-0.0007709000026920876,None,181.32209379999767,181.32209379999767,181.32209379999767,181.32209379999767,181.32209379999767,181.32209379999767,181.32209379999767,181.32209379999767,,001,P017,2025_Mar_07_1613,CategoryLocalizer,2021.2.3,59.94916310904855,
133.0,133.8,4,0.75,Stimuli\ImageFiles-Set1\Scenes\Scenes_049.png,0,0,0,220,220,220,,,,,,,,,,,,,132.999656699998,-0.00034330000198679045,None,181.52223969999977,181.52223969999977,181.52223969999977,181.52223969999977,181.52223969999977,181.52223969999977,181.52223969999977,181.52223969999977,,001,P017,2025_Mar_07_1613,CategoryLocalizer,2021.2.3,59.94916310904855,
133.8,134.0,5,0.0,Stimuli\Blank.png,0,0,0,221,221,221,,,,,,,,,,,,,133.80017360000056,0.00017360000055077762,None,182.32292049999887,182.32292049999887,182.32292049999887,182.32292049999887,182.32292049999887,182.32292049999887,182.32292049999887,182.32292049999887,,001,P017,2025_Mar_07_1613,CategoryLocalizer,2021.2.3,59.94916310904855,
134.0,134.8,4,0.75,Stimuli\ImageFiles-Set1\Scenes\Scenes_007.png,0,0,0,222,222,222,,,,,,,,,,,,,134.00012910000078,0.00012910000077681616,None,182.52308899999844,182.52308899999844,182.52308899999844,182.52308899999844,182.52308899999844,182.52308899999844,182.52308899999844,182.52308899999844,,001,P017,2025_Mar_07_1613,CategoryLocalizer,2021.2.3,59.94916310904855,
134.8,135.0,5,0.0,Stimuli\Blank.png,0,0,0,223,223,223,,,,,,,,,,,,,134.80110369999966,0.0011036999996463237,None,183.32384199999797,183.32384199999797,183.32384199999797,183.32384199999797,183.32384199999797,183.32384199999797,183.32384199999797,183.32384199999797,,001,P017,2025_Mar_07_1613,CategoryLocalizer,2021.2.3,59.94916310904855,
135.0,135.8,4,0.75,Stimuli\ImageFiles-Set1\Scenes\Scenes_051.png,0,0,0,224,224,224,,,,,,,,,,,,,135.00101390000054,0.0010139000005437993,None,183.52401109999846,183.52401109999846,183.52401109999846,183.52401109999846,183.52401109999846,183.52401109999846,183.52401109999846,183.52401109999846,,001,P017,2025_Mar_07_1613,CategoryLocalizer,2021.2.3,59.94916310904855,
135.8,136.0,5,0.0,Stimuli\Blank.png,0,0,0,225,225,225,,,,,,,,,,,,,135.80158999999912,0.001589999999112024,None,184.32472570000027,184.32472570000027,184.32472570000027,184.32472570000027,184.32472570000027,184.32472570000027,184.32472570000027,184.32472570000027,,001,P017,2025_Mar_07_1613,CategoryLocalizer,2021.2.3,59.94916310904855,
136.0,136.8,2,0.75,Stimuli\ImageFiles-Set1\Bodies\Bodies_Lunging_00003.png,0,0,0,226,226,226,,,,,,,,,,,,,136.00147020000077,0.0014702000007673632,None,184.5249205,184.5249205,184.5249205,184.5249205,184.5249205,184.5249205,184.5249205,184.5249205,,001,P017,2025_Mar_07_1613,CategoryLocalizer,2021.2.3,59.94916310904855,
136.8,137.0,5,0.0,Stimuli\Blank.png,0,0,0,227,227,227,,,,,,,,,,,,,136.80330459999823,0.0033045999982164176,None,185.3256122999992,185.3256122999992,185.3256122999992,185.3256122999992,185.3256122999992,185.3256122999992,185.3256122999992,185.3256122999992,,001,P017,2025_Mar_07_1613,CategoryLocalizer,2021.2.3,59.94916310904855,
137.0,137.8,2,0.75,Stimuli\ImageFiles-Set1\Bodies\Bodies_QuadStretch_00003.png,0,0,0,228,228,228,,,,,,,,,,,,,137.00284159999865,0.0028415999986464158,None,185.52578279999943,185.52578279999943,185.52578279999943,185.52578279999943,185.52578279999943,185.52578279999943,185.52578279999943,185.52578279999943,,001,P017,2025_Mar_07_1613,CategoryLocalizer,2021.2.3,59.94916310904855,
137.8,138.0,5,0.0,Stimuli\Blank.png,0,0,0,229,229,229,,,,,,,,,,,,,137.80303359999743,0.003033599997422698,None,186.3264945999981,186.3264945999981,186.3264945999981,186.3264945999981,186.3264945999981,186.3264945999981,186.3264945999981,186.3264945999981,,001,P017,2025_Mar_07_1613,CategoryLocalizer,2021.2.3,59.94916310904855,
138.0,138.8,2,0.75,Stimuli\ImageFiles-Set1\Bodies\Bodies_Punching_00001.png,0,0,0,230,230,230,,,,,,,,,,,,,138.00346490000084,0.003464900000835769,None,186.52662520000013,186.52662520000013,186.52662520000013,186.52662520000013,186.52662520000013,186.52662520000013,186.52662520000013,186.52662520000013,,001,P017,2025_Mar_07_1613,CategoryLocalizer,2021.2.3,59.94916310904855,
138.8,139.0,5,0.0,Stimuli\Blank.png,0,0,0,231,231,231,,,,,,,,,,,,,138.80402309999772,0.004023099997709778,None,187.32736459999796,187.32736459999796,187.32736459999796,187.32736459999796,187.32736459999796,187.32736459999796,187.32736459999796,187.32736459999796,,001,P017,2025_Mar_07_1613,CategoryLocalizer,2021.2.3,59.94916310904855,
139.0,139.8,2,0.75,Stimuli\ImageFiles-Set1\Bodies\Bodies_SittingChair_00005.png,0,0,0,232,232,232,,,,,,,,,,,,,139.00509769999917,0.005097699999168981,None,187.54430819999834,187.54430819999834,187.54430819999834,187.54430819999834,187.54430819999834,187.54430819999834,187.54430819999834,187.54430819999834,,001,P017,2025_Mar_07_1613,CategoryLocalizer,2021.2.3,59.94916310904855,
139.8,140.0,5,0.0,Stimuli\Blank.png,0,0,0,233,233,233,,,,,,,,,,,,,139.82147909999912,0.02147909999911235,None,188.34502529999736,188.34502529999736,188.34502529999736,188.34502529999736,188.34502529999736,188.34502529999736,188.34502529999736,188.34502529999736,,001,P017,2025_Mar_07_1613,CategoryLocalizer,2021.2.3,59.94916310904855,
140.0,140.8,2,0.75,Stimuli\ImageFiles-Set1\Bodies\Bodies_Waving_00005.png,0,0,0,234,234,234,,,,,,,,,,,,,140.00502549999874,0.005025499998737359,None,188.54513210000005,188.54513210000005,188.54513210000005,188.54513210000005,188.54513210000005,188.54513210000005,188.54513210000005,188.54513210000005,,001,P017,2025_Mar_07_1613,CategoryLocalizer,2021.2.3,59.94916310904855,
140.8,141.0,5,0.0,Stimuli\Blank.png,0,0,0,235,235,235,,,,,,,,,,,,,140.8223457999993,0.022345799999300198,None,189.34582949999822,189.34582949999822,189.34582949999822,189.34582949999822,189.34582949999822,189.34582949999822,189.34582949999822,189.34582949999822,,001,P017,2025_Mar_07_1613,CategoryLocalizer,2021.2.3,59.94916310904855,
141.0,141.8,2,0.75,Stimuli\ImageFiles-Set1\Bodies\Bodies_Falling_00002.png,0,0,0,236,236,236,,,,,,,,,,,,,141.00573679999798,0.00573679999797605,None,189.52932429999782,189.52932429999782,189.52932429999782,189.52932429999782,189.52932429999782,189.52932429999782,189.52932429999782,189.52932429999782,,001,P017,2025_Mar_07_1613,CategoryLocalizer,2021.2.3,59.94916310904855,
141.8,142.0,5,0.0,Stimuli\Blank.png,0,0,0,237,237,237,,,,,,,,,,,,,141.80711259999953,0.007112599999516078,None,190.33003589999862,190.33003589999862,190.33003589999862,190.33003589999862,190.33003589999862,190.33003589999862,190.33003589999862,190.33003589999862,,001,P017,2025_Mar_07_1613,CategoryLocalizer,2021.2.3,59.94916310904855,
142.0,142.8,2,0.75,Stimuli\ImageFiles-Set1\Bodies\Bodies_Jumping_00004.png,0,0,0,238,238,238,,,,,,,,,,,,,142.00783690000026,0.007836900000256719,None,190.53020059999835,190.53020059999835,190.53020059999835,190.53020059999835,190.53020059999835,190.53020059999835,190.53020059999835,190.53020059999835,,001,P017,2025_Mar_07_1613,CategoryLocalizer,2021.2.3,59.94916310904855,
142.8,143.0,5,0.0,Stimuli\Blank.png,0,0,0,239,239,239,,,,,,,,,,,,,142.80755529999806,0.007555299998045939,None,191.33090309999898,191.33090309999898,191.33090309999898,191.33090309999898,191.33090309999898,191.33090309999898,191.33090309999898,191.33090309999898,,001,P017,2025_Mar_07_1613,CategoryLocalizer,2021.2.3,59.94916310904855,
143.0,143.8,2,0.75,Stimuli\ImageFiles-Set1\Bodies\Bodies_Lunging_00001.png,0,0,0,240,240,240,,,,,,,,,,,,,143.0083040999998,0.008304099999804748,None,191.53110190000007,191.53110190000007,191.53110190000007,191.53110190000007,191.53110190000007,191.53110190000007,191.53110190000007,191.53110190000007,,001,P017,2025_Mar_07_1613,CategoryLocalizer,2021.2.3,59.94916310904855,
143.8,144.0,5,0.0,Stimuli\Blank.png,0,0,0,241,241,241,,,,,,,,,,,,,143.8083028000001,0.008302800000080879,None,192.3317943999973,192.3317943999973,192.3317943999973,192.3317943999973,192.3317943999973,192.3317943999973,192.3317943999973,192.3317943999973,,001,P017,2025_Mar_07_1613,CategoryLocalizer,2021.2.3,59.94916310904855,
144.0,144.8,2,0.75,Stimuli\ImageFiles-Set1\Bodies\Bodies_Lunging_00001.png,1,1,0,242,242,242,,,,,,,,,,,,,144.00855410000077,0.008554100000765175,1,192.5319660999994,192.5319660999994,192.5319660999994,192.5319660999994,192.5319660999994,192.5319660999994,192.5319660999994,192.5319660999994,0.42594829999870853,001,P017,2025_Mar_07_1613,CategoryLocalizer,2021.2.3,59.94916310904855,
144.8,145.0,5,0.0,Stimuli\Blank.png,0,0,0,243,243,243,,,,,,,,,,,,,144.80995039999834,0.00995039999833125,None,193.3327661000003,193.3327661000003,193.3327661000003,193.3327661000003,193.3327661000003,193.3327661000003,193.3327661000003,193.3327661000003,,001,P017,2025_Mar_07_1613,CategoryLocalizer,2021.2.3,59.94916310904855,
145.0,145.8,2,0.75,Stimuli\ImageFiles-Set1\Bodies\Bodies_Pushing_00005.png,0,0,0,244,244,244,,,,,,,,,,,,,145.01264819999778,0.012648199997784104,None,193.5495467999972,193.5495467999972,193.5495467999972,193.5495467999972,193.5495467999972,193.5495467999972,193.5495467999972,193.5495467999972,,001,P017,2025_Mar_07_1613,CategoryLocalizer,2021.2.3,59.94916310904855,
145.8,146.0,5,0.0,Stimuli\Blank.png,0,0,0,245,245,245,,,,,,,,,,,,,145.8269780999981,0.026978099998075322,None,194.35024039999917,194.35024039999917,194.35024039999917,194.35024039999917,194.35024039999917,194.35024039999917,194.35024039999917,194.35024039999917,,001,P017,2025_Mar_07_1613,CategoryLocalizer,2021.2.3,59.94916310904855,
146.0,146.8,2,0.75,Stimuli\ImageFiles-Set1\Bodies\Bodies_Lunging_00004.png,0,0,0,246,246,246,,,,,,,,,,,,,146.01038359999802,0.010383599998021964,None,194.53373689999717,194.53373689999717,194.53373689999717,194.53373689999717,194.53373689999717,194.53373689999717,194.53373689999717,194.53373689999717,,001,P017,2025_Mar_07_1613,CategoryLocalizer,2021.2.3,59.94916310904855,
146.8,147.0,5,0.0,Stimuli\Blank.png,0,0,0,247,247,247,,,,,,,,,,,,,146.81178480000017,0.011784800000157247,None,195.3344505999994,195.3344505999994,195.3344505999994,195.3344505999994,195.3344505999994,195.3344505999994,195.3344505999994,195.3344505999994,,001,P017,2025_Mar_07_1613,CategoryLocalizer,2021.2.3,59.94916310904855,
147.0,147.8,2,0.75,Stimuli\ImageFiles-Set1\Bodies\Bodies_Crawling_00006.png,0,0,0,248,248,248,,,,,,,,,,,,,147.0115067000006,0.011506700000609271,None,195.53461880000032,195.53461880000032,195.53461880000032,195.53461880000032,195.53461880000032,195.53461880000032,195.53461880000032,195.53461880000032,,001,P017,2025_Mar_07_1613,CategoryLocalizer,2021.2.3,59.94916310904855,
147.8,148.0,5,0.0,Stimuli\Blank.png,0,0,0,249,249,249,,,,,,,,,,,,,147.81183029999738,0.01183029999737073,None,196.33538079999926,196.33538079999926,196.33538079999926,196.33538079999926,196.33538079999926,196.33538079999926,196.33538079999926,196.33538079999926,,001,P017,2025_Mar_07_1613,CategoryLocalizer,2021.2.3,59.94916310904855,
148.0,148.8,2,0.75,Stimuli\ImageFiles-Set1\Bodies\Bodies_SittingStretch_00005.png,0,0,0,250,250,250,,,,,,,,,,,,,148.01242379999894,0.012423799998941831,None,196.5355036999972,196.5355036999972,196.5355036999972,196.5355036999972,196.5355036999972,196.5355036999972,196.5355036999972,196.5355036999972,,001,P017,2025_Mar_07_1613,CategoryLocalizer,2021.2.3,59.94916310904855,
148.8,149.0,5,0.0,Stimuli\Blank.png,0,0,0,251,251,251,,,,,,,,,,,,,148.81342719999884,0.01342719999883002,None,197.33622139999716,197.33622139999716,197.33622139999716,197.33622139999716,197.33622139999716,197.33622139999716,197.33622139999716,197.33622139999716,,001,P017,2025_Mar_07_1613,CategoryLocalizer,2021.2.3,59.94916310904855,
149.0,149.8,2,0.75,Stimuli\ImageFiles-Set1\Bodies\Bodies_Waving_00003.png,0,0,0,252,252,252,,,,,,,,,,,,,149.01291779999883,0.01291779999883147,None,197.53639789999943,197.53639789999943,197.53639789999943,197.53639789999943,197.53639789999943,197.53639789999943,197.53639789999943,197.53639789999943,,001,P017,2025_Mar_07_1613,CategoryLocalizer,2021.2.3,59.94916310904855,
149.8,150.0,5,0.0,Stimuli\Blank.png,0,0,0,253,253,253,,,,,,,,,,,,,149.81409630000053,0.014096300000517203,None,198.33707539999887,198.33707539999887,198.33707539999887,198.33707539999887,198.33707539999887,198.33707539999887,198.33707539999887,198.33707539999887,,001,P017,2025_Mar_07_1613,CategoryLocalizer,2021.2.3,59.94916310904855,
150.0,150.8,2,0.75,Stimuli\ImageFiles-Set1\Bodies\Bodies_Falling_00004.png,0,0,0,254,254,254,,,,,,,,,,,,,150.01471479999964,0.014714799999637762,None,198.53727269999945,198.53727269999945,198.53727269999945,198.53727269999945,198.53727269999945,198.53727269999945,198.53727269999945,198.53727269999945,,001,P017,2025_Mar_07_1613,CategoryLocalizer,2021.2.3,59.94916310904855,
150.8,151.0,5,0.0,Stimuli\Blank.png,0,0,0,255,255,255,,,,,,,,,,,,,150.8173472999988,0.017347299998789367,None,199.35467819999758,199.35467819999758,199.35467819999758,199.35467819999758,199.35467819999758,199.35467819999758,199.35467819999758,199.35467819999758,,001,P017,2025_Mar_07_1613,CategoryLocalizer,2021.2.3,59.94916310904855,
151.0,151.8,2,0.75,Stimuli\ImageFiles-Set1\Bodies\Bodies_Punching_00003.png,0,0,0,256,256,256,,,,,,,,,,,,,151.01471619999938,0.014716199999384116,None,199.5382428999983,199.5382428999983,199.5382428999983,199.5382428999983,199.5382428999983,199.5382428999983,199.5382428999983,199.5382428999983,,001,P017,2025_Mar_07_1613,CategoryLocalizer,2021.2.3,59.94916310904855,
151.8,152.0,5,0.0,Stimuli\Blank.png,0,0,0,257,257,257,,,,,,,,,,,,,151.8181341999989,0.018134199998883105,None,200.3555654999982,200.3555654999982,200.3555654999982,200.3555654999982,200.3555654999982,200.3555654999982,200.3555654999982,200.3555654999982,,001,P017,2025_Mar_07_1613,CategoryLocalizer,2021.2.3,59.94916310904855,
152.0,164.0,0,0.0,Stimuli\Blank.png,0,0,0,258,258,258,,,,,,,,,,,,,152.01596559999962,0.015965599999617552,None,200.5390445999983,200.5390445999983,200.5390445999983,200.5390445999983,200.5390445999983,200.5390445999983,200.5390445999983,200.5390445999983,,001,P017,2025_Mar_07_1613,CategoryLocalizer,2021.2.3,59.94916310904855,
164.0,164.8,4,0.75,Stimuli\ImageFiles-Set1\Scenes\Scenes_013.png,0,0,0,259,259,259,,,,,,,,,,,,,164.0100500999979,0.010050099997897632,None,212.53299289999995,212.53299289999995,212.53299289999995,212.53299289999995,212.53299289999995,212.53299289999995,212.53299289999995,212.53299289999995,,001,P017,2025_Mar_07_1613,CategoryLocalizer,2021.2.3,59.94916310904855,
164.8,165.0,5,0.0,Stimuli\Blank.png,0,0,0,260,260,260,,,,,,,,,,,,,164.81242940000084,0.012429400000826263,None,213.3503782000007,213.3503782000007,213.3503782000007,213.3503782000007,213.3503782000007,213.3503782000007,213.3503782000007,213.3503782000007,,001,P017,2025_Mar_07_1613,CategoryLocalizer,2021.2.3,59.94916310904855,
165.0,165.8,4,0.75,Stimuli\ImageFiles-Set1\Scenes\Scenes_030.png,0,0,0,261,261,261,,,,,,,,,,,,,165.02814419999777,0.028144199997768737,None,213.5672702999982,213.5672702999982,213.5672702999982,213.5672702999982,213.5672702999982,213.5672702999982,213.5672702999982,213.5672702999982,,001,P017,2025_Mar_07_1613,CategoryLocalizer,2021.2.3,59.94916310904855,
165.8,166.0,5,0.0,Stimuli\Blank.png,0,0,0,262,262,262,,,,,,,,,,,,,165.8277820000003,0.02778200000028619,None,214.35125309999785,214.35125309999785,214.35125309999785,214.35125309999785,214.35125309999785,214.35125309999785,214.35125309999785,214.35125309999785,,001,P017,2025_Mar_07_1613,CategoryLocalizer,2021.2.3,59.94916310904855,
166.0,166.8,4,0.75,Stimuli\ImageFiles-Set1\Scenes\Scenes_054.png,0,0,0,263,263,263,,,,,,,,,,,,,166.01193069999863,0.01193069999862928,None,214.55143309999767,214.55143309999767,214.55143309999767,214.55143309999767,214.55143309999767,214.55143309999767,214.55143309999767,214.55143309999767,,001,P017,2025_Mar_07_1613,CategoryLocalizer,2021.2.3,59.94916310904855,
166.8,167.0,5,0.0,Stimuli\Blank.png,0,0,0,264,264,264,,,,,,,,,,,,,166.82923999999912,0.029239999999106203,None,215.35213499999736,215.35213499999736,215.35213499999736,215.35213499999736,215.35213499999736,215.35213499999736,215.35213499999736,215.35213499999736,,001,P017,2025_Mar_07_1613,CategoryLocalizer,2021.2.3,59.94916310904855,
167.0,167.8,4,0.75,Stimuli\ImageFiles-Set1\Scenes\Scenes_054.png,1,1,0,265,265,265,,,,,,,,,,,,,167.01296039999943,0.012960399999428773,1,215.55231659999845,215.55231659999845,215.55231659999845,215.55231659999845,215.55231659999845,215.55231659999845,215.55231659999845,215.55231659999845,0.4656518000010692,001,P017,2025_Mar_07_1613,CategoryLocalizer,2021.2.3,59.94916310904855,
167.8,168.0,5,0.0,Stimuli\Blank.png,0,0,0,266,266,266,,,,,,,,,,,,,167.8325189999996,0.03251899999958141,None,216.36972989999776,216.36972989999776,216.36972989999776,216.36972989999776,216.36972989999776,216.36972989999776,216.36972989999776,216.36972989999776,,001,P017,2025_Mar_07_1613,CategoryLocalizer,2021.2.3,59.94916310904855,
168.0,168.8,4,0.75,Stimuli\ImageFiles-Set1\Scenes\Scenes_017.png,0,0,0,267,267,267,,,,,,,,,,,,,168.0135128999973,0.01351289999729488,None,216.55321159999949,216.55321159999949,216.55321159999949,216.55321159999949,216.55321159999949,216.55321159999949,216.55321159999949,216.55321159999949,,001,P017,2025_Mar_07_1613,CategoryLocalizer,2021.2.3,59.94916310904855,
168.8,169.0,5,0.0,Stimuli\Blank.png,0,0,0,268,268,268,,,,,,,,,,,,,168.8325081999974,0.032508199997380416,None,217.37062510000032,217.37062510000032,217.37062510000032,217.37062510000032,217.37062510000032,217.37062510000032,217.37062510000032,217.37062510000032,,001,P017,2025_Mar_07_1613,CategoryLocalizer,2021.2.3,59.94916310904855,
169.0,169.8,4,0.75,Stimuli\ImageFiles-Set1\Scenes\Scenes_015.png,0,0,0,269,269,269,,,,,,,,,,,,,169.01464809999743,0.014648099997430108,None,217.5374023000004,217.5374023000004,217.5374023000004,217.5374023000004,217.5374023000004,217.5374023000004,217.5374023000004,217.5374023000004,,001,P017,2025_Mar_07_1613,CategoryLocalizer,2021.2.3,59.94916310904855,
169.8,170.0,5,0.0,Stimuli\Blank.png,0,0,0,270,270,270,,,,,,,,,,,,,169.81468459999815,0.014684599998133763,None,218.33811659999992,218.33811659999992,218.33811659999992,218.33811659999992,218.33811659999992,218.33811659999992,218.33811659999992,218.33811659999992,,001,P017,2025_Mar_07_1613,CategoryLocalizer,2021.2.3,59.94916310904855,
170.0,170.8,4,0.75,Stimuli\ImageFiles-Set1\Scenes\Scenes_035.png,0,0,0,271,271,271,,,,,,,,,,,,,170.0149206999995,0.014920699999493081,None,218.53829219999898,218.53829219999898,218.53829219999898,218.53829219999898,218.53829219999898,218.53829219999898,218.53829219999898,218.53829219999898,,001,P017,2025_Mar_07_1613,CategoryLocalizer,2021.2.3,59.94916310904855,
170.8,171.0,5,0.0,Stimuli\Blank.png,0,0,0,272,272,272,,,,,,,,,,,,,170.81767149999723,0.017671499997220508,None,219.3557139000004,219.3557139000004,219.3557139000004,219.3557139000004,219.3557139000004,219.3557139000004,219.3557139000004,219.3557139000004,,001,P017,2025_Mar_07_1613,CategoryLocalizer,2021.2.3,59.94916310904855,
171.0,171.8,4,0.75,Stimuli\ImageFiles-Set1\Scenes\Scenes_011.png,0,0,0,273,273,273,,,,,,,,,,,,,171.0176238999993,0.01762389999930747,None,219.5558691999977,219.5558691999977,219.5558691999977,219.5558691999977,219.5558691999977,219.5558691999977,219.5558691999977,219.5558691999977,,001,P017,2025_Mar_07_1613,CategoryLocalizer,2021.2.3,59.94916310904855,
171.8,172.0,5,0.0,Stimuli\Blank.png,0,0,0,274,274,274,,,,,,,,,,,,,171.81649209999887,0.016492099998856702,None,220.33994220000022,220.33994220000022,220.33994220000022,220.33994220000022,220.33994220000022,220.33994220000022,220.33994220000022,220.33994220000022,,001,P017,2025_Mar_07_1613,CategoryLocalizer,2021.2.3,59.94916310904855,
172.0,172.8,4,0.75,Stimuli\ImageFiles-Set1\Scenes\Scenes_026.png,0,0,0,275,275,275,,,,,,,,,,,,,172.00232829999732,0.0023282999973162077,None,220.5400613999991,220.5400613999991,220.5400613999991,220.5400613999991,220.5400613999991,220.5400613999991,220.5400613999991,220.5400613999991,,001,P017,2025_Mar_07_1613,CategoryLocalizer,2021.2.3,59.94916310904855,
172.8,173.0,5,0.0,Stimuli\Blank.png,0,0,0,276,276,276,,,,,,,,,,,,,172.8179385000003,0.017938500000298063,None,221.3407632999988,221.3407632999988,221.3407632999988,221.3407632999988,221.3407632999988,221.3407632999988,221.3407632999988,221.3407632999988,,001,P017,2025_Mar_07_1613,CategoryLocalizer,2021.2.3,59.94916310904855,
173.0,173.8,4,0.75,Stimuli\ImageFiles-Set1\Scenes\Scenes_055.png,1,1,0,277,277,277,,,,,,,,,,,,,173.0013932999973,0.0013932999972894322,None,221.52426399999968,221.52426399999968,221.52426399999968,221.52426399999968,221.52426399999968,221.52426399999968,221.52426399999968,221.52426399999968,,001,P017,2025_Mar_07_1613,CategoryLocalizer,2021.2.3,59.94916310904855,
173.8,174.0,5,0.0,Stimuli\Blank.png,0,0,0,278,278,278,,,,,,,,,,,,,173.80486849999943,0.004868499999417963,None,222.34169909999764,222.34169909999764,222.34169909999764,222.34169909999764,222.34169909999764,222.34169909999764,222.34169909999764,222.34169909999764,,001,P017,2025_Mar_07_1613,CategoryLocalizer,2021.2.3,59.94916310904855,
174.0,174.8,4,0.75,Stimuli\ImageFiles-Set1\Scenes\Scenes_010.png,0,0,0,279,279,279,,,,,,,,,,,,,174.01834159999999,0.018341599999985192,None,222.55854469999758,222.55854469999758,222.55854469999758,222.55854469999758,222.55854469999758,222.55854469999758,222.55854469999758,222.55854469999758,,001,P017,2025_Mar_07_1613,CategoryLocalizer,2021.2.3,59.94916310904855,
174.8,175.0,5,0.0,Stimuli\Blank.png,0,0,0,280,280,280,,,,,,,,,,,,,174.81899789999807,0.018997899998055345,None,223.342534899999,223.342534899999,223.342534899999,223.342534899999,223.342534899999,223.342534899999,223.342534899999,223.342534899999,,001,P017,2025_Mar_07_1613,CategoryLocalizer,2021.2.3,59.94916310904855,
175.0,175.8,4,0.75,Stimuli\ImageFiles-Set1\Scenes\Scenes_010.png,0,0,0,281,281,281,,,,,,,,,,,,,175.0026861999977,0.0026861999976972584,1,223.5260324999981,223.5260324999981,223.5260324999981,223.5260324999981,223.5260324999981,223.5260324999981,223.5260324999981,223.5260324999981,0.7228566000012506,001,P017,2025_Mar_07_1613,CategoryLocalizer,2021.2.3,59.94916310904855,
175.8,176.0,5,0.0,Stimuli\Blank.png,0,0,0,282,282,282,,,,,,,,,,,,,175.8036910999981,0.00369109999809325,None,224.32674199999747,224.32674199999747,224.32674199999747,224.32674199999747,224.32674199999747,224.32674199999747,224.32674199999747,224.32674199999747,,001,P017,2025_Mar_07_1613,CategoryLocalizer,2021.2.3,59.94916310904855,
176.0,176.8,4,0.75,Stimuli\ImageFiles-Set1\Scenes\Scenes_016.png,0,0,0,283,283,283,,,,,,,,,,,,,176.00374119999833,0.0037411999983305577,None,224.54362480000054,224.54362480000054,224.54362480000054,224.54362480000054,224.54362480000054,224.54362480000054,224.54362480000054,224.54362480000054,,001,P017,2025_Mar_07_1613,CategoryLocalizer,2021.2.3,59.94916310904855,
176.8,177.0,5,0.0,Stimuli\Blank.png,0,0,0,284,284,284,,,,,,,,,,,,,176.82345169999826,0.023451699998247477,None,225.36100169999918,225.36100169999918,225.36100169999918,225.36100169999918,225.36100169999918,225.36100169999918,225.36100169999918,225.36100169999918,,001,P017,2025_Mar_07_1613,CategoryLocalizer,2021.2.3,59.94916310904855,
