eventStartTime,eventEndTime,eventCond,imSize,imFile,repeatedImage,responseEvent,Events.thisRepN,Events.thisTrialN,Events.thisN,Events.thisIndex,Instructions.started,Instructions.stopped,participantReadyResponse.keys,participantReadyResponse.rt,participantReadyResponse.started,participantReadyResponse.stopped,startWaitforTrigger,triggerResponse.keys,triggerResponse.rt,triggerResponse.started,triggerResponse.stopped,globalTimer,actualStartTime,startTimingDiff,participantResponse.keys,participantResponse.started,participantResponse.stopped,image.started,image.stopped,fixationOutside.started,fixationOutside.stopped,fixationInside.started,fixationInside.stopped,participantResponse.rt,session,participant,date,expName,psychopyVersion,frameRate,
,,,,,,,,,,,13.903522200002044,None,1,19.62598639999851,13.903522200002044,None,,,,,,,,,,,,,,,,,,,002,P017,2025_Mar_07_1642,CategoryLocalizer,2021.2.3,59.94287444050939,
,,,,,,,,,,,,,,,,,33.541893500001606,5,15.285176199999114,33.55521679999947,None,,,,,,,,,,,,,,002,P017,2025_Mar_07_1642,CategoryLocalizer,2021.2.3,59.94287444050939,
0.0,12.0,0,0.0,Stimuli\Blank.png,0,0,0,0,0,0,,,,,,,,,,,,48.85548120000021,0.04269810000187135,0.04269810000187135,None,48.918841200000315,None,48.918841200000315,None,48.918841200000315,None,48.918841200000315,None,,002,P017,2025_Mar_07_1642,CategoryLocalizer,2021.2.3,59.94287444050939,
12.0,12.8,1,0.75,Stimuli\ImageFiles-Set2\Objects\Object_Grill_00001.png,0,0,0,1,1,1,,,,,,,,,,,,,12.01177749999988,0.011777499999880092,None,60.89605840000149,60.89605840000149,60.89605840000149,60.89605840000149,60.89605840000149,60.89605840000149,60.89605840000149,60.89605840000149,,002,P017,2025_Mar_07_1642,CategoryLocalizer,2021.2.3,59.94287444050939,
12.8,13.0,5,0.0,Stimuli\Blank.png,0,0,0,2,2,2,,,,,,,,,,,,,12.827134099999967,0.027134099999965855,None,61.69677070000034,61.69677070000034,61.69677070000034,61.69677070000034,61.69677070000034,61.69677070000034,61.69677070000034,61.69677070000034,,002,P017,2025_Mar_07_1642,CategoryLocalizer,2021.2.3,59.94287444050939,
13.0,13.8,1,0.75,Stimuli\ImageFiles-Set2\Objects\Object_Ambulance_00001.png,0,0,0,3,3,3,,,,,,,,,,,,,13.01148010000179,0.01148010000179056,None,61.88026320000063,61.88026320000063,61.88026320000063,61.88026320000063,61.88026320000063,61.88026320000063,61.88026320000063,61.88026320000063,,002,P017,2025_Mar_07_1642,CategoryLocalizer,2021.2.3,59.94287444050939,
13.8,14.0,5,0.0,Stimuli\Blank.png,0,0,0,4,4,4,,,,,,,,,,,,,13.811240800001542,0.011240800001541373,None,62.681011799999396,62.681011799999396,62.681011799999396,62.681011799999396,62.681011799999396,62.681011799999396,62.681011799999396,62.681011799999396,,002,P017,2025_Mar_07_1642,CategoryLocalizer,2021.2.3,59.94287444050939,
14.0,14.8,1,0.75,Stimuli\ImageFiles-Set2\Objects\Object_Battery_00001.png,0,0,0,5,5,5,,,,,,,,,,,,,14.012472999998863,0.012472999998863088,None,62.89783090000128,62.89783090000128,62.89783090000128,62.89783090000128,62.89783090000128,62.89783090000128,62.89783090000128,62.89783090000128,,002,P017,2025_Mar_07_1642,CategoryLocalizer,2021.2.3,59.94287444050939,
14.8,15.0,5,0.0,Stimuli\Blank.png,0,0,0,6,6,6,,,,,,,,,,,,,14.828329899999517,0.028329899999516073,None,63.69853499999954,63.69853499999954,63.69853499999954,63.69853499999954,63.69853499999954,63.69853499999954,63.69853499999954,63.69853499999954,,002,P017,2025_Mar_07_1642,CategoryLocalizer,2021.2.3,59.94287444050939,
15.0,15.8,1,0.75,Stimuli\ImageFiles-Set2\Objects\Object_Ladder_00001.png,0,0,0,7,7,7,,,,,,,,,,,,,15.012674300000072,0.012674300000071526,None,63.88204260000202,63.88204260000202,63.88204260000202,63.88204260000202,63.88204260000202,63.88204260000202,63.88204260000202,63.88204260000202,,002,P017,2025_Mar_07_1642,CategoryLocalizer,2021.2.3,59.94287444050939,
15.8,16.0,5,0.0,Stimuli\Blank.png,0,0,0,8,8,8,,,,,,,,,,,,,15.813244699998904,0.013244699998903542,None,64.68274440000096,64.68274440000096,64.68274440000096,64.68274440000096,64.68274440000096,64.68274440000096,64.68274440000096,64.68274440000096,,002,P017,2025_Mar_07_1642,CategoryLocalizer,2021.2.3,59.94287444050939,
16.0,16.8,1,0.75,Stimuli\ImageFiles-Set2\Objects\Object_Glass_00001.png,0,0,0,9,9,9,,,,,,,,,,,,,16.013267800000904,0.013267800000903662,None,64.88292250000086,64.88292250000086,64.88292250000086,64.88292250000086,64.88292250000086,64.88292250000086,64.88292250000086,64.88292250000086,,002,P017,2025_Mar_07_1642,CategoryLocalizer,2021.2.3,59.94287444050939,
16.8,17.0,5,0.0,Stimuli\Blank.png,0,0,0,10,10,10,,,,,,,,,,,,,16.81405459999951,0.014054599999507644,None,65.68364500000098,65.68364500000098,65.68364500000098,65.68364500000098,65.68364500000098,65.68364500000098,65.68364500000098,65.68364500000098,,002,P017,2025_Mar_07_1642,CategoryLocalizer,2021.2.3,59.94287444050939,
17.0,17.8,1,0.75,Stimuli\ImageFiles-Set2\Objects\Object_Strawberry_00001.png,0,0,0,11,11,11,,,,,,,,,,,,,17.01370020000104,0.013700200001039775,None,65.88380310000139,65.88380310000139,65.88380310000139,65.88380310000139,65.88380310000139,65.88380310000139,65.88380310000139,65.88380310000139,,002,P017,2025_Mar_07_1642,CategoryLocalizer,2021.2.3,59.94287444050939,
17.8,18.0,5,0.0,Stimuli\Blank.png,0,0,0,12,12,12,,,,,,,,,,,,,17.814868500001467,0.01486850000146589,None,66.68451640000058,66.68451640000058,66.68451640000058,66.68451640000058,66.68451640000058,66.68451640000058,66.68451640000058,66.68451640000058,,002,P017,2025_Mar_07_1642,CategoryLocalizer,2021.2.3,59.94287444050939,
18.0,18.8,1,0.75,Stimuli\ImageFiles-Set2\Objects\Object_Brick_00001.png,0,0,0,13,13,13,,,,,,,,,,,,,18.014536099999532,0.01453609999953187,None,66.88468780000039,66.88468780000039,66.88468780000039,66.88468780000039,66.88468780000039,66.88468780000039,66.88468780000039,66.88468780000039,,002,P017,2025_Mar_07_1642,CategoryLocalizer,2021.2.3,59.94287444050939,
18.8,19.0,5,0.0,Stimuli\Blank.png,0,0,0,14,14,14,,,,,,,,,,,,,18.816971600001125,0.016971600001124187,None,67.70210589999988,67.70210589999988,67.70210589999988,67.70210589999988,67.70210589999988,67.70210589999988,67.70210589999988,67.70210589999988,,002,P017,2025_Mar_07_1642,CategoryLocalizer,2021.2.3,59.94287444050939,
19.0,19.8,1,0.75,Stimuli\ImageFiles-Set2\Objects\Object_Tape_00001.png,0,0,0,15,15,15,,,,,,,,,,,,,19.017810800000007,0.017810800000006566,None,67.90227980000054,67.90227980000054,67.90227980000054,67.90227980000054,67.90227980000054,67.90227980000054,67.90227980000054,67.90227980000054,,002,P017,2025_Mar_07_1642,CategoryLocalizer,2021.2.3,59.94287444050939,
19.8,20.0,5,0.0,Stimuli\Blank.png,0,0,0,16,16,16,,,,,,,,,,,,,19.816414400000212,0.01641440000021177,None,68.68632359999901,68.68632359999901,68.68632359999901,68.68632359999901,68.68632359999901,68.68632359999901,68.68632359999901,68.68632359999901,,002,P017,2025_Mar_07_1642,CategoryLocalizer,2021.2.3,59.94287444050939,
20.0,20.8,1,0.75,Stimuli\ImageFiles-Set2\Objects\Object_Switch_00001.png,0,0,0,17,17,17,,,,,,,,,,,,,19.999644499999704,-0.0003555000002961606,None,68.86977050000132,68.86977050000132,68.86977050000132,68.86977050000132,68.86977050000132,68.86977050000132,68.86977050000132,68.86977050000132,,002,P017,2025_Mar_07_1642,CategoryLocalizer,2021.2.3,59.94287444050939,
20.8,21.0,5,0.0,Stimuli\Blank.png,0,0,0,18,18,18,,,,,,,,,,,,,20.801362700000027,0.0013627000000262512,None,69.67053339999984,69.67053339999984,69.67053339999984,69.67053339999984,69.67053339999984,69.67053339999984,69.67053339999984,69.67053339999984,,002,P017,2025_Mar_07_1642,CategoryLocalizer,2021.2.3,59.94287444050939,
21.0,21.8,1,0.75,Stimuli\ImageFiles-Set2\Objects\Object_Switch_00001.png,1,1,0,19,19,19,,,,,,,,,,,,,21.001048199999786,0.0010481999997864477,1,69.87066939999931,69.87066939999931,69.87066939999931,69.87066939999931,69.87066939999931,69.87066939999931,69.87066939999931,69.87066939999931,0.4077027999992424,002,P017,2025_Mar_07_1642,CategoryLocalizer,2021.2.3,59.94287444050939,
21.8,22.0,5,0.0,Stimuli\Blank.png,0,0,0,20,20,20,,,,,,,,,,,,,21.80195829999866,0.00195829999865893,None,70.67138949999935,70.67138949999935,70.67138949999935,70.67138949999935,70.67138949999935,70.67138949999935,70.67138949999935,70.67138949999935,,002,P017,2025_Mar_07_1642,CategoryLocalizer,2021.2.3,59.94287444050939,
22.0,22.8,1,0.75,Stimuli\ImageFiles-Set2\Objects\Object_Wheelchair_00001.png,0,0,0,21,21,21,,,,,,,,,,,,,22.001949000001332,0.0019490000013320241,None,70.8882177000014,70.8882177000014,70.8882177000014,70.8882177000014,70.8882177000014,70.8882177000014,70.8882177000014,70.8882177000014,,002,P017,2025_Mar_07_1642,CategoryLocalizer,2021.2.3,59.94287444050939,
22.8,23.0,5,0.0,Stimuli\Blank.png,0,0,0,22,22,22,,,,,,,,,,,,,22.81946230000176,0.019462300001759303,None,71.68893509999907,71.68893509999907,71.68893509999907,71.68893509999907,71.68893509999907,71.68893509999907,71.68893509999907,71.68893509999907,,002,P017,2025_Mar_07_1642,CategoryLocalizer,2021.2.3,59.94287444050939,
23.0,23.8,1,0.75,Stimuli\ImageFiles-Set2\Objects\Object_Plate_00001.png,0,0,0,23,23,23,,,,,,,,,,,,,23.00367080000069,0.003670800000691088,None,71.87243089999902,71.87243089999902,71.87243089999902,71.87243089999902,71.87243089999902,71.87243089999902,71.87243089999902,71.87243089999902,,002,P017,2025_Mar_07_1642,CategoryLocalizer,2021.2.3,59.94287444050939,
23.8,24.0,5,0.0,Stimuli\Blank.png,0,0,0,24,24,24,,,,,,,,,,,,,23.802928900000552,0.0029289000005512378,None,72.67327400000067,72.67327400000067,72.67327400000067,72.67327400000067,72.67327400000067,72.67327400000067,72.67327400000067,72.67327400000067,,002,P017,2025_Mar_07_1642,CategoryLocalizer,2021.2.3,59.94287444050939,
24.0,24.8,1,0.75,Stimuli\ImageFiles-Set2\Objects\Object_Razor_00001.png,0,0,0,25,25,25,,,,,,,,,,,,,24.00474690000192,0.00474690000191913,None,72.87331600000107,72.87331600000107,72.87331600000107,72.87331600000107,72.87331600000107,72.87331600000107,72.87331600000107,72.87331600000107,,002,P017,2025_Mar_07_1642,CategoryLocalizer,2021.2.3,59.94287444050939,
24.8,25.0,5,0.0,Stimuli\Blank.png,0,0,0,26,26,26,,,,,,,,,,,,,24.80469870000161,0.004698700001608103,None,73.6740271000017,73.6740271000017,73.6740271000017,73.6740271000017,73.6740271000017,73.6740271000017,73.6740271000017,73.6740271000017,,002,P017,2025_Mar_07_1642,CategoryLocalizer,2021.2.3,59.94287444050939,
25.0,25.8,1,0.75,Stimuli\ImageFiles-Set2\Objects\Object_Pepper_00001.png,0,0,0,27,27,27,,,,,,,,,,,,,25.00482270000066,0.004822700000659097,None,73.87420040000143,73.87420040000143,73.87420040000143,73.87420040000143,73.87420040000143,73.87420040000143,73.87420040000143,73.87420040000143,,002,P017,2025_Mar_07_1642,CategoryLocalizer,2021.2.3,59.94287444050939,
25.8,26.0,5,0.0,Stimuli\Blank.png,0,0,0,28,28,28,,,,,,,,,,,,,25.80467100000169,0.004671000001689407,None,74.67490370000087,74.67490370000087,74.67490370000087,74.67490370000087,74.67490370000087,74.67490370000087,74.67490370000087,74.67490370000087,,002,P017,2025_Mar_07_1642,CategoryLocalizer,2021.2.3,59.94287444050939,
26.0,26.8,1,0.75,Stimuli\ImageFiles-Set2\Objects\Object_Shoe_00001.png,0,0,0,29,29,29,,,,,,,,,,,,,26.00840099999914,0.008400999999139458,None,74.89190600000074,74.89190600000074,74.89190600000074,74.89190600000074,74.89190600000074,74.89190600000074,74.89190600000074,74.89190600000074,,002,P017,2025_Mar_07_1642,CategoryLocalizer,2021.2.3,59.94287444050939,
26.8,27.0,5,0.0,Stimuli\Blank.png,0,0,0,30,30,30,,,,,,,,,,,,,26.822412800000166,0.02241280000016488,None,75.69248060000245,75.69248060000245,75.69248060000245,75.69248060000245,75.69248060000245,75.69248060000245,75.69248060000245,75.69248060000245,,002,P017,2025_Mar_07_1642,CategoryLocalizer,2021.2.3,59.94287444050939,
27.0,27.8,1,0.75,Stimuli\ImageFiles-Set2\Objects\Object_Hat_00001.png,0,0,0,31,31,31,,,,,,,,,,,,,27.007962300001964,0.00796230000196374,None,75.89266420000058,75.89266420000058,75.89266420000058,75.89266420000058,75.89266420000058,75.89266420000058,75.89266420000058,75.89266420000058,,002,P017,2025_Mar_07_1642,CategoryLocalizer,2021.2.3,59.94287444050939,
27.8,28.0,5,0.0,Stimuli\Blank.png,0,0,0,32,32,32,,,,,,,,,,,,,27.824044000000868,0.024044000000866816,None,76.69335829999909,76.69335829999909,76.69335829999909,76.69335829999909,76.69335829999909,76.69335829999909,76.69335829999909,76.69335829999909,,002,P017,2025_Mar_07_1642,CategoryLocalizer,2021.2.3,59.94287444050939,
28.0,28.8,2,0.75,Stimuli\ImageFiles-Set2\Bodies\Bodies_SittingFloor_00001.png,0,0,0,33,33,33,,,,,,,,,,,,,28.007430300000124,0.00743030000012368,None,76.87686269999904,76.87686269999904,76.87686269999904,76.87686269999904,76.87686269999904,76.87686269999904,76.87686269999904,76.87686269999904,,002,P017,2025_Mar_07_1642,CategoryLocalizer,2021.2.3,59.94287444050939,
28.8,29.0,5,0.0,Stimuli\Blank.png,0,0,0,34,34,34,,,,,,,,,,,,,28.807920399998693,0.007920399998692318,None,77.67757179999899,77.67757179999899,77.67757179999899,77.67757179999899,77.67757179999899,77.67757179999899,77.67757179999899,77.67757179999899,,002,P017,2025_Mar_07_1642,CategoryLocalizer,2021.2.3,59.94287444050939,
29.0,29.8,2,0.75,Stimuli\ImageFiles-Set2\Bodies\Bodies_SittingStretch_00001.png,0,0,0,35,35,35,,,,,,,,,,,,,29.008247400000982,0.008247400000982452,None,77.89445100000012,77.89445100000012,77.89445100000012,77.89445100000012,77.89445100000012,77.89445100000012,77.89445100000012,77.89445100000012,,002,P017,2025_Mar_07_1642,CategoryLocalizer,2021.2.3,59.94287444050939,
29.8,30.0,5,0.0,Stimuli\Blank.png,0,0,0,36,36,36,,,,,,,,,,,,,29.827272300000914,0.027272300000912963,None,78.71181960000104,78.71181960000104,78.71181960000104,78.71181960000104,78.71181960000104,78.71181960000104,78.71181960000104,78.71181960000104,,002,P017,2025_Mar_07_1642,CategoryLocalizer,2021.2.3,59.94287444050939,
30.0,30.8,2,0.75,Stimuli\ImageFiles-Set2\Bodies\Bodies_Pushing_00002.png,0,0,0,37,37,37,,,,,,,,,,,,,30.02700360000017,0.02700360000017099,None,78.91201050000018,78.91201050000018,78.91201050000018,78.91201050000018,78.91201050000018,78.91201050000018,78.91201050000018,78.91201050000018,,002,P017,2025_Mar_07_1642,CategoryLocalizer,2021.2.3,59.94287444050939,
30.8,31.0,5,0.0,Stimuli\Blank.png,0,0,0,38,38,38,,,,,,,,,,,,,30.827514699998574,0.027514699998572922,None,79.7127072000003,79.7127072000003,79.7127072000003,79.7127072000003,79.7127072000003,79.7127072000003,79.7127072000003,79.7127072000003,,002,P017,2025_Mar_07_1642,CategoryLocalizer,2021.2.3,59.94287444050939,
31.0,31.8,2,0.75,Stimuli\ImageFiles-Set2\Bodies\Bodies_Pushing_00002.png,1,1,0,39,39,39,,,,,,,,,,,,,31.02730639999936,0.02730639999936102,1,79.91286760000003,79.91286760000003,79.91286760000003,79.91286760000003,79.91286760000003,79.91286760000003,79.91286760000003,79.91286760000003,0.4215635000000475,002,P017,2025_Mar_07_1642,CategoryLocalizer,2021.2.3,59.94287444050939,
31.8,32.0,5,0.0,Stimuli\Blank.png,0,0,0,40,40,40,,,,,,,,,,,,,31.826874599999428,0.026874599999427318,None,80.69690320000154,80.69690320000154,80.69690320000154,80.69690320000154,80.69690320000154,80.69690320000154,80.69690320000154,80.69690320000154,,002,P017,2025_Mar_07_1642,CategoryLocalizer,2021.2.3,59.94287444050939,
32.0,32.8,2,0.75,Stimuli\ImageFiles-Set2\Bodies\Bodies_PushUp_00001.png,0,0,0,41,41,41,,,,,,,,,,,,,32.01022770000054,0.010227700000541518,None,80.88039650000064,80.88039650000064,80.88039650000064,80.88039650000064,80.88039650000064,80.88039650000064,80.88039650000064,80.88039650000064,,002,P017,2025_Mar_07_1642,CategoryLocalizer,2021.2.3,59.94287444050939,
32.8,33.0,5,0.0,Stimuli\Blank.png,0,0,0,42,42,42,,,,,,,,,,,,,32.811615800001164,0.011615800001166576,None,81.68111000000135,81.68111000000135,81.68111000000135,81.68111000000135,81.68111000000135,81.68111000000135,81.68111000000135,81.68111000000135,,002,P017,2025_Mar_07_1642,CategoryLocalizer,2021.2.3,59.94287444050939,
33.0,33.8,2,0.75,Stimuli\ImageFiles-Set2\Bodies\Bodies_SittingChair_00002.png,0,0,0,43,43,43,,,,,,,,,,,,,33.011792199999036,0.011792199999035802,None,81.89798080000037,81.89798080000037,81.89798080000037,81.89798080000037,81.89798080000037,81.89798080000037,81.89798080000037,81.89798080000037,,002,P017,2025_Mar_07_1642,CategoryLocalizer,2021.2.3,59.94287444050939,
33.8,34.0,5,0.0,Stimuli\Blank.png,0,0,0,44,44,44,,,,,,,,,,,,,33.82847799999945,0.028477999999452663,None,82.69866940000065,82.69866940000065,82.69866940000065,82.69866940000065,82.69866940000065,82.69866940000065,82.69866940000065,82.69866940000065,,002,P017,2025_Mar_07_1642,CategoryLocalizer,2021.2.3,59.94287444050939,
34.0,34.8,2,0.75,Stimuli\ImageFiles-Set2\Bodies\Bodies_Standing_00006.png,0,0,0,45,45,45,,,,,,,,,,,,,34.0125240999987,0.012524099998699967,None,82.89884240000174,82.89884240000174,82.89884240000174,82.89884240000174,82.89884240000174,82.89884240000174,82.89884240000174,82.89884240000174,,002,P017,2025_Mar_07_1642,CategoryLocalizer,2021.2.3,59.94287444050939,
34.8,35.0,5,0.0,Stimuli\Blank.png,0,0,0,46,46,46,,,,,,,,,,,,,34.83216299999913,0.03216299999913019,None,83.71623800000089,83.71623800000089,83.71623800000089,83.71623800000089,83.71623800000089,83.71623800000089,83.71623800000089,83.71623800000089,,002,P017,2025_Mar_07_1642,CategoryLocalizer,2021.2.3,59.94287444050939,
35.0,35.8,2,0.75,Stimuli\ImageFiles-Set2\Bodies\Bodies_DownwardDog_00004.png,0,0,0,47,47,47,,,,,,,,,,,,,35.029559900001914,0.029559900001913775,None,83.9164294000002,83.9164294000002,83.9164294000002,83.9164294000002,83.9164294000002,83.9164294000002,83.9164294000002,83.9164294000002,,002,P017,2025_Mar_07_1642,CategoryLocalizer,2021.2.3,59.94287444050939,
35.8,36.0,5,0.0,Stimuli\Blank.png,0,0,0,48,48,48,,,,,,,,,,,,,35.83228610000151,0.03228610000151377,None,84.71712699999989,84.71712699999989,84.71712699999989,84.71712699999989,84.71712699999989,84.71712699999989,84.71712699999989,84.71712699999989,,002,P017,2025_Mar_07_1642,CategoryLocalizer,2021.2.3,59.94287444050939,
36.0,36.8,2,0.75,Stimuli\ImageFiles-Set2\Bodies\Bodies_SittingStretch_00003.png,0,0,0,49,49,49,,,,,,,,,,,,,36.0139350999998,0.013935099999798695,None,84.90062390000094,84.90062390000094,84.90062390000094,84.90062390000094,84.90062390000094,84.90062390000094,84.90062390000094,84.90062390000094,,002,P017,2025_Mar_07_1642,CategoryLocalizer,2021.2.3,59.94287444050939,
36.8,37.0,5,0.0,Stimuli\Blank.png,0,0,0,50,50,50,,,,,,,,,,,,,36.832097800001065,0.03209780000106832,None,85.7013365999992,85.7013365999992,85.7013365999992,85.7013365999992,85.7013365999992,85.7013365999992,85.7013365999992,85.7013365999992,,002,P017,2025_Mar_07_1642,CategoryLocalizer,2021.2.3,59.94287444050939,
37.0,37.8,2,0.75,Stimuli\ImageFiles-Set2\Bodies\Bodies_Walking_00005.png,1,1,0,51,51,51,,,,,,,,,,,,,37.014681100001326,0.01468110000132583,None,85.88482629999999,85.88482629999999,85.88482629999999,85.88482629999999,85.88482629999999,85.88482629999999,85.88482629999999,85.88482629999999,,002,P017,2025_Mar_07_1642,CategoryLocalizer,2021.2.3,59.94287444050939,
37.8,38.0,5,0.0,Stimuli\Blank.png,0,0,0,52,52,52,,,,,,,,,,,,,37.81812849999915,0.01812849999915045,None,86.7022203000015,86.7022203000015,86.7022203000015,86.7022203000015,86.7022203000015,86.7022203000015,86.7022203000015,86.7022203000015,,002,P017,2025_Mar_07_1642,CategoryLocalizer,2021.2.3,59.94287444050939,
38.0,38.8,2,0.75,Stimuli\ImageFiles-Set2\Bodies\Bodies_Kneeling_00006.png,0,0,0,53,53,53,,,,,,,,,,,,,38.01672210000106,0.016722100001061335,None,86.90239460000157,86.90239460000157,86.90239460000157,86.90239460000157,86.90239460000157,86.90239460000157,86.90239460000157,86.90239460000157,,002,P017,2025_Mar_07_1642,CategoryLocalizer,2021.2.3,59.94287444050939,
38.8,39.0,5,0.0,Stimuli\Blank.png,0,0,0,54,54,54,,,,,,,,,,,,,38.817135000001144,0.017135000001147205,None,87.6864299000008,87.6864299000008,87.6864299000008,87.6864299000008,87.6864299000008,87.6864299000008,87.6864299000008,87.6864299000008,,002,P017,2025_Mar_07_1642,CategoryLocalizer,2021.2.3,59.94287444050939,
39.0,39.8,2,0.75,Stimuli\ImageFiles-Set2\Bodies\Bodies_Kneeling_00006.png,0,0,0,55,55,55,,,,,,,,,,,,,38.99974669999938,-0.0002533000006224029,1,87.86990829999922,87.86990829999922,87.86990829999922,87.86990829999922,87.86990829999922,87.86990829999922,87.86990829999922,87.86990829999922,0.30853579999893554,002,P017,2025_Mar_07_1642,CategoryLocalizer,2021.2.3,59.94287444050939,
39.8,40.0,5,0.0,Stimuli\Blank.png,0,0,0,56,56,56,,,,,,,,,,,,,39.803669299999456,0.0036692999994585307,None,88.68727070000023,88.68727070000023,88.68727070000023,88.68727070000023,88.68727070000023,88.68727070000023,88.68727070000023,88.68727070000023,,002,P017,2025_Mar_07_1642,CategoryLocalizer,2021.2.3,59.94287444050939,
40.0,40.8,2,0.75,Stimuli\ImageFiles-Set2\Bodies\Bodies_SittingFloor_00002.png,0,0,0,57,57,57,,,,,,,,,,,,,40.01743840000199,0.017438400001992704,None,88.88748119999946,88.88748119999946,88.88748119999946,88.88748119999946,88.88748119999946,88.88748119999946,88.88748119999946,88.88748119999946,,002,P017,2025_Mar_07_1642,CategoryLocalizer,2021.2.3,59.94287444050939,
40.8,41.0,5,0.0,Stimuli\Blank.png,0,0,0,58,58,58,,,,,,,,,,,,,40.80197549999866,0.0019754999986645316,None,89.6715922000003,89.6715922000003,89.6715922000003,89.6715922000003,89.6715922000003,89.6715922000003,89.6715922000003,89.6715922000003,,002,P017,2025_Mar_07_1642,CategoryLocalizer,2021.2.3,59.94287444050939,
41.0,41.8,2,0.75,Stimuli\ImageFiles-Set2\Bodies\Bodies_Waving_00004.png,0,0,0,59,59,59,,,,,,,,,,,,,41.00171820000105,0.0017182000010507181,None,89.87168279999969,89.87168279999969,89.87168279999969,89.87168279999969,89.87168279999969,89.87168279999969,89.87168279999969,89.87168279999969,,002,P017,2025_Mar_07_1642,CategoryLocalizer,2021.2.3,59.94287444050939,
41.8,42.0,5,0.0,Stimuli\Blank.png,0,0,0,60,60,60,,,,,,,,,,,,,41.802858600000036,0.0028586000000387912,None,90.67239210000116,90.67239210000116,90.67239210000116,90.67239210000116,90.67239210000116,90.67239210000116,90.67239210000116,90.67239210000116,,002,P017,2025_Mar_07_1642,CategoryLocalizer,2021.2.3,59.94287444050939,
42.0,42.8,2,0.75,Stimuli\ImageFiles-Set2\Bodies\Bodies_Falling_00005.png,0,0,0,61,61,61,,,,,,,,,,,,,42.00356589999865,0.003565899998648092,None,90.87256569999954,90.87256569999954,90.87256569999954,90.87256569999954,90.87256569999954,90.87256569999954,90.87256569999954,90.87256569999954,,002,P017,2025_Mar_07_1642,CategoryLocalizer,2021.2.3,59.94287444050939,
42.8,43.0,5,0.0,Stimuli\Blank.png,0,0,0,62,62,62,,,,,,,,,,,,,42.80324399999881,0.0032439999988156387,None,91.67326239999966,91.67326239999966,91.67326239999966,91.67326239999966,91.67326239999966,91.67326239999966,91.67326239999966,91.67326239999966,,002,P017,2025_Mar_07_1642,CategoryLocalizer,2021.2.3,59.94287444050939,
43.0,43.8,2,0.75,Stimuli\ImageFiles-Set2\Bodies\Bodies_Pushing_00006.png,0,0,0,63,63,63,,,,,,,,,,,,,43.00337220000074,0.003372200000740122,None,91.87344420000227,91.87344420000227,91.87344420000227,91.87344420000227,91.87344420000227,91.87344420000227,91.87344420000227,91.87344420000227,,002,P017,2025_Mar_07_1642,CategoryLocalizer,2021.2.3,59.94287444050939,
43.8,44.0,5,0.0,Stimuli\Blank.png,0,0,0,64,64,64,,,,,,,,,,,,,43.80485559999943,0.004855599999430638,None,92.6741299000023,92.6741299000023,92.6741299000023,92.6741299000023,92.6741299000023,92.6741299000023,92.6741299000023,92.6741299000023,,002,P017,2025_Mar_07_1642,CategoryLocalizer,2021.2.3,59.94287444050939,
44.0,44.8,3,0.75,Stimuli\ImageFiles-Set2\Faces\Face_00118.png,0,0,0,65,65,65,,,,,,,,,,,,,44.00434250000035,0.004342500000348082,None,92.87432330000229,92.87432330000229,92.87432330000229,92.87432330000229,92.87432330000229,92.87432330000229,92.87432330000229,92.87432330000229,,002,P017,2025_Mar_07_1642,CategoryLocalizer,2021.2.3,59.94287444050939,
44.8,45.0,5,0.0,Stimuli\Blank.png,0,0,0,66,66,66,,,,,,,,,,,,,44.805543400001625,0.005543400001627674,None,93.6750486000019,93.6750486000019,93.6750486000019,93.6750486000019,93.6750486000019,93.6750486000019,93.6750486000019,93.6750486000019,,002,P017,2025_Mar_07_1642,CategoryLocalizer,2021.2.3,59.94287444050939,
45.0,45.8,3,0.75,Stimuli\ImageFiles-Set2\Faces\Face_00015.png,0,0,0,67,67,67,,,,,,,,,,,,,45.00500850000026,0.005008500000258209,None,93.87521449999986,93.87521449999986,93.87521449999986,93.87521449999986,93.87521449999986,93.87521449999986,93.87521449999986,93.87521449999986,,002,P017,2025_Mar_07_1642,CategoryLocalizer,2021.2.3,59.94287444050939,
45.8,46.0,5,0.0,Stimuli\Blank.png,0,0,0,68,68,68,,,,,,,,,,,,,45.80671010000151,0.006710100001512842,None,94.67593630000192,94.67593630000192,94.67593630000192,94.67593630000192,94.67593630000192,94.67593630000192,94.67593630000192,94.67593630000192,,002,P017,2025_Mar_07_1642,CategoryLocalizer,2021.2.3,59.94287444050939,
46.0,46.8,3,0.75,Stimuli\ImageFiles-Set2\Faces\Face_00116.png,0,0,0,69,69,69,,,,,,,,,,,,,46.00672660000055,0.006726600000547478,None,94.87610530000165,94.87610530000165,94.87610530000165,94.87610530000165,94.87610530000165,94.87610530000165,94.87610530000165,94.87610530000165,,002,P017,2025_Mar_07_1642,CategoryLocalizer,2021.2.3,59.94287444050939,
46.8,47.0,5,0.0,Stimuli\Blank.png,0,0,0,70,70,70,,,,,,,,,,,,,46.806889200001024,0.006889200001026552,None,95.67680920000203,95.67680920000203,95.67680920000203,95.67680920000203,95.67680920000203,95.67680920000203,95.67680920000203,95.67680920000203,,002,P017,2025_Mar_07_1642,CategoryLocalizer,2021.2.3,59.94287444050939,
47.0,47.8,3,0.75,Stimuli\ImageFiles-Set2\Faces\Face_00032.png,0,0,0,71,71,71,,,,,,,,,,,,,47.00802939999994,0.008029399999941234,None,95.89368090000062,95.89368090000062,95.89368090000062,95.89368090000062,95.89368090000062,95.89368090000062,95.89368090000062,95.89368090000062,,002,P017,2025_Mar_07_1642,CategoryLocalizer,2021.2.3,59.94287444050939,
47.8,48.0,5,0.0,Stimuli\Blank.png,0,0,0,72,72,72,,,,,,,,,,,,,47.82417559999885,0.024175599998855546,None,96.69437960000141,96.69437960000141,96.69437960000141,96.69437960000141,96.69437960000141,96.69437960000141,96.69437960000141,96.69437960000141,,002,P017,2025_Mar_07_1642,CategoryLocalizer,2021.2.3,59.94287444050939,
48.0,48.8,3,0.75,Stimuli\ImageFiles-Set2\Faces\Face_00011.png,0,0,0,73,73,73,,,,,,,,,,,,,48.00827410000056,0.008274100000562612,None,96.89456620000055,96.89456620000055,96.89456620000055,96.89456620000055,96.89456620000055,96.89456620000055,96.89456620000055,96.89456620000055,,002,P017,2025_Mar_07_1642,CategoryLocalizer,2021.2.3,59.94287444050939,
48.8,49.0,5,0.0,Stimuli\Blank.png,0,0,0,74,74,74,,,,,,,,,,,,,48.82667460000084,0.026674600000845317,None,97.69527780000135,97.69527780000135,97.69527780000135,97.69527780000135,97.69527780000135,97.69527780000135,97.69527780000135,97.69527780000135,,002,P017,2025_Mar_07_1642,CategoryLocalizer,2021.2.3,59.94287444050939,
49.0,49.8,3,0.75,Stimuli\ImageFiles-Set2\Faces\Face_00008.png,0,0,0,75,75,75,,,,,,,,,,,,,49.00925850000203,0.009258500002033543,None,97.87876020000112,97.87876020000112,97.87876020000112,97.87876020000112,97.87876020000112,97.87876020000112,97.87876020000112,97.87876020000112,,002,P017,2025_Mar_07_1642,CategoryLocalizer,2021.2.3,59.94287444050939,
49.8,50.0,5,0.0,Stimuli\Blank.png,0,0,0,76,76,76,,,,,,,,,,,,,49.80922450000071,0.00922450000071251,None,98.67946750000192,98.67946750000192,98.67946750000192,98.67946750000192,98.67946750000192,98.67946750000192,98.67946750000192,98.67946750000192,,002,P017,2025_Mar_07_1642,CategoryLocalizer,2021.2.3,59.94287444050939,
50.0,50.8,3,0.75,Stimuli\ImageFiles-Set2\Faces\Face_00002.png,0,0,0,77,77,77,,,,,,,,,,,,,50.010129099999176,0.010129099999176105,None,98.87963880000098,98.87963880000098,98.87963880000098,98.87963880000098,98.87963880000098,98.87963880000098,98.87963880000098,98.87963880000098,,002,P017,2025_Mar_07_1642,CategoryLocalizer,2021.2.3,59.94287444050939,
50.8,51.0,5,0.0,Stimuli\Blank.png,0,0,0,78,78,78,,,,,,,,,,,,,50.81163219999871,0.01163219999871501,None,99.68036750000101,99.68036750000101,99.68036750000101,99.68036750000101,99.68036750000101,99.68036750000101,99.68036750000101,99.68036750000101,,002,P017,2025_Mar_07_1642,CategoryLocalizer,2021.2.3,59.94287444050939,
51.0,51.8,3,0.75,Stimuli\ImageFiles-Set2\Faces\Face_00017.png,0,0,0,79,79,79,,,,,,,,,,,,,51.0125564000009,0.012556400000903523,None,99.89721099999952,99.89721099999952,99.89721099999952,99.89721099999952,99.89721099999952,99.89721099999952,99.89721099999952,99.89721099999952,,002,P017,2025_Mar_07_1642,CategoryLocalizer,2021.2.3,59.94287444050939,
51.8,52.0,5,0.0,Stimuli\Blank.png,0,0,0,80,80,80,,,,,,,,,,,,,51.827777499998774,0.02777749999877699,None,100.69792360000065,100.69792360000065,100.69792360000065,100.69792360000065,100.69792360000065,100.69792360000065,100.69792360000065,100.69792360000065,,002,P017,2025_Mar_07_1642,CategoryLocalizer,2021.2.3,59.94287444050939,
52.0,52.8,3,0.75,Stimuli\ImageFiles-Set2\Faces\Face_00098.png,0,0,0,81,81,81,,,,,,,,,,,,,52.01210120000178,0.012101200001779944,None,100.89809289999903,100.89809289999903,100.89809289999903,100.89809289999903,100.89809289999903,100.89809289999903,100.89809289999903,100.89809289999903,,002,P017,2025_Mar_07_1642,CategoryLocalizer,2021.2.3,59.94287444050939,
52.8,53.0,5,0.0,Stimuli\Blank.png,0,0,0,82,82,82,,,,,,,,,,,,,52.828689900001336,0.028689900001339197,None,101.6988038999989,101.6988038999989,101.6988038999989,101.6988038999989,101.6988038999989,101.6988038999989,101.6988038999989,101.6988038999989,,002,P017,2025_Mar_07_1642,CategoryLocalizer,2021.2.3,59.94287444050939,
53.0,53.8,3,0.75,Stimuli\ImageFiles-Set2\Faces\Face_00098.png,1,1,0,83,83,83,,,,,,,,,,,,,53.01277549999941,0.012775499999406748,1,101.89897860000201,101.89897860000201,101.89897860000201,101.89897860000201,101.89897860000201,101.89897860000201,101.89897860000201,101.89897860000201,0.3644017000005988,002,P017,2025_Mar_07_1642,CategoryLocalizer,2021.2.3,59.94287444050939,
53.8,54.0,5,0.0,Stimuli\Blank.png,0,0,0,84,84,84,,,,,,,,,,,,,53.83007440000074,0.030074400000742685,None,102.69968499999959,102.69968499999959,102.69968499999959,102.69968499999959,102.69968499999959,102.69968499999959,102.69968499999959,102.69968499999959,,002,P017,2025_Mar_07_1642,CategoryLocalizer,2021.2.3,59.94287444050939,
54.0,54.8,3,0.75,Stimuli\ImageFiles-Set2\Faces\Face_00019.png,0,0,0,85,85,85,,,,,,,,,,,,,54.01313819999996,0.013138199999957578,None,102.89989050000077,102.89989050000077,102.89989050000077,102.89989050000077,102.89989050000077,102.89989050000077,102.89989050000077,102.89989050000077,,002,P017,2025_Mar_07_1642,CategoryLocalizer,2021.2.3,59.94287444050939,
54.8,55.0,5,0.0,Stimuli\Blank.png,0,0,0,86,86,86,,,,,,,,,,,,,54.83289230000082,0.03289230000082455,None,103.7172810000011,103.7172810000011,103.7172810000011,103.7172810000011,103.7172810000011,103.7172810000011,103.7172810000011,103.7172810000011,,002,P017,2025_Mar_07_1642,CategoryLocalizer,2021.2.3,59.94287444050939,
55.0,55.8,3,0.75,Stimuli\ImageFiles-Set2\Faces\Face_00070.png,0,0,0,87,87,87,,,,,,,,,,,,,55.013990499999636,0.013990499999636086,None,103.88406050000049,103.88406050000049,103.88406050000049,103.88406050000049,103.88406050000049,103.88406050000049,103.88406050000049,103.88406050000049,,002,P017,2025_Mar_07_1642,CategoryLocalizer,2021.2.3,59.94287444050939,
55.8,56.0,5,0.0,Stimuli\Blank.png,0,0,0,88,88,88,,,,,,,,,,,,,55.814689499999076,0.014689499999079203,None,104.68477799999891,104.68477799999891,104.68477799999891,104.68477799999891,104.68477799999891,104.68477799999891,104.68477799999891,104.68477799999891,,002,P017,2025_Mar_07_1642,CategoryLocalizer,2021.2.3,59.94287444050939,
56.0,56.8,3,0.75,Stimuli\ImageFiles-Set2\Faces\Face_00086.png,0,0,0,89,89,89,,,,,,,,,,,,,56.0149405000011,0.014940500001102919,None,104.88495730000068,104.88495730000068,104.88495730000068,104.88495730000068,104.88495730000068,104.88495730000068,104.88495730000068,104.88495730000068,,002,P017,2025_Mar_07_1642,CategoryLocalizer,2021.2.3,59.94287444050939,
56.8,57.0,5,0.0,Stimuli\Blank.png,0,0,0,90,90,90,,,,,,,,,,,,,56.81847299999936,0.018472999999360695,None,105.70234379999965,105.70234379999965,105.70234379999965,105.70234379999965,105.70234379999965,105.70234379999965,105.70234379999965,105.70234379999965,,002,P017,2025_Mar_07_1642,CategoryLocalizer,2021.2.3,59.94287444050939,
57.0,57.8,3,0.75,Stimuli\ImageFiles-Set2\Faces\Face_00064.png,0,0,0,91,91,91,,,,,,,,,,,,,57.017328500001895,0.01732850000189501,None,105.90252250000049,105.90252250000049,105.90252250000049,105.90252250000049,105.90252250000049,105.90252250000049,105.90252250000049,105.90252250000049,,002,P017,2025_Mar_07_1642,CategoryLocalizer,2021.2.3,59.94287444050939,
57.8,58.0,5,0.0,Stimuli\Blank.png,0,0,0,92,92,92,,,,,,,,,,,,,57.81633409999995,0.016334099999951945,None,106.68658660000074,106.68658660000074,106.68658660000074,106.68658660000074,106.68658660000074,106.68658660000074,106.68658660000074,106.68658660000074,,002,P017,2025_Mar_07_1642,CategoryLocalizer,2021.2.3,59.94287444050939,
58.0,58.8,3,0.75,Stimuli\ImageFiles-Set2\Faces\Face_00036.png,0,0,0,93,93,93,,,,,,,,,,,,,58.000151799999,0.00015179999900283292,None,106.8700729000011,106.8700729000011,106.8700729000011,106.8700729000011,106.8700729000011,106.8700729000011,106.8700729000011,106.8700729000011,,002,P017,2025_Mar_07_1642,CategoryLocalizer,2021.2.3,59.94287444050939,
58.8,59.0,5,0.0,Stimuli\Blank.png,0,0,0,94,94,94,,,,,,,,,,,,,58.80117999999857,0.0011799999985697696,None,107.67084460000115,107.67084460000115,107.67084460000115,107.67084460000115,107.67084460000115,107.67084460000115,107.67084460000115,107.67084460000115,,002,P017,2025_Mar_07_1642,CategoryLocalizer,2021.2.3,59.94287444050939,
59.0,59.8,3,0.75,Stimuli\ImageFiles-Set2\Faces\Face_00062.png,0,0,0,95,95,95,,,,,,,,,,,,,59.001535800001875,0.0015358000018750317,None,107.8709755000018,107.8709755000018,107.8709755000018,107.8709755000018,107.8709755000018,107.8709755000018,107.8709755000018,107.8709755000018,,002,P017,2025_Mar_07_1642,CategoryLocalizer,2021.2.3,59.94287444050939,
59.8,60.0,5,0.0,Stimuli\Blank.png,0,0,0,96,96,96,,,,,,,,,,,,,59.802510299999994,0.002510299999997301,None,108.67162979999921,108.67162979999921,108.67162979999921,108.67162979999921,108.67162979999921,108.67162979999921,108.67162979999921,108.67162979999921,,002,P017,2025_Mar_07_1642,CategoryLocalizer,2021.2.3,59.94287444050939,
60.0,60.8,4,0.75,Stimuli\ImageFiles-Set2\Scenes\Scenes_102.png,0,0,0,97,97,97,,,,,,,,,,,,,60.00207809999847,0.0020780999984708615,None,108.88851540000178,108.88851540000178,108.88851540000178,108.88851540000178,108.88851540000178,108.88851540000178,108.88851540000178,108.88851540000178,,002,P017,2025_Mar_07_1642,CategoryLocalizer,2021.2.3,59.94287444050939,
60.8,61.0,5,0.0,Stimuli\Blank.png,0,0,0,98,98,98,,,,,,,,,,,,,60.81970260000162,0.019702600001622272,None,109.68920490000164,109.68920490000164,109.68920490000164,109.68920490000164,109.68920490000164,109.68920490000164,109.68920490000164,109.68920490000164,,002,P017,2025_Mar_07_1642,CategoryLocalizer,2021.2.3,59.94287444050939,
61.0,61.8,4,0.75,Stimuli\ImageFiles-Set2\Scenes\Scenes_117.png,0,0,0,99,99,99,,,,,,,,,,,,,61.00307669999893,0.003076699998928234,None,109.88937110000188,109.88937110000188,109.88937110000188,109.88937110000188,109.88937110000188,109.88937110000188,109.88937110000188,109.88937110000188,,002,P017,2025_Mar_07_1642,CategoryLocalizer,2021.2.3,59.94287444050939,
61.8,62.0,5,0.0,Stimuli\Blank.png,0,0,0,100,100,100,,,,,,,,,,,,,61.82066549999945,0.020665499999452663,None,110.69008970000141,110.69008970000141,110.69008970000141,110.69008970000141,110.69008970000141,110.69008970000141,110.69008970000141,110.69008970000141,,002,P017,2025_Mar_07_1642,CategoryLocalizer,2021.2.3,59.94287444050939,
62.0,62.8,4,0.75,Stimuli\ImageFiles-Set2\Scenes\Scenes_083.png,0,0,0,101,101,101,,,,,,,,,,,,,62.00409280000167,0.004092800001672003,None,110.89025709999987,110.89025709999987,110.89025709999987,110.89025709999987,110.89025709999987,110.89025709999987,110.89025709999987,110.89025709999987,,002,P017,2025_Mar_07_1642,CategoryLocalizer,2021.2.3,59.94287444050939,
62.8,63.0,5,0.0,Stimuli\Blank.png,0,0,0,102,102,102,,,,,,,,,,,,,62.82244759999958,0.022447599999580348,None,111.7076526000019,111.7076526000019,111.7076526000019,111.7076526000019,111.7076526000019,111.7076526000019,111.7076526000019,111.7076526000019,,002,P017,2025_Mar_07_1642,CategoryLocalizer,2021.2.3,59.94287444050939,
63.0,63.8,4,0.75,Stimuli\ImageFiles-Set2\Scenes\Scenes_116.png,0,0,0,103,103,103,,,,,,,,,,,,,63.021643299998686,0.021643299998686416,None,111.90782740000213,111.90782740000213,111.90782740000213,111.90782740000213,111.90782740000213,111.90782740000213,111.90782740000213,111.90782740000213,,002,P017,2025_Mar_07_1642,CategoryLocalizer,2021.2.3,59.94287444050939,
63.8,64.0,5,0.0,Stimuli\Blank.png,0,0,0,104,104,104,,,,,,,,,,,,,63.82263719999901,0.022637199999010704,None,112.69186020000052,112.69186020000052,112.69186020000052,112.69186020000052,112.69186020000052,112.69186020000052,112.69186020000052,112.69186020000052,,002,P017,2025_Mar_07_1642,CategoryLocalizer,2021.2.3,59.94287444050939,
64.0,64.8,4,0.75,Stimuli\ImageFiles-Set2\Scenes\Scenes_116.png,1,1,0,105,105,105,,,,,,,,,,,,,64.00511449999976,0.005114499999763211,1,112.87533970000004,112.87533970000004,112.87533970000004,112.87533970000004,112.87533970000004,112.87533970000004,112.87533970000004,112.87533970000004,0.45812040000237175,002,P017,2025_Mar_07_1642,CategoryLocalizer,2021.2.3,59.94287444050939,
64.8,65.0,5,0.0,Stimuli\Blank.png,0,0,0,106,106,106,,,,,,,,,,,,,64.80843520000053,0.008435200000533882,None,113.6927496999997,113.6927496999997,113.6927496999997,113.6927496999997,113.6927496999997,113.6927496999997,113.6927496999997,113.6927496999997,,002,P017,2025_Mar_07_1642,CategoryLocalizer,2021.2.3,59.94287444050939,
65.0,65.8,4,0.75,Stimuli\ImageFiles-Set2\Scenes\Scenes_094.png,0,0,0,107,107,107,,,,,,,,,,,,,65.02291160000095,0.022911600000952603,None,113.90961489999972,113.90961489999972,113.90961489999972,113.90961489999972,113.90961489999972,113.90961489999972,113.90961489999972,113.90961489999972,,002,P017,2025_Mar_07_1642,CategoryLocalizer,2021.2.3,59.94287444050939,
65.8,66.0,5,0.0,Stimuli\Blank.png,0,0,0,108,108,108,,,,,,,,,,,,,65.82354159999886,0.023541599998864626,None,114.6936194000009,114.6936194000009,114.6936194000009,114.6936194000009,114.6936194000009,114.6936194000009,114.6936194000009,114.6936194000009,,002,P017,2025_Mar_07_1642,CategoryLocalizer,2021.2.3,59.94287444050939,
66.0,66.8,4,0.75,Stimuli\ImageFiles-Set2\Scenes\Scenes_074.png,0,0,0,109,109,109,,,,,,,,,,,,,66.0083068999993,0.008306899999297457,None,114.89381080000021,114.89381080000021,114.89381080000021,114.89381080000021,114.89381080000021,114.89381080000021,114.89381080000021,114.89381080000021,,002,P017,2025_Mar_07_1642,CategoryLocalizer,2021.2.3,59.94287444050939,
66.8,67.0,5,0.0,Stimuli\Blank.png,0,0,0,110,110,110,,,,,,,,,,,,,66.82447179999872,0.02447179999872162,None,115.694475100001,115.694475100001,115.694475100001,115.694475100001,115.694475100001,115.694475100001,115.694475100001,115.694475100001,,002,P017,2025_Mar_07_1642,CategoryLocalizer,2021.2.3,59.94287444050939,
67.0,67.8,4,0.75,Stimuli\ImageFiles-Set2\Scenes\Scenes_111.png,0,0,0,111,111,111,,,,,,,,,,,,,67.00779379999949,0.0077937999994901475,None,115.89470910000091,115.89470910000091,115.89470910000091,115.89470910000091,115.89470910000091,115.89470910000091,115.89470910000091,115.89470910000091,,002,P017,2025_Mar_07_1642,CategoryLocalizer,2021.2.3,59.94287444050939,
67.8,68.0,5,0.0,Stimuli\Blank.png,0,0,0,112,112,112,,,,,,,,,,,,,67.82765139999901,0.02765139999901578,None,116.71211920000133,116.71211920000133,116.71211920000133,116.71211920000133,116.71211920000133,116.71211920000133,116.71211920000133,116.71211920000133,,002,P017,2025_Mar_07_1642,CategoryLocalizer,2021.2.3,59.94287444050939,
68.0,68.8,4,0.75,Stimuli\ImageFiles-Set2\Scenes\Scenes_086.png,1,1,0,113,113,113,,,,,,,,,,,,,68.02725170000122,0.027251700001215795,None,116.91225330000088,116.91225330000088,116.91225330000088,116.91225330000088,116.91225330000088,116.91225330000088,116.91225330000088,116.91225330000088,,002,P017,2025_Mar_07_1642,CategoryLocalizer,2021.2.3,59.94287444050939,
68.8,69.0,5,0.0,Stimuli\Blank.png,0,0,0,114,114,114,,,,,,,,,,,,,68.82664049999948,0.026640499999487588,None,117.69628179999927,117.69628179999927,117.69628179999927,117.69628179999927,117.69628179999927,117.69628179999927,117.69628179999927,117.69628179999927,,002,P017,2025_Mar_07_1642,CategoryLocalizer,2021.2.3,59.94287444050939,
69.0,69.8,4,0.75,Stimuli\ImageFiles-Set2\Scenes\Scenes_063.png,0,0,0,115,115,115,,,,,,,,,,,,,69.01218100000187,0.012181000001874054,None,117.89646609999909,117.89646609999909,117.89646609999909,117.89646609999909,117.89646609999909,117.89646609999909,117.89646609999909,117.89646609999909,,002,P017,2025_Mar_07_1642,CategoryLocalizer,2021.2.3,59.94287444050939,
69.8,70.0,5,0.0,Stimuli\Blank.png,0,0,0,116,116,116,,,,,,,,,,,,,69.82813460000034,0.028134600000342402,None,118.69717859999946,118.69717859999946,118.69717859999946,118.69717859999946,118.69717859999946,118.69717859999946,118.69717859999946,118.69717859999946,,002,P017,2025_Mar_07_1642,CategoryLocalizer,2021.2.3,59.94287444050939,
70.0,70.8,4,0.75,Stimuli\ImageFiles-Set2\Scenes\Scenes_063.png,0,0,0,117,117,117,,,,,,,,,,,,,70.01089810000121,0.010898100001213606,1,118.88065750000169,118.88065750000169,118.88065750000169,118.88065750000169,118.88065750000169,118.88065750000169,118.88065750000169,118.88065750000169,0.383728599997994,002,P017,2025_Mar_07_1642,CategoryLocalizer,2021.2.3,59.94287444050939,
70.8,71.0,5,0.0,Stimuli\Blank.png,0,0,0,118,118,118,,,,,,,,,,,,,70.81213299999945,0.0121329999994515,None,119.68137349999961,119.68137349999961,119.68137349999961,119.68137349999961,119.68137349999961,119.68137349999961,119.68137349999961,119.68137349999961,,002,P017,2025_Mar_07_1642,CategoryLocalizer,2021.2.3,59.94287444050939,
71.0,71.8,4,0.75,Stimuli\ImageFiles-Set2\Scenes\Scenes_076.png,0,0,0,119,119,119,,,,,,,,,,,,,71.01241999999911,0.012419999999110587,None,119.8982204999993,119.8982204999993,119.8982204999993,119.8982204999993,119.8982204999993,119.8982204999993,119.8982204999993,119.8982204999993,,002,P017,2025_Mar_07_1642,CategoryLocalizer,2021.2.3,59.94287444050939,
71.8,72.0,5,0.0,Stimuli\Blank.png,0,0,0,120,120,120,,,,,,,,,,,,,71.8288672000017,0.028867200001698734,None,120.69892909999908,120.69892909999908,120.69892909999908,120.69892909999908,120.69892909999908,120.69892909999908,120.69892909999908,120.69892909999908,,002,P017,2025_Mar_07_1642,CategoryLocalizer,2021.2.3,59.94287444050939,
72.0,72.8,4,0.75,Stimuli\ImageFiles-Set2\Scenes\Scenes_075.png,0,0,0,121,121,121,,,,,,,,,,,,,72.01226790000146,0.012267900001461385,None,120.88241930000004,120.88241930000004,120.88241930000004,120.88241930000004,120.88241930000004,120.88241930000004,120.88241930000004,120.88241930000004,,002,P017,2025_Mar_07_1642,CategoryLocalizer,2021.2.3,59.94287444050939,
72.8,73.0,5,0.0,Stimuli\Blank.png,0,0,0,122,122,122,,,,,,,,,,,,,72.81305470000007,0.01305470000006892,None,121.68313320000016,121.68313320000016,121.68313320000016,121.68313320000016,121.68313320000016,121.68313320000016,121.68313320000016,121.68313320000016,,002,P017,2025_Mar_07_1642,CategoryLocalizer,2021.2.3,59.94287444050939,
73.0,73.8,4,0.75,Stimuli\ImageFiles-Set2\Scenes\Scenes_071.png,0,0,0,123,123,123,,,,,,,,,,,,,73.01393209999878,0.013932099998783087,None,121.89999150000222,121.89999150000222,121.89999150000222,121.89999150000222,121.89999150000222,121.89999150000222,121.89999150000222,121.89999150000222,,002,P017,2025_Mar_07_1642,CategoryLocalizer,2021.2.3,59.94287444050939,
73.8,74.0,5,0.0,Stimuli\Blank.png,0,0,0,124,124,124,,,,,,,,,,,,,73.83229380000193,0.03229380000193771,None,122.71740370000043,122.71740370000043,122.71740370000043,122.71740370000043,122.71740370000043,122.71740370000043,122.71740370000043,122.71740370000043,,002,P017,2025_Mar_07_1642,CategoryLocalizer,2021.2.3,59.94287444050939,
74.0,74.8,4,0.75,Stimuli\ImageFiles-Set2\Scenes\Scenes_064.png,0,0,0,125,125,125,,,,,,,,,,,,,74.01404240000193,0.01404240000192658,None,122.90088960000139,122.90088960000139,122.90088960000139,122.90088960000139,122.90088960000139,122.90088960000139,122.90088960000139,122.90088960000139,,002,P017,2025_Mar_07_1642,CategoryLocalizer,2021.2.3,59.94287444050939,
74.8,75.0,5,0.0,Stimuli\Blank.png,0,0,0,126,126,126,,,,,,,,,,,,,74.83138300000064,0.031383000000644756,None,123.70163289999982,123.70163289999982,123.70163289999982,123.70163289999982,123.70163289999982,123.70163289999982,123.70163289999982,123.70163289999982,,002,P017,2025_Mar_07_1642,CategoryLocalizer,2021.2.3,59.94287444050939,
75.0,75.8,4,0.75,Stimuli\ImageFiles-Set2\Scenes\Scenes_100.png,0,0,0,127,127,127,,,,,,,,,,,,,75.01479449999897,0.014794499998970423,None,123.88508410000213,123.88508410000213,123.88508410000213,123.88508410000213,123.88508410000213,123.88508410000213,123.88508410000213,123.88508410000213,,002,P017,2025_Mar_07_1642,CategoryLocalizer,2021.2.3,59.94287444050939,
75.8,76.0,5,0.0,Stimuli\Blank.png,0,0,0,128,128,128,,,,,,,,,,,,,75.81675990000076,0.016759900000764105,None,124.68576120000216,124.68576120000216,124.68576120000216,124.68576120000216,124.68576120000216,124.68576120000216,124.68576120000216,124.68576120000216,,002,P017,2025_Mar_07_1642,CategoryLocalizer,2021.2.3,59.94287444050939,
76.0,88.0,0,0.0,Stimuli\Blank.png,0,0,0,129,129,129,,,,,,,,,,,,,76.00009130000035,9.130000034929253e-05,None,124.86928140000236,124.86928140000236,124.86928140000236,124.86928140000236,124.86928140000236,124.86928140000236,124.86928140000236,124.86928140000236,,002,P017,2025_Mar_07_1642,CategoryLocalizer,2021.2.3,59.94287444050939,
88.0,88.8,3,0.75,Stimuli\ImageFiles-Set2\Faces\Face_00092.png,0,0,0,130,130,130,,,,,,,,,,,,,88.00982959999965,0.009829599999648053,None,136.87989980000202,136.87989980000202,136.87989980000202,136.87989980000202,136.87989980000202,136.87989980000202,136.87989980000202,136.87989980000202,,002,P017,2025_Mar_07_1642,CategoryLocalizer,2021.2.3,59.94287444050939,
88.8,89.0,5,0.0,Stimuli\Blank.png,0,0,0,131,131,131,,,,,,,,,,,,,88.81154070000048,0.011540700000480797,None,137.6806112000013,137.6806112000013,137.6806112000013,137.6806112000013,137.6806112000013,137.6806112000013,137.6806112000013,137.6806112000013,,002,P017,2025_Mar_07_1642,CategoryLocalizer,2021.2.3,59.94287444050939,
89.0,89.8,3,0.75,Stimuli\ImageFiles-Set2\Faces\Face_00112.png,0,0,0,132,132,132,,,,,,,,,,,,,89.01305779999893,0.013057799998932751,None,137.8974789999993,137.8974789999993,137.8974789999993,137.8974789999993,137.8974789999993,137.8974789999993,137.8974789999993,137.8974789999993,,002,P017,2025_Mar_07_1642,CategoryLocalizer,2021.2.3,59.94287444050939,
89.8,90.0,5,0.0,Stimuli\Blank.png,0,0,0,133,133,133,,,,,,,,,,,,,89.82879260000118,0.028792600001182223,None,138.69817350000085,138.69817350000085,138.69817350000085,138.69817350000085,138.69817350000085,138.69817350000085,138.69817350000085,138.69817350000085,,002,P017,2025_Mar_07_1642,CategoryLocalizer,2021.2.3,59.94287444050939,
90.0,90.8,3,0.75,Stimuli\ImageFiles-Set2\Faces\Face_00108.png,0,0,0,134,134,134,,,,,,,,,,,,,90.01254289999997,0.012542899999971269,None,138.8984246,138.8984246,138.8984246,138.8984246,138.8984246,138.8984246,138.8984246,138.8984246,,002,P017,2025_Mar_07_1642,CategoryLocalizer,2021.2.3,59.94287444050939,
90.8,91.0,5,0.0,Stimuli\Blank.png,0,0,0,135,135,135,,,,,,,,,,,,,90.82889290000094,0.028892900000940358,None,139.69907120000062,139.69907120000062,139.69907120000062,139.69907120000062,139.69907120000062,139.69907120000062,139.69907120000062,139.69907120000062,,002,P017,2025_Mar_07_1642,CategoryLocalizer,2021.2.3,59.94287444050939,
91.0,91.8,3,0.75,Stimuli\ImageFiles-Set2\Faces\Face_00046.png,0,0,0,136,136,136,,,,,,,,,,,,,91.01295440000104,0.012954400001035538,None,139.8992313000017,139.8992313000017,139.8992313000017,139.8992313000017,139.8992313000017,139.8992313000017,139.8992313000017,139.8992313000017,,002,P017,2025_Mar_07_1642,CategoryLocalizer,2021.2.3,59.94287444050939,
91.8,92.0,5,0.0,Stimuli\Blank.png,0,0,0,137,137,137,,,,,,,,,,,,,91.8298446000008,0.029844600000799915,None,140.69994230000157,140.69994230000157,140.69994230000157,140.69994230000157,140.69994230000157,140.69994230000157,140.69994230000157,140.69994230000157,,002,P017,2025_Mar_07_1642,CategoryLocalizer,2021.2.3,59.94287444050939,
92.0,92.8,3,0.75,Stimuli\ImageFiles-Set2\Faces\Face_00046.png,1,1,0,138,138,138,,,,,,,,,,,,,92.01398590000099,0.013985900000989204,1,140.90014109999902,140.90014109999902,140.90014109999902,140.90014109999902,140.90014109999902,140.90014109999902,140.90014109999902,140.90014109999902,0.4543640999982017,002,P017,2025_Mar_07_1642,CategoryLocalizer,2021.2.3,59.94287444050939,
92.8,93.0,5,0.0,Stimuli\Blank.png,0,0,0,139,139,139,,,,,,,,,,,,,92.83085180000126,0.03085180000125831,None,141.70083410000007,141.70083410000007,141.70083410000007,141.70083410000007,141.70083410000007,141.70083410000007,141.70083410000007,141.70083410000007,,002,P017,2025_Mar_07_1642,CategoryLocalizer,2021.2.3,59.94287444050939,
93.0,93.8,3,0.75,Stimuli\ImageFiles-Set2\Faces\Face_00094.png,0,0,0,140,140,140,,,,,,,,,,,,,93.01421090000076,0.014210900000762194,None,141.8843287999989,141.8843287999989,141.8843287999989,141.8843287999989,141.8843287999989,141.8843287999989,141.8843287999989,141.8843287999989,,002,P017,2025_Mar_07_1642,CategoryLocalizer,2021.2.3,59.94287444050939,
93.8,94.0,5,0.0,Stimuli\Blank.png,0,0,0,141,141,141,,,,,,,,,,,,,93.81818030000068,0.018180300000679495,None,142.70169170000008,142.70169170000008,142.70169170000008,142.70169170000008,142.70169170000008,142.70169170000008,142.70169170000008,142.70169170000008,,002,P017,2025_Mar_07_1642,CategoryLocalizer,2021.2.3,59.94287444050939,
94.0,94.8,3,0.75,Stimuli\ImageFiles-Set2\Faces\Face_00021.png,0,0,0,142,142,142,,,,,,,,,,,,,94.01747569999861,0.01747569999861298,None,142.90188820000185,142.90188820000185,142.90188820000185,142.90188820000185,142.90188820000185,142.90188820000185,142.90188820000185,142.90188820000185,,002,P017,2025_Mar_07_1642,CategoryLocalizer,2021.2.3,59.94287444050939,
94.8,95.0,5,0.0,Stimuli\Blank.png,0,0,0,143,143,143,,,,,,,,,,,,,94.81665340000109,0.016653400001089835,None,143.68596940000134,143.68596940000134,143.68596940000134,143.68596940000134,143.68596940000134,143.68596940000134,143.68596940000134,143.68596940000134,,002,P017,2025_Mar_07_1642,CategoryLocalizer,2021.2.3,59.94287444050939,
95.0,95.8,3,0.75,Stimuli\ImageFiles-Set2\Faces\Face_00110.png,0,0,0,144,144,144,,,,,,,,,,,,,94.99991420000151,-8.579999848734587e-05,None,143.87000230000194,143.87000230000194,143.87000230000194,143.87000230000194,143.87000230000194,143.87000230000194,143.87000230000194,143.87000230000194,,002,P017,2025_Mar_07_1642,CategoryLocalizer,2021.2.3,59.94287444050939,
95.8,96.0,5,0.0,Stimuli\Blank.png,0,0,0,145,145,145,,,,,,,,,,,,,95.80245669999931,0.0024566999993140826,None,144.68686539999908,144.68686539999908,144.68686539999908,144.68686539999908,144.68686539999908,144.68686539999908,144.68686539999908,144.68686539999908,,002,P017,2025_Mar_07_1642,CategoryLocalizer,2021.2.3,59.94287444050939,
96.0,96.8,3,0.75,Stimuli\ImageFiles-Set2\Faces\Face_00078.png,0,0,0,146,146,146,,,,,,,,,,,,,96.01699039999949,0.016990399999485817,None,144.88697289999982,144.88697289999982,144.88697289999982,144.88697289999982,144.88697289999982,144.88697289999982,144.88697289999982,144.88697289999982,,002,P017,2025_Mar_07_1642,CategoryLocalizer,2021.2.3,59.94287444050939,
96.8,97.0,5,0.0,Stimuli\Blank.png,0,0,0,147,147,147,,,,,,,,,,,,,96.80265950000103,0.002659500001030324,None,145.6876916000001,145.6876916000001,145.6876916000001,145.6876916000001,145.6876916000001,145.6876916000001,145.6876916000001,145.6876916000001,,002,P017,2025_Mar_07_1642,CategoryLocalizer,2021.2.3,59.94287444050939,
97.0,97.8,3,0.75,Stimuli\ImageFiles-Set2\Faces\Face_00120.png,1,1,0,148,148,148,,,,,,,,,,,,,97.0177603000011,0.017760300001100404,None,145.8878556999989,145.8878556999989,145.8878556999989,145.8878556999989,145.8878556999989,145.8878556999989,145.8878556999989,145.8878556999989,,002,P017,2025_Mar_07_1642,CategoryLocalizer,2021.2.3,59.94287444050939,
97.8,98.0,5,0.0,Stimuli\Blank.png,0,0,0,149,149,149,,,,,,,,,,,,,97.80310449999888,0.0031044999988836253,None,146.67189589999907,146.67189589999907,146.67189589999907,146.67189589999907,146.67189589999907,146.67189589999907,146.67189589999907,146.67189589999907,,002,P017,2025_Mar_07_1642,CategoryLocalizer,2021.2.3,59.94287444050939,
98.0,98.8,3,0.75,Stimuli\ImageFiles-Set2\Faces\Face_00034.png,0,0,0,150,150,150,,,,,,,,,,,,,98.00201490000109,0.002014900001086062,None,146.87203800000134,146.87203800000134,146.87203800000134,146.87203800000134,146.87203800000134,146.87203800000134,146.87203800000134,146.87203800000134,,002,P017,2025_Mar_07_1642,CategoryLocalizer,2021.2.3,59.94287444050939,
98.8,99.0,5,0.0,Stimuli\Blank.png,0,0,0,151,151,151,,,,,,,,,,,,,98.8033703000001,0.0033703000000997463,None,147.67278069999884,147.67278069999884,147.67278069999884,147.67278069999884,147.67278069999884,147.67278069999884,147.67278069999884,147.67278069999884,,002,P017,2025_Mar_07_1642,CategoryLocalizer,2021.2.3,59.94287444050939,
99.0,99.8,3,0.75,Stimuli\ImageFiles-Set2\Faces\Face_00034.png,0,0,0,152,152,152,,,,,,,,,,,,,99.00336779999998,0.0033677999999781605,1,147.88963330000115,147.88963330000115,147.88963330000115,147.88963330000115,147.88963330000115,147.88963330000115,147.88963330000115,147.88963330000115,0.3297692000014649,002,P017,2025_Mar_07_1642,CategoryLocalizer,2021.2.3,59.94287444050939,
99.8,100.0,5,0.0,Stimuli\Blank.png,0,0,0,153,153,153,,,,,,,,,,,,,99.82018320000134,0.020183200001341106,None,148.6903768000011,148.6903768000011,148.6903768000011,148.6903768000011,148.6903768000011,148.6903768000011,148.6903768000011,148.6903768000011,,002,P017,2025_Mar_07_1642,CategoryLocalizer,2021.2.3,59.94287444050939,
100.0,100.8,3,0.75,Stimuli\ImageFiles-Set2\Faces\Face_00100.png,0,0,0,154,154,154,,,,,,,,,,,,,100.00437479999891,0.004374799998913659,None,148.87381970000206,148.87381970000206,148.87381970000206,148.87381970000206,148.87381970000206,148.87381970000206,148.87381970000206,148.87381970000206,,002,P017,2025_Mar_07_1642,CategoryLocalizer,2021.2.3,59.94287444050939,
100.8,101.0,5,0.0,Stimuli\Blank.png,0,0,0,155,155,155,,,,,,,,,,,,,100.80433410000114,0.0043341000011452024,None,149.6745437999998,149.6745437999998,149.6745437999998,149.6745437999998,149.6745437999998,149.6745437999998,149.6745437999998,149.6745437999998,,002,P017,2025_Mar_07_1642,CategoryLocalizer,2021.2.3,59.94287444050939,
101.0,101.8,3,0.75,Stimuli\ImageFiles-Set2\Faces\Face_00026.png,0,0,0,156,156,156,,,,,,,,,,,,,101.00456530000156,0.0045653000015590806,None,149.87472290000005,149.87472290000005,149.87472290000005,149.87472290000005,149.87472290000005,149.87472290000005,149.87472290000005,149.87472290000005,,002,P017,2025_Mar_07_1642,CategoryLocalizer,2021.2.3,59.94287444050939,
101.8,102.0,5,0.0,Stimuli\Blank.png,0,0,0,157,157,157,,,,,,,,,,,,,101.80728480000107,0.007284800001073677,None,150.69212139999945,150.69212139999945,150.69212139999945,150.69212139999945,150.69212139999945,150.69212139999945,150.69212139999945,150.69212139999945,,002,P017,2025_Mar_07_1642,CategoryLocalizer,2021.2.3,59.94287444050939,
102.0,102.8,3,0.75,Stimuli\ImageFiles-Set2\Faces\Face_00090.png,0,0,0,158,158,158,,,,,,,,,,,,,102.02219260000129,0.022192600001289975,None,150.89228419999927,150.89228419999927,150.89228419999927,150.89228419999927,150.89228419999927,150.89228419999927,150.89228419999927,150.89228419999927,,002,P017,2025_Mar_07_1642,CategoryLocalizer,2021.2.3,59.94287444050939,
102.8,103.0,5,0.0,Stimuli\Blank.png,0,0,0,159,159,159,,,,,,,,,,,,,102.8061560999995,0.0061560999995009524,None,151.67636449999918,151.67636449999918,151.67636449999918,151.67636449999918,151.67636449999918,151.67636449999918,151.67636449999918,151.67636449999918,,002,P017,2025_Mar_07_1642,CategoryLocalizer,2021.2.3,59.94287444050939,
103.0,103.8,3,0.75,Stimuli\ImageFiles-Set2\Faces\Face_00038.png,0,0,0,160,160,160,,,,,,,,,,,,,103.00718210000196,0.007182100001955405,None,151.8931945000004,151.8931945000004,151.8931945000004,151.8931945000004,151.8931945000004,151.8931945000004,151.8931945000004,151.8931945000004,,002,P017,2025_Mar_07_1642,CategoryLocalizer,2021.2.3,59.94287444050939,
103.8,104.0,5,0.0,Stimuli\Blank.png,0,0,0,161,161,161,,,,,,,,,,,,,103.82487330000004,0.024873300000038512,None,152.69387890000144,152.69387890000144,152.69387890000144,152.69387890000144,152.69387890000144,152.69387890000144,152.69387890000144,152.69387890000144,,002,P017,2025_Mar_07_1642,CategoryLocalizer,2021.2.3,59.94287444050939,
104.0,104.8,1,0.75,Stimuli\ImageFiles-Set2\Objects\Object_Sponge_00001.png,0,0,0,162,162,162,,,,,,,,,,,,,104.0081147000019,0.00811470000189729,None,152.8940584000011,152.8940584000011,152.8940584000011,152.8940584000011,152.8940584000011,152.8940584000011,152.8940584000011,152.8940584000011,,002,P017,2025_Mar_07_1642,CategoryLocalizer,2021.2.3,59.94287444050939,
104.8,105.0,5,0.0,Stimuli\Blank.png,0,0,0,163,163,163,,,,,,,,,,,,,104.82454430000143,0.02454430000143759,None,153.6947605000023,153.6947605000023,153.6947605000023,153.6947605000023,153.6947605000023,153.6947605000023,153.6947605000023,153.6947605000023,,002,P017,2025_Mar_07_1642,CategoryLocalizer,2021.2.3,59.94287444050939,
105.0,105.8,1,0.75,Stimuli\ImageFiles-Set2\Objects\Object_Sponge_00001.png,1,1,0,164,164,164,,,,,,,,,,,,,105.0088012999986,0.008801299998594914,1,153.87827780000225,153.87827780000225,153.87827780000225,153.87827780000225,153.87827780000225,153.87827780000225,153.87827780000225,153.87827780000225,0.3003413000005821,002,P017,2025_Mar_07_1642,CategoryLocalizer,2021.2.3,59.94287444050939,
105.8,106.0,5,0.0,Stimuli\Blank.png,0,0,0,165,165,165,,,,,,,,,,,,,105.80964700000186,0.009647000001862693,None,154.6790578,154.6790578,154.6790578,154.6790578,154.6790578,154.6790578,154.6790578,154.6790578,,002,P017,2025_Mar_07_1642,CategoryLocalizer,2021.2.3,59.94287444050939,
106.0,106.8,1,0.75,Stimuli\ImageFiles-Set2\Objects\Object_Keyboard_00001.png,0,0,0,166,166,166,,,,,,,,,,,,,106.00969809999879,0.009698099998786347,None,154.87913829999889,154.87913829999889,154.87913829999889,154.87913829999889,154.87913829999889,154.87913829999889,154.87913829999889,154.87913829999889,,002,P017,2025_Mar_07_1642,CategoryLocalizer,2021.2.3,59.94287444050939,
106.8,107.0,5,0.0,Stimuli\Blank.png,0,0,0,167,167,167,,,,,,,,,,,,,106.80959789999906,0.009597899999064907,None,155.6798591000006,155.6798591000006,155.6798591000006,155.6798591000006,155.6798591000006,155.6798591000006,155.6798591000006,155.6798591000006,,002,P017,2025_Mar_07_1642,CategoryLocalizer,2021.2.3,59.94287444050939,
107.0,107.8,1,0.75,Stimuli\ImageFiles-Set2\Objects\Object_Sandal_00001.png,0,0,0,168,168,168,,,,,,,,,,,,,107.01052870000058,0.010528700000577373,None,155.88004179999916,155.88004179999916,155.88004179999916,155.88004179999916,155.88004179999916,155.88004179999916,155.88004179999916,155.88004179999916,,002,P017,2025_Mar_07_1642,CategoryLocalizer,2021.2.3,59.94287444050939,
107.8,108.0,5,0.0,Stimuli\Blank.png,0,0,0,169,169,169,,,,,,,,,,,,,107.81151360000149,0.011513600001492819,None,156.68073770000046,156.68073770000046,156.68073770000046,156.68073770000046,156.68073770000046,156.68073770000046,156.68073770000046,156.68073770000046,,002,P017,2025_Mar_07_1642,CategoryLocalizer,2021.2.3,59.94287444050939,
108.0,108.8,1,0.75,Stimuli\ImageFiles-Set2\Objects\Object_Dumpster_00001.png,0,0,0,170,170,170,,,,,,,,,,,,,108.01269909999974,0.012699099999736063,None,156.8976881000017,156.8976881000017,156.8976881000017,156.8976881000017,156.8976881000017,156.8976881000017,156.8976881000017,156.8976881000017,,002,P017,2025_Mar_07_1642,CategoryLocalizer,2021.2.3,59.94287444050939,
108.8,109.0,5,0.0,Stimuli\Blank.png,0,0,0,171,171,171,,,,,,,,,,,,,108.82826230000137,0.028262300001372864,None,157.6983036999991,157.6983036999991,157.6983036999991,157.6983036999991,157.6983036999991,157.6983036999991,157.6983036999991,157.6983036999991,,002,P017,2025_Mar_07_1642,CategoryLocalizer,2021.2.3,59.94287444050939,
109.0,109.8,1,0.75,Stimuli\ImageFiles-Set2\Objects\Object_Bicycle_00001.png,0,0,0,172,172,172,,,,,,,,,,,,,109.01212849999865,0.012128499998652842,None,157.88180900000225,157.88180900000225,157.88180900000225,157.88180900000225,157.88180900000225,157.88180900000225,157.88180900000225,157.88180900000225,,002,P017,2025_Mar_07_1642,CategoryLocalizer,2021.2.3,59.94287444050939,
109.8,110.0,5,0.0,Stimuli\Blank.png,0,0,0,173,173,173,,,,,,,,,,,,,109.81308910000007,0.013089100000073017,None,158.68251330000203,158.68251330000203,158.68251330000203,158.68251330000203,158.68251330000203,158.68251330000203,158.68251330000203,158.68251330000203,,002,P017,2025_Mar_07_1642,CategoryLocalizer,2021.2.3,59.94287444050939,
110.0,110.8,1,0.75,Stimuli\ImageFiles-Set2\Objects\Object_Desk_00001.png,0,0,0,174,174,174,,,,,,,,,,,,,110.01274009999906,0.012740099999064114,None,158.88268719999905,158.88268719999905,158.88268719999905,158.88268719999905,158.88268719999905,158.88268719999905,158.88268719999905,158.88268719999905,,002,P017,2025_Mar_07_1642,CategoryLocalizer,2021.2.3,59.94287444050939,
110.8,111.0,5,0.0,Stimuli\Blank.png,0,0,0,175,175,175,,,,,,,,,,,,,110.8131781000011,0.01317810000109887,None,159.68339389999892,159.68339389999892,159.68339389999892,159.68339389999892,159.68339389999892,159.68339389999892,159.68339389999892,159.68339389999892,,002,P017,2025_Mar_07_1642,CategoryLocalizer,2021.2.3,59.94287444050939,
111.0,111.8,1,0.75,Stimuli\ImageFiles-Set2\Objects\Object_Pin_00001.png,0,0,0,176,176,176,,,,,,,,,,,,,111.01339300000109,0.013393000001087785,None,159.88356420000127,159.88356420000127,159.88356420000127,159.88356420000127,159.88356420000127,159.88356420000127,159.88356420000127,159.88356420000127,,002,P017,2025_Mar_07_1642,CategoryLocalizer,2021.2.3,59.94287444050939,
111.8,112.0,5,0.0,Stimuli\Blank.png,0,0,0,177,177,177,,,,,,,,,,,,,111.81463399999848,0.014633999998480363,None,160.68426439999894,160.68426439999894,160.68426439999894,160.68426439999894,160.68426439999894,160.68426439999894,160.68426439999894,160.68426439999894,,002,P017,2025_Mar_07_1642,CategoryLocalizer,2021.2.3,59.94287444050939,
112.0,112.8,1,0.75,Stimuli\ImageFiles-Set2\Objects\Object_Dishwasher_00001.png,0,0,0,178,178,178,,,,,,,,,,,,,112.01438770000095,0.014387700000952464,None,160.88445929999943,160.88445929999943,160.88445929999943,160.88445929999943,160.88445929999943,160.88445929999943,160.88445929999943,160.88445929999943,,002,P017,2025_Mar_07_1642,CategoryLocalizer,2021.2.3,59.94287444050939,
112.8,113.0,5,0.0,Stimuli\Blank.png,0,0,0,179,179,179,,,,,,,,,,,,,112.81745529999898,0.01745529999898565,None,161.7018530000023,161.7018530000023,161.7018530000023,161.7018530000023,161.7018530000023,161.7018530000023,161.7018530000023,161.7018530000023,,002,P017,2025_Mar_07_1642,CategoryLocalizer,2021.2.3,59.94287444050939,
113.0,113.8,1,0.75,Stimuli\ImageFiles-Set2\Objects\Object_Paper_00001.png,0,0,0,180,180,180,,,,,,,,,,,,,113.01764370000092,0.017643700000917306,None,161.9020238000012,161.9020238000012,161.9020238000012,161.9020238000012,161.9020238000012,161.9020238000012,161.9020238000012,161.9020238000012,,002,P017,2025_Mar_07_1642,CategoryLocalizer,2021.2.3,59.94287444050939,
113.8,114.0,5,0.0,Stimuli\Blank.png,0,0,0,181,181,181,,,,,,,,,,,,,113.81757089999883,0.017570899998830214,None,162.68605580000076,162.68605580000076,162.68605580000076,162.68605580000076,162.68605580000076,162.68605580000076,162.68605580000076,162.68605580000076,,002,P017,2025_Mar_07_1642,CategoryLocalizer,2021.2.3,59.94287444050939,
114.0,114.8,1,0.75,Stimuli\ImageFiles-Set2\Objects\Object_Mug_00001.png,0,0,0,182,182,182,,,,,,,,,,,,,113.99941359999866,-0.0005864000013389159,None,162.8862251999999,162.8862251999999,162.8862251999999,162.8862251999999,162.8862251999999,162.8862251999999,162.8862251999999,162.8862251999999,,002,P017,2025_Mar_07_1642,CategoryLocalizer,2021.2.3,59.94287444050939,
114.8,115.0,5,0.0,Stimuli\Blank.png,0,0,0,183,183,183,,,,,,,,,,,,,114.81704600000012,0.017046000000121353,None,163.6869243000001,163.6869243000001,163.6869243000001,163.6869243000001,163.6869243000001,163.6869243000001,163.6869243000001,163.6869243000001,,002,P017,2025_Mar_07_1642,CategoryLocalizer,2021.2.3,59.94287444050939,
115.0,115.8,1,0.75,Stimuli\ImageFiles-Set2\Objects\Object_Button1_00001.png,1,1,0,184,184,184,,,,,,,,,,,,,115.0016226000007,0.0016226000007009134,None,163.88714400000026,163.88714400000026,163.88714400000026,163.88714400000026,163.88714400000026,163.88714400000026,163.88714400000026,163.88714400000026,,002,P017,2025_Mar_07_1642,CategoryLocalizer,2021.2.3,59.94287444050939,
115.8,116.0,5,0.0,Stimuli\Blank.png,0,0,0,185,185,185,,,,,,,,,,,,,115.81813129999864,0.018131299998643158,None,164.68781110000054,164.68781110000054,164.68781110000054,164.68781110000054,164.68781110000054,164.68781110000054,164.68781110000054,164.68781110000054,,002,P017,2025_Mar_07_1642,CategoryLocalizer,2021.2.3,59.94287444050939,
116.0,116.8,1,0.75,Stimuli\ImageFiles-Set2\Objects\Object_Jar_00001.png,0,0,0,186,186,186,,,,,,,,,,,,,116.00251410000055,0.0025141000005532987,None,164.88799579999977,164.88799579999977,164.88799579999977,164.88799579999977,164.88799579999977,164.88799579999977,164.88799579999977,164.88799579999977,,002,P017,2025_Mar_07_1642,CategoryLocalizer,2021.2.3,59.94287444050939,
116.8,117.0,5,0.0,Stimuli\Blank.png,0,0,0,187,187,187,,,,,,,,,,,,,116.81861030000073,0.018610300000730717,None,165.68870500000048,165.68870500000048,165.68870500000048,165.68870500000048,165.68870500000048,165.68870500000048,165.68870500000048,165.68870500000048,,002,P017,2025_Mar_07_1642,CategoryLocalizer,2021.2.3,59.94287444050939,
117.0,117.8,1,0.75,Stimuli\ImageFiles-Set2\Objects\Object_Jar_00001.png,0,0,0,188,188,188,,,,,,,,,,,,,117.00285219999932,0.0028521999993245117,1,165.888877100002,165.888877100002,165.888877100002,165.888877100002,165.888877100002,165.888877100002,165.888877100002,165.888877100002,0.3215968000004068,002,P017,2025_Mar_07_1642,CategoryLocalizer,2021.2.3,59.94287444050939,
117.8,118.0,5,0.0,Stimuli\Blank.png,0,0,0,189,189,189,,,,,,,,,,,,,117.81999999999971,0.019999999999711804,None,166.68958159999966,166.68958159999966,166.68958159999966,166.68958159999966,166.68958159999966,166.68958159999966,166.68958159999966,166.68958159999966,,002,P017,2025_Mar_07_1642,CategoryLocalizer,2021.2.3,59.94287444050939,
118.0,118.8,1,0.75,Stimuli\ImageFiles-Set2\Objects\Object_ArmChair_00001.png,0,0,0,190,190,190,,,,,,,,,,,,,118.0032183000003,0.0032183000002987683,None,166.88978850000058,166.88978850000058,166.88978850000058,166.88978850000058,166.88978850000058,166.88978850000058,166.88978850000058,166.88978850000058,,002,P017,2025_Mar_07_1642,CategoryLocalizer,2021.2.3,59.94287444050939,
118.8,119.0,5,0.0,Stimuli\Blank.png,0,0,0,191,191,191,,,,,,,,,,,,,118.82210209999903,0.022102099999031566,None,167.70716470000116,167.70716470000116,167.70716470000116,167.70716470000116,167.70716470000116,167.70716470000116,167.70716470000116,167.70716470000116,,002,P017,2025_Mar_07_1642,CategoryLocalizer,2021.2.3,59.94287444050939,
119.0,119.8,1,0.75,Stimuli\ImageFiles-Set2\Objects\Object_Refrigerator_00001.png,0,0,0,192,192,192,,,,,,,,,,,,,119.02131659999941,0.021316599999408936,None,167.89066970000204,167.89066970000204,167.89066970000204,167.89066970000204,167.89066970000204,167.89066970000204,167.89066970000204,167.89066970000204,,002,P017,2025_Mar_07_1642,CategoryLocalizer,2021.2.3,59.94287444050939,
119.8,120.0,5,0.0,Stimuli\Blank.png,0,0,0,193,193,193,,,,,,,,,,,,,119.80522669999846,0.005226699998459594,None,168.6746963000005,168.6746963000005,168.6746963000005,168.6746963000005,168.6746963000005,168.6746963000005,168.6746963000005,168.6746963000005,,002,P017,2025_Mar_07_1642,CategoryLocalizer,2021.2.3,59.94287444050939,
120.0,120.8,4,0.75,Stimuli\ImageFiles-Set2\Scenes\Scenes_090.png,0,0,0,194,194,194,,,,,,,,,,,,,120.00617590000184,0.006175900001835544,None,168.89155319999918,168.89155319999918,168.89155319999918,168.89155319999918,168.89155319999918,168.89155319999918,168.89155319999918,168.89155319999918,,002,P017,2025_Mar_07_1642,CategoryLocalizer,2021.2.3,59.94287444050939,
120.8,121.0,5,0.0,Stimuli\Blank.png,0,0,0,195,195,195,,,,,,,,,,,,,120.82315029999882,0.023150299998818014,None,169.69224770000073,169.69224770000073,169.69224770000073,169.69224770000073,169.69224770000073,169.69224770000073,169.69224770000073,169.69224770000073,,002,P017,2025_Mar_07_1642,CategoryLocalizer,2021.2.3,59.94287444050939,
121.0,121.8,4,0.75,Stimuli\ImageFiles-Set2\Scenes\Scenes_078.png,0,0,0,196,196,196,,,,,,,,,,,,,121.00825800000166,0.008258000001660548,None,169.892416900002,169.892416900002,169.892416900002,169.892416900002,169.892416900002,169.892416900002,169.892416900002,169.892416900002,,002,P017,2025_Mar_07_1642,CategoryLocalizer,2021.2.3,59.94287444050939,
121.8,122.0,5,0.0,Stimuli\Blank.png,0,0,0,197,197,197,,,,,,,,,,,,,121.8238781,0.023878100000004565,None,170.69312329999957,170.69312329999957,170.69312329999957,170.69312329999957,170.69312329999957,170.69312329999957,170.69312329999957,170.69312329999957,,002,P017,2025_Mar_07_1642,CategoryLocalizer,2021.2.3,59.94287444050939,
122.0,122.8,4,0.75,Stimuli\ImageFiles-Set2\Scenes\Scenes_091.png,0,0,0,198,198,198,,,,,,,,,,,,,122.00673280000046,0.006732800000463612,None,170.8933035000009,170.8933035000009,170.8933035000009,170.8933035000009,170.8933035000009,170.8933035000009,170.8933035000009,170.8933035000009,,002,P017,2025_Mar_07_1642,CategoryLocalizer,2021.2.3,59.94287444050939,
122.8,123.0,5,0.0,Stimuli\Blank.png,0,0,0,199,199,199,,,,,,,,,,,,,122.824424800001,0.024424800001000335,None,171.6940097000006,171.6940097000006,171.6940097000006,171.6940097000006,171.6940097000006,171.6940097000006,171.6940097000006,171.6940097000006,,002,P017,2025_Mar_07_1642,CategoryLocalizer,2021.2.3,59.94287444050939,
123.0,123.8,4,0.75,Stimuli\ImageFiles-Set2\Scenes\Scenes_101.png,0,0,0,200,200,200,,,,,,,,,,,,,123.00790020000204,0.007900200002040947,None,171.89418640000076,171.89418640000076,171.89418640000076,171.89418640000076,171.89418640000076,171.89418640000076,171.89418640000076,171.89418640000076,,002,P017,2025_Mar_07_1642,CategoryLocalizer,2021.2.3,59.94287444050939,
123.8,124.0,5,0.0,Stimuli\Blank.png,0,0,0,201,201,201,,,,,,,,,,,,,123.82485459999953,0.02485459999952866,None,172.69488920000003,172.69488920000003,172.69488920000003,172.69488920000003,172.69488920000003,172.69488920000003,172.69488920000003,172.69488920000003,,002,P017,2025_Mar_07_1642,CategoryLocalizer,2021.2.3,59.94287444050939,
124.0,124.8,4,0.75,Stimuli\ImageFiles-Set2\Scenes\Scenes_101.png,1,1,0,202,202,202,,,,,,,,,,,,,124.00907759999973,0.009077599999727681,1,172.89506769999934,172.89506769999934,172.89506769999934,172.89506769999934,172.89506769999934,172.89506769999934,172.89506769999934,172.89506769999934,0.47654079999847454,002,P017,2025_Mar_07_1642,CategoryLocalizer,2021.2.3,59.94287444050939,
124.8,125.0,5,0.0,Stimuli\Blank.png,0,0,0,203,203,203,,,,,,,,,,,,,124.82685530000163,0.02685530000162828,None,173.6957966000009,173.6957966000009,173.6957966000009,173.6957966000009,173.6957966000009,173.6957966000009,173.6957966000009,173.6957966000009,,002,P017,2025_Mar_07_1642,CategoryLocalizer,2021.2.3,59.94287444050939,
125.0,125.8,4,0.75,Stimuli\ImageFiles-Set2\Scenes\Scenes_065.png,0,0,0,204,204,204,,,,,,,,,,,,,125.00919390000126,0.00919390000126441,None,173.87927470000068,173.87927470000068,173.87927470000068,173.87927470000068,173.87927470000068,173.87927470000068,173.87927470000068,173.87927470000068,,002,P017,2025_Mar_07_1642,CategoryLocalizer,2021.2.3,59.94287444050939,
125.8,126.0,5,0.0,Stimuli\Blank.png,0,0,0,205,205,205,,,,,,,,,,,,,125.8098644999991,0.009864499999096665,None,174.67998609999995,174.67998609999995,174.67998609999995,174.67998609999995,174.67998609999995,174.67998609999995,174.67998609999995,174.67998609999995,,002,P017,2025_Mar_07_1642,CategoryLocalizer,2021.2.3,59.94287444050939,
126.0,126.8,4,0.75,Stimuli\ImageFiles-Set2\Scenes\Scenes_084.png,0,0,0,206,206,206,,,,,,,,,,,,,126.01048140000057,0.010481400000571739,None,174.89684050000142,174.89684050000142,174.89684050000142,174.89684050000142,174.89684050000142,174.89684050000142,174.89684050000142,174.89684050000142,,002,P017,2025_Mar_07_1642,CategoryLocalizer,2021.2.3,59.94287444050939,
126.8,127.0,5,0.0,Stimuli\Blank.png,0,0,0,207,207,207,,,,,,,,,,,,,126.82963810000001,0.02963810000001388,None,175.6975760000023,175.6975760000023,175.6975760000023,175.6975760000023,175.6975760000023,175.6975760000023,175.6975760000023,175.6975760000023,,002,P017,2025_Mar_07_1642,CategoryLocalizer,2021.2.3,59.94287444050939,
127.0,127.8,4,0.75,Stimuli\ImageFiles-Set2\Scenes\Scenes_119.png,0,0,0,208,208,208,,,,,,,,,,,,,127.01301460000104,0.013014600001042709,None,175.89772799999992,175.89772799999992,175.89772799999992,175.89772799999992,175.89772799999992,175.89772799999992,175.89772799999992,175.89772799999992,,002,P017,2025_Mar_07_1642,CategoryLocalizer,2021.2.3,59.94287444050939,
127.8,128.0,5,0.0,Stimuli\Blank.png,0,0,0,209,209,209,,,,,,,,,,,,,127.82905100000062,0.029051000000620775,None,176.6984298999996,176.6984298999996,176.6984298999996,176.6984298999996,176.6984298999996,176.6984298999996,176.6984298999996,176.6984298999996,,002,P017,2025_Mar_07_1642,CategoryLocalizer,2021.2.3,59.94287444050939,
128.0,128.8,4,0.75,Stimuli\ImageFiles-Set2\Scenes\Scenes_092.png,0,0,0,210,210,210,,,,,,,,,,,,,128.01335710000058,0.013357100000575883,None,176.89861210000163,176.89861210000163,176.89861210000163,176.89861210000163,176.89861210000163,176.89861210000163,176.89861210000163,176.89861210000163,,002,P017,2025_Mar_07_1642,CategoryLocalizer,2021.2.3,59.94287444050939,
128.8,129.0,5,0.0,Stimuli\Blank.png,0,0,0,211,211,211,,,,,,,,,,,,,128.82937569999922,0.029375699999206972,None,177.69932220000192,177.69932220000192,177.69932220000192,177.69932220000192,177.69932220000192,177.69932220000192,177.69932220000192,177.69932220000192,,002,P017,2025_Mar_07_1642,CategoryLocalizer,2021.2.3,59.94287444050939,
129.0,129.8,4,0.75,Stimuli\ImageFiles-Set2\Scenes\Scenes_105.png,0,0,0,212,212,212,,,,,,,,,,,,,129.01322209999853,0.013222099998529302,None,177.89949390000038,177.89949390000038,177.89949390000038,177.89949390000038,177.89949390000038,177.89949390000038,177.89949390000038,177.89949390000038,,002,P017,2025_Mar_07_1642,CategoryLocalizer,2021.2.3,59.94287444050939,
129.8,130.0,5,0.0,Stimuli\Blank.png,0,0,0,213,213,213,,,,,,,,,,,,,129.82996410000123,0.02996410000122296,None,178.70020300000033,178.70020300000033,178.70020300000033,178.70020300000033,178.70020300000033,178.70020300000033,178.70020300000033,178.70020300000033,,002,P017,2025_Mar_07_1642,CategoryLocalizer,2021.2.3,59.94287444050939,
130.0,130.8,4,0.75,Stimuli\ImageFiles-Set2\Scenes\Scenes_085.png,0,0,0,214,214,214,,,,,,,,,,,,,130.0143386000018,0.014338600001792656,None,178.91707150000002,178.91707150000002,178.91707150000002,178.91707150000002,178.91707150000002,178.91707150000002,178.91707150000002,178.91707150000002,,002,P017,2025_Mar_07_1642,CategoryLocalizer,2021.2.3,59.94287444050939,
130.8,131.0,5,0.0,Stimuli\Blank.png,0,0,0,215,215,215,,,,,,,,,,,,,130.8477133000015,0.047713300001476,None,179.71770050000123,179.71770050000123,179.71770050000123,179.71770050000123,179.71770050000123,179.71770050000123,179.71770050000123,179.71770050000123,,002,P017,2025_Mar_07_1642,CategoryLocalizer,2021.2.3,59.94287444050939,
131.0,131.8,4,0.75,Stimuli\ImageFiles-Set2\Scenes\Scenes_097.png,0,0,0,216,216,216,,,,,,,,,,,,,131.0159194000007,0.015919400000711903,None,179.88458510000055,179.88458510000055,179.88458510000055,179.88458510000055,179.88458510000055,179.88458510000055,179.88458510000055,179.88458510000055,,002,P017,2025_Mar_07_1642,CategoryLocalizer,2021.2.3,59.94287444050939,
131.8,132.0,5,0.0,Stimuli\Blank.png,0,0,0,217,217,217,,,,,,,,,,,,,131.798419499999,-0.001580500001011842,None,180.6685804000008,180.6685804000008,180.6685804000008,180.6685804000008,180.6685804000008,180.6685804000008,180.6685804000008,180.6685804000008,,002,P017,2025_Mar_07_1642,CategoryLocalizer,2021.2.3,59.94287444050939,
132.0,132.8,4,0.75,Stimuli\ImageFiles-Set2\Scenes\Scenes_114.png,1,1,0,218,218,218,,,,,,,,,,,,,132.01571070000136,0.015710700001363875,None,180.88546920000226,180.88546920000226,180.88546920000226,180.88546920000226,180.88546920000226,180.88546920000226,180.88546920000226,180.88546920000226,,002,P017,2025_Mar_07_1642,CategoryLocalizer,2021.2.3,59.94287444050939,
132.8,133.0,5,0.0,Stimuli\Blank.png,0,0,0,219,219,219,,,,,,,,,,,,,132.80026740000176,0.00026740000174640954,None,181.66949930000192,181.66949930000192,181.66949930000192,181.66949930000192,181.66949930000192,181.66949930000192,181.66949930000192,181.66949930000192,,002,P017,2025_Mar_07_1642,CategoryLocalizer,2021.2.3,59.94287444050939,
133.0,133.8,4,0.75,Stimuli\ImageFiles-Set2\Scenes\Scenes_095.png,0,0,0,220,220,220,,,,,,,,,,,,,133.0003323000019,0.00033230000190087594,None,181.86967430000004,181.86967430000004,181.86967430000004,181.86967430000004,181.86967430000004,181.86967430000004,181.86967430000004,181.86967430000004,,002,P017,2025_Mar_07_1642,CategoryLocalizer,2021.2.3,59.94287444050939,
133.8,134.0,5,0.0,Stimuli\Blank.png,0,0,0,221,221,221,,,,,,,,,,,,,133.802410100001,0.0024101000009864038,None,182.68706720000046,182.68706720000046,182.68706720000046,182.68706720000046,182.68706720000046,182.68706720000046,182.68706720000046,182.68706720000046,,002,P017,2025_Mar_07_1642,CategoryLocalizer,2021.2.3,59.94287444050939,
134.0,134.8,4,0.75,Stimuli\ImageFiles-Set2\Scenes\Scenes_095.png,0,0,0,222,222,222,,,,,,,,,,,,,134.01778869999907,0.017788699999073287,None,182.8872321000017,182.8872321000017,182.8872321000017,182.8872321000017,182.8872321000017,182.8872321000017,182.8872321000017,182.8872321000017,,002,P017,2025_Mar_07_1642,CategoryLocalizer,2021.2.3,59.94287444050939,
134.8,135.0,5,0.0,Stimuli\Blank.png,0,0,0,223,223,223,,,,,,,,,,,,,134.80180670000118,0.0018067000011683376,None,183.67127009999967,183.67127009999967,183.67127009999967,183.67127009999967,183.67127009999967,183.67127009999967,183.67127009999967,183.67127009999967,,002,P017,2025_Mar_07_1642,CategoryLocalizer,2021.2.3,59.94287444050939,
135.0,135.8,4,0.75,Stimuli\ImageFiles-Set2\Scenes\Scenes_106.png,0,0,0,224,224,224,,,,,,,,,,,,,135.00189519999913,0.0018951999991259072,None,183.8881337999992,183.8881337999992,183.8881337999992,183.8881337999992,183.8881337999992,183.8881337999992,183.8881337999992,183.8881337999992,,002,P017,2025_Mar_07_1642,CategoryLocalizer,2021.2.3,59.94287444050939,
135.8,136.0,5,0.0,Stimuli\Blank.png,0,0,0,225,225,225,,,,,,,,,,,,,135.8196977000007,0.019697700000676832,None,184.68882440000016,184.68882440000016,184.68882440000016,184.68882440000016,184.68882440000016,184.68882440000016,184.68882440000016,184.68882440000016,,002,P017,2025_Mar_07_1642,CategoryLocalizer,2021.2.3,59.94287444050939,
136.0,136.8,2,0.75,Stimuli\ImageFiles-Set2\Bodies\Bodies_CobraPose_00007.png,0,0,0,226,226,226,,,,,,,,,,,,,136.0022124999996,0.0022124999995867256,None,184.87232620000214,184.87232620000214,184.87232620000214,184.87232620000214,184.87232620000214,184.87232620000214,184.87232620000214,184.87232620000214,,002,P017,2025_Mar_07_1642,CategoryLocalizer,2021.2.3,59.94287444050939,
136.8,137.0,5,0.0,Stimuli\Blank.png,0,0,0,227,227,227,,,,,,,,,,,,,136.80279340000197,0.002793400001962709,None,185.67302779999955,185.67302779999955,185.67302779999955,185.67302779999955,185.67302779999955,185.67302779999955,185.67302779999955,185.67302779999955,,002,P017,2025_Mar_07_1642,CategoryLocalizer,2021.2.3,59.94287444050939,
137.0,137.8,2,0.75,Stimuli\ImageFiles-Set2\Bodies\Bodies_Running_00004.png,0,0,0,228,228,228,,,,,,,,,,,,,137.00303340000028,0.0030334000002767425,None,185.87320739999996,185.87320739999996,185.87320739999996,185.87320739999996,185.87320739999996,185.87320739999996,185.87320739999996,185.87320739999996,,002,P017,2025_Mar_07_1642,CategoryLocalizer,2021.2.3,59.94287444050939,
137.8,138.0,5,0.0,Stimuli\Blank.png,0,0,0,229,229,229,,,,,,,,,,,,,137.80388940000194,0.0038894000019240593,None,186.67391270000007,186.67391270000007,186.67391270000007,186.67391270000007,186.67391270000007,186.67391270000007,186.67391270000007,186.67391270000007,,002,P017,2025_Mar_07_1642,CategoryLocalizer,2021.2.3,59.94287444050939,
138.0,138.8,2,0.75,Stimuli\ImageFiles-Set2\Bodies\Bodies_Crawling_00007.png,0,0,0,230,230,230,,,,,,,,,,,,,138.00492099999974,0.004920999999740161,None,186.89080169999943,186.89080169999943,186.89080169999943,186.89080169999943,186.89080169999943,186.89080169999943,186.89080169999943,186.89080169999943,,002,P017,2025_Mar_07_1642,CategoryLocalizer,2021.2.3,59.94287444050939,
138.8,139.0,5,0.0,Stimuli\Blank.png,0,0,0,231,231,231,,,,,,,,,,,,,138.82217820000005,0.02217820000004167,None,187.69148580000183,187.69148580000183,187.69148580000183,187.69148580000183,187.69148580000183,187.69148580000183,187.69148580000183,187.69148580000183,,002,P017,2025_Mar_07_1642,CategoryLocalizer,2021.2.3,59.94287444050939,
139.0,139.8,2,0.75,Stimuli\ImageFiles-Set2\Bodies\Bodies_Running_00005.png,0,0,0,232,232,232,,,,,,,,,,,,,139.0054612999993,0.005461299999296898,None,187.87499930000195,187.87499930000195,187.87499930000195,187.87499930000195,187.87499930000195,187.87499930000195,187.87499930000195,187.87499930000195,,002,P017,2025_Mar_07_1642,CategoryLocalizer,2021.2.3,59.94287444050939,
139.8,140.0,5,0.0,Stimuli\Blank.png,0,0,0,233,233,233,,,,,,,,,,,,,139.80674600000202,0.006746000002010533,None,188.67569260000164,188.67569260000164,188.67569260000164,188.67569260000164,188.67569260000164,188.67569260000164,188.67569260000164,188.67569260000164,,002,P017,2025_Mar_07_1642,CategoryLocalizer,2021.2.3,59.94287444050939,
140.0,140.8,2,0.75,Stimuli\ImageFiles-Set2\Bodies\Bodies_Lunging_00006.png,0,0,0,234,234,234,,,,,,,,,,,,,140.00922619999983,0.009226199999829987,None,188.9092402999995,188.9092402999995,188.9092402999995,188.9092402999995,188.9092402999995,188.9092402999995,188.9092402999995,188.9092402999995,,002,P017,2025_Mar_07_1642,CategoryLocalizer,2021.2.3,59.94287444050939,
140.8,141.0,5,0.0,Stimuli\Blank.png,0,0,0,235,235,235,,,,,,,,,,,,,140.8423769000001,0.042376900000078876,None,189.72661530000187,189.72661530000187,189.72661530000187,189.72661530000187,189.72661530000187,189.72661530000187,189.72661530000187,189.72661530000187,,002,P017,2025_Mar_07_1642,CategoryLocalizer,2021.2.3,59.94287444050939,
141.0,141.8,2,0.75,Stimuli\ImageFiles-Set2\Bodies\Bodies_Jumping_00007.png,0,0,0,236,236,236,,,,,,,,,,,,,141.02327910000167,0.023279100001673214,None,189.8934326000017,189.8934326000017,189.8934326000017,189.8934326000017,189.8934326000017,189.8934326000017,189.8934326000017,189.8934326000017,,002,P017,2025_Mar_07_1642,CategoryLocalizer,2021.2.3,59.94287444050939,
141.8,142.0,5,0.0,Stimuli\Blank.png,0,0,0,237,237,237,,,,,,,,,,,,,141.80779070000062,0.007790700000612105,None,190.67746700000134,190.67746700000134,190.67746700000134,190.67746700000134,190.67746700000134,190.67746700000134,190.67746700000134,190.67746700000134,,002,P017,2025_Mar_07_1642,CategoryLocalizer,2021.2.3,59.94287444050939,
142.0,142.8,2,0.75,Stimuli\ImageFiles-Set2\Bodies\Bodies_Kneeling_00004.png,0,0,0,238,238,238,,,,,,,,,,,,,142.00791789999857,0.007917899998574285,None,190.87763560000167,190.87763560000167,190.87763560000167,190.87763560000167,190.87763560000167,190.87763560000167,190.87763560000167,190.87763560000167,,002,P017,2025_Mar_07_1642,CategoryLocalizer,2021.2.3,59.94287444050939,
142.8,143.0,5,0.0,Stimuli\Blank.png,0,0,0,239,239,239,,,,,,,,,,,,,142.8085558999992,0.008555899999180383,None,191.67834330000187,191.67834330000187,191.67834330000187,191.67834330000187,191.67834330000187,191.67834330000187,191.67834330000187,191.67834330000187,,002,P017,2025_Mar_07_1642,CategoryLocalizer,2021.2.3,59.94287444050939,
143.0,143.8,2,0.75,Stimuli\ImageFiles-Set2\Bodies\Bodies_Kneeling_00002.png,0,0,0,240,240,240,,,,,,,,,,,,,143.00845720000143,0.008457200001430465,None,191.87851910000245,191.87851910000245,191.87851910000245,191.87851910000245,191.87851910000245,191.87851910000245,191.87851910000245,191.87851910000245,,002,P017,2025_Mar_07_1642,CategoryLocalizer,2021.2.3,59.94287444050939,
143.8,144.0,5,0.0,Stimuli\Blank.png,0,0,0,241,241,241,,,,,,,,,,,,,143.80928219999987,0.009282199999859131,None,192.67922589999944,192.67922589999944,192.67922589999944,192.67922589999944,192.67922589999944,192.67922589999944,192.67922589999944,192.67922589999944,,002,P017,2025_Mar_07_1642,CategoryLocalizer,2021.2.3,59.94287444050939,
144.0,144.8,2,0.75,Stimuli\ImageFiles-Set2\Bodies\Bodies_Running_00001.png,0,0,0,242,242,242,,,,,,,,,,,,,144.0098007000015,0.009800700001505902,None,192.89609689999997,192.89609689999997,192.89609689999997,192.89609689999997,192.89609689999997,192.89609689999997,192.89609689999997,192.89609689999997,,002,P017,2025_Mar_07_1642,CategoryLocalizer,2021.2.3,59.94287444050939,
144.8,145.0,5,0.0,Stimuli\Blank.png,0,0,0,243,243,243,,,,,,,,,,,,,144.8271167999992,0.0271167999991917,None,193.69679330000145,193.69679330000145,193.69679330000145,193.69679330000145,193.69679330000145,193.69679330000145,193.69679330000145,193.69679330000145,,002,P017,2025_Mar_07_1642,CategoryLocalizer,2021.2.3,59.94287444050939,
145.0,145.8,2,0.75,Stimuli\ImageFiles-Set2\Bodies\Bodies_Punching_00007.png,0,0,0,244,244,244,,,,,,,,,,,,,145.01200900000185,0.012009000001853565,None,193.89698259999932,193.89698259999932,193.89698259999932,193.89698259999932,193.89698259999932,193.89698259999932,193.89698259999932,193.89698259999932,,002,P017,2025_Mar_07_1642,CategoryLocalizer,2021.2.3,59.94287444050939,
145.8,146.0,5,0.0,Stimuli\Blank.png,0,0,0,245,245,245,,,,,,,,,,,,,145.8276193999991,0.02761939999908236,None,194.6976816000024,194.6976816000024,194.6976816000024,194.6976816000024,194.6976816000024,194.6976816000024,194.6976816000024,194.6976816000024,,002,P017,2025_Mar_07_1642,CategoryLocalizer,2021.2.3,59.94287444050939,
146.0,146.8,2,0.75,Stimuli\ImageFiles-Set2\Bodies\Bodies_Kicking_00006.png,0,0,0,246,246,246,,,,,,,,,,,,,146.01243420000174,0.012434200001735007,None,194.89788240000053,194.89788240000053,194.89788240000053,194.89788240000053,194.89788240000053,194.89788240000053,194.89788240000053,194.89788240000053,,002,P017,2025_Mar_07_1642,CategoryLocalizer,2021.2.3,59.94287444050939,
146.8,147.0,5,0.0,Stimuli\Blank.png,0,0,0,247,247,247,,,,,,,,,,,,,146.82896900000196,0.028969000001950462,None,195.6985601000015,195.6985601000015,195.6985601000015,195.6985601000015,195.6985601000015,195.6985601000015,195.6985601000015,195.6985601000015,,002,P017,2025_Mar_07_1642,CategoryLocalizer,2021.2.3,59.94287444050939,
147.0,147.8,2,0.75,Stimuli\ImageFiles-Set2\Bodies\Bodies_PushUp_00006.png,0,0,0,248,248,248,,,,,,,,,,,,,147.0119279999999,0.01192799999989802,None,195.8820592000011,195.8820592000011,195.8820592000011,195.8820592000011,195.8820592000011,195.8820592000011,195.8820592000011,195.8820592000011,,002,P017,2025_Mar_07_1642,CategoryLocalizer,2021.2.3,59.94287444050939,
147.8,148.0,5,0.0,Stimuli\Blank.png,0,0,0,249,249,249,,,,,,,,,,,,,147.81372399999964,0.013723999999626812,None,196.68276909999986,196.68276909999986,196.68276909999986,196.68276909999986,196.68276909999986,196.68276909999986,196.68276909999986,196.68276909999986,,002,P017,2025_Mar_07_1642,CategoryLocalizer,2021.2.3,59.94287444050939,
148.0,148.8,2,0.75,Stimuli\ImageFiles-Set2\Bodies\Bodies_Running_00002.png,0,0,0,250,250,250,,,,,,,,,,,,,148.0137837000002,0.01378370000020368,None,196.89965360000133,196.89965360000133,196.89965360000133,196.89965360000133,196.89965360000133,196.89965360000133,196.89965360000133,196.89965360000133,,002,P017,2025_Mar_07_1642,CategoryLocalizer,2021.2.3,59.94287444050939,
148.8,149.0,5,0.0,Stimuli\Blank.png,0,0,0,251,251,251,,,,,,,,,,,,,148.83014910000202,0.030149100002006435,None,197.70034320000195,197.70034320000195,197.70034320000195,197.70034320000195,197.70034320000195,197.70034320000195,197.70034320000195,197.70034320000195,,002,P017,2025_Mar_07_1642,CategoryLocalizer,2021.2.3,59.94287444050939,
149.0,149.8,2,0.75,Stimuli\ImageFiles-Set2\Bodies\Bodies_Jumping_00001.png,0,0,0,252,252,252,,,,,,,,,,,,,149.01462510000056,0.014625100000557723,None,197.88378210000155,197.88378210000155,197.88378210000155,197.88378210000155,197.88378210000155,197.88378210000155,197.88378210000155,197.88378210000155,,002,P017,2025_Mar_07_1642,CategoryLocalizer,2021.2.3,59.94287444050939,
149.8,150.0,5,0.0,Stimuli\Blank.png,0,0,0,253,253,253,,,,,,,,,,,,,149.8170312000002,0.017031200000189983,None,198.70129069999894,198.70129069999894,198.70129069999894,198.70129069999894,198.70129069999894,198.70129069999894,198.70129069999894,198.70129069999894,,002,P017,2025_Mar_07_1642,CategoryLocalizer,2021.2.3,59.94287444050939,
150.0,150.8,2,0.75,Stimuli\ImageFiles-Set2\Bodies\Bodies_Jumping_00001.png,1,1,0,254,254,254,,,,,,,,,,,,,150.0145670999991,0.014567099999112543,1,198.90140579999934,198.90140579999934,198.90140579999934,198.90140579999934,198.90140579999934,198.90140579999934,198.90140579999934,198.90140579999934,0.3311556999979075,002,P017,2025_Mar_07_1642,CategoryLocalizer,2021.2.3,59.94287444050939,
150.8,151.0,5,0.0,Stimuli\Blank.png,0,0,0,255,255,255,,,,,,,,,,,,,150.83323810000002,0.03323810000000549,None,199.70211349999954,199.70211349999954,199.70211349999954,199.70211349999954,199.70211349999954,199.70211349999954,199.70211349999954,199.70211349999954,,002,P017,2025_Mar_07_1642,CategoryLocalizer,2021.2.3,59.94287444050939,
151.0,151.8,2,0.75,Stimuli\ImageFiles-Set2\Bodies\Bodies_Hanging_00001.png,0,0,0,256,256,256,,,,,,,,,,,,,151.0000246999989,2.469999890308827e-05,None,199.88560710000093,199.88560710000093,199.88560710000093,199.88560710000093,199.88560710000093,199.88560710000093,199.88560710000093,199.88560710000093,,002,P017,2025_Mar_07_1642,CategoryLocalizer,2021.2.3,59.94287444050939,
151.8,152.0,5,0.0,Stimuli\Blank.png,0,0,0,257,257,257,,,,,,,,,,,,,151.81612490000043,0.01612490000042044,None,200.68636870000046,200.68636870000046,200.68636870000046,200.68636870000046,200.68636870000046,200.68636870000046,200.68636870000046,200.68636870000046,,002,P017,2025_Mar_07_1642,CategoryLocalizer,2021.2.3,59.94287444050939,
152.0,164.0,0,0.0,Stimuli\Blank.png,0,0,0,258,258,258,,,,,,,,,,,,,151.99972139999954,-0.00027860000045620836,None,200.86980229999972,200.86980229999972,200.86980229999972,200.86980229999972,200.86980229999972,200.86980229999972,200.86980229999972,200.86980229999972,,002,P017,2025_Mar_07_1642,CategoryLocalizer,2021.2.3,59.94287444050939,
164.0,164.8,4,0.75,Stimuli\ImageFiles-Set2\Scenes\Scenes_073.png,0,0,0,259,259,259,,,,,,,,,,,,,164.01222250000137,0.012222500001371372,None,212.89710840000043,212.89710840000043,212.89710840000043,212.89710840000043,212.89710840000043,212.89710840000043,212.89710840000043,212.89710840000043,,002,P017,2025_Mar_07_1642,CategoryLocalizer,2021.2.3,59.94287444050939,
164.8,165.0,5,0.0,Stimuli\Blank.png,0,0,0,260,260,260,,,,,,,,,,,,,164.8281668999989,0.02816689999889377,None,213.6978095000013,213.6978095000013,213.6978095000013,213.6978095000013,213.6978095000013,213.6978095000013,213.6978095000013,213.6978095000013,,002,P017,2025_Mar_07_1642,CategoryLocalizer,2021.2.3,59.94287444050939,
165.0,165.8,4,0.75,Stimuli\ImageFiles-Set2\Scenes\Scenes_062.png,0,0,0,261,261,261,,,,,,,,,,,,,165.01114550000057,0.011145500000566244,None,213.881351,213.881351,213.881351,213.881351,213.881351,213.881351,213.881351,213.881351,,002,P017,2025_Mar_07_1642,CategoryLocalizer,2021.2.3,59.94287444050939,
165.8,166.0,5,0.0,Stimuli\Blank.png,0,0,0,262,262,262,,,,,,,,,,,,,165.81226389999938,0.012263899999368277,None,214.68200640000214,214.68200640000214,214.68200640000214,214.68200640000214,214.68200640000214,214.68200640000214,214.68200640000214,214.68200640000214,,002,P017,2025_Mar_07_1642,CategoryLocalizer,2021.2.3,59.94287444050939,
166.0,166.8,4,0.75,Stimuli\ImageFiles-Set2\Scenes\Scenes_113.png,0,0,0,263,263,263,,,,,,,,,,,,,166.012112299999,0.012112299998989329,None,214.89888490000158,214.89888490000158,214.89888490000158,214.89888490000158,214.89888490000158,214.89888490000158,214.89888490000158,214.89888490000158,,002,P017,2025_Mar_07_1642,CategoryLocalizer,2021.2.3,59.94287444050939,
166.8,167.0,5,0.0,Stimuli\Blank.png,0,0,0,264,264,264,,,,,,,,,,,,,166.82948309999847,0.02948309999845833,None,215.69957570000042,215.69957570000042,215.69957570000042,215.69957570000042,215.69957570000042,215.69957570000042,215.69957570000042,215.69957570000042,,002,P017,2025_Mar_07_1642,CategoryLocalizer,2021.2.3,59.94287444050939,
167.0,167.8,4,0.75,Stimuli\ImageFiles-Set2\Scenes\Scenes_108.png,0,0,0,265,265,265,,,,,,,,,,,,,167.01282029999857,0.012820299998566043,None,215.89978350000092,215.89978350000092,215.89978350000092,215.89978350000092,215.89978350000092,215.89978350000092,215.89978350000092,215.89978350000092,,002,P017,2025_Mar_07_1642,CategoryLocalizer,2021.2.3,59.94287444050939,
167.8,168.0,5,0.0,Stimuli\Blank.png,0,0,0,266,266,266,,,,,,,,,,,,,167.83260489999884,0.032604899998830206,None,216.717161200002,216.717161200002,216.717161200002,216.717161200002,216.717161200002,216.717161200002,216.717161200002,216.717161200002,,002,P017,2025_Mar_07_1642,CategoryLocalizer,2021.2.3,59.94287444050939,
168.0,168.8,4,0.75,Stimuli\ImageFiles-Set2\Scenes\Scenes_118.png,0,0,0,267,267,267,,,,,,,,,,,,,168.01445199999944,0.014451999999437248,None,216.88395859999946,216.88395859999946,216.88395859999946,216.88395859999946,216.88395859999946,216.88395859999946,216.88395859999946,216.88395859999946,,002,P017,2025_Mar_07_1642,CategoryLocalizer,2021.2.3,59.94287444050939,
168.8,169.0,5,0.0,Stimuli\Blank.png,0,0,0,268,268,268,,,,,,,,,,,,,168.81442790000074,0.014427900000725913,None,217.68466470000203,217.68466470000203,217.68466470000203,217.68466470000203,217.68466470000203,217.68466470000203,217.68466470000203,217.68466470000203,,002,P017,2025_Mar_07_1642,CategoryLocalizer,2021.2.3,59.94287444050939,
169.0,169.8,4,0.75,Stimuli\ImageFiles-Set2\Scenes\Scenes_080.png,0,0,0,269,269,269,,,,,,,,,,,,,169.01470210000116,0.014702100001159124,None,217.88484400000016,217.88484400000016,217.88484400000016,217.88484400000016,217.88484400000016,217.88484400000016,217.88484400000016,217.88484400000016,,002,P017,2025_Mar_07_1642,CategoryLocalizer,2021.2.3,59.94287444050939,
169.8,170.0,5,0.0,Stimuli\Blank.png,0,0,0,270,270,270,,,,,,,,,,,,,169.8173139999999,0.017313999999885255,None,218.70225520000167,218.70225520000167,218.70225520000167,218.70225520000167,218.70225520000167,218.70225520000167,218.70225520000167,218.70225520000167,,002,P017,2025_Mar_07_1642,CategoryLocalizer,2021.2.3,59.94287444050939,
170.0,170.8,4,0.75,Stimuli\ImageFiles-Set2\Scenes\Scenes_080.png,1,1,0,271,271,271,,,,,,,,,,,,,170.01825129999997,0.018251299999974435,1,218.90240840000115,218.90240840000115,218.90240840000115,218.90240840000115,218.90240840000115,218.90240840000115,218.90240840000115,218.90240840000115,0.4430170999985421,002,P017,2025_Mar_07_1642,CategoryLocalizer,2021.2.3,59.94287444050939,
170.8,171.0,5,0.0,Stimuli\Blank.png,0,0,0,272,272,272,,,,,,,,,,,,,170.81788030000098,0.017880300000967964,None,219.68643879999945,219.68643879999945,219.68643879999945,219.68643879999945,219.68643879999945,219.68643879999945,219.68643879999945,219.68643879999945,,002,P017,2025_Mar_07_1642,CategoryLocalizer,2021.2.3,59.94287444050939,
171.0,171.8,4,0.75,Stimuli\ImageFiles-Set2\Scenes\Scenes_067.png,0,0,0,273,273,273,,,,,,,,,,,,,171.00021349999952,0.00021349999951780774,None,219.8699376000004,219.8699376000004,219.8699376000004,219.8699376000004,219.8699376000004,219.8699376000004,219.8699376000004,219.8699376000004,,002,P017,2025_Mar_07_1642,CategoryLocalizer,2021.2.3,59.94287444050939,
171.8,172.0,5,0.0,Stimuli\Blank.png,0,0,0,274,274,274,,,,,,,,,,,,,171.80239309999888,0.0023930999988692747,None,220.687338300002,220.687338300002,220.687338300002,220.687338300002,220.687338300002,220.687338300002,220.687338300002,220.687338300002,,002,P017,2025_Mar_07_1642,CategoryLocalizer,2021.2.3,59.94287444050939,
172.0,172.8,4,0.75,Stimuli\ImageFiles-Set2\Scenes\Scenes_066.png,0,0,0,275,275,275,,,,,,,,,,,,,172.0181862999998,0.018186299999797484,None,220.90418219999992,220.90418219999992,220.90418219999992,220.90418219999992,220.90418219999992,220.90418219999992,220.90418219999992,220.90418219999992,,002,P017,2025_Mar_07_1642,CategoryLocalizer,2021.2.3,59.94287444050939,
172.8,173.0,5,0.0,Stimuli\Blank.png,0,0,0,276,276,276,,,,,,,,,,,,,172.81868340000074,0.018683400000725214,None,221.68821559999924,221.68821559999924,221.68821559999924,221.68821559999924,221.68821559999924,221.68821559999924,221.68821559999924,221.68821559999924,,002,P017,2025_Mar_07_1642,CategoryLocalizer,2021.2.3,59.94287444050939,
173.0,173.8,4,0.75,Stimuli\ImageFiles-Set2\Scenes\Scenes_098.png,0,0,0,277,277,277,,,,,,,,,,,,,173.0021701000005,0.0021701000005123205,None,221.88838400000168,221.88838400000168,221.88838400000168,221.88838400000168,221.88838400000168,221.88838400000168,221.88838400000168,221.88838400000168,,002,P017,2025_Mar_07_1642,CategoryLocalizer,2021.2.3,59.94287444050939,
173.8,174.0,5,0.0,Stimuli\Blank.png,0,0,0,278,278,278,,,,,,,,,,,,,173.81975189999866,0.01975189999865279,None,222.6890929000001,222.6890929000001,222.6890929000001,222.6890929000001,222.6890929000001,222.6890929000001,222.6890929000001,222.6890929000001,,002,P017,2025_Mar_07_1642,CategoryLocalizer,2021.2.3,59.94287444050939,
174.0,174.8,4,0.75,Stimuli\ImageFiles-Set2\Scenes\Scenes_077.png,0,0,0,279,279,279,,,,,,,,,,,,,174.00297620000129,0.0029762000012851786,None,222.88926980000178,222.88926980000178,222.88926980000178,222.88926980000178,222.88926980000178,222.88926980000178,222.88926980000178,222.88926980000178,,002,P017,2025_Mar_07_1642,CategoryLocalizer,2021.2.3,59.94287444050939,
174.8,175.0,5,0.0,Stimuli\Blank.png,0,0,0,280,280,280,,,,,,,,,,,,,174.82075160000022,0.020751600000210146,None,223.6899850000009,223.6899850000009,223.6899850000009,223.6899850000009,223.6899850000009,223.6899850000009,223.6899850000009,223.6899850000009,,002,P017,2025_Mar_07_1642,CategoryLocalizer,2021.2.3,59.94287444050939,
175.0,175.8,4,0.75,Stimuli\ImageFiles-Set2\Scenes\Scenes_068.png,0,0,0,281,281,281,,,,,,,,,,,,,175.0042143999999,0.004214399999909801,None,223.89015479999944,223.89015479999944,223.89015479999944,223.89015479999944,223.89015479999944,223.89015479999944,223.89015479999944,223.89015479999944,,002,P017,2025_Mar_07_1642,CategoryLocalizer,2021.2.3,59.94287444050939,
175.8,176.0,5,0.0,Stimuli\Blank.png,0,0,0,282,282,282,,,,,,,,,,,,,175.82113830000162,0.021138300001609878,None,224.6909134000016,224.6909134000016,224.6909134000016,224.6909134000016,224.6909134000016,224.6909134000016,224.6909134000016,224.6909134000016,,002,P017,2025_Mar_07_1642,CategoryLocalizer,2021.2.3,59.94287444050939,
176.0,176.8,4,0.75,Stimuli\ImageFiles-Set2\Scenes\Scenes_093.png,0,0,0,283,283,283,,,,,,,,,,,,,176.0043938000017,0.004393800001707859,None,224.87435059999916,224.87435059999916,224.87435059999916,224.87435059999916,224.87435059999916,224.87435059999916,224.87435059999916,224.87435059999916,,002,P017,2025_Mar_07_1642,CategoryLocalizer,2021.2.3,59.94287444050939,
176.8,177.0,5,0.0,Stimuli\Blank.png,0,0,0,284,284,284,,,,,,,,,,,,,176.80764160000035,0.0076416000003405316,None,225.69177370000034,225.69177370000034,225.69177370000034,225.69177370000034,225.69177370000034,225.69177370000034,225.69177370000034,225.69177370000034,,002,P017,2025_Mar_07_1642,CategoryLocalizer,2021.2.3,59.94287444050939,
177.0,177.8,4,0.75,Stimuli\ImageFiles-Set2\Scenes\Scenes_088.png,0,0,0,285,285,285,,,,,,,,,,,,,177.0216763999997,0.02167639999970561,None,225.89192410000032,225.89192410000032,225.89192410000032,225.89192410000032,225.89192410000032,225.89192410000032,225.89192410000032,225.89192410000032,,002,P017,2025_Mar_07_1642,CategoryLocalizer,2021.2.3,59.94287444050939,
