eventStartTime,eventEndTime,eventCond,imSize,imFile,repeatedImage,responseEvent,Events.thisRepN,Events.thisTrialN,Events.thisN,Events.thisIndex,Instructions.started,Instructions.stopped,participantReadyResponse.keys,participantReadyResponse.rt,participantReadyResponse.started,participantReadyResponse.stopped,startWaitforTrigger,triggerResponse.keys,triggerResponse.rt,triggerResponse.started,triggerResponse.stopped,globalTimer,actualStartTime,startTimingDiff,participantResponse.keys,participantResponse.started,participantResponse.stopped,image.started,image.stopped,fixationOutside.started,fixationOutside.stopped,fixationInside.started,fixationInside.stopped,participantResponse.rt,session,participant,date,expName,psychopyVersion,frameRate,
,,,,,,,,,,,16.299243400004343,None,1,18.570894900003623,16.299243400004343,None,,,,,,,,,,,,,,,,,,,003,P017,2025_Mar_07_1712,CategoryLocalizer,2021.2.3,59.92512954509443,
,,,,,,,,,,,,,,,,,34.878816900003585,5,14.811986799999431,34.89202649999788,None,,,,,,,,,,,,,,003,P017,2025_Mar_07_1712,CategoryLocalizer,2021.2.3,59.92512954509443,
0.0,12.0,0,0.0,Stimuli\Blank.png,0,0,0,0,0,0,,,,,,,,,,,,49.7086455000026,0.04294730000401614,0.04294730000401614,None,49.77189979999821,None,49.77189979999821,None,49.77189979999821,None,49.77189979999821,None,,003,P017,2025_Mar_07_1712,CategoryLocalizer,2021.2.3,59.92512954509443,
12.0,12.8,1,0.75,Stimuli\ImageFiles-Set1\Objects\Object_Box_00001.png,0,0,0,1,1,1,,,,,,,,,,,,,12.011291800001345,0.01129180000134511,None,61.74913650000235,61.74913650000235,61.74913650000235,61.74913650000235,61.74913650000235,61.74913650000235,61.74913650000235,61.74913650000235,,003,P017,2025_Mar_07_1712,CategoryLocalizer,2021.2.3,59.92512954509443,
12.8,13.0,5,0.0,Stimuli\Blank.png,0,0,0,2,2,2,,,,,,,,,,,,,12.82649390000006,0.0264939000000588,None,62.54983760000323,62.54983760000323,62.54983760000323,62.54983760000323,62.54983760000323,62.54983760000323,62.54983760000323,62.54983760000323,,003,P017,2025_Mar_07_1712,CategoryLocalizer,2021.2.3,59.92512954509443,
13.0,13.8,1,0.75,Stimuli\ImageFiles-Set1\Objects\Object_Airplane_00001.png,0,0,0,3,3,3,,,,,,,,,,,,,13.01080340000044,0.010803400000440888,None,62.75003120000474,62.75003120000474,62.75003120000474,62.75003120000474,62.75003120000474,62.75003120000474,62.75003120000474,62.75003120000474,,003,P017,2025_Mar_07_1712,CategoryLocalizer,2021.2.3,59.92512954509443,
13.8,14.0,5,0.0,Stimuli\Blank.png,0,0,0,4,4,4,,,,,,,,,,,,,13.829241200000979,0.029241200000978296,None,63.56743599999754,63.56743599999754,63.56743599999754,63.56743599999754,63.56743599999754,63.56743599999754,63.56743599999754,63.56743599999754,,003,P017,2025_Mar_07_1712,CategoryLocalizer,2021.2.3,59.92512954509443,
14.0,14.8,1,0.75,Stimuli\ImageFiles-Set1\Objects\Object_Whistle_00001.png,0,0,0,5,5,5,,,,,,,,,,,,,14.027706300003047,0.027706300003046636,None,63.75089999999909,63.75089999999909,63.75089999999909,63.75089999999909,63.75089999999909,63.75089999999909,63.75089999999909,63.75089999999909,,003,P017,2025_Mar_07_1712,CategoryLocalizer,2021.2.3,59.92512954509443,
14.8,15.0,5,0.0,Stimuli\Blank.png,0,0,0,6,6,6,,,,,,,,,,,,,14.81382450000092,0.013824500000918505,None,64.55164409999998,64.55164409999998,64.55164409999998,64.55164409999998,64.55164409999998,64.55164409999998,64.55164409999998,64.55164409999998,,003,P017,2025_Mar_07_1712,CategoryLocalizer,2021.2.3,59.92512954509443,
15.0,15.8,1,0.75,Stimuli\ImageFiles-Set1\Objects\Object_Glasses_00001.png,0,0,0,7,7,7,,,,,,,,,,,,,15.029235599999083,0.029235599999083206,None,64.75176640000427,64.75176640000427,64.75176640000427,64.75176640000427,64.75176640000427,64.75176640000427,64.75176640000427,64.75176640000427,,003,P017,2025_Mar_07_1712,CategoryLocalizer,2021.2.3,59.92512954509443,
15.8,16.0,5,0.0,Stimuli\Blank.png,0,0,0,8,8,8,,,,,,,,,,,,,15.814047500003653,0.014047500003652402,None,65.53581739999936,65.53581739999936,65.53581739999936,65.53581739999936,65.53581739999936,65.53581739999936,65.53581739999936,65.53581739999936,,003,P017,2025_Mar_07_1712,CategoryLocalizer,2021.2.3,59.92512954509443,
16.0,16.8,1,0.75,Stimuli\ImageFiles-Set1\Objects\Object_Lipstick_00001.png,0,0,0,9,9,9,,,,,,,,,,,,,16.01411960000405,0.01411960000405088,None,65.73599549999926,65.73599549999926,65.73599549999926,65.73599549999926,65.73599549999926,65.73599549999926,65.73599549999926,65.73599549999926,,003,P017,2025_Mar_07_1712,CategoryLocalizer,2021.2.3,59.92512954509443,
16.8,17.0,5,0.0,Stimuli\Blank.png,0,0,0,10,10,10,,,,,,,,,,,,,16.813442500002566,0.013442500002565083,None,66.53667010000208,66.53667010000208,66.53667010000208,66.53667010000208,66.53667010000208,66.53667010000208,66.53667010000208,66.53667010000208,,003,P017,2025_Mar_07_1712,CategoryLocalizer,2021.2.3,59.92512954509443,
17.0,17.8,1,0.75,Stimuli\ImageFiles-Set1\Objects\Object_TeaBag_00001.png,0,0,0,11,11,11,,,,,,,,,,,,,17.014575300003344,0.014575300003343727,None,66.73687030000292,66.73687030000292,66.73687030000292,66.73687030000292,66.73687030000292,66.73687030000292,66.73687030000292,66.73687030000292,,003,P017,2025_Mar_07_1712,CategoryLocalizer,2021.2.3,59.92512954509443,
17.8,18.0,5,0.0,Stimuli\Blank.png,0,0,0,12,12,12,,,,,,,,,,,,,17.81427490000351,0.014274900003510282,None,67.53757749999932,67.53757749999932,67.53757749999932,67.53757749999932,67.53757749999932,67.53757749999932,67.53757749999932,67.53757749999932,,003,P017,2025_Mar_07_1712,CategoryLocalizer,2021.2.3,59.92512954509443,
18.0,18.8,1,0.75,Stimuli\ImageFiles-Set1\Objects\Object_Boat_00001.png,0,0,0,13,13,13,,,,,,,,,,,,,18.01439460000256,0.014394600002560765,None,67.73773600000277,67.73773600000277,67.73773600000277,67.73773600000277,67.73773600000277,67.73773600000277,67.73773600000277,67.73773600000277,,003,P017,2025_Mar_07_1712,CategoryLocalizer,2021.2.3,59.92512954509443,
18.8,19.0,5,0.0,Stimuli\Blank.png,0,0,0,14,14,14,,,,,,,,,,,,,18.816069200001948,0.016069200001947337,None,68.53846740000154,68.53846740000154,68.53846740000154,68.53846740000154,68.53846740000154,68.53846740000154,68.53846740000154,68.53846740000154,,003,P017,2025_Mar_07_1712,CategoryLocalizer,2021.2.3,59.92512954509443,
19.0,19.8,1,0.75,Stimuli\ImageFiles-Set1\Objects\Object_Key_00001.png,0,0,0,15,15,15,,,,,,,,,,,,,18.999088500000653,-0.0009114999993471429,None,68.72196699999768,68.72196699999768,68.72196699999768,68.72196699999768,68.72196699999768,68.72196699999768,68.72196699999768,68.72196699999768,,003,P017,2025_Mar_07_1712,CategoryLocalizer,2021.2.3,59.92512954509443,
19.8,20.0,5,0.0,Stimuli\Blank.png,0,0,0,16,16,16,,,,,,,,,,,,,19.800050000005285,5.000000528454507e-05,None,69.5226702,69.5226702,69.5226702,69.5226702,69.5226702,69.5226702,69.5226702,69.5226702,,003,P017,2025_Mar_07_1712,CategoryLocalizer,2021.2.3,59.92512954509443,
20.0,20.8,1,0.75,Stimuli\ImageFiles-Set1\Objects\Object_Key_00001.png,1,1,0,17,17,17,,,,,,,,,,,,,19.999645700001565,-0.00035429999843472615,1,69.72279800000251,69.72279800000251,69.72279800000251,69.72279800000251,69.72279800000251,69.72279800000251,69.72279800000251,69.72279800000251,0.27428409999993164,003,P017,2025_Mar_07_1712,CategoryLocalizer,2021.2.3,59.92512954509443,
20.8,21.0,5,0.0,Stimuli\Blank.png,0,0,0,18,18,18,,,,,,,,,,,,,20.800402900000336,0.0004029000003349381,None,70.5235571000012,70.5235571000012,70.5235571000012,70.5235571000012,70.5235571000012,70.5235571000012,70.5235571000012,70.5235571000012,,003,P017,2025_Mar_07_1712,CategoryLocalizer,2021.2.3,59.92512954509443,
21.0,21.8,1,0.75,Stimuli\ImageFiles-Set1\Objects\Object_Crib_00001.png,0,0,0,19,19,19,,,,,,,,,,,,,21.000477599998703,0.00047759999870322645,None,70.74044660000072,70.74044660000072,70.74044660000072,70.74044660000072,70.74044660000072,70.74044660000072,70.74044660000072,70.74044660000072,,003,P017,2025_Mar_07_1712,CategoryLocalizer,2021.2.3,59.92512954509443,
21.8,22.0,5,0.0,Stimuli\Blank.png,0,0,0,20,20,20,,,,,,,,,,,,,21.819933700004185,0.019933700004184374,None,71.55794009999954,71.55794009999954,71.55794009999954,71.55794009999954,71.55794009999954,71.55794009999954,71.55794009999954,71.55794009999954,,003,P017,2025_Mar_07_1712,CategoryLocalizer,2021.2.3,59.92512954509443,
22.0,22.8,1,0.75,Stimuli\ImageFiles-Set1\Objects\Object_Motorcycle_00001.png,0,0,0,21,21,21,,,,,,,,,,,,,22.017974300004425,0.01797430000442546,None,71.74129800000082,71.74129800000082,71.74129800000082,71.74129800000082,71.74129800000082,71.74129800000082,71.74129800000082,71.74129800000082,,003,P017,2025_Mar_07_1712,CategoryLocalizer,2021.2.3,59.92512954509443,
22.8,23.0,5,0.0,Stimuli\Blank.png,0,0,0,22,22,22,,,,,,,,,,,,,22.803991900000256,0.003991900000254844,None,72.542016899999,72.542016899999,72.542016899999,72.542016899999,72.542016899999,72.542016899999,72.542016899999,72.542016899999,,003,P017,2025_Mar_07_1712,CategoryLocalizer,2021.2.3,59.92512954509443,
23.0,23.8,1,0.75,Stimuli\ImageFiles-Set1\Objects\Object_Watch_00001.png,0,0,0,23,23,23,,,,,,,,,,,,,23.01920870000322,0.019208700003218837,None,72.74218249999831,72.74218249999831,72.74218249999831,72.74218249999831,72.74218249999831,72.74218249999831,72.74218249999831,72.74218249999831,,003,P017,2025_Mar_07_1712,CategoryLocalizer,2021.2.3,59.92512954509443,
23.8,24.0,5,0.0,Stimuli\Blank.png,0,0,0,24,24,24,,,,,,,,,,,,,23.80378140000539,0.0037814000053906227,None,73.52621509999881,73.52621509999881,73.52621509999881,73.52621509999881,73.52621509999881,73.52621509999881,73.52621509999881,73.52621509999881,,003,P017,2025_Mar_07_1712,CategoryLocalizer,2021.2.3,59.92512954509443,
24.0,24.8,1,0.75,Stimuli\ImageFiles-Set1\Objects\Object_Bench_00001.png,0,0,0,25,25,25,,,,,,,,,,,,,24.00313499999902,0.003134999999019783,None,73.72638910000387,73.72638910000387,73.72638910000387,73.72638910000387,73.72638910000387,73.72638910000387,73.72638910000387,73.72638910000387,,003,P017,2025_Mar_07_1712,CategoryLocalizer,2021.2.3,59.92512954509443,
24.8,25.0,5,0.0,Stimuli\Blank.png,0,0,0,26,26,26,,,,,,,,,,,,,24.80435440000292,0.004354400002920755,None,74.52710260000458,74.52710260000458,74.52710260000458,74.52710260000458,74.52710260000458,74.52710260000458,74.52710260000458,74.52710260000458,,003,P017,2025_Mar_07_1712,CategoryLocalizer,2021.2.3,59.92512954509443,
25.0,25.8,1,0.75,Stimuli\ImageFiles-Set1\Objects\Object_Recliner_00001.png,0,0,0,27,27,27,,,,,,,,,,,,,25.004074800002854,0.004074800002854317,None,74.72727419999865,74.72727419999865,74.72727419999865,74.72727419999865,74.72727419999865,74.72727419999865,74.72727419999865,74.72727419999865,,003,P017,2025_Mar_07_1712,CategoryLocalizer,2021.2.3,59.92512954509443,
25.8,26.0,5,0.0,Stimuli\Blank.png,0,0,0,28,28,28,,,,,,,,,,,,,25.805240000001504,0.005240000001503375,None,75.52797870000359,75.52797870000359,75.52797870000359,75.52797870000359,75.52797870000359,75.52797870000359,75.52797870000359,75.52797870000359,,003,P017,2025_Mar_07_1712,CategoryLocalizer,2021.2.3,59.92512954509443,
26.0,26.8,1,0.75,Stimuli\ImageFiles-Set1\Objects\Object_Shirt_00001.png,0,0,0,29,29,29,,,,,,,,,,,,,26.005606700004137,0.0056067000041366555,None,75.72812790000171,75.72812790000171,75.72812790000171,75.72812790000171,75.72812790000171,75.72812790000171,75.72812790000171,75.72812790000171,,003,P017,2025_Mar_07_1712,CategoryLocalizer,2021.2.3,59.92512954509443,
26.8,27.0,5,0.0,Stimuli\Blank.png,0,0,0,30,30,30,,,,,,,,,,,,,26.806174199999077,0.006174199999076535,None,76.52886089999811,76.52886089999811,76.52886089999811,76.52886089999811,76.52886089999811,76.52886089999811,76.52886089999811,76.52886089999811,,003,P017,2025_Mar_07_1712,CategoryLocalizer,2021.2.3,59.92512954509443,
27.0,27.8,1,0.75,Stimuli\ImageFiles-Set1\Objects\Object_Brush_00001.png,0,0,0,31,31,31,,,,,,,,,,,,,27.005831800001033,0.005831800001033116,None,76.72903740000038,76.72903740000038,76.72903740000038,76.72903740000038,76.72903740000038,76.72903740000038,76.72903740000038,76.72903740000038,,003,P017,2025_Mar_07_1712,CategoryLocalizer,2021.2.3,59.92512954509443,
27.8,28.0,5,0.0,Stimuli\Blank.png,0,0,0,32,32,32,,,,,,,,,,,,,27.808777000005648,0.008777000005647295,None,77.54644289999851,77.54644289999851,77.54644289999851,77.54644289999851,77.54644289999851,77.54644289999851,77.54644289999851,77.54644289999851,,003,P017,2025_Mar_07_1712,CategoryLocalizer,2021.2.3,59.92512954509443,
28.0,28.8,2,0.75,Stimuli\ImageFiles-Set1\Bodies\Bodies_CobraPose_00003.png,0,0,0,33,33,33,,,,,,,,,,,,,28.024450600001728,0.024450600001728162,None,77.74660279999807,77.74660279999807,77.74660279999807,77.74660279999807,77.74660279999807,77.74660279999807,77.74660279999807,77.74660279999807,,003,P017,2025_Mar_07_1712,CategoryLocalizer,2021.2.3,59.92512954509443,
28.8,29.0,5,0.0,Stimuli\Blank.png,0,0,0,34,34,34,,,,,,,,,,,,,28.809968400004436,0.009968400004435551,None,78.54733349999879,78.54733349999879,78.54733349999879,78.54733349999879,78.54733349999879,78.54733349999879,78.54733349999879,78.54733349999879,,003,P017,2025_Mar_07_1712,CategoryLocalizer,2021.2.3,59.92512954509443,
29.0,29.8,2,0.75,Stimuli\ImageFiles-Set1\Bodies\Bodies_DownwardDog_00007.png,0,0,0,35,35,35,,,,,,,,,,,,,29.025445899998886,0.02544589999888558,None,78.7641724999994,78.7641724999994,78.7641724999994,78.7641724999994,78.7641724999994,78.7641724999994,78.7641724999994,78.7641724999994,,003,P017,2025_Mar_07_1712,CategoryLocalizer,2021.2.3,59.92512954509443,
29.8,30.0,5,0.0,Stimuli\Blank.png,0,0,0,36,36,36,,,,,,,,,,,,,29.824866800001473,0.024866800001472456,None,79.54820360000303,79.54820360000303,79.54820360000303,79.54820360000303,79.54820360000303,79.54820360000303,79.54820360000303,79.54820360000303,,003,P017,2025_Mar_07_1712,CategoryLocalizer,2021.2.3,59.92512954509443,
30.0,30.8,2,0.75,Stimuli\ImageFiles-Set1\Bodies\Bodies_Punching_00003.png,0,0,0,37,37,37,,,,,,,,,,,,,30.009279900004913,0.009279900004912633,None,79.74840519999998,79.74840519999998,79.74840519999998,79.74840519999998,79.74840519999998,79.74840519999998,79.74840519999998,79.74840519999998,,003,P017,2025_Mar_07_1712,CategoryLocalizer,2021.2.3,59.92512954509443,
30.8,31.0,5,0.0,Stimuli\Blank.png,0,0,0,38,38,38,,,,,,,,,,,,,30.82590180000261,0.025901800002610997,None,80.54908209999849,80.54908209999849,80.54908209999849,80.54908209999849,80.54908209999849,80.54908209999849,80.54908209999849,80.54908209999849,,003,P017,2025_Mar_07_1712,CategoryLocalizer,2021.2.3,59.92512954509443,
31.0,31.8,2,0.75,Stimuli\ImageFiles-Set1\Bodies\Bodies_Falling_00006.png,0,0,0,39,39,39,,,,,,,,,,,,,31.00991530000465,0.009915300004649907,None,80.74929880000127,80.74929880000127,80.74929880000127,80.74929880000127,80.74929880000127,80.74929880000127,80.74929880000127,80.74929880000127,,003,P017,2025_Mar_07_1712,CategoryLocalizer,2021.2.3,59.92512954509443,
31.8,32.0,5,0.0,Stimuli\Blank.png,0,0,0,40,40,40,,,,,,,,,,,,,31.8288887000017,0.028888700001697742,None,81.56668000000354,81.56668000000354,81.56668000000354,81.56668000000354,81.56668000000354,81.56668000000354,81.56668000000354,81.56668000000354,,003,P017,2025_Mar_07_1712,CategoryLocalizer,2021.2.3,59.92512954509443,
32.0,32.8,2,0.75,Stimuli\ImageFiles-Set1\Bodies\Bodies_QuadStretch_00005.png,0,0,0,41,41,41,,,,,,,,,,,,,32.02928260000044,0.02928260000044247,None,81.76686190000328,81.76686190000328,81.76686190000328,81.76686190000328,81.76686190000328,81.76686190000328,81.76686190000328,81.76686190000328,,003,P017,2025_Mar_07_1712,CategoryLocalizer,2021.2.3,59.92512954509443,
32.8,33.0,5,0.0,Stimuli\Blank.png,0,0,0,42,42,42,,,,,,,,,,,,,32.82814009999856,0.02814009999856637,None,82.55085749999853,82.55085749999853,82.55085749999853,82.55085749999853,82.55085749999853,82.55085749999853,82.55085749999853,82.55085749999853,,003,P017,2025_Mar_07_1712,CategoryLocalizer,2021.2.3,59.92512954509443,
33.0,33.8,2,0.75,Stimuli\ImageFiles-Set1\Bodies\Bodies_DownwardDog_00001.png,0,0,0,43,43,43,,,,,,,,,,,,,33.01376710000477,0.013767100004770327,None,82.75105530000292,82.75105530000292,82.75105530000292,82.75105530000292,82.75105530000292,82.75105530000292,82.75105530000292,82.75105530000292,,003,P017,2025_Mar_07_1712,CategoryLocalizer,2021.2.3,59.92512954509443,
33.8,34.0,5,0.0,Stimuli\Blank.png,0,0,0,44,44,44,,,,,,,,,,,,,33.828771000000415,0.028771000000418212,None,83.55173579999973,83.55173579999973,83.55173579999973,83.55173579999973,83.55173579999973,83.55173579999973,83.55173579999973,83.55173579999973,,003,P017,2025_Mar_07_1712,CategoryLocalizer,2021.2.3,59.92512954509443,
34.0,34.8,2,0.75,Stimuli\ImageFiles-Set1\Bodies\Bodies_PushUp_00004.png,0,0,0,45,45,45,,,,,,,,,,,,,34.0126694999999,0.012669499999901745,None,83.73524320000433,83.73524320000433,83.73524320000433,83.73524320000433,83.73524320000433,83.73524320000433,83.73524320000433,83.73524320000433,,003,P017,2025_Mar_07_1712,CategoryLocalizer,2021.2.3,59.92512954509443,
34.8,35.0,5,0.0,Stimuli\Blank.png,0,0,0,46,46,46,,,,,,,,,,,,,34.81268660000205,0.01268660000205557,None,84.53594359999988,84.53594359999988,84.53594359999988,84.53594359999988,84.53594359999988,84.53594359999988,84.53594359999988,84.53594359999988,,003,P017,2025_Mar_07_1712,CategoryLocalizer,2021.2.3,59.92512954509443,
35.0,35.8,2,0.75,Stimuli\ImageFiles-Set1\Bodies\Bodies_Kneeling_00007.png,0,0,0,47,47,47,,,,,,,,,,,,,35.01395670000056,0.013956700000562705,None,84.7528186999989,84.7528186999989,84.7528186999989,84.7528186999989,84.7528186999989,84.7528186999989,84.7528186999989,84.7528186999989,,003,P017,2025_Mar_07_1712,CategoryLocalizer,2021.2.3,59.92512954509443,
35.8,36.0,5,0.0,Stimuli\Blank.png,0,0,0,48,48,48,,,,,,,,,,,,,35.83024660000228,0.030246600002286073,None,85.55348490000324,85.55348490000324,85.55348490000324,85.55348490000324,85.55348490000324,85.55348490000324,85.55348490000324,85.55348490000324,,003,P017,2025_Mar_07_1712,CategoryLocalizer,2021.2.3,59.92512954509443,
36.0,36.8,2,0.75,Stimuli\ImageFiles-Set1\Bodies\Bodies_SittingFloor_00007.png,0,0,0,49,49,49,,,,,,,,,,,,,36.014430499999435,0.014430499999434687,None,85.73700670000107,85.73700670000107,85.73700670000107,85.73700670000107,85.73700670000107,85.73700670000107,85.73700670000107,85.73700670000107,,003,P017,2025_Mar_07_1712,CategoryLocalizer,2021.2.3,59.92512954509443,
36.8,37.0,5,0.0,Stimuli\Blank.png,0,0,0,50,50,50,,,,,,,,,,,,,36.814832200005185,0.014832200005187701,None,86.53771160000178,86.53771160000178,86.53771160000178,86.53771160000178,86.53771160000178,86.53771160000178,86.53771160000178,86.53771160000178,,003,P017,2025_Mar_07_1712,CategoryLocalizer,2021.2.3,59.92512954509443,
37.0,37.8,2,0.75,Stimuli\ImageFiles-Set1\Bodies\Bodies_CobraPose_00001.png,0,0,0,51,51,51,,,,,,,,,,,,,37.01542129999871,0.015421299998706672,None,86.73788549999881,86.73788549999881,86.73788549999881,86.73788549999881,86.73788549999881,86.73788549999881,86.73788549999881,86.73788549999881,,003,P017,2025_Mar_07_1712,CategoryLocalizer,2021.2.3,59.92512954509443,
37.8,38.0,5,0.0,Stimuli\Blank.png,0,0,0,52,52,52,,,,,,,,,,,,,37.79850940000324,-0.001490599996756714,None,87.52192600000126,87.52192600000126,87.52192600000126,87.52192600000126,87.52192600000126,87.52192600000126,87.52192600000126,87.52192600000126,,003,P017,2025_Mar_07_1712,CategoryLocalizer,2021.2.3,59.92512954509443,
38.0,38.8,2,0.75,Stimuli\ImageFiles-Set1\Bodies\Bodies_SittingStretch_00002.png,0,0,0,53,53,53,,,,,,,,,,,,,38.01595449999877,0.01595449999877019,None,87.75545850000344,87.75545850000344,87.75545850000344,87.75545850000344,87.75545850000344,87.75545850000344,87.75545850000344,87.75545850000344,,003,P017,2025_Mar_07_1712,CategoryLocalizer,2021.2.3,59.92512954509443,
38.8,39.0,5,0.0,Stimuli\Blank.png,0,0,0,54,54,54,,,,,,,,,,,,,38.81658280000556,0.016582800005565446,None,88.53948089999903,88.53948089999903,88.53948089999903,88.53948089999903,88.53948089999903,88.53948089999903,88.53948089999903,88.53948089999903,,003,P017,2025_Mar_07_1712,CategoryLocalizer,2021.2.3,59.92512954509443,
39.0,39.8,2,0.75,Stimuli\ImageFiles-Set1\Bodies\Bodies_Lunging_00004.png,0,0,0,55,55,55,,,,,,,,,,,,,38.99972260000504,-0.0002773999949567951,None,88.7229800999994,88.7229800999994,88.7229800999994,88.7229800999994,88.7229800999994,88.7229800999994,88.7229800999994,88.7229800999994,,003,P017,2025_Mar_07_1712,CategoryLocalizer,2021.2.3,59.92512954509443,
39.8,40.0,5,0.0,Stimuli\Blank.png,0,0,0,56,56,56,,,,,,,,,,,,,39.800407200003974,0.00040720000397698186,None,89.52367799999774,89.52367799999774,89.52367799999774,89.52367799999774,89.52367799999774,89.52367799999774,89.52367799999774,89.52367799999774,,003,P017,2025_Mar_07_1712,CategoryLocalizer,2021.2.3,59.92512954509443,
40.0,40.8,2,0.75,Stimuli\ImageFiles-Set1\Bodies\Bodies_Lunging_00004.png,1,1,0,57,57,57,,,,,,,,,,,,,40.00106080000114,0.0010608000011416152,1,89.7405448999998,89.7405448999998,89.7405448999998,89.7405448999998,89.7405448999998,89.7405448999998,89.7405448999998,89.7405448999998,0.34463610000238987,003,P017,2025_Mar_07_1712,CategoryLocalizer,2021.2.3,59.92512954509443,
40.8,41.0,5,0.0,Stimuli\Blank.png,0,0,0,58,58,58,,,,,,,,,,,,,40.819056100001035,0.019056100001037635,None,90.5412559000033,90.5412559000033,90.5412559000033,90.5412559000033,90.5412559000033,90.5412559000033,90.5412559000033,90.5412559000033,,003,P017,2025_Mar_07_1712,CategoryLocalizer,2021.2.3,59.92512954509443,
41.0,41.8,2,0.75,Stimuli\ImageFiles-Set1\Bodies\Bodies_Walking_00004.png,0,0,0,59,59,59,,,,,,,,,,,,,41.00217650000559,0.0021765000055893324,None,90.74142740000389,90.74142740000389,90.74142740000389,90.74142740000389,90.74142740000389,90.74142740000389,90.74142740000389,90.74142740000389,,003,P017,2025_Mar_07_1712,CategoryLocalizer,2021.2.3,59.92512954509443,
41.8,42.0,5,0.0,Stimuli\Blank.png,0,0,0,60,60,60,,,,,,,,,,,,,41.81934539999929,0.01934539999929541,None,91.54218080000282,91.54218080000282,91.54218080000282,91.54218080000282,91.54218080000282,91.54218080000282,91.54218080000282,91.54218080000282,,003,P017,2025_Mar_07_1712,CategoryLocalizer,2021.2.3,59.92512954509443,
42.0,42.8,2,0.75,Stimuli\ImageFiles-Set1\Bodies\Bodies_Falling_00002.png,0,0,0,61,61,61,,,,,,,,,,,,,42.004914000004646,0.004914000004646368,None,91.74232579999807,91.74232579999807,91.74232579999807,91.74232579999807,91.74232579999807,91.74232579999807,91.74232579999807,91.74232579999807,,003,P017,2025_Mar_07_1712,CategoryLocalizer,2021.2.3,59.92512954509443,
42.8,43.0,5,0.0,Stimuli\Blank.png,0,0,0,62,62,62,,,,,,,,,,,,,42.82029080000211,0.02029080000211536,None,92.54301929999929,92.54301929999929,92.54301929999929,92.54301929999929,92.54301929999929,92.54301929999929,92.54301929999929,92.54301929999929,,003,P017,2025_Mar_07_1712,CategoryLocalizer,2021.2.3,59.92512954509443,
43.0,43.8,2,0.75,Stimuli\ImageFiles-Set1\Bodies\Bodies_Crawling_00003.png,0,0,0,63,63,63,,,,,,,,,,,,,43.004158300005656,0.004158300005656201,None,92.74321690000215,92.74321690000215,92.74321690000215,92.74321690000215,92.74321690000215,92.74321690000215,92.74321690000215,92.74321690000215,,003,P017,2025_Mar_07_1712,CategoryLocalizer,2021.2.3,59.92512954509443,
43.8,44.0,5,0.0,Stimuli\Blank.png,0,0,0,64,64,64,,,,,,,,,,,,,43.820809000004374,0.0208090000043768,None,93.54390850000345,93.54390850000345,93.54390850000345,93.54390850000345,93.54390850000345,93.54390850000345,93.54390850000345,93.54390850000345,,003,P017,2025_Mar_07_1712,CategoryLocalizer,2021.2.3,59.92512954509443,
44.0,44.8,3,0.75,Stimuli\ImageFiles-Set1\Faces\Face_00055.png,0,0,0,65,65,65,,,,,,,,,,,,,44.00463380000292,0.004633800002920907,None,93.74408019999828,93.74408019999828,93.74408019999828,93.74408019999828,93.74408019999828,93.74408019999828,93.74408019999828,93.74408019999828,,003,P017,2025_Mar_07_1712,CategoryLocalizer,2021.2.3,59.92512954509443,
44.8,45.0,5,0.0,Stimuli\Blank.png,0,0,0,66,66,66,,,,,,,,,,,,,44.82296170000336,0.02296170000336417,None,94.54479050000373,94.54479050000373,94.54479050000373,94.54479050000373,94.54479050000373,94.54479050000373,94.54479050000373,94.54479050000373,,003,P017,2025_Mar_07_1712,CategoryLocalizer,2021.2.3,59.92512954509443,
45.0,45.8,3,0.75,Stimuli\ImageFiles-Set1\Faces\Face_00037.png,0,0,0,67,67,67,,,,,,,,,,,,,45.005199999999604,0.005199999999604188,None,94.7282825000002,94.7282825000002,94.7282825000002,94.7282825000002,94.7282825000002,94.7282825000002,94.7282825000002,94.7282825000002,,003,P017,2025_Mar_07_1712,CategoryLocalizer,2021.2.3,59.92512954509443,
45.8,46.0,5,0.0,Stimuli\Blank.png,0,0,0,68,68,68,,,,,,,,,,,,,45.80711780000274,0.0071178000027458665,None,95.52901140000176,95.52901140000176,95.52901140000176,95.52901140000176,95.52901140000176,95.52901140000176,95.52901140000176,95.52901140000176,,003,P017,2025_Mar_07_1712,CategoryLocalizer,2021.2.3,59.92512954509443,
46.0,46.8,3,0.75,Stimuli\ImageFiles-Set1\Faces\Face_00047.png,0,0,0,69,69,69,,,,,,,,,,,,,46.00573470000381,0.0057347000038134865,None,95.72916500000429,95.72916500000429,95.72916500000429,95.72916500000429,95.72916500000429,95.72916500000429,95.72916500000429,95.72916500000429,,003,P017,2025_Mar_07_1712,CategoryLocalizer,2021.2.3,59.92512954509443,
46.8,47.0,5,0.0,Stimuli\Blank.png,0,0,0,70,70,70,,,,,,,,,,,,,46.80818330000329,0.008183300003295813,None,96.52988929999992,96.52988929999992,96.52988929999992,96.52988929999992,96.52988929999992,96.52988929999992,96.52988929999992,96.52988929999992,,003,P017,2025_Mar_07_1712,CategoryLocalizer,2021.2.3,59.92512954509443,
47.0,47.8,3,0.75,Stimuli\ImageFiles-Set1\Faces\Face_00009.png,0,0,0,71,71,71,,,,,,,,,,,,,47.007656900001166,0.007656900001165923,None,96.73008680000203,96.73008680000203,96.73008680000203,96.73008680000203,96.73008680000203,96.73008680000203,96.73008680000203,96.73008680000203,,003,P017,2025_Mar_07_1712,CategoryLocalizer,2021.2.3,59.92512954509443,
47.8,48.0,5,0.0,Stimuli\Blank.png,0,0,0,72,72,72,,,,,,,,,,,,,47.80902570000035,0.009025700000350412,None,97.53077090000443,97.53077090000443,97.53077090000443,97.53077090000443,97.53077090000443,97.53077090000443,97.53077090000443,97.53077090000443,,003,P017,2025_Mar_07_1712,CategoryLocalizer,2021.2.3,59.92512954509443,
48.0,48.8,3,0.75,Stimuli\ImageFiles-Set1\Faces\Face_00001.png,0,0,0,73,73,73,,,,,,,,,,,,,48.00814150000224,0.0081415000022389,None,97.73093610000069,97.73093610000069,97.73093610000069,97.73093610000069,97.73093610000069,97.73093610000069,97.73093610000069,97.73093610000069,,003,P017,2025_Mar_07_1712,CategoryLocalizer,2021.2.3,59.92512954509443,
48.8,49.0,5,0.0,Stimuli\Blank.png,0,0,0,74,74,74,,,,,,,,,,,,,48.80886000000464,0.008860000004645485,None,98.53164749999996,98.53164749999996,98.53164749999996,98.53164749999996,98.53164749999996,98.53164749999996,98.53164749999996,98.53164749999996,,003,P017,2025_Mar_07_1712,CategoryLocalizer,2021.2.3,59.92512954509443,
49.0,49.8,3,0.75,Stimuli\ImageFiles-Set1\Faces\Face_00049.png,0,0,0,75,75,75,,,,,,,,,,,,,49.00948929999868,0.00948929999867687,None,98.74851180000405,98.74851180000405,98.74851180000405,98.74851180000405,98.74851180000405,98.74851180000405,98.74851180000405,98.74851180000405,,003,P017,2025_Mar_07_1712,CategoryLocalizer,2021.2.3,59.92512954509443,
49.8,50.0,5,0.0,Stimuli\Blank.png,0,0,0,76,76,76,,,,,,,,,,,,,49.82635819999996,0.026358199999961585,None,99.54921380000451,99.54921380000451,99.54921380000451,99.54921380000451,99.54921380000451,99.54921380000451,99.54921380000451,99.54921380000451,,003,P017,2025_Mar_07_1712,CategoryLocalizer,2021.2.3,59.92512954509443,
50.0,50.8,3,0.75,Stimuli\ImageFiles-Set1\Faces\Face_00005.png,0,0,0,77,77,77,,,,,,,,,,,,,50.0111526000037,0.011152600003697444,None,99.7494211000012,99.7494211000012,99.7494211000012,99.7494211000012,99.7494211000012,99.7494211000012,99.7494211000012,99.7494211000012,,003,P017,2025_Mar_07_1712,CategoryLocalizer,2021.2.3,59.92512954509443,
50.8,51.0,5,0.0,Stimuli\Blank.png,0,0,0,78,78,78,,,,,,,,,,,,,50.82859570000437,0.028595700004373725,None,100.56679209999857,100.56679209999857,100.56679209999857,100.56679209999857,100.56679209999857,100.56679209999857,100.56679209999857,100.56679209999857,,003,P017,2025_Mar_07_1712,CategoryLocalizer,2021.2.3,59.92512954509443,
51.0,51.8,3,0.75,Stimuli\ImageFiles-Set1\Faces\Face_00061.png,0,0,0,79,79,79,,,,,,,,,,,,,51.02991630000179,0.029916300001787022,None,100.76696670000092,100.76696670000092,100.76696670000092,100.76696670000092,100.76696670000092,100.76696670000092,100.76696670000092,100.76696670000092,,003,P017,2025_Mar_07_1712,CategoryLocalizer,2021.2.3,59.92512954509443,
51.8,52.0,5,0.0,Stimuli\Blank.png,0,0,0,80,80,80,,,,,,,,,,,,,51.82936840000184,0.029368400001843042,None,101.55099090000294,101.55099090000294,101.55099090000294,101.55099090000294,101.55099090000294,101.55099090000294,101.55099090000294,101.55099090000294,,003,P017,2025_Mar_07_1712,CategoryLocalizer,2021.2.3,59.92512954509443,
52.0,52.8,3,0.75,Stimuli\ImageFiles-Set1\Faces\Face_00103.png,0,0,0,81,81,81,,,,,,,,,,,,,52.01115560000471,0.011155600004713051,None,101.7344746000017,101.7344746000017,101.7344746000017,101.7344746000017,101.7344746000017,101.7344746000017,101.7344746000017,101.7344746000017,,003,P017,2025_Mar_07_1712,CategoryLocalizer,2021.2.3,59.92512954509443,
52.8,53.0,5,0.0,Stimuli\Blank.png,0,0,0,82,82,82,,,,,,,,,,,,,52.813677500002086,0.013677500002089005,None,102.55187190000288,102.55187190000288,102.55187190000288,102.55187190000288,102.55187190000288,102.55187190000288,102.55187190000288,102.55187190000288,,003,P017,2025_Mar_07_1712,CategoryLocalizer,2021.2.3,59.92512954509443,
53.0,53.8,3,0.75,Stimuli\ImageFiles-Set1\Faces\Face_00089.png,0,0,0,83,83,83,,,,,,,,,,,,,53.02919730000576,0.029197300005762372,None,102.76872459999868,102.76872459999868,102.76872459999868,102.76872459999868,102.76872459999868,102.76872459999868,102.76872459999868,102.76872459999868,,003,P017,2025_Mar_07_1712,CategoryLocalizer,2021.2.3,59.92512954509443,
53.8,54.0,5,0.0,Stimuli\Blank.png,0,0,0,84,84,84,,,,,,,,,,,,,53.829899500000465,0.029899500000468038,None,103.55275160000019,103.55275160000019,103.55275160000019,103.55275160000019,103.55275160000019,103.55275160000019,103.55275160000019,103.55275160000019,,003,P017,2025_Mar_07_1712,CategoryLocalizer,2021.2.3,59.92512954509443,
54.0,54.8,3,0.75,Stimuli\ImageFiles-Set1\Faces\Face_00119.png,0,0,0,85,85,85,,,,,,,,,,,,,54.01300320000155,0.013003200001548976,None,103.73624579999887,103.73624579999887,103.73624579999887,103.73624579999887,103.73624579999887,103.73624579999887,103.73624579999887,103.73624579999887,,003,P017,2025_Mar_07_1712,CategoryLocalizer,2021.2.3,59.92512954509443,
54.8,55.0,5,0.0,Stimuli\Blank.png,0,0,0,86,86,86,,,,,,,,,,,,,54.81470650000119,0.014706500001196332,None,104.53696050000144,104.53696050000144,104.53696050000144,104.53696050000144,104.53696050000144,104.53696050000144,104.53696050000144,104.53696050000144,,003,P017,2025_Mar_07_1712,CategoryLocalizer,2021.2.3,59.92512954509443,
55.0,55.8,3,0.75,Stimuli\ImageFiles-Set1\Faces\Face_00071.png,0,0,0,87,87,87,,,,,,,,,,,,,55.01440920000459,0.014409200004593004,None,104.75383470000088,104.75383470000088,104.75383470000088,104.75383470000088,104.75383470000088,104.75383470000088,104.75383470000088,104.75383470000088,,003,P017,2025_Mar_07_1712,CategoryLocalizer,2021.2.3,59.92512954509443,
55.8,56.0,5,0.0,Stimuli\Blank.png,0,0,0,88,88,88,,,,,,,,,,,,,55.83382520000305,0.03382520000305078,None,105.57121740000002,105.57121740000002,105.57121740000002,105.57121740000002,105.57121740000002,105.57121740000002,105.57121740000002,105.57121740000002,,003,P017,2025_Mar_07_1712,CategoryLocalizer,2021.2.3,59.92512954509443,
56.0,56.8,3,0.75,Stimuli\ImageFiles-Set1\Faces\Face_00079.png,0,0,0,89,89,89,,,,,,,,,,,,,56.01534579999861,0.015345799998613074,None,105.75469090000115,105.75469090000115,105.75469090000115,105.75469090000115,105.75469090000115,105.75469090000115,105.75469090000115,105.75469090000115,,003,P017,2025_Mar_07_1712,CategoryLocalizer,2021.2.3,59.92512954509443,
56.8,57.0,5,0.0,Stimuli\Blank.png,0,0,0,90,90,90,,,,,,,,,,,,,56.815411499999755,0.015411499999757439,None,106.53872720000072,106.53872720000072,106.53872720000072,106.53872720000072,106.53872720000072,106.53872720000072,106.53872720000072,106.53872720000072,,003,P017,2025_Mar_07_1712,CategoryLocalizer,2021.2.3,59.92512954509443,
57.0,57.8,3,0.75,Stimuli\ImageFiles-Set1\Faces\Face_00079.png,1,1,0,91,91,91,,,,,,,,,,,,,57.01614270000573,0.01614270000573015,1,106.73889629999758,106.73889629999758,106.73889629999758,106.73889629999758,106.73889629999758,106.73889629999758,106.73889629999758,106.73889629999758,0.692106700000295,003,P017,2025_Mar_07_1712,CategoryLocalizer,2021.2.3,59.92512954509443,
57.8,58.0,5,0.0,Stimuli\Blank.png,0,0,0,92,92,92,,,,,,,,,,,,,57.79969330000313,-0.0003066999968694972,None,107.52293330000248,107.52293330000248,107.52293330000248,107.52293330000248,107.52293330000248,107.52293330000248,107.52293330000248,107.52293330000248,,003,P017,2025_Mar_07_1712,CategoryLocalizer,2021.2.3,59.92512954509443,
58.0,58.8,3,0.75,Stimuli\ImageFiles-Set1\Faces\Face_00045.png,0,0,0,93,93,93,,,,,,,,,,,,,58.00032920000376,0.00032920000376179814,None,107.73978870000428,107.73978870000428,107.73978870000428,107.73978870000428,107.73978870000428,107.73978870000428,107.73978870000428,107.73978870000428,,003,P017,2025_Mar_07_1712,CategoryLocalizer,2021.2.3,59.92512954509443,
58.8,59.0,5,0.0,Stimuli\Blank.png,0,0,0,94,94,94,,,,,,,,,,,,,58.81896940000297,0.018969400002973202,None,108.55721030000132,108.55721030000132,108.55721030000132,108.55721030000132,108.55721030000132,108.55721030000132,108.55721030000132,108.55721030000132,,003,P017,2025_Mar_07_1712,CategoryLocalizer,2021.2.3,59.92512954509443,
59.0,59.8,3,0.75,Stimuli\ImageFiles-Set1\Faces\Face_00031.png,0,0,0,95,95,95,,,,,,,,,,,,,59.019772899999225,0.019772899999225046,None,108.75736160000088,108.75736160000088,108.75736160000088,108.75736160000088,108.75736160000088,108.75736160000088,108.75736160000088,108.75736160000088,,003,P017,2025_Mar_07_1712,CategoryLocalizer,2021.2.3,59.92512954509443,
59.8,60.0,5,0.0,Stimuli\Blank.png,0,0,0,96,96,96,,,,,,,,,,,,,59.81918620000215,0.019186200002152987,None,109.54137920000358,109.54137920000358,109.54137920000358,109.54137920000358,109.54137920000358,109.54137920000358,109.54137920000358,109.54137920000358,,003,P017,2025_Mar_07_1712,CategoryLocalizer,2021.2.3,59.92512954509443,
60.0,60.8,4,0.75,Stimuli\ImageFiles-Set1\Scenes\Scenes_034.png,0,0,0,97,97,97,,,,,,,,,,,,,60.00374820000434,0.003748200004338287,None,109.74151949999941,109.74151949999941,109.74151949999941,109.74151949999941,109.74151949999941,109.74151949999941,109.74151949999941,109.74151949999941,,003,P017,2025_Mar_07_1712,CategoryLocalizer,2021.2.3,59.92512954509443,
60.8,61.0,5,0.0,Stimuli\Blank.png,0,0,0,98,98,98,,,,,,,,,,,,,60.81963930000347,0.019639300003476023,None,110.54227959999844,110.54227959999844,110.54227959999844,110.54227959999844,110.54227959999844,110.54227959999844,110.54227959999844,110.54227959999844,,003,P017,2025_Mar_07_1712,CategoryLocalizer,2021.2.3,59.92512954509443,
61.0,61.8,4,0.75,Stimuli\ImageFiles-Set1\Scenes\Scenes_016.png,0,0,0,99,99,99,,,,,,,,,,,,,61.00348120000126,0.0034812000012607314,None,110.74244429999817,110.74244429999817,110.74244429999817,110.74244429999817,110.74244429999817,110.74244429999817,110.74244429999817,110.74244429999817,,003,P017,2025_Mar_07_1712,CategoryLocalizer,2021.2.3,59.92512954509443,
61.8,62.0,5,0.0,Stimuli\Blank.png,0,0,0,100,100,100,,,,,,,,,,,,,61.81976880000002,0.01976880000002268,None,111.54318939999939,111.54318939999939,111.54318939999939,111.54318939999939,111.54318939999939,111.54318939999939,111.54318939999939,111.54318939999939,,003,P017,2025_Mar_07_1712,CategoryLocalizer,2021.2.3,59.92512954509443,
62.0,62.8,4,0.75,Stimuli\ImageFiles-Set1\Scenes\Scenes_012.png,0,0,0,101,101,101,,,,,,,,,,,,,62.00416920000134,0.004169200001342688,None,111.74333009999827,111.74333009999827,111.74333009999827,111.74333009999827,111.74333009999827,111.74333009999827,111.74333009999827,111.74333009999827,,003,P017,2025_Mar_07_1712,CategoryLocalizer,2021.2.3,59.92512954509443,
62.8,63.0,5,0.0,Stimuli\Blank.png,0,0,0,102,102,102,,,,,,,,,,,,,62.820905100001255,0.020905100001257892,None,112.54403280000406,112.54403280000406,112.54403280000406,112.54403280000406,112.54403280000406,112.54403280000406,112.54403280000406,112.54403280000406,,003,P017,2025_Mar_07_1712,CategoryLocalizer,2021.2.3,59.92512954509443,
63.0,63.8,4,0.75,Stimuli\ImageFiles-Set1\Scenes\Scenes_017.png,0,0,0,103,103,103,,,,,,,,,,,,,63.00486820000515,0.0048682000051485375,None,112.72751979999884,112.72751979999884,112.72751979999884,112.72751979999884,112.72751979999884,112.72751979999884,112.72751979999884,112.72751979999884,,003,P017,2025_Mar_07_1712,CategoryLocalizer,2021.2.3,59.92512954509443,
63.8,64.0,5,0.0,Stimuli\Blank.png,0,0,0,104,104,104,,,,,,,,,,,,,63.80516830000124,0.0051683000012445746,None,113.52823019999778,113.52823019999778,113.52823019999778,113.52823019999778,113.52823019999778,113.52823019999778,113.52823019999778,113.52823019999778,,003,P017,2025_Mar_07_1712,CategoryLocalizer,2021.2.3,59.92512954509443,
64.0,64.8,4,0.75,Stimuli\ImageFiles-Set1\Scenes\Scenes_002.png,0,0,0,105,105,105,,,,,,,,,,,,,64.00573119999899,0.005731199998990633,None,113.72836960000132,113.72836960000132,113.72836960000132,113.72836960000132,113.72836960000132,113.72836960000132,113.72836960000132,113.72836960000132,,003,P017,2025_Mar_07_1712,CategoryLocalizer,2021.2.3,59.92512954509443,
64.8,65.0,5,0.0,Stimuli\Blank.png,0,0,0,106,106,106,,,,,,,,,,,,,64.80578000000241,0.005780000002417296,None,114.52911029999814,114.52911029999814,114.52911029999814,114.52911029999814,114.52911029999814,114.52911029999814,114.52911029999814,114.52911029999814,,003,P017,2025_Mar_07_1712,CategoryLocalizer,2021.2.3,59.92512954509443,
65.0,65.8,4,0.75,Stimuli\ImageFiles-Set1\Scenes\Scenes_024.png,0,0,0,107,107,107,,,,,,,,,,,,,65.00626230000489,0.0062623000048915856,None,114.72929160000058,114.72929160000058,114.72929160000058,114.72929160000058,114.72929160000058,114.72929160000058,114.72929160000058,114.72929160000058,,003,P017,2025_Mar_07_1712,CategoryLocalizer,2021.2.3,59.92512954509443,
65.8,66.0,5,0.0,Stimuli\Blank.png,0,0,0,108,108,108,,,,,,,,,,,,,65.80663720000302,0.006637200003027033,None,115.53000099999917,115.53000099999917,115.53000099999917,115.53000099999917,115.53000099999917,115.53000099999917,115.53000099999917,115.53000099999917,,003,P017,2025_Mar_07_1712,CategoryLocalizer,2021.2.3,59.92512954509443,
66.0,66.8,4,0.75,Stimuli\ImageFiles-Set1\Scenes\Scenes_024.png,1,1,0,109,109,109,,,,,,,,,,,,,66.00807550000172,0.008075500001723412,1,115.74686920000386,115.74686920000386,115.74686920000386,115.74686920000386,115.74686920000386,115.74686920000386,115.74686920000386,115.74686920000386,0.3783203999992111,003,P017,2025_Mar_07_1712,CategoryLocalizer,2021.2.3,59.92512954509443,
66.8,67.0,5,0.0,Stimuli\Blank.png,0,0,0,110,110,110,,,,,,,,,,,,,66.82484739999927,0.02484739999927399,None,116.54757640000025,116.54757640000025,116.54757640000025,116.54757640000025,116.54757640000025,116.54757640000025,116.54757640000025,116.54757640000025,,003,P017,2025_Mar_07_1712,CategoryLocalizer,2021.2.3,59.92512954509443,
67.0,67.8,4,0.75,Stimuli\ImageFiles-Set1\Scenes\Scenes_038.png,0,0,0,111,111,111,,,,,,,,,,,,,67.00813810000545,0.008138100005453452,None,116.73105740000028,116.73105740000028,116.73105740000028,116.73105740000028,116.73105740000028,116.73105740000028,116.73105740000028,116.73105740000028,,003,P017,2025_Mar_07_1712,CategoryLocalizer,2021.2.3,59.92512954509443,
67.8,68.0,5,0.0,Stimuli\Blank.png,0,0,0,112,112,112,,,,,,,,,,,,,67.80903450000187,0.009034500001874335,None,117.54848189999757,117.54848189999757,117.54848189999757,117.54848189999757,117.54848189999757,117.54848189999757,117.54848189999757,117.54848189999757,,003,P017,2025_Mar_07_1712,CategoryLocalizer,2021.2.3,59.92512954509443,
68.0,68.8,4,0.75,Stimuli\ImageFiles-Set1\Scenes\Scenes_020.png,0,0,0,113,113,113,,,,,,,,,,,,,68.02609250000387,0.026092500003869645,None,117.76532009999937,117.76532009999937,117.76532009999937,117.76532009999937,117.76532009999937,117.76532009999937,117.76532009999937,117.76532009999937,,003,P017,2025_Mar_07_1712,CategoryLocalizer,2021.2.3,59.92512954509443,
68.8,69.0,5,0.0,Stimuli\Blank.png,0,0,0,114,114,114,,,,,,,,,,,,,68.82643900000403,0.02643900000403221,None,118.54933410000376,118.54933410000376,118.54933410000376,118.54933410000376,118.54933410000376,118.54933410000376,118.54933410000376,118.54933410000376,,003,P017,2025_Mar_07_1712,CategoryLocalizer,2021.2.3,59.92512954509443,
69.0,69.8,4,0.75,Stimuli\ImageFiles-Set1\Scenes\Scenes_050.png,0,0,0,115,115,115,,,,,,,,,,,,,69.01002470000094,0.010024700000940356,None,118.73283459999948,118.73283459999948,118.73283459999948,118.73283459999948,118.73283459999948,118.73283459999948,118.73283459999948,118.73283459999948,,003,P017,2025_Mar_07_1712,CategoryLocalizer,2021.2.3,59.92512954509443,
69.8,70.0,5,0.0,Stimuli\Blank.png,0,0,0,116,116,116,,,,,,,,,,,,,69.81014150000556,0.010141500005559578,None,119.53354480000417,119.53354480000417,119.53354480000417,119.53354480000417,119.53354480000417,119.53354480000417,119.53354480000417,119.53354480000417,,003,P017,2025_Mar_07_1712,CategoryLocalizer,2021.2.3,59.92512954509443,
70.0,70.8,4,0.75,Stimuli\ImageFiles-Set1\Scenes\Scenes_014.png,0,0,0,117,117,117,,,,,,,,,,,,,70.01033420000022,0.010334200000215787,None,119.73372720000043,119.73372720000043,119.73372720000043,119.73372720000043,119.73372720000043,119.73372720000043,119.73372720000043,119.73372720000043,,003,P017,2025_Mar_07_1712,CategoryLocalizer,2021.2.3,59.92512954509443,
70.8,71.0,5,0.0,Stimuli\Blank.png,0,0,0,118,118,118,,,,,,,,,,,,,70.81184110000322,0.011841100003223914,None,120.53444419999869,120.53444419999869,120.53444419999869,120.53444419999869,120.53444419999869,120.53444419999869,120.53444419999869,120.53444419999869,,003,P017,2025_Mar_07_1712,CategoryLocalizer,2021.2.3,59.92512954509443,
71.0,71.8,4,0.75,Stimuli\ImageFiles-Set1\Scenes\Scenes_001.png,0,0,0,119,119,119,,,,,,,,,,,,,71.0111909000043,0.011190900004294235,None,120.73460209999757,120.73460209999757,120.73460209999757,120.73460209999757,120.73460209999757,120.73460209999757,120.73460209999757,120.73460209999757,,003,P017,2025_Mar_07_1712,CategoryLocalizer,2021.2.3,59.92512954509443,
71.8,72.0,5,0.0,Stimuli\Blank.png,0,0,0,120,120,120,,,,,,,,,,,,,71.81489130000409,0.014891300004094887,None,121.55199749999883,121.55199749999883,121.55199749999883,121.55199749999883,121.55199749999883,121.55199749999883,121.55199749999883,121.55199749999883,,003,P017,2025_Mar_07_1712,CategoryLocalizer,2021.2.3,59.92512954509443,
72.0,72.8,4,0.75,Stimuli\ImageFiles-Set1\Scenes\Scenes_053.png,0,0,0,121,121,121,,,,,,,,,,,,,72.02935460000299,0.029354600002989173,None,121.75218770000356,121.75218770000356,121.75218770000356,121.75218770000356,121.75218770000356,121.75218770000356,121.75218770000356,121.75218770000356,,003,P017,2025_Mar_07_1712,CategoryLocalizer,2021.2.3,59.92512954509443,
72.8,73.0,5,0.0,Stimuli\Blank.png,0,0,0,122,122,122,,,,,,,,,,,,,72.81359860000521,0.01359860000520996,None,122.53620100000262,122.53620100000262,122.53620100000262,122.53620100000262,122.53620100000262,122.53620100000262,122.53620100000262,122.53620100000262,,003,P017,2025_Mar_07_1712,CategoryLocalizer,2021.2.3,59.92512954509443,
73.0,73.8,4,0.75,Stimuli\ImageFiles-Set1\Scenes\Scenes_037.png,1,1,0,123,123,123,,,,,,,,,,,,,73.01291940000374,0.012919400003738701,None,122.73638310000388,122.73638310000388,122.73638310000388,122.73638310000388,122.73638310000388,122.73638310000388,122.73638310000388,122.73638310000388,,003,P017,2025_Mar_07_1712,CategoryLocalizer,2021.2.3,59.92512954509443,
73.8,74.0,5,0.0,Stimuli\Blank.png,0,0,0,124,124,124,,,,,,,,,,,,,73.81407420000323,0.014074200003236115,None,123.53709810000146,123.53709810000146,123.53709810000146,123.53709810000146,123.53709810000146,123.53709810000146,123.53709810000146,123.53709810000146,,003,P017,2025_Mar_07_1712,CategoryLocalizer,2021.2.3,59.92512954509443,
74.0,74.8,4,0.75,Stimuli\ImageFiles-Set1\Scenes\Scenes_048.png,0,0,0,125,125,125,,,,,,,,,,,,,74.01405700000032,0.01405700000032084,None,123.7539453999998,123.7539453999998,123.7539453999998,123.7539453999998,123.7539453999998,123.7539453999998,123.7539453999998,123.7539453999998,,003,P017,2025_Mar_07_1712,CategoryLocalizer,2021.2.3,59.92512954509443,
74.8,75.0,5,0.0,Stimuli\Blank.png,0,0,0,126,126,126,,,,,,,,,,,,,74.83145830000285,0.031458300002853434,None,124.5547005000044,124.5547005000044,124.5547005000044,124.5547005000044,124.5547005000044,124.5547005000044,124.5547005000044,124.5547005000044,,003,P017,2025_Mar_07_1712,CategoryLocalizer,2021.2.3,59.92512954509443,
75.0,75.8,4,0.75,Stimuli\ImageFiles-Set1\Scenes\Scenes_048.png,0,0,0,127,127,127,,,,,,,,,,,,,75.01546710000548,0.01546710000548046,1,124.7381411000024,124.7381411000024,124.7381411000024,124.7381411000024,124.7381411000024,124.7381411000024,124.7381411000024,124.7381411000024,0.5060702999981004,003,P017,2025_Mar_07_1712,CategoryLocalizer,2021.2.3,59.92512954509443,
75.8,76.0,5,0.0,Stimuli\Blank.png,0,0,0,128,128,128,,,,,,,,,,,,,75.79955280000286,-0.00044719999714004643,None,125.52217830000154,125.52217830000154,125.52217830000154,125.52217830000154,125.52217830000154,125.52217830000154,125.52217830000154,125.52217830000154,,003,P017,2025_Mar_07_1712,CategoryLocalizer,2021.2.3,59.92512954509443,
76.0,88.0,0,0.0,Stimuli\Blank.png,0,0,0,129,129,129,,,,,,,,,,,,,76.00083019999875,0.0008301999987452291,None,125.72231930000271,125.72231930000271,125.72231930000271,125.72231930000271,125.72231930000271,125.72231930000271,125.72231930000271,125.72231930000271,,003,P017,2025_Mar_07_1712,CategoryLocalizer,2021.2.3,59.92512954509443,
88.0,88.8,3,0.75,Stimuli\ImageFiles-Set1\Faces\Face_00012.png,0,0,0,130,130,130,,,,,,,,,,,,,88.00960950000444,0.009609500004444271,None,137.74967350000225,137.74967350000225,137.74967350000225,137.74967350000225,137.74967350000225,137.74967350000225,137.74967350000225,137.74967350000225,,003,P017,2025_Mar_07_1712,CategoryLocalizer,2021.2.3,59.92512954509443,
88.8,89.0,5,0.0,Stimuli\Blank.png,0,0,0,131,131,131,,,,,,,,,,,,,88.82964220000576,0.02964220000576745,None,138.5670442000046,138.5670442000046,138.5670442000046,138.5670442000046,138.5670442000046,138.5670442000046,138.5670442000046,138.5670442000046,,003,P017,2025_Mar_07_1712,CategoryLocalizer,2021.2.3,59.92512954509443,
89.0,89.8,3,0.75,Stimuli\ImageFiles-Set1\Faces\Face_00057.png,0,0,0,132,132,132,,,,,,,,,,,,,89.0283277999988,0.028327799998805858,None,138.7505347000042,138.7505347000042,138.7505347000042,138.7505347000042,138.7505347000042,138.7505347000042,138.7505347000042,138.7505347000042,,003,P017,2025_Mar_07_1712,CategoryLocalizer,2021.2.3,59.92512954509443,
89.8,90.0,5,0.0,Stimuli\Blank.png,0,0,0,133,133,133,,,,,,,,,,,,,89.81374789999973,0.013747899999728475,None,139.55126600000222,139.55126600000222,139.55126600000222,139.55126600000222,139.55126600000222,139.55126600000222,139.55126600000222,139.55126600000222,,003,P017,2025_Mar_07_1712,CategoryLocalizer,2021.2.3,59.92512954509443,
90.0,90.8,3,0.75,Stimuli\ImageFiles-Set1\Faces\Face_00059.png,0,0,0,134,134,134,,,,,,,,,,,,,90.02808110000478,0.028081100004783366,None,139.75142400000186,139.75142400000186,139.75142400000186,139.75142400000186,139.75142400000186,139.75142400000186,139.75142400000186,139.75142400000186,,003,P017,2025_Mar_07_1712,CategoryLocalizer,2021.2.3,59.92512954509443,
90.8,91.0,5,0.0,Stimuli\Blank.png,0,0,0,135,135,135,,,,,,,,,,,,,90.81444069999998,0.014440699999980211,None,140.55213889999868,140.55213889999868,140.55213889999868,140.55213889999868,140.55213889999868,140.55213889999868,140.55213889999868,140.55213889999868,,003,P017,2025_Mar_07_1712,CategoryLocalizer,2021.2.3,59.92512954509443,
91.0,91.8,3,0.75,Stimuli\ImageFiles-Set1\Faces\Face_00059.png,1,1,0,136,136,136,,,,,,,,,,,,,91.03073380000569,0.03073380000569159,1,140.76898220000294,140.76898220000294,140.76898220000294,140.76898220000294,140.76898220000294,140.76898220000294,140.76898220000294,140.76898220000294,0.49124429999938,003,P017,2025_Mar_07_1712,CategoryLocalizer,2021.2.3,59.92512954509443,
91.8,92.0,5,0.0,Stimuli\Blank.png,0,0,0,137,137,137,,,,,,,,,,,,,91.82974480000121,0.029744800001211047,None,141.55300430000352,141.55300430000352,141.55300430000352,141.55300430000352,141.55300430000352,141.55300430000352,141.55300430000352,141.55300430000352,,003,P017,2025_Mar_07_1712,CategoryLocalizer,2021.2.3,59.92512954509443,
92.0,92.8,3,0.75,Stimuli\ImageFiles-Set1\Faces\Face_00065.png,0,0,0,138,138,138,,,,,,,,,,,,,92.01342880000448,0.013428800004476216,None,141.75320730000385,141.75320730000385,141.75320730000385,141.75320730000385,141.75320730000385,141.75320730000385,141.75320730000385,141.75320730000385,,003,P017,2025_Mar_07_1712,CategoryLocalizer,2021.2.3,59.92512954509443,
92.8,93.0,5,0.0,Stimuli\Blank.png,0,0,0,139,139,139,,,,,,,,,,,,,92.83060829999886,0.03060829999886039,None,142.5539471000011,142.5539471000011,142.5539471000011,142.5539471000011,142.5539471000011,142.5539471000011,142.5539471000011,142.5539471000011,,003,P017,2025_Mar_07_1712,CategoryLocalizer,2021.2.3,59.92512954509443,
93.0,93.8,3,0.75,Stimuli\ImageFiles-Set1\Faces\Face_00117.png,0,0,0,140,140,140,,,,,,,,,,,,,93.01430529999925,0.014305299999250565,None,142.73745739999868,142.73745739999868,142.73745739999868,142.73745739999868,142.73745739999868,142.73745739999868,142.73745739999868,142.73745739999868,,003,P017,2025_Mar_07_1712,CategoryLocalizer,2021.2.3,59.92512954509443,
93.8,94.0,5,0.0,Stimuli\Blank.png,0,0,0,141,141,141,,,,,,,,,,,,,93.81471199999942,0.0147119999994203,None,143.53810209999938,143.53810209999938,143.53810209999938,143.53810209999938,143.53810209999938,143.53810209999938,143.53810209999938,143.53810209999938,,003,P017,2025_Mar_07_1712,CategoryLocalizer,2021.2.3,59.92512954509443,
94.0,94.8,3,0.75,Stimuli\ImageFiles-Set1\Faces\Face_00073.png,0,0,0,142,142,142,,,,,,,,,,,,,94.0150186000028,0.015018600002804305,None,143.7382667999991,143.7382667999991,143.7382667999991,143.7382667999991,143.7382667999991,143.7382667999991,143.7382667999991,143.7382667999991,,003,P017,2025_Mar_07_1712,CategoryLocalizer,2021.2.3,59.92512954509443,
94.8,95.0,5,0.0,Stimuli\Blank.png,0,0,0,143,143,143,,,,,,,,,,,,,94.79948950000107,-0.0005104999989242742,None,144.52229929999885,144.52229929999885,144.52229929999885,144.52229929999885,144.52229929999885,144.52229929999885,144.52229929999885,144.52229929999885,,003,P017,2025_Mar_07_1712,CategoryLocalizer,2021.2.3,59.92512954509443,
95.0,95.8,3,0.75,Stimuli\ImageFiles-Set1\Faces\Face_00035.png,0,0,0,144,144,144,,,,,,,,,,,,,94.99984780000523,-0.00015219999477267265,None,144.73919330000354,144.73919330000354,144.73919330000354,144.73919330000354,144.73919330000354,144.73919330000354,144.73919330000354,144.73919330000354,,003,P017,2025_Mar_07_1712,CategoryLocalizer,2021.2.3,59.92512954509443,
95.8,96.0,5,0.0,Stimuli\Blank.png,0,0,0,145,145,145,,,,,,,,,,,,,95.81896039999992,0.01896039999992638,None,145.55655030000344,145.55655030000344,145.55655030000344,145.55655030000344,145.55655030000344,145.55655030000344,145.55655030000344,145.55655030000344,,003,P017,2025_Mar_07_1712,CategoryLocalizer,2021.2.3,59.92512954509443,
96.0,96.8,3,0.75,Stimuli\ImageFiles-Set1\Faces\Face_00101.png,1,1,0,146,146,146,,,,,,,,,,,,,96.01772400000482,0.017724000004818663,None,145.74003300000186,145.74003300000186,145.74003300000186,145.74003300000186,145.74003300000186,145.74003300000186,145.74003300000186,145.74003300000186,,003,P017,2025_Mar_07_1712,CategoryLocalizer,2021.2.3,59.92512954509443,
96.8,97.0,5,0.0,Stimuli\Blank.png,0,0,0,147,147,147,,,,,,,,,,,,,96.80115389999992,0.001153899999920327,None,146.52407540000422,146.52407540000422,146.52407540000422,146.52407540000422,146.52407540000422,146.52407540000422,146.52407540000422,146.52407540000422,,003,P017,2025_Mar_07_1712,CategoryLocalizer,2021.2.3,59.92512954509443,
97.0,97.8,3,0.75,Stimuli\ImageFiles-Set1\Faces\Face_00027.png,0,0,0,148,148,148,,,,,,,,,,,,,97.00083209999866,0.0008320999986608513,None,146.74094319999858,146.74094319999858,146.74094319999858,146.74094319999858,146.74094319999858,146.74094319999858,146.74094319999858,146.74094319999858,,003,P017,2025_Mar_07_1712,CategoryLocalizer,2021.2.3,59.92512954509443,
97.8,98.0,5,0.0,Stimuli\Blank.png,0,0,0,149,149,149,,,,,,,,,,,,,97.81888400000025,0.018884000000255696,None,147.54163990000234,147.54163990000234,147.54163990000234,147.54163990000234,147.54163990000234,147.54163990000234,147.54163990000234,147.54163990000234,,003,P017,2025_Mar_07_1712,CategoryLocalizer,2021.2.3,59.92512954509443,
98.0,98.8,3,0.75,Stimuli\ImageFiles-Set1\Faces\Face_00027.png,0,0,0,150,150,150,,,,,,,,,,,,,98.00380940000468,0.0038094000046839938,1,147.74180970000452,147.74180970000452,147.74180970000452,147.74180970000452,147.74180970000452,147.74180970000452,147.74180970000452,147.74180970000452,0.3951920000035898,003,P017,2025_Mar_07_1712,CategoryLocalizer,2021.2.3,59.92512954509443,
98.8,99.0,5,0.0,Stimuli\Blank.png,0,0,0,151,151,151,,,,,,,,,,,,,98.82012180000311,0.02012180000311048,None,148.5425155999983,148.5425155999983,148.5425155999983,148.5425155999983,148.5425155999983,148.5425155999983,148.5425155999983,148.5425155999983,,003,P017,2025_Mar_07_1712,CategoryLocalizer,2021.2.3,59.92512954509443,
99.0,99.8,3,0.75,Stimuli\ImageFiles-Set1\Faces\Face_00043.png,0,0,0,152,152,152,,,,,,,,,,,,,99.00385440000537,0.0038544000053661875,None,148.74269579999964,148.74269579999964,148.74269579999964,148.74269579999964,148.74269579999964,148.74269579999964,148.74269579999964,148.74269579999964,,003,P017,2025_Mar_07_1712,CategoryLocalizer,2021.2.3,59.92512954509443,
99.8,100.0,5,0.0,Stimuli\Blank.png,0,0,0,153,153,153,,,,,,,,,,,,,99.82115160000103,0.021151600001033444,None,149.54340560000128,149.54340560000128,149.54340560000128,149.54340560000128,149.54340560000128,149.54340560000128,149.54340560000128,149.54340560000128,,003,P017,2025_Mar_07_1712,CategoryLocalizer,2021.2.3,59.92512954509443,
100.0,100.8,3,0.75,Stimuli\ImageFiles-Set1\Faces\Face_00077.png,0,0,0,154,154,154,,,,,,,,,,,,,100.00512059999892,0.005120599998917896,None,149.74358020000363,149.74358020000363,149.74358020000363,149.74358020000363,149.74358020000363,149.74358020000363,149.74358020000363,149.74358020000363,,003,P017,2025_Mar_07_1712,CategoryLocalizer,2021.2.3,59.92512954509443,
100.8,101.0,5,0.0,Stimuli\Blank.png,0,0,0,155,155,155,,,,,,,,,,,,,100.82091639999999,0.020916399999990176,None,150.54429260000325,150.54429260000325,150.54429260000325,150.54429260000325,150.54429260000325,150.54429260000325,150.54429260000325,150.54429260000325,,003,P017,2025_Mar_07_1712,CategoryLocalizer,2021.2.3,59.92512954509443,
101.0,101.8,3,0.75,Stimuli\ImageFiles-Set1\Faces\Face_00083.png,0,0,0,156,156,156,,,,,,,,,,,,,101.0060588999986,0.006058899998606648,None,150.74446600000374,150.74446600000374,150.74446600000374,150.74446600000374,150.74446600000374,150.74446600000374,150.74446600000374,150.74446600000374,,003,P017,2025_Mar_07_1712,CategoryLocalizer,2021.2.3,59.92512954509443,
101.8,102.0,5,0.0,Stimuli\Blank.png,0,0,0,157,157,157,,,,,,,,,,,,,101.82366410000395,0.02366410000395547,None,151.5618661999979,151.5618661999979,151.5618661999979,151.5618661999979,151.5618661999979,151.5618661999979,151.5618661999979,151.5618661999979,,003,P017,2025_Mar_07_1712,CategoryLocalizer,2021.2.3,59.92512954509443,
102.0,102.8,3,0.75,Stimuli\ImageFiles-Set1\Faces\Face_00051.png,0,0,0,158,158,158,,,,,,,,,,,,,102.02258620000066,0.02258620000066003,None,151.76201880000008,151.76201880000008,151.76201880000008,151.76201880000008,151.76201880000008,151.76201880000008,151.76201880000008,151.76201880000008,,003,P017,2025_Mar_07_1712,CategoryLocalizer,2021.2.3,59.92512954509443,
102.8,103.0,5,0.0,Stimuli\Blank.png,0,0,0,159,159,159,,,,,,,,,,,,,102.82330999999976,0.023309999999767683,None,152.54606230000354,152.54606230000354,152.54606230000354,152.54606230000354,152.54606230000354,152.54606230000354,152.54606230000354,152.54606230000354,,003,P017,2025_Mar_07_1712,CategoryLocalizer,2021.2.3,59.92512954509443,
103.0,103.8,3,0.75,Stimuli\ImageFiles-Set1\Faces\Face_00024.png,0,0,0,160,160,160,,,,,,,,,,,,,103.00635909999983,0.006359099999826867,None,152.7295499000029,152.7295499000029,152.7295499000029,152.7295499000029,152.7295499000029,152.7295499000029,152.7295499000029,152.7295499000029,,003,P017,2025_Mar_07_1712,CategoryLocalizer,2021.2.3,59.92512954509443,
103.8,104.0,5,0.0,Stimuli\Blank.png,0,0,0,161,161,161,,,,,,,,,,,,,103.80992379999952,0.00992379999952675,None,153.54696330000297,153.54696330000297,153.54696330000297,153.54696330000297,153.54696330000297,153.54696330000297,153.54696330000297,153.54696330000297,,003,P017,2025_Mar_07_1712,CategoryLocalizer,2021.2.3,59.92512954509443,
104.0,104.8,1,0.75,Stimuli\ImageFiles-Set1\Objects\Object_Football_00001.png,0,0,0,162,162,162,,,,,,,,,,,,,104.02463820000412,0.024638200004119426,None,153.7471227999995,153.7471227999995,153.7471227999995,153.7471227999995,153.7471227999995,153.7471227999995,153.7471227999995,153.7471227999995,,003,P017,2025_Mar_07_1712,CategoryLocalizer,2021.2.3,59.92512954509443,
104.8,105.0,5,0.0,Stimuli\Blank.png,0,0,0,163,163,163,,,,,,,,,,,,,104.80860940000275,0.008609400002754342,None,154.53114949999872,154.53114949999872,154.53114949999872,154.53114949999872,154.53114949999872,154.53114949999872,154.53114949999872,154.53114949999872,,003,P017,2025_Mar_07_1712,CategoryLocalizer,2021.2.3,59.92512954509443,
105.0,105.8,1,0.75,Stimuli\ImageFiles-Set1\Objects\Object_Football_00001.png,1,1,0,164,164,164,,,,,,,,,,,,,105.00793700000213,0.007937000002129935,1,154.7313215000031,154.7313215000031,154.7313215000031,154.7313215000031,154.7313215000031,154.7313215000031,154.7313215000031,154.7313215000031,0.30989840000256663,003,P017,2025_Mar_07_1712,CategoryLocalizer,2021.2.3,59.92512954509443,
105.8,106.0,5,0.0,Stimuli\Blank.png,0,0,0,165,165,165,,,,,,,,,,,,,105.80982650000078,0.009826500000784222,None,155.5320384000006,155.5320384000006,155.5320384000006,155.5320384000006,155.5320384000006,155.5320384000006,155.5320384000006,155.5320384000006,,003,P017,2025_Mar_07_1712,CategoryLocalizer,2021.2.3,59.92512954509443,
106.0,106.8,1,0.75,Stimuli\ImageFiles-Set1\Objects\Object_GarbageCan_00001.png,0,0,0,166,166,166,,,,,,,,,,,,,106.0088786999986,0.008878699998604134,None,155.73220640000363,155.73220640000363,155.73220640000363,155.73220640000363,155.73220640000363,155.73220640000363,155.73220640000363,155.73220640000363,,003,P017,2025_Mar_07_1712,CategoryLocalizer,2021.2.3,59.92512954509443,
106.8,107.0,5,0.0,Stimuli\Blank.png,0,0,0,167,167,167,,,,,,,,,,,,,106.80968930000381,0.009689300003813628,None,156.5329172999991,156.5329172999991,156.5329172999991,156.5329172999991,156.5329172999991,156.5329172999991,156.5329172999991,156.5329172999991,,003,P017,2025_Mar_07_1712,CategoryLocalizer,2021.2.3,59.92512954509443,
107.0,107.8,1,0.75,Stimuli\ImageFiles-Set1\Objects\Object_Sock_00001.png,0,0,0,168,168,168,,,,,,,,,,,,,107.00989570000092,0.00989570000092499,None,156.73310520000086,156.73310520000086,156.73310520000086,156.73310520000086,156.73310520000086,156.73310520000086,156.73310520000086,156.73310520000086,,003,P017,2025_Mar_07_1712,CategoryLocalizer,2021.2.3,59.92512954509443,
107.8,108.0,5,0.0,Stimuli\Blank.png,0,0,0,169,169,169,,,,,,,,,,,,,107.81118150000111,0.011181500001114841,None,157.5338230999987,157.5338230999987,157.5338230999987,157.5338230999987,157.5338230999987,157.5338230999987,157.5338230999987,157.5338230999987,,003,P017,2025_Mar_07_1712,CategoryLocalizer,2021.2.3,59.92512954509443,
108.0,108.8,1,0.75,Stimuli\ImageFiles-Set1\Objects\Object_Walnut_00001.png,0,0,0,170,170,170,,,,,,,,,,,,,108.01107860000047,0.01107860000047367,None,157.73397919999843,157.73397919999843,157.73397919999843,157.73397919999843,157.73397919999843,157.73397919999843,157.73397919999843,157.73397919999843,,003,P017,2025_Mar_07_1712,CategoryLocalizer,2021.2.3,59.92512954509443,
108.8,109.0,5,0.0,Stimuli\Blank.png,0,0,0,171,171,171,,,,,,,,,,,,,108.81177759999991,0.011777599999916788,None,158.5346914000038,158.5346914000038,158.5346914000038,158.5346914000038,158.5346914000038,158.5346914000038,158.5346914000038,158.5346914000038,,003,P017,2025_Mar_07_1712,CategoryLocalizer,2021.2.3,59.92512954509443,
109.0,109.8,1,0.75,Stimuli\ImageFiles-Set1\Objects\Object_ComputerMouse_00001.png,0,0,0,172,172,172,,,,,,,,,,,,,109.01140740000119,0.011407400001189671,None,158.73493990000134,158.73493990000134,158.73493990000134,158.73493990000134,158.73493990000134,158.73493990000134,158.73493990000134,158.73493990000134,,003,P017,2025_Mar_07_1712,CategoryLocalizer,2021.2.3,59.92512954509443,
109.8,110.0,5,0.0,Stimuli\Blank.png,0,0,0,173,173,173,,,,,,,,,,,,,109.81228360000387,0.012283600003868855,None,159.53554620000068,159.53554620000068,159.53554620000068,159.53554620000068,159.53554620000068,159.53554620000068,159.53554620000068,159.53554620000068,,003,P017,2025_Mar_07_1712,CategoryLocalizer,2021.2.3,59.92512954509443,
110.0,110.8,1,0.75,Stimuli\ImageFiles-Set1\Objects\Object_Nightstand_00001.png,0,0,0,174,174,174,,,,,,,,,,,,,110.01403820000269,0.014038200002687518,None,159.75242889999936,159.75242889999936,159.75242889999936,159.75242889999936,159.75242889999936,159.75242889999936,159.75242889999936,159.75242889999936,,003,P017,2025_Mar_07_1712,CategoryLocalizer,2021.2.3,59.92512954509443,
110.8,111.0,5,0.0,Stimuli\Blank.png,0,0,0,175,175,175,,,,,,,,,,,,,110.83061460000317,0.03061460000317595,None,160.55328960000043,160.55328960000043,160.55328960000043,160.55328960000043,160.55328960000043,160.55328960000043,160.55328960000043,160.55328960000043,,003,P017,2025_Mar_07_1712,CategoryLocalizer,2021.2.3,59.92512954509443,
111.0,111.8,1,0.75,Stimuli\ImageFiles-Set1\Objects\Object_IroningBoard_00001.png,0,0,0,176,176,176,,,,,,,,,,,,,111.01408490000176,0.014084900001762435,None,160.75345870000456,160.75345870000456,160.75345870000456,160.75345870000456,160.75345870000456,160.75345870000456,160.75345870000456,160.75345870000456,,003,P017,2025_Mar_07_1712,CategoryLocalizer,2021.2.3,59.92512954509443,
111.8,112.0,5,0.0,Stimuli\Blank.png,0,0,0,177,177,177,,,,,,,,,,,,,111.83066469999903,0.030664699999036316,None,161.55403240000305,161.55403240000305,161.55403240000305,161.55403240000305,161.55403240000305,161.55403240000305,161.55403240000305,161.55403240000305,,003,P017,2025_Mar_07_1712,CategoryLocalizer,2021.2.3,59.92512954509443,
112.0,112.8,1,0.75,Stimuli\ImageFiles-Set1\Objects\Object_Matches_00001.png,0,0,0,178,178,178,,,,,,,,,,,,,112.01412170000549,0.014121700005489402,None,161.73751269999775,161.73751269999775,161.73751269999775,161.73751269999775,161.73751269999775,161.73751269999775,161.73751269999775,161.73751269999775,,003,P017,2025_Mar_07_1712,CategoryLocalizer,2021.2.3,59.92512954509443,
112.8,113.0,5,0.0,Stimuli\Blank.png,0,0,0,179,179,179,,,,,,,,,,,,,112.81520699999965,0.015206999999648474,None,162.53822049999872,162.53822049999872,162.53822049999872,162.53822049999872,162.53822049999872,162.53822049999872,162.53822049999872,162.53822049999872,,003,P017,2025_Mar_07_1712,CategoryLocalizer,2021.2.3,59.92512954509443,
113.0,113.8,1,0.75,Stimuli\ImageFiles-Set1\Objects\Object_ShoppingCart_00001.png,0,0,0,180,180,180,,,,,,,,,,,,,113.01607869999862,0.016078699998615775,None,162.7383931000004,162.7383931000004,162.7383931000004,162.7383931000004,162.7383931000004,162.7383931000004,162.7383931000004,162.7383931000004,,003,P017,2025_Mar_07_1712,CategoryLocalizer,2021.2.3,59.92512954509443,
113.8,114.0,5,0.0,Stimuli\Blank.png,0,0,0,181,181,181,,,,,,,,,,,,,113.7995391000004,-0.000460899999595199,None,163.52243000000453,163.52243000000453,163.52243000000453,163.52243000000453,163.52243000000453,163.52243000000453,163.52243000000453,163.52243000000453,,003,P017,2025_Mar_07_1712,CategoryLocalizer,2021.2.3,59.92512954509443,
114.0,114.8,1,0.75,Stimuli\ImageFiles-Set1\Objects\Object_Tool_00001.png,1,1,0,182,182,182,,,,,,,,,,,,,114.00009580000187,9.580000187270343e-05,None,163.72255679999944,163.72255679999944,163.72255679999944,163.72255679999944,163.72255679999944,163.72255679999944,163.72255679999944,163.72255679999944,,003,P017,2025_Mar_07_1712,CategoryLocalizer,2021.2.3,59.92512954509443,
114.8,115.0,5,0.0,Stimuli\Blank.png,0,0,0,183,183,183,,,,,,,,,,,,,114.80004870000266,4.8700002665214015e-05,None,164.52331119999872,164.52331119999872,164.52331119999872,164.52331119999872,164.52331119999872,164.52331119999872,164.52331119999872,164.52331119999872,,003,P017,2025_Mar_07_1712,CategoryLocalizer,2021.2.3,59.92512954509443,
115.0,115.8,1,0.75,Stimuli\ImageFiles-Set1\Objects\Object_Pizza_00001.png,0,0,0,184,184,184,,,,,,,,,,,,,115.00121500000387,0.001215000003867317,None,164.72348970000166,164.72348970000166,164.72348970000166,164.72348970000166,164.72348970000166,164.72348970000166,164.72348970000166,164.72348970000166,,003,P017,2025_Mar_07_1712,CategoryLocalizer,2021.2.3,59.92512954509443,
115.8,116.0,5,0.0,Stimuli\Blank.png,0,0,0,185,185,185,,,,,,,,,,,,,115.80365430000529,0.0036543000052944308,None,165.5408912999992,165.5408912999992,165.5408912999992,165.5408912999992,165.5408912999992,165.5408912999992,165.5408912999992,165.5408912999992,,003,P017,2025_Mar_07_1712,CategoryLocalizer,2021.2.3,59.92512954509443,
116.0,116.8,1,0.75,Stimuli\ImageFiles-Set1\Objects\Object_Pizza_00001.png,0,0,0,186,186,186,,,,,,,,,,,,,116.01890400000411,0.018904000004113186,1,165.74105119999876,165.74105119999876,165.74105119999876,165.74105119999876,165.74105119999876,165.74105119999876,165.74105119999876,165.74105119999876,0.3229944999984582,003,P017,2025_Mar_07_1712,CategoryLocalizer,2021.2.3,59.92512954509443,
116.8,117.0,5,0.0,Stimuli\Blank.png,0,0,0,187,187,187,,,,,,,,,,,,,116.80393660000118,0.003936600001182455,None,166.54177429999982,166.54177429999982,166.54177429999982,166.54177429999982,166.54177429999982,166.54177429999982,166.54177429999982,166.54177429999982,,003,P017,2025_Mar_07_1712,CategoryLocalizer,2021.2.3,59.92512954509443,
117.0,117.8,1,0.75,Stimuli\ImageFiles-Set1\Objects\Object_Pillow_00001.png,0,0,0,188,188,188,,,,,,,,,,,,,117.01935650000087,0.019356500000867527,None,166.75862620000407,166.75862620000407,166.75862620000407,166.75862620000407,166.75862620000407,166.75862620000407,166.75862620000407,166.75862620000407,,003,P017,2025_Mar_07_1712,CategoryLocalizer,2021.2.3,59.92512954509443,
117.8,118.0,5,0.0,Stimuli\Blank.png,0,0,0,189,189,189,,,,,,,,,,,,,117.81926120000571,0.019261200005715295,None,167.54264289999992,167.54264289999992,167.54264289999992,167.54264289999992,167.54264289999992,167.54264289999992,167.54264289999992,167.54264289999992,,003,P017,2025_Mar_07_1712,CategoryLocalizer,2021.2.3,59.92512954509443,
118.0,118.8,1,0.75,Stimuli\ImageFiles-Set1\Objects\Object_Gun_00001.png,0,0,0,190,190,190,,,,,,,,,,,,,118.00328789999912,0.003287899999122601,None,167.72613660000206,167.72613660000206,167.72613660000206,167.72613660000206,167.72613660000206,167.72613660000206,167.72613660000206,167.72613660000206,,003,P017,2025_Mar_07_1712,CategoryLocalizer,2021.2.3,59.92512954509443,
118.8,119.0,5,0.0,Stimuli\Blank.png,0,0,0,191,191,191,,,,,,,,,,,,,118.80408590000297,0.004085900002976928,None,168.5268572999994,168.5268572999994,168.5268572999994,168.5268572999994,168.5268572999994,168.5268572999994,168.5268572999994,168.5268572999994,,003,P017,2025_Mar_07_1712,CategoryLocalizer,2021.2.3,59.92512954509443,
119.0,119.8,1,0.75,Stimuli\ImageFiles-Set1\Objects\Object_Pot_00001.png,0,0,0,192,192,192,,,,,,,,,,,,,119.00412440000218,0.004124400002183393,None,168.7270212000003,168.7270212000003,168.7270212000003,168.7270212000003,168.7270212000003,168.7270212000003,168.7270212000003,168.7270212000003,,003,P017,2025_Mar_07_1712,CategoryLocalizer,2021.2.3,59.92512954509443,
119.8,120.0,5,0.0,Stimuli\Blank.png,0,0,0,193,193,193,,,,,,,,,,,,,119.8044383000015,0.004438300001496032,None,169.52772959999857,169.52772959999857,169.52772959999857,169.52772959999857,169.52772959999857,169.52772959999857,169.52772959999857,169.52772959999857,,003,P017,2025_Mar_07_1712,CategoryLocalizer,2021.2.3,59.92512954509443,
120.0,120.8,4,0.75,Stimuli\ImageFiles-Set1\Scenes\Scenes_044.png,0,0,0,194,194,194,,,,,,,,,,,,,120.00608980000106,0.00608980000106385,None,169.74463130000368,169.74463130000368,169.74463130000368,169.74463130000368,169.74463130000368,169.74463130000368,169.74463130000368,169.74463130000368,,003,P017,2025_Mar_07_1712,CategoryLocalizer,2021.2.3,59.92512954509443,
120.8,121.0,5,0.0,Stimuli\Blank.png,0,0,0,195,195,195,,,,,,,,,,,,,120.82382499999949,0.023824999999490615,None,170.5619913000046,170.5619913000046,170.5619913000046,170.5619913000046,170.5619913000046,170.5619913000046,170.5619913000046,170.5619913000046,,003,P017,2025_Mar_07_1712,CategoryLocalizer,2021.2.3,59.92512954509443,
121.0,121.8,4,0.75,Stimuli\ImageFiles-Set1\Scenes\Scenes_044.png,1,1,0,196,196,196,,,,,,,,,,,,,121.02269389999856,0.022693899998557754,1,170.74547610000445,170.74547610000445,170.74547610000445,170.74547610000445,170.74547610000445,170.74547610000445,170.74547610000445,170.74547610000445,0.6395813999988604,003,P017,2025_Mar_07_1712,CategoryLocalizer,2021.2.3,59.92512954509443,
121.8,122.0,5,0.0,Stimuli\Blank.png,0,0,0,197,197,197,,,,,,,,,,,,,121.80991980000545,0.009919800005448565,None,171.54623079999874,171.54623079999874,171.54623079999874,171.54623079999874,171.54623079999874,171.54623079999874,171.54623079999874,171.54623079999874,,003,P017,2025_Mar_07_1712,CategoryLocalizer,2021.2.3,59.92512954509443,
122.0,122.8,4,0.75,Stimuli\ImageFiles-Set1\Scenes\Scenes_056.png,0,0,0,198,198,198,,,,,,,,,,,,,122.02299960000528,0.022999600005277898,None,171.7463665000032,171.7463665000032,171.7463665000032,171.7463665000032,171.7463665000032,171.7463665000032,171.7463665000032,171.7463665000032,,003,P017,2025_Mar_07_1712,CategoryLocalizer,2021.2.3,59.92512954509443,
122.8,123.0,5,0.0,Stimuli\Blank.png,0,0,0,199,199,199,,,,,,,,,,,,,122.8097601000045,0.009760100004498895,None,172.5470809000035,172.5470809000035,172.5470809000035,172.5470809000035,172.5470809000035,172.5470809000035,172.5470809000035,172.5470809000035,,003,P017,2025_Mar_07_1712,CategoryLocalizer,2021.2.3,59.92512954509443,
123.0,123.8,4,0.75,Stimuli\ImageFiles-Set1\Scenes\Scenes_035.png,0,0,0,200,200,200,,,,,,,,,,,,,123.02499199999875,0.024991999998746905,None,172.76394900000014,172.76394900000014,172.76394900000014,172.76394900000014,172.76394900000014,172.76394900000014,172.76394900000014,172.76394900000014,,003,P017,2025_Mar_07_1712,CategoryLocalizer,2021.2.3,59.92512954509443,
123.8,124.0,5,0.0,Stimuli\Blank.png,0,0,0,201,201,201,,,,,,,,,,,,,123.82471950000036,0.024719500000358607,None,173.5479462000003,173.5479462000003,173.5479462000003,173.5479462000003,173.5479462000003,173.5479462000003,173.5479462000003,173.5479462000003,,003,P017,2025_Mar_07_1712,CategoryLocalizer,2021.2.3,59.92512954509443,
124.0,124.8,4,0.75,Stimuli\ImageFiles-Set1\Scenes\Scenes_021.png,0,0,0,202,202,202,,,,,,,,,,,,,124.00896350000403,0.008963500004028901,None,173.7481379000019,173.7481379000019,173.7481379000019,173.7481379000019,173.7481379000019,173.7481379000019,173.7481379000019,173.7481379000019,,003,P017,2025_Mar_07_1712,CategoryLocalizer,2021.2.3,59.92512954509443,
124.8,125.0,5,0.0,Stimuli\Blank.png,0,0,0,203,203,203,,,,,,,,,,,,,124.82558950000384,0.02558950000384641,None,174.54883929999778,174.54883929999778,174.54883929999778,174.54883929999778,174.54883929999778,174.54883929999778,174.54883929999778,174.54883929999778,,003,P017,2025_Mar_07_1712,CategoryLocalizer,2021.2.3,59.92512954509443,
125.0,125.8,4,0.75,Stimuli\ImageFiles-Set1\Scenes\Scenes_051.png,0,0,0,204,204,204,,,,,,,,,,,,,125.0096354999987,0.009635499998694286,None,174.73233299999993,174.73233299999993,174.73233299999993,174.73233299999993,174.73233299999993,174.73233299999993,174.73233299999993,174.73233299999993,,003,P017,2025_Mar_07_1712,CategoryLocalizer,2021.2.3,59.92512954509443,
125.8,126.0,5,0.0,Stimuli\Blank.png,0,0,0,205,205,205,,,,,,,,,,,,,125.80967570000212,0.009675700002119925,None,175.53303890000097,175.53303890000097,175.53303890000097,175.53303890000097,175.53303890000097,175.53303890000097,175.53303890000097,175.53303890000097,,003,P017,2025_Mar_07_1712,CategoryLocalizer,2021.2.3,59.92512954509443,
126.0,126.8,4,0.75,Stimuli\ImageFiles-Set1\Scenes\Scenes_049.png,0,0,0,206,206,206,,,,,,,,,,,,,126.01116200000251,0.011162000002514105,None,175.73325750000367,175.73325750000367,175.73325750000367,175.73325750000367,175.73325750000367,175.73325750000367,175.73325750000367,175.73325750000367,,003,P017,2025_Mar_07_1712,CategoryLocalizer,2021.2.3,59.92512954509443,
126.8,127.0,5,0.0,Stimuli\Blank.png,0,0,0,207,207,207,,,,,,,,,,,,,126.8108613000004,0.010861300000399865,None,176.5339305000016,176.5339305000016,176.5339305000016,176.5339305000016,176.5339305000016,176.5339305000016,176.5339305000016,176.5339305000016,,003,P017,2025_Mar_07_1712,CategoryLocalizer,2021.2.3,59.92512954509443,
127.0,127.8,4,0.75,Stimuli\ImageFiles-Set1\Scenes\Scenes_057.png,0,0,0,208,208,208,,,,,,,,,,,,,127.01149000000441,0.011490000004414469,None,176.75078510000458,176.75078510000458,176.75078510000458,176.75078510000458,176.75078510000458,176.75078510000458,176.75078510000458,176.75078510000458,,003,P017,2025_Mar_07_1712,CategoryLocalizer,2021.2.3,59.92512954509443,
127.8,128.0,5,0.0,Stimuli\Blank.png,0,0,0,209,209,209,,,,,,,,,,,,,127.82935800000269,0.029358000002687845,None,177.55150030000368,177.55150030000368,177.55150030000368,177.55150030000368,177.55150030000368,177.55150030000368,177.55150030000368,177.55150030000368,,003,P017,2025_Mar_07_1712,CategoryLocalizer,2021.2.3,59.92512954509443,
128.0,128.8,4,0.75,Stimuli\ImageFiles-Set1\Scenes\Scenes_047.png,0,0,0,210,210,210,,,,,,,,,,,,,128.01196250000066,0.011962500000663567,None,177.73498870000185,177.73498870000185,177.73498870000185,177.73498870000185,177.73498870000185,177.73498870000185,177.73498870000185,177.73498870000185,,003,P017,2025_Mar_07_1712,CategoryLocalizer,2021.2.3,59.92512954509443,
128.8,129.0,5,0.0,Stimuli\Blank.png,0,0,0,211,211,211,,,,,,,,,,,,,128.81540659999882,0.015406599998811998,None,178.552400200002,178.552400200002,178.552400200002,178.552400200002,178.552400200002,178.552400200002,178.552400200002,178.552400200002,,003,P017,2025_Mar_07_1712,CategoryLocalizer,2021.2.3,59.92512954509443,
129.0,129.8,4,0.75,Stimuli\ImageFiles-Set1\Scenes\Scenes_027.png,0,0,0,212,212,212,,,,,,,,,,,,,129.01365970000188,0.013659700001880992,None,178.75269800000387,178.75269800000387,178.75269800000387,178.75269800000387,178.75269800000387,178.75269800000387,178.75269800000387,178.75269800000387,,003,P017,2025_Mar_07_1712,CategoryLocalizer,2021.2.3,59.92512954509443,
129.8,130.0,5,0.0,Stimuli\Blank.png,0,0,0,213,213,213,,,,,,,,,,,,,129.83060600000317,0.030606000003160716,None,179.55325530000118,179.55325530000118,179.55325530000118,179.55325530000118,179.55325530000118,179.55325530000118,179.55325530000118,179.55325530000118,,003,P017,2025_Mar_07_1712,CategoryLocalizer,2021.2.3,59.92512954509443,
130.0,130.8,4,0.75,Stimuli\ImageFiles-Set1\Scenes\Scenes_032.png,0,0,0,214,214,214,,,,,,,,,,,,,130.0139077999993,0.013907799999287818,None,179.753469700001,179.753469700001,179.753469700001,179.753469700001,179.753469700001,179.753469700001,179.753469700001,179.753469700001,,003,P017,2025_Mar_07_1712,CategoryLocalizer,2021.2.3,59.92512954509443,
130.8,131.0,5,0.0,Stimuli\Blank.png,0,0,0,215,215,215,,,,,,,,,,,,,130.83158510000067,0.03158510000065462,None,180.55414900000324,180.55414900000324,180.55414900000324,180.55414900000324,180.55414900000324,180.55414900000324,180.55414900000324,180.55414900000324,,003,P017,2025_Mar_07_1712,CategoryLocalizer,2021.2.3,59.92512954509443,
131.0,131.8,4,0.75,Stimuli\ImageFiles-Set1\Scenes\Scenes_046.png,1,1,0,216,216,216,,,,,,,,,,,,,131.0142227000033,0.014222700003301725,None,180.75433150000026,180.75433150000026,180.75433150000026,180.75433150000026,180.75433150000026,180.75433150000026,180.75433150000026,180.75433150000026,,003,P017,2025_Mar_07_1712,CategoryLocalizer,2021.2.3,59.92512954509443,
131.8,132.0,5,0.0,Stimuli\Blank.png,0,0,0,217,217,217,,,,,,,,,,,,,131.83387880000373,0.03387880000371979,None,181.57176210000034,181.57176210000034,181.57176210000034,181.57176210000034,181.57176210000034,181.57176210000034,181.57176210000034,181.57176210000034,,003,P017,2025_Mar_07_1712,CategoryLocalizer,2021.2.3,59.92512954509443,
132.0,132.8,4,0.75,Stimuli\ImageFiles-Set1\Scenes\Scenes_013.png,0,0,0,218,218,218,,,,,,,,,,,,,132.0159175000008,0.01591750000079628,None,181.73852420000185,181.73852420000185,181.73852420000185,181.73852420000185,181.73852420000185,181.73852420000185,181.73852420000185,181.73852420000185,,003,P017,2025_Mar_07_1712,CategoryLocalizer,2021.2.3,59.92512954509443,
132.8,133.0,5,0.0,Stimuli\Blank.png,0,0,0,219,219,219,,,,,,,,,,,,,132.79928440000367,-0.0007155999963401882,None,182.5225563999993,182.5225563999993,182.5225563999993,182.5225563999993,182.5225563999993,182.5225563999993,182.5225563999993,182.5225563999993,,003,P017,2025_Mar_07_1712,CategoryLocalizer,2021.2.3,59.92512954509443,
133.0,133.8,4,0.75,Stimuli\ImageFiles-Set1\Scenes\Scenes_013.png,0,0,0,220,220,220,,,,,,,,,,,,,133.00006860000576,6.860000576125458e-05,1,182.73943529999815,182.73943529999815,182.73943529999815,182.73943529999815,182.73943529999815,182.73943529999815,182.73943529999815,182.73943529999815,0.3696717000057106,003,P017,2025_Mar_07_1712,CategoryLocalizer,2021.2.3,59.92512954509443,
133.8,134.0,5,0.0,Stimuli\Blank.png,0,0,0,221,221,221,,,,,,,,,,,,,133.8190556000045,0.019055600004492135,None,183.5568271000011,183.5568271000011,183.5568271000011,183.5568271000011,183.5568271000011,183.5568271000011,183.5568271000011,183.5568271000011,,003,P017,2025_Mar_07_1712,CategoryLocalizer,2021.2.3,59.92512954509443,
134.0,134.8,4,0.75,Stimuli\ImageFiles-Set1\Scenes\Scenes_033.png,0,0,0,222,222,222,,,,,,,,,,,,,134.01717690000078,0.017176900000777096,None,183.74029549999977,183.74029549999977,183.74029549999977,183.74029549999977,183.74029549999977,183.74029549999977,183.74029549999977,183.74029549999977,,003,P017,2025_Mar_07_1712,CategoryLocalizer,2021.2.3,59.92512954509443,
134.8,135.0,5,0.0,Stimuli\Blank.png,0,0,0,223,223,223,,,,,,,,,,,,,134.8017031000054,0.0017031000053862044,None,184.52429180000036,184.52429180000036,184.52429180000036,184.52429180000036,184.52429180000036,184.52429180000036,184.52429180000036,184.52429180000036,,003,P017,2025_Mar_07_1712,CategoryLocalizer,2021.2.3,59.92512954509443,
135.0,135.8,4,0.75,Stimuli\ImageFiles-Set1\Scenes\Scenes_036.png,0,0,0,224,224,224,,,,,,,,,,,,,135.00111879999895,0.0011187999989488162,None,184.72450399999798,184.72450399999798,184.72450399999798,184.72450399999798,184.72450399999798,184.72450399999798,184.72450399999798,184.72450399999798,,003,P017,2025_Mar_07_1712,CategoryLocalizer,2021.2.3,59.92512954509443,
135.8,136.0,5,0.0,Stimuli\Blank.png,0,0,0,225,225,225,,,,,,,,,,,,,135.80257160000474,0.002571600004728225,None,185.52527550000377,185.52527550000377,185.52527550000377,185.52527550000377,185.52527550000377,185.52527550000377,185.52527550000377,185.52527550000377,,003,P017,2025_Mar_07_1712,CategoryLocalizer,2021.2.3,59.92512954509443,
136.0,136.8,2,0.75,Stimuli\ImageFiles-Set1\Bodies\Bodies_Lunging_00003.png,0,0,0,226,226,226,,,,,,,,,,,,,136.00387659999978,0.0038765999997849576,None,185.74207000000024,185.74207000000024,185.74207000000024,185.74207000000024,185.74207000000024,185.74207000000024,185.74207000000024,185.74207000000024,,003,P017,2025_Mar_07_1712,CategoryLocalizer,2021.2.3,59.92512954509443,
136.8,137.0,5,0.0,Stimuli\Blank.png,0,0,0,227,227,227,,,,,,,,,,,,,136.81952580000507,0.01952580000505577,None,186.54276910000044,186.54276910000044,186.54276910000044,186.54276910000044,186.54276910000044,186.54276910000044,186.54276910000044,186.54276910000044,,003,P017,2025_Mar_07_1712,CategoryLocalizer,2021.2.3,59.92512954509443,
137.0,137.8,2,0.75,Stimuli\ImageFiles-Set1\Bodies\Bodies_Kneeling_00005.png,0,0,0,228,228,228,,,,,,,,,,,,,137.00302160000138,0.003021600001375191,None,186.72627210000064,186.72627210000064,186.72627210000064,186.72627210000064,186.72627210000064,186.72627210000064,186.72627210000064,186.72627210000064,,003,P017,2025_Mar_07_1712,CategoryLocalizer,2021.2.3,59.92512954509443,
137.8,138.0,5,0.0,Stimuli\Blank.png,0,0,0,229,229,229,,,,,,,,,,,,,137.80448800000158,0.004488000001572345,None,187.52697450000414,187.52697450000414,187.52697450000414,187.52697450000414,187.52697450000414,187.52697450000414,187.52697450000414,187.52697450000414,,003,P017,2025_Mar_07_1712,CategoryLocalizer,2021.2.3,59.92512954509443,
138.0,138.8,2,0.75,Stimuli\ImageFiles-Set1\Bodies\Bodies_SittingFloor_00005.png,0,0,0,230,230,230,,,,,,,,,,,,,138.00540180000098,0.005401800000981893,None,187.74383520000265,187.74383520000265,187.74383520000265,187.74383520000265,187.74383520000265,187.74383520000265,187.74383520000265,187.74383520000265,,003,P017,2025_Mar_07_1712,CategoryLocalizer,2021.2.3,59.92512954509443,
138.8,139.0,5,0.0,Stimuli\Blank.png,0,0,0,231,231,231,,,,,,,,,,,,,138.82118740000442,0.021187400004407664,None,188.54455160000362,188.54455160000362,188.54455160000362,188.54455160000362,188.54455160000362,188.54455160000362,188.54455160000362,188.54455160000362,,003,P017,2025_Mar_07_1712,CategoryLocalizer,2021.2.3,59.92512954509443,
139.0,139.8,2,0.75,Stimuli\ImageFiles-Set1\Bodies\Bodies_SittingFloor_00005.png,1,1,0,232,232,232,,,,,,,,,,,,,139.00547270000243,0.00547270000242861,1,188.72803659999772,188.72803659999772,188.72803659999772,188.72803659999772,188.72803659999772,188.72803659999772,188.72803659999772,188.72803659999772,0.43000649999885354,003,P017,2025_Mar_07_1712,CategoryLocalizer,2021.2.3,59.92512954509443,
139.8,140.0,5,0.0,Stimuli\Blank.png,0,0,0,233,233,233,,,,,,,,,,,,,139.80553220000002,0.00553220000000465,None,189.52875009999843,189.52875009999843,189.52875009999843,189.52875009999843,189.52875009999843,189.52875009999843,189.52875009999843,189.52875009999843,,003,P017,2025_Mar_07_1712,CategoryLocalizer,2021.2.3,59.92512954509443,
140.0,140.8,2,0.75,Stimuli\ImageFiles-Set1\Bodies\Bodies_Crawling_00006.png,0,0,0,234,234,234,,,,,,,,,,,,,140.00581260000035,0.005812600000353996,None,189.72888809999858,189.72888809999858,189.72888809999858,189.72888809999858,189.72888809999858,189.72888809999858,189.72888809999858,189.72888809999858,,003,P017,2025_Mar_07_1712,CategoryLocalizer,2021.2.3,59.92512954509443,
140.8,141.0,5,0.0,Stimuli\Blank.png,0,0,0,235,235,235,,,,,,,,,,,,,140.806969199999,0.006969199998991371,None,190.5296417999998,190.5296417999998,190.5296417999998,190.5296417999998,190.5296417999998,190.5296417999998,190.5296417999998,190.5296417999998,,003,P017,2025_Mar_07_1712,CategoryLocalizer,2021.2.3,59.92512954509443,
141.0,141.8,2,0.75,Stimuli\ImageFiles-Set1\Bodies\Bodies_SittingChair_00007.png,0,0,0,236,236,236,,,,,,,,,,,,,141.00652450000052,0.006524500000523403,None,190.72987039999862,190.72987039999862,190.72987039999862,190.72987039999862,190.72987039999862,190.72987039999862,190.72987039999862,190.72987039999862,,003,P017,2025_Mar_07_1712,CategoryLocalizer,2021.2.3,59.92512954509443,
141.8,142.0,5,0.0,Stimuli\Blank.png,0,0,0,237,237,237,,,,,,,,,,,,,141.80897740000364,0.00897740000363001,None,191.5472054999991,191.5472054999991,191.5472054999991,191.5472054999991,191.5472054999991,191.5472054999991,191.5472054999991,191.5472054999991,,003,P017,2025_Mar_07_1712,CategoryLocalizer,2021.2.3,59.92512954509443,
142.0,142.8,2,0.75,Stimuli\ImageFiles-Set1\Bodies\Bodies_Jumping_00006.png,0,0,0,238,238,238,,,,,,,,,,,,,142.02475860000413,0.02475860000413377,None,191.74737460000324,191.74737460000324,191.74737460000324,191.74737460000324,191.74737460000324,191.74737460000324,191.74737460000324,191.74737460000324,,003,P017,2025_Mar_07_1712,CategoryLocalizer,2021.2.3,59.92512954509443,
142.8,143.0,5,0.0,Stimuli\Blank.png,0,0,0,239,239,239,,,,,,,,,,,,,142.80866690000403,0.008666900004016043,None,192.531392900004,192.531392900004,192.531392900004,192.531392900004,192.531392900004,192.531392900004,192.531392900004,192.531392900004,,003,P017,2025_Mar_07_1712,CategoryLocalizer,2021.2.3,59.92512954509443,
143.0,143.8,2,0.75,Stimuli\ImageFiles-Set1\Bodies\Bodies_Kicking_00005.png,0,0,0,240,240,240,,,,,,,,,,,,,143.00823550000496,0.00823550000495743,None,192.7315751999995,192.7315751999995,192.7315751999995,192.7315751999995,192.7315751999995,192.7315751999995,192.7315751999995,192.7315751999995,,003,P017,2025_Mar_07_1712,CategoryLocalizer,2021.2.3,59.92512954509443,
143.8,144.0,5,0.0,Stimuli\Blank.png,0,0,0,241,241,241,,,,,,,,,,,,,143.80965590000415,0.009655900004133855,None,193.5322931999981,193.5322931999981,193.5322931999981,193.5322931999981,193.5322931999981,193.5322931999981,193.5322931999981,193.5322931999981,,003,P017,2025_Mar_07_1712,CategoryLocalizer,2021.2.3,59.92512954509443,
144.0,144.8,2,0.75,Stimuli\ImageFiles-Set1\Bodies\Bodies_SittingFloor_00003.png,0,0,0,242,242,242,,,,,,,,,,,,,144.00986760000524,0.009867600005236454,None,193.73243930000172,193.73243930000172,193.73243930000172,193.73243930000172,193.73243930000172,193.73243930000172,193.73243930000172,193.73243930000172,,003,P017,2025_Mar_07_1712,CategoryLocalizer,2021.2.3,59.92512954509443,
144.8,145.0,5,0.0,Stimuli\Blank.png,0,0,0,243,243,243,,,,,,,,,,,,,144.81077180000284,0.010771800002828513,None,194.53317640000023,194.53317640000023,194.53317640000023,194.53317640000023,194.53317640000023,194.53317640000023,194.53317640000023,194.53317640000023,,003,P017,2025_Mar_07_1712,CategoryLocalizer,2021.2.3,59.92512954509443,
145.0,145.8,2,0.75,Stimuli\ImageFiles-Set1\Bodies\Bodies_Walking_00002.png,0,0,0,244,244,244,,,,,,,,,,,,,145.01000439999916,0.010004399999161251,None,194.73334360000445,194.73334360000445,194.73334360000445,194.73334360000445,194.73334360000445,194.73334360000445,194.73334360000445,194.73334360000445,,003,P017,2025_Mar_07_1712,CategoryLocalizer,2021.2.3,59.92512954509443,
145.8,146.0,5,0.0,Stimuli\Blank.png,0,0,0,245,245,245,,,,,,,,,,,,,145.81154719999904,0.01154719999902909,None,195.53405300000304,195.53405300000304,195.53405300000304,195.53405300000304,195.53405300000304,195.53405300000304,195.53405300000304,195.53405300000304,,003,P017,2025_Mar_07_1712,CategoryLocalizer,2021.2.3,59.92512954509443,
146.0,146.8,2,0.75,Stimuli\ImageFiles-Set1\Bodies\Bodies_Hanging_00002.png,0,0,0,246,246,246,,,,,,,,,,,,,146.0108923000007,0.01089230000070529,None,195.75092099999893,195.75092099999893,195.75092099999893,195.75092099999893,195.75092099999893,195.75092099999893,195.75092099999893,195.75092099999893,,003,P017,2025_Mar_07_1712,CategoryLocalizer,2021.2.3,59.92512954509443,
146.8,147.0,5,0.0,Stimuli\Blank.png,0,0,0,247,247,247,,,,,,,,,,,,,146.82877780000126,0.028777800001250853,None,196.55162840000412,196.55162840000412,196.55162840000412,196.55162840000412,196.55162840000412,196.55162840000412,196.55162840000412,196.55162840000412,,003,P017,2025_Mar_07_1712,CategoryLocalizer,2021.2.3,59.92512954509443,
147.0,147.8,2,0.75,Stimuli\ImageFiles-Set1\Bodies\Bodies_PushUp_00002.png,0,0,0,248,248,248,,,,,,,,,,,,,147.01458990000538,0.014589900005375966,None,196.7518016000031,196.7518016000031,196.7518016000031,196.7518016000031,196.7518016000031,196.7518016000031,196.7518016000031,196.7518016000031,,003,P017,2025_Mar_07_1712,CategoryLocalizer,2021.2.3,59.92512954509443,
147.8,148.0,5,0.0,Stimuli\Blank.png,0,0,0,249,249,249,,,,,,,,,,,,,147.8292087000009,0.029208700000879162,None,197.55250510000042,197.55250510000042,197.55250510000042,197.55250510000042,197.55250510000042,197.55250510000042,197.55250510000042,197.55250510000042,,003,P017,2025_Mar_07_1712,CategoryLocalizer,2021.2.3,59.92512954509443,
148.0,148.8,2,0.75,Stimuli\ImageFiles-Set1\Bodies\Bodies_Standing_00001.png,0,0,0,250,250,250,,,,,,,,,,,,,148.01369279999926,0.013692799999262206,None,197.7360015000013,197.7360015000013,197.7360015000013,197.7360015000013,197.7360015000013,197.7360015000013,197.7360015000013,197.7360015000013,,003,P017,2025_Mar_07_1712,CategoryLocalizer,2021.2.3,59.92512954509443,
148.8,149.0,5,0.0,Stimuli\Blank.png,0,0,0,251,251,251,,,,,,,,,,,,,148.8141670000041,0.014167000004079,None,198.5367189000026,198.5367189000026,198.5367189000026,198.5367189000026,198.5367189000026,198.5367189000026,198.5367189000026,198.5367189000026,,003,P017,2025_Mar_07_1712,CategoryLocalizer,2021.2.3,59.92512954509443,
149.0,149.8,2,0.75,Stimuli\ImageFiles-Set1\Bodies\Bodies_Walking_00006.png,0,0,0,252,252,252,,,,,,,,,,,,,149.01417339999898,0.01417339999898104,None,198.75356889999966,198.75356889999966,198.75356889999966,198.75356889999966,198.75356889999966,198.75356889999966,198.75356889999966,198.75356889999966,,003,P017,2025_Mar_07_1712,CategoryLocalizer,2021.2.3,59.92512954509443,
149.8,150.0,5,0.0,Stimuli\Blank.png,0,0,0,253,253,253,,,,,,,,,,,,,149.83089889999974,0.030898899999726837,None,199.55427359999885,199.55427359999885,199.55427359999885,199.55427359999885,199.55427359999885,199.55427359999885,199.55427359999885,199.55427359999885,,003,P017,2025_Mar_07_1712,CategoryLocalizer,2021.2.3,59.92512954509443,
150.0,150.8,2,0.75,Stimuli\ImageFiles-Set1\Bodies\Bodies_Waving_00001.png,0,0,0,254,254,254,,,,,,,,,,,,,150.01477380000142,0.014773800001421478,None,199.7377712000016,199.7377712000016,199.7377712000016,199.7377712000016,199.7377712000016,199.7377712000016,199.7377712000016,199.7377712000016,,003,P017,2025_Mar_07_1712,CategoryLocalizer,2021.2.3,59.92512954509443,
150.8,151.0,5,0.0,Stimuli\Blank.png,0,0,0,255,255,255,,,,,,,,,,,,,150.81569500000478,0.015695000004768644,None,200.53847150000365,200.53847150000365,200.53847150000365,200.53847150000365,200.53847150000365,200.53847150000365,200.53847150000365,200.53847150000365,,003,P017,2025_Mar_07_1712,CategoryLocalizer,2021.2.3,59.92512954509443,
151.0,151.8,2,0.75,Stimuli\ImageFiles-Set1\Bodies\Bodies_Lunging_00001.png,0,0,0,256,256,256,,,,,,,,,,,,,150.99931180000567,-0.0006881999943288974,None,200.7219746999981,200.7219746999981,200.7219746999981,200.7219746999981,200.7219746999981,200.7219746999981,200.7219746999981,200.7219746999981,,003,P017,2025_Mar_07_1712,CategoryLocalizer,2021.2.3,59.92512954509443,
151.8,152.0,5,0.0,Stimuli\Blank.png,0,0,0,257,257,257,,,,,,,,,,,,,151.80061520000163,0.0006152000016186321,None,201.5226793000038,201.5226793000038,201.5226793000038,201.5226793000038,201.5226793000038,201.5226793000038,201.5226793000038,201.5226793000038,,003,P017,2025_Mar_07_1712,CategoryLocalizer,2021.2.3,59.92512954509443,
152.0,164.0,0,0.0,Stimuli\Blank.png,0,0,0,258,258,258,,,,,,,,,,,,,152.0006401999999,0.000640199999907054,None,201.7228673999998,201.7228673999998,201.7228673999998,201.7228673999998,201.7228673999998,201.7228673999998,201.7228673999998,201.7228673999998,,003,P017,2025_Mar_07_1712,CategoryLocalizer,2021.2.3,59.92512954509443,
164.0,164.8,4,0.75,Stimuli\ImageFiles-Set1\Scenes\Scenes_039.png,0,0,0,259,259,259,,,,,,,,,,,,,164.01088349999918,0.010883499999181367,None,213.7334794999988,213.7334794999988,213.7334794999988,213.7334794999988,213.7334794999988,213.7334794999988,213.7334794999988,213.7334794999988,,003,P017,2025_Mar_07_1712,CategoryLocalizer,2021.2.3,59.92512954509443,
164.8,165.0,5,0.0,Stimuli\Blank.png,0,0,0,260,260,260,,,,,,,,,,,,,164.81139040000562,0.011390400005609536,None,214.5341780000017,214.5341780000017,214.5341780000017,214.5341780000017,214.5341780000017,214.5341780000017,214.5341780000017,214.5341780000017,,003,P017,2025_Mar_07_1712,CategoryLocalizer,2021.2.3,59.92512954509443,
165.0,165.8,4,0.75,Stimuli\ImageFiles-Set1\Scenes\Scenes_030.png,0,0,0,261,261,261,,,,,,,,,,,,,165.0109780000057,0.010978000005707145,None,214.75104690000444,214.75104690000444,214.75104690000444,214.75104690000444,214.75104690000444,214.75104690000444,214.75104690000444,214.75104690000444,,003,P017,2025_Mar_07_1712,CategoryLocalizer,2021.2.3,59.92512954509443,
165.8,166.0,5,0.0,Stimuli\Blank.png,0,0,0,262,262,262,,,,,,,,,,,,,165.8293197000021,0.029319700002076843,None,215.55175350000354,215.55175350000354,215.55175350000354,215.55175350000354,215.55175350000354,215.55175350000354,215.55175350000354,215.55175350000354,,003,P017,2025_Mar_07_1712,CategoryLocalizer,2021.2.3,59.92512954509443,
166.0,166.8,4,0.75,Stimuli\ImageFiles-Set1\Scenes\Scenes_025.png,0,0,0,263,263,263,,,,,,,,,,,,,166.01478170000337,0.014781700003368314,None,215.75192960000277,215.75192960000277,215.75192960000277,215.75192960000277,215.75192960000277,215.75192960000277,215.75192960000277,215.75192960000277,,003,P017,2025_Mar_07_1712,CategoryLocalizer,2021.2.3,59.92512954509443,
166.8,167.0,5,0.0,Stimuli\Blank.png,0,0,0,264,264,264,,,,,,,,,,,,,166.83007480000379,0.03007480000377427,None,216.552640599999,216.552640599999,216.552640599999,216.552640599999,216.552640599999,216.552640599999,216.552640599999,216.552640599999,,003,P017,2025_Mar_07_1712,CategoryLocalizer,2021.2.3,59.92512954509443,
167.0,167.8,4,0.75,Stimuli\ImageFiles-Set1\Scenes\Scenes_042.png,0,0,0,265,265,265,,,,,,,,,,,,,167.01280920000136,0.012809200001356658,None,216.73612460000004,216.73612460000004,216.73612460000004,216.73612460000004,216.73612460000004,216.73612460000004,216.73612460000004,216.73612460000004,,003,P017,2025_Mar_07_1712,CategoryLocalizer,2021.2.3,59.92512954509443,
167.8,168.0,5,0.0,Stimuli\Blank.png,0,0,0,266,266,266,,,,,,,,,,,,,167.8136827999988,0.013682799998775863,None,217.5368338000044,217.5368338000044,217.5368338000044,217.5368338000044,217.5368338000044,217.5368338000044,217.5368338000044,217.5368338000044,,003,P017,2025_Mar_07_1712,CategoryLocalizer,2021.2.3,59.92512954509443,
168.0,168.8,4,0.75,Stimuli\ImageFiles-Set1\Scenes\Scenes_026.png,0,0,0,267,267,267,,,,,,,,,,,,,168.0138292000047,0.01382920000469312,None,217.73702010000125,217.73702010000125,217.73702010000125,217.73702010000125,217.73702010000125,217.73702010000125,217.73702010000125,217.73702010000125,,003,P017,2025_Mar_07_1712,CategoryLocalizer,2021.2.3,59.92512954509443,
168.8,169.0,5,0.0,Stimuli\Blank.png,0,0,0,268,268,268,,,,,,,,,,,,,168.8144650000031,0.014465000003099249,None,218.53771899999992,218.53771899999992,218.53771899999992,218.53771899999992,218.53771899999992,218.53771899999992,218.53771899999992,218.53771899999992,,003,P017,2025_Mar_07_1712,CategoryLocalizer,2021.2.3,59.92512954509443,
169.0,169.8,4,0.75,Stimuli\ImageFiles-Set1\Scenes\Scenes_005.png,0,0,0,269,269,269,,,,,,,,,,,,,169.01505490000272,0.015054900002724025,None,218.75458620000427,218.75458620000427,218.75458620000427,218.75458620000427,218.75458620000427,218.75458620000427,218.75458620000427,218.75458620000427,,003,P017,2025_Mar_07_1712,CategoryLocalizer,2021.2.3,59.92512954509443,
169.8,170.0,5,0.0,Stimuli\Blank.png,0,0,0,270,270,270,,,,,,,,,,,,,169.81577390000166,0.01577390000164769,None,219.538607100003,219.538607100003,219.538607100003,219.538607100003,219.538607100003,219.538607100003,219.538607100003,219.538607100003,,003,P017,2025_Mar_07_1712,CategoryLocalizer,2021.2.3,59.92512954509443,
170.0,170.8,4,0.75,Stimuli\ImageFiles-Set1\Scenes\Scenes_005.png,1,1,0,271,271,271,,,,,,,,,,,,,169.99878510000417,-0.00121489999582991,1,219.7221015000032,219.7221015000032,219.7221015000032,219.7221015000032,219.7221015000032,219.7221015000032,219.7221015000032,219.7221015000032,0.40391749999980675,003,P017,2025_Mar_07_1712,CategoryLocalizer,2021.2.3,59.92512954509443,
170.8,171.0,5,0.0,Stimuli\Blank.png,0,0,0,272,272,272,,,,,,,,,,,,,170.79959020000388,-0.0004097999961345522,None,220.52282620000187,220.52282620000187,220.52282620000187,220.52282620000187,220.52282620000187,220.52282620000187,220.52282620000187,220.52282620000187,,003,P017,2025_Mar_07_1712,CategoryLocalizer,2021.2.3,59.92512954509443,
171.0,171.8,4,0.75,Stimuli\ImageFiles-Set1\Scenes\Scenes_055.png,0,0,0,273,273,273,,,,,,,,,,,,,171.00072940000246,0.0007294000024558045,None,220.72298279999814,220.72298279999814,220.72298279999814,220.72298279999814,220.72298279999814,220.72298279999814,220.72298279999814,220.72298279999814,,003,P017,2025_Mar_07_1712,CategoryLocalizer,2021.2.3,59.92512954509443,
171.8,172.0,5,0.0,Stimuli\Blank.png,0,0,0,274,274,274,,,,,,,,,,,,,171.80084110000462,0.0008411000046066874,None,221.52370759999758,221.52370759999758,221.52370759999758,221.52370759999758,221.52370759999758,221.52370759999758,221.52370759999758,221.52370759999758,,003,P017,2025_Mar_07_1712,CategoryLocalizer,2021.2.3,59.92512954509443,
172.0,172.8,4,0.75,Stimuli\ImageFiles-Set1\Scenes\Scenes_045.png,0,0,0,275,275,275,,,,,,,,,,,,,172.00120060000336,0.0012006000033579767,None,221.72388350000256,221.72388350000256,221.72388350000256,221.72388350000256,221.72388350000256,221.72388350000256,221.72388350000256,221.72388350000256,,003,P017,2025_Mar_07_1712,CategoryLocalizer,2021.2.3,59.92512954509443,
172.8,173.0,5,0.0,Stimuli\Blank.png,0,0,0,276,276,276,,,,,,,,,,,,,172.8020392000035,0.002039200003480346,None,222.52458699999988,222.52458699999988,222.52458699999988,222.52458699999988,222.52458699999988,222.52458699999988,222.52458699999988,222.52458699999988,,003,P017,2025_Mar_07_1712,CategoryLocalizer,2021.2.3,59.92512954509443,
173.0,173.8,4,0.75,Stimuli\ImageFiles-Set1\Scenes\Scenes_023.png,0,0,0,277,277,277,,,,,,,,,,,,,173.00374910000392,0.0037491000039153732,None,222.74144810000143,222.74144810000143,222.74144810000143,222.74144810000143,222.74144810000143,222.74144810000143,222.74144810000143,222.74144810000143,,003,P017,2025_Mar_07_1712,CategoryLocalizer,2021.2.3,59.92512954509443,
173.8,174.0,5,0.0,Stimuli\Blank.png,0,0,0,278,278,278,,,,,,,,,,,,,173.81946810000227,0.01946810000225696,None,223.5421434000018,223.5421434000018,223.5421434000018,223.5421434000018,223.5421434000018,223.5421434000018,223.5421434000018,223.5421434000018,,003,P017,2025_Mar_07_1712,CategoryLocalizer,2021.2.3,59.92512954509443,
174.0,174.8,4,0.75,Stimuli\ImageFiles-Set1\Scenes\Scenes_009.png,0,0,0,279,279,279,,,,,,,,,,,,,174.00302360000205,0.0030236000020522624,None,223.7423209999979,223.7423209999979,223.7423209999979,223.7423209999979,223.7423209999979,223.7423209999979,223.7423209999979,223.7423209999979,,003,P017,2025_Mar_07_1712,CategoryLocalizer,2021.2.3,59.92512954509443,
174.8,175.0,5,0.0,Stimuli\Blank.png,0,0,0,280,280,280,,,,,,,,,,,,,174.81964270000026,0.01964270000024726,None,224.5430344999986,224.5430344999986,224.5430344999986,224.5430344999986,224.5430344999986,224.5430344999986,224.5430344999986,224.5430344999986,,003,P017,2025_Mar_07_1712,CategoryLocalizer,2021.2.3,59.92512954509443,
175.0,175.8,4,0.75,Stimuli\ImageFiles-Set1\Scenes\Scenes_007.png,0,0,0,281,281,281,,,,,,,,,,,,,175.00453080000443,0.004530800004431512,None,224.72650129999965,224.72650129999965,224.72650129999965,224.72650129999965,224.72650129999965,224.72650129999965,224.72650129999965,224.72650129999965,,003,P017,2025_Mar_07_1712,CategoryLocalizer,2021.2.3,59.92512954509443,
175.8,176.0,5,0.0,Stimuli\Blank.png,0,0,0,282,282,282,,,,,,,,,,,,,175.80497319999995,0.0049731999999380605,None,225.5272552000024,225.5272552000024,225.5272552000024,225.5272552000024,225.5272552000024,225.5272552000024,225.5272552000024,225.5272552000024,,003,P017,2025_Mar_07_1712,CategoryLocalizer,2021.2.3,59.92512954509443,
176.0,176.8,4,0.75,Stimuli\ImageFiles-Set1\Scenes\Scenes_052.png,0,0,0,283,283,283,,,,,,,,,,,,,176.00607799999852,0.006077999998524319,None,225.74409020000166,225.74409020000166,225.74409020000166,225.74409020000166,225.74409020000166,225.74409020000166,225.74409020000166,225.74409020000166,,003,P017,2025_Mar_07_1712,CategoryLocalizer,2021.2.3,59.92512954509443,
176.8,177.0,5,0.0,Stimuli\Blank.png,0,0,0,284,284,284,,,,,,,,,,,,,176.8237353000004,0.023735300000396364,None,226.5614859999987,226.5614859999987,226.5614859999987,226.5614859999987,226.5614859999987,226.5614859999987,226.5614859999987,226.5614859999987,,003,P017,2025_Mar_07_1712,CategoryLocalizer,2021.2.3,59.92512954509443,
