eventStartTime,eventEndTime,eventCond,imSize,imFile,repeatedImage,responseEvent,Events.thisRepN,Events.thisTrialN,Events.thisN,Events.thisIndex,Instructions.started,Instructions.stopped,participantReadyResponse.keys,participantReadyResponse.rt,participantReadyResponse.started,participantReadyResponse.stopped,startWaitforTrigger,triggerResponse.keys,triggerResponse.rt,triggerResponse.started,triggerResponse.stopped,globalTimer,actualStartTime,startTimingDiff,participantResponse.keys,participantResponse.started,participantResponse.stopped,image.started,image.stopped,fixationOutside.started,fixationOutside.stopped,fixationInside.started,fixationInside.stopped,participantResponse.rt,session,participant,date,expName,psychopyVersion,frameRate,
,,,,,,,,,,,10.35070860000269,None,2,6.5854638000018895,10.35070860000269,None,,,,,,,,,,,,,,,,,,,003,P018,2025_Mar_07_1901,CategoryLocalizer,2021.2.3,59.91023051142225,
,,,,,,,,,,,,,,,,,16.945699900003092,5,14.490704000003461,16.95837169999868,None,,,,,,,,,,,,,,003,P018,2025_Mar_07_1901,CategoryLocalizer,2021.2.3,59.91023051142225,
0.0,12.0,0,0.0,Stimuli\Blank.png,0,0,0,0,0,0,,,,,,,,,,,,31.45849740000267,0.03715160000137985,0.03715160000137985,None,31.521202199997788,None,31.521202199997788,None,31.521202199997788,None,31.521202199997788,None,,003,P018,2025_Mar_07_1901,CategoryLocalizer,2021.2.3,59.91023051142225,
12.0,12.8,1,0.75,Stimuli\ImageFiles-Set1\Objects\Object_Wagon_00001.png,0,0,0,1,1,1,,,,,,,,,,,,,12.030807299997832,0.03080729999783216,None,43.51513729999715,43.51513729999715,43.51513729999715,43.51513729999715,43.51513729999715,43.51513729999715,43.51513729999715,43.51513729999715,,003,P018,2025_Mar_07_1901,CategoryLocalizer,2021.2.3,59.91023051142225,
12.8,13.0,5,0.0,Stimuli\Blank.png,0,0,0,2,2,2,,,,,,,,,,,,,12.826550199999474,0.02655019999947328,None,44.29916139999841,44.29916139999841,44.29916139999841,44.29916139999841,44.29916139999841,44.29916139999841,44.29916139999841,44.29916139999841,,003,P018,2025_Mar_07_1901,CategoryLocalizer,2021.2.3,59.91023051142225,
13.0,13.8,1,0.75,Stimuli\ImageFiles-Set1\Objects\Object_Boat_00001.png,0,0,0,3,3,3,,,,,,,,,,,,,13.009554299998854,0.009554299998853821,None,44.482725100002426,44.482725100002426,44.482725100002426,44.482725100002426,44.482725100002426,44.482725100002426,44.482725100002426,44.482725100002426,,003,P018,2025_Mar_07_1901,CategoryLocalizer,2021.2.3,59.91023051142225,
13.8,14.0,5,0.0,Stimuli\Blank.png,0,0,0,4,4,4,,,,,,,,,,,,,13.811870500001532,0.01187050000153178,None,45.30005350000283,45.30005350000283,45.30005350000283,45.30005350000283,45.30005350000283,45.30005350000283,45.30005350000283,45.30005350000283,,003,P018,2025_Mar_07_1901,CategoryLocalizer,2021.2.3,59.91023051142225,
14.0,14.8,1,0.75,Stimuli\ImageFiles-Set1\Objects\Object_Stroller_00001.png,0,0,0,5,5,5,,,,,,,,,,,,,14.028083000004699,0.028083000004698988,None,45.51690950000193,45.51690950000193,45.51690950000193,45.51690950000193,45.51690950000193,45.51690950000193,45.51690950000193,45.51690950000193,,003,P018,2025_Mar_07_1901,CategoryLocalizer,2021.2.3,59.91023051142225,
14.8,15.0,5,0.0,Stimuli\Blank.png,0,0,0,6,6,6,,,,,,,,,,,,,14.82837440000003,0.028374400000029,None,46.300933699996676,46.300933699996676,46.300933699996676,46.300933699996676,46.300933699996676,46.300933699996676,46.300933699996676,46.300933699996676,,003,P018,2025_Mar_07_1901,CategoryLocalizer,2021.2.3,59.91023051142225,
15.0,15.8,1,0.75,Stimuli\ImageFiles-Set1\Objects\Object_Chest_00001.png,0,0,0,7,7,7,,,,,,,,,,,,,15.011132999999973,0.011132999999972526,None,46.484419599997636,46.484419599997636,46.484419599997636,46.484419599997636,46.484419599997636,46.484419599997636,46.484419599997636,46.484419599997636,,003,P018,2025_Mar_07_1901,CategoryLocalizer,2021.2.3,59.91023051142225,
15.8,16.0,5,0.0,Stimuli\Blank.png,0,0,0,8,8,8,,,,,,,,,,,,,15.812269300004118,0.012269300004117412,None,47.28514390000055,47.28514390000055,47.28514390000055,47.28514390000055,47.28514390000055,47.28514390000055,47.28514390000055,47.28514390000055,,003,P018,2025_Mar_07_1901,CategoryLocalizer,2021.2.3,59.91023051142225,
16.0,16.8,1,0.75,Stimuli\ImageFiles-Set1\Objects\Object_Lamp_00001.png,0,0,0,9,9,9,,,,,,,,,,,,,16.012296000000788,0.012296000000787899,None,47.48532339999656,47.48532339999656,47.48532339999656,47.48532339999656,47.48532339999656,47.48532339999656,47.48532339999656,47.48532339999656,,003,P018,2025_Mar_07_1901,CategoryLocalizer,2021.2.3,59.91023051142225,
16.8,17.0,5,0.0,Stimuli\Blank.png,0,0,0,10,10,10,,,,,,,,,,,,,16.8129603999987,0.012960399998700467,None,48.286158499999146,48.286158499999146,48.286158499999146,48.286158499999146,48.286158499999146,48.286158499999146,48.286158499999146,48.286158499999146,,003,P018,2025_Mar_07_1901,CategoryLocalizer,2021.2.3,59.91023051142225,
17.0,17.8,1,0.75,Stimuli\ImageFiles-Set1\Objects\Object_Peanut_00001.png,0,0,0,11,11,11,,,,,,,,,,,,,17.012986900001124,0.012986900001124013,None,48.48619840000174,48.48619840000174,48.48619840000174,48.48619840000174,48.48619840000174,48.48619840000174,48.48619840000174,48.48619840000174,,003,P018,2025_Mar_07_1901,CategoryLocalizer,2021.2.3,59.91023051142225,
17.8,18.0,5,0.0,Stimuli\Blank.png,0,0,0,12,12,12,,,,,,,,,,,,,17.81466200000432,0.014662000004317832,None,49.2869761999973,49.2869761999973,49.2869761999973,49.2869761999973,49.2869761999973,49.2869761999973,49.2869761999973,49.2869761999973,,003,P018,2025_Mar_07_1901,CategoryLocalizer,2021.2.3,59.91023051142225,
18.0,18.8,1,0.75,Stimuli\ImageFiles-Set1\Objects\Object_Peanut_00001.png,1,1,0,13,13,13,,,,,,,,,,,,,18.014629800003604,0.014629800003604032,2,49.4870815999966,49.4870815999966,49.4870815999966,49.4870815999966,49.4870815999966,49.4870815999966,49.4870815999966,49.4870815999966,0.43308569999499014,003,P018,2025_Mar_07_1901,CategoryLocalizer,2021.2.3,59.91023051142225,
18.8,19.0,5,0.0,Stimuli\Blank.png,0,0,0,14,14,14,,,,,,,,,,,,,18.81477480000467,0.014774800004669686,None,50.28778710000188,50.28778710000188,50.28778710000188,50.28778710000188,50.28778710000188,50.28778710000188,50.28778710000188,50.28778710000188,,003,P018,2025_Mar_07_1901,CategoryLocalizer,2021.2.3,59.91023051142225,
19.0,19.8,1,0.75,Stimuli\ImageFiles-Set1\Objects\Object_Dryer_00001.png,0,0,0,15,15,15,,,,,,,,,,,,,19.01725830000214,0.01725830000214046,None,50.50465249999979,50.50465249999979,50.50465249999979,50.50465249999979,50.50465249999979,50.50465249999979,50.50465249999979,50.50465249999979,,003,P018,2025_Mar_07_1901,CategoryLocalizer,2021.2.3,59.91023051142225,
19.8,20.0,5,0.0,Stimuli\Blank.png,0,0,0,16,16,16,,,,,,,,,,,,,19.81727640000463,0.017276400004629267,None,51.30536250000296,51.30536250000296,51.30536250000296,51.30536250000296,51.30536250000296,51.30536250000296,51.30536250000296,51.30536250000296,,003,P018,2025_Mar_07_1901,CategoryLocalizer,2021.2.3,59.91023051142225,
20.0,20.8,1,0.75,Stimuli\ImageFiles-Set1\Objects\Object_Pizza_00001.png,0,0,0,17,17,17,,,,,,,,,,,,,20.015718900001957,0.01571890000195708,None,51.48884879999969,51.48884879999969,51.48884879999969,51.48884879999969,51.48884879999969,51.48884879999969,51.48884879999969,51.48884879999969,,003,P018,2025_Mar_07_1901,CategoryLocalizer,2021.2.3,59.91023051142225,
20.8,21.0,5,0.0,Stimuli\Blank.png,0,0,0,18,18,18,,,,,,,,,,,,,20.80201880000095,0.002018800000950449,None,52.28956930000277,52.28956930000277,52.28956930000277,52.28956930000277,52.28956930000277,52.28956930000277,52.28956930000277,52.28956930000277,,003,P018,2025_Mar_07_1901,CategoryLocalizer,2021.2.3,59.91023051142225,
21.0,21.8,1,0.75,Stimuli\ImageFiles-Set1\Objects\Object_Locker_00001.png,0,0,0,19,19,19,,,,,,,,,,,,,21.01709710000432,0.017097100004320964,None,52.48973989999649,52.48973989999649,52.48973989999649,52.48973989999649,52.48973989999649,52.48973989999649,52.48973989999649,52.48973989999649,,003,P018,2025_Mar_07_1901,CategoryLocalizer,2021.2.3,59.91023051142225,
21.8,22.0,5,0.0,Stimuli\Blank.png,0,0,0,20,20,20,,,,,,,,,,,,,21.802961599998525,0.0029615999985246333,None,53.29045359999873,53.29045359999873,53.29045359999873,53.29045359999873,53.29045359999873,53.29045359999873,53.29045359999873,53.29045359999873,,003,P018,2025_Mar_07_1901,CategoryLocalizer,2021.2.3,59.91023051142225,
22.0,22.8,1,0.75,Stimuli\ImageFiles-Set1\Objects\Object_Ring_00001.png,0,0,0,21,21,21,,,,,,,,,,,,,22.017609900001844,0.017609900001843926,None,53.49061890000303,53.49061890000303,53.49061890000303,53.49061890000303,53.49061890000303,53.49061890000303,53.49061890000303,53.49061890000303,,003,P018,2025_Mar_07_1901,CategoryLocalizer,2021.2.3,59.91023051142225,
22.8,23.0,5,0.0,Stimuli\Blank.png,0,0,0,22,22,22,,,,,,,,,,,,,22.80538130000059,0.005381300000589562,None,54.29136670000298,54.29136670000298,54.29136670000298,54.29136670000298,54.29136670000298,54.29136670000298,54.29136670000298,54.29136670000298,,003,P018,2025_Mar_07_1901,CategoryLocalizer,2021.2.3,59.91023051142225,
23.0,23.8,1,0.75,Stimuli\ImageFiles-Set1\Objects\Object_Baseball_00001.png,0,0,0,23,23,23,,,,,,,,,,,,,23.01871519999986,0.018715199999860488,None,54.49149729999772,54.49149729999772,54.49149729999772,54.49149729999772,54.49149729999772,54.49149729999772,54.49149729999772,54.49149729999772,,003,P018,2025_Mar_07_1901,CategoryLocalizer,2021.2.3,59.91023051142225,
23.8,24.0,5,0.0,Stimuli\Blank.png,0,0,0,24,24,24,,,,,,,,,,,,,23.802315400003863,0.0023154000038623224,None,55.27552899999864,55.27552899999864,55.27552899999864,55.27552899999864,55.27552899999864,55.27552899999864,55.27552899999864,55.27552899999864,,003,P018,2025_Mar_07_1901,CategoryLocalizer,2021.2.3,59.91023051142225,
24.0,24.8,1,0.75,Stimuli\ImageFiles-Set1\Objects\Object_Shirt_00001.png,0,0,0,25,25,25,,,,,,,,,,,,,24.00330329999997,0.003303299999970477,None,55.47567179999896,55.47567179999896,55.47567179999896,55.47567179999896,55.47567179999896,55.47567179999896,55.47567179999896,55.47567179999896,,003,P018,2025_Mar_07_1901,CategoryLocalizer,2021.2.3,59.91023051142225,
24.8,25.0,5,0.0,Stimuli\Blank.png,0,0,0,26,26,26,,,,,,,,,,,,,24.803267499999492,0.0032674999994917187,None,56.27642670000205,56.27642670000205,56.27642670000205,56.27642670000205,56.27642670000205,56.27642670000205,56.27642670000205,56.27642670000205,,003,P018,2025_Mar_07_1901,CategoryLocalizer,2021.2.3,59.91023051142225,
25.0,25.8,1,0.75,Stimuli\ImageFiles-Set1\Objects\Object_Scale_00001.png,0,0,0,27,27,27,,,,,,,,,,,,,25.00417010000092,0.004170100000919774,None,56.476589500001865,56.476589500001865,56.476589500001865,56.476589500001865,56.476589500001865,56.476589500001865,56.476589500001865,56.476589500001865,,003,P018,2025_Mar_07_1901,CategoryLocalizer,2021.2.3,59.91023051142225,
25.8,26.0,5,0.0,Stimuli\Blank.png,0,0,0,28,28,28,,,,,,,,,,,,,25.806620700001076,0.006620700001075619,None,57.29400760000135,57.29400760000135,57.29400760000135,57.29400760000135,57.29400760000135,57.29400760000135,57.29400760000135,57.29400760000135,,003,P018,2025_Mar_07_1901,CategoryLocalizer,2021.2.3,59.91023051142225,
26.0,26.8,1,0.75,Stimuli\ImageFiles-Set1\Objects\Object_Canoe_00001.png,0,0,0,29,29,29,,,,,,,,,,,,,26.021510300000955,0.021510300000954885,None,57.494155899999896,57.494155899999896,57.494155899999896,57.494155899999896,57.494155899999896,57.494155899999896,57.494155899999896,57.494155899999896,,003,P018,2025_Mar_07_1901,CategoryLocalizer,2021.2.3,59.91023051142225,
26.8,27.0,5,0.0,Stimuli\Blank.png,0,0,0,30,30,30,,,,,,,,,,,,,26.806268699998327,0.006268699998326355,None,58.27819569999701,58.27819569999701,58.27819569999701,58.27819569999701,58.27819569999701,58.27819569999701,58.27819569999701,58.27819569999701,,003,P018,2025_Mar_07_1901,CategoryLocalizer,2021.2.3,59.91023051142225,
27.0,27.8,1,0.75,Stimuli\ImageFiles-Set1\Objects\Object_PepperShaker_00001.png,0,0,0,31,31,31,,,,,,,,,,,,,27.00787030000356,0.00787030000356026,None,58.49505119999958,58.49505119999958,58.49505119999958,58.49505119999958,58.49505119999958,58.49505119999958,58.49505119999958,58.49505119999958,,003,P018,2025_Mar_07_1901,CategoryLocalizer,2021.2.3,59.91023051142225,
27.8,28.0,5,0.0,Stimuli\Blank.png,0,0,0,32,32,32,,,,,,,,,,,,,27.822830000004615,0.022830000004613993,None,59.295755400002236,59.295755400002236,59.295755400002236,59.295755400002236,59.295755400002236,59.295755400002236,59.295755400002236,59.295755400002236,,003,P018,2025_Mar_07_1901,CategoryLocalizer,2021.2.3,59.91023051142225,
28.0,28.8,2,0.75,Stimuli\ImageFiles-Set1\Bodies\Bodies_SittingFloor_00003.png,0,0,0,33,33,33,,,,,,,,,,,,,28.006172200002766,0.006172200002765749,None,59.47924320000311,59.47924320000311,59.47924320000311,59.47924320000311,59.47924320000311,59.47924320000311,59.47924320000311,59.47924320000311,,003,P018,2025_Mar_07_1901,CategoryLocalizer,2021.2.3,59.91023051142225,
28.8,29.0,5,0.0,Stimuli\Blank.png,0,0,0,34,34,34,,,,,,,,,,,,,28.807398500001,0.007398500000999064,None,60.279968100003316,60.279968100003316,60.279968100003316,60.279968100003316,60.279968100003316,60.279968100003316,60.279968100003316,60.279968100003316,,003,P018,2025_Mar_07_1901,CategoryLocalizer,2021.2.3,59.91023051142225,
29.0,29.8,2,0.75,Stimuli\ImageFiles-Set1\Bodies\Bodies_SittingFloor_00003.png,1,1,0,35,35,35,,,,,,,,,,,,,29.007753500001854,0.007753500001854263,2,60.496820899999875,60.496820899999875,60.496820899999875,60.496820899999875,60.496820899999875,60.496820899999875,60.496820899999875,60.496820899999875,0.3673877999972319,003,P018,2025_Mar_07_1901,CategoryLocalizer,2021.2.3,59.91023051142225,
29.8,30.0,5,0.0,Stimuli\Blank.png,0,0,0,36,36,36,,,,,,,,,,,,,29.827255199998035,0.027255199998034385,None,61.314221599997836,61.314221599997836,61.314221599997836,61.314221599997836,61.314221599997836,61.314221599997836,61.314221599997836,61.314221599997836,,003,P018,2025_Mar_07_1901,CategoryLocalizer,2021.2.3,59.91023051142225,
30.0,30.8,2,0.75,Stimuli\ImageFiles-Set1\Bodies\Bodies_Waving_00005.png,0,0,0,37,37,37,,,,,,,,,,,,,30.02689410000312,0.026894100003119092,None,61.51439609999943,61.51439609999943,61.51439609999943,61.51439609999943,61.51439609999943,61.51439609999943,61.51439609999943,61.51439609999943,,003,P018,2025_Mar_07_1901,CategoryLocalizer,2021.2.3,59.91023051142225,
30.8,31.0,5,0.0,Stimuli\Blank.png,0,0,0,38,38,38,,,,,,,,,,,,,30.826920500003325,0.026920500003324577,None,62.31511450000107,62.31511450000107,62.31511450000107,62.31511450000107,62.31511450000107,62.31511450000107,62.31511450000107,62.31511450000107,,003,P018,2025_Mar_07_1901,CategoryLocalizer,2021.2.3,59.91023051142225,
31.0,31.8,2,0.75,Stimuli\ImageFiles-Set1\Bodies\Bodies_Walking_00006.png,0,0,0,39,39,39,,,,,,,,,,,,,31.027225600002566,0.027225600002566352,None,62.51526719999674,62.51526719999674,62.51526719999674,62.51526719999674,62.51526719999674,62.51526719999674,62.51526719999674,62.51526719999674,,003,P018,2025_Mar_07_1901,CategoryLocalizer,2021.2.3,59.91023051142225,
31.8,32.0,5,0.0,Stimuli\Blank.png,0,0,0,40,40,40,,,,,,,,,,,,,31.826075999997556,0.0260759999975555,None,63.29933940000046,63.29933940000046,63.29933940000046,63.29933940000046,63.29933940000046,63.29933940000046,63.29933940000046,63.29933940000046,,003,P018,2025_Mar_07_1901,CategoryLocalizer,2021.2.3,59.91023051142225,
32.0,32.8,2,0.75,Stimuli\ImageFiles-Set1\Bodies\Bodies_QuadStretch_00001.png,0,0,0,41,41,41,,,,,,,,,,,,,32.0096005000014,0.00960050000139745,None,63.4995099000007,63.4995099000007,63.4995099000007,63.4995099000007,63.4995099000007,63.4995099000007,63.4995099000007,63.4995099000007,,003,P018,2025_Mar_07_1901,CategoryLocalizer,2021.2.3,59.91023051142225,
32.8,33.0,5,0.0,Stimuli\Blank.png,0,0,0,42,42,42,,,,,,,,,,,,,32.828897700004745,0.028897700004748117,None,64.30018140000175,64.30018140000175,64.30018140000175,64.30018140000175,64.30018140000175,64.30018140000175,64.30018140000175,64.30018140000175,,003,P018,2025_Mar_07_1901,CategoryLocalizer,2021.2.3,59.91023051142225,
33.0,33.8,2,0.75,Stimuli\ImageFiles-Set1\Bodies\Bodies_SittingFloor_00005.png,0,0,0,43,43,43,,,,,,,,,,,,,33.01143250000314,0.011432500003138557,None,64.48367509999662,64.48367509999662,64.48367509999662,64.48367509999662,64.48367509999662,64.48367509999662,64.48367509999662,64.48367509999662,,003,P018,2025_Mar_07_1901,CategoryLocalizer,2021.2.3,59.91023051142225,
33.8,34.0,5,0.0,Stimuli\Blank.png,0,0,0,44,44,44,,,,,,,,,,,,,33.81200959999842,0.01200959999842155,None,65.28438520000054,65.28438520000054,65.28438520000054,65.28438520000054,65.28438520000054,65.28438520000054,65.28438520000054,65.28438520000054,,003,P018,2025_Mar_07_1901,CategoryLocalizer,2021.2.3,59.91023051142225,
34.0,34.8,2,0.75,Stimuli\ImageFiles-Set1\Bodies\Bodies_Hanging_00002.png,0,0,0,45,45,45,,,,,,,,,,,,,34.012051199999405,0.012051199999405071,None,65.48453960000188,65.48453960000188,65.48453960000188,65.48453960000188,65.48453960000188,65.48453960000188,65.48453960000188,65.48453960000188,,003,P018,2025_Mar_07_1901,CategoryLocalizer,2021.2.3,59.91023051142225,
34.8,35.0,5,0.0,Stimuli\Blank.png,0,0,0,46,46,46,,,,,,,,,,,,,34.81340790000104,0.01340790000104164,None,66.28540130000329,66.28540130000329,66.28540130000329,66.28540130000329,66.28540130000329,66.28540130000329,66.28540130000329,66.28540130000329,,003,P018,2025_Mar_07_1901,CategoryLocalizer,2021.2.3,59.91023051142225,
35.0,35.8,2,0.75,Stimuli\ImageFiles-Set1\Bodies\Bodies_Hanging_00006.png,0,0,0,47,47,47,,,,,,,,,,,,,35.012357200001134,0.012357200001133606,None,66.48549230000208,66.48549230000208,66.48549230000208,66.48549230000208,66.48549230000208,66.48549230000208,66.48549230000208,66.48549230000208,,003,P018,2025_Mar_07_1901,CategoryLocalizer,2021.2.3,59.91023051142225,
35.8,36.0,5,0.0,Stimuli\Blank.png,0,0,0,48,48,48,,,,,,,,,,,,,35.81289670000115,0.012896700001149952,None,67.28615089999948,67.28615089999948,67.28615089999948,67.28615089999948,67.28615089999948,67.28615089999948,67.28615089999948,67.28615089999948,,003,P018,2025_Mar_07_1901,CategoryLocalizer,2021.2.3,59.91023051142225,
36.0,36.8,2,0.75,Stimuli\ImageFiles-Set1\Bodies\Bodies_Falling_00004.png,0,0,0,49,49,49,,,,,,,,,,,,,36.01312210000469,0.013122100004693493,None,67.48632029999862,67.48632029999862,67.48632029999862,67.48632029999862,67.48632029999862,67.48632029999862,67.48632029999862,67.48632029999862,,003,P018,2025_Mar_07_1901,CategoryLocalizer,2021.2.3,59.91023051142225,
36.8,37.0,5,0.0,Stimuli\Blank.png,0,0,0,50,50,50,,,,,,,,,,,,,36.81468380000297,0.014683800002970315,None,68.28702560000238,68.28702560000238,68.28702560000238,68.28702560000238,68.28702560000238,68.28702560000238,68.28702560000238,68.28702560000238,,003,P018,2025_Mar_07_1901,CategoryLocalizer,2021.2.3,59.91023051142225,
37.0,37.8,2,0.75,Stimuli\ImageFiles-Set1\Bodies\Bodies_DownwardDog_00007.png,0,0,0,51,51,51,,,,,,,,,,,,,37.013980299998366,0.013980299998365808,None,68.48721669999941,68.48721669999941,68.48721669999941,68.48721669999941,68.48721669999941,68.48721669999941,68.48721669999941,68.48721669999941,,003,P018,2025_Mar_07_1901,CategoryLocalizer,2021.2.3,59.91023051142225,
37.8,38.0,5,0.0,Stimuli\Blank.png,0,0,0,52,52,52,,,,,,,,,,,,,37.81532169999991,0.01532169999991595,None,69.28792519999843,69.28792519999843,69.28792519999843,69.28792519999843,69.28792519999843,69.28792519999843,69.28792519999843,69.28792519999843,,003,P018,2025_Mar_07_1901,CategoryLocalizer,2021.2.3,59.91023051142225,
38.0,38.8,2,0.75,Stimuli\ImageFiles-Set1\Bodies\Bodies_Kicking_00005.png,1,1,0,53,53,53,,,,,,,,,,,,,38.01483410000219,0.014834100002190098,None,69.50478830000065,69.50478830000065,69.50478830000065,69.50478830000065,69.50478830000065,69.50478830000065,69.50478830000065,69.50478830000065,,003,P018,2025_Mar_07_1901,CategoryLocalizer,2021.2.3,59.91023051142225,
38.8,39.0,5,0.0,Stimuli\Blank.png,0,0,0,54,54,54,,,,,,,,,,,,,38.832395099998394,0.032395099998396404,None,70.3054800999962,70.3054800999962,70.3054800999962,70.3054800999962,70.3054800999962,70.3054800999962,70.3054800999962,70.3054800999962,,003,P018,2025_Mar_07_1901,CategoryLocalizer,2021.2.3,59.91023051142225,
39.0,39.8,2,0.75,Stimuli\ImageFiles-Set1\Bodies\Bodies_CobraPose_00005.png,0,0,0,55,55,55,,,,,,,,,,,,,38.99904819999938,-0.0009518000006210059,None,70.47228960000211,70.47228960000211,70.47228960000211,70.47228960000211,70.47228960000211,70.47228960000211,70.47228960000211,70.47228960000211,,003,P018,2025_Mar_07_1901,CategoryLocalizer,2021.2.3,59.91023051142225,
39.8,40.0,5,0.0,Stimuli\Blank.png,0,0,0,56,56,56,,,,,,,,,,,,,39.80183360000228,0.001833600002285607,None,71.28970839999965,71.28970839999965,71.28970839999965,71.28970839999965,71.28970839999965,71.28970839999965,71.28970839999965,71.28970839999965,,003,P018,2025_Mar_07_1901,CategoryLocalizer,2021.2.3,59.91023051142225,
40.0,40.8,2,0.75,Stimuli\ImageFiles-Set1\Bodies\Bodies_CobraPose_00005.png,0,0,0,57,57,57,,,,,,,,,,,,,40.017166700003145,0.017166700003144797,2,71.48986670000158,71.48986670000158,71.48986670000158,71.48986670000158,71.48986670000158,71.48986670000158,71.48986670000158,71.48986670000158,0.31420490000164136,003,P018,2025_Mar_07_1901,CategoryLocalizer,2021.2.3,59.91023051142225,
40.8,41.0,5,0.0,Stimuli\Blank.png,0,0,0,58,58,58,,,,,,,,,,,,,40.80181420000008,0.0018142000000835878,None,72.27390079999896,72.27390079999896,72.27390079999896,72.27390079999896,72.27390079999896,72.27390079999896,72.27390079999896,72.27390079999896,,003,P018,2025_Mar_07_1901,CategoryLocalizer,2021.2.3,59.91023051142225,
41.0,41.8,2,0.75,Stimuli\ImageFiles-Set1\Bodies\Bodies_QuadStretch_00003.png,0,0,0,59,59,59,,,,,,,,,,,,,41.00169740000274,0.0016974000027403235,None,72.47406870000123,72.47406870000123,72.47406870000123,72.47406870000123,72.47406870000123,72.47406870000123,72.47406870000123,72.47406870000123,,003,P018,2025_Mar_07_1901,CategoryLocalizer,2021.2.3,59.91023051142225,
41.8,42.0,5,0.0,Stimuli\Blank.png,0,0,0,60,60,60,,,,,,,,,,,,,41.80149600000004,0.001496000000045683,None,73.27478359999805,73.27478359999805,73.27478359999805,73.27478359999805,73.27478359999805,73.27478359999805,73.27478359999805,73.27478359999805,,003,P018,2025_Mar_07_1901,CategoryLocalizer,2021.2.3,59.91023051142225,
42.0,42.8,2,0.75,Stimuli\ImageFiles-Set1\Bodies\Bodies_QuadStretch_00005.png,0,0,0,61,61,61,,,,,,,,,,,,,42.00245800000266,0.00245800000266172,None,73.47491810000065,73.47491810000065,73.47491810000065,73.47491810000065,73.47491810000065,73.47491810000065,73.47491810000065,73.47491810000065,,003,P018,2025_Mar_07_1901,CategoryLocalizer,2021.2.3,59.91023051142225,
42.8,43.0,5,0.0,Stimuli\Blank.png,0,0,0,62,62,62,,,,,,,,,,,,,42.803192400002445,0.003192400002447471,None,74.27563240000018,74.27563240000018,74.27563240000018,74.27563240000018,74.27563240000018,74.27563240000018,74.27563240000018,74.27563240000018,,003,P018,2025_Mar_07_1901,CategoryLocalizer,2021.2.3,59.91023051142225,
43.0,43.8,2,0.75,Stimuli\ImageFiles-Set1\Bodies\Bodies_Crawling_00006.png,0,0,0,63,63,63,,,,,,,,,,,,,43.00270309999905,0.002703099999052938,None,74.47582539999712,74.47582539999712,74.47582539999712,74.47582539999712,74.47582539999712,74.47582539999712,74.47582539999712,74.47582539999712,,003,P018,2025_Mar_07_1901,CategoryLocalizer,2021.2.3,59.91023051142225,
43.8,44.0,5,0.0,Stimuli\Blank.png,0,0,0,64,64,64,,,,,,,,,,,,,43.80437150000216,0.0043715000021649075,None,75.27654900000198,75.27654900000198,75.27654900000198,75.27654900000198,75.27654900000198,75.27654900000198,75.27654900000198,75.27654900000198,,003,P018,2025_Mar_07_1901,CategoryLocalizer,2021.2.3,59.91023051142225,
44.0,44.8,3,0.75,Stimuli\ImageFiles-Set1\Faces\Face_00089.png,0,0,0,65,65,65,,,,,,,,,,,,,44.004101999998966,0.004101999998965766,None,75.47671509999782,75.47671509999782,75.47671509999782,75.47671509999782,75.47671509999782,75.47671509999782,75.47671509999782,75.47671509999782,,003,P018,2025_Mar_07_1901,CategoryLocalizer,2021.2.3,59.91023051142225,
44.8,45.0,5,0.0,Stimuli\Blank.png,0,0,0,66,66,66,,,,,,,,,,,,,44.80683510000381,0.006835100003812045,None,76.29413129999739,76.29413129999739,76.29413129999739,76.29413129999739,76.29413129999739,76.29413129999739,76.29413129999739,76.29413129999739,,003,P018,2025_Mar_07_1901,CategoryLocalizer,2021.2.3,59.91023051142225,
45.0,45.8,3,0.75,Stimuli\ImageFiles-Set1\Faces\Face_00061.png,0,0,0,67,67,67,,,,,,,,,,,,,45.02164649999759,0.021646499997586943,None,76.51096770000004,76.51096770000004,76.51096770000004,76.51096770000004,76.51096770000004,76.51096770000004,76.51096770000004,76.51096770000004,,003,P018,2025_Mar_07_1901,CategoryLocalizer,2021.2.3,59.91023051142225,
45.8,46.0,5,0.0,Stimuli\Blank.png,0,0,0,68,68,68,,,,,,,,,,,,,45.822877400001744,0.02287740000174665,None,77.29498890000104,77.29498890000104,77.29498890000104,77.29498890000104,77.29498890000104,77.29498890000104,77.29498890000104,77.29498890000104,,003,P018,2025_Mar_07_1901,CategoryLocalizer,2021.2.3,59.91023051142225,
46.0,46.8,3,0.75,Stimuli\ImageFiles-Set1\Faces\Face_00047.png,0,0,0,69,69,69,,,,,,,,,,,,,46.00584550000349,0.005845500003488269,None,77.47849359999964,77.47849359999964,77.47849359999964,77.47849359999964,77.47849359999964,77.47849359999964,77.47849359999964,77.47849359999964,,003,P018,2025_Mar_07_1901,CategoryLocalizer,2021.2.3,59.91023051142225,
46.8,47.0,5,0.0,Stimuli\Blank.png,0,0,0,70,70,70,,,,,,,,,,,,,46.80657739999879,0.006577399998789701,None,78.27920509999967,78.27920509999967,78.27920509999967,78.27920509999967,78.27920509999967,78.27920509999967,78.27920509999967,78.27920509999967,,003,P018,2025_Mar_07_1901,CategoryLocalizer,2021.2.3,59.91023051142225,
47.0,47.8,3,0.75,Stimuli\ImageFiles-Set1\Faces\Face_00020.png,0,0,0,71,71,71,,,,,,,,,,,,,47.00629630000185,0.006296300001849886,None,78.4793770000033,78.4793770000033,78.4793770000033,78.4793770000033,78.4793770000033,78.4793770000033,78.4793770000033,78.4793770000033,,003,P018,2025_Mar_07_1901,CategoryLocalizer,2021.2.3,59.91023051142225,
47.8,48.0,5,0.0,Stimuli\Blank.png,0,0,0,72,72,72,,,,,,,,,,,,,47.80755450000288,0.007554500002882492,None,79.28008650000265,79.28008650000265,79.28008650000265,79.28008650000265,79.28008650000265,79.28008650000265,79.28008650000265,79.28008650000265,,003,P018,2025_Mar_07_1901,CategoryLocalizer,2021.2.3,59.91023051142225,
48.0,48.8,3,0.75,Stimuli\ImageFiles-Set1\Faces\Face_00087.png,0,0,0,73,73,73,,,,,,,,,,,,,48.007033499998215,0.00703349999821512,None,79.48026579999714,79.48026579999714,79.48026579999714,79.48026579999714,79.48026579999714,79.48026579999714,79.48026579999714,79.48026579999714,,003,P018,2025_Mar_07_1901,CategoryLocalizer,2021.2.3,59.91023051142225,
48.8,49.0,5,0.0,Stimuli\Blank.png,0,0,0,74,74,74,,,,,,,,,,,,,48.80771310000273,0.007713100002732176,None,80.28094050000072,80.28094050000072,80.28094050000072,80.28094050000072,80.28094050000072,80.28094050000072,80.28094050000072,80.28094050000072,,003,P018,2025_Mar_07_1901,CategoryLocalizer,2021.2.3,59.91023051142225,
49.0,49.8,3,0.75,Stimuli\ImageFiles-Set1\Faces\Face_00065.png,0,0,0,75,75,75,,,,,,,,,,,,,49.00854619999882,0.008546199998818338,None,80.4979067000022,80.4979067000022,80.4979067000022,80.4979067000022,80.4979067000022,80.4979067000022,80.4979067000022,80.4979067000022,,003,P018,2025_Mar_07_1901,CategoryLocalizer,2021.2.3,59.91023051142225,
49.8,50.0,5,0.0,Stimuli\Blank.png,0,0,0,76,76,76,,,,,,,,,,,,,49.8259354000038,0.02593540000380301,None,81.29857939999783,81.29857939999783,81.29857939999783,81.29857939999783,81.29857939999783,81.29857939999783,81.29857939999783,81.29857939999783,,003,P018,2025_Mar_07_1901,CategoryLocalizer,2021.2.3,59.91023051142225,
50.0,50.8,3,0.75,Stimuli\ImageFiles-Set1\Faces\Face_00035.png,0,0,0,77,77,77,,,,,,,,,,,,,50.00889620000089,0.00889620000089053,None,81.48202619999938,81.48202619999938,81.48202619999938,81.48202619999938,81.48202619999938,81.48202619999938,81.48202619999938,81.48202619999938,,003,P018,2025_Mar_07_1901,CategoryLocalizer,2021.2.3,59.91023051142225,
50.8,51.0,5,0.0,Stimuli\Blank.png,0,0,0,78,78,78,,,,,,,,,,,,,50.80995850000181,0.009958500001815196,None,82.28271890000178,82.28271890000178,82.28271890000178,82.28271890000178,82.28271890000178,82.28271890000178,82.28271890000178,82.28271890000178,,003,P018,2025_Mar_07_1901,CategoryLocalizer,2021.2.3,59.91023051142225,
51.0,51.8,3,0.75,Stimuli\ImageFiles-Set1\Faces\Face_00025.png,0,0,0,79,79,79,,,,,,,,,,,,,51.01030100000207,0.010301000002073124,None,82.4829144999967,82.4829144999967,82.4829144999967,82.4829144999967,82.4829144999967,82.4829144999967,82.4829144999967,82.4829144999967,,003,P018,2025_Mar_07_1901,CategoryLocalizer,2021.2.3,59.91023051142225,
51.8,52.0,5,0.0,Stimuli\Blank.png,0,0,0,80,80,80,,,,,,,,,,,,,51.811168799998995,0.011168799998998225,None,83.28363600000012,83.28363600000012,83.28363600000012,83.28363600000012,83.28363600000012,83.28363600000012,83.28363600000012,83.28363600000012,,003,P018,2025_Mar_07_1901,CategoryLocalizer,2021.2.3,59.91023051142225,
52.0,52.8,3,0.75,Stimuli\ImageFiles-Set1\Faces\Face_00081.png,0,0,0,81,81,81,,,,,,,,,,,,,52.01097390000359,0.010973900003591552,None,83.48379949999799,83.48379949999799,83.48379949999799,83.48379949999799,83.48379949999799,83.48379949999799,83.48379949999799,83.48379949999799,,003,P018,2025_Mar_07_1901,CategoryLocalizer,2021.2.3,59.91023051142225,
52.8,53.0,5,0.0,Stimuli\Blank.png,0,0,0,82,82,82,,,,,,,,,,,,,52.81279650000215,0.012796500002153266,None,84.28452370000014,84.28452370000014,84.28452370000014,84.28452370000014,84.28452370000014,84.28452370000014,84.28452370000014,84.28452370000014,,003,P018,2025_Mar_07_1901,CategoryLocalizer,2021.2.3,59.91023051142225,
53.0,53.8,3,0.75,Stimuli\ImageFiles-Set1\Faces\Face_00081.png,1,1,0,83,83,83,,,,,,,,,,,,,53.01310580000427,0.01310580000426853,2,84.50155510000332,84.50155510000332,84.50155510000332,84.50155510000332,84.50155510000332,84.50155510000332,84.50155510000332,84.50155510000332,0.2889383000001544,003,P018,2025_Mar_07_1901,CategoryLocalizer,2021.2.3,59.91023051142225,
53.8,54.0,5,0.0,Stimuli\Blank.png,0,0,0,84,84,84,,,,,,,,,,,,,53.82899890000408,0.02899890000408334,None,85.30207189999783,85.30207189999783,85.30207189999783,85.30207189999783,85.30207189999783,85.30207189999783,85.30207189999783,85.30207189999783,,003,P018,2025_Mar_07_1901,CategoryLocalizer,2021.2.3,59.91023051142225,
54.0,54.8,3,0.75,Stimuli\ImageFiles-Set1\Faces\Face_00057.png,0,0,0,85,85,85,,,,,,,,,,,,,54.012788,0.012788000000000466,None,85.50227469999663,85.50227469999663,85.50227469999663,85.50227469999663,85.50227469999663,85.50227469999663,85.50227469999663,85.50227469999663,,003,P018,2025_Mar_07_1901,CategoryLocalizer,2021.2.3,59.91023051142225,
54.8,55.0,5,0.0,Stimuli\Blank.png,0,0,0,86,86,86,,,,,,,,,,,,,54.83165040000313,0.03165040000313013,None,86.31966300000204,86.31966300000204,86.31966300000204,86.31966300000204,86.31966300000204,86.31966300000204,86.31966300000204,86.31966300000204,,003,P018,2025_Mar_07_1901,CategoryLocalizer,2021.2.3,59.91023051142225,
55.0,55.8,3,0.75,Stimuli\ImageFiles-Set1\Faces\Face_00014.png,0,0,0,87,87,87,,,,,,,,,,,,,55.03251889999956,0.032518899999558926,None,86.51982919999864,86.51982919999864,86.51982919999864,86.51982919999864,86.51982919999864,86.51982919999864,86.51982919999864,86.51982919999864,,003,P018,2025_Mar_07_1901,CategoryLocalizer,2021.2.3,59.91023051142225,
55.8,56.0,5,0.0,Stimuli\Blank.png,0,0,0,88,88,88,,,,,,,,,,,,,55.81525980000151,0.015259800001516055,None,87.28717399999732,87.28717399999732,87.28717399999732,87.28717399999732,87.28717399999732,87.28717399999732,87.28717399999732,87.28717399999732,,003,P018,2025_Mar_07_1901,CategoryLocalizer,2021.2.3,59.91023051142225,
56.0,56.8,3,0.75,Stimuli\ImageFiles-Set1\Faces\Face_00113.png,0,0,0,89,89,89,,,,,,,,,,,,,56.01694590000261,0.01694590000261087,None,87.50402420000319,87.50402420000319,87.50402420000319,87.50402420000319,87.50402420000319,87.50402420000319,87.50402420000319,87.50402420000319,,003,P018,2025_Mar_07_1901,CategoryLocalizer,2021.2.3,59.91023051142225,
56.8,57.0,5,0.0,Stimuli\Blank.png,0,0,0,90,90,90,,,,,,,,,,,,,56.8149132000035,0.014913200003505267,None,88.28804929999751,88.28804929999751,88.28804929999751,88.28804929999751,88.28804929999751,88.28804929999751,88.28804929999751,88.28804929999751,,003,P018,2025_Mar_07_1901,CategoryLocalizer,2021.2.3,59.91023051142225,
57.0,57.8,3,0.75,Stimuli\ImageFiles-Set1\Faces\Face_00119.png,0,0,0,91,91,91,,,,,,,,,,,,,57.016378500004066,0.016378500004066154,None,88.50491060000058,88.50491060000058,88.50491060000058,88.50491060000058,88.50491060000058,88.50491060000058,88.50491060000058,88.50491060000058,,003,P018,2025_Mar_07_1901,CategoryLocalizer,2021.2.3,59.91023051142225,
57.8,58.0,5,0.0,Stimuli\Blank.png,0,0,0,92,92,92,,,,,,,,,,,,,57.816784700000426,0.016784700000428643,None,89.28894379999838,89.28894379999838,89.28894379999838,89.28894379999838,89.28894379999838,89.28894379999838,89.28894379999838,89.28894379999838,,003,P018,2025_Mar_07_1901,CategoryLocalizer,2021.2.3,59.91023051142225,
58.0,58.8,3,0.75,Stimuli\ImageFiles-Set1\Faces\Face_00009.png,0,0,0,93,93,93,,,,,,,,,,,,,57.999964399998134,-3.560000186553225e-05,None,89.48910639999667,89.48910639999667,89.48910639999667,89.48910639999667,89.48910639999667,89.48910639999667,89.48910639999667,89.48910639999667,,003,P018,2025_Mar_07_1901,CategoryLocalizer,2021.2.3,59.91023051142225,
58.8,59.0,5,0.0,Stimuli\Blank.png,0,0,0,94,94,94,,,,,,,,,,,,,58.816572700001416,0.01657270000141864,None,90.28981409999687,90.28981409999687,90.28981409999687,90.28981409999687,90.28981409999687,90.28981409999687,90.28981409999687,90.28981409999687,,003,P018,2025_Mar_07_1901,CategoryLocalizer,2021.2.3,59.91023051142225,
59.0,59.8,3,0.75,Stimuli\ImageFiles-Set1\Faces\Face_00005.png,0,0,0,95,95,95,,,,,,,,,,,,,59.00172510000266,0.001725100002659019,None,90.4899946000005,90.4899946000005,90.4899946000005,90.4899946000005,90.4899946000005,90.4899946000005,90.4899946000005,90.4899946000005,,003,P018,2025_Mar_07_1901,CategoryLocalizer,2021.2.3,59.91023051142225,
59.8,60.0,5,0.0,Stimuli\Blank.png,0,0,0,96,96,96,,,,,,,,,,,,,59.81811330000346,0.01811330000346345,None,91.29070040000079,91.29070040000079,91.29070040000079,91.29070040000079,91.29070040000079,91.29070040000079,91.29070040000079,91.29070040000079,,003,P018,2025_Mar_07_1901,CategoryLocalizer,2021.2.3,59.91023051142225,
60.0,60.8,4,0.75,Stimuli\ImageFiles-Set1\Scenes\Scenes_016.png,0,0,0,97,97,97,,,,,,,,,,,,,60.00257039999997,0.0025703999999677762,None,91.49089380000078,91.49089380000078,91.49089380000078,91.49089380000078,91.49089380000078,91.49089380000078,91.49089380000078,91.49089380000078,,003,P018,2025_Mar_07_1901,CategoryLocalizer,2021.2.3,59.91023051142225,
60.8,61.0,5,0.0,Stimuli\Blank.png,0,0,0,98,98,98,,,,,,,,,,,,,60.81878560000041,0.018785600000413183,None,92.29158630000165,92.29158630000165,92.29158630000165,92.29158630000165,92.29158630000165,92.29158630000165,92.29158630000165,92.29158630000165,,003,P018,2025_Mar_07_1901,CategoryLocalizer,2021.2.3,59.91023051142225,
61.0,61.8,4,0.75,Stimuli\ImageFiles-Set1\Scenes\Scenes_032.png,0,0,0,99,99,99,,,,,,,,,,,,,61.00293700000475,0.0029370000047492795,None,92.49179719999665,92.49179719999665,92.49179719999665,92.49179719999665,92.49179719999665,92.49179719999665,92.49179719999665,92.49179719999665,,003,P018,2025_Mar_07_1901,CategoryLocalizer,2021.2.3,59.91023051142225,
61.8,62.0,5,0.0,Stimuli\Blank.png,0,0,0,100,100,100,,,,,,,,,,,,,61.82030450000457,0.020304500004570514,None,93.29248150000058,93.29248150000058,93.29248150000058,93.29248150000058,93.29248150000058,93.29248150000058,93.29248150000058,93.29248150000058,,003,P018,2025_Mar_07_1901,CategoryLocalizer,2021.2.3,59.91023051142225,
62.0,62.8,4,0.75,Stimuli\ImageFiles-Set1\Scenes\Scenes_032.png,1,1,0,101,101,101,,,,,,,,,,,,,62.003659699999844,0.003659699999843724,2,93.49264820000099,93.49264820000099,93.49264820000099,93.49264820000099,93.49264820000099,93.49264820000099,93.49264820000099,93.49264820000099,0.44241540000075474,003,P018,2025_Mar_07_1901,CategoryLocalizer,2021.2.3,59.91023051142225,
62.8,63.0,5,0.0,Stimuli\Blank.png,0,0,0,102,102,102,,,,,,,,,,,,,62.822026599998935,0.022026599998937968,None,94.31005269999878,94.31005269999878,94.31005269999878,94.31005269999878,94.31005269999878,94.31005269999878,94.31005269999878,94.31005269999878,,003,P018,2025_Mar_07_1901,CategoryLocalizer,2021.2.3,59.91023051142225,
63.0,63.8,4,0.75,Stimuli\ImageFiles-Set1\Scenes\Scenes_027.png,0,0,0,103,103,103,,,,,,,,,,,,,63.02200460000313,0.02200460000312887,None,94.51022609999927,94.51022609999927,94.51022609999927,94.51022609999927,94.51022609999927,94.51022609999927,94.51022609999927,94.51022609999927,,003,P018,2025_Mar_07_1901,CategoryLocalizer,2021.2.3,59.91023051142225,
63.8,64.0,5,0.0,Stimuli\Blank.png,0,0,0,104,104,104,,,,,,,,,,,,,63.82104210000398,0.021042100003981545,None,95.29429040000105,95.29429040000105,95.29429040000105,95.29429040000105,95.29429040000105,95.29429040000105,95.29429040000105,95.29429040000105,,003,P018,2025_Mar_07_1901,CategoryLocalizer,2021.2.3,59.91023051142225,
64.0,64.8,4,0.75,Stimuli\ImageFiles-Set1\Scenes\Scenes_024.png,0,0,0,105,105,105,,,,,,,,,,,,,64.00481690000015,0.004816900000150781,None,95.4777344000031,95.4777344000031,95.4777344000031,95.4777344000031,95.4777344000031,95.4777344000031,95.4777344000031,95.4777344000031,,003,P018,2025_Mar_07_1901,CategoryLocalizer,2021.2.3,59.91023051142225,
64.8,65.0,5,0.0,Stimuli\Blank.png,0,0,0,106,106,106,,,,,,,,,,,,,64.80518940000184,0.005189400001839317,None,96.27844899999764,96.27844899999764,96.27844899999764,96.27844899999764,96.27844899999764,96.27844899999764,96.27844899999764,96.27844899999764,,003,P018,2025_Mar_07_1901,CategoryLocalizer,2021.2.3,59.91023051142225,
65.0,65.8,4,0.75,Stimuli\ImageFiles-Set1\Scenes\Scenes_052.png,0,0,0,107,107,107,,,,,,,,,,,,,65.00643140000466,0.006431400004657917,None,96.49529710000206,96.49529710000206,96.49529710000206,96.49529710000206,96.49529710000206,96.49529710000206,96.49529710000206,96.49529710000206,,003,P018,2025_Mar_07_1901,CategoryLocalizer,2021.2.3,59.91023051142225,
65.8,66.0,5,0.0,Stimuli\Blank.png,0,0,0,108,108,108,,,,,,,,,,,,,65.82330689999799,0.023306899997990627,None,97.29603150000185,97.29603150000185,97.29603150000185,97.29603150000185,97.29603150000185,97.29603150000185,97.29603150000185,97.29603150000185,,003,P018,2025_Mar_07_1901,CategoryLocalizer,2021.2.3,59.91023051142225,
66.0,66.8,4,0.75,Stimuli\ImageFiles-Set1\Scenes\Scenes_009.png,0,0,0,109,109,109,,,,,,,,,,,,,66.00653469999816,0.006534699998155702,None,97.47950129999663,97.47950129999663,97.47950129999663,97.47950129999663,97.47950129999663,97.47950129999663,97.47950129999663,97.47950129999663,,003,P018,2025_Mar_07_1901,CategoryLocalizer,2021.2.3,59.91023051142225,
66.8,67.0,5,0.0,Stimuli\Blank.png,0,0,0,110,110,110,,,,,,,,,,,,,66.80904590000137,0.009045900001368068,None,98.29695440000069,98.29695440000069,98.29695440000069,98.29695440000069,98.29695440000069,98.29695440000069,98.29695440000069,98.29695440000069,,003,P018,2025_Mar_07_1901,CategoryLocalizer,2021.2.3,59.91023051142225,
67.0,67.8,4,0.75,Stimuli\ImageFiles-Set1\Scenes\Scenes_048.png,0,0,0,111,111,111,,,,,,,,,,,,,67.02449319999869,0.024493199998687487,None,98.5137481999991,98.5137481999991,98.5137481999991,98.5137481999991,98.5137481999991,98.5137481999991,98.5137481999991,98.5137481999991,,003,P018,2025_Mar_07_1901,CategoryLocalizer,2021.2.3,59.91023051142225,
67.8,68.0,5,0.0,Stimuli\Blank.png,0,0,0,112,112,112,,,,,,,,,,,,,67.82521059999999,0.025210599999994088,None,99.29778729999816,99.29778729999816,99.29778729999816,99.29778729999816,99.29778729999816,99.29778729999816,99.29778729999816,99.29778729999816,,003,P018,2025_Mar_07_1901,CategoryLocalizer,2021.2.3,59.91023051142225,
68.0,68.8,4,0.75,Stimuli\ImageFiles-Set1\Scenes\Scenes_004.png,0,0,0,113,113,113,,,,,,,,,,,,,68.00813990000461,0.008139900004607625,None,99.49797859999671,99.49797859999671,99.49797859999671,99.49797859999671,99.49797859999671,99.49797859999671,99.49797859999671,99.49797859999671,,003,P018,2025_Mar_07_1901,CategoryLocalizer,2021.2.3,59.91023051142225,
68.8,69.0,5,0.0,Stimuli\Blank.png,0,0,0,114,114,114,,,,,,,,,,,,,68.82781660000182,0.027816600001827396,None,100.3153639000011,100.3153639000011,100.3153639000011,100.3153639000011,100.3153639000011,100.3153639000011,100.3153639000011,100.3153639000011,,003,P018,2025_Mar_07_1901,CategoryLocalizer,2021.2.3,59.91023051142225,
69.0,69.8,4,0.75,Stimuli\ImageFiles-Set1\Scenes\Scenes_002.png,0,0,0,115,115,115,,,,,,,,,,,,,69.02625290000287,0.026252900002873503,None,100.51551699999982,100.51551699999982,100.51551699999982,100.51551699999982,100.51551699999982,100.51551699999982,100.51551699999982,100.51551699999982,,003,P018,2025_Mar_07_1901,CategoryLocalizer,2021.2.3,59.91023051142225,
69.8,70.0,5,0.0,Stimuli\Blank.png,0,0,0,116,116,116,,,,,,,,,,,,,69.8266111999983,0.02661119999829964,None,101.29952929999854,101.29952929999854,101.29952929999854,101.29952929999854,101.29952929999854,101.29952929999854,101.29952929999854,101.29952929999854,,003,P018,2025_Mar_07_1901,CategoryLocalizer,2021.2.3,59.91023051142225,
70.0,70.8,4,0.75,Stimuli\ImageFiles-Set1\Scenes\Scenes_053.png,0,0,0,117,117,117,,,,,,,,,,,,,70.01167040000291,0.011670400002913084,None,101.49973820000014,101.49973820000014,101.49973820000014,101.49973820000014,101.49973820000014,101.49973820000014,101.49973820000014,101.49973820000014,,003,P018,2025_Mar_07_1901,CategoryLocalizer,2021.2.3,59.91023051142225,
70.8,71.0,5,0.0,Stimuli\Blank.png,0,0,0,118,118,118,,,,,,,,,,,,,70.82784260000335,0.02784260000335337,None,102.30043670000305,102.30043670000305,102.30043670000305,102.30043670000305,102.30043670000305,102.30043670000305,102.30043670000305,102.30043670000305,,003,P018,2025_Mar_07_1901,CategoryLocalizer,2021.2.3,59.91023051142225,
71.0,71.8,4,0.75,Stimuli\ImageFiles-Set1\Scenes\Scenes_023.png,0,0,0,119,119,119,,,,,,,,,,,,,71.01309839999885,0.013098399998852983,None,102.50076319999789,102.50076319999789,102.50076319999789,102.50076319999789,102.50076319999789,102.50076319999789,102.50076319999789,102.50076319999789,,003,P018,2025_Mar_07_1901,CategoryLocalizer,2021.2.3,59.91023051142225,
71.8,72.0,5,0.0,Stimuli\Blank.png,0,0,0,120,120,120,,,,,,,,,,,,,71.82882360000076,0.028823600000762895,None,103.30131689999689,103.30131689999689,103.30131689999689,103.30131689999689,103.30131689999689,103.30131689999689,103.30131689999689,103.30131689999689,,003,P018,2025_Mar_07_1901,CategoryLocalizer,2021.2.3,59.91023051142225,
72.0,72.8,4,0.75,Stimuli\ImageFiles-Set1\Scenes\Scenes_012.png,0,0,0,121,121,121,,,,,,,,,,,,,72.01246730000275,0.0124673000027542,None,103.5014983000001,103.5014983000001,103.5014983000001,103.5014983000001,103.5014983000001,103.5014983000001,103.5014983000001,103.5014983000001,,003,P018,2025_Mar_07_1901,CategoryLocalizer,2021.2.3,59.91023051142225,
72.8,73.0,5,0.0,Stimuli\Blank.png,0,0,0,122,122,122,,,,,,,,,,,,,72.83166190000338,0.03166190000338531,None,104.31889709999814,104.31889709999814,104.31889709999814,104.31889709999814,104.31889709999814,104.31889709999814,104.31889709999814,104.31889709999814,,003,P018,2025_Mar_07_1901,CategoryLocalizer,2021.2.3,59.91023051142225,
73.0,73.8,4,0.75,Stimuli\ImageFiles-Set1\Scenes\Scenes_046.png,0,0,0,123,123,123,,,,,,,,,,,,,73.03012180000223,0.030121800002234522,None,104.50237499999639,104.50237499999639,104.50237499999639,104.50237499999639,104.50237499999639,104.50237499999639,104.50237499999639,104.50237499999639,,003,P018,2025_Mar_07_1901,CategoryLocalizer,2021.2.3,59.91023051142225,
73.8,74.0,5,0.0,Stimuli\Blank.png,0,0,0,124,124,124,,,,,,,,,,,,,73.81430720000208,0.014307200002079412,None,105.28640599999926,105.28640599999926,105.28640599999926,105.28640599999926,105.28640599999926,105.28640599999926,105.28640599999926,105.28640599999926,,003,P018,2025_Mar_07_1901,CategoryLocalizer,2021.2.3,59.91023051142225,
74.0,74.8,4,0.75,Stimuli\ImageFiles-Set1\Scenes\Scenes_014.png,0,0,0,125,125,125,,,,,,,,,,,,,74.01346049999847,0.013460499998473097,None,105.48657890000322,105.48657890000322,105.48657890000322,105.48657890000322,105.48657890000322,105.48657890000322,105.48657890000322,105.48657890000322,,003,P018,2025_Mar_07_1901,CategoryLocalizer,2021.2.3,59.91023051142225,
74.8,75.0,5,0.0,Stimuli\Blank.png,0,0,0,126,126,126,,,,,,,,,,,,,74.81476490000205,0.01476490000204933,None,106.28736260000005,106.28736260000005,106.28736260000005,106.28736260000005,106.28736260000005,106.28736260000005,106.28736260000005,106.28736260000005,,003,P018,2025_Mar_07_1901,CategoryLocalizer,2021.2.3,59.91023051142225,
75.0,75.8,4,0.75,Stimuli\ImageFiles-Set1\Scenes\Scenes_025.png,0,0,0,127,127,127,,,,,,,,,,,,,75.01682650000294,0.016826500002935063,None,106.50414799999999,106.50414799999999,106.50414799999999,106.50414799999999,106.50414799999999,106.50414799999999,106.50414799999999,106.50414799999999,,003,P018,2025_Mar_07_1901,CategoryLocalizer,2021.2.3,59.91023051142225,
75.8,76.0,5,0.0,Stimuli\Blank.png,0,0,0,128,128,128,,,,,,,,,,,,,75.81721620000462,0.017216200004625648,None,107.30488479999622,107.30488479999622,107.30488479999622,107.30488479999622,107.30488479999622,107.30488479999622,107.30488479999622,107.30488479999622,,003,P018,2025_Mar_07_1901,CategoryLocalizer,2021.2.3,59.91023051142225,
76.0,88.0,0,0.0,Stimuli\Blank.png,0,0,0,129,129,129,,,,,,,,,,,,,76.01560009999957,0.015600099999574013,None,107.48840429999836,107.48840429999836,107.48840429999836,107.48840429999836,107.48840429999836,107.48840429999836,107.48840429999836,107.48840429999836,,003,P018,2025_Mar_07_1901,CategoryLocalizer,2021.2.3,59.91023051142225,
88.0,88.8,3,0.75,Stimuli\ImageFiles-Set1\Faces\Face_00001.png,0,0,0,130,130,130,,,,,,,,,,,,,88.00907440000447,0.009074400004465133,None,119.48228999999992,119.48228999999992,119.48228999999992,119.48228999999992,119.48228999999992,119.48228999999992,119.48228999999992,119.48228999999992,,003,P018,2025_Mar_07_1901,CategoryLocalizer,2021.2.3,59.91023051142225,
88.8,89.0,5,0.0,Stimuli\Blank.png,0,0,0,131,131,131,,,,,,,,,,,,,88.80984130000434,0.00984130000433936,None,120.2829808000024,120.2829808000024,120.2829808000024,120.2829808000024,120.2829808000024,120.2829808000024,120.2829808000024,120.2829808000024,,003,P018,2025_Mar_07_1901,CategoryLocalizer,2021.2.3,59.91023051142225,
89.0,89.8,3,0.75,Stimuli\ImageFiles-Set1\Faces\Face_00001.png,1,1,0,132,132,132,,,,,,,,,,,,,89.0118208999993,0.011820899999293033,2,120.49986080000235,120.49986080000235,120.49986080000235,120.49986080000235,120.49986080000235,120.49986080000235,120.49986080000235,120.49986080000235,0.5274064000041108,003,P018,2025_Mar_07_1901,CategoryLocalizer,2021.2.3,59.91023051142225,
89.8,90.0,5,0.0,Stimuli\Blank.png,0,0,0,133,133,133,,,,,,,,,,,,,89.82818930000212,0.028189300002125606,None,121.30056039999909,121.30056039999909,121.30056039999909,121.30056039999909,121.30056039999909,121.30056039999909,121.30056039999909,121.30056039999909,,003,P018,2025_Mar_07_1901,CategoryLocalizer,2021.2.3,59.91023051142225,
90.0,90.8,3,0.75,Stimuli\ImageFiles-Set1\Faces\Face_00071.png,0,0,0,134,134,134,,,,,,,,,,,,,90.01157609999791,0.011576099997910205,None,121.4840555999981,121.4840555999981,121.4840555999981,121.4840555999981,121.4840555999981,121.4840555999981,121.4840555999981,121.4840555999981,,003,P018,2025_Mar_07_1901,CategoryLocalizer,2021.2.3,59.91023051142225,
90.8,91.0,5,0.0,Stimuli\Blank.png,0,0,0,135,135,135,,,,,,,,,,,,,90.81269289999909,0.012692899999095175,None,122.28479060000245,122.28479060000245,122.28479060000245,122.28479060000245,122.28479060000245,122.28479060000245,122.28479060000245,122.28479060000245,,003,P018,2025_Mar_07_1901,CategoryLocalizer,2021.2.3,59.91023051142225,
91.0,91.8,3,0.75,Stimuli\ImageFiles-Set1\Faces\Face_00105.png,0,0,0,136,136,136,,,,,,,,,,,,,91.01233579999825,0.012335799998254515,None,122.48493769999914,122.48493769999914,122.48493769999914,122.48493769999914,122.48493769999914,122.48493769999914,122.48493769999914,122.48493769999914,,003,P018,2025_Mar_07_1901,CategoryLocalizer,2021.2.3,59.91023051142225,
91.8,92.0,5,0.0,Stimuli\Blank.png,0,0,0,137,137,137,,,,,,,,,,,,,91.81323060000432,0.013230600004320081,None,123.28564449999976,123.28564449999976,123.28564449999976,123.28564449999976,123.28564449999976,123.28564449999976,123.28564449999976,123.28564449999976,,003,P018,2025_Mar_07_1901,CategoryLocalizer,2021.2.3,59.91023051142225,
92.0,92.8,3,0.75,Stimuli\ImageFiles-Set1\Faces\Face_00097.png,0,0,0,138,138,138,,,,,,,,,,,,,92.01344880000397,0.013448800003970973,None,123.48582880000322,123.48582880000322,123.48582880000322,123.48582880000322,123.48582880000322,123.48582880000322,123.48582880000322,123.48582880000322,,003,P018,2025_Mar_07_1901,CategoryLocalizer,2021.2.3,59.91023051142225,
92.8,93.0,5,0.0,Stimuli\Blank.png,0,0,0,139,139,139,,,,,,,,,,,,,92.81341790000442,0.013417900004426997,None,124.2865279999969,124.2865279999969,124.2865279999969,124.2865279999969,124.2865279999969,124.2865279999969,124.2865279999969,124.2865279999969,,003,P018,2025_Mar_07_1901,CategoryLocalizer,2021.2.3,59.91023051142225,
93.0,93.8,3,0.75,Stimuli\ImageFiles-Set1\Faces\Face_00099.png,0,0,0,140,140,140,,,,,,,,,,,,,93.01430629999959,0.0143062999995891,None,124.4867110999985,124.4867110999985,124.4867110999985,124.4867110999985,124.4867110999985,124.4867110999985,124.4867110999985,124.4867110999985,,003,P018,2025_Mar_07_1901,CategoryLocalizer,2021.2.3,59.91023051142225,
93.8,94.0,5,0.0,Stimuli\Blank.png,0,0,0,141,141,141,,,,,,,,,,,,,93.81661010000244,0.016610100002438344,None,125.30410839999968,125.30410839999968,125.30410839999968,125.30410839999968,125.30410839999968,125.30410839999968,125.30410839999968,125.30410839999968,,003,P018,2025_Mar_07_1901,CategoryLocalizer,2021.2.3,59.91023051142225,
94.0,94.8,3,0.75,Stimuli\ImageFiles-Set1\Faces\Face_00079.png,0,0,0,142,142,142,,,,,,,,,,,,,94.01453089999995,0.014530899999954272,None,125.48759499999869,125.48759499999869,125.48759499999869,125.48759499999869,125.48759499999869,125.48759499999869,125.48759499999869,125.48759499999869,,003,P018,2025_Mar_07_1901,CategoryLocalizer,2021.2.3,59.91023051142225,
94.8,95.0,5,0.0,Stimuli\Blank.png,0,0,0,143,143,143,,,,,,,,,,,,,94.81720550000318,0.017205500003186103,None,126.30498680000164,126.30498680000164,126.30498680000164,126.30498680000164,126.30498680000164,126.30498680000164,126.30498680000164,126.30498680000164,,003,P018,2025_Mar_07_1901,CategoryLocalizer,2021.2.3,59.91023051142225,
95.0,95.8,3,0.75,Stimuli\ImageFiles-Set1\Faces\Face_00107.png,0,0,0,144,144,144,,,,,,,,,,,,,95.01641360000212,0.01641360000212444,None,126.50516680000146,126.50516680000146,126.50516680000146,126.50516680000146,126.50516680000146,126.50516680000146,126.50516680000146,126.50516680000146,,003,P018,2025_Mar_07_1901,CategoryLocalizer,2021.2.3,59.91023051142225,
95.8,96.0,5,0.0,Stimuli\Blank.png,0,0,0,145,145,145,,,,,,,,,,,,,95.81658260000404,0.016582600004042547,None,127.28919399999722,127.28919399999722,127.28919399999722,127.28919399999722,127.28919399999722,127.28919399999722,127.28919399999722,127.28919399999722,,003,P018,2025_Mar_07_1901,CategoryLocalizer,2021.2.3,59.91023051142225,
96.0,96.8,3,0.75,Stimuli\ImageFiles-Set1\Faces\Face_00095.png,1,1,0,146,146,146,,,,,,,,,,,,,96.00195070000336,0.0019507000033627264,None,127.48937789999763,127.48937789999763,127.48937789999763,127.48937789999763,127.48937789999763,127.48937789999763,127.48937789999763,127.48937789999763,,003,P018,2025_Mar_07_1901,CategoryLocalizer,2021.2.3,59.91023051142225,
96.8,97.0,5,0.0,Stimuli\Blank.png,0,0,0,147,147,147,,,,,,,,,,,,,96.81767290000425,0.01767290000425703,None,128.29007419999834,128.29007419999834,128.29007419999834,128.29007419999834,128.29007419999834,128.29007419999834,128.29007419999834,128.29007419999834,,003,P018,2025_Mar_07_1901,CategoryLocalizer,2021.2.3,59.91023051142225,
97.0,97.8,3,0.75,Stimuli\ImageFiles-Set1\Faces\Face_00045.png,0,0,0,148,148,148,,,,,,,,,,,,,97.0029416000034,0.002941600003396161,None,128.49027200000273,128.49027200000273,128.49027200000273,128.49027200000273,128.49027200000273,128.49027200000273,128.49027200000273,128.49027200000273,,003,P018,2025_Mar_07_1901,CategoryLocalizer,2021.2.3,59.91023051142225,
97.8,98.0,5,0.0,Stimuli\Blank.png,0,0,0,149,149,149,,,,,,,,,,,,,97.81787640000402,0.01787640000402746,None,129.29095699999743,129.29095699999743,129.29095699999743,129.29095699999743,129.29095699999743,129.29095699999743,129.29095699999743,129.29095699999743,,003,P018,2025_Mar_07_1901,CategoryLocalizer,2021.2.3,59.91023051142225,
98.0,98.8,3,0.75,Stimuli\ImageFiles-Set1\Faces\Face_00045.png,0,0,0,150,150,150,,,,,,,,,,,,,98.00180220000038,0.0018022000003838912,2,129.49114220000047,129.49114220000047,129.49114220000047,129.49114220000047,129.49114220000047,129.49114220000047,129.49114220000047,129.49114220000047,0.46800070000608684,003,P018,2025_Mar_07_1901,CategoryLocalizer,2021.2.3,59.91023051142225,
98.8,99.0,5,0.0,Stimuli\Blank.png,0,0,0,151,151,151,,,,,,,,,,,,,98.81866579999769,0.01866579999769158,None,130.29183860000194,130.29183860000194,130.29183860000194,130.29183860000194,130.29183860000194,130.29183860000194,130.29183860000194,130.29183860000194,,003,P018,2025_Mar_07_1901,CategoryLocalizer,2021.2.3,59.91023051142225,
99.0,99.8,3,0.75,Stimuli\ImageFiles-Set1\Faces\Face_00075.png,0,0,0,152,152,152,,,,,,,,,,,,,99.0028483999995,0.0028483999994932674,None,130.4753359000024,130.4753359000024,130.4753359000024,130.4753359000024,130.4753359000024,130.4753359000024,130.4753359000024,130.4753359000024,,003,P018,2025_Mar_07_1901,CategoryLocalizer,2021.2.3,59.91023051142225,
99.8,100.0,5,0.0,Stimuli\Blank.png,0,0,0,153,153,153,,,,,,,,,,,,,99.80374360000133,0.003743600001328673,None,131.29277349999757,131.29277349999757,131.29277349999757,131.29277349999757,131.29277349999757,131.29277349999757,131.29277349999757,131.29277349999757,,003,P018,2025_Mar_07_1901,CategoryLocalizer,2021.2.3,59.91023051142225,
100.0,100.8,3,0.75,Stimuli\ImageFiles-Set1\Faces\Face_00055.png,0,0,0,154,154,154,,,,,,,,,,,,,100.01960340000369,0.019603400003688876,None,131.49290299999848,131.49290299999848,131.49290299999848,131.49290299999848,131.49290299999848,131.49290299999848,131.49290299999848,131.49290299999848,,003,P018,2025_Mar_07_1901,CategoryLocalizer,2021.2.3,59.91023051142225,
100.8,101.0,5,0.0,Stimuli\Blank.png,0,0,0,155,155,155,,,,,,,,,,,,,100.80448759999854,0.004487599998540759,None,132.27702750000026,132.27702750000026,132.27702750000026,132.27702750000026,132.27702750000026,132.27702750000026,132.27702750000026,132.27702750000026,,003,P018,2025_Mar_07_1901,CategoryLocalizer,2021.2.3,59.91023051142225,
101.0,101.8,3,0.75,Stimuli\ImageFiles-Set1\Faces\Face_00117.png,0,0,0,156,156,156,,,,,,,,,,,,,101.00474750000285,0.004747500002849847,None,132.477109200001,132.477109200001,132.477109200001,132.477109200001,132.477109200001,132.477109200001,132.477109200001,132.477109200001,,003,P018,2025_Mar_07_1901,CategoryLocalizer,2021.2.3,59.91023051142225,
101.8,102.0,5,0.0,Stimuli\Blank.png,0,0,0,157,157,157,,,,,,,,,,,,,101.8051873000004,0.005187300000400796,None,133.27788390000205,133.27788390000205,133.27788390000205,133.27788390000205,133.27788390000205,133.27788390000205,133.27788390000205,133.27788390000205,,003,P018,2025_Mar_07_1901,CategoryLocalizer,2021.2.3,59.91023051142225,
102.0,102.8,3,0.75,Stimuli\ImageFiles-Set1\Faces\Face_00085.png,0,0,0,158,158,158,,,,,,,,,,,,,102.00550130000192,0.005501300001924392,None,133.494677900002,133.494677900002,133.494677900002,133.494677900002,133.494677900002,133.494677900002,133.494677900002,133.494677900002,,003,P018,2025_Mar_07_1901,CategoryLocalizer,2021.2.3,59.91023051142225,
102.8,103.0,5,0.0,Stimuli\Blank.png,0,0,0,159,159,159,,,,,,,,,,,,,102.82315129999915,0.02315129999915655,None,134.29539240000304,134.29539240000304,134.29539240000304,134.29539240000304,134.29539240000304,134.29539240000304,134.29539240000304,134.29539240000304,,003,P018,2025_Mar_07_1901,CategoryLocalizer,2021.2.3,59.91023051142225,
103.0,103.8,3,0.75,Stimuli\ImageFiles-Set1\Faces\Face_00043.png,0,0,0,160,160,160,,,,,,,,,,,,,103.00637319999805,0.0063731999980518594,None,134.49553359999845,134.49553359999845,134.49553359999845,134.49553359999845,134.49553359999845,134.49553359999845,134.49553359999845,134.49553359999845,,003,P018,2025_Mar_07_1901,CategoryLocalizer,2021.2.3,59.91023051142225,
103.8,104.0,5,0.0,Stimuli\Blank.png,0,0,0,161,161,161,,,,,,,,,,,,,103.82364490000327,0.023644900003276348,None,135.2962686000028,135.2962686000028,135.2962686000028,135.2962686000028,135.2962686000028,135.2962686000028,135.2962686000028,135.2962686000028,,003,P018,2025_Mar_07_1901,CategoryLocalizer,2021.2.3,59.91023051142225,
104.0,104.8,1,0.75,Stimuli\ImageFiles-Set1\Objects\Object_Nightstand_00001.png,0,0,0,162,162,162,,,,,,,,,,,,,104.0082051999998,0.008205199999792967,None,135.4964467000027,135.4964467000027,135.4964467000027,135.4964467000027,135.4964467000027,135.4964467000027,135.4964467000027,135.4964467000027,,003,P018,2025_Mar_07_1901,CategoryLocalizer,2021.2.3,59.91023051142225,
104.8,105.0,5,0.0,Stimuli\Blank.png,0,0,0,163,163,163,,,,,,,,,,,,,104.82450470000185,0.024504700001855895,None,136.29715179999766,136.29715179999766,136.29715179999766,136.29715179999766,136.29715179999766,136.29715179999766,136.29715179999766,136.29715179999766,,003,P018,2025_Mar_07_1901,CategoryLocalizer,2021.2.3,59.91023051142225,
105.0,105.8,1,0.75,Stimuli\ImageFiles-Set1\Objects\Object_Whistle_00001.png,0,0,0,164,164,164,,,,,,,,,,,,,105.00819190000038,0.008191900000383612,None,136.49736690000282,136.49736690000282,136.49736690000282,136.49736690000282,136.49736690000282,136.49736690000282,136.49736690000282,136.49736690000282,,003,P018,2025_Mar_07_1901,CategoryLocalizer,2021.2.3,59.91023051142225,
105.8,106.0,5,0.0,Stimuli\Blank.png,0,0,0,165,165,165,,,,,,,,,,,,,105.82541130000027,0.025411300000271808,None,137.29804539999895,137.29804539999895,137.29804539999895,137.29804539999895,137.29804539999895,137.29804539999895,137.29804539999895,137.29804539999895,,003,P018,2025_Mar_07_1901,CategoryLocalizer,2021.2.3,59.91023051142225,
106.0,106.8,1,0.75,Stimuli\ImageFiles-Set1\Objects\Object_Recliner_00001.png,0,0,0,166,166,166,,,,,,,,,,,,,106.00859920000221,0.008599200002208818,None,137.49827809999988,137.49827809999988,137.49827809999988,137.49827809999988,137.49827809999988,137.49827809999988,137.49827809999988,137.49827809999988,,003,P018,2025_Mar_07_1901,CategoryLocalizer,2021.2.3,59.91023051142225,
106.8,107.0,5,0.0,Stimuli\Blank.png,0,0,0,167,167,167,,,,,,,,,,,,,106.82583890000387,0.02583890000387612,None,138.2989136000033,138.2989136000033,138.2989136000033,138.2989136000033,138.2989136000033,138.2989136000033,138.2989136000033,138.2989136000033,,003,P018,2025_Mar_07_1901,CategoryLocalizer,2021.2.3,59.91023051142225,
107.0,107.8,1,0.75,Stimuli\ImageFiles-Set1\Objects\Object_Pot_00001.png,0,0,0,168,168,168,,,,,,,,,,,,,107.01032790000318,0.010327900003176183,None,138.49909749999642,138.49909749999642,138.49909749999642,138.49909749999642,138.49909749999642,138.49909749999642,138.49909749999642,138.49909749999642,,003,P018,2025_Mar_07_1901,CategoryLocalizer,2021.2.3,59.91023051142225,
107.8,108.0,5,0.0,Stimuli\Blank.png,0,0,0,169,169,169,,,,,,,,,,,,,107.82743969999865,0.027439699998652145,None,139.29982639999798,139.29982639999798,139.29982639999798,139.29982639999798,139.29982639999798,139.29982639999798,139.29982639999798,139.29982639999798,,003,P018,2025_Mar_07_1901,CategoryLocalizer,2021.2.3,59.91023051142225,
108.0,108.8,1,0.75,Stimuli\ImageFiles-Set1\Objects\Object_Pot_00001.png,1,1,0,170,170,170,,,,,,,,,,,,,108.01159860000189,0.011598600001889281,2,139.49999879999814,139.49999879999814,139.49999879999814,139.49999879999814,139.49999879999814,139.49999879999814,139.49999879999814,139.49999879999814,0.44115030000102706,003,P018,2025_Mar_07_1901,CategoryLocalizer,2021.2.3,59.91023051142225,
108.8,109.0,5,0.0,Stimuli\Blank.png,0,0,0,171,171,171,,,,,,,,,,,,,108.8276571000024,0.027657100002400625,None,140.30068739999842,140.30068739999842,140.30068739999842,140.30068739999842,140.30068739999842,140.30068739999842,140.30068739999842,140.30068739999842,,003,P018,2025_Mar_07_1901,CategoryLocalizer,2021.2.3,59.91023051142225,
109.0,109.8,1,0.75,Stimuli\ImageFiles-Set1\Objects\Object_Table_00001.png,0,0,0,172,172,172,,,,,,,,,,,,,109.01182150000386,0.011821500003861729,None,140.50090210000053,140.50090210000053,140.50090210000053,140.50090210000053,140.50090210000053,140.50090210000053,140.50090210000053,140.50090210000053,,003,P018,2025_Mar_07_1901,CategoryLocalizer,2021.2.3,59.91023051142225,
109.8,110.0,5,0.0,Stimuli\Blank.png,0,0,0,173,173,173,,,,,,,,,,,,,109.82848789999844,0.028487899998438593,None,141.30158140000276,141.30158140000276,141.30158140000276,141.30158140000276,141.30158140000276,141.30158140000276,141.30158140000276,141.30158140000276,,003,P018,2025_Mar_07_1901,CategoryLocalizer,2021.2.3,59.91023051142225,
110.0,110.8,1,0.75,Stimuli\ImageFiles-Set1\Objects\Object_Oven_00001.png,0,0,0,174,174,174,,,,,,,,,,,,,110.01251110000157,0.01251110000157496,None,141.4850787000032,141.4850787000032,141.4850787000032,141.4850787000032,141.4850787000032,141.4850787000032,141.4850787000032,141.4850787000032,,003,P018,2025_Mar_07_1901,CategoryLocalizer,2021.2.3,59.91023051142225,
110.8,111.0,5,0.0,Stimuli\Blank.png,0,0,0,175,175,175,,,,,,,,,,,,,110.81253270000161,0.012532700001614216,None,142.28578389999893,142.28578389999893,142.28578389999893,142.28578389999893,142.28578389999893,142.28578389999893,142.28578389999893,142.28578389999893,,003,P018,2025_Mar_07_1901,CategoryLocalizer,2021.2.3,59.91023051142225,
111.0,111.8,1,0.75,Stimuli\ImageFiles-Set1\Objects\Object_Crib_00001.png,0,0,0,176,176,176,,,,,,,,,,,,,111.01371130000189,0.013711300001887139,None,142.48595390000264,142.48595390000264,142.48595390000264,142.48595390000264,142.48595390000264,142.48595390000264,142.48595390000264,142.48595390000264,,003,P018,2025_Mar_07_1901,CategoryLocalizer,2021.2.3,59.91023051142225,
111.8,112.0,5,0.0,Stimuli\Blank.png,0,0,0,177,177,177,,,,,,,,,,,,,111.81448660000024,0.014486600000239491,None,143.28668749999633,143.28668749999633,143.28668749999633,143.28668749999633,143.28668749999633,143.28668749999633,143.28668749999633,143.28668749999633,,003,P018,2025_Mar_07_1901,CategoryLocalizer,2021.2.3,59.91023051142225,
112.0,112.8,1,0.75,Stimuli\ImageFiles-Set1\Objects\Object_Walnut_00001.png,0,0,0,178,178,178,,,,,,,,,,,,,112.0144524999996,0.014452499999606516,None,143.48683919999894,143.48683919999894,143.48683919999894,143.48683919999894,143.48683919999894,143.48683919999894,143.48683919999894,143.48683919999894,,003,P018,2025_Mar_07_1901,CategoryLocalizer,2021.2.3,59.91023051142225,
112.8,113.0,5,0.0,Stimuli\Blank.png,0,0,0,179,179,179,,,,,,,,,,,,,112.81713390000368,0.0171339000036852,None,144.30424640000274,144.30424640000274,144.30424640000274,144.30424640000274,144.30424640000274,144.30424640000274,144.30424640000274,144.30424640000274,,003,P018,2025_Mar_07_1901,CategoryLocalizer,2021.2.3,59.91023051142225,
113.0,113.8,1,0.75,Stimuli\ImageFiles-Set1\Objects\Object_GarbageCan_00001.png,0,0,0,180,180,180,,,,,,,,,,,,,113.01453760000004,0.014537600000039674,None,144.48776609999913,144.48776609999913,144.48776609999913,144.48776609999913,144.48776609999913,144.48776609999913,144.48776609999913,144.48776609999913,,003,P018,2025_Mar_07_1901,CategoryLocalizer,2021.2.3,59.91023051142225,
113.8,114.0,5,0.0,Stimuli\Blank.png,0,0,0,181,181,181,,,,,,,,,,,,,113.81566670000029,0.015666700000295464,None,145.28848149999976,145.28848149999976,145.28848149999976,145.28848149999976,145.28848149999976,145.28848149999976,145.28848149999976,145.28848149999976,,003,P018,2025_Mar_07_1901,CategoryLocalizer,2021.2.3,59.91023051142225,
114.0,114.8,1,0.75,Stimuli\ImageFiles-Set1\Objects\Object_Football_00001.png,0,0,0,182,182,182,,,,,,,,,,,,,113.9987517000045,-0.001248299995495472,None,145.4886323000028,145.4886323000028,145.4886323000028,145.4886323000028,145.4886323000028,145.4886323000028,145.4886323000028,145.4886323000028,,003,P018,2025_Mar_07_1901,CategoryLocalizer,2021.2.3,59.91023051142225,
114.8,115.0,5,0.0,Stimuli\Blank.png,0,0,0,183,183,183,,,,,,,,,,,,,114.81746450000355,0.017464500003555372,None,146.2893344999975,146.2893344999975,146.2893344999975,146.2893344999975,146.2893344999975,146.2893344999975,146.2893344999975,146.2893344999975,,003,P018,2025_Mar_07_1901,CategoryLocalizer,2021.2.3,59.91023051142225,
115.0,115.8,1,0.75,Stimuli\ImageFiles-Set1\Objects\Object_IroningBoard_00001.png,0,0,0,184,184,184,,,,,,,,,,,,,115.00031789999775,0.0003178999977535568,None,146.4728430000032,146.4728430000032,146.4728430000032,146.4728430000032,146.4728430000032,146.4728430000032,146.4728430000032,146.4728430000032,,003,P018,2025_Mar_07_1901,CategoryLocalizer,2021.2.3,59.91023051142225,
115.8,116.0,5,0.0,Stimuli\Blank.png,0,0,0,185,185,185,,,,,,,,,,,,,115.80301619999955,0.00301619999954994,None,147.29020840000157,147.29020840000157,147.29020840000157,147.29020840000157,147.29020840000157,147.29020840000157,147.29020840000157,147.29020840000157,,003,P018,2025_Mar_07_1901,CategoryLocalizer,2021.2.3,59.91023051142225,
116.0,116.8,1,0.75,Stimuli\ImageFiles-Set1\Objects\Object_Bottle_00001.png,0,0,0,186,186,186,,,,,,,,,,,,,116.01721890000044,0.017218900000443682,None,147.49037919999682,147.49037919999682,147.49037919999682,147.49037919999682,147.49037919999682,147.49037919999682,147.49037919999682,147.49037919999682,,003,P018,2025_Mar_07_1901,CategoryLocalizer,2021.2.3,59.91023051142225,
116.8,117.0,5,0.0,Stimuli\Blank.png,0,0,0,187,187,187,,,,,,,,,,,,,116.80190150000271,0.0019015000027167162,None,148.27440789999673,148.27440789999673,148.27440789999673,148.27440789999673,148.27440789999673,148.27440789999673,148.27440789999673,148.27440789999673,,003,P018,2025_Mar_07_1901,CategoryLocalizer,2021.2.3,59.91023051142225,
117.0,117.8,1,0.75,Stimuli\ImageFiles-Set1\Objects\Object_Motorcycle_00001.png,0,0,0,188,188,188,,,,,,,,,,,,,117.0013598000005,0.0013598000005003996,None,148.47458409999672,148.47458409999672,148.47458409999672,148.47458409999672,148.47458409999672,148.47458409999672,148.47458409999672,148.47458409999672,,003,P018,2025_Mar_07_1901,CategoryLocalizer,2021.2.3,59.91023051142225,
117.8,118.0,5,0.0,Stimuli\Blank.png,0,0,0,189,189,189,,,,,,,,,,,,,117.8028747999997,0.0028747999997023044,None,149.27529309999954,149.27529309999954,149.27529309999954,149.27529309999954,149.27529309999954,149.27529309999954,149.27529309999954,149.27529309999954,,003,P018,2025_Mar_07_1901,CategoryLocalizer,2021.2.3,59.91023051142225,
118.0,118.8,1,0.75,Stimuli\ImageFiles-Set1\Objects\Object_Knife_00001.png,0,0,0,190,190,190,,,,,,,,,,,,,118.00285789999907,0.0028578999990713783,None,149.4921519999989,149.4921519999989,149.4921519999989,149.4921519999989,149.4921519999989,149.4921519999989,149.4921519999989,149.4921519999989,,003,P018,2025_Mar_07_1901,CategoryLocalizer,2021.2.3,59.91023051142225,
118.8,119.0,5,0.0,Stimuli\Blank.png,0,0,0,191,191,191,,,,,,,,,,,,,118.81963890000043,0.019638900000430226,None,150.29286010000214,150.29286010000214,150.29286010000214,150.29286010000214,150.29286010000214,150.29286010000214,150.29286010000214,150.29286010000214,,003,P018,2025_Mar_07_1901,CategoryLocalizer,2021.2.3,59.91023051142225,
119.0,119.8,1,0.75,Stimuli\ImageFiles-Set1\Objects\Object_ComputerMouse_00001.png,0,0,0,192,192,192,,,,,,,,,,,,,119.0031822000019,0.003182200001901947,None,150.4763593000025,150.4763593000025,150.4763593000025,150.4763593000025,150.4763593000025,150.4763593000025,150.4763593000025,150.4763593000025,,003,P018,2025_Mar_07_1901,CategoryLocalizer,2021.2.3,59.91023051142225,
119.8,120.0,5,0.0,Stimuli\Blank.png,0,0,0,193,193,193,,,,,,,,,,,,,119.80668829999922,0.006688299999225933,None,151.29371939999692,151.29371939999692,151.29371939999692,151.29371939999692,151.29371939999692,151.29371939999692,151.29371939999692,151.29371939999692,,003,P018,2025_Mar_07_1901,CategoryLocalizer,2021.2.3,59.91023051142225,
120.0,120.8,4,0.75,Stimuli\ImageFiles-Set1\Scenes\Scenes_041.png,0,0,0,194,194,194,,,,,,,,,,,,,120.0213064999989,0.021306499998900108,None,151.49391930000274,151.49391930000274,151.49391930000274,151.49391930000274,151.49391930000274,151.49391930000274,151.49391930000274,151.49391930000274,,003,P018,2025_Mar_07_1901,CategoryLocalizer,2021.2.3,59.91023051142225,
120.8,121.0,5,0.0,Stimuli\Blank.png,0,0,0,195,195,195,,,,,,,,,,,,,120.80715729999793,0.007157299997928135,None,152.29463119999855,152.29463119999855,152.29463119999855,152.29463119999855,152.29463119999855,152.29463119999855,152.29463119999855,152.29463119999855,,003,P018,2025_Mar_07_1901,CategoryLocalizer,2021.2.3,59.91023051142225,
121.0,121.8,4,0.75,Stimuli\ImageFiles-Set1\Scenes\Scenes_041.png,1,1,0,196,196,196,,,,,,,,,,,,,121.02168050000182,0.0216805000018212,2,152.494807199997,152.494807199997,152.494807199997,152.494807199997,152.494807199997,152.494807199997,152.494807199997,152.494807199997,0.5513498000000254,003,P018,2025_Mar_07_1901,CategoryLocalizer,2021.2.3,59.91023051142225,
121.8,122.0,5,0.0,Stimuli\Blank.png,0,0,0,197,197,197,,,,,,,,,,,,,121.80669280000438,0.006692800004387323,None,153.27884210000047,153.27884210000047,153.27884210000047,153.27884210000047,153.27884210000047,153.27884210000047,153.27884210000047,153.27884210000047,,003,P018,2025_Mar_07_1901,CategoryLocalizer,2021.2.3,59.91023051142225,
122.0,122.8,4,0.75,Stimuli\ImageFiles-Set1\Scenes\Scenes_033.png,0,0,0,198,198,198,,,,,,,,,,,,,122.00585570000112,0.005855700001120567,None,153.47901609999826,153.47901609999826,153.47901609999826,153.47901609999826,153.47901609999826,153.47901609999826,153.47901609999826,153.47901609999826,,003,P018,2025_Mar_07_1901,CategoryLocalizer,2021.2.3,59.91023051142225,
122.8,123.0,5,0.0,Stimuli\Blank.png,0,0,0,199,199,199,,,,,,,,,,,,,122.80737570000201,0.007375700002015151,None,154.27971249999973,154.27971249999973,154.27971249999973,154.27971249999973,154.27971249999973,154.27971249999973,154.27971249999973,154.27971249999973,,003,P018,2025_Mar_07_1901,CategoryLocalizer,2021.2.3,59.91023051142225,
123.0,123.8,4,0.75,Stimuli\ImageFiles-Set1\Scenes\Scenes_056.png,0,0,0,200,200,200,,,,,,,,,,,,,123.00766000000294,0.007660000002942979,None,154.49657930000103,154.49657930000103,154.49657930000103,154.49657930000103,154.49657930000103,154.49657930000103,154.49657930000103,154.49657930000103,,003,P018,2025_Mar_07_1901,CategoryLocalizer,2021.2.3,59.91023051142225,
123.8,124.0,5,0.0,Stimuli\Blank.png,0,0,0,201,201,201,,,,,,,,,,,,,123.8239504000012,0.023950400001197636,None,155.29729999999836,155.29729999999836,155.29729999999836,155.29729999999836,155.29729999999836,155.29729999999836,155.29729999999836,155.29729999999836,,003,P018,2025_Mar_07_1901,CategoryLocalizer,2021.2.3,59.91023051142225,
124.0,124.8,4,0.75,Stimuli\ImageFiles-Set1\Scenes\Scenes_011.png,0,0,0,202,202,202,,,,,,,,,,,,,124.00854509999772,0.008545099997718353,None,155.4807854000028,155.4807854000028,155.4807854000028,155.4807854000028,155.4807854000028,155.4807854000028,155.4807854000028,155.4807854000028,,003,P018,2025_Mar_07_1901,CategoryLocalizer,2021.2.3,59.91023051142225,
124.8,125.0,5,0.0,Stimuli\Blank.png,0,0,0,203,203,203,,,,,,,,,,,,,124.80833220000204,0.008332200002044488,None,156.28149020000274,156.28149020000274,156.28149020000274,156.28149020000274,156.28149020000274,156.28149020000274,156.28149020000274,156.28149020000274,,003,P018,2025_Mar_07_1901,CategoryLocalizer,2021.2.3,59.91023051142225,
125.0,125.8,4,0.75,Stimuli\ImageFiles-Set1\Scenes\Scenes_028.png,0,0,0,204,204,204,,,,,,,,,,,,,125.00918510000338,0.009185100003378466,None,156.4816071000023,156.4816071000023,156.4816071000023,156.4816071000023,156.4816071000023,156.4816071000023,156.4816071000023,156.4816071000023,,003,P018,2025_Mar_07_1901,CategoryLocalizer,2021.2.3,59.91023051142225,
125.8,126.0,5,0.0,Stimuli\Blank.png,0,0,0,205,205,205,,,,,,,,,,,,,125.80917410000256,0.009174100002567798,None,157.282389400003,157.282389400003,157.282389400003,157.282389400003,157.282389400003,157.282389400003,157.282389400003,157.282389400003,,003,P018,2025_Mar_07_1901,CategoryLocalizer,2021.2.3,59.91023051142225,
126.0,126.8,4,0.75,Stimuli\ImageFiles-Set1\Scenes\Scenes_035.png,0,0,0,206,206,206,,,,,,,,,,,,,126.0117143000025,0.011714300002495293,None,157.49923470000067,157.49923470000067,157.49923470000067,157.49923470000067,157.49923470000067,157.49923470000067,157.49923470000067,157.49923470000067,,003,P018,2025_Mar_07_1901,CategoryLocalizer,2021.2.3,59.91023051142225,
126.8,127.0,5,0.0,Stimuli\Blank.png,0,0,0,207,207,207,,,,,,,,,,,,,126.82740349999949,0.027403499999493874,None,158.29994920000172,158.29994920000172,158.29994920000172,158.29994920000172,158.29994920000172,158.29994920000172,158.29994920000172,158.29994920000172,,003,P018,2025_Mar_07_1901,CategoryLocalizer,2021.2.3,59.91023051142225,
127.0,127.8,4,0.75,Stimuli\ImageFiles-Set1\Scenes\Scenes_006.png,0,0,0,208,208,208,,,,,,,,,,,,,127.01216130000103,0.012161300001025666,None,158.50012699999934,158.50012699999934,158.50012699999934,158.50012699999934,158.50012699999934,158.50012699999934,158.50012699999934,158.50012699999934,,003,P018,2025_Mar_07_1901,CategoryLocalizer,2021.2.3,59.91023051142225,
127.8,128.0,5,0.0,Stimuli\Blank.png,0,0,0,209,209,209,,,,,,,,,,,,,127.828310900004,0.028310900004001383,None,159.30081829999835,159.30081829999835,159.30081829999835,159.30081829999835,159.30081829999835,159.30081829999835,159.30081829999835,159.30081829999835,,003,P018,2025_Mar_07_1901,CategoryLocalizer,2021.2.3,59.91023051142225,
128.0,128.8,4,0.75,Stimuli\ImageFiles-Set1\Scenes\Scenes_022.png,0,0,0,210,210,210,,,,,,,,,,,,,128.01124510000227,0.011245100002270192,None,159.501050699997,159.501050699997,159.501050699997,159.501050699997,159.501050699997,159.501050699997,159.501050699997,159.501050699997,,003,P018,2025_Mar_07_1901,CategoryLocalizer,2021.2.3,59.91023051142225,
128.8,129.0,5,0.0,Stimuli\Blank.png,0,0,0,211,211,211,,,,,,,,,,,,,128.82854640000005,0.02854640000003883,None,160.30170579999685,160.30170579999685,160.30170579999685,160.30170579999685,160.30170579999685,160.30170579999685,160.30170579999685,160.30170579999685,,003,P018,2025_Mar_07_1901,CategoryLocalizer,2021.2.3,59.91023051142225,
129.0,129.8,4,0.75,Stimuli\ImageFiles-Set1\Scenes\Scenes_055.png,0,0,0,212,212,212,,,,,,,,,,,,,129.01287140000204,0.0128714000020409,None,160.48519620000297,160.48519620000297,160.48519620000297,160.48519620000297,160.48519620000297,160.48519620000297,160.48519620000297,160.48519620000297,,003,P018,2025_Mar_07_1901,CategoryLocalizer,2021.2.3,59.91023051142225,
129.8,130.0,5,0.0,Stimuli\Blank.png,0,0,0,213,213,213,,,,,,,,,,,,,129.8127228000012,0.01272280000119963,None,161.28591230000166,161.28591230000166,161.28591230000166,161.28591230000166,161.28591230000166,161.28591230000166,161.28591230000166,161.28591230000166,,003,P018,2025_Mar_07_1901,CategoryLocalizer,2021.2.3,59.91023051142225,
130.0,130.8,4,0.75,Stimuli\ImageFiles-Set1\Scenes\Scenes_029.png,0,0,0,214,214,214,,,,,,,,,,,,,130.01294179999968,0.01294179999968037,None,161.50279359999695,161.50279359999695,161.50279359999695,161.50279359999695,161.50279359999695,161.50279359999695,161.50279359999695,161.50279359999695,,003,P018,2025_Mar_07_1901,CategoryLocalizer,2021.2.3,59.91023051142225,
130.8,131.0,5,0.0,Stimuli\Blank.png,0,0,0,215,215,215,,,,,,,,,,,,,130.83198840000114,0.03198840000112568,None,162.3201614999998,162.3201614999998,162.3201614999998,162.3201614999998,162.3201614999998,162.3201614999998,162.3201614999998,162.3201614999998,,003,P018,2025_Mar_07_1901,CategoryLocalizer,2021.2.3,59.91023051142225,
131.0,131.8,4,0.75,Stimuli\ImageFiles-Set1\Scenes\Scenes_015.png,1,1,0,216,216,216,,,,,,,,,,,,,131.0330238000024,0.03302380000241101,None,162.52034399999684,162.52034399999684,162.52034399999684,162.52034399999684,162.52034399999684,162.52034399999684,162.52034399999684,162.52034399999684,,003,P018,2025_Mar_07_1901,CategoryLocalizer,2021.2.3,59.91023051142225,
131.8,132.0,5,0.0,Stimuli\Blank.png,0,0,0,217,217,217,,,,,,,,,,,,,131.81523230000312,0.015232300003106047,None,163.28768570000102,163.28768570000102,163.28768570000102,163.28768570000102,163.28768570000102,163.28768570000102,163.28768570000102,163.28768570000102,,003,P018,2025_Mar_07_1901,CategoryLocalizer,2021.2.3,59.91023051142225,
132.0,132.8,4,0.75,Stimuli\ImageFiles-Set1\Scenes\Scenes_054.png,0,0,0,218,218,218,,,,,,,,,,,,,132.0154040999987,0.015404099998704623,None,163.5045106999969,163.5045106999969,163.5045106999969,163.5045106999969,163.5045106999969,163.5045106999969,163.5045106999969,163.5045106999969,,003,P018,2025_Mar_07_1901,CategoryLocalizer,2021.2.3,59.91023051142225,
132.8,133.0,5,0.0,Stimuli\Blank.png,0,0,0,219,219,219,,,,,,,,,,,,,132.81587969999964,0.015879699999629793,None,164.28861789999792,164.28861789999792,164.28861789999792,164.28861789999792,164.28861789999792,164.28861789999792,164.28861789999792,164.28861789999792,,003,P018,2025_Mar_07_1901,CategoryLocalizer,2021.2.3,59.91023051142225,
133.0,133.8,4,0.75,Stimuli\ImageFiles-Set1\Scenes\Scenes_054.png,0,0,0,220,220,220,,,,,,,,,,,,,133.0016340000002,0.0016340000001946464,2,164.4887527999963,164.4887527999963,164.4887527999963,164.4887527999963,164.4887527999963,164.4887527999963,164.4887527999963,164.4887527999963,0.671494199996232,003,P018,2025_Mar_07_1901,CategoryLocalizer,2021.2.3,59.91023051142225,
133.8,134.0,5,0.0,Stimuli\Blank.png,0,0,0,221,221,221,,,,,,,,,,,,,133.81725010000082,0.01725010000080829,None,165.28945640000165,165.28945640000165,165.28945640000165,165.28945640000165,165.28945640000165,165.28945640000165,165.28945640000165,165.28945640000165,,003,P018,2025_Mar_07_1901,CategoryLocalizer,2021.2.3,59.91023051142225,
134.0,134.8,4,0.75,Stimuli\ImageFiles-Set1\Scenes\Scenes_010.png,0,0,0,222,222,222,,,,,,,,,,,,,134.00171409999894,0.0017140999989351258,None,165.48963280000316,165.48963280000316,165.48963280000316,165.48963280000316,165.48963280000316,165.48963280000316,165.48963280000316,165.48963280000316,,003,P018,2025_Mar_07_1901,CategoryLocalizer,2021.2.3,59.91023051142225,
134.8,135.0,5,0.0,Stimuli\Blank.png,0,0,0,223,223,223,,,,,,,,,,,,,134.81791779999912,0.01791779999911114,None,166.2903284999993,166.2903284999993,166.2903284999993,166.2903284999993,166.2903284999993,166.2903284999993,166.2903284999993,166.2903284999993,,003,P018,2025_Mar_07_1901,CategoryLocalizer,2021.2.3,59.91023051142225,
135.0,135.8,4,0.75,Stimuli\ImageFiles-Set1\Scenes\Scenes_040.png,0,0,0,224,224,224,,,,,,,,,,,,,135.00126640000235,0.001266400002350565,None,166.49051309999777,166.49051309999777,166.49051309999777,166.49051309999777,166.49051309999777,166.49051309999777,166.49051309999777,166.49051309999777,,003,P018,2025_Mar_07_1901,CategoryLocalizer,2021.2.3,59.91023051142225,
135.8,136.0,5,0.0,Stimuli\Blank.png,0,0,0,225,225,225,,,,,,,,,,,,,135.81809610000346,0.01809610000344719,None,167.2912215999968,167.2912215999968,167.2912215999968,167.2912215999968,167.2912215999968,167.2912215999968,167.2912215999968,167.2912215999968,,003,P018,2025_Mar_07_1901,CategoryLocalizer,2021.2.3,59.91023051142225,
136.0,136.8,2,0.75,Stimuli\ImageFiles-Set1\Bodies\Bodies_SittingStretch_00002.png,0,0,0,226,226,226,,,,,,,,,,,,,136.00245990000258,0.002459900002577342,None,167.4914243000021,167.4914243000021,167.4914243000021,167.4914243000021,167.4914243000021,167.4914243000021,167.4914243000021,167.4914243000021,,003,P018,2025_Mar_07_1901,CategoryLocalizer,2021.2.3,59.91023051142225,
136.8,137.0,5,0.0,Stimuli\Blank.png,0,0,0,227,227,227,,,,,,,,,,,,,136.81924150000123,0.019241500001214717,None,168.29210829999647,168.29210829999647,168.29210829999647,168.29210829999647,168.29210829999647,168.29210829999647,168.29210829999647,168.29210829999647,,003,P018,2025_Mar_07_1901,CategoryLocalizer,2021.2.3,59.91023051142225,
137.0,137.8,2,0.75,Stimuli\ImageFiles-Set1\Bodies\Bodies_Standing_00007.png,0,0,0,228,228,228,,,,,,,,,,,,,137.00339740000345,0.003397400003450457,None,168.4755972999992,168.4755972999992,168.4755972999992,168.4755972999992,168.4755972999992,168.4755972999992,168.4755972999992,168.4755972999992,,003,P018,2025_Mar_07_1901,CategoryLocalizer,2021.2.3,59.91023051142225,
137.8,138.0,5,0.0,Stimuli\Blank.png,0,0,0,229,229,229,,,,,,,,,,,,,137.80427970000164,0.004279700001632136,None,169.2763100000011,169.2763100000011,169.2763100000011,169.2763100000011,169.2763100000011,169.2763100000011,169.2763100000011,169.2763100000011,,003,P018,2025_Mar_07_1901,CategoryLocalizer,2021.2.3,59.91023051142225,
138.0,138.8,2,0.75,Stimuli\ImageFiles-Set1\Bodies\Bodies_Lunging_00001.png,0,0,0,230,230,230,,,,,,,,,,,,,138.00399579999794,0.0039957999979378656,None,169.4931712999969,169.4931712999969,169.4931712999969,169.4931712999969,169.4931712999969,169.4931712999969,169.4931712999969,169.4931712999969,,003,P018,2025_Mar_07_1901,CategoryLocalizer,2021.2.3,59.91023051142225,
138.8,139.0,5,0.0,Stimuli\Blank.png,0,0,0,231,231,231,,,,,,,,,,,,,138.82143270000233,0.02143270000232178,None,170.29387889999634,170.29387889999634,170.29387889999634,170.29387889999634,170.29387889999634,170.29387889999634,170.29387889999634,170.29387889999634,,003,P018,2025_Mar_07_1901,CategoryLocalizer,2021.2.3,59.91023051142225,
139.0,139.8,2,0.75,Stimuli\ImageFiles-Set1\Bodies\Bodies_Waving_00003.png,0,0,0,232,232,232,,,,,,,,,,,,,139.0046713000047,0.004671300004702061,None,170.47743880000053,170.47743880000053,170.47743880000053,170.47743880000053,170.47743880000053,170.47743880000053,170.47743880000053,170.47743880000053,,003,P018,2025_Mar_07_1901,CategoryLocalizer,2021.2.3,59.91023051142225,
139.8,140.0,5,0.0,Stimuli\Blank.png,0,0,0,233,233,233,,,,,,,,,,,,,139.80674169999838,0.006741699998372042,None,171.29479349999747,171.29479349999747,171.29479349999747,171.29479349999747,171.29479349999747,171.29479349999747,171.29479349999747,171.29479349999747,,003,P018,2025_Mar_07_1901,CategoryLocalizer,2021.2.3,59.91023051142225,
140.0,140.8,2,0.75,Stimuli\ImageFiles-Set1\Bodies\Bodies_Waving_00001.png,0,0,0,234,234,234,,,,,,,,,,,,,140.02211869999883,0.02211869999882765,None,171.49493639999855,171.49493639999855,171.49493639999855,171.49493639999855,171.49493639999855,171.49493639999855,171.49493639999855,171.49493639999855,,003,P018,2025_Mar_07_1901,CategoryLocalizer,2021.2.3,59.91023051142225,
140.8,141.0,5,0.0,Stimuli\Blank.png,0,0,0,235,235,235,,,,,,,,,,,,,140.80577220000123,0.005772200001217698,None,172.2790096000026,172.2790096000026,172.2790096000026,172.2790096000026,172.2790096000026,172.2790096000026,172.2790096000026,172.2790096000026,,003,P018,2025_Mar_07_1901,CategoryLocalizer,2021.2.3,59.91023051142225,
141.0,141.8,2,0.75,Stimuli\ImageFiles-Set1\Bodies\Bodies_Falling_00002.png,0,0,0,236,236,236,,,,,,,,,,,,,141.00593690000096,0.005936900000961032,None,172.47914350000065,172.47914350000065,172.47914350000065,172.47914350000065,172.47914350000065,172.47914350000065,172.47914350000065,172.47914350000065,,003,P018,2025_Mar_07_1901,CategoryLocalizer,2021.2.3,59.91023051142225,
141.8,142.0,5,0.0,Stimuli\Blank.png,0,0,0,237,237,237,,,,,,,,,,,,,141.80689749999874,0.0068974999987290175,None,173.2798535999973,173.2798535999973,173.2798535999973,173.2798535999973,173.2798535999973,173.2798535999973,173.2798535999973,173.2798535999973,,003,P018,2025_Mar_07_1901,CategoryLocalizer,2021.2.3,59.91023051142225,
142.0,142.8,2,0.75,Stimuli\ImageFiles-Set1\Bodies\Bodies_Waving_00007.png,0,0,0,238,238,238,,,,,,,,,,,,,142.00731030000316,0.007310300003155135,None,173.48002149999957,173.48002149999957,173.48002149999957,173.48002149999957,173.48002149999957,173.48002149999957,173.48002149999957,173.48002149999957,,003,P018,2025_Mar_07_1901,CategoryLocalizer,2021.2.3,59.91023051142225,
142.8,143.0,5,0.0,Stimuli\Blank.png,0,0,0,239,239,239,,,,,,,,,,,,,142.80748970000423,0.007489700004214228,None,174.28075089999766,174.28075089999766,174.28075089999766,174.28075089999766,174.28075089999766,174.28075089999766,174.28075089999766,174.28075089999766,,003,P018,2025_Mar_07_1901,CategoryLocalizer,2021.2.3,59.91023051142225,
143.0,143.8,2,0.75,Stimuli\ImageFiles-Set1\Bodies\Bodies_Kicking_00007.png,0,0,0,240,240,240,,,,,,,,,,,,,143.00797140000213,0.007971400002134033,None,174.49761829999625,174.49761829999625,174.49761829999625,174.49761829999625,174.49761829999625,174.49761829999625,174.49761829999625,174.49761829999625,,003,P018,2025_Mar_07_1901,CategoryLocalizer,2021.2.3,59.91023051142225,
143.8,144.0,5,0.0,Stimuli\Blank.png,0,0,0,241,241,241,,,,,,,,,,,,,143.82641500000318,0.026415000003169098,None,175.29834069999924,175.29834069999924,175.29834069999924,175.29834069999924,175.29834069999924,175.29834069999924,175.29834069999924,175.29834069999924,,003,P018,2025_Mar_07_1901,CategoryLocalizer,2021.2.3,59.91023051142225,
144.0,144.8,2,0.75,Stimuli\ImageFiles-Set1\Bodies\Bodies_Kicking_00007.png,1,1,0,242,242,242,,,,,,,,,,,,,144.00938580000366,0.009385800003656186,2,175.49848159999965,175.49848159999965,175.49848159999965,175.49848159999965,175.49848159999965,175.49848159999965,175.49848159999965,175.49848159999965,0.3437033999944106,003,P018,2025_Mar_07_1901,CategoryLocalizer,2021.2.3,59.91023051142225,
144.8,145.0,5,0.0,Stimuli\Blank.png,0,0,0,243,243,243,,,,,,,,,,,,,144.82695450000028,0.02695450000027222,None,176.2991860999973,176.2991860999973,176.2991860999973,176.2991860999973,176.2991860999973,176.2991860999973,176.2991860999973,176.2991860999973,,003,P018,2025_Mar_07_1901,CategoryLocalizer,2021.2.3,59.91023051142225,
145.0,145.8,2,0.75,Stimuli\ImageFiles-Set1\Bodies\Bodies_CobraPose_00001.png,0,0,0,244,244,244,,,,,,,,,,,,,145.01165860000037,0.011658600000373553,None,176.49936970000272,176.49936970000272,176.49936970000272,176.49936970000272,176.49936970000272,176.49936970000272,176.49936970000272,176.49936970000272,,003,P018,2025_Mar_07_1901,CategoryLocalizer,2021.2.3,59.91023051142225,
145.8,146.0,5,0.0,Stimuli\Blank.png,0,0,0,245,245,245,,,,,,,,,,,,,145.82744130000356,0.027441300003545166,None,177.30006819999835,177.30006819999835,177.30006819999835,177.30006819999835,177.30006819999835,177.30006819999835,177.30006819999835,177.30006819999835,,003,P018,2025_Mar_07_1901,CategoryLocalizer,2021.2.3,59.91023051142225,
146.0,146.8,2,0.75,Stimuli\ImageFiles-Set1\Bodies\Bodies_Kneeling_00005.png,0,0,0,246,246,246,,,,,,,,,,,,,146.01268210000126,0.012682100001256913,None,177.50024960000155,177.50024960000155,177.50024960000155,177.50024960000155,177.50024960000155,177.50024960000155,177.50024960000155,177.50024960000155,,003,P018,2025_Mar_07_1901,CategoryLocalizer,2021.2.3,59.91023051142225,
146.8,147.0,5,0.0,Stimuli\Blank.png,0,0,0,247,247,247,,,,,,,,,,,,,146.82775540000148,0.02775540000146748,None,178.30095179999626,178.30095179999626,178.30095179999626,178.30095179999626,178.30095179999626,178.30095179999626,178.30095179999626,178.30095179999626,,003,P018,2025_Mar_07_1901,CategoryLocalizer,2021.2.3,59.91023051142225,
147.0,147.8,2,0.75,Stimuli\ImageFiles-Set1\Bodies\Bodies_CobraPose_00003.png,0,0,0,248,248,248,,,,,,,,,,,,,147.01179910000064,0.011799100000644103,None,178.50113129999954,178.50113129999954,178.50113129999954,178.50113129999954,178.50113129999954,178.50113129999954,178.50113129999954,178.50113129999954,,003,P018,2025_Mar_07_1901,CategoryLocalizer,2021.2.3,59.91023051142225,
147.8,148.0,5,0.0,Stimuli\Blank.png,0,0,0,249,249,249,,,,,,,,,,,,,147.82897550000052,0.028975500000512966,None,179.3018321999989,179.3018321999989,179.3018321999989,179.3018321999989,179.3018321999989,179.3018321999989,179.3018321999989,179.3018321999989,,003,P018,2025_Mar_07_1901,CategoryLocalizer,2021.2.3,59.91023051142225,
148.0,148.8,2,0.75,Stimuli\ImageFiles-Set1\Bodies\Bodies_SittingChair_00005.png,0,0,0,250,250,250,,,,,,,,,,,,,148.01264079999964,0.012640799999644514,None,179.48532780000096,179.48532780000096,179.48532780000096,179.48532780000096,179.48532780000096,179.48532780000096,179.48532780000096,179.48532780000096,,003,P018,2025_Mar_07_1901,CategoryLocalizer,2021.2.3,59.91023051142225,
148.8,149.0,5,0.0,Stimuli\Blank.png,0,0,0,251,251,251,,,,,,,,,,,,,148.81292910000047,0.012929100000462768,None,180.28603770000336,180.28603770000336,180.28603770000336,180.28603770000336,180.28603770000336,180.28603770000336,180.28603770000336,180.28603770000336,,003,P018,2025_Mar_07_1901,CategoryLocalizer,2021.2.3,59.91023051142225,
149.0,149.8,2,0.75,Stimuli\ImageFiles-Set1\Bodies\Bodies_DownwardDog_00005.png,0,0,0,252,252,252,,,,,,,,,,,,,149.01302880000003,0.01302880000002915,None,180.4862151999987,180.4862151999987,180.4862151999987,180.4862151999987,180.4862151999987,180.4862151999987,180.4862151999987,180.4862151999987,,003,P018,2025_Mar_07_1901,CategoryLocalizer,2021.2.3,59.91023051142225,
149.8,150.0,5,0.0,Stimuli\Blank.png,0,0,0,253,253,253,,,,,,,,,,,,,149.8146743000034,0.014674300003377994,None,181.2869206999967,181.2869206999967,181.2869206999967,181.2869206999967,181.2869206999967,181.2869206999967,181.2869206999967,181.2869206999967,,003,P018,2025_Mar_07_1901,CategoryLocalizer,2021.2.3,59.91023051142225,
150.0,150.8,2,0.75,Stimuli\ImageFiles-Set1\Bodies\Bodies_Standing_00003.png,0,0,0,254,254,254,,,,,,,,,,,,,150.01391169999988,0.013911699999880511,None,181.50380369999766,181.50380369999766,181.50380369999766,181.50380369999766,181.50380369999766,181.50380369999766,181.50380369999766,181.50380369999766,,003,P018,2025_Mar_07_1901,CategoryLocalizer,2021.2.3,59.91023051142225,
150.8,151.0,5,0.0,Stimuli\Blank.png,0,0,0,255,255,255,,,,,,,,,,,,,150.832691100004,0.03269110000400133,None,182.30449509999744,182.30449509999744,182.30449509999744,182.30449509999744,182.30449509999744,182.30449509999744,182.30449509999744,182.30449509999744,,003,P018,2025_Mar_07_1901,CategoryLocalizer,2021.2.3,59.91023051142225,
151.0,151.8,2,0.75,Stimuli\ImageFiles-Set1\Bodies\Bodies_DownwardDog_00001.png,0,0,0,256,256,256,,,,,,,,,,,,,150.99808040000062,-0.0019195999993826263,None,182.47129829999903,182.47129829999903,182.47129829999903,182.47129829999903,182.47129829999903,182.47129829999903,182.47129829999903,182.47129829999903,,003,P018,2025_Mar_07_1901,CategoryLocalizer,2021.2.3,59.91023051142225,
151.8,152.0,5,0.0,Stimuli\Blank.png,0,0,0,257,257,257,,,,,,,,,,,,,151.81610920000094,0.016109200000926194,None,183.28870379999717,183.28870379999717,183.28870379999717,183.28870379999717,183.28870379999717,183.28870379999717,183.28870379999717,183.28870379999717,,003,P018,2025_Mar_07_1901,CategoryLocalizer,2021.2.3,59.91023051142225,
152.0,164.0,0,0.0,Stimuli\Blank.png,0,0,0,258,258,258,,,,,,,,,,,,,151.99911180000345,-0.0008881999965524301,None,183.47219210000185,183.47219210000185,183.47219210000185,183.47219210000185,183.47219210000185,183.47219210000185,183.47219210000185,183.47219210000185,,003,P018,2025_Mar_07_1901,CategoryLocalizer,2021.2.3,59.91023051142225,
164.0,164.8,4,0.75,Stimuli\ImageFiles-Set1\Scenes\Scenes_026.png,0,0,0,259,259,259,,,,,,,,,,,,,164.0100326000029,0.010032600002887193,None,195.48281000000134,195.48281000000134,195.48281000000134,195.48281000000134,195.48281000000134,195.48281000000134,195.48281000000134,195.48281000000134,,003,P018,2025_Mar_07_1901,CategoryLocalizer,2021.2.3,59.91023051142225,
164.8,165.0,5,0.0,Stimuli\Blank.png,0,0,0,260,260,260,,,,,,,,,,,,,164.81197239999892,0.011972399998910532,None,196.30020969999896,196.30020969999896,196.30020969999896,196.30020969999896,196.30020969999896,196.30020969999896,196.30020969999896,196.30020969999896,,003,P018,2025_Mar_07_1901,CategoryLocalizer,2021.2.3,59.91023051142225,
165.0,165.8,4,0.75,Stimuli\ImageFiles-Set1\Scenes\Scenes_007.png,0,0,0,261,261,261,,,,,,,,,,,,,165.0278507000039,0.02785070000390988,None,196.5170528000017,196.5170528000017,196.5170528000017,196.5170528000017,196.5170528000017,196.5170528000017,196.5170528000017,196.5170528000017,,003,P018,2025_Mar_07_1901,CategoryLocalizer,2021.2.3,59.91023051142225,
165.8,166.0,5,0.0,Stimuli\Blank.png,0,0,0,262,262,262,,,,,,,,,,,,,165.828714700001,0.028714700000989524,None,197.30108360000304,197.30108360000304,197.30108360000304,197.30108360000304,197.30108360000304,197.30108360000304,197.30108360000304,197.30108360000304,,003,P018,2025_Mar_07_1901,CategoryLocalizer,2021.2.3,59.91023051142225,
166.0,166.8,4,0.75,Stimuli\ImageFiles-Set1\Scenes\Scenes_045.png,0,0,0,263,263,263,,,,,,,,,,,,,166.01171969999996,0.011719699999957811,None,197.48457580000104,197.48457580000104,197.48457580000104,197.48457580000104,197.48457580000104,197.48457580000104,197.48457580000104,197.48457580000104,,003,P018,2025_Mar_07_1901,CategoryLocalizer,2021.2.3,59.91023051142225,
166.8,167.0,5,0.0,Stimuli\Blank.png,0,0,0,264,264,264,,,,,,,,,,,,,166.8127655999997,0.012765599999681854,None,198.28528959999676,198.28528959999676,198.28528959999676,198.28528959999676,198.28528959999676,198.28528959999676,198.28528959999676,198.28528959999676,,003,P018,2025_Mar_07_1901,CategoryLocalizer,2021.2.3,59.91023051142225,
167.0,167.8,4,0.75,Stimuli\ImageFiles-Set1\Scenes\Scenes_008.png,0,0,0,265,265,265,,,,,,,,,,,,,167.0130457999985,0.0130457999985083,None,198.5021437999967,198.5021437999967,198.5021437999967,198.5021437999967,198.5021437999967,198.5021437999967,198.5021437999967,198.5021437999967,,003,P018,2025_Mar_07_1901,CategoryLocalizer,2021.2.3,59.91023051142225,
167.8,168.0,5,0.0,Stimuli\Blank.png,0,0,0,266,266,266,,,,,,,,,,,,,167.83223040000303,0.0322304000030158,None,199.31956289999653,199.31956289999653,199.31956289999653,199.31956289999653,199.31956289999653,199.31956289999653,199.31956289999653,199.31956289999653,,003,P018,2025_Mar_07_1901,CategoryLocalizer,2021.2.3,59.91023051142225,
168.0,168.8,4,0.75,Stimuli\ImageFiles-Set1\Scenes\Scenes_021.png,0,0,0,267,267,267,,,,,,,,,,,,,168.01340499999787,0.013404999997874256,None,199.4863441999987,199.4863441999987,199.4863441999987,199.4863441999987,199.4863441999987,199.4863441999987,199.4863441999987,199.4863441999987,,003,P018,2025_Mar_07_1901,CategoryLocalizer,2021.2.3,59.91023051142225,
168.8,169.0,5,0.0,Stimuli\Blank.png,0,0,0,268,268,268,,,,,,,,,,,,,168.8139119000043,0.013911900004302424,None,200.2870722000007,200.2870722000007,200.2870722000007,200.2870722000007,200.2870722000007,200.2870722000007,200.2870722000007,200.2870722000007,,003,P018,2025_Mar_07_1901,CategoryLocalizer,2021.2.3,59.91023051142225,
169.0,169.8,4,0.75,Stimuli\ImageFiles-Set1\Scenes\Scenes_060.png,0,0,0,269,269,269,,,,,,,,,,,,,169.01402940000116,0.014029400001163594,None,200.48723489999975,200.48723489999975,200.48723489999975,200.48723489999975,200.48723489999975,200.48723489999975,200.48723489999975,200.48723489999975,,003,P018,2025_Mar_07_1901,CategoryLocalizer,2021.2.3,59.91023051142225,
169.8,170.0,5,0.0,Stimuli\Blank.png,0,0,0,270,270,270,,,,,,,,,,,,,169.81536240000423,0.0153624000042214,None,201.28794750000088,201.28794750000088,201.28794750000088,201.28794750000088,201.28794750000088,201.28794750000088,201.28794750000088,201.28794750000088,,003,P018,2025_Mar_07_1901,CategoryLocalizer,2021.2.3,59.91023051142225,
170.0,170.8,4,0.75,Stimuli\ImageFiles-Set1\Scenes\Scenes_059.png,0,0,0,271,271,271,,,,,,,,,,,,,170.0162793999989,0.016279399998893496,None,201.50479279999854,201.50479279999854,201.50479279999854,201.50479279999854,201.50479279999854,201.50479279999854,201.50479279999854,201.50479279999854,,003,P018,2025_Mar_07_1901,CategoryLocalizer,2021.2.3,59.91023051142225,
170.8,171.0,5,0.0,Stimuli\Blank.png,0,0,0,272,272,272,,,,,,,,,,,,,170.81638190000376,0.016381900003750616,None,202.28883320000023,202.28883320000023,202.28883320000023,202.28883320000023,202.28883320000023,202.28883320000023,202.28883320000023,202.28883320000023,,003,P018,2025_Mar_07_1901,CategoryLocalizer,2021.2.3,59.91023051142225,
171.0,171.8,4,0.75,Stimuli\ImageFiles-Set1\Scenes\Scenes_047.png,0,0,0,273,273,273,,,,,,,,,,,,,170.99908970000251,-0.0009102999974857084,None,202.47229099999822,202.47229099999822,202.47229099999822,202.47229099999822,202.47229099999822,202.47229099999822,202.47229099999822,202.47229099999822,,003,P018,2025_Mar_07_1901,CategoryLocalizer,2021.2.3,59.91023051142225,
171.8,172.0,5,0.0,Stimuli\Blank.png,0,0,0,274,274,274,,,,,,,,,,,,,171.80124649999925,0.0012464999992403136,None,203.27303689999826,203.27303689999826,203.27303689999826,203.27303689999826,203.27303689999826,203.27303689999826,203.27303689999826,203.27303689999826,,003,P018,2025_Mar_07_1901,CategoryLocalizer,2021.2.3,59.91023051142225,
172.0,172.8,4,0.75,Stimuli\ImageFiles-Set1\Scenes\Scenes_018.png,0,0,0,275,275,275,,,,,,,,,,,,,172.0020214000033,0.0020214000032865442,None,203.48988709999685,203.48988709999685,203.48988709999685,203.48988709999685,203.48988709999685,203.48988709999685,203.48988709999685,203.48988709999685,,003,P018,2025_Mar_07_1901,CategoryLocalizer,2021.2.3,59.91023051142225,
172.8,173.0,5,0.0,Stimuli\Blank.png,0,0,0,276,276,276,,,,,,,,,,,,,172.8174863000022,0.01748630000219009,None,204.29059640000196,204.29059640000196,204.29059640000196,204.29059640000196,204.29059640000196,204.29059640000196,204.29059640000196,204.29059640000196,,003,P018,2025_Mar_07_1901,CategoryLocalizer,2021.2.3,59.91023051142225,
173.0,173.8,4,0.75,Stimuli\ImageFiles-Set1\Scenes\Scenes_030.png,0,0,0,277,277,277,,,,,,,,,,,,,173.0011949000036,0.0011949000036111102,None,204.47408749999886,204.47408749999886,204.47408749999886,204.47408749999886,204.47408749999886,204.47408749999886,204.47408749999886,204.47408749999886,,003,P018,2025_Mar_07_1901,CategoryLocalizer,2021.2.3,59.91023051142225,
173.8,174.0,5,0.0,Stimuli\Blank.png,0,0,0,278,278,278,,,,,,,,,,,,,173.80256889999873,0.002568899998721008,None,205.2747978999978,205.2747978999978,205.2747978999978,205.2747978999978,205.2747978999978,205.2747978999978,205.2747978999978,205.2747978999978,,003,P018,2025_Mar_07_1901,CategoryLocalizer,2021.2.3,59.91023051142225,
174.0,174.8,4,0.75,Stimuli\ImageFiles-Set1\Scenes\Scenes_013.png,0,0,0,279,279,279,,,,,,,,,,,,,174.00312819999817,0.0031281999981729314,None,205.49165889999858,205.49165889999858,205.49165889999858,205.49165889999858,205.49165889999858,205.49165889999858,205.49165889999858,205.49165889999858,,003,P018,2025_Mar_07_1901,CategoryLocalizer,2021.2.3,59.91023051142225,
174.8,175.0,5,0.0,Stimuli\Blank.png,0,0,0,280,280,280,,,,,,,,,,,,,174.81916540000384,0.01916540000382838,None,206.29236410000158,206.29236410000158,206.29236410000158,206.29236410000158,206.29236410000158,206.29236410000158,206.29236410000158,206.29236410000158,,003,P018,2025_Mar_07_1901,CategoryLocalizer,2021.2.3,59.91023051142225,
175.0,175.8,4,0.75,Stimuli\ImageFiles-Set1\Scenes\Scenes_013.png,1,1,0,281,281,281,,,,,,,,,,,,,175.00290120000136,0.0029012000013608485,2,206.4758578999972,206.4758578999972,206.4758578999972,206.4758578999972,206.4758578999972,206.4758578999972,206.4758578999972,206.4758578999972,0.2762137000026996,003,P018,2025_Mar_07_1901,CategoryLocalizer,2021.2.3,59.91023051142225,
175.8,176.0,5,0.0,Stimuli\Blank.png,0,0,0,282,282,282,,,,,,,,,,,,,175.8034203999996,0.0034203999995838785,None,207.27657290000207,207.27657290000207,207.27657290000207,207.27657290000207,207.27657290000207,207.27657290000207,207.27657290000207,207.27657290000207,,003,P018,2025_Mar_07_1901,CategoryLocalizer,2021.2.3,59.91023051142225,
176.0,176.8,4,0.75,Stimuli\ImageFiles-Set1\Scenes\Scenes_017.png,0,0,0,283,283,283,,,,,,,,,,,,,176.00377010000375,0.0037701000037486665,None,207.4934293999977,207.4934293999977,207.4934293999977,207.4934293999977,207.4934293999977,207.4934293999977,207.4934293999977,207.4934293999977,,003,P018,2025_Mar_07_1901,CategoryLocalizer,2021.2.3,59.91023051142225,
176.8,177.0,5,0.0,Stimuli\Blank.png,0,0,0,284,284,284,,,,,,,,,,,,,176.8208803000016,0.020880300001579144,None,208.29413780000323,208.29413780000323,208.29413780000323,208.29413780000323,208.29413780000323,208.29413780000323,208.29413780000323,208.29413780000323,,003,P018,2025_Mar_07_1901,CategoryLocalizer,2021.2.3,59.91023051142225,
177.0,177.8,4,0.75,Stimuli\ImageFiles-Set1\Scenes\Scenes_058.png,0,0,0,285,285,285,,,,,,,,,,,,,177.005462000001,0.005462000000989065,None,208.4943104999984,208.4943104999984,208.4943104999984,208.4943104999984,208.4943104999984,208.4943104999984,208.4943104999984,208.4943104999984,,003,P018,2025_Mar_07_1901,CategoryLocalizer,2021.2.3,59.91023051142225,
