eventStartTime,eventEndTime,eventCond,imSize,imFile,repeatedImage,responseEvent,Events.thisRepN,Events.thisTrialN,Events.thisN,Events.thisIndex,Instructions.started,Instructions.stopped,participantReadyResponse.keys,participantReadyResponse.rt,participantReadyResponse.started,participantReadyResponse.stopped,startWaitforTrigger,triggerResponse.keys,triggerResponse.rt,triggerResponse.started,triggerResponse.stopped,globalTimer,actualStartTime,startTimingDiff,participantResponse.keys,participantResponse.started,participantResponse.stopped,image.started,image.stopped,fixationOutside.started,fixationOutside.stopped,fixationInside.started,fixationInside.stopped,participantResponse.rt,session,participant,date,expName,psychopyVersion,frameRate,
,,,,,,,,,,,11.561134699994,None,2,9.546244000004663,11.561134699994,None,,,,,,,,,,,,,,,,,,,002,P018,2025_Mar_07_1833,CategoryLocalizer,2021.2.3,59.94711465490753,
,,,,,,,,,,,,,,,,,21.12107599999581,5,14.029465200001141,21.133576399995945,None,,,,,,,,,,,,,,002,P018,2025_Mar_07_1833,CategoryLocalizer,2021.2.3,59.94711465490753,
0.0,12.0,0,0.0,Stimuli\Blank.png,0,0,0,0,0,0,,,,,,,,,,,,35.166443599999184,0.052988099996582605,0.052988099996582605,None,35.24600439999631,None,35.24600439999631,None,35.24600439999631,None,35.24600439999631,None,,002,P018,2025_Mar_07_1833,CategoryLocalizer,2021.2.3,59.94711465490753,
12.0,12.8,1,0.75,Stimuli\ImageFiles-Set2\Objects\Object_Ambulance_00001.png,0,0,0,1,1,1,,,,,,,,,,,,,12.027198199997656,0.027198199997656047,None,47.223288099994534,47.223288099994534,47.223288099994534,47.223288099994534,47.223288099994534,47.223288099994534,47.223288099994534,47.223288099994534,,002,P018,2025_Mar_07_1833,CategoryLocalizer,2021.2.3,59.94711465490753,
12.8,13.0,5,0.0,Stimuli\Blank.png,0,0,0,2,2,2,,,,,,,,,,,,,12.826187200000277,0.02618720000027608,None,48.007280199999514,48.007280199999514,48.007280199999514,48.007280199999514,48.007280199999514,48.007280199999514,48.007280199999514,48.007280199999514,,002,P018,2025_Mar_07_1833,CategoryLocalizer,2021.2.3,59.94711465490753,
13.0,13.8,1,0.75,Stimuli\ImageFiles-Set2\Objects\Object_Tomato_00001.png,0,0,0,3,3,3,,,,,,,,,,,,,13.009860500002105,0.009860500002105255,None,48.207460899997386,48.207460899997386,48.207460899997386,48.207460899997386,48.207460899997386,48.207460899997386,48.207460899997386,48.207460899997386,,002,P018,2025_Mar_07_1833,CategoryLocalizer,2021.2.3,59.94711465490753,
13.8,14.0,5,0.0,Stimuli\Blank.png,0,0,0,4,4,4,,,,,,,,,,,,,13.829820699997072,0.029820699997070932,None,49.02486289999797,49.02486289999797,49.02486289999797,49.02486289999797,49.02486289999797,49.02486289999797,49.02486289999797,49.02486289999797,,002,P018,2025_Mar_07_1833,CategoryLocalizer,2021.2.3,59.94711465490753,
14.0,14.8,1,0.75,Stimuli\ImageFiles-Set2\Objects\Object_Button1_00001.png,0,0,0,5,5,5,,,,,,,,,,,,,14.030020699996385,0.030020699996384792,None,49.2250528999939,49.2250528999939,49.2250528999939,49.2250528999939,49.2250528999939,49.2250528999939,49.2250528999939,49.2250528999939,,002,P018,2025_Mar_07_1833,CategoryLocalizer,2021.2.3,59.94711465490753,
14.8,15.0,5,0.0,Stimuli\Blank.png,0,0,0,6,6,6,,,,,,,,,,,,,14.829819599995972,0.029819599995970947,None,50.02575889999571,50.02575889999571,50.02575889999571,50.02575889999571,50.02575889999571,50.02575889999571,50.02575889999571,50.02575889999571,,002,P018,2025_Mar_07_1833,CategoryLocalizer,2021.2.3,59.94711465490753,
15.0,15.8,1,0.75,Stimuli\ImageFiles-Set2\Objects\Object_Bolt_00001.png,0,0,0,7,7,7,,,,,,,,,,,,,15.030033399998501,0.03003339999850141,None,50.22591349999857,50.22591349999857,50.22591349999857,50.22591349999857,50.22591349999857,50.22591349999857,50.22591349999857,50.22591349999857,,002,P018,2025_Mar_07_1833,CategoryLocalizer,2021.2.3,59.94711465490753,
15.8,16.0,5,0.0,Stimuli\Blank.png,0,0,0,8,8,8,,,,,,,,,,,,,15.830529400001979,0.03052940000197779,None,51.0099596,51.0099596,51.0099596,51.0099596,51.0099596,51.0099596,51.0099596,51.0099596,,002,P018,2025_Mar_07_1833,CategoryLocalizer,2021.2.3,59.94711465490753,
16.0,16.8,1,0.75,Stimuli\ImageFiles-Set2\Objects\Object_Shovel_00001.png,0,0,0,9,9,9,,,,,,,,,,,,,16.012520600001153,0.01252060000115307,None,51.193536299993866,51.193536299993866,51.193536299993866,51.193536299993866,51.193536299993866,51.193536299993866,51.193536299993866,51.193536299993866,,002,P018,2025_Mar_07_1833,CategoryLocalizer,2021.2.3,59.94711465490753,
16.8,17.0,5,0.0,Stimuli\Blank.png,0,0,0,10,10,10,,,,,,,,,,,,,16.81379559999914,0.013795599999138375,None,51.99414859999524,51.99414859999524,51.99414859999524,51.99414859999524,51.99414859999524,51.99414859999524,51.99414859999524,51.99414859999524,,002,P018,2025_Mar_07_1833,CategoryLocalizer,2021.2.3,59.94711465490753,
17.0,17.8,1,0.75,Stimuli\ImageFiles-Set2\Objects\Object_Fork_00001.png,0,0,0,11,11,11,,,,,,,,,,,,,17.014902700000675,0.014902700000675395,None,52.21102369999426,52.21102369999426,52.21102369999426,52.21102369999426,52.21102369999426,52.21102369999426,52.21102369999426,52.21102369999426,,002,P018,2025_Mar_07_1833,CategoryLocalizer,2021.2.3,59.94711465490753,
17.8,18.0,5,0.0,Stimuli\Blank.png,0,0,0,12,12,12,,,,,,,,,,,,,17.83152600000176,0.03152600000175809,None,53.01171039999463,53.01171039999463,53.01171039999463,53.01171039999463,53.01171039999463,53.01171039999463,53.01171039999463,53.01171039999463,,002,P018,2025_Mar_07_1833,CategoryLocalizer,2021.2.3,59.94711465490753,
18.0,18.8,1,0.75,Stimuli\ImageFiles-Set2\Objects\Object_Car_00001.png,0,0,0,13,13,13,,,,,,,,,,,,,18.01460539999971,0.014605399999709334,None,53.19520719999855,53.19520719999855,53.19520719999855,53.19520719999855,53.19520719999855,53.19520719999855,53.19520719999855,53.19520719999855,,002,P018,2025_Mar_07_1833,CategoryLocalizer,2021.2.3,59.94711465490753,
18.8,19.0,5,0.0,Stimuli\Blank.png,0,0,0,14,14,14,,,,,,,,,,,,,18.81535789999907,0.015357899999070668,None,53.99590889999672,53.99590889999672,53.99590889999672,53.99590889999672,53.99590889999672,53.99590889999672,53.99590889999672,53.99590889999672,,002,P018,2025_Mar_07_1833,CategoryLocalizer,2021.2.3,59.94711465490753,
19.0,19.8,1,0.75,Stimuli\ImageFiles-Set2\Objects\Object_Brick_00001.png,0,0,0,15,15,15,,,,,,,,,,,,,19.015696099995694,0.015696099995693658,None,54.196088699995016,54.196088699995016,54.196088699995016,54.196088699995016,54.196088699995016,54.196088699995016,54.196088699995016,54.196088699995016,,002,P018,2025_Mar_07_1833,CategoryLocalizer,2021.2.3,59.94711465490753,
19.8,20.0,5,0.0,Stimuli\Blank.png,0,0,0,16,16,16,,,,,,,,,,,,,19.800457699995604,0.00045769999560363317,None,54.98013379999611,54.98013379999611,54.98013379999611,54.98013379999611,54.98013379999611,54.98013379999611,54.98013379999611,54.98013379999611,,002,P018,2025_Mar_07_1833,CategoryLocalizer,2021.2.3,59.94711465490753,
20.0,20.8,1,0.75,Stimuli\ImageFiles-Set2\Objects\Object_Refrigerator_00001.png,0,0,0,17,17,17,,,,,,,,,,,,,20.000189799997315,0.00018979999731527641,None,55.18026099999406,55.18026099999406,55.18026099999406,55.18026099999406,55.18026099999406,55.18026099999406,55.18026099999406,55.18026099999406,,002,P018,2025_Mar_07_1833,CategoryLocalizer,2021.2.3,59.94711465490753,
20.8,21.0,5,0.0,Stimuli\Blank.png,0,0,0,18,18,18,,,,,,,,,,,,,20.801200599998992,0.0012005999989916916,None,55.981015899997146,55.981015899997146,55.981015899997146,55.981015899997146,55.981015899997146,55.981015899997146,55.981015899997146,55.981015899997146,,002,P018,2025_Mar_07_1833,CategoryLocalizer,2021.2.3,59.94711465490753,
21.0,21.8,1,0.75,Stimuli\ImageFiles-Set2\Objects\Object_Refrigerator_00001.png,1,1,0,19,19,19,,,,,,,,,,,,,21.001104800001485,0.0011048000014852732,2,56.19788439999684,56.19788439999684,56.19788439999684,56.19788439999684,56.19788439999684,56.19788439999684,56.19788439999684,56.19788439999684,0.27699569999822415,002,P018,2025_Mar_07_1833,CategoryLocalizer,2021.2.3,59.94711465490753,
21.8,22.0,5,0.0,Stimuli\Blank.png,0,0,0,20,20,20,,,,,,,,,,,,,21.820508400000108,0.02050840000010723,None,57.01528989999497,57.01528989999497,57.01528989999497,57.01528989999497,57.01528989999497,57.01528989999497,57.01528989999497,57.01528989999497,,002,P018,2025_Mar_07_1833,CategoryLocalizer,2021.2.3,59.94711465490753,
22.0,22.8,1,0.75,Stimuli\ImageFiles-Set2\Objects\Object_Shelves_00001.png,0,0,0,21,21,21,,,,,,,,,,,,,22.018315799999982,0.01831579999998212,None,57.19874189999973,57.19874189999973,57.19874189999973,57.19874189999973,57.19874189999973,57.19874189999973,57.19874189999973,57.19874189999973,,002,P018,2025_Mar_07_1833,CategoryLocalizer,2021.2.3,59.94711465490753,
22.8,23.0,5,0.0,Stimuli\Blank.png,0,0,0,22,22,22,,,,,,,,,,,,,22.802200899997842,0.0022008999978417876,None,57.982781099999556,57.982781099999556,57.982781099999556,57.982781099999556,57.982781099999556,57.982781099999556,57.982781099999556,57.982781099999556,,002,P018,2025_Mar_07_1833,CategoryLocalizer,2021.2.3,59.94711465490753,
23.0,23.8,1,0.75,Stimuli\ImageFiles-Set2\Objects\Object_Lawnmower_00001.png,0,0,0,23,23,23,,,,,,,,,,,,,23.00246150000021,0.0024615000002086163,None,58.18294199999946,58.18294199999946,58.18294199999946,58.18294199999946,58.18294199999946,58.18294199999946,58.18294199999946,58.18294199999946,,002,P018,2025_Mar_07_1833,CategoryLocalizer,2021.2.3,59.94711465490753,
23.8,24.0,5,0.0,Stimuli\Blank.png,0,0,0,24,24,24,,,,,,,,,,,,,23.804645999996865,0.004645999996863992,None,59.000377799995476,59.000377799995476,59.000377799995476,59.000377799995476,59.000377799995476,59.000377799995476,59.000377799995476,59.000377799995476,,002,P018,2025_Mar_07_1833,CategoryLocalizer,2021.2.3,59.94711465490753,
24.0,24.8,1,0.75,Stimuli\ImageFiles-Set2\Objects\Object_Perfume_00001.png,0,0,0,25,25,25,,,,,,,,,,,,,24.01981220000016,0.019812200000160374,None,59.20052129999385,59.20052129999385,59.20052129999385,59.20052129999385,59.20052129999385,59.20052129999385,59.20052129999385,59.20052129999385,,002,P018,2025_Mar_07_1833,CategoryLocalizer,2021.2.3,59.94711465490753,
24.8,25.0,5,0.0,Stimuli\Blank.png,0,0,0,26,26,26,,,,,,,,,,,,,24.80429809999623,0.00429809999623032,None,59.98456129999977,59.98456129999977,59.98456129999977,59.98456129999977,59.98456129999977,59.98456129999977,59.98456129999977,59.98456129999977,,002,P018,2025_Mar_07_1833,CategoryLocalizer,2021.2.3,59.94711465490753,
25.0,25.8,1,0.75,Stimuli\ImageFiles-Set2\Objects\Object_Couch_00001.png,0,0,0,27,27,27,,,,,,,,,,,,,25.003685499999847,0.0036854999998467974,None,60.184721899997385,60.184721899997385,60.184721899997385,60.184721899997385,60.184721899997385,60.184721899997385,60.184721899997385,60.184721899997385,,002,P018,2025_Mar_07_1833,CategoryLocalizer,2021.2.3,59.94711465490753,
25.8,26.0,5,0.0,Stimuli\Blank.png,0,0,0,28,28,28,,,,,,,,,,,,,25.804317800000717,0.004317800000716687,None,60.98542369999632,60.98542369999632,60.98542369999632,60.98542369999632,60.98542369999632,60.98542369999632,60.98542369999632,60.98542369999632,,002,P018,2025_Mar_07_1833,CategoryLocalizer,2021.2.3,59.94711465490753,
26.0,26.8,1,0.75,Stimuli\ImageFiles-Set2\Objects\Object_Coffee_00001.png,0,0,0,29,29,29,,,,,,,,,,,,,26.005125099996803,0.005125099996803328,None,61.20229029999609,61.20229029999609,61.20229029999609,61.20229029999609,61.20229029999609,61.20229029999609,61.20229029999609,61.20229029999609,,002,P018,2025_Mar_07_1833,CategoryLocalizer,2021.2.3,59.94711465490753,
26.8,27.0,5,0.0,Stimuli\Blank.png,0,0,0,30,30,30,,,,,,,,,,,,,26.822647900000447,0.022647900000446697,None,62.00308170000062,62.00308170000062,62.00308170000062,62.00308170000062,62.00308170000062,62.00308170000062,62.00308170000062,62.00308170000062,,002,P018,2025_Mar_07_1833,CategoryLocalizer,2021.2.3,59.94711465490753,
27.0,27.8,1,0.75,Stimuli\ImageFiles-Set2\Objects\Object_Battery_00001.png,0,0,0,31,31,31,,,,,,,,,,,,,27.005825799999002,0.005825799999001902,None,62.203190299995185,62.203190299995185,62.203190299995185,62.203190299995185,62.203190299995185,62.203190299995185,62.203190299995185,62.203190299995185,,002,P018,2025_Mar_07_1833,CategoryLocalizer,2021.2.3,59.94711465490753,
27.8,28.0,5,0.0,Stimuli\Blank.png,0,0,0,32,32,32,,,,,,,,,,,,,27.82339409999986,0.023394099999858753,None,63.00389929999801,63.00389929999801,63.00389929999801,63.00389929999801,63.00389929999801,63.00389929999801,63.00389929999801,63.00389929999801,,002,P018,2025_Mar_07_1833,CategoryLocalizer,2021.2.3,59.94711465490753,
28.0,28.8,2,0.75,Stimuli\ImageFiles-Set2\Bodies\Bodies_Punching_00005.png,0,0,0,33,33,33,,,,,,,,,,,,,28.00661979999859,0.00661979999858886,None,63.1873357000004,63.1873357000004,63.1873357000004,63.1873357000004,63.1873357000004,63.1873357000004,63.1873357000004,63.1873357000004,,002,P018,2025_Mar_07_1833,CategoryLocalizer,2021.2.3,59.94711465490753,
28.8,29.0,5,0.0,Stimuli\Blank.png,0,0,0,34,34,34,,,,,,,,,,,,,28.80701749999571,0.007017499995708221,None,63.988092299994605,63.988092299994605,63.988092299994605,63.988092299994605,63.988092299994605,63.988092299994605,63.988092299994605,63.988092299994605,,002,P018,2025_Mar_07_1833,CategoryLocalizer,2021.2.3,59.94711465490753,
29.0,29.8,2,0.75,Stimuli\ImageFiles-Set2\Bodies\Bodies_PushUp_00006.png,0,0,0,35,35,35,,,,,,,,,,,,,29.007122199996957,0.007122199996956624,None,64.1882531999945,64.1882531999945,64.1882531999945,64.1882531999945,64.1882531999945,64.1882531999945,64.1882531999945,64.1882531999945,,002,P018,2025_Mar_07_1833,CategoryLocalizer,2021.2.3,59.94711465490753,
29.8,30.0,5,0.0,Stimuli\Blank.png,0,0,0,36,36,36,,,,,,,,,,,,,29.809830899997905,0.009830899997904652,None,65.00567199999932,65.00567199999932,65.00567199999932,65.00567199999932,65.00567199999932,65.00567199999932,65.00567199999932,65.00567199999932,,002,P018,2025_Mar_07_1833,CategoryLocalizer,2021.2.3,59.94711465490753,
30.0,30.8,2,0.75,Stimuli\ImageFiles-Set2\Bodies\Bodies_Kneeling_00001.png,0,0,0,37,37,37,,,,,,,,,,,,,30.02474860000075,0.02474860000074841,None,65.20582669999567,65.20582669999567,65.20582669999567,65.20582669999567,65.20582669999567,65.20582669999567,65.20582669999567,65.20582669999567,,002,P018,2025_Mar_07_1833,CategoryLocalizer,2021.2.3,59.94711465490753,
30.8,31.0,5,0.0,Stimuli\Blank.png,0,0,0,38,38,38,,,,,,,,,,,,,30.8086758999998,0.008675899999797565,None,65.98989079999592,65.98989079999592,65.98989079999592,65.98989079999592,65.98989079999592,65.98989079999592,65.98989079999592,65.98989079999592,,002,P018,2025_Mar_07_1833,CategoryLocalizer,2021.2.3,59.94711465490753,
31.0,31.8,2,0.75,Stimuli\ImageFiles-Set2\Bodies\Bodies_Standing_00002.png,0,0,0,39,39,39,,,,,,,,,,,,,31.009120199996687,0.009120199996687006,None,66.19002159999945,66.19002159999945,66.19002159999945,66.19002159999945,66.19002159999945,66.19002159999945,66.19002159999945,66.19002159999945,,002,P018,2025_Mar_07_1833,CategoryLocalizer,2021.2.3,59.94711465490753,
31.8,32.0,5,0.0,Stimuli\Blank.png,0,0,0,40,40,40,,,,,,,,,,,,,31.809742199999164,0.009742199999163148,None,66.9906972999961,66.9906972999961,66.9906972999961,66.9906972999961,66.9906972999961,66.9906972999961,66.9906972999961,66.9906972999961,,002,P018,2025_Mar_07_1833,CategoryLocalizer,2021.2.3,59.94711465490753,
32.0,32.8,2,0.75,Stimuli\ImageFiles-Set2\Bodies\Bodies_Standing_00002.png,1,1,0,41,41,41,,,,,,,,,,,,,32.01051110000117,0.010511100001167506,2,67.1909061999977,67.1909061999977,67.1909061999977,67.1909061999977,67.1909061999977,67.1909061999977,67.1909061999977,67.1909061999977,0.3091904999964754,002,P018,2025_Mar_07_1833,CategoryLocalizer,2021.2.3,59.94711465490753,
32.8,33.0,5,0.0,Stimuli\Blank.png,0,0,0,42,42,42,,,,,,,,,,,,,32.81062689999817,0.010626899998172235,None,67.99161739999545,67.99161739999545,67.99161739999545,67.99161739999545,67.99161739999545,67.99161739999545,67.99161739999545,67.99161739999545,,002,P018,2025_Mar_07_1833,CategoryLocalizer,2021.2.3,59.94711465490753,
33.0,33.8,2,0.75,Stimuli\ImageFiles-Set2\Bodies\Bodies_Running_00001.png,0,0,0,43,43,43,,,,,,,,,,,,,33.01063029999932,0.010630299999320414,None,68.19179559999611,68.19179559999611,68.19179559999611,68.19179559999611,68.19179559999611,68.19179559999611,68.19179559999611,68.19179559999611,,002,P018,2025_Mar_07_1833,CategoryLocalizer,2021.2.3,59.94711465490753,
33.8,34.0,5,0.0,Stimuli\Blank.png,0,0,0,44,44,44,,,,,,,,,,,,,33.81150360000174,0.01150360000174544,None,68.99250539999775,68.99250539999775,68.99250539999775,68.99250539999775,68.99250539999775,68.99250539999775,68.99250539999775,68.99250539999775,,002,P018,2025_Mar_07_1833,CategoryLocalizer,2021.2.3,59.94711465490753,
34.0,34.8,2,0.75,Stimuli\ImageFiles-Set2\Bodies\Bodies_Jumping_00005.png,0,0,0,45,45,45,,,,,,,,,,,,,34.0117442999981,0.01174429999809945,None,69.20938860000024,69.20938860000024,69.20938860000024,69.20938860000024,69.20938860000024,69.20938860000024,69.20938860000024,69.20938860000024,,002,P018,2025_Mar_07_1833,CategoryLocalizer,2021.2.3,59.94711465490753,
34.8,35.0,5,0.0,Stimuli\Blank.png,0,0,0,46,46,46,,,,,,,,,,,,,34.829738200001884,0.029738200001887094,None,70.01006899999629,70.01006899999629,70.01006899999629,70.01006899999629,70.01006899999629,70.01006899999629,70.01006899999629,70.01006899999629,,002,P018,2025_Mar_07_1833,CategoryLocalizer,2021.2.3,59.94711465490753,
35.0,35.8,2,0.75,Stimuli\ImageFiles-Set2\Bodies\Bodies_Pushing_00004.png,0,0,0,47,47,47,,,,,,,,,,,,,35.014819299998635,0.01481929999863496,None,70.21025649999501,70.21025649999501,70.21025649999501,70.21025649999501,70.21025649999501,70.21025649999501,70.21025649999501,70.21025649999501,,002,P018,2025_Mar_07_1833,CategoryLocalizer,2021.2.3,59.94711465490753,
35.8,36.0,5,0.0,Stimuli\Blank.png,0,0,0,48,48,48,,,,,,,,,,,,,35.83040819999587,0.030408199995875407,None,71.01096399999369,71.01096399999369,71.01096399999369,71.01096399999369,71.01096399999369,71.01096399999369,71.01096399999369,71.01096399999369,,002,P018,2025_Mar_07_1833,CategoryLocalizer,2021.2.3,59.94711465490753,
36.0,36.8,2,0.75,Stimuli\ImageFiles-Set2\Bodies\Bodies_Kneeling_00004.png,0,0,0,49,49,49,,,,,,,,,,,,,36.01381330000004,0.013813300000037998,None,71.19444590000057,71.19444590000057,71.19444590000057,71.19444590000057,71.19444590000057,71.19444590000057,71.19444590000057,71.19444590000057,,002,P018,2025_Mar_07_1833,CategoryLocalizer,2021.2.3,59.94711465490753,
36.8,37.0,5,0.0,Stimuli\Blank.png,0,0,0,50,50,50,,,,,,,,,,,,,36.814579799996864,0.014579799996866427,None,71.99517809999816,71.99517809999816,71.99517809999816,71.99517809999816,71.99517809999816,71.99517809999816,71.99517809999816,71.99517809999816,,002,P018,2025_Mar_07_1833,CategoryLocalizer,2021.2.3,59.94711465490753,
37.0,37.8,2,0.75,Stimuli\ImageFiles-Set2\Bodies\Bodies_Hanging_00005.png,0,0,0,51,51,51,,,,,,,,,,,,,37.01463710000098,0.014637100000982173,None,72.19533459999366,72.19533459999366,72.19533459999366,72.19533459999366,72.19533459999366,72.19533459999366,72.19533459999366,72.19533459999366,,002,P018,2025_Mar_07_1833,CategoryLocalizer,2021.2.3,59.94711465490753,
37.8,38.0,5,0.0,Stimuli\Blank.png,0,0,0,52,52,52,,,,,,,,,,,,,37.81624069999816,0.016240699998164132,None,72.99605979999615,72.99605979999615,72.99605979999615,72.99605979999615,72.99605979999615,72.99605979999615,72.99605979999615,72.99605979999615,,002,P018,2025_Mar_07_1833,CategoryLocalizer,2021.2.3,59.94711465490753,
38.0,38.8,2,0.75,Stimuli\ImageFiles-Set2\Bodies\Bodies_SittingFloor_00006.png,1,1,0,53,53,53,,,,,,,,,,,,,37.99974749999819,-0.0002525000018067658,None,73.19622519999393,73.19622519999393,73.19622519999393,73.19622519999393,73.19622519999393,73.19622519999393,73.19622519999393,73.19622519999393,,002,P018,2025_Mar_07_1833,CategoryLocalizer,2021.2.3,59.94711465490753,
38.8,39.0,5,0.0,Stimuli\Blank.png,0,0,0,54,54,54,,,,,,,,,,,,,38.81588879999617,0.015888799996176317,None,73.99693119999574,73.99693119999574,73.99693119999574,73.99693119999574,73.99693119999574,73.99693119999574,73.99693119999574,73.99693119999574,,002,P018,2025_Mar_07_1833,CategoryLocalizer,2021.2.3,59.94711465490753,
39.0,39.8,2,0.75,Stimuli\ImageFiles-Set2\Bodies\Bodies_Hanging_00001.png,0,0,0,55,55,55,,,,,,,,,,,,,39.00039970000216,0.0003997000021627173,None,74.18042559999594,74.18042559999594,74.18042559999594,74.18042559999594,74.18042559999594,74.18042559999594,74.18042559999594,74.18042559999594,,002,P018,2025_Mar_07_1833,CategoryLocalizer,2021.2.3,59.94711465490753,
39.8,40.0,5,0.0,Stimuli\Blank.png,0,0,0,56,56,56,,,,,,,,,,,,,39.80076549999649,0.0007654999964898934,None,74.98113739999826,74.98113739999826,74.98113739999826,74.98113739999826,74.98113739999826,74.98113739999826,74.98113739999826,74.98113739999826,,002,P018,2025_Mar_07_1833,CategoryLocalizer,2021.2.3,59.94711465490753,
40.0,40.8,2,0.75,Stimuli\ImageFiles-Set2\Bodies\Bodies_Hanging_00001.png,0,0,0,57,57,57,,,,,,,,,,,,,40.000190400001884,0.00019040000188397244,2,75.18131129999529,75.18131129999529,75.18131129999529,75.18131129999529,75.18131129999529,75.18131129999529,75.18131129999529,75.18131129999529,0.4069177999990643,002,P018,2025_Mar_07_1833,CategoryLocalizer,2021.2.3,59.94711465490753,
40.8,41.0,5,0.0,Stimuli\Blank.png,0,0,0,58,58,58,,,,,,,,,,,,,40.800875000000815,0.0008750000008177494,None,75.98200859999633,75.98200859999633,75.98200859999633,75.98200859999633,75.98200859999633,75.98200859999633,75.98200859999633,75.98200859999633,,002,P018,2025_Mar_07_1833,CategoryLocalizer,2021.2.3,59.94711465490753,
41.0,41.8,2,0.75,Stimuli\ImageFiles-Set2\Bodies\Bodies_Walking_00003.png,0,0,0,59,59,59,,,,,,,,,,,,,41.001028500002576,0.0010285000025760382,None,76.19887539999763,76.19887539999763,76.19887539999763,76.19887539999763,76.19887539999763,76.19887539999763,76.19887539999763,76.19887539999763,,002,P018,2025_Mar_07_1833,CategoryLocalizer,2021.2.3,59.94711465490753,
41.8,42.0,5,0.0,Stimuli\Blank.png,0,0,0,60,60,60,,,,,,,,,,,,,41.82109589999891,0.021095899998911705,None,77.01625469999999,77.01625469999999,77.01625469999999,77.01625469999999,77.01625469999999,77.01625469999999,77.01625469999999,77.01625469999999,,002,P018,2025_Mar_07_1833,CategoryLocalizer,2021.2.3,59.94711465490753,
42.0,42.8,2,0.75,Stimuli\ImageFiles-Set2\Bodies\Bodies_Jumping_00001.png,0,0,0,61,61,61,,,,,,,,,,,,,42.0191863,0.01918630000000121,None,77.19975659999909,77.19975659999909,77.19975659999909,77.19975659999909,77.19975659999909,77.19975659999909,77.19975659999909,77.19975659999909,,002,P018,2025_Mar_07_1833,CategoryLocalizer,2021.2.3,59.94711465490753,
42.8,43.0,5,0.0,Stimuli\Blank.png,0,0,0,62,62,62,,,,,,,,,,,,,42.80264159999933,0.0026415999993361083,None,77.98378930000035,77.98378930000035,77.98378930000035,77.98378930000035,77.98378930000035,77.98378930000035,77.98378930000035,77.98378930000035,,002,P018,2025_Mar_07_1833,CategoryLocalizer,2021.2.3,59.94711465490753,
43.0,43.8,2,0.75,Stimuli\ImageFiles-Set2\Bodies\Bodies_Jumping_00003.png,0,0,0,63,63,63,,,,,,,,,,,,,43.004740800002764,0.004740800002764445,None,78.20064949999505,78.20064949999505,78.20064949999505,78.20064949999505,78.20064949999505,78.20064949999505,78.20064949999505,78.20064949999505,,002,P018,2025_Mar_07_1833,CategoryLocalizer,2021.2.3,59.94711465490753,
43.8,44.0,5,0.0,Stimuli\Blank.png,0,0,0,64,64,64,,,,,,,,,,,,,43.820333999996365,0.020333999996367425,None,79.00135259999661,79.00135259999661,79.00135259999661,79.00135259999661,79.00135259999661,79.00135259999661,79.00135259999661,79.00135259999661,,002,P018,2025_Mar_07_1833,CategoryLocalizer,2021.2.3,59.94711465490753,
44.0,44.8,3,0.75,Stimuli\ImageFiles-Set2\Faces\Face_00074.png,0,0,0,65,65,65,,,,,,,,,,,,,44.004420199999004,0.004420199999003671,None,79.20153029999346,79.20153029999346,79.20153029999346,79.20153029999346,79.20153029999346,79.20153029999346,79.20153029999346,79.20153029999346,,002,P018,2025_Mar_07_1833,CategoryLocalizer,2021.2.3,59.94711465490753,
44.8,45.0,5,0.0,Stimuli\Blank.png,0,0,0,66,66,66,,,,,,,,,,,,,44.821798700002546,0.0217987000025488,None,80.00221049999527,80.00221049999527,80.00221049999527,80.00221049999527,80.00221049999527,80.00221049999527,80.00221049999527,80.00221049999527,,002,P018,2025_Mar_07_1833,CategoryLocalizer,2021.2.3,59.94711465490753,
45.0,45.8,3,0.75,Stimuli\ImageFiles-Set2\Faces\Face_00068.png,0,0,0,67,67,67,,,,,,,,,,,,,45.00532630000089,0.0053263000008882955,None,80.202415199994,80.202415199994,80.202415199994,80.202415199994,80.202415199994,80.202415199994,80.202415199994,80.202415199994,,002,P018,2025_Mar_07_1833,CategoryLocalizer,2021.2.3,59.94711465490753,
45.8,46.0,5,0.0,Stimuli\Blank.png,0,0,0,68,68,68,,,,,,,,,,,,,45.82198970000172,0.02198970000172551,None,81.00311339999462,81.00311339999462,81.00311339999462,81.00311339999462,81.00311339999462,81.00311339999462,81.00311339999462,81.00311339999462,,002,P018,2025_Mar_07_1833,CategoryLocalizer,2021.2.3,59.94711465490753,
46.0,46.8,3,0.75,Stimuli\ImageFiles-Set2\Faces\Face_00017.png,0,0,0,69,69,69,,,,,,,,,,,,,46.00657169999613,0.00657169999612961,None,81.18665369999508,81.18665369999508,81.18665369999508,81.18665369999508,81.18665369999508,81.18665369999508,81.18665369999508,81.18665369999508,,002,P018,2025_Mar_07_1833,CategoryLocalizer,2021.2.3,59.94711465490753,
46.8,47.0,5,0.0,Stimuli\Blank.png,0,0,0,70,70,70,,,,,,,,,,,,,46.80628269999579,0.00628269999579345,None,81.98734399999375,81.98734399999375,81.98734399999375,81.98734399999375,81.98734399999375,81.98734399999375,81.98734399999375,81.98734399999375,,002,P018,2025_Mar_07_1833,CategoryLocalizer,2021.2.3,59.94711465490753,
47.0,47.8,3,0.75,Stimuli\ImageFiles-Set2\Faces\Face_00112.png,0,0,0,71,71,71,,,,,,,,,,,,,47.00648479999654,0.006484799996542279,None,82.18747829999484,82.18747829999484,82.18747829999484,82.18747829999484,82.18747829999484,82.18747829999484,82.18747829999484,82.18747829999484,,002,P018,2025_Mar_07_1833,CategoryLocalizer,2021.2.3,59.94711465490753,
47.8,48.0,5,0.0,Stimuli\Blank.png,0,0,0,72,72,72,,,,,,,,,,,,,47.80709090000164,0.007090900001642808,None,82.98820689999411,82.98820689999411,82.98820689999411,82.98820689999411,82.98820689999411,82.98820689999411,82.98820689999411,82.98820689999411,,002,P018,2025_Mar_07_1833,CategoryLocalizer,2021.2.3,59.94711465490753,
48.0,48.8,3,0.75,Stimuli\ImageFiles-Set2\Faces\Face_00112.png,1,1,0,73,73,73,,,,,,,,,,,,,48.009788199997274,0.009788199997274205,2,83.20507209999778,83.20507209999778,83.20507209999778,83.20507209999778,83.20507209999778,83.20507209999778,83.20507209999778,83.20507209999778,0.46696470000460977,002,P018,2025_Mar_07_1833,CategoryLocalizer,2021.2.3,59.94711465490753,
48.8,49.0,5,0.0,Stimuli\Blank.png,0,0,0,74,74,74,,,,,,,,,,,,,48.82545050000044,0.025450500000445686,None,84.0057955999946,84.0057955999946,84.0057955999946,84.0057955999946,84.0057955999946,84.0057955999946,84.0057955999946,84.0057955999946,,002,P018,2025_Mar_07_1833,CategoryLocalizer,2021.2.3,59.94711465490753,
49.0,49.8,3,0.75,Stimuli\ImageFiles-Set2\Faces\Face_00096.png,0,0,0,75,75,75,,,,,,,,,,,,,49.00996060000034,0.009960600000340492,None,84.20595109999704,84.20595109999704,84.20595109999704,84.20595109999704,84.20595109999704,84.20595109999704,84.20595109999704,84.20595109999704,,002,P018,2025_Mar_07_1833,CategoryLocalizer,2021.2.3,59.94711465490753,
49.8,50.0,5,0.0,Stimuli\Blank.png,0,0,0,76,76,76,,,,,,,,,,,,,49.82634169999801,0.026341699998013723,None,85.00665379999555,85.00665379999555,85.00665379999555,85.00665379999555,85.00665379999555,85.00665379999555,85.00665379999555,85.00665379999555,,002,P018,2025_Mar_07_1833,CategoryLocalizer,2021.2.3,59.94711465490753,
50.0,50.8,3,0.75,Stimuli\ImageFiles-Set2\Faces\Face_00088.png,0,0,0,77,77,77,,,,,,,,,,,,,50.0098524999994,0.009852499999396969,None,85.2068322999985,85.2068322999985,85.2068322999985,85.2068322999985,85.2068322999985,85.2068322999985,85.2068322999985,85.2068322999985,,002,P018,2025_Mar_07_1833,CategoryLocalizer,2021.2.3,59.94711465490753,
50.8,51.0,5,0.0,Stimuli\Blank.png,0,0,0,78,78,78,,,,,,,,,,,,,50.82661039999948,0.026610399999484002,None,86.00754880000022,86.00754880000022,86.00754880000022,86.00754880000022,86.00754880000022,86.00754880000022,86.00754880000022,86.00754880000022,,002,P018,2025_Mar_07_1833,CategoryLocalizer,2021.2.3,59.94711465490753,
51.0,51.8,3,0.75,Stimuli\ImageFiles-Set2\Faces\Face_00090.png,0,0,0,79,79,79,,,,,,,,,,,,,51.010712900002545,0.010712900002545211,None,86.20772869999928,86.20772869999928,86.20772869999928,86.20772869999928,86.20772869999928,86.20772869999928,86.20772869999928,86.20772869999928,,002,P018,2025_Mar_07_1833,CategoryLocalizer,2021.2.3,59.94711465490753,
51.8,52.0,5,0.0,Stimuli\Blank.png,0,0,0,80,80,80,,,,,,,,,,,,,51.82809249999991,0.028092499999914367,None,87.00845249999838,87.00845249999838,87.00845249999838,87.00845249999838,87.00845249999838,87.00845249999838,87.00845249999838,87.00845249999838,,002,P018,2025_Mar_07_1833,CategoryLocalizer,2021.2.3,59.94711465490753,
52.0,52.8,3,0.75,Stimuli\ImageFiles-Set2\Faces\Face_00058.png,0,0,0,81,81,81,,,,,,,,,,,,,52.010923699999694,0.010923699999693781,None,87.20861049999803,87.20861049999803,87.20861049999803,87.20861049999803,87.20861049999803,87.20861049999803,87.20861049999803,87.20861049999803,,002,P018,2025_Mar_07_1833,CategoryLocalizer,2021.2.3,59.94711465490753,
52.8,53.0,5,0.0,Stimuli\Blank.png,0,0,0,82,82,82,,,,,,,,,,,,,52.83127560000139,0.0312756000013934,None,88.02602329999354,88.02602329999354,88.02602329999354,88.02602329999354,88.02602329999354,88.02602329999354,88.02602329999354,88.02602329999354,,002,P018,2025_Mar_07_1833,CategoryLocalizer,2021.2.3,59.94711465490753,
53.0,53.8,3,0.75,Stimuli\ImageFiles-Set2\Faces\Face_00062.png,0,0,0,83,83,83,,,,,,,,,,,,,53.028624300000956,0.028624300000956282,None,88.20948949999729,88.20948949999729,88.20948949999729,88.20948949999729,88.20948949999729,88.20948949999729,88.20948949999729,88.20948949999729,,002,P018,2025_Mar_07_1833,CategoryLocalizer,2021.2.3,59.94711465490753,
53.8,54.0,5,0.0,Stimuli\Blank.png,0,0,0,84,84,84,,,,,,,,,,,,,53.814747800002806,0.01474780000280873,None,89.01023359999817,89.01023359999817,89.01023359999817,89.01023359999817,89.01023359999817,89.01023359999817,89.01023359999817,89.01023359999817,,002,P018,2025_Mar_07_1833,CategoryLocalizer,2021.2.3,59.94711465490753,
54.0,54.8,3,0.75,Stimuli\ImageFiles-Set2\Faces\Face_00021.png,0,0,0,85,85,85,,,,,,,,,,,,,54.02925890000188,0.02925890000187792,None,89.21036979999917,89.21036979999917,89.21036979999917,89.21036979999917,89.21036979999917,89.21036979999917,89.21036979999917,89.21036979999917,,002,P018,2025_Mar_07_1833,CategoryLocalizer,2021.2.3,59.94711465490753,
54.8,55.0,5,0.0,Stimuli\Blank.png,0,0,0,86,86,86,,,,,,,,,,,,,54.815885199997865,0.01588519999786797,None,90.01109679999354,90.01109679999354,90.01109679999354,90.01109679999354,90.01109679999354,90.01109679999354,90.01109679999354,90.01109679999354,,002,P018,2025_Mar_07_1833,CategoryLocalizer,2021.2.3,59.94711465490753,
55.0,55.8,3,0.75,Stimuli\ImageFiles-Set2\Faces\Face_00120.png,1,1,0,87,87,87,,,,,,,,,,,,,55.01359909999883,0.013599099998828024,None,90.19457539999712,90.19457539999712,90.19457539999712,90.19457539999712,90.19457539999712,90.19457539999712,90.19457539999712,90.19457539999712,,002,P018,2025_Mar_07_1833,CategoryLocalizer,2021.2.3,59.94711465490753,
55.8,56.0,5,0.0,Stimuli\Blank.png,0,0,0,88,88,88,,,,,,,,,,,,,55.814809999996214,0.014809999996217016,None,90.99528160000045,90.99528160000045,90.99528160000045,90.99528160000045,90.99528160000045,90.99528160000045,90.99528160000045,90.99528160000045,,002,P018,2025_Mar_07_1833,CategoryLocalizer,2021.2.3,59.94711465490753,
56.0,56.8,3,0.75,Stimuli\ImageFiles-Set2\Faces\Face_00084.png,0,0,0,89,89,89,,,,,,,,,,,,,56.0148687999972,0.014868799997202586,None,91.19546059999993,91.19546059999993,91.19546059999993,91.19546059999993,91.19546059999993,91.19546059999993,91.19546059999993,91.19546059999993,,002,P018,2025_Mar_07_1833,CategoryLocalizer,2021.2.3,59.94711465490753,
56.8,57.0,5,0.0,Stimuli\Blank.png,0,0,0,90,90,90,,,,,,,,,,,,,56.81509619999997,0.015096199999973692,None,91.99616959999548,91.99616959999548,91.99616959999548,91.99616959999548,91.99616959999548,91.99616959999548,91.99616959999548,91.99616959999548,,002,P018,2025_Mar_07_1833,CategoryLocalizer,2021.2.3,59.94711465490753,
57.0,57.8,3,0.75,Stimuli\ImageFiles-Set2\Faces\Face_00084.png,0,0,0,91,91,91,,,,,,,,,,,,,57.01607510000031,0.01607510000030743,2,92.2130576999989,92.2130576999989,92.2130576999989,92.2130576999989,92.2130576999989,92.2130576999989,92.2130576999989,92.2130576999989,0.44204270000045653,002,P018,2025_Mar_07_1833,CategoryLocalizer,2021.2.3,59.94711465490753,
57.8,58.0,5,0.0,Stimuli\Blank.png,0,0,0,92,92,92,,,,,,,,,,,,,57.81608309999865,0.016083099998652983,None,92.99705320000066,92.99705320000066,92.99705320000066,92.99705320000066,92.99705320000066,92.99705320000066,92.99705320000066,92.99705320000066,,002,P018,2025_Mar_07_1833,CategoryLocalizer,2021.2.3,59.94711465490753,
58.0,58.8,3,0.75,Stimuli\ImageFiles-Set2\Faces\Face_00008.png,0,0,0,93,93,93,,,,,,,,,,,,,57.99991769999906,-8.230000094044954e-05,None,93.18055520000053,93.18055520000053,93.18055520000053,93.18055520000053,93.18055520000053,93.18055520000053,93.18055520000053,93.18055520000053,,002,P018,2025_Mar_07_1833,CategoryLocalizer,2021.2.3,59.94711465490753,
58.8,59.0,5,0.0,Stimuli\Blank.png,0,0,0,94,94,94,,,,,,,,,,,,,58.80121979999967,0.0012197999996743647,None,93.98126000000047,93.98126000000047,93.98126000000047,93.98126000000047,93.98126000000047,93.98126000000047,93.98126000000047,93.98126000000047,,002,P018,2025_Mar_07_1833,CategoryLocalizer,2021.2.3,59.94711465490753,
59.0,59.8,3,0.75,Stimuli\ImageFiles-Set2\Faces\Face_00015.png,0,0,0,95,95,95,,,,,,,,,,,,,59.00037229999725,0.00037229999725241214,None,94.19813829999475,94.19813829999475,94.19813829999475,94.19813829999475,94.19813829999475,94.19813829999475,94.19813829999475,94.19813829999475,,002,P018,2025_Mar_07_1833,CategoryLocalizer,2021.2.3,59.94711465490753,
59.8,60.0,5,0.0,Stimuli\Blank.png,0,0,0,96,96,96,,,,,,,,,,,,,59.81964770000195,0.01964770000195415,None,95.01551610000024,95.01551610000024,95.01551610000024,95.01551610000024,95.01551610000024,95.01551610000024,95.01551610000024,95.01551610000024,,002,P018,2025_Mar_07_1833,CategoryLocalizer,2021.2.3,59.94711465490753,
60.0,60.8,4,0.75,Stimuli\ImageFiles-Set2\Scenes\Scenes_074.png,0,0,0,97,97,97,,,,,,,,,,,,,60.01846590000059,0.018465900000592228,None,95.19899799999985,95.19899799999985,95.19899799999985,95.19899799999985,95.19899799999985,95.19899799999985,95.19899799999985,95.19899799999985,,002,P018,2025_Mar_07_1833,CategoryLocalizer,2021.2.3,59.94711465490753,
60.8,61.0,5,0.0,Stimuli\Blank.png,0,0,0,98,98,98,,,,,,,,,,,,,60.802613899999415,0.002613899999417413,None,95.98302839999815,95.98302839999815,95.98302839999815,95.98302839999815,95.98302839999815,95.98302839999815,95.98302839999815,95.98302839999815,,002,P018,2025_Mar_07_1833,CategoryLocalizer,2021.2.3,59.94711465490753,
61.0,61.8,4,0.75,Stimuli\ImageFiles-Set2\Scenes\Scenes_066.png,0,0,0,99,99,99,,,,,,,,,,,,,61.002024000001256,0.002024000001256354,None,96.1832174999945,96.1832174999945,96.1832174999945,96.1832174999945,96.1832174999945,96.1832174999945,96.1832174999945,96.1832174999945,,002,P018,2025_Mar_07_1833,CategoryLocalizer,2021.2.3,59.94711465490753,
61.8,62.0,5,0.0,Stimuli\Blank.png,0,0,0,100,100,100,,,,,,,,,,,,,61.80334279999806,0.0033427999980659706,None,96.98393419999775,96.98393419999775,96.98393419999775,96.98393419999775,96.98393419999775,96.98393419999775,96.98393419999775,96.98393419999775,,002,P018,2025_Mar_07_1833,CategoryLocalizer,2021.2.3,59.94711465490753,
62.0,62.8,4,0.75,Stimuli\ImageFiles-Set2\Scenes\Scenes_067.png,0,0,0,101,101,101,,,,,,,,,,,,,62.00479610000184,0.0047961000018403865,None,97.20079699999769,97.20079699999769,97.20079699999769,97.20079699999769,97.20079699999769,97.20079699999769,97.20079699999769,97.20079699999769,,002,P018,2025_Mar_07_1833,CategoryLocalizer,2021.2.3,59.94711465490753,
62.8,63.0,5,0.0,Stimuli\Blank.png,0,0,0,102,102,102,,,,,,,,,,,,,62.82037709999713,0.020377099997133996,None,98.00147529999958,98.00147529999958,98.00147529999958,98.00147529999958,98.00147529999958,98.00147529999958,98.00147529999958,98.00147529999958,,002,P018,2025_Mar_07_1833,CategoryLocalizer,2021.2.3,59.94711465490753,
63.0,63.8,4,0.75,Stimuli\ImageFiles-Set2\Scenes\Scenes_115.png,0,0,0,103,103,103,,,,,,,,,,,,,63.004670199996326,0.004670199996326119,None,98.2016788999972,98.2016788999972,98.2016788999972,98.2016788999972,98.2016788999972,98.2016788999972,98.2016788999972,98.2016788999972,,002,P018,2025_Mar_07_1833,CategoryLocalizer,2021.2.3,59.94711465490753,
63.8,64.0,5,0.0,Stimuli\Blank.png,0,0,0,104,104,104,,,,,,,,,,,,,63.82216419999895,0.02216419999895436,None,99.00237789999665,99.00237789999665,99.00237789999665,99.00237789999665,99.00237789999665,99.00237789999665,99.00237789999665,99.00237789999665,,002,P018,2025_Mar_07_1833,CategoryLocalizer,2021.2.3,59.94711465490753,
64.0,64.8,4,0.75,Stimuli\ImageFiles-Set2\Scenes\Scenes_115.png,1,1,0,105,105,105,,,,,,,,,,,,,64.00487250000151,0.004872500001511071,2,99.20253769999545,99.20253769999545,99.20253769999545,99.20253769999545,99.20253769999545,99.20253769999545,99.20253769999545,99.20253769999545,0.4353460999991512,002,P018,2025_Mar_07_1833,CategoryLocalizer,2021.2.3,59.94711465490753,
64.8,65.0,5,0.0,Stimuli\Blank.png,0,0,0,106,106,106,,,,,,,,,,,,,64.82246760000271,0.022467600002713084,None,100.00328119999904,100.00328119999904,100.00328119999904,100.00328119999904,100.00328119999904,100.00328119999904,100.00328119999904,100.00328119999904,,002,P018,2025_Mar_07_1833,CategoryLocalizer,2021.2.3,59.94711465490753,
65.0,65.8,4,0.75,Stimuli\ImageFiles-Set2\Scenes\Scenes_120.png,0,0,0,107,107,107,,,,,,,,,,,,,65.00621139999566,0.006211399995663669,None,100.20347889999539,100.20347889999539,100.20347889999539,100.20347889999539,100.20347889999539,100.20347889999539,100.20347889999539,100.20347889999539,,002,P018,2025_Mar_07_1833,CategoryLocalizer,2021.2.3,59.94711465490753,
65.8,66.0,5,0.0,Stimuli\Blank.png,0,0,0,108,108,108,,,,,,,,,,,,,65.82429019999836,0.024290199998361572,None,101.00423959999898,101.00423959999898,101.00423959999898,101.00423959999898,101.00423959999898,101.00423959999898,101.00423959999898,101.00423959999898,,002,P018,2025_Mar_07_1833,CategoryLocalizer,2021.2.3,59.94711465490753,
66.0,66.8,4,0.75,Stimuli\ImageFiles-Set2\Scenes\Scenes_093.png,0,0,0,109,109,109,,,,,,,,,,,,,66.00694259999727,0.006942599997273646,None,101.1875841000001,101.1875841000001,101.1875841000001,101.1875841000001,101.1875841000001,101.1875841000001,101.1875841000001,101.1875841000001,,002,P018,2025_Mar_07_1833,CategoryLocalizer,2021.2.3,59.94711465490753,
66.8,67.0,5,0.0,Stimuli\Blank.png,0,0,0,110,110,110,,,,,,,,,,,,,66.80777729999681,0.007777299996817533,None,101.98830909999378,101.98830909999378,101.98830909999378,101.98830909999378,101.98830909999378,101.98830909999378,101.98830909999378,101.98830909999378,,002,P018,2025_Mar_07_1833,CategoryLocalizer,2021.2.3,59.94711465490753,
67.0,67.8,4,0.75,Stimuli\ImageFiles-Set2\Scenes\Scenes_112.png,0,0,0,111,111,111,,,,,,,,,,,,,67.00813119999657,0.008131199996569194,None,102.18851009999344,102.18851009999344,102.18851009999344,102.18851009999344,102.18851009999344,102.18851009999344,102.18851009999344,102.18851009999344,,002,P018,2025_Mar_07_1833,CategoryLocalizer,2021.2.3,59.94711465490753,
67.8,68.0,5,0.0,Stimuli\Blank.png,0,0,0,112,112,112,,,,,,,,,,,,,67.8107852999965,0.01078529999649902,None,103.00590919999377,103.00590919999377,103.00590919999377,103.00590919999377,103.00590919999377,103.00590919999377,103.00590919999377,103.00590919999377,,002,P018,2025_Mar_07_1833,CategoryLocalizer,2021.2.3,59.94711465490753,
68.0,68.8,4,0.75,Stimuli\ImageFiles-Set2\Scenes\Scenes_106.png,0,0,0,113,113,113,,,,,,,,,,,,,68.02606299999752,0.02606299999752082,None,103.22276520000014,103.22276520000014,103.22276520000014,103.22276520000014,103.22276520000014,103.22276520000014,103.22276520000014,103.22276520000014,,002,P018,2025_Mar_07_1833,CategoryLocalizer,2021.2.3,59.94711465490753,
68.8,69.0,5,0.0,Stimuli\Blank.png,0,0,0,114,114,114,,,,,,,,,,,,,68.82610890000069,0.026108900000693325,None,104.00679200000013,104.00679200000013,104.00679200000013,104.00679200000013,104.00679200000013,104.00679200000013,104.00679200000013,104.00679200000013,,002,P018,2025_Mar_07_1833,CategoryLocalizer,2021.2.3,59.94711465490753,
69.0,69.8,4,0.75,Stimuli\ImageFiles-Set2\Scenes\Scenes_095.png,1,1,0,115,115,115,,,,,,,,,,,,,69.00983840000117,0.009838400001171976,None,104.20695889999479,104.20695889999479,104.20695889999479,104.20695889999479,104.20695889999479,104.20695889999479,104.20695889999479,104.20695889999479,,002,P018,2025_Mar_07_1833,CategoryLocalizer,2021.2.3,59.94711465490753,
69.8,70.0,5,0.0,Stimuli\Blank.png,0,0,0,116,116,116,,,,,,,,,,,,,69.82738629999949,0.027386299999491825,None,105.00768389999575,105.00768389999575,105.00768389999575,105.00768389999575,105.00768389999575,105.00768389999575,105.00768389999575,105.00768389999575,,002,P018,2025_Mar_07_1833,CategoryLocalizer,2021.2.3,59.94711465490753,
70.0,70.8,4,0.75,Stimuli\ImageFiles-Set2\Scenes\Scenes_104.png,0,0,0,117,117,117,,,,,,,,,,,,,70.01104350000242,0.011043500002415385,None,105.20785919999616,105.20785919999616,105.20785919999616,105.20785919999616,105.20785919999616,105.20785919999616,105.20785919999616,105.20785919999616,,002,P018,2025_Mar_07_1833,CategoryLocalizer,2021.2.3,59.94711465490753,
70.8,71.0,5,0.0,Stimuli\Blank.png,0,0,0,118,118,118,,,,,,,,,,,,,70.82807389999653,0.028073899996527985,None,106.00856889999704,106.00856889999704,106.00856889999704,106.00856889999704,106.00856889999704,106.00856889999704,106.00856889999704,106.00856889999704,,002,P018,2025_Mar_07_1833,CategoryLocalizer,2021.2.3,59.94711465490753,
71.0,71.8,4,0.75,Stimuli\ImageFiles-Set2\Scenes\Scenes_104.png,0,0,0,119,119,119,,,,,,,,,,,,,71.01145120000001,0.01145120000001043,2,106.20873259999644,106.20873259999644,106.20873259999644,106.20873259999644,106.20873259999644,106.20873259999644,106.20873259999644,106.20873259999644,0.32723140000598505,002,P018,2025_Mar_07_1833,CategoryLocalizer,2021.2.3,59.94711465490753,
71.8,72.0,5,0.0,Stimuli\Blank.png,0,0,0,120,120,120,,,,,,,,,,,,,71.83092529999703,0.03092529999703686,None,107.02613629999541,107.02613629999541,107.02613629999541,107.02613629999541,107.02613629999541,107.02613629999541,107.02613629999541,107.02613629999541,,002,P018,2025_Mar_07_1833,CategoryLocalizer,2021.2.3,59.94711465490753,
72.0,72.8,4,0.75,Stimuli\ImageFiles-Set2\Scenes\Scenes_076.png,0,0,0,121,121,121,,,,,,,,,,,,,72.02931140000146,0.029311400001461152,None,107.2263038999954,107.2263038999954,107.2263038999954,107.2263038999954,107.2263038999954,107.2263038999954,107.2263038999954,107.2263038999954,,002,P018,2025_Mar_07_1833,CategoryLocalizer,2021.2.3,59.94711465490753,
72.8,73.0,5,0.0,Stimuli\Blank.png,0,0,0,122,122,122,,,,,,,,,,,,,72.82927460000064,0.02927460000064741,None,108.01032969999505,108.01032969999505,108.01032969999505,108.01032969999505,108.01032969999505,108.01032969999505,108.01032969999505,108.01032969999505,,002,P018,2025_Mar_07_1833,CategoryLocalizer,2021.2.3,59.94711465490753,
73.0,73.8,4,0.75,Stimuli\ImageFiles-Set2\Scenes\Scenes_081.png,0,0,0,123,123,123,,,,,,,,,,,,,73.01481400000193,0.014814000001933891,None,108.21051149999403,108.21051149999403,108.21051149999403,108.21051149999403,108.21051149999403,108.21051149999403,108.21051149999403,108.21051149999403,,002,P018,2025_Mar_07_1833,CategoryLocalizer,2021.2.3,59.94711465490753,
73.8,74.0,5,0.0,Stimuli\Blank.png,0,0,0,124,124,124,,,,,,,,,,,,,73.83095329999924,0.030953299999239903,None,109.01121209999837,109.01121209999837,109.01121209999837,109.01121209999837,109.01121209999837,109.01121209999837,109.01121209999837,109.01121209999837,,002,P018,2025_Mar_07_1833,CategoryLocalizer,2021.2.3,59.94711465490753,
74.0,74.8,4,0.75,Stimuli\ImageFiles-Set2\Scenes\Scenes_108.png,0,0,0,125,125,125,,,,,,,,,,,,,74.0136147000012,0.013614700001198798,None,109.19470029999502,109.19470029999502,109.19470029999502,109.19470029999502,109.19470029999502,109.19470029999502,109.19470029999502,109.19470029999502,,002,P018,2025_Mar_07_1833,CategoryLocalizer,2021.2.3,59.94711465490753,
74.8,75.0,5,0.0,Stimuli\Blank.png,0,0,0,126,126,126,,,,,,,,,,,,,74.81462630000169,0.014626300001694403,None,109.99541799999861,109.99541799999861,109.99541799999861,109.99541799999861,109.99541799999861,109.99541799999861,109.99541799999861,109.99541799999861,,002,P018,2025_Mar_07_1833,CategoryLocalizer,2021.2.3,59.94711465490753,
75.0,75.8,4,0.75,Stimuli\ImageFiles-Set2\Scenes\Scenes_072.png,0,0,0,127,127,127,,,,,,,,,,,,,75.01570560000255,0.015705600002547726,None,110.21224119999533,110.21224119999533,110.21224119999533,110.21224119999533,110.21224119999533,110.21224119999533,110.21224119999533,110.21224119999533,,002,P018,2025_Mar_07_1833,CategoryLocalizer,2021.2.3,59.94711465490753,
75.8,76.0,5,0.0,Stimuli\Blank.png,0,0,0,128,128,128,,,,,,,,,,,,,75.81527079999796,0.01527079999796399,None,110.99630029999389,110.99630029999389,110.99630029999389,110.99630029999389,110.99630029999389,110.99630029999389,110.99630029999389,110.99630029999389,,002,P018,2025_Mar_07_1833,CategoryLocalizer,2021.2.3,59.94711465490753,
76.0,88.0,0,0.0,Stimuli\Blank.png,0,0,0,129,129,129,,,,,,,,,,,,,76.01629939999839,0.016299399998388253,None,111.19649339999887,111.19649339999887,111.19649339999887,111.19649339999887,111.19649339999887,111.19649339999887,111.19649339999887,111.19649339999887,,002,P018,2025_Mar_07_1833,CategoryLocalizer,2021.2.3,59.94711465490753,
88.0,88.8,3,0.75,Stimuli\ImageFiles-Set2\Faces\Face_00076.png,0,0,0,130,130,130,,,,,,,,,,,,,88.0099709999995,0.009970999999495689,None,123.19036519999645,123.19036519999645,123.19036519999645,123.19036519999645,123.19036519999645,123.19036519999645,123.19036519999645,123.19036519999645,,002,P018,2025_Mar_07_1833,CategoryLocalizer,2021.2.3,59.94711465490753,
88.8,89.0,5,0.0,Stimuli\Blank.png,0,0,0,131,131,131,,,,,,,,,,,,,88.8107627999998,0.010762799999795902,None,123.99112089999835,123.99112089999835,123.99112089999835,123.99112089999835,123.99112089999835,123.99112089999835,123.99112089999835,123.99112089999835,,002,P018,2025_Mar_07_1833,CategoryLocalizer,2021.2.3,59.94711465490753,
89.0,89.8,3,0.75,Stimuli\ImageFiles-Set2\Faces\Face_00078.png,0,0,0,132,132,132,,,,,,,,,,,,,89.01093350000156,0.01093350000155624,None,124.2079991999999,124.2079991999999,124.2079991999999,124.2079991999999,124.2079991999999,124.2079991999999,124.2079991999999,124.2079991999999,,002,P018,2025_Mar_07_1833,CategoryLocalizer,2021.2.3,59.94711465490753,
89.8,90.0,5,0.0,Stimuli\Blank.png,0,0,0,133,133,133,,,,,,,,,,,,,89.82973769999808,0.029737699998079847,None,125.02538799999456,125.02538799999456,125.02538799999456,125.02538799999456,125.02538799999456,125.02538799999456,125.02538799999456,125.02538799999456,,002,P018,2025_Mar_07_1833,CategoryLocalizer,2021.2.3,59.94711465490753,
90.0,90.8,3,0.75,Stimuli\ImageFiles-Set2\Faces\Face_00044.png,0,0,0,134,134,134,,,,,,,,,,,,,90.02987900000153,0.029879000001528766,None,125.22554949999903,125.22554949999903,125.22554949999903,125.22554949999903,125.22554949999903,125.22554949999903,125.22554949999903,125.22554949999903,,002,P018,2025_Mar_07_1833,CategoryLocalizer,2021.2.3,59.94711465490753,
90.8,91.0,5,0.0,Stimuli\Blank.png,0,0,0,135,135,135,,,,,,,,,,,,,90.82912679999572,0.029126799995722763,None,126.00957070000004,126.00957070000004,126.00957070000004,126.00957070000004,126.00957070000004,126.00957070000004,126.00957070000004,126.00957070000004,,002,P018,2025_Mar_07_1833,CategoryLocalizer,2021.2.3,59.94711465490753,
91.0,91.8,3,0.75,Stimuli\ImageFiles-Set2\Faces\Face_00038.png,0,0,0,136,136,136,,,,,,,,,,,,,91.0123442999975,0.01234429999749409,None,126.19306259999576,126.19306259999576,126.19306259999576,126.19306259999576,126.19306259999576,126.19306259999576,126.19306259999576,126.19306259999576,,002,P018,2025_Mar_07_1833,CategoryLocalizer,2021.2.3,59.94711465490753,
91.8,92.0,5,0.0,Stimuli\Blank.png,0,0,0,137,137,137,,,,,,,,,,,,,91.8147054000001,0.014705400000096347,None,127.01046399999905,127.01046399999905,127.01046399999905,127.01046399999905,127.01046399999905,127.01046399999905,127.01046399999905,127.01046399999905,,002,P018,2025_Mar_07_1833,CategoryLocalizer,2021.2.3,59.94711465490753,
92.0,92.8,3,0.75,Stimuli\ImageFiles-Set2\Faces\Face_00082.png,0,0,0,138,138,138,,,,,,,,,,,,,92.03015769999911,0.030157699999108445,None,127.22728179999831,127.22728179999831,127.22728179999831,127.22728179999831,127.22728179999831,127.22728179999831,127.22728179999831,127.22728179999831,,002,P018,2025_Mar_07_1833,CategoryLocalizer,2021.2.3,59.94711465490753,
92.8,93.0,5,0.0,Stimuli\Blank.png,0,0,0,139,139,139,,,,,,,,,,,,,92.83078060000116,0.030780600001165226,None,128.01135149999755,128.01135149999755,128.01135149999755,128.01135149999755,128.01135149999755,128.01135149999755,128.01135149999755,128.01135149999755,,002,P018,2025_Mar_07_1833,CategoryLocalizer,2021.2.3,59.94711465490753,
93.0,93.8,3,0.75,Stimuli\ImageFiles-Set2\Faces\Face_00026.png,0,0,0,140,140,140,,,,,,,,,,,,,93.01444020000054,0.014440200000535697,None,128.21153849999973,128.21153849999973,128.21153849999973,128.21153849999973,128.21153849999973,128.21153849999973,128.21153849999973,128.21153849999973,,002,P018,2025_Mar_07_1833,CategoryLocalizer,2021.2.3,59.94711465490753,
93.8,94.0,5,0.0,Stimuli\Blank.png,0,0,0,141,141,141,,,,,,,,,,,,,93.8310369000028,0.031036900002803236,None,129.01222199999756,129.01222199999756,129.01222199999756,129.01222199999756,129.01222199999756,129.01222199999756,129.01222199999756,129.01222199999756,,002,P018,2025_Mar_07_1833,CategoryLocalizer,2021.2.3,59.94711465490753,
94.0,94.8,3,0.75,Stimuli\ImageFiles-Set2\Faces\Face_00116.png,0,0,0,142,142,142,,,,,,,,,,,,,94.0150844000018,0.015084400001796894,None,129.1957242999997,129.1957242999997,129.1957242999997,129.1957242999997,129.1957242999997,129.1957242999997,129.1957242999997,129.1957242999997,,002,P018,2025_Mar_07_1833,CategoryLocalizer,2021.2.3,59.94711465490753,
94.8,95.0,5,0.0,Stimuli\Blank.png,0,0,0,143,143,143,,,,,,,,,,,,,94.79936599999928,-0.0006340000007156732,None,129.97975790000055,129.97975790000055,129.97975790000055,129.97975790000055,129.97975790000055,129.97975790000055,129.97975790000055,129.97975790000055,,002,P018,2025_Mar_07_1833,CategoryLocalizer,2021.2.3,59.94711465490753,
95.0,95.8,3,0.75,Stimuli\ImageFiles-Set2\Faces\Face_00013.png,0,0,0,144,144,144,,,,,,,,,,,,,94.99962689999666,-0.00037310000334400684,None,130.19660899999872,130.19660899999872,130.19660899999872,130.19660899999872,130.19660899999872,130.19660899999872,130.19660899999872,130.19660899999872,,002,P018,2025_Mar_07_1833,CategoryLocalizer,2021.2.3,59.94711465490753,
95.8,96.0,5,0.0,Stimuli\Blank.png,0,0,0,145,145,145,,,,,,,,,,,,,95.81625920000079,0.016259200000789065,None,130.9973153999963,130.9973153999963,130.9973153999963,130.9973153999963,130.9973153999963,130.9973153999963,130.9973153999963,130.9973153999963,,002,P018,2025_Mar_07_1833,CategoryLocalizer,2021.2.3,59.94711465490753,
96.0,96.8,3,0.75,Stimuli\ImageFiles-Set2\Faces\Face_00108.png,0,0,0,146,146,146,,,,,,,,,,,,,96.00068230000034,0.0006823000003350899,None,131.19749089999823,131.19749089999823,131.19749089999823,131.19749089999823,131.19749089999823,131.19749089999823,131.19749089999823,131.19749089999823,,002,P018,2025_Mar_07_1833,CategoryLocalizer,2021.2.3,59.94711465490753,
96.8,97.0,5,0.0,Stimuli\Blank.png,0,0,0,147,147,147,,,,,,,,,,,,,96.81994110000232,0.019941100002327516,None,132.01489639999636,132.01489639999636,132.01489639999636,132.01489639999636,132.01489639999636,132.01489639999636,132.01489639999636,132.01489639999636,,002,P018,2025_Mar_07_1833,CategoryLocalizer,2021.2.3,59.94711465490753,
97.0,97.8,3,0.75,Stimuli\ImageFiles-Set2\Faces\Face_00030.png,0,0,0,148,148,148,,,,,,,,,,,,,97.01715649999824,0.01715649999823654,None,132.19836999999825,132.19836999999825,132.19836999999825,132.19836999999825,132.19836999999825,132.19836999999825,132.19836999999825,132.19836999999825,,002,P018,2025_Mar_07_1833,CategoryLocalizer,2021.2.3,59.94711465490753,
97.8,98.0,5,0.0,Stimuli\Blank.png,0,0,0,149,149,149,,,,,,,,,,,,,97.80143719999614,0.0014371999961468873,None,132.98240009999427,132.98240009999427,132.98240009999427,132.98240009999427,132.98240009999427,132.98240009999427,132.98240009999427,132.98240009999427,,002,P018,2025_Mar_07_1833,CategoryLocalizer,2021.2.3,59.94711465490753,
98.0,98.8,3,0.75,Stimuli\ImageFiles-Set2\Faces\Face_00070.png,0,0,0,150,150,150,,,,,,,,,,,,,98.0014560999989,0.0014560999989043921,None,133.18253379999805,133.18253379999805,133.18253379999805,133.18253379999805,133.18253379999805,133.18253379999805,133.18253379999805,133.18253379999805,,002,P018,2025_Mar_07_1833,CategoryLocalizer,2021.2.3,59.94711465490753,
98.8,99.0,5,0.0,Stimuli\Blank.png,0,0,0,151,151,151,,,,,,,,,,,,,98.80491459999757,0.004914599997576374,None,133.9999846999999,133.9999846999999,133.9999846999999,133.9999846999999,133.9999846999999,133.9999846999999,133.9999846999999,133.9999846999999,,002,P018,2025_Mar_07_1833,CategoryLocalizer,2021.2.3,59.94711465490753,
99.0,99.8,3,0.75,Stimuli\ImageFiles-Set2\Faces\Face_00046.png,0,0,0,152,152,152,,,,,,,,,,,,,99.01960659999895,0.019606599998951424,None,134.21679349999613,134.21679349999613,134.21679349999613,134.21679349999613,134.21679349999613,134.21679349999613,134.21679349999613,134.21679349999613,,002,P018,2025_Mar_07_1833,CategoryLocalizer,2021.2.3,59.94711465490753,
99.8,100.0,5,0.0,Stimuli\Blank.png,0,0,0,153,153,153,,,,,,,,,,,,,99.82059060000029,0.020590600000289783,None,135.000858899999,135.000858899999,135.000858899999,135.000858899999,135.000858899999,135.000858899999,135.000858899999,135.000858899999,,002,P018,2025_Mar_07_1833,CategoryLocalizer,2021.2.3,59.94711465490753,
100.0,100.8,3,0.75,Stimuli\ImageFiles-Set2\Faces\Face_00046.png,1,1,0,154,154,154,,,,,,,,,,,,,100.00594160000037,0.0059416000003693625,2,135.2009978999995,135.2009978999995,135.2009978999995,135.2009978999995,135.2009978999995,135.2009978999995,135.2009978999995,135.2009978999995,0.3710036999982549,002,P018,2025_Mar_07_1833,CategoryLocalizer,2021.2.3,59.94711465490753,
100.8,101.0,5,0.0,Stimuli\Blank.png,0,0,0,155,155,155,,,,,,,,,,,,,100.82067239999742,0.020672399997422986,None,136.0017372999937,136.0017372999937,136.0017372999937,136.0017372999937,136.0017372999937,136.0017372999937,136.0017372999937,136.0017372999937,,002,P018,2025_Mar_07_1833,CategoryLocalizer,2021.2.3,59.94711465490753,
101.0,101.8,3,0.75,Stimuli\ImageFiles-Set2\Faces\Face_00080.png,0,0,0,156,156,156,,,,,,,,,,,,,101.00476989999879,0.004769899998791516,None,136.18523589999677,136.18523589999677,136.18523589999677,136.18523589999677,136.18523589999677,136.18523589999677,136.18523589999677,136.18523589999677,,002,P018,2025_Mar_07_1833,CategoryLocalizer,2021.2.3,59.94711465490753,
101.8,102.0,5,0.0,Stimuli\Blank.png,0,0,0,157,157,157,,,,,,,,,,,,,101.80529299999762,0.00529299999762145,None,136.98594709999452,136.98594709999452,136.98594709999452,136.98594709999452,136.98594709999452,136.98594709999452,136.98594709999452,136.98594709999452,,002,P018,2025_Mar_07_1833,CategoryLocalizer,2021.2.3,59.94711465490753,
102.0,102.8,3,0.75,Stimuli\ImageFiles-Set2\Faces\Face_00060.png,0,0,0,158,158,158,,,,,,,,,,,,,102.00569890000043,0.005698900000425056,None,137.2028244999965,137.2028244999965,137.2028244999965,137.2028244999965,137.2028244999965,137.2028244999965,137.2028244999965,137.2028244999965,,002,P018,2025_Mar_07_1833,CategoryLocalizer,2021.2.3,59.94711465490753,
102.8,103.0,5,0.0,Stimuli\Blank.png,0,0,0,159,159,159,,,,,,,,,,,,,102.82253910000145,0.02253910000145254,None,138.00358789999882,138.00358789999882,138.00358789999882,138.00358789999882,138.00358789999882,138.00358789999882,138.00358789999882,138.00358789999882,,002,P018,2025_Mar_07_1833,CategoryLocalizer,2021.2.3,59.94711465490753,
103.0,103.8,3,0.75,Stimuli\ImageFiles-Set2\Faces\Face_00034.png,0,0,0,160,160,160,,,,,,,,,,,,,103.00606120000157,0.006061200001568068,None,138.18699759999436,138.18699759999436,138.18699759999436,138.18699759999436,138.18699759999436,138.18699759999436,138.18699759999436,138.18699759999436,,002,P018,2025_Mar_07_1833,CategoryLocalizer,2021.2.3,59.94711465490753,
103.8,104.0,5,0.0,Stimuli\Blank.png,0,0,0,161,161,161,,,,,,,,,,,,,103.80676619999576,0.006766199995766442,None,138.98770109999896,138.98770109999896,138.98770109999896,138.98770109999896,138.98770109999896,138.98770109999896,138.98770109999896,138.98770109999896,,002,P018,2025_Mar_07_1833,CategoryLocalizer,2021.2.3,59.94711465490753,
104.0,104.8,1,0.75,Stimuli\ImageFiles-Set2\Objects\Object_Keyboard_00001.png,0,0,0,162,162,162,,,,,,,,,,,,,104.00714629999857,0.007146299998566974,None,139.2045749999961,139.2045749999961,139.2045749999961,139.2045749999961,139.2045749999961,139.2045749999961,139.2045749999961,139.2045749999961,,002,P018,2025_Mar_07_1833,CategoryLocalizer,2021.2.3,59.94711465490753,
104.8,105.0,5,0.0,Stimuli\Blank.png,0,0,0,163,163,163,,,,,,,,,,,,,104.82473079999909,0.02473079999909089,None,140.00528309999936,140.00528309999936,140.00528309999936,140.00528309999936,140.00528309999936,140.00528309999936,140.00528309999936,140.00528309999936,,002,P018,2025_Mar_07_1833,CategoryLocalizer,2021.2.3,59.94711465490753,
105.0,105.8,1,0.75,Stimuli\ImageFiles-Set2\Objects\Object_WashingMachine_00001.png,0,0,0,164,164,164,,,,,,,,,,,,,105.00863039999967,0.00863039999967441,None,140.18876349999482,140.18876349999482,140.18876349999482,140.18876349999482,140.18876349999482,140.18876349999482,140.18876349999482,140.18876349999482,,002,P018,2025_Mar_07_1833,CategoryLocalizer,2021.2.3,59.94711465490753,
105.8,106.0,5,0.0,Stimuli\Blank.png,0,0,0,165,165,165,,,,,,,,,,,,,105.80942810000124,0.009428100001244388,None,140.9894742999968,140.9894742999968,140.9894742999968,140.9894742999968,140.9894742999968,140.9894742999968,140.9894742999968,140.9894742999968,,002,P018,2025_Mar_07_1833,CategoryLocalizer,2021.2.3,59.94711465490753,
106.0,106.8,1,0.75,Stimuli\ImageFiles-Set2\Objects\Object_Hamburger_00001.png,0,0,0,166,166,166,,,,,,,,,,,,,106.00938280000264,0.009382800002640579,None,141.2063593999992,141.2063593999992,141.2063593999992,141.2063593999992,141.2063593999992,141.2063593999992,141.2063593999992,141.2063593999992,,002,P018,2025_Mar_07_1833,CategoryLocalizer,2021.2.3,59.94711465490753,
106.8,107.0,5,0.0,Stimuli\Blank.png,0,0,0,167,167,167,,,,,,,,,,,,,106.82588550000219,0.025885500002189588,None,142.00704679999762,142.00704679999762,142.00704679999762,142.00704679999762,142.00704679999762,142.00704679999762,142.00704679999762,142.00704679999762,,002,P018,2025_Mar_07_1833,CategoryLocalizer,2021.2.3,59.94711465490753,
107.0,107.8,1,0.75,Stimuli\ImageFiles-Set2\Objects\Object_Razor_00001.png,0,0,0,168,168,168,,,,,,,,,,,,,107.01007959999697,0.0100795999969705,None,142.19053839999833,142.19053839999833,142.19053839999833,142.19053839999833,142.19053839999833,142.19053839999833,142.19053839999833,142.19053839999833,,002,P018,2025_Mar_07_1833,CategoryLocalizer,2021.2.3,59.94711465490753,
107.8,108.0,5,0.0,Stimuli\Blank.png,0,0,0,169,169,169,,,,,,,,,,,,,107.81076490000123,0.010764900001234423,None,142.99125970000023,142.99125970000023,142.99125970000023,142.99125970000023,142.99125970000023,142.99125970000023,142.99125970000023,142.99125970000023,,002,P018,2025_Mar_07_1833,CategoryLocalizer,2021.2.3,59.94711465490753,
108.0,108.8,1,0.75,Stimuli\ImageFiles-Set2\Objects\Object_Grill_00001.png,0,0,0,170,170,170,,,,,,,,,,,,,108.01035689999844,0.010356899998441804,None,143.19137929999852,143.19137929999852,143.19137929999852,143.19137929999852,143.19137929999852,143.19137929999852,143.19137929999852,143.19137929999852,,002,P018,2025_Mar_07_1833,CategoryLocalizer,2021.2.3,59.94711465490753,
108.8,109.0,5,0.0,Stimuli\Blank.png,0,0,0,171,171,171,,,,,,,,,,,,,108.81212309999682,0.012123099996827591,None,143.99220319999586,143.99220319999586,143.99220319999586,143.99220319999586,143.99220319999586,143.99220319999586,143.99220319999586,143.99220319999586,,002,P018,2025_Mar_07_1833,CategoryLocalizer,2021.2.3,59.94711465490753,
109.0,109.8,1,0.75,Stimuli\ImageFiles-Set2\Objects\Object_Sponge_00001.png,0,0,0,172,172,172,,,,,,,,,,,,,109.01113489999989,0.011134899999888148,None,144.19230589999643,144.19230589999643,144.19230589999643,144.19230589999643,144.19230589999643,144.19230589999643,144.19230589999643,144.19230589999643,,002,P018,2025_Mar_07_1833,CategoryLocalizer,2021.2.3,59.94711465490753,
109.8,110.0,5,0.0,Stimuli\Blank.png,0,0,0,173,173,173,,,,,,,,,,,,,109.8131024999966,0.013102499996605843,None,144.9930322999935,144.9930322999935,144.9930322999935,144.9930322999935,144.9930322999935,144.9930322999935,144.9930322999935,144.9930322999935,,002,P018,2025_Mar_07_1833,CategoryLocalizer,2021.2.3,59.94711465490753,
110.0,110.8,1,0.75,Stimuli\ImageFiles-Set2\Objects\Object_Sponge_00001.png,1,1,0,174,174,174,,,,,,,,,,,,,110.0120764999956,0.012076499995600898,2,145.20990089999395,145.20990089999395,145.20990089999395,145.20990089999395,145.20990089999395,145.20990089999395,145.20990089999395,145.20990089999395,0.36508210000465624,002,P018,2025_Mar_07_1833,CategoryLocalizer,2021.2.3,59.94711465490753,
110.8,111.0,5,0.0,Stimuli\Blank.png,0,0,0,175,175,175,,,,,,,,,,,,,110.83020019999822,0.030200199998219546,None,146.0105906999961,146.0105906999961,146.0105906999961,146.0105906999961,146.0105906999961,146.0105906999961,146.0105906999961,146.0105906999961,,002,P018,2025_Mar_07_1833,CategoryLocalizer,2021.2.3,59.94711465490753,
111.0,111.8,1,0.75,Stimuli\ImageFiles-Set2\Objects\Object_Desk_00001.png,0,0,0,176,176,176,,,,,,,,,,,,,111.015447699996,0.015447699996002484,None,146.21077899999364,146.21077899999364,146.21077899999364,146.21077899999364,146.21077899999364,146.21077899999364,146.21077899999364,146.21077899999364,,002,P018,2025_Mar_07_1833,CategoryLocalizer,2021.2.3,59.94711465490753,
111.8,112.0,5,0.0,Stimuli\Blank.png,0,0,0,177,177,177,,,,,,,,,,,,,111.81376050000108,0.013760500001083642,None,146.99478209999506,146.99478209999506,146.99478209999506,146.99478209999506,146.99478209999506,146.99478209999506,146.99478209999506,146.99478209999506,,002,P018,2025_Mar_07_1833,CategoryLocalizer,2021.2.3,59.94711465490753,
112.0,112.8,1,0.75,Stimuli\ImageFiles-Set2\Objects\Object_Paper_00001.png,0,0,0,178,178,178,,,,,,,,,,,,,112.01566029999958,0.015660299999581184,None,147.21164419999695,147.21164419999695,147.21164419999695,147.21164419999695,147.21164419999695,147.21164419999695,147.21164419999695,147.21164419999695,,002,P018,2025_Mar_07_1833,CategoryLocalizer,2021.2.3,59.94711465490753,
112.8,113.0,5,0.0,Stimuli\Blank.png,0,0,0,179,179,179,,,,,,,,,,,,,112.81606569999713,0.016065699997128036,None,147.99564719999762,147.99564719999762,147.99564719999762,147.99564719999762,147.99564719999762,147.99564719999762,147.99564719999762,147.99564719999762,,002,P018,2025_Mar_07_1833,CategoryLocalizer,2021.2.3,59.94711465490753,
113.0,113.8,1,0.75,Stimuli\ImageFiles-Set2\Objects\Object_Jar_00001.png,0,0,0,180,180,180,,,,,,,,,,,,,112.99860569999873,-0.0013943000012659468,None,148.17915849999554,148.17915849999554,148.17915849999554,148.17915849999554,148.17915849999554,148.17915849999554,148.17915849999554,148.17915849999554,,002,P018,2025_Mar_07_1833,CategoryLocalizer,2021.2.3,59.94711465490753,
113.8,114.0,5,0.0,Stimuli\Blank.png,0,0,0,181,181,181,,,,,,,,,,,,,113.80034329999762,0.00034329999762405805,None,148.97987809999904,148.97987809999904,148.97987809999904,148.97987809999904,148.97987809999904,148.97987809999904,148.97987809999904,148.97987809999904,,002,P018,2025_Mar_07_1833,CategoryLocalizer,2021.2.3,59.94711465490753,
114.0,114.8,1,0.75,Stimuli\ImageFiles-Set2\Objects\Object_Truck_00001.png,0,0,0,182,182,182,,,,,,,,,,,,,113.99982669999736,-0.00017330000264337286,None,149.18001439999352,149.18001439999352,149.18001439999352,149.18001439999352,149.18001439999352,149.18001439999352,149.18001439999352,149.18001439999352,,002,P018,2025_Mar_07_1833,CategoryLocalizer,2021.2.3,59.94711465490753,
114.8,115.0,5,0.0,Stimuli\Blank.png,0,0,0,183,183,183,,,,,,,,,,,,,114.79978180000035,-0.0002181999996508921,None,149.98076649999712,149.98076649999712,149.98076649999712,149.98076649999712,149.98076649999712,149.98076649999712,149.98076649999712,149.98076649999712,,002,P018,2025_Mar_07_1833,CategoryLocalizer,2021.2.3,59.94711465490753,
115.0,115.8,1,0.75,Stimuli\ImageFiles-Set2\Objects\Object_Shoe_00001.png,0,0,0,184,184,184,,,,,,,,,,,,,115.00001730000076,1.7300000763498247e-05,None,150.1809451999943,150.1809451999943,150.1809451999943,150.1809451999943,150.1809451999943,150.1809451999943,150.1809451999943,150.1809451999943,,002,P018,2025_Mar_07_1833,CategoryLocalizer,2021.2.3,59.94711465490753,
115.8,116.0,5,0.0,Stimuli\Blank.png,0,0,0,185,185,185,,,,,,,,,,,,,115.80043950000254,0.00043950000254255883,None,150.98165139999765,150.98165139999765,150.98165139999765,150.98165139999765,150.98165139999765,150.98165139999765,150.98165139999765,150.98165139999765,,002,P018,2025_Mar_07_1833,CategoryLocalizer,2021.2.3,59.94711465490753,
116.0,116.8,1,0.75,Stimuli\ImageFiles-Set2\Objects\Object_WaterCooler_00001.png,0,0,0,186,186,186,,,,,,,,,,,,,116.00099549999868,0.000995499998680316,None,151.18177889999788,151.18177889999788,151.18177889999788,151.18177889999788,151.18177889999788,151.18177889999788,151.18177889999788,151.18177889999788,,002,P018,2025_Mar_07_1833,CategoryLocalizer,2021.2.3,59.94711465490753,
116.8,117.0,5,0.0,Stimuli\Blank.png,0,0,0,187,187,187,,,,,,,,,,,,,116.80139220000274,0.0013922000027406511,None,151.98250059999555,151.98250059999555,151.98250059999555,151.98250059999555,151.98250059999555,151.98250059999555,151.98250059999555,151.98250059999555,,002,P018,2025_Mar_07_1833,CategoryLocalizer,2021.2.3,59.94711465490753,
117.0,117.8,1,0.75,Stimuli\ImageFiles-Set2\Objects\Object_Tape_00001.png,1,1,0,188,188,188,,,,,,,,,,,,,117.0018121999965,0.0018121999964932911,None,152.18269679999503,152.18269679999503,152.18269679999503,152.18269679999503,152.18269679999503,152.18269679999503,152.18269679999503,152.18269679999503,,002,P018,2025_Mar_07_1833,CategoryLocalizer,2021.2.3,59.94711465490753,
117.8,118.0,5,0.0,Stimuli\Blank.png,0,0,0,189,189,189,,,,,,,,,,,,,117.80293489999895,0.0029348999989480262,None,152.98341879999498,152.98341879999498,152.98341879999498,152.98341879999498,152.98341879999498,152.98341879999498,152.98341879999498,152.98341879999498,,002,P018,2025_Mar_07_1833,CategoryLocalizer,2021.2.3,59.94711465490753,
118.0,118.8,1,0.75,Stimuli\ImageFiles-Set2\Objects\Object_Belt_00001.png,0,0,0,190,190,190,,,,,,,,,,,,,118.00352620000194,0.003526200001942925,None,153.1835934999981,153.1835934999981,153.1835934999981,153.1835934999981,153.1835934999981,153.1835934999981,153.1835934999981,153.1835934999981,,002,P018,2025_Mar_07_1833,CategoryLocalizer,2021.2.3,59.94711465490753,
118.8,119.0,5,0.0,Stimuli\Blank.png,0,0,0,191,191,191,,,,,,,,,,,,,118.80340820000129,0.0034082000012887192,None,153.98431069999788,153.98431069999788,153.98431069999788,153.98431069999788,153.98431069999788,153.98431069999788,153.98431069999788,153.98431069999788,,002,P018,2025_Mar_07_1833,CategoryLocalizer,2021.2.3,59.94711465490753,
119.0,119.8,1,0.75,Stimuli\ImageFiles-Set2\Objects\Object_Belt_00001.png,0,0,0,192,192,192,,,,,,,,,,,,,119.0038349000024,0.003834900002402719,2,154.18447119999473,154.18447119999473,154.18447119999473,154.18447119999473,154.18447119999473,154.18447119999473,154.18447119999473,154.18447119999473,0.4185966000004555,002,P018,2025_Mar_07_1833,CategoryLocalizer,2021.2.3,59.94711465490753,
119.8,120.0,5,0.0,Stimuli\Blank.png,0,0,0,193,193,193,,,,,,,,,,,,,119.80506559999776,0.00506559999776357,None,154.98518429999967,154.98518429999967,154.98518429999967,154.98518429999967,154.98518429999967,154.98518429999967,154.98518429999967,154.98518429999967,,002,P018,2025_Mar_07_1833,CategoryLocalizer,2021.2.3,59.94711465490753,
120.0,120.8,4,0.75,Stimuli\ImageFiles-Set2\Scenes\Scenes_086.png,0,0,0,194,194,194,,,,,,,,,,,,,120.00637969999661,0.006379699996614363,None,155.20212219999667,155.20212219999667,155.20212219999667,155.20212219999667,155.20212219999667,155.20212219999667,155.20212219999667,155.20212219999667,,002,P018,2025_Mar_07_1833,CategoryLocalizer,2021.2.3,59.94711465490753,
120.8,121.0,5,0.0,Stimuli\Blank.png,0,0,0,195,195,195,,,,,,,,,,,,,120.82252280000102,0.022522800001027576,None,156.0027415999939,156.0027415999939,156.0027415999939,156.0027415999939,156.0027415999939,156.0027415999939,156.0027415999939,156.0027415999939,,002,P018,2025_Mar_07_1833,CategoryLocalizer,2021.2.3,59.94711465490753,
121.0,121.8,4,0.75,Stimuli\ImageFiles-Set2\Scenes\Scenes_109.png,0,0,0,196,196,196,,,,,,,,,,,,,121.00564630000008,0.005646300000080373,None,156.20292449999397,156.20292449999397,156.20292449999397,156.20292449999397,156.20292449999397,156.20292449999397,156.20292449999397,156.20292449999397,,002,P018,2025_Mar_07_1833,CategoryLocalizer,2021.2.3,59.94711465490753,
121.8,122.0,5,0.0,Stimuli\Blank.png,0,0,0,197,197,197,,,,,,,,,,,,,121.82357249999768,0.02357249999768385,None,157.00467129999743,157.00467129999743,157.00467129999743,157.00467129999743,157.00467129999743,157.00467129999743,157.00467129999743,157.00467129999743,,002,P018,2025_Mar_07_1833,CategoryLocalizer,2021.2.3,59.94711465490753,
122.0,122.8,4,0.75,Stimuli\ImageFiles-Set2\Scenes\Scenes_096.png,0,0,0,198,198,198,,,,,,,,,,,,,122.00628719999804,0.006287199998041615,None,157.18717689999903,157.18717689999903,157.18717689999903,157.18717689999903,157.18717689999903,157.18717689999903,157.18717689999903,157.18717689999903,,002,P018,2025_Mar_07_1833,CategoryLocalizer,2021.2.3,59.94711465490753,
122.8,123.0,5,0.0,Stimuli\Blank.png,0,0,0,199,199,199,,,,,,,,,,,,,122.80743339999754,0.007433399997538004,None,157.98789929999475,157.98789929999475,157.98789929999475,157.98789929999475,157.98789929999475,157.98789929999475,157.98789929999475,157.98789929999475,,002,P018,2025_Mar_07_1833,CategoryLocalizer,2021.2.3,59.94711465490753,
123.0,123.8,4,0.75,Stimuli\ImageFiles-Set2\Scenes\Scenes_114.png,0,0,0,200,200,200,,,,,,,,,,,,,123.00687399999879,0.006873999998788349,None,158.1880075999943,158.1880075999943,158.1880075999943,158.1880075999943,158.1880075999943,158.1880075999943,158.1880075999943,158.1880075999943,,002,P018,2025_Mar_07_1833,CategoryLocalizer,2021.2.3,59.94711465490753,
123.8,124.0,5,0.0,Stimuli\Blank.png,0,0,0,201,201,201,,,,,,,,,,,,,123.80823560000135,0.008235600001356147,None,158.9887302999996,158.9887302999996,158.9887302999996,158.9887302999996,158.9887302999996,158.9887302999996,158.9887302999996,158.9887302999996,,002,P018,2025_Mar_07_1833,CategoryLocalizer,2021.2.3,59.94711465490753,
124.0,124.8,4,0.75,Stimuli\ImageFiles-Set2\Scenes\Scenes_092.png,0,0,0,202,202,202,,,,,,,,,,,,,124.00994820000051,0.009948200000508223,None,159.20558179999352,159.20558179999352,159.20558179999352,159.20558179999352,159.20558179999352,159.20558179999352,159.20558179999352,159.20558179999352,,002,P018,2025_Mar_07_1833,CategoryLocalizer,2021.2.3,59.94711465490753,
124.8,125.0,5,0.0,Stimuli\Blank.png,0,0,0,203,203,203,,,,,,,,,,,,,124.8267033000011,0.026703300001102548,None,160.02296849999402,160.02296849999402,160.02296849999402,160.02296849999402,160.02296849999402,160.02296849999402,160.02296849999402,160.02296849999402,,002,P018,2025_Mar_07_1833,CategoryLocalizer,2021.2.3,59.94711465490753,
125.0,125.8,4,0.75,Stimuli\ImageFiles-Set2\Scenes\Scenes_092.png,1,1,0,204,204,204,,,,,,,,,,,,,125.02587060000224,0.025870600002235733,2,160.22314899999765,160.22314899999765,160.22314899999765,160.22314899999765,160.22314899999765,160.22314899999765,160.22314899999765,160.22314899999765,0.40983350000169594,002,P018,2025_Mar_07_1833,CategoryLocalizer,2021.2.3,59.94711465490753,
125.8,126.0,5,0.0,Stimuli\Blank.png,0,0,0,205,205,205,,,,,,,,,,,,,125.82610759999807,0.02610759999807044,None,161.00717520000035,161.00717520000035,161.00717520000035,161.00717520000035,161.00717520000035,161.00717520000035,161.00717520000035,161.00717520000035,,002,P018,2025_Mar_07_1833,CategoryLocalizer,2021.2.3,59.94711465490753,
126.0,126.8,4,0.75,Stimuli\ImageFiles-Set2\Scenes\Scenes_082.png,0,0,0,206,206,206,,,,,,,,,,,,,126.00995669999975,0.009956699999747798,None,161.20736199999374,161.20736199999374,161.20736199999374,161.20736199999374,161.20736199999374,161.20736199999374,161.20736199999374,161.20736199999374,,002,P018,2025_Mar_07_1833,CategoryLocalizer,2021.2.3,59.94711465490753,
126.8,127.0,5,0.0,Stimuli\Blank.png,0,0,0,207,207,207,,,,,,,,,,,,,126.8268207000001,0.026820700000101283,None,162.0080497999952,162.0080497999952,162.0080497999952,162.0080497999952,162.0080497999952,162.0080497999952,162.0080497999952,162.0080497999952,,002,P018,2025_Mar_07_1833,CategoryLocalizer,2021.2.3,59.94711465490753,
127.0,127.8,4,0.75,Stimuli\ImageFiles-Set2\Scenes\Scenes_099.png,0,0,0,208,208,208,,,,,,,,,,,,,127.01119939999626,0.011199399996257853,None,162.20826629999647,162.20826629999647,162.20826629999647,162.20826629999647,162.20826629999647,162.20826629999647,162.20826629999647,162.20826629999647,,002,P018,2025_Mar_07_1833,CategoryLocalizer,2021.2.3,59.94711465490753,
127.8,128.0,5,0.0,Stimuli\Blank.png,0,0,0,209,209,209,,,,,,,,,,,,,127.82914200000232,0.029142000002323698,None,163.0089527999953,163.0089527999953,163.0089527999953,163.0089527999953,163.0089527999953,163.0089527999953,163.0089527999953,163.0089527999953,,002,P018,2025_Mar_07_1833,CategoryLocalizer,2021.2.3,59.94711465490753,
128.0,128.8,4,0.75,Stimuli\ImageFiles-Set2\Scenes\Scenes_079.png,0,0,0,210,210,210,,,,,,,,,,,,,128.01130209999974,0.011302099999738857,None,163.19239109999762,163.19239109999762,163.19239109999762,163.19239109999762,163.19239109999762,163.19239109999762,163.19239109999762,163.19239109999762,,002,P018,2025_Mar_07_1833,CategoryLocalizer,2021.2.3,59.94711465490753,
128.8,129.0,5,0.0,Stimuli\Blank.png,0,0,0,211,211,211,,,,,,,,,,,,,128.8145682999966,0.014568299996597034,None,164.00985369999398,164.00985369999398,164.00985369999398,164.00985369999398,164.00985369999398,164.00985369999398,164.00985369999398,164.00985369999398,,002,P018,2025_Mar_07_1833,CategoryLocalizer,2021.2.3,59.94711465490753,
129.0,129.8,4,0.75,Stimuli\ImageFiles-Set2\Scenes\Scenes_094.png,0,0,0,212,212,212,,,,,,,,,,,,,129.0294842000003,0.029484200000297278,None,164.2267095999996,164.2267095999996,164.2267095999996,164.2267095999996,164.2267095999996,164.2267095999996,164.2267095999996,164.2267095999996,,002,P018,2025_Mar_07_1833,CategoryLocalizer,2021.2.3,59.94711465490753,
129.8,130.0,5,0.0,Stimuli\Blank.png,0,0,0,213,213,213,,,,,,,,,,,,,129.83056919999945,0.03056919999943375,None,165.01071409999713,165.01071409999713,165.01071409999713,165.01071409999713,165.01071409999713,165.01071409999713,165.01071409999713,165.01071409999713,,002,P018,2025_Mar_07_1833,CategoryLocalizer,2021.2.3,59.94711465490753,
130.0,130.8,4,0.75,Stimuli\ImageFiles-Set2\Scenes\Scenes_118.png,0,0,0,214,214,214,,,,,,,,,,,,,130.0137220999968,0.013722099996812176,None,165.19419919999928,165.19419919999928,165.19419919999928,165.19419919999928,165.19419919999928,165.19419919999928,165.19419919999928,165.19419919999928,,002,P018,2025_Mar_07_1833,CategoryLocalizer,2021.2.3,59.94711465490753,
130.8,131.0,5,0.0,Stimuli\Blank.png,0,0,0,215,215,215,,,,,,,,,,,,,130.8151304999992,0.01513049999920213,None,165.99493229999644,165.99493229999644,165.99493229999644,165.99493229999644,165.99493229999644,165.99493229999644,165.99493229999644,165.99493229999644,,002,P018,2025_Mar_07_1833,CategoryLocalizer,2021.2.3,59.94711465490753,
131.0,131.8,4,0.75,Stimuli\ImageFiles-Set2\Scenes\Scenes_078.png,0,0,0,216,216,216,,,,,,,,,,,,,131.01541279999947,0.015412799999467097,None,166.21176459999697,166.21176459999697,166.21176459999697,166.21176459999697,166.21176459999697,166.21176459999697,166.21176459999697,166.21176459999697,,002,P018,2025_Mar_07_1833,CategoryLocalizer,2021.2.3,59.94711465490753,
131.8,132.0,5,0.0,Stimuli\Blank.png,0,0,0,217,217,217,,,,,,,,,,,,,131.8154740999962,0.01547409999619731,None,166.995797399999,166.995797399999,166.995797399999,166.995797399999,166.995797399999,166.995797399999,166.995797399999,166.995797399999,,002,P018,2025_Mar_07_1833,CategoryLocalizer,2021.2.3,59.94711465490753,
132.0,132.8,4,0.75,Stimuli\ImageFiles-Set2\Scenes\Scenes_065.png,0,0,0,218,218,218,,,,,,,,,,,,,132.01538640000217,0.015386400002171285,None,167.21268439999403,167.21268439999403,167.21268439999403,167.21268439999403,167.21268439999403,167.21268439999403,167.21268439999403,167.21268439999403,,002,P018,2025_Mar_07_1833,CategoryLocalizer,2021.2.3,59.94711465490753,
132.8,133.0,5,0.0,Stimuli\Blank.png,0,0,0,219,219,219,,,,,,,,,,,,,132.8163280000008,0.01632800000078305,None,167.9966773999986,167.9966773999986,167.9966773999986,167.9966773999986,167.9966773999986,167.9966773999986,167.9966773999986,167.9966773999986,,002,P018,2025_Mar_07_1833,CategoryLocalizer,2021.2.3,59.94711465490753,
133.0,133.8,4,0.75,Stimuli\ImageFiles-Set2\Scenes\Scenes_116.png,0,0,0,220,220,220,,,,,,,,,,,,,132.9996570000003,-0.00034299999970244244,None,168.19686059999367,168.19686059999367,168.19686059999367,168.19686059999367,168.19686059999367,168.19686059999367,168.19686059999367,168.19686059999367,,002,P018,2025_Mar_07_1833,CategoryLocalizer,2021.2.3,59.94711465490753,
133.8,134.0,5,0.0,Stimuli\Blank.png,0,0,0,221,221,221,,,,,,,,,,,,,133.8166538000005,0.016653800000483443,None,168.9975689999992,168.9975689999992,168.9975689999992,168.9975689999992,168.9975689999992,168.9975689999992,168.9975689999992,168.9975689999992,,002,P018,2025_Mar_07_1833,CategoryLocalizer,2021.2.3,59.94711465490753,
134.0,134.8,4,0.75,Stimuli\ImageFiles-Set2\Scenes\Scenes_077.png,0,0,0,222,222,222,,,,,,,,,,,,,134.00219880000077,0.002198800000769552,None,169.1977024999942,169.1977024999942,169.1977024999942,169.1977024999942,169.1977024999942,169.1977024999942,169.1977024999942,169.1977024999942,,002,P018,2025_Mar_07_1833,CategoryLocalizer,2021.2.3,59.94711465490753,
134.8,135.0,5,0.0,Stimuli\Blank.png,0,0,0,223,223,223,,,,,,,,,,,,,134.81803419999778,0.01803419999777134,None,169.99846719999914,169.99846719999914,169.99846719999914,169.99846719999914,169.99846719999914,169.99846719999914,169.99846719999914,169.99846719999914,,002,P018,2025_Mar_07_1833,CategoryLocalizer,2021.2.3,59.94711465490753,
135.0,135.8,4,0.75,Stimuli\ImageFiles-Set2\Scenes\Scenes_113.png,0,0,0,224,224,224,,,,,,,,,,,,,135.00086899999587,0.0008689999958733097,None,170.18194209999638,170.18194209999638,170.18194209999638,170.18194209999638,170.18194209999638,170.18194209999638,170.18194209999638,170.18194209999638,,002,P018,2025_Mar_07_1833,CategoryLocalizer,2021.2.3,59.94711465490753,
135.8,136.0,5,0.0,Stimuli\Blank.png,0,0,0,225,225,225,,,,,,,,,,,,,135.80158919999667,0.001589199996658408,None,170.982666099997,170.982666099997,170.982666099997,170.982666099997,170.982666099997,170.982666099997,170.982666099997,170.982666099997,,002,P018,2025_Mar_07_1833,CategoryLocalizer,2021.2.3,59.94711465490753,
136.0,136.8,2,0.75,Stimuli\ImageFiles-Set2\Bodies\Bodies_Pushing_00006.png,0,0,0,226,226,226,,,,,,,,,,,,,136.0023979999969,0.00239799999690149,None,171.18278859999555,171.18278859999555,171.18278859999555,171.18278859999555,171.18278859999555,171.18278859999555,171.18278859999555,171.18278859999555,,002,P018,2025_Mar_07_1833,CategoryLocalizer,2021.2.3,59.94711465490753,
136.8,137.0,5,0.0,Stimuli\Blank.png,0,0,0,227,227,227,,,,,,,,,,,,,136.80531489999703,0.005314899997017619,None,172.00023159999546,172.00023159999546,172.00023159999546,172.00023159999546,172.00023159999546,172.00023159999546,172.00023159999546,172.00023159999546,,002,P018,2025_Mar_07_1833,CategoryLocalizer,2021.2.3,59.94711465490753,
137.0,137.8,2,0.75,Stimuli\ImageFiles-Set2\Bodies\Bodies_Falling_00001.png,0,0,0,228,228,228,,,,,,,,,,,,,137.01935180000146,0.019351800001459196,None,172.2004478999952,172.2004478999952,172.2004478999952,172.2004478999952,172.2004478999952,172.2004478999952,172.2004478999952,172.2004478999952,,002,P018,2025_Mar_07_1833,CategoryLocalizer,2021.2.3,59.94711465490753,
137.8,138.0,5,0.0,Stimuli\Blank.png,0,0,0,229,229,229,,,,,,,,,,,,,137.8038271999976,0.003827199997601838,None,172.9844568999979,172.9844568999979,172.9844568999979,172.9844568999979,172.9844568999979,172.9844568999979,172.9844568999979,172.9844568999979,,002,P018,2025_Mar_07_1833,CategoryLocalizer,2021.2.3,59.94711465490753,
138.0,138.8,2,0.75,Stimuli\ImageFiles-Set2\Bodies\Bodies_PushUp_00001.png,0,0,0,230,230,230,,,,,,,,,,,,,138.00595449999673,0.00595449999673292,None,173.2012911999991,173.2012911999991,173.2012911999991,173.2012911999991,173.2012911999991,173.2012911999991,173.2012911999991,173.2012911999991,,002,P018,2025_Mar_07_1833,CategoryLocalizer,2021.2.3,59.94711465490753,
138.8,139.0,5,0.0,Stimuli\Blank.png,0,0,0,231,231,231,,,,,,,,,,,,,138.8214214999971,0.02142149999707499,None,174.00199330000032,174.00199330000032,174.00199330000032,174.00199330000032,174.00199330000032,174.00199330000032,174.00199330000032,174.00199330000032,,002,P018,2025_Mar_07_1833,CategoryLocalizer,2021.2.3,59.94711465490753,
139.0,139.8,2,0.75,Stimuli\ImageFiles-Set2\Bodies\Bodies_Kicking_00001.png,0,0,0,232,232,232,,,,,,,,,,,,,139.00552140000218,0.005521400002180599,None,174.20220049999625,174.20220049999625,174.20220049999625,174.20220049999625,174.20220049999625,174.20220049999625,174.20220049999625,174.20220049999625,,002,P018,2025_Mar_07_1833,CategoryLocalizer,2021.2.3,59.94711465490753,
139.8,140.0,5,0.0,Stimuli\Blank.png,0,0,0,233,233,233,,,,,,,,,,,,,139.82174259999738,0.02174259999736705,None,175.00287799999933,175.00287799999933,175.00287799999933,175.00287799999933,175.00287799999933,175.00287799999933,175.00287799999933,175.00287799999933,,002,P018,2025_Mar_07_1833,CategoryLocalizer,2021.2.3,59.94711465490753,
140.0,140.8,2,0.75,Stimuli\ImageFiles-Set2\Bodies\Bodies_Walking_00001.png,0,0,0,234,234,234,,,,,,,,,,,,,140.00536619999912,0.005366199999116361,None,175.1863327999963,175.1863327999963,175.1863327999963,175.1863327999963,175.1863327999963,175.1863327999963,175.1863327999963,175.1863327999963,,002,P018,2025_Mar_07_1833,CategoryLocalizer,2021.2.3,59.94711465490753,
140.8,141.0,5,0.0,Stimuli\Blank.png,0,0,0,235,235,235,,,,,,,,,,,,,140.8061693999989,0.006169399998896097,None,175.98707449999347,175.98707449999347,175.98707449999347,175.98707449999347,175.98707449999347,175.98707449999347,175.98707449999347,175.98707449999347,,002,P018,2025_Mar_07_1833,CategoryLocalizer,2021.2.3,59.94711465490753,
141.0,141.8,2,0.75,Stimuli\ImageFiles-Set2\Bodies\Bodies_DownwardDog_00004.png,0,0,0,236,236,236,,,,,,,,,,,,,141.00665550000122,0.006655500001215842,None,176.2039586999963,176.2039586999963,176.2039586999963,176.2039586999963,176.2039586999963,176.2039586999963,176.2039586999963,176.2039586999963,,002,P018,2025_Mar_07_1833,CategoryLocalizer,2021.2.3,59.94711465490753,
141.8,142.0,5,0.0,Stimuli\Blank.png,0,0,0,237,237,237,,,,,,,,,,,,,141.8252128000022,0.025212800002179847,None,177.02133189999586,177.02133189999586,177.02133189999586,177.02133189999586,177.02133189999586,177.02133189999586,177.02133189999586,177.02133189999586,,002,P018,2025_Mar_07_1833,CategoryLocalizer,2021.2.3,59.94711465490753,
142.0,142.8,2,0.75,Stimuli\ImageFiles-Set2\Bodies\Bodies_CobraPose_00007.png,0,0,0,238,238,238,,,,,,,,,,,,,142.02422900000238,0.024229000002378598,None,177.2048108999952,177.2048108999952,177.2048108999952,177.2048108999952,177.2048108999952,177.2048108999952,177.2048108999952,177.2048108999952,,002,P018,2025_Mar_07_1833,CategoryLocalizer,2021.2.3,59.94711465490753,
142.8,143.0,5,0.0,Stimuli\Blank.png,0,0,0,239,239,239,,,,,,,,,,,,,142.80933650000225,0.009336500002234516,None,177.98885779999546,177.98885779999546,177.98885779999546,177.98885779999546,177.98885779999546,177.98885779999546,177.98885779999546,177.98885779999546,,002,P018,2025_Mar_07_1833,CategoryLocalizer,2021.2.3,59.94711465490753,
143.0,143.8,2,0.75,Stimuli\ImageFiles-Set2\Bodies\Bodies_CobraPose_00007.png,1,1,0,240,240,240,,,,,,,,,,,,,143.00913469999796,0.009134699997957796,2,178.1890304999979,178.1890304999979,178.1890304999979,178.1890304999979,178.1890304999979,178.1890304999979,178.1890304999979,178.1890304999979,0.3862423000027775,002,P018,2025_Mar_07_1833,CategoryLocalizer,2021.2.3,59.94711465490753,
143.8,144.0,5,0.0,Stimuli\Blank.png,0,0,0,241,241,241,,,,,,,,,,,,,143.80940150000242,0.009401500002411467,None,178.98973119999573,178.98973119999573,178.98973119999573,178.98973119999573,178.98973119999573,178.98973119999573,178.98973119999573,178.98973119999573,,002,P018,2025_Mar_07_1833,CategoryLocalizer,2021.2.3,59.94711465490753,
144.0,144.8,2,0.75,Stimuli\ImageFiles-Set2\Bodies\Bodies_Crawling_00002.png,0,0,0,242,242,242,,,,,,,,,,,,,144.00931409999612,0.009314099996117875,None,179.1899071999942,179.1899071999942,179.1899071999942,179.1899071999942,179.1899071999942,179.1899071999942,179.1899071999942,179.1899071999942,,002,P018,2025_Mar_07_1833,CategoryLocalizer,2021.2.3,59.94711465490753,
144.8,145.0,5,0.0,Stimuli\Blank.png,0,0,0,243,243,243,,,,,,,,,,,,,144.80956370000058,0.009563700000569497,None,179.99062379999668,179.99062379999668,179.99062379999668,179.99062379999668,179.99062379999668,179.99062379999668,179.99062379999668,179.99062379999668,,002,P018,2025_Mar_07_1833,CategoryLocalizer,2021.2.3,59.94711465490753,
145.0,145.8,2,0.75,Stimuli\ImageFiles-Set2\Bodies\Bodies_Punching_00007.png,0,0,0,244,244,244,,,,,,,,,,,,,145.01028699999733,0.010286999997333623,None,180.19080759999633,180.19080759999633,180.19080759999633,180.19080759999633,180.19080759999633,180.19080759999633,180.19080759999633,180.19080759999633,,002,P018,2025_Mar_07_1833,CategoryLocalizer,2021.2.3,59.94711465490753,
145.8,146.0,5,0.0,Stimuli\Blank.png,0,0,0,245,245,245,,,,,,,,,,,,,145.8109087999983,0.010908799998276208,None,180.9914959999951,180.9914959999951,180.9914959999951,180.9914959999951,180.9914959999951,180.9914959999951,180.9914959999951,180.9914959999951,,002,P018,2025_Mar_07_1833,CategoryLocalizer,2021.2.3,59.94711465490753,
146.0,146.8,2,0.75,Stimuli\ImageFiles-Set2\Bodies\Bodies_SittingFloor_00004.png,0,0,0,246,246,246,,,,,,,,,,,,,146.0112128999972,0.011212899997190107,None,181.20838029999868,181.20838029999868,181.20838029999868,181.20838029999868,181.20838029999868,181.20838029999868,181.20838029999868,181.20838029999868,,002,P018,2025_Mar_07_1833,CategoryLocalizer,2021.2.3,59.94711465490753,
146.8,147.0,5,0.0,Stimuli\Blank.png,0,0,0,247,247,247,,,,,,,,,,,,,146.82980569999927,0.029805699999258195,None,182.02575439999782,182.02575439999782,182.02575439999782,182.02575439999782,182.02575439999782,182.02575439999782,182.02575439999782,182.02575439999782,,002,P018,2025_Mar_07_1833,CategoryLocalizer,2021.2.3,59.94711465490753,
147.0,147.8,2,0.75,Stimuli\ImageFiles-Set2\Bodies\Bodies_Waving_00006.png,0,0,0,248,248,248,,,,,,,,,,,,,147.02986809999857,0.029868099998566322,None,182.22593019999476,182.22593019999476,182.22593019999476,182.22593019999476,182.22593019999476,182.22593019999476,182.22593019999476,182.22593019999476,,002,P018,2025_Mar_07_1833,CategoryLocalizer,2021.2.3,59.94711465490753,
147.8,148.0,5,0.0,Stimuli\Blank.png,0,0,0,249,249,249,,,,,,,,,,,,,147.82941230000142,0.02941230000141104,None,183.00996329999907,183.00996329999907,183.00996329999907,183.00996329999907,183.00996329999907,183.00996329999907,183.00996329999907,183.00996329999907,,002,P018,2025_Mar_07_1833,CategoryLocalizer,2021.2.3,59.94711465490753,
148.0,148.8,2,0.75,Stimuli\ImageFiles-Set2\Bodies\Bodies_Lunging_00006.png,0,0,0,250,250,250,,,,,,,,,,,,,148.01346889999695,0.013468899996951222,None,183.2101302999945,183.2101302999945,183.2101302999945,183.2101302999945,183.2101302999945,183.2101302999945,183.2101302999945,183.2101302999945,,002,P018,2025_Mar_07_1833,CategoryLocalizer,2021.2.3,59.94711465490753,
148.8,149.0,5,0.0,Stimuli\Blank.png,0,0,0,251,251,251,,,,,,,,,,,,,148.82970999999816,0.02970999999814694,None,184.01083590000053,184.01083590000053,184.01083590000053,184.01083590000053,184.01083590000053,184.01083590000053,184.01083590000053,184.01083590000053,,002,P018,2025_Mar_07_1833,CategoryLocalizer,2021.2.3,59.94711465490753,
149.0,149.8,2,0.75,Stimuli\ImageFiles-Set2\Bodies\Bodies_Waving_00004.png,0,0,0,252,252,252,,,,,,,,,,,,,149.01491559999704,0.014915599997038953,None,184.2110149999935,184.2110149999935,184.2110149999935,184.2110149999935,184.2110149999935,184.2110149999935,184.2110149999935,184.2110149999935,,002,P018,2025_Mar_07_1833,CategoryLocalizer,2021.2.3,59.94711465490753,
149.8,150.0,5,0.0,Stimuli\Blank.png,0,0,0,253,253,253,,,,,,,,,,,,,149.83135459999903,0.03135459999901968,None,185.01169719999598,185.01169719999598,185.01169719999598,185.01169719999598,185.01169719999598,185.01169719999598,185.01169719999598,185.01169719999598,,002,P018,2025_Mar_07_1833,CategoryLocalizer,2021.2.3,59.94711465490753,
150.0,150.8,2,0.75,Stimuli\ImageFiles-Set2\Bodies\Bodies_SittingChair_00002.png,0,0,0,254,254,254,,,,,,,,,,,,,150.0146692999988,0.0146692999987863,None,185.1952153999955,185.1952153999955,185.1952153999955,185.1952153999955,185.1952153999955,185.1952153999955,185.1952153999955,185.1952153999955,,002,P018,2025_Mar_07_1833,CategoryLocalizer,2021.2.3,59.94711465490753,
150.8,151.0,5,0.0,Stimuli\Blank.png,0,0,0,255,255,255,,,,,,,,,,,,,150.81573539999954,0.015735399999528,None,185.99593749999622,185.99593749999622,185.99593749999622,185.99593749999622,185.99593749999622,185.99593749999622,185.99593749999622,185.99593749999622,,002,P018,2025_Mar_07_1833,CategoryLocalizer,2021.2.3,59.94711465490753,
151.0,151.8,2,0.75,Stimuli\ImageFiles-Set2\Bodies\Bodies_SittingFloor_00002.png,0,0,0,256,256,256,,,,,,,,,,,,,151.00089570000273,0.0008957000027294271,None,186.19612409999536,186.19612409999536,186.19612409999536,186.19612409999536,186.19612409999536,186.19612409999536,186.19612409999536,186.19612409999536,,002,P018,2025_Mar_07_1833,CategoryLocalizer,2021.2.3,59.94711465490753,
151.8,152.0,5,0.0,Stimuli\Blank.png,0,0,0,257,257,257,,,,,,,,,,,,,151.81629879999673,0.01629879999671857,None,186.9968116999953,186.9968116999953,186.9968116999953,186.9968116999953,186.9968116999953,186.9968116999953,186.9968116999953,186.9968116999953,,002,P018,2025_Mar_07_1833,CategoryLocalizer,2021.2.3,59.94711465490753,
152.0,164.0,0,0.0,Stimuli\Blank.png,0,0,0,258,258,258,,,,,,,,,,,,,152.00064310000016,0.0006431000001612119,None,187.18028429999686,187.18028429999686,187.18028429999686,187.18028429999686,187.18028429999686,187.18028429999686,187.18028429999686,187.18028429999686,,002,P018,2025_Mar_07_1833,CategoryLocalizer,2021.2.3,59.94711465490753,
164.0,164.8,4,0.75,Stimuli\ImageFiles-Set2\Scenes\Scenes_069.png,0,0,0,259,259,259,,,,,,,,,,,,,164.0103020000024,0.01030200000241166,None,199.19091409999965,199.19091409999965,199.19091409999965,199.19091409999965,199.19091409999965,199.19091409999965,199.19091409999965,199.19091409999965,,002,P018,2025_Mar_07_1833,CategoryLocalizer,2021.2.3,59.94711465490753,
164.8,165.0,5,0.0,Stimuli\Blank.png,0,0,0,260,260,260,,,,,,,,,,,,,164.81115509999654,0.011155099996528861,None,199.99162879999494,199.99162879999494,199.99162879999494,199.99162879999494,199.99162879999494,199.99162879999494,199.99162879999494,199.99162879999494,,002,P018,2025_Mar_07_1833,CategoryLocalizer,2021.2.3,59.94711465490753,
165.0,165.8,4,0.75,Stimuli\ImageFiles-Set2\Scenes\Scenes_111.png,0,0,0,261,261,261,,,,,,,,,,,,,165.01131960000203,0.011319600002025254,None,200.2085070999965,200.2085070999965,200.2085070999965,200.2085070999965,200.2085070999965,200.2085070999965,200.2085070999965,200.2085070999965,,002,P018,2025_Mar_07_1833,CategoryLocalizer,2021.2.3,59.94711465490753,
165.8,166.0,5,0.0,Stimuli\Blank.png,0,0,0,262,262,262,,,,,,,,,,,,,165.83074379999744,0.03074379999742405,None,201.02588950000063,201.02588950000063,201.02588950000063,201.02588950000063,201.02588950000063,201.02588950000063,201.02588950000063,201.02588950000063,,002,P018,2025_Mar_07_1833,CategoryLocalizer,2021.2.3,59.94711465490753,
166.0,166.8,4,0.75,Stimuli\ImageFiles-Set2\Scenes\Scenes_061.png,0,0,0,263,263,263,,,,,,,,,,,,,166.03009899999597,0.0300989999959711,None,201.22605029999977,201.22605029999977,201.22605029999977,201.22605029999977,201.22605029999977,201.22605029999977,201.22605029999977,201.22605029999977,,002,P018,2025_Mar_07_1833,CategoryLocalizer,2021.2.3,59.94711465490753,
166.8,167.0,5,0.0,Stimuli\Blank.png,0,0,0,264,264,264,,,,,,,,,,,,,166.83084589999635,0.030845899996336357,None,202.02678329999617,202.02678329999617,202.02678329999617,202.02678329999617,202.02678329999617,202.02678329999617,202.02678329999617,202.02678329999617,,002,P018,2025_Mar_07_1833,CategoryLocalizer,2021.2.3,59.94711465490753,
167.0,167.8,4,0.75,Stimuli\ImageFiles-Set2\Scenes\Scenes_062.png,0,0,0,265,265,265,,,,,,,,,,,,,167.03063380000094,0.030633800000941847,None,202.22693349999463,202.22693349999463,202.22693349999463,202.22693349999463,202.22693349999463,202.22693349999463,202.22693349999463,202.22693349999463,,002,P018,2025_Mar_07_1833,CategoryLocalizer,2021.2.3,59.94711465490753,
167.8,168.0,5,0.0,Stimuli\Blank.png,0,0,0,266,266,266,,,,,,,,,,,,,167.83040800000163,0.030408000001614255,None,203.01096939999843,203.01096939999843,203.01096939999843,203.01096939999843,203.01096939999843,203.01096939999843,203.01096939999843,203.01096939999843,,002,P018,2025_Mar_07_1833,CategoryLocalizer,2021.2.3,59.94711465490753,
168.0,168.8,4,0.75,Stimuli\ImageFiles-Set2\Scenes\Scenes_110.png,0,0,0,267,267,267,,,,,,,,,,,,,168.01575179999782,0.015751799997815397,None,203.21115879999707,203.21115879999707,203.21115879999707,203.21115879999707,203.21115879999707,203.21115879999707,203.21115879999707,203.21115879999707,,002,P018,2025_Mar_07_1833,CategoryLocalizer,2021.2.3,59.94711465490753,
168.8,169.0,5,0.0,Stimuli\Blank.png,0,0,0,268,268,268,,,,,,,,,,,,,168.8149412999992,0.014941299999179591,None,203.9951665999979,203.9951665999979,203.9951665999979,203.9951665999979,203.9951665999979,203.9951665999979,203.9951665999979,203.9951665999979,,002,P018,2025_Mar_07_1833,CategoryLocalizer,2021.2.3,59.94711465490753,
169.0,169.8,4,0.75,Stimuli\ImageFiles-Set2\Scenes\Scenes_110.png,1,1,0,269,269,269,,,,,,,,,,,,,169.014723100001,0.014723100000992417,2,204.2119928999964,204.2119928999964,204.2119928999964,204.2119928999964,204.2119928999964,204.2119928999964,204.2119928999964,204.2119928999964,0.3582308999975794,002,P018,2025_Mar_07_1833,CategoryLocalizer,2021.2.3,59.94711465490753,
169.8,170.0,5,0.0,Stimuli\Blank.png,0,0,0,270,270,270,,,,,,,,,,,,,169.8324322999979,0.032432299997879,None,205.0127083999978,205.0127083999978,205.0127083999978,205.0127083999978,205.0127083999978,205.0127083999978,205.0127083999978,205.0127083999978,,002,P018,2025_Mar_07_1833,CategoryLocalizer,2021.2.3,59.94711465490753,
170.0,170.8,4,0.75,Stimuli\ImageFiles-Set2\Scenes\Scenes_073.png,0,0,0,271,271,271,,,,,,,,,,,,,170.0001512000017,0.0001512000017100945,None,205.19622659999732,205.19622659999732,205.19622659999732,205.19622659999732,205.19622659999732,205.19622659999732,205.19622659999732,205.19622659999732,,002,P018,2025_Mar_07_1833,CategoryLocalizer,2021.2.3,59.94711465490753,
170.8,171.0,5,0.0,Stimuli\Blank.png,0,0,0,272,272,272,,,,,,,,,,,,,170.8158018999966,0.015801899996574775,None,205.99691529999836,205.99691529999836,205.99691529999836,205.99691529999836,205.99691529999836,205.99691529999836,205.99691529999836,205.99691529999836,,002,P018,2025_Mar_07_1833,CategoryLocalizer,2021.2.3,59.94711465490753,
171.0,171.8,4,0.75,Stimuli\ImageFiles-Set2\Scenes\Scenes_098.png,0,0,0,273,273,273,,,,,,,,,,,,,170.99926450000203,-0.0007354999979725108,None,206.18042799999967,206.18042799999967,206.18042799999967,206.18042799999967,206.18042799999967,206.18042799999967,206.18042799999967,206.18042799999967,,002,P018,2025_Mar_07_1833,CategoryLocalizer,2021.2.3,59.94711465490753,
171.8,172.0,5,0.0,Stimuli\Blank.png,0,0,0,274,274,274,,,,,,,,,,,,,171.80151150000165,0.0015115000016407976,None,206.9978420999978,206.9978420999978,206.9978420999978,206.9978420999978,206.9978420999978,206.9978420999978,206.9978420999978,206.9978420999978,,002,P018,2025_Mar_07_1833,CategoryLocalizer,2021.2.3,59.94711465490753,
172.0,172.8,4,0.75,Stimuli\ImageFiles-Set2\Scenes\Scenes_080.png,0,0,0,275,275,275,,,,,,,,,,,,,172.0171188999957,0.017118899995693937,None,207.19800029999897,207.19800029999897,207.19800029999897,207.19800029999897,207.19800029999897,207.19800029999897,207.19800029999897,207.19800029999897,,002,P018,2025_Mar_07_1833,CategoryLocalizer,2021.2.3,59.94711465490753,
172.8,173.0,5,0.0,Stimuli\Blank.png,0,0,0,276,276,276,,,,,,,,,,,,,172.8007271999959,0.0007271999958788911,None,207.98201999999583,207.98201999999583,207.98201999999583,207.98201999999583,207.98201999999583,207.98201999999583,207.98201999999583,207.98201999999583,,002,P018,2025_Mar_07_1833,CategoryLocalizer,2021.2.3,59.94711465490753,
173.0,173.8,4,0.75,Stimuli\ImageFiles-Set2\Scenes\Scenes_119.png,1,1,0,277,277,277,,,,,,,,,,,,,173.0016883999997,0.0016883999996935017,None,208.18217469999945,208.18217469999945,208.18217469999945,208.18217469999945,208.18217469999945,208.18217469999945,208.18217469999945,208.18217469999945,,002,P018,2025_Mar_07_1833,CategoryLocalizer,2021.2.3,59.94711465490753,
173.8,174.0,5,0.0,Stimuli\Blank.png,0,0,0,278,278,278,,,,,,,,,,,,,173.8032794000028,0.0032794000027820402,None,208.98292509999737,208.98292509999737,208.98292509999737,208.98292509999737,208.98292509999737,208.98292509999737,208.98292509999737,208.98292509999737,,002,P018,2025_Mar_07_1833,CategoryLocalizer,2021.2.3,59.94711465490753,
174.0,174.8,4,0.75,Stimuli\ImageFiles-Set2\Scenes\Scenes_064.png,0,0,0,279,279,279,,,,,,,,,,,,,174.00328369999625,0.0032836999962455593,None,209.19978559999436,209.19978559999436,209.19978559999436,209.19978559999436,209.19978559999436,209.19978559999436,209.19978559999436,209.19978559999436,,002,P018,2025_Mar_07_1833,CategoryLocalizer,2021.2.3,59.94711465490753,
174.8,175.0,5,0.0,Stimuli\Blank.png,0,0,0,280,280,280,,,,,,,,,,,,,174.82068089999666,0.02068089999664835,None,210.0004736999981,210.0004736999981,210.0004736999981,210.0004736999981,210.0004736999981,210.0004736999981,210.0004736999981,210.0004736999981,,002,P018,2025_Mar_07_1833,CategoryLocalizer,2021.2.3,59.94711465490753,
175.0,175.8,4,0.75,Stimuli\ImageFiles-Set2\Scenes\Scenes_064.png,0,0,0,281,281,281,,,,,,,,,,,,,175.00458079999953,0.004580799999530427,2,210.20065889999387,210.20065889999387,210.20065889999387,210.20065889999387,210.20065889999387,210.20065889999387,210.20065889999387,210.20065889999387,0.5383399999991525,002,P018,2025_Mar_07_1833,CategoryLocalizer,2021.2.3,59.94711465490753,
175.8,176.0,5,0.0,Stimuli\Blank.png,0,0,0,282,282,282,,,,,,,,,,,,,175.8203590999983,0.0203590999983021,None,211.00135459999728,211.00135459999728,211.00135459999728,211.00135459999728,211.00135459999728,211.00135459999728,211.00135459999728,211.00135459999728,,002,P018,2025_Mar_07_1833,CategoryLocalizer,2021.2.3,59.94711465490753,
176.0,176.8,4,0.75,Stimuli\ImageFiles-Set2\Scenes\Scenes_103.png,0,0,0,283,283,283,,,,,,,,,,,,,176.00507020000077,0.005070200000773184,None,211.20153699999355,211.20153699999355,211.20153699999355,211.20153699999355,211.20153699999355,211.20153699999355,211.20153699999355,211.20153699999355,,002,P018,2025_Mar_07_1833,CategoryLocalizer,2021.2.3,59.94711465490753,
176.8,177.0,5,0.0,Stimuli\Blank.png,0,0,0,284,284,284,,,,,,,,,,,,,176.8211966000017,0.021196600001701427,None,212.00226829999883,212.00226829999883,212.00226829999883,212.00226829999883,212.00226829999883,212.00226829999883,212.00226829999883,212.00226829999883,,002,P018,2025_Mar_07_1833,CategoryLocalizer,2021.2.3,59.94711465490753,
177.0,177.8,4,0.75,Stimuli\ImageFiles-Set2\Scenes\Scenes_075.png,0,0,0,285,285,285,,,,,,,,,,,,,177.00559190000058,0.005591900000581518,None,212.2024192999961,212.2024192999961,212.2024192999961,212.2024192999961,212.2024192999961,212.2024192999961,212.2024192999961,212.2024192999961,,002,P018,2025_Mar_07_1833,CategoryLocalizer,2021.2.3,59.94711465490753,
