eventStartTime,eventEndTime,eventCond,imSize,imFile,repeatedImage,responseEvent,Events.thisRepN,Events.thisTrialN,Events.thisN,Events.thisIndex,Instructions.started,Instructions.stopped,participantReadyResponse.keys,participantReadyResponse.rt,participantReadyResponse.started,participantReadyResponse.stopped,startWaitforTrigger,triggerResponse.keys,triggerResponse.rt,triggerResponse.started,triggerResponse.stopped,globalTimer,actualStartTime,startTimingDiff,participantResponse.keys,participantResponse.started,participantResponse.stopped,image.started,image.stopped,fixationOutside.started,fixationOutside.stopped,fixationInside.started,fixationInside.stopped,participantResponse.rt,session,participant,date,expName,psychopyVersion,frameRate,
,,,,,,,,,,,11.513024300002144,None,2,8.37380259999918,11.513024300002144,None,,,,,,,,,,,,,,,,,,,001,P018,2025_Mar_07_1805,CategoryLocalizer,2021.2.3,59.939101871071834,
,,,,,,,,,,,,,,,,,19.89274970000406,5,14.89364840000053,19.906025100004626,None,,,,,,,,,,,,,,001,P018,2025_Mar_07_1805,CategoryLocalizer,2021.2.3,59.939101871071834,
0.0,12.0,0,0.0,Stimuli\Blank.png,0,0,0,0,0,0,,,,,,,,,,,,34.806500500002585,0.06483070000103908,0.06483070000103908,None,34.88587650000409,None,34.88587650000409,None,34.88587650000409,None,34.88587650000409,None,,001,P018,2025_Mar_07_1805,CategoryLocalizer,2021.2.3,59.939101871071834,
12.0,12.8,1,0.75,Stimuli\ImageFiles-Set1\Objects\Object_Pencil_00001.png,0,0,0,1,1,1,,,,,,,,,,,,,12.013946599996416,0.013946599996415898,None,46.846460200002184,46.846460200002184,46.846460200002184,46.846460200002184,46.846460200002184,46.846460200002184,46.846460200002184,46.846460200002184,,001,P018,2025_Mar_07_1805,CategoryLocalizer,2021.2.3,59.939101871071834,
12.8,13.0,5,0.0,Stimuli\Blank.png,0,0,0,2,2,2,,,,,,,,,,,,,12.826084199994511,0.026084199994510726,None,47.64716459999909,47.64716459999909,47.64716459999909,47.64716459999909,47.64716459999909,47.64716459999909,47.64716459999909,47.64716459999909,,001,P018,2025_Mar_07_1805,CategoryLocalizer,2021.2.3,59.939101871071834,
13.0,13.8,1,0.75,Stimuli\ImageFiles-Set1\Objects\Object_Key_00001.png,0,0,0,3,3,3,,,,,,,,,,,,,13.011222199995245,0.011222199995245319,None,47.847364900000684,47.847364900000684,47.847364900000684,47.847364900000684,47.847364900000684,47.847364900000684,47.847364900000684,47.847364900000684,,001,P018,2025_Mar_07_1805,CategoryLocalizer,2021.2.3,59.939101871071834,
13.8,14.0,5,0.0,Stimuli\Blank.png,0,0,0,4,4,4,,,,,,,,,,,,,13.82693499999732,0.02693499999731941,None,48.64804620000359,48.64804620000359,48.64804620000359,48.64804620000359,48.64804620000359,48.64804620000359,48.64804620000359,48.64804620000359,,001,P018,2025_Mar_07_1805,CategoryLocalizer,2021.2.3,59.939101871071834,
14.0,14.8,1,0.75,Stimuli\ImageFiles-Set1\Objects\Object_Recliner_00001.png,0,0,0,5,5,5,,,,,,,,,,,,,14.01107509999565,0.011075099995650817,None,48.83153570000286,48.83153570000286,48.83153570000286,48.83153570000286,48.83153570000286,48.83153570000286,48.83153570000286,48.83153570000286,,001,P018,2025_Mar_07_1805,CategoryLocalizer,2021.2.3,59.939101871071834,
14.8,15.0,5,0.0,Stimuli\Blank.png,0,0,0,6,6,6,,,,,,,,,,,,,14.811697899996943,0.011697899996942596,None,49.63225390000298,49.63225390000298,49.63225390000298,49.63225390000298,49.63225390000298,49.63225390000298,49.63225390000298,49.63225390000298,,001,P018,2025_Mar_07_1805,CategoryLocalizer,2021.2.3,59.939101871071834,
15.0,15.8,1,0.75,Stimuli\ImageFiles-Set1\Objects\Object_Locker_00001.png,0,0,0,7,7,7,,,,,,,,,,,,,15.011819299994386,0.011819299994385801,None,49.83243030000449,49.83243030000449,49.83243030000449,49.83243030000449,49.83243030000449,49.83243030000449,49.83243030000449,49.83243030000449,,001,P018,2025_Mar_07_1805,CategoryLocalizer,2021.2.3,59.939101871071834,
15.8,16.0,5,0.0,Stimuli\Blank.png,0,0,0,8,8,8,,,,,,,,,,,,,15.812438799999654,0.012438799999653583,None,50.633133000003,50.633133000003,50.633133000003,50.633133000003,50.633133000003,50.633133000003,50.633133000003,50.633133000003,,001,P018,2025_Mar_07_1805,CategoryLocalizer,2021.2.3,59.939101871071834,
16.0,16.8,1,0.75,Stimuli\ImageFiles-Set1\Objects\Object_Peanut_00001.png,0,0,0,9,9,9,,,,,,,,,,,,,16.012180999998236,0.012180999998236075,None,50.850063099998806,50.850063099998806,50.850063099998806,50.850063099998806,50.850063099998806,50.850063099998806,50.850063099998806,50.850063099998806,,001,P018,2025_Mar_07_1805,CategoryLocalizer,2021.2.3,59.939101871071834,
16.8,17.0,5,0.0,Stimuli\Blank.png,0,0,0,10,10,10,,,,,,,,,,,,,16.830231799998728,0.030231799998727382,None,51.65070350000315,51.65070350000315,51.65070350000315,51.65070350000315,51.65070350000315,51.65070350000315,51.65070350000315,51.65070350000315,,001,P018,2025_Mar_07_1805,CategoryLocalizer,2021.2.3,59.939101871071834,
17.0,17.8,1,0.75,Stimuli\ImageFiles-Set1\Objects\Object_Nightstand_00001.png,0,0,0,11,11,11,,,,,,,,,,,,,17.0158322999996,0.015832299999601673,None,51.85088689999975,51.85088689999975,51.85088689999975,51.85088689999975,51.85088689999975,51.85088689999975,51.85088689999975,51.85088689999975,,001,P018,2025_Mar_07_1805,CategoryLocalizer,2021.2.3,59.939101871071834,
17.8,18.0,5,0.0,Stimuli\Blank.png,0,0,0,12,12,12,,,,,,,,,,,,,17.81445829999575,0.014458299995748547,None,52.63492060000135,52.63492060000135,52.63492060000135,52.63492060000135,52.63492060000135,52.63492060000135,52.63492060000135,52.63492060000135,,001,P018,2025_Mar_07_1805,CategoryLocalizer,2021.2.3,59.939101871071834,
18.0,18.8,1,0.75,Stimuli\ImageFiles-Set1\Objects\Object_Nightstand_00001.png,1,1,0,13,13,13,,,,,,,,,,,,,18.014888699995936,0.014888699995935895,2,52.851791500004765,52.851791500004765,52.851791500004765,52.851791500004765,52.851791500004765,52.851791500004765,52.851791500004765,52.851791500004765,0.3062130000034813,001,P018,2025_Mar_07_1805,CategoryLocalizer,2021.2.3,59.939101871071834,
18.8,19.0,5,0.0,Stimuli\Blank.png,0,0,0,14,14,14,,,,,,,,,,,,,18.832075599995733,0.03207559999573206,None,53.652471699999296,53.652471699999296,53.652471699999296,53.652471699999296,53.652471699999296,53.652471699999296,53.652471699999296,53.652471699999296,,001,P018,2025_Mar_07_1805,CategoryLocalizer,2021.2.3,59.939101871071834,
19.0,19.8,1,0.75,Stimuli\ImageFiles-Set1\Objects\Object_Bottle_00001.png,0,0,0,15,15,15,,,,,,,,,,,,,19.015689799998654,0.015689799998654053,None,53.8359408000033,53.8359408000033,53.8359408000033,53.8359408000033,53.8359408000033,53.8359408000033,53.8359408000033,53.8359408000033,,001,P018,2025_Mar_07_1805,CategoryLocalizer,2021.2.3,59.939101871071834,
19.8,20.0,5,0.0,Stimuli\Blank.png,0,0,0,16,16,16,,,,,,,,,,,,,19.800205200001074,0.000205200001072825,None,54.62001610000152,54.62001610000152,54.62001610000152,54.62001610000152,54.62001610000152,54.62001610000152,54.62001610000152,54.62001610000152,,001,P018,2025_Mar_07_1805,CategoryLocalizer,2021.2.3,59.939101871071834,
20.0,20.8,1,0.75,Stimuli\ImageFiles-Set1\Objects\Object_Pizza_00001.png,0,0,0,17,17,17,,,,,,,,,,,,,20.000887099995452,0.000887099995452445,None,54.83685010000045,54.83685010000045,54.83685010000045,54.83685010000045,54.83685010000045,54.83685010000045,54.83685010000045,54.83685010000045,,001,P018,2025_Mar_07_1805,CategoryLocalizer,2021.2.3,59.939101871071834,
20.8,21.0,5,0.0,Stimuli\Blank.png,0,0,0,18,18,18,,,,,,,,,,,,,20.81645489999937,0.016454899999370554,None,55.63756220000505,55.63756220000505,55.63756220000505,55.63756220000505,55.63756220000505,55.63756220000505,55.63756220000505,55.63756220000505,,001,P018,2025_Mar_07_1805,CategoryLocalizer,2021.2.3,59.939101871071834,
21.0,21.8,1,0.75,Stimuli\ImageFiles-Set1\Objects\Object_Tool_00001.png,0,0,0,19,19,19,,,,,,,,,,,,,21.000689899999998,0.0006898999999975786,None,55.837743100004445,55.837743100004445,55.837743100004445,55.837743100004445,55.837743100004445,55.837743100004445,55.837743100004445,55.837743100004445,,001,P018,2025_Mar_07_1805,CategoryLocalizer,2021.2.3,59.939101871071834,
21.8,22.0,5,0.0,Stimuli\Blank.png,0,0,0,20,20,20,,,,,,,,,,,,,21.81815379999898,0.018153799998980702,None,56.638442399998894,56.638442399998894,56.638442399998894,56.638442399998894,56.638442399998894,56.638442399998894,56.638442399998894,56.638442399998894,,001,P018,2025_Mar_07_1805,CategoryLocalizer,2021.2.3,59.939101871071834,
22.0,22.8,1,0.75,Stimuli\ImageFiles-Set1\Objects\Object_FileFolder_00001.png,0,0,0,21,21,21,,,,,,,,,,,,,22.000713800000085,0.0007138000000850298,None,56.82190360000095,56.82190360000095,56.82190360000095,56.82190360000095,56.82190360000095,56.82190360000095,56.82190360000095,56.82190360000095,,001,P018,2025_Mar_07_1805,CategoryLocalizer,2021.2.3,59.939101871071834,
22.8,23.0,5,0.0,Stimuli\Blank.png,0,0,0,22,22,22,,,,,,,,,,,,,22.80142060000071,0.0014206000007099817,None,57.62261310000031,57.62261310000031,57.62261310000031,57.62261310000031,57.62261310000031,57.62261310000031,57.62261310000031,57.62261310000031,,001,P018,2025_Mar_07_1805,CategoryLocalizer,2021.2.3,59.939101871071834,
23.0,23.8,1,0.75,Stimuli\ImageFiles-Set1\Objects\Object_ComputerMouse_00001.png,0,0,0,23,23,23,,,,,,,,,,,,,23.002422699995805,0.002422699995804578,None,57.82281740000326,57.82281740000326,57.82281740000326,57.82281740000326,57.82281740000326,57.82281740000326,57.82281740000326,57.82281740000326,,001,P018,2025_Mar_07_1805,CategoryLocalizer,2021.2.3,59.939101871071834,
23.8,24.0,5,0.0,Stimuli\Blank.png,0,0,0,24,24,24,,,,,,,,,,,,,23.80365819999861,0.003658199998607614,None,58.62360610000178,58.62360610000178,58.62360610000178,58.62360610000178,58.62360610000178,58.62360610000178,58.62360610000178,58.62360610000178,,001,P018,2025_Mar_07_1805,CategoryLocalizer,2021.2.3,59.939101871071834,
24.0,24.8,1,0.75,Stimuli\ImageFiles-Set1\Objects\Object_Dryer_00001.png,0,0,0,25,25,25,,,,,,,,,,,,,24.003736200000276,0.0037362000002758577,None,58.840453400000115,58.840453400000115,58.840453400000115,58.840453400000115,58.840453400000115,58.840453400000115,58.840453400000115,58.840453400000115,,001,P018,2025_Mar_07_1805,CategoryLocalizer,2021.2.3,59.939101871071834,
24.8,25.0,5,0.0,Stimuli\Blank.png,0,0,0,26,26,26,,,,,,,,,,,,,24.820768599995063,0.020768599995061976,None,59.64112120000209,59.64112120000209,59.64112120000209,59.64112120000209,59.64112120000209,59.64112120000209,59.64112120000209,59.64112120000209,,001,P018,2025_Mar_07_1805,CategoryLocalizer,2021.2.3,59.939101871071834,
25.0,25.8,1,0.75,Stimuli\ImageFiles-Set1\Objects\Object_Shirt_00001.png,0,0,0,27,27,27,,,,,,,,,,,,,25.005362600000808,0.0053626000008080155,None,59.841271700002835,59.841271700002835,59.841271700002835,59.841271700002835,59.841271700002835,59.841271700002835,59.841271700002835,59.841271700002835,,001,P018,2025_Mar_07_1805,CategoryLocalizer,2021.2.3,59.939101871071834,
25.8,26.0,5,0.0,Stimuli\Blank.png,0,0,0,28,28,28,,,,,,,,,,,,,25.821574999994482,0.021574999994481203,None,60.64198570000008,60.64198570000008,60.64198570000008,60.64198570000008,60.64198570000008,60.64198570000008,60.64198570000008,60.64198570000008,,001,P018,2025_Mar_07_1805,CategoryLocalizer,2021.2.3,59.939101871071834,
26.0,26.8,1,0.75,Stimuli\ImageFiles-Set1\Objects\Object_Pipe_00001.png,0,0,0,29,29,29,,,,,,,,,,,,,26.005082499999844,0.0050824999998440035,None,60.82543480000459,60.82543480000459,60.82543480000459,60.82543480000459,60.82543480000459,60.82543480000459,60.82543480000459,60.82543480000459,,001,P018,2025_Mar_07_1805,CategoryLocalizer,2021.2.3,59.939101871071834,
26.8,27.0,5,0.0,Stimuli\Blank.png,0,0,0,30,30,30,,,,,,,,,,,,,26.806013299996266,0.006013299996265431,None,61.626144800000475,61.626144800000475,61.626144800000475,61.626144800000475,61.626144800000475,61.626144800000475,61.626144800000475,61.626144800000475,,001,P018,2025_Mar_07_1805,CategoryLocalizer,2021.2.3,59.939101871071834,
27.0,27.8,1,0.75,Stimuli\ImageFiles-Set1\Objects\Object_Bed_00001.png,0,0,0,31,31,31,,,,,,,,,,,,,27.005731299999752,0.005731299999752082,None,61.84307080000144,61.84307080000144,61.84307080000144,61.84307080000144,61.84307080000144,61.84307080000144,61.84307080000144,61.84307080000144,,001,P018,2025_Mar_07_1805,CategoryLocalizer,2021.2.3,59.939101871071834,
27.8,28.0,5,0.0,Stimuli\Blank.png,0,0,0,32,32,32,,,,,,,,,,,,,27.822660999998334,0.022660999998333153,None,62.64376830000401,62.64376830000401,62.64376830000401,62.64376830000401,62.64376830000401,62.64376830000401,62.64376830000401,62.64376830000401,,001,P018,2025_Mar_07_1805,CategoryLocalizer,2021.2.3,59.939101871071834,
28.0,28.8,2,0.75,Stimuli\ImageFiles-Set1\Bodies\Bodies_Standing_00001.png,0,0,0,33,33,33,,,,,,,,,,,,,28.00619490000099,0.006194900000991765,None,62.82721200000378,62.82721200000378,62.82721200000378,62.82721200000378,62.82721200000378,62.82721200000378,62.82721200000378,62.82721200000378,,001,P018,2025_Mar_07_1805,CategoryLocalizer,2021.2.3,59.939101871071834,
28.8,29.0,5,0.0,Stimuli\Blank.png,0,0,0,34,34,34,,,,,,,,,,,,,28.806699000000663,0.0066990000006619255,None,63.62795100000221,63.62795100000221,63.62795100000221,63.62795100000221,63.62795100000221,63.62795100000221,63.62795100000221,63.62795100000221,,001,P018,2025_Mar_07_1805,CategoryLocalizer,2021.2.3,59.939101871071834,
29.0,29.8,2,0.75,Stimuli\ImageFiles-Set1\Bodies\Bodies_Jumping_00002.png,0,0,0,35,35,35,,,,,,,,,,,,,29.007015399998636,0.007015399998635985,None,63.828129100002116,63.828129100002116,63.828129100002116,63.828129100002116,63.828129100002116,63.828129100002116,63.828129100002116,63.828129100002116,,001,P018,2025_Mar_07_1805,CategoryLocalizer,2021.2.3,59.939101871071834,
29.8,30.0,5,0.0,Stimuli\Blank.png,0,0,0,36,36,36,,,,,,,,,,,,,29.807809999998426,0.007809999998425354,None,64.62883259999944,64.62883259999944,64.62883259999944,64.62883259999944,64.62883259999944,64.62883259999944,64.62883259999944,64.62883259999944,,001,P018,2025_Mar_07_1805,CategoryLocalizer,2021.2.3,59.939101871071834,
30.0,30.8,2,0.75,Stimuli\ImageFiles-Set1\Bodies\Bodies_Pushing_00005.png,0,0,0,37,37,37,,,,,,,,,,,,,30.007966999997734,0.007966999997734092,None,64.82901449999918,64.82901449999918,64.82901449999918,64.82901449999918,64.82901449999918,64.82901449999918,64.82901449999918,64.82901449999918,,001,P018,2025_Mar_07_1805,CategoryLocalizer,2021.2.3,59.939101871071834,
30.8,31.0,5,0.0,Stimuli\Blank.png,0,0,0,38,38,38,,,,,,,,,,,,,30.811162699996203,0.011162699996202008,None,65.64642000000458,65.64642000000458,65.64642000000458,65.64642000000458,65.64642000000458,65.64642000000458,65.64642000000458,65.64642000000458,,001,P018,2025_Mar_07_1805,CategoryLocalizer,2021.2.3,59.939101871071834,
31.0,31.8,2,0.75,Stimuli\ImageFiles-Set1\Bodies\Bodies_DownwardDog_00003.png,0,0,0,39,39,39,,,,,,,,,,,,,31.02655059999961,0.026550599999609403,None,65.84658250000211,65.84658250000211,65.84658250000211,65.84658250000211,65.84658250000211,65.84658250000211,65.84658250000211,65.84658250000211,,001,P018,2025_Mar_07_1805,CategoryLocalizer,2021.2.3,59.939101871071834,
31.8,32.0,5,0.0,Stimuli\Blank.png,0,0,0,40,40,40,,,,,,,,,,,,,31.81078179999895,0.010781799998948571,None,66.63062460000219,66.63062460000219,66.63062460000219,66.63062460000219,66.63062460000219,66.63062460000219,66.63062460000219,66.63062460000219,,001,P018,2025_Mar_07_1805,CategoryLocalizer,2021.2.3,59.939101871071834,
32.0,32.8,2,0.75,Stimuli\ImageFiles-Set1\Bodies\Bodies_Kneeling_00007.png,0,0,0,41,41,41,,,,,,,,,,,,,32.0097151000009,0.009715100000903476,None,66.83077970000159,66.83077970000159,66.83077970000159,66.83077970000159,66.83077970000159,66.83077970000159,66.83077970000159,66.83077970000159,,001,P018,2025_Mar_07_1805,CategoryLocalizer,2021.2.3,59.939101871071834,
32.8,33.0,5,0.0,Stimuli\Blank.png,0,0,0,42,42,42,,,,,,,,,,,,,32.81150649999472,0.01150649999472364,None,67.631501200005,67.631501200005,67.631501200005,67.631501200005,67.631501200005,67.631501200005,67.631501200005,67.631501200005,,001,P018,2025_Mar_07_1805,CategoryLocalizer,2021.2.3,59.939101871071834,
33.0,33.8,2,0.75,Stimuli\ImageFiles-Set1\Bodies\Bodies_Kneeling_00007.png,1,1,0,43,43,43,,,,,,,,,,,,,33.01106389999768,0.011063899997679982,2,67.83170750000136,67.83170750000136,67.83170750000136,67.83170750000136,67.83170750000136,67.83170750000136,67.83170750000136,67.83170750000136,0.3101855999993859,001,P018,2025_Mar_07_1805,CategoryLocalizer,2021.2.3,59.939101871071834,
33.8,34.0,5,0.0,Stimuli\Blank.png,0,0,0,44,44,44,,,,,,,,,,,,,33.81173489999492,0.011734899994920056,None,68.63237980000122,68.63237980000122,68.63237980000122,68.63237980000122,68.63237980000122,68.63237980000122,68.63237980000122,68.63237980000122,,001,P018,2025_Mar_07_1805,CategoryLocalizer,2021.2.3,59.939101871071834,
34.0,34.8,2,0.75,Stimuli\ImageFiles-Set1\Bodies\Bodies_SittingFloor_00003.png,0,0,0,45,45,45,,,,,,,,,,,,,34.01208999999653,0.012089999996533152,None,68.84923790000175,68.84923790000175,68.84923790000175,68.84923790000175,68.84923790000175,68.84923790000175,68.84923790000175,68.84923790000175,,001,P018,2025_Mar_07_1805,CategoryLocalizer,2021.2.3,59.939101871071834,
34.8,35.0,5,0.0,Stimuli\Blank.png,0,0,0,46,46,46,,,,,,,,,,,,,34.83005759999651,0.030057599996510476,None,69.64995490000001,69.64995490000001,69.64995490000001,69.64995490000001,69.64995490000001,69.64995490000001,69.64995490000001,69.64995490000001,,001,P018,2025_Mar_07_1805,CategoryLocalizer,2021.2.3,59.939101871071834,
35.0,35.8,2,0.75,Stimuli\ImageFiles-Set1\Bodies\Bodies_Punching_00006.png,0,0,0,47,47,47,,,,,,,,,,,,,35.012223099998664,0.012223099998664111,None,69.83343099999911,69.83343099999911,69.83343099999911,69.83343099999911,69.83343099999911,69.83343099999911,69.83343099999911,69.83343099999911,,001,P018,2025_Mar_07_1805,CategoryLocalizer,2021.2.3,59.939101871071834,
35.8,36.0,5,0.0,Stimuli\Blank.png,0,0,0,48,48,48,,,,,,,,,,,,,35.81299049999507,0.012990499995069626,None,70.63414520000515,70.63414520000515,70.63414520000515,70.63414520000515,70.63414520000515,70.63414520000515,70.63414520000515,70.63414520000515,,001,P018,2025_Mar_07_1805,CategoryLocalizer,2021.2.3,59.939101871071834,
36.0,36.8,2,0.75,Stimuli\ImageFiles-Set1\Bodies\Bodies_Crawling_00006.png,0,0,0,49,49,49,,,,,,,,,,,,,36.014218899996195,0.014218899996194523,None,70.85103610000078,70.85103610000078,70.85103610000078,70.85103610000078,70.85103610000078,70.85103610000078,70.85103610000078,70.85103610000078,,001,P018,2025_Mar_07_1805,CategoryLocalizer,2021.2.3,59.939101871071834,
36.8,37.0,5,0.0,Stimuli\Blank.png,0,0,0,50,50,50,,,,,,,,,,,,,36.83167829999729,0.03167829999729577,None,71.6517301000058,71.6517301000058,71.6517301000058,71.6517301000058,71.6517301000058,71.6517301000058,71.6517301000058,71.6517301000058,,001,P018,2025_Mar_07_1805,CategoryLocalizer,2021.2.3,59.939101871071834,
37.0,37.8,2,0.75,Stimuli\ImageFiles-Set1\Bodies\Bodies_Jumping_00004.png,0,0,0,51,51,51,,,,,,,,,,,,,37.01584400000138,0.015844000001379754,None,71.8518966000047,71.8518966000047,71.8518966000047,71.8518966000047,71.8518966000047,71.8518966000047,71.8518966000047,71.8518966000047,,001,P018,2025_Mar_07_1805,CategoryLocalizer,2021.2.3,59.939101871071834,
37.8,38.0,5,0.0,Stimuli\Blank.png,0,0,0,52,52,52,,,,,,,,,,,,,37.815304700001434,0.0153047000014368,None,72.63593430000037,72.63593430000037,72.63593430000037,72.63593430000037,72.63593430000037,72.63593430000037,72.63593430000037,72.63593430000037,,001,P018,2025_Mar_07_1805,CategoryLocalizer,2021.2.3,59.939101871071834,
38.0,38.8,2,0.75,Stimuli\ImageFiles-Set1\Bodies\Bodies_Falling_00002.png,0,0,0,53,53,53,,,,,,,,,,,,,38.015975999995135,0.01597599999513477,None,72.83609599999909,72.83609599999909,72.83609599999909,72.83609599999909,72.83609599999909,72.83609599999909,72.83609599999909,72.83609599999909,,001,P018,2025_Mar_07_1805,CategoryLocalizer,2021.2.3,59.939101871071834,
38.8,39.0,5,0.0,Stimuli\Blank.png,0,0,0,54,54,54,,,,,,,,,,,,,38.80064929999935,0.0006492999993525927,None,73.63684740000463,73.63684740000463,73.63684740000463,73.63684740000463,73.63684740000463,73.63684740000463,73.63684740000463,73.63684740000463,,001,P018,2025_Mar_07_1805,CategoryLocalizer,2021.2.3,59.939101871071834,
39.0,39.8,2,0.75,Stimuli\ImageFiles-Set1\Bodies\Bodies_Walking_00004.png,0,0,0,55,55,55,,,,,,,,,,,,,39.015749099999084,0.015749099999084137,None,73.83697120000579,73.83697120000579,73.83697120000579,73.83697120000579,73.83697120000579,73.83697120000579,73.83697120000579,73.83697120000579,,001,P018,2025_Mar_07_1805,CategoryLocalizer,2021.2.3,59.939101871071834,
39.8,40.0,5,0.0,Stimuli\Blank.png,0,0,0,56,56,56,,,,,,,,,,,,,39.799856999998156,-0.0001430000018416422,None,74.62104779999936,74.62104779999936,74.62104779999936,74.62104779999936,74.62104779999936,74.62104779999936,74.62104779999936,74.62104779999936,,001,P018,2025_Mar_07_1805,CategoryLocalizer,2021.2.3,59.939101871071834,
40.0,40.8,2,0.75,Stimuli\ImageFiles-Set1\Bodies\Bodies_Falling_00006.png,0,0,0,57,57,57,,,,,,,,,,,,,40.00091160000011,0.0009116000001085922,None,74.82114810000348,74.82114810000348,74.82114810000348,74.82114810000348,74.82114810000348,74.82114810000348,74.82114810000348,74.82114810000348,,001,P018,2025_Mar_07_1805,CategoryLocalizer,2021.2.3,59.939101871071834,
40.8,41.0,5,0.0,Stimuli\Blank.png,0,0,0,58,58,58,,,,,,,,,,,,,40.80149420000089,0.0014942000008915102,None,75.6218674000047,75.6218674000047,75.6218674000047,75.6218674000047,75.6218674000047,75.6218674000047,75.6218674000047,75.6218674000047,,001,P018,2025_Mar_07_1805,CategoryLocalizer,2021.2.3,59.939101871071834,
41.0,41.8,2,0.75,Stimuli\ImageFiles-Set1\Bodies\Bodies_SittingStretch_00005.png,0,0,0,59,59,59,,,,,,,,,,,,,41.00135929999669,0.001359299996693153,None,75.8220683000036,75.8220683000036,75.8220683000036,75.8220683000036,75.8220683000036,75.8220683000036,75.8220683000036,75.8220683000036,,001,P018,2025_Mar_07_1805,CategoryLocalizer,2021.2.3,59.939101871071834,
41.8,42.0,5,0.0,Stimuli\Blank.png,0,0,0,60,60,60,,,,,,,,,,,,,41.80161450000014,0.0016145000001444032,None,76.62279120000312,76.62279120000312,76.62279120000312,76.62279120000312,76.62279120000312,76.62279120000312,76.62279120000312,76.62279120000312,,001,P018,2025_Mar_07_1805,CategoryLocalizer,2021.2.3,59.939101871071834,
42.0,42.8,2,0.75,Stimuli\ImageFiles-Set1\Bodies\Bodies_CobraPose_00003.png,0,0,0,61,61,61,,,,,,,,,,,,,42.002442999997584,0.0024429999975836836,None,76.82290240000293,76.82290240000293,76.82290240000293,76.82290240000293,76.82290240000293,76.82290240000293,76.82290240000293,76.82290240000293,,001,P018,2025_Mar_07_1805,CategoryLocalizer,2021.2.3,59.939101871071834,
42.8,43.0,5,0.0,Stimuli\Blank.png,0,0,0,62,62,62,,,,,,,,,,,,,42.80283409999538,0.002834099995382644,None,77.62365390000195,77.62365390000195,77.62365390000195,77.62365390000195,77.62365390000195,77.62365390000195,77.62365390000195,77.62365390000195,,001,P018,2025_Mar_07_1805,CategoryLocalizer,2021.2.3,59.939101871071834,
43.0,43.8,2,0.75,Stimuli\ImageFiles-Set1\Bodies\Bodies_Hanging_00006.png,0,0,0,63,63,63,,,,,,,,,,,,,43.002733699999226,0.0027336999992257915,None,77.82380019999982,77.82380019999982,77.82380019999982,77.82380019999982,77.82380019999982,77.82380019999982,77.82380019999982,77.82380019999982,,001,P018,2025_Mar_07_1805,CategoryLocalizer,2021.2.3,59.939101871071834,
43.8,44.0,5,0.0,Stimuli\Blank.png,0,0,0,64,64,64,,,,,,,,,,,,,43.80536339999526,0.00536339999526092,None,78.6412266000043,78.6412266000043,78.6412266000043,78.6412266000043,78.6412266000043,78.6412266000043,78.6412266000043,78.6412266000043,,001,P018,2025_Mar_07_1805,CategoryLocalizer,2021.2.3,59.939101871071834,
44.0,44.8,3,0.75,Stimuli\ImageFiles-Set1\Faces\Face_00113.png,0,0,0,65,65,65,,,,,,,,,,,,,44.02101259999472,0.021012599994719494,None,78.85810100000526,78.85810100000526,78.85810100000526,78.85810100000526,78.85810100000526,78.85810100000526,78.85810100000526,78.85810100000526,,001,P018,2025_Mar_07_1805,CategoryLocalizer,2021.2.3,59.939101871071834,
44.8,45.0,5,0.0,Stimuli\Blank.png,0,0,0,66,66,66,,,,,,,,,,,,,44.82148039999447,0.021480399994473487,None,79.6421130000017,79.6421130000017,79.6421130000017,79.6421130000017,79.6421130000017,79.6421130000017,79.6421130000017,79.6421130000017,,001,P018,2025_Mar_07_1805,CategoryLocalizer,2021.2.3,59.939101871071834,
45.0,45.8,3,0.75,Stimuli\ImageFiles-Set1\Faces\Face_00067.png,0,0,0,67,67,67,,,,,,,,,,,,,45.00437969999621,0.004379699996206909,None,79.82560129999911,79.82560129999911,79.82560129999911,79.82560129999911,79.82560129999911,79.82560129999911,79.82560129999911,79.82560129999911,,001,P018,2025_Mar_07_1805,CategoryLocalizer,2021.2.3,59.939101871071834,
45.8,46.0,5,0.0,Stimuli\Blank.png,0,0,0,68,68,68,,,,,,,,,,,,,45.80508130000089,0.005081300000895794,None,80.62630239999999,80.62630239999999,80.62630239999999,80.62630239999999,80.62630239999999,80.62630239999999,80.62630239999999,80.62630239999999,,001,P018,2025_Mar_07_1805,CategoryLocalizer,2021.2.3,59.939101871071834,
46.0,46.8,3,0.75,Stimuli\ImageFiles-Set1\Faces\Face_00067.png,1,1,0,69,69,69,,,,,,,,,,,,,46.006765899997845,0.006765899997844826,2,80.84319370000594,80.84319370000594,80.84319370000594,80.84319370000594,80.84319370000594,80.84319370000594,80.84319370000594,80.84319370000594,0.31351819999690633,001,P018,2025_Mar_07_1805,CategoryLocalizer,2021.2.3,59.939101871071834,
46.8,47.0,5,0.0,Stimuli\Blank.png,0,0,0,70,70,70,,,,,,,,,,,,,46.8227723999953,0.022772399995304227,None,81.6438788000014,81.6438788000014,81.6438788000014,81.6438788000014,81.6438788000014,81.6438788000014,81.6438788000014,81.6438788000014,,001,P018,2025_Mar_07_1805,CategoryLocalizer,2021.2.3,59.939101871071834,
47.0,47.8,3,0.75,Stimuli\ImageFiles-Set1\Faces\Face_00049.png,0,0,0,71,71,71,,,,,,,,,,,,,47.00619110000116,0.006191100001160521,None,81.84408619999886,81.84408619999886,81.84408619999886,81.84408619999886,81.84408619999886,81.84408619999886,81.84408619999886,81.84408619999886,,001,P018,2025_Mar_07_1805,CategoryLocalizer,2021.2.3,59.939101871071834,
47.8,48.0,5,0.0,Stimuli\Blank.png,0,0,0,72,72,72,,,,,,,,,,,,,47.82548059999681,0.025480599996811293,None,82.64478539999982,82.64478539999982,82.64478539999982,82.64478539999982,82.64478539999982,82.64478539999982,82.64478539999982,82.64478539999982,,001,P018,2025_Mar_07_1805,CategoryLocalizer,2021.2.3,59.939101871071834,
48.0,48.8,3,0.75,Stimuli\ImageFiles-Set1\Faces\Face_00087.png,0,0,0,73,73,73,,,,,,,,,,,,,48.007148299999244,0.0071482999992440455,None,82.84495679999964,82.84495679999964,82.84495679999964,82.84495679999964,82.84495679999964,82.84495679999964,82.84495679999964,82.84495679999964,,001,P018,2025_Mar_07_1805,CategoryLocalizer,2021.2.3,59.939101871071834,
48.8,49.0,5,0.0,Stimuli\Blank.png,0,0,0,74,74,74,,,,,,,,,,,,,48.82617780000146,0.02617780000146297,None,83.64566400000331,83.64566400000331,83.64566400000331,83.64566400000331,83.64566400000331,83.64566400000331,83.64566400000331,83.64566400000331,,001,P018,2025_Mar_07_1805,CategoryLocalizer,2021.2.3,59.939101871071834,
49.0,49.8,3,0.75,Stimuli\ImageFiles-Set1\Faces\Face_00095.png,0,0,0,75,75,75,,,,,,,,,,,,,49.01078949999646,0.010789499996462837,None,83.845831000006,83.845831000006,83.845831000006,83.845831000006,83.845831000006,83.845831000006,83.845831000006,83.845831000006,,001,P018,2025_Mar_07_1805,CategoryLocalizer,2021.2.3,59.939101871071834,
49.8,50.0,5,0.0,Stimuli\Blank.png,0,0,0,76,76,76,,,,,,,,,,,,,49.826215299995965,0.026215299995968167,None,84.64654330000485,84.64654330000485,84.64654330000485,84.64654330000485,84.64654330000485,84.64654330000485,84.64654330000485,84.64654330000485,,001,P018,2025_Mar_07_1805,CategoryLocalizer,2021.2.3,59.939101871071834,
50.0,50.8,3,0.75,Stimuli\ImageFiles-Set1\Faces\Face_00035.png,0,0,0,77,77,77,,,,,,,,,,,,,50.009760000000824,0.00976000000082422,None,84.8467152000012,84.8467152000012,84.8467152000012,84.8467152000012,84.8467152000012,84.8467152000012,84.8467152000012,84.8467152000012,,001,P018,2025_Mar_07_1805,CategoryLocalizer,2021.2.3,59.939101871071834,
50.8,51.0,5,0.0,Stimuli\Blank.png,0,0,0,78,78,78,,,,,,,,,,,,,50.82630000000063,0.026300000000631485,None,85.64741990000039,85.64741990000039,85.64741990000039,85.64741990000039,85.64741990000039,85.64741990000039,85.64741990000039,85.64741990000039,,001,P018,2025_Mar_07_1805,CategoryLocalizer,2021.2.3,59.939101871071834,
51.0,51.8,3,0.75,Stimuli\ImageFiles-Set1\Faces\Face_00107.png,0,0,0,79,79,79,,,,,,,,,,,,,51.010682199994335,0.010682199994334951,None,85.8476129000046,85.8476129000046,85.8476129000046,85.8476129000046,85.8476129000046,85.8476129000046,85.8476129000046,85.8476129000046,,001,P018,2025_Mar_07_1805,CategoryLocalizer,2021.2.3,59.939101871071834,
51.8,52.0,5,0.0,Stimuli\Blank.png,0,0,0,80,80,80,,,,,,,,,,,,,51.82800039999711,0.028000399997111458,None,86.64827800000057,86.64827800000057,86.64827800000057,86.64827800000057,86.64827800000057,86.64827800000057,86.64827800000057,86.64827800000057,,001,P018,2025_Mar_07_1805,CategoryLocalizer,2021.2.3,59.939101871071834,
52.0,52.8,3,0.75,Stimuli\ImageFiles-Set1\Faces\Face_00099.png,0,0,0,81,81,81,,,,,,,,,,,,,52.01093039999978,0.010930399999779183,None,86.83178950000001,86.83178950000001,86.83178950000001,86.83178950000001,86.83178950000001,86.83178950000001,86.83178950000001,86.83178950000001,,001,P018,2025_Mar_07_1805,CategoryLocalizer,2021.2.3,59.939101871071834,
52.8,53.0,5,0.0,Stimuli\Blank.png,0,0,0,82,82,82,,,,,,,,,,,,,52.811859299996286,0.011859299996288541,None,87.63251030000538,87.63251030000538,87.63251030000538,87.63251030000538,87.63251030000538,87.63251030000538,87.63251030000538,87.63251030000538,,001,P018,2025_Mar_07_1805,CategoryLocalizer,2021.2.3,59.939101871071834,
53.0,53.8,3,0.75,Stimuli\ImageFiles-Set1\Faces\Face_00117.png,1,1,0,83,83,83,,,,,,,,,,,,,53.01162369999656,0.011623699996562209,None,87.83267740000156,87.83267740000156,87.83267740000156,87.83267740000156,87.83267740000156,87.83267740000156,87.83267740000156,87.83267740000156,,001,P018,2025_Mar_07_1805,CategoryLocalizer,2021.2.3,59.939101871071834,
53.8,54.0,5,0.0,Stimuli\Blank.png,0,0,0,84,84,84,,,,,,,,,,,,,53.812149799996405,0.01214979999640775,None,88.6333683000048,88.6333683000048,88.6333683000048,88.6333683000048,88.6333683000048,88.6333683000048,88.6333683000048,88.6333683000048,,001,P018,2025_Mar_07_1805,CategoryLocalizer,2021.2.3,59.939101871071834,
54.0,54.8,3,0.75,Stimuli\ImageFiles-Set1\Faces\Face_00109.png,0,0,0,85,85,85,,,,,,,,,,,,,54.01296269999875,0.012962699998752214,None,88.83356030000141,88.83356030000141,88.83356030000141,88.83356030000141,88.83356030000141,88.83356030000141,88.83356030000141,88.83356030000141,,001,P018,2025_Mar_07_1805,CategoryLocalizer,2021.2.3,59.939101871071834,
54.8,55.0,5,0.0,Stimuli\Blank.png,0,0,0,86,86,86,,,,,,,,,,,,,54.81524250000075,0.015242500000752557,None,89.65098779999971,89.65098779999971,89.65098779999971,89.65098779999971,89.65098779999971,89.65098779999971,89.65098779999971,89.65098779999971,,001,P018,2025_Mar_07_1805,CategoryLocalizer,2021.2.3,59.939101871071834,
55.0,55.8,3,0.75,Stimuli\ImageFiles-Set1\Faces\Face_00109.png,0,0,0,87,87,87,,,,,,,,,,,,,55.03034359999583,0.030343599995831028,2,89.85112910000316,89.85112910000316,89.85112910000316,89.85112910000316,89.85112910000316,89.85112910000316,89.85112910000316,89.85112910000316,0.2817157999961637,001,P018,2025_Mar_07_1805,CategoryLocalizer,2021.2.3,59.939101871071834,
55.8,56.0,5,0.0,Stimuli\Blank.png,0,0,0,88,88,88,,,,,,,,,,,,,55.81598490000033,0.01598490000033337,None,90.65187210000295,90.65187210000295,90.65187210000295,90.65187210000295,90.65187210000295,90.65187210000295,90.65187210000295,90.65187210000295,,001,P018,2025_Mar_07_1805,CategoryLocalizer,2021.2.3,59.939101871071834,
56.0,56.8,3,0.75,Stimuli\ImageFiles-Set1\Faces\Face_00045.png,0,0,0,89,89,89,,,,,,,,,,,,,56.01662329999817,0.016623299998173025,None,90.85202350000327,90.85202350000327,90.85202350000327,90.85202350000327,90.85202350000327,90.85202350000327,90.85202350000327,90.85202350000327,,001,P018,2025_Mar_07_1805,CategoryLocalizer,2021.2.3,59.939101871071834,
56.8,57.0,5,0.0,Stimuli\Blank.png,0,0,0,90,90,90,,,,,,,,,,,,,56.815501599994604,0.015501599994607318,None,91.63604960000521,91.63604960000521,91.63604960000521,91.63604960000521,91.63604960000521,91.63604960000521,91.63604960000521,91.63604960000521,,001,P018,2025_Mar_07_1805,CategoryLocalizer,2021.2.3,59.939101871071834,
57.0,57.8,3,0.75,Stimuli\ImageFiles-Set1\Faces\Face_00007.png,0,0,0,91,91,91,,,,,,,,,,,,,57.00049279999803,0.0004927999980282038,None,91.8361889000007,91.8361889000007,91.8361889000007,91.8361889000007,91.8361889000007,91.8361889000007,91.8361889000007,91.8361889000007,,001,P018,2025_Mar_07_1805,CategoryLocalizer,2021.2.3,59.939101871071834,
57.8,58.0,5,0.0,Stimuli\Blank.png,0,0,0,92,92,92,,,,,,,,,,,,,57.81654729999718,0.016547299997185405,None,92.63694219999888,92.63694219999888,92.63694219999888,92.63694219999888,92.63694219999888,92.63694219999888,92.63694219999888,92.63694219999888,,001,P018,2025_Mar_07_1805,CategoryLocalizer,2021.2.3,59.939101871071834,
58.0,58.8,3,0.75,Stimuli\ImageFiles-Set1\Faces\Face_00057.png,0,0,0,93,93,93,,,,,,,,,,,,,58.00047959999938,0.00047959999938029796,None,92.83710419999989,92.83710419999989,92.83710419999989,92.83710419999989,92.83710419999989,92.83710419999989,92.83710419999989,92.83710419999989,,001,P018,2025_Mar_07_1805,CategoryLocalizer,2021.2.3,59.939101871071834,
58.8,59.0,5,0.0,Stimuli\Blank.png,0,0,0,94,94,94,,,,,,,,,,,,,58.81661879999592,0.01661879999592486,None,93.63781870000093,93.63781870000093,93.63781870000093,93.63781870000093,93.63781870000093,93.63781870000093,93.63781870000093,93.63781870000093,,001,P018,2025_Mar_07_1805,CategoryLocalizer,2021.2.3,59.939101871071834,
59.0,59.8,3,0.75,Stimuli\ImageFiles-Set1\Faces\Face_00018.png,0,0,0,95,95,95,,,,,,,,,,,,,59.00033650000114,0.00033650000113993883,None,93.82130550000147,93.82130550000147,93.82130550000147,93.82130550000147,93.82130550000147,93.82130550000147,93.82130550000147,93.82130550000147,,001,P018,2025_Mar_07_1805,CategoryLocalizer,2021.2.3,59.939101871071834,
59.8,60.0,5,0.0,Stimuli\Blank.png,0,0,0,96,96,96,,,,,,,,,,,,,59.8014977999992,0.0014977999991998558,None,94.62196280000353,94.62196280000353,94.62196280000353,94.62196280000353,94.62196280000353,94.62196280000353,94.62196280000353,94.62196280000353,,001,P018,2025_Mar_07_1805,CategoryLocalizer,2021.2.3,59.939101871071834,
60.0,60.8,4,0.75,Stimuli\ImageFiles-Set1\Scenes\Scenes_030.png,0,0,0,97,97,97,,,,,,,,,,,,,60.00164450000011,0.001644500000111293,None,94.83887659999891,94.83887659999891,94.83887659999891,94.83887659999891,94.83887659999891,94.83887659999891,94.83887659999891,94.83887659999891,,001,P018,2025_Mar_07_1805,CategoryLocalizer,2021.2.3,59.939101871071834,
60.8,61.0,5,0.0,Stimuli\Blank.png,0,0,0,98,98,98,,,,,,,,,,,,,60.81906859999435,0.019068599994355395,None,95.63959880000039,95.63959880000039,95.63959880000039,95.63959880000039,95.63959880000039,95.63959880000039,95.63959880000039,95.63959880000039,,001,P018,2025_Mar_07_1805,CategoryLocalizer,2021.2.3,59.939101871071834,
61.0,61.8,4,0.75,Stimuli\ImageFiles-Set1\Scenes\Scenes_033.png,0,0,0,99,99,99,,,,,,,,,,,,,61.002193599997554,0.0021935999975539744,None,95.82307640000363,95.82307640000363,95.82307640000363,95.82307640000363,95.82307640000363,95.82307640000363,95.82307640000363,95.82307640000363,,001,P018,2025_Mar_07_1805,CategoryLocalizer,2021.2.3,59.939101871071834,
61.8,62.0,5,0.0,Stimuli\Blank.png,0,0,0,100,100,100,,,,,,,,,,,,,61.803340300000855,0.00334030000085761,None,96.62378720000561,96.62378720000561,96.62378720000561,96.62378720000561,96.62378720000561,96.62378720000561,96.62378720000561,96.62378720000561,,001,P018,2025_Mar_07_1805,CategoryLocalizer,2021.2.3,59.939101871071834,
62.0,62.8,4,0.75,Stimuli\ImageFiles-Set1\Scenes\Scenes_011.png,0,0,0,101,101,101,,,,,,,,,,,,,62.00360119999823,0.0036011999982292764,None,96.84064870000293,96.84064870000293,96.84064870000293,96.84064870000293,96.84064870000293,96.84064870000293,96.84064870000293,96.84064870000293,,001,P018,2025_Mar_07_1805,CategoryLocalizer,2021.2.3,59.939101871071834,
62.8,63.0,5,0.0,Stimuli\Blank.png,0,0,0,102,102,102,,,,,,,,,,,,,62.821335499997076,0.021335499997078955,None,97.64135170000372,97.64135170000372,97.64135170000372,97.64135170000372,97.64135170000372,97.64135170000372,97.64135170000372,97.64135170000372,,001,P018,2025_Mar_07_1805,CategoryLocalizer,2021.2.3,59.939101871071834,
63.0,63.8,4,0.75,Stimuli\ImageFiles-Set1\Scenes\Scenes_011.png,1,1,0,103,103,103,,,,,,,,,,,,,63.005744900001446,0.005744900001445785,2,97.84153380000498,97.84153380000498,97.84153380000498,97.84153380000498,97.84153380000498,97.84153380000498,97.84153380000498,97.84153380000498,0.3083621999976458,001,P018,2025_Mar_07_1805,CategoryLocalizer,2021.2.3,59.939101871071834,
63.8,64.0,5,0.0,Stimuli\Blank.png,0,0,0,104,104,104,,,,,,,,,,,,,63.82119429999875,0.021194299998754218,None,98.64222970000264,98.64222970000264,98.64222970000264,98.64222970000264,98.64222970000264,98.64222970000264,98.64222970000264,98.64222970000264,,001,P018,2025_Mar_07_1805,CategoryLocalizer,2021.2.3,59.939101871071834,
64.0,64.8,4,0.75,Stimuli\ImageFiles-Set1\Scenes\Scenes_053.png,0,0,0,105,105,105,,,,,,,,,,,,,64.00475259999803,0.004752599998028018,None,98.82572849999997,98.82572849999997,98.82572849999997,98.82572849999997,98.82572849999997,98.82572849999997,98.82572849999997,98.82572849999997,,001,P018,2025_Mar_07_1805,CategoryLocalizer,2021.2.3,59.939101871071834,
64.8,65.0,5,0.0,Stimuli\Blank.png,0,0,0,106,106,106,,,,,,,,,,,,,64.80646909999632,0.00646909999632328,None,99.62643960000423,99.62643960000423,99.62643960000423,99.62643960000423,99.62643960000423,99.62643960000423,99.62643960000423,99.62643960000423,,001,P018,2025_Mar_07_1805,CategoryLocalizer,2021.2.3,59.939101871071834,
65.0,65.8,4,0.75,Stimuli\ImageFiles-Set1\Scenes\Scenes_019.png,0,0,0,107,107,107,,,,,,,,,,,,,65.00703200000135,0.0070320000013452955,None,99.84329670000443,99.84329670000443,99.84329670000443,99.84329670000443,99.84329670000443,99.84329670000443,99.84329670000443,99.84329670000443,,001,P018,2025_Mar_07_1805,CategoryLocalizer,2021.2.3,59.939101871071834,
65.8,66.0,5,0.0,Stimuli\Blank.png,0,0,0,108,108,108,,,,,,,,,,,,,65.82280019999598,0.02280019999598437,None,100.64401210000506,100.64401210000506,100.64401210000506,100.64401210000506,100.64401210000506,100.64401210000506,100.64401210000506,100.64401210000506,,001,P018,2025_Mar_07_1805,CategoryLocalizer,2021.2.3,59.939101871071834,
66.0,66.8,4,0.75,Stimuli\ImageFiles-Set1\Scenes\Scenes_044.png,0,0,0,109,109,109,,,,,,,,,,,,,66.00684689999616,0.006846899996162392,None,100.84417830000166,100.84417830000166,100.84417830000166,100.84417830000166,100.84417830000166,100.84417830000166,100.84417830000166,100.84417830000166,,001,P018,2025_Mar_07_1805,CategoryLocalizer,2021.2.3,59.939101871071834,
66.8,67.0,5,0.0,Stimuli\Blank.png,0,0,0,110,110,110,,,,,,,,,,,,,66.82643419999658,0.02643419999658647,None,101.66157799999928,101.66157799999928,101.66157799999928,101.66157799999928,101.66157799999928,101.66157799999928,101.66157799999928,101.66157799999928,,001,P018,2025_Mar_07_1805,CategoryLocalizer,2021.2.3,59.939101871071834,
67.0,67.8,4,0.75,Stimuli\ImageFiles-Set1\Scenes\Scenes_008.png,0,0,0,111,111,111,,,,,,,,,,,,,67.0256561999995,0.02565619999950286,None,101.86175419999927,101.86175419999927,101.86175419999927,101.86175419999927,101.86175419999927,101.86175419999927,101.86175419999927,101.86175419999927,,001,P018,2025_Mar_07_1805,CategoryLocalizer,2021.2.3,59.939101871071834,
67.8,68.0,5,0.0,Stimuli\Blank.png,0,0,0,112,112,112,,,,,,,,,,,,,67.82599199999822,0.02599199999822588,None,102.64578110000002,102.64578110000002,102.64578110000002,102.64578110000002,102.64578110000002,102.64578110000002,102.64578110000002,102.64578110000002,,001,P018,2025_Mar_07_1805,CategoryLocalizer,2021.2.3,59.939101871071834,
68.0,68.8,4,0.75,Stimuli\ImageFiles-Set1\Scenes\Scenes_035.png,0,0,0,113,113,113,,,,,,,,,,,,,68.00815909999801,0.008159099998010788,None,102.82926670000597,102.82926670000597,102.82926670000597,102.82926670000597,102.82926670000597,102.82926670000597,102.82926670000597,102.82926670000597,,001,P018,2025_Mar_07_1805,CategoryLocalizer,2021.2.3,59.939101871071834,
68.8,69.0,5,0.0,Stimuli\Blank.png,0,0,0,114,114,114,,,,,,,,,,,,,68.81054479999875,0.010544799998754684,None,103.64666950000537,103.64666950000537,103.64666950000537,103.64666950000537,103.64666950000537,103.64666950000537,103.64666950000537,103.64666950000537,,001,P018,2025_Mar_07_1805,CategoryLocalizer,2021.2.3,59.939101871071834,
69.0,69.8,4,0.75,Stimuli\ImageFiles-Set1\Scenes\Scenes_023.png,0,0,0,115,115,115,,,,,,,,,,,,,69.02660629999446,0.026606299994455185,None,103.86351230000582,103.86351230000582,103.86351230000582,103.86351230000582,103.86351230000582,103.86351230000582,103.86351230000582,103.86351230000582,,001,P018,2025_Mar_07_1805,CategoryLocalizer,2021.2.3,59.939101871071834,
69.8,70.0,5,0.0,Stimuli\Blank.png,0,0,0,116,116,116,,,,,,,,,,,,,69.82645290000073,0.026452900000734303,None,104.64754040000116,104.64754040000116,104.64754040000116,104.64754040000116,104.64754040000116,104.64754040000116,104.64754040000116,104.64754040000116,,001,P018,2025_Mar_07_1805,CategoryLocalizer,2021.2.3,59.939101871071834,
70.0,70.8,4,0.75,Stimuli\ImageFiles-Set1\Scenes\Scenes_020.png,0,0,0,117,117,117,,,,,,,,,,,,,70.0098674999972,0.009867499997199047,None,104.84774940000352,104.84774940000352,104.84774940000352,104.84774940000352,104.84774940000352,104.84774940000352,104.84774940000352,104.84774940000352,,001,P018,2025_Mar_07_1805,CategoryLocalizer,2021.2.3,59.939101871071834,
70.8,71.0,5,0.0,Stimuli\Blank.png,0,0,0,118,118,118,,,,,,,,,,,,,70.82830499999545,0.02830499999545566,None,105.64842520000093,105.64842520000093,105.64842520000093,105.64842520000093,105.64842520000093,105.64842520000093,105.64842520000093,105.64842520000093,,001,P018,2025_Mar_07_1805,CategoryLocalizer,2021.2.3,59.939101871071834,
71.0,71.8,4,0.75,Stimuli\ImageFiles-Set1\Scenes\Scenes_046.png,0,0,0,119,119,119,,,,,,,,,,,,,71.01179509999929,0.01179509999928996,None,105.848608100001,105.848608100001,105.848608100001,105.848608100001,105.848608100001,105.848608100001,105.848608100001,105.848608100001,,001,P018,2025_Mar_07_1805,CategoryLocalizer,2021.2.3,59.939101871071834,
71.8,72.0,5,0.0,Stimuli\Blank.png,0,0,0,120,120,120,,,,,,,,,,,,,71.82877860000008,0.0287786000000807,None,106.6493319000001,106.6493319000001,106.6493319000001,106.6493319000001,106.6493319000001,106.6493319000001,106.6493319000001,106.6493319000001,,001,P018,2025_Mar_07_1805,CategoryLocalizer,2021.2.3,59.939101871071834,
72.0,72.8,4,0.75,Stimuli\ImageFiles-Set1\Scenes\Scenes_015.png,0,0,0,121,121,121,,,,,,,,,,,,,72.01163629999792,0.011636299997917376,None,106.84949340000458,106.84949340000458,106.84949340000458,106.84949340000458,106.84949340000458,106.84949340000458,106.84949340000458,106.84949340000458,,001,P018,2025_Mar_07_1805,CategoryLocalizer,2021.2.3,59.939101871071834,
72.8,73.0,5,0.0,Stimuli\Blank.png,0,0,0,122,122,122,,,,,,,,,,,,,72.83094749999873,0.030947499998731587,None,107.66688710000017,107.66688710000017,107.66688710000017,107.66688710000017,107.66688710000017,107.66688710000017,107.66688710000017,107.66688710000017,,001,P018,2025_Mar_07_1805,CategoryLocalizer,2021.2.3,59.939101871071834,
73.0,73.8,4,0.75,Stimuli\ImageFiles-Set1\Scenes\Scenes_039.png,1,1,0,123,123,123,,,,,,,,,,,,,73.03181019999465,0.031810199994652066,None,107.86705660000007,107.86705660000007,107.86705660000007,107.86705660000007,107.86705660000007,107.86705660000007,107.86705660000007,107.86705660000007,,001,P018,2025_Mar_07_1805,CategoryLocalizer,2021.2.3,59.939101871071834,
73.8,74.0,5,0.0,Stimuli\Blank.png,0,0,0,124,124,124,,,,,,,,,,,,,73.81392419999611,0.013924199996111497,None,108.63441860000603,108.63441860000603,108.63441860000603,108.63441860000603,108.63441860000603,108.63441860000603,108.63441860000603,108.63441860000603,,001,P018,2025_Mar_07_1805,CategoryLocalizer,2021.2.3,59.939101871071834,
74.0,74.8,4,0.75,Stimuli\ImageFiles-Set1\Scenes\Scenes_036.png,0,0,0,125,125,125,,,,,,,,,,,,,74.0141650000005,0.014165000000502914,None,108.85125580000022,108.85125580000022,108.85125580000022,108.85125580000022,108.85125580000022,108.85125580000022,108.85125580000022,108.85125580000022,,001,P018,2025_Mar_07_1805,CategoryLocalizer,2021.2.3,59.939101871071834,
74.8,75.0,5,0.0,Stimuli\Blank.png,0,0,0,126,126,126,,,,,,,,,,,,,74.83134959999734,0.031349599997341215,None,109.65196840000135,109.65196840000135,109.65196840000135,109.65196840000135,109.65196840000135,109.65196840000135,109.65196840000135,109.65196840000135,,001,P018,2025_Mar_07_1805,CategoryLocalizer,2021.2.3,59.939101871071834,
75.0,75.8,4,0.75,Stimuli\ImageFiles-Set1\Scenes\Scenes_036.png,0,0,0,127,127,127,,,,,,,,,,,,,75.01673909999954,0.016739099999540485,2,109.8521447000021,109.8521447000021,109.8521447000021,109.8521447000021,109.8521447000021,109.8521447000021,109.8521447000021,109.8521447000021,0.28256880000117235,001,P018,2025_Mar_07_1805,CategoryLocalizer,2021.2.3,59.939101871071834,
75.8,76.0,5,0.0,Stimuli\Blank.png,0,0,0,128,128,128,,,,,,,,,,,,,75.81519679999474,0.015196799994740218,None,110.6361898000032,110.6361898000032,110.6361898000032,110.6361898000032,110.6361898000032,110.6361898000032,110.6361898000032,110.6361898000032,,001,P018,2025_Mar_07_1805,CategoryLocalizer,2021.2.3,59.939101871071834,
76.0,88.0,0,0.0,Stimuli\Blank.png,0,0,0,129,129,129,,,,,,,,,,,,,76.01601229999505,0.01601229999505449,None,110.83635470000445,110.83635470000445,110.83635470000445,110.83635470000445,110.83635470000445,110.83635470000445,110.83635470000445,110.83635470000445,,001,P018,2025_Mar_07_1805,CategoryLocalizer,2021.2.3,59.939101871071834,
88.0,88.8,3,0.75,Stimuli\ImageFiles-Set1\Faces\Face_00069.png,0,0,0,130,130,130,,,,,,,,,,,,,88.00940969999647,0.00940969999646768,None,122.83028230000491,122.83028230000491,122.83028230000491,122.83028230000491,122.83028230000491,122.83028230000491,122.83028230000491,122.83028230000491,,001,P018,2025_Mar_07_1805,CategoryLocalizer,2021.2.3,59.939101871071834,
88.8,89.0,5,0.0,Stimuli\Blank.png,0,0,0,131,131,131,,,,,,,,,,,,,88.8111751999968,0.011175199996799279,None,123.63100120000308,123.63100120000308,123.63100120000308,123.63100120000308,123.63100120000308,123.63100120000308,123.63100120000308,123.63100120000308,,001,P018,2025_Mar_07_1805,CategoryLocalizer,2021.2.3,59.939101871071834,
89.0,89.8,3,0.75,Stimuli\ImageFiles-Set1\Faces\Face_00073.png,0,0,0,132,132,132,,,,,,,,,,,,,89.01032349999878,0.010323499998776242,None,123.83117170000332,123.83117170000332,123.83117170000332,123.83117170000332,123.83117170000332,123.83117170000332,123.83117170000332,123.83117170000332,,001,P018,2025_Mar_07_1805,CategoryLocalizer,2021.2.3,59.939101871071834,
89.8,90.0,5,0.0,Stimuli\Blank.png,0,0,0,133,133,133,,,,,,,,,,,,,89.81184109999595,0.011841099995947957,None,124.63187689999904,124.63187689999904,124.63187689999904,124.63187689999904,124.63187689999904,124.63187689999904,124.63187689999904,124.63187689999904,,001,P018,2025_Mar_07_1805,CategoryLocalizer,2021.2.3,59.939101871071834,
90.0,90.8,3,0.75,Stimuli\ImageFiles-Set1\Faces\Face_00075.png,0,0,0,134,134,134,,,,,,,,,,,,,90.01094960000046,0.010949600000458304,None,124.83205029999954,124.83205029999954,124.83205029999954,124.83205029999954,124.83205029999954,124.83205029999954,124.83205029999954,124.83205029999954,,001,P018,2025_Mar_07_1805,CategoryLocalizer,2021.2.3,59.939101871071834,
90.8,91.0,5,0.0,Stimuli\Blank.png,0,0,0,135,135,135,,,,,,,,,,,,,90.8116652999961,0.011665299996096223,None,125.63275350000185,125.63275350000185,125.63275350000185,125.63275350000185,125.63275350000185,125.63275350000185,125.63275350000185,125.63275350000185,,001,P018,2025_Mar_07_1805,CategoryLocalizer,2021.2.3,59.939101871071834,
91.0,91.8,3,0.75,Stimuli\ImageFiles-Set1\Faces\Face_00055.png,0,0,0,136,136,136,,,,,,,,,,,,,91.01187569999456,0.011875699994561728,None,125.83293609999964,125.83293609999964,125.83293609999964,125.83293609999964,125.83293609999964,125.83293609999964,125.83293609999964,125.83293609999964,,001,P018,2025_Mar_07_1805,CategoryLocalizer,2021.2.3,59.939101871071834,
91.8,92.0,5,0.0,Stimuli\Blank.png,0,0,0,137,137,137,,,,,,,,,,,,,91.81245539999509,0.012455399995090488,None,126.63361430000077,126.63361430000077,126.63361430000077,126.63361430000077,126.63361430000077,126.63361430000077,126.63361430000077,126.63361430000077,,001,P018,2025_Mar_07_1805,CategoryLocalizer,2021.2.3,59.939101871071834,
92.0,92.8,3,0.75,Stimuli\ImageFiles-Set1\Faces\Face_00027.png,0,0,0,138,138,138,,,,,,,,,,,,,92.01264860000083,0.012648600000829902,None,126.83381720000034,126.83381720000034,126.83381720000034,126.83381720000034,126.83381720000034,126.83381720000034,126.83381720000034,126.83381720000034,,001,P018,2025_Mar_07_1805,CategoryLocalizer,2021.2.3,59.939101871071834,
92.8,93.0,5,0.0,Stimuli\Blank.png,0,0,0,139,139,139,,,,,,,,,,,,,92.81325469999865,0.013254699998654473,None,127.63452370000596,127.63452370000596,127.63452370000596,127.63452370000596,127.63452370000596,127.63452370000596,127.63452370000596,127.63452370000596,,001,P018,2025_Mar_07_1805,CategoryLocalizer,2021.2.3,59.939101871071834,
93.0,93.8,3,0.75,Stimuli\ImageFiles-Set1\Faces\Face_00022.png,0,0,0,140,140,140,,,,,,,,,,,,,93.01523839999572,0.01523839999572374,None,127.85138640000514,127.85138640000514,127.85138640000514,127.85138640000514,127.85138640000514,127.85138640000514,127.85138640000514,127.85138640000514,,001,P018,2025_Mar_07_1805,CategoryLocalizer,2021.2.3,59.939101871071834,
93.8,94.0,5,0.0,Stimuli\Blank.png,0,0,0,141,141,141,,,,,,,,,,,,,93.81600949999847,0.016009499998475007,None,128.652102,128.652102,128.652102,128.652102,128.652102,128.652102,128.652102,128.652102,,001,P018,2025_Mar_07_1805,CategoryLocalizer,2021.2.3,59.939101871071834,
94.0,94.8,3,0.75,Stimuli\ImageFiles-Set1\Faces\Face_00091.png,0,0,0,142,142,142,,,,,,,,,,,,,94.01435389999824,0.014353899998241104,None,128.83559600000444,128.83559600000444,128.83559600000444,128.83559600000444,128.83559600000444,128.83559600000444,128.83559600000444,128.83559600000444,,001,P018,2025_Mar_07_1805,CategoryLocalizer,2021.2.3,59.939101871071834,
94.8,95.0,5,0.0,Stimuli\Blank.png,0,0,0,143,143,143,,,,,,,,,,,,,94.81514320000133,0.015143200001332957,None,129.63629790000414,129.63629790000414,129.63629790000414,129.63629790000414,129.63629790000414,129.63629790000414,129.63629790000414,129.63629790000414,,001,P018,2025_Mar_07_1805,CategoryLocalizer,2021.2.3,59.939101871071834,
95.0,95.8,3,0.75,Stimuli\ImageFiles-Set1\Faces\Face_00091.png,1,1,0,144,144,144,,,,,,,,,,,,,95.01629870000033,0.016298700000334065,2,129.85317159999977,129.85317159999977,129.85317159999977,129.85317159999977,129.85317159999977,129.85317159999977,129.85317159999977,129.85317159999977,0.2665478000053554,001,P018,2025_Mar_07_1805,CategoryLocalizer,2021.2.3,59.939101871071834,
95.8,96.0,5,0.0,Stimuli\Blank.png,0,0,0,145,145,145,,,,,,,,,,,,,95.81614559999434,0.016145599994345616,None,130.63719670000137,130.63719670000137,130.63719670000137,130.63719670000137,130.63719670000137,130.63719670000137,130.63719670000137,130.63719670000137,,001,P018,2025_Mar_07_1805,CategoryLocalizer,2021.2.3,59.939101871071834,
96.0,96.8,3,0.75,Stimuli\ImageFiles-Set1\Faces\Face_00103.png,0,0,0,146,146,146,,,,,,,,,,,,,95.9995729000002,-0.0004270999997970648,None,130.82065500000317,130.82065500000317,130.82065500000317,130.82065500000317,130.82065500000317,130.82065500000317,130.82065500000317,130.82065500000317,,001,P018,2025_Mar_07_1805,CategoryLocalizer,2021.2.3,59.939101871071834,
96.8,97.0,5,0.0,Stimuli\Blank.png,0,0,0,147,147,147,,,,,,,,,,,,,96.80134279999766,0.001342799997658517,None,131.62143490000017,131.62143490000017,131.62143490000017,131.62143490000017,131.62143490000017,131.62143490000017,131.62143490000017,131.62143490000017,,001,P018,2025_Mar_07_1805,CategoryLocalizer,2021.2.3,59.939101871071834,
97.0,97.8,3,0.75,Stimuli\ImageFiles-Set1\Faces\Face_00003.png,0,0,0,148,148,148,,,,,,,,,,,,,97.00100939999538,0.0010093999953824095,None,131.8215640000053,131.8215640000053,131.8215640000053,131.8215640000053,131.8215640000053,131.8215640000053,131.8215640000053,131.8215640000053,,001,P018,2025_Mar_07_1805,CategoryLocalizer,2021.2.3,59.939101871071834,
97.8,98.0,5,0.0,Stimuli\Blank.png,0,0,0,149,149,149,,,,,,,,,,,,,97.80177040000126,0.0017704000012628285,None,132.622263199999,132.622263199999,132.622263199999,132.622263199999,132.622263199999,132.622263199999,132.622263199999,132.622263199999,,001,P018,2025_Mar_07_1805,CategoryLocalizer,2021.2.3,59.939101871071834,
98.0,98.8,3,0.75,Stimuli\ImageFiles-Set1\Faces\Face_00024.png,0,0,0,150,150,150,,,,,,,,,,,,,98.00130759999593,0.0013075999959255569,None,132.83913350000512,132.83913350000512,132.83913350000512,132.83913350000512,132.83913350000512,132.83913350000512,132.83913350000512,132.83913350000512,,001,P018,2025_Mar_07_1805,CategoryLocalizer,2021.2.3,59.939101871071834,
98.8,99.0,5,0.0,Stimuli\Blank.png,0,0,0,151,151,151,,,,,,,,,,,,,98.82059979999758,0.020599799997583546,None,133.6565253000008,133.6565253000008,133.6565253000008,133.6565253000008,133.6565253000008,133.6565253000008,133.6565253000008,133.6565253000008,,001,P018,2025_Mar_07_1805,CategoryLocalizer,2021.2.3,59.939101871071834,
99.0,99.8,3,0.75,Stimuli\ImageFiles-Set1\Faces\Face_00053.png,0,0,0,152,152,152,,,,,,,,,,,,,99.01992299999984,0.019922999999835156,None,133.85669190000044,133.85669190000044,133.85669190000044,133.85669190000044,133.85669190000044,133.85669190000044,133.85669190000044,133.85669190000044,,001,P018,2025_Mar_07_1805,CategoryLocalizer,2021.2.3,59.939101871071834,
99.8,100.0,5,0.0,Stimuli\Blank.png,0,0,0,153,153,153,,,,,,,,,,,,,99.82029930000135,0.020299300001354936,None,134.64072670000314,134.64072670000314,134.64072670000314,134.64072670000314,134.64072670000314,134.64072670000314,134.64072670000314,134.64072670000314,,001,P018,2025_Mar_07_1805,CategoryLocalizer,2021.2.3,59.939101871071834,
100.0,100.8,3,0.75,Stimuli\ImageFiles-Set1\Faces\Face_00119.png,0,0,0,154,154,154,,,,,,,,,,,,,100.0062248999966,0.006224899996595923,None,134.85758120000537,134.85758120000537,134.85758120000537,134.85758120000537,134.85758120000537,134.85758120000537,134.85758120000537,134.85758120000537,,001,P018,2025_Mar_07_1805,CategoryLocalizer,2021.2.3,59.939101871071834,
100.8,101.0,5,0.0,Stimuli\Blank.png,0,0,0,155,155,155,,,,,,,,,,,,,100.83819509999739,0.03819509999739523,None,135.65828630000033,135.65828630000033,135.65828630000033,135.65828630000033,135.65828630000033,135.65828630000033,135.65828630000033,135.65828630000033,,001,P018,2025_Mar_07_1805,CategoryLocalizer,2021.2.3,59.939101871071834,
101.0,101.8,3,0.75,Stimuli\ImageFiles-Set1\Faces\Face_00014.png,0,0,0,156,156,156,,,,,,,,,,,,,101.00642459999654,0.0064245999965351075,None,135.8417866000018,135.8417866000018,135.8417866000018,135.8417866000018,135.8417866000018,135.8417866000018,135.8417866000018,135.8417866000018,,001,P018,2025_Mar_07_1805,CategoryLocalizer,2021.2.3,59.939101871071834,
101.8,102.0,5,0.0,Stimuli\Blank.png,0,0,0,157,157,157,,,,,,,,,,,,,101.82199899999978,0.021998999999780722,None,136.64248300000327,136.64248300000327,136.64248300000327,136.64248300000327,136.64248300000327,136.64248300000327,136.64248300000327,136.64248300000327,,001,P018,2025_Mar_07_1805,CategoryLocalizer,2021.2.3,59.939101871071834,
102.0,102.8,3,0.75,Stimuli\ImageFiles-Set1\Faces\Face_00079.png,0,0,0,158,158,158,,,,,,,,,,,,,102.00552320000133,0.0055232000013347715,None,136.82598410000355,136.82598410000355,136.82598410000355,136.82598410000355,136.82598410000355,136.82598410000355,136.82598410000355,136.82598410000355,,001,P018,2025_Mar_07_1805,CategoryLocalizer,2021.2.3,59.939101871071834,
102.8,103.0,5,0.0,Stimuli\Blank.png,0,0,0,159,159,159,,,,,,,,,,,,,102.80633529999614,0.006335299996138133,None,137.62670340000477,137.62670340000477,137.62670340000477,137.62670340000477,137.62670340000477,137.62670340000477,137.62670340000477,137.62670340000477,,001,P018,2025_Mar_07_1805,CategoryLocalizer,2021.2.3,59.939101871071834,
103.0,103.8,3,0.75,Stimuli\ImageFiles-Set1\Faces\Face_00071.png,0,0,0,160,160,160,,,,,,,,,,,,,103.0065528999985,0.006552899998496287,None,137.82686690000264,137.82686690000264,137.82686690000264,137.82686690000264,137.82686690000264,137.82686690000264,137.82686690000264,137.82686690000264,,001,P018,2025_Mar_07_1805,CategoryLocalizer,2021.2.3,59.939101871071834,
103.8,104.0,5,0.0,Stimuli\Blank.png,0,0,0,161,161,161,,,,,,,,,,,,,103.806462499997,0.006462499996999327,None,138.6275769999993,138.6275769999993,138.6275769999993,138.6275769999993,138.6275769999993,138.6275769999993,138.6275769999993,138.6275769999993,,001,P018,2025_Mar_07_1805,CategoryLocalizer,2021.2.3,59.939101871071834,
104.0,104.8,1,0.75,Stimuli\ImageFiles-Set1\Objects\Object_Football_00001.png,0,0,0,162,162,162,,,,,,,,,,,,,104.00719299999764,0.007192999997641891,None,138.82772670000122,138.82772670000122,138.82772670000122,138.82772670000122,138.82772670000122,138.82772670000122,138.82772670000122,138.82772670000122,,001,P018,2025_Mar_07_1805,CategoryLocalizer,2021.2.3,59.939101871071834,
104.8,105.0,5,0.0,Stimuli\Blank.png,0,0,0,163,163,163,,,,,,,,,,,,,104.80815689999872,0.008156899998724043,None,139.6285499000005,139.6285499000005,139.6285499000005,139.6285499000005,139.6285499000005,139.6285499000005,139.6285499000005,139.6285499000005,,001,P018,2025_Mar_07_1805,CategoryLocalizer,2021.2.3,59.939101871071834,
105.0,105.8,1,0.75,Stimuli\ImageFiles-Set1\Objects\Object_Football_00001.png,1,1,0,164,164,164,,,,,,,,,,,,,105.00853059999645,0.008530599996447563,2,139.84531550000247,139.84531550000247,139.84531550000247,139.84531550000247,139.84531550000247,139.84531550000247,139.84531550000247,139.84531550000247,0.2754650999995647,001,P018,2025_Mar_07_1805,CategoryLocalizer,2021.2.3,59.939101871071834,
105.8,106.0,5,0.0,Stimuli\Blank.png,0,0,0,165,165,165,,,,,,,,,,,,,105.82612410000002,0.026124100000018302,None,140.64602610000293,140.64602610000293,140.64602610000293,140.64602610000293,140.64602610000293,140.64602610000293,140.64602610000293,140.64602610000293,,001,P018,2025_Mar_07_1805,CategoryLocalizer,2021.2.3,59.939101871071834,
106.0,106.8,1,0.75,Stimuli\ImageFiles-Set1\Objects\Object_Wagon_00001.png,0,0,0,166,166,166,,,,,,,,,,,,,106.010961699998,0.010961699998006225,None,140.84620250000444,140.84620250000444,140.84620250000444,140.84620250000444,140.84620250000444,140.84620250000444,140.84620250000444,140.84620250000444,,001,P018,2025_Mar_07_1805,CategoryLocalizer,2021.2.3,59.939101871071834,
106.8,107.0,5,0.0,Stimuli\Blank.png,0,0,0,167,167,167,,,,,,,,,,,,,106.82627189999766,0.026271899997666992,None,141.64691570000286,141.64691570000286,141.64691570000286,141.64691570000286,141.64691570000286,141.64691570000286,141.64691570000286,141.64691570000286,,001,P018,2025_Mar_07_1805,CategoryLocalizer,2021.2.3,59.939101871071834,
107.0,107.8,1,0.75,Stimuli\ImageFiles-Set1\Objects\Object_Ring_00001.png,0,0,0,168,168,168,,,,,,,,,,,,,107.01010690000112,0.010106900001119357,None,141.8304019999996,141.8304019999996,141.8304019999996,141.8304019999996,141.8304019999996,141.8304019999996,141.8304019999996,141.8304019999996,,001,P018,2025_Mar_07_1805,CategoryLocalizer,2021.2.3,59.939101871071834,
107.8,108.0,5,0.0,Stimuli\Blank.png,0,0,0,169,169,169,,,,,,,,,,,,,107.8100306999986,0.010030699998608839,None,142.6311180000048,142.6311180000048,142.6311180000048,142.6311180000048,142.6311180000048,142.6311180000048,142.6311180000048,142.6311180000048,,001,P018,2025_Mar_07_1805,CategoryLocalizer,2021.2.3,59.939101871071834,
108.0,108.8,1,0.75,Stimuli\ImageFiles-Set1\Objects\Object_Baseball_00001.png,0,0,0,170,170,170,,,,,,,,,,,,,108.01022540000122,0.010225400001218077,None,142.83128840000427,142.83128840000427,142.83128840000427,142.83128840000427,142.83128840000427,142.83128840000427,142.83128840000427,142.83128840000427,,001,P018,2025_Mar_07_1805,CategoryLocalizer,2021.2.3,59.939101871071834,
108.8,109.0,5,0.0,Stimuli\Blank.png,0,0,0,171,171,171,,,,,,,,,,,,,108.81160599999566,0.011605999995666139,None,143.6320035000026,143.6320035000026,143.6320035000026,143.6320035000026,143.6320035000026,143.6320035000026,143.6320035000026,143.6320035000026,,001,P018,2025_Mar_07_1805,CategoryLocalizer,2021.2.3,59.939101871071834,
109.0,109.8,1,0.75,Stimuli\ImageFiles-Set1\Objects\Object_Door_00001.png,0,0,0,172,172,172,,,,,,,,,,,,,109.01181199999701,0.01181199999700766,None,143.83217259999947,143.83217259999947,143.83217259999947,143.83217259999947,143.83217259999947,143.83217259999947,143.83217259999947,143.83217259999947,,001,P018,2025_Mar_07_1805,CategoryLocalizer,2021.2.3,59.939101871071834,
109.8,110.0,5,0.0,Stimuli\Blank.png,0,0,0,173,173,173,,,,,,,,,,,,,109.81247499999881,0.012474999998815406,None,144.63288730000204,144.63288730000204,144.63288730000204,144.63288730000204,144.63288730000204,144.63288730000204,144.63288730000204,144.63288730000204,,001,P018,2025_Mar_07_1805,CategoryLocalizer,2021.2.3,59.939101871071834,
110.0,110.8,1,0.75,Stimuli\ImageFiles-Set1\Objects\Object_Toilet_00001.png,0,0,0,174,174,174,,,,,,,,,,,,,110.0120431999967,0.012043199996696785,None,144.84974910000165,144.84974910000165,144.84974910000165,144.84974910000165,144.84974910000165,144.84974910000165,144.84974910000165,144.84974910000165,,001,P018,2025_Mar_07_1805,CategoryLocalizer,2021.2.3,59.939101871071834,
110.8,111.0,5,0.0,Stimuli\Blank.png,0,0,0,175,175,175,,,,,,,,,,,,,110.8292810999992,0.029281099999209914,None,145.65049730000464,145.65049730000464,145.65049730000464,145.65049730000464,145.65049730000464,145.65049730000464,145.65049730000464,145.65049730000464,,001,P018,2025_Mar_07_1805,CategoryLocalizer,2021.2.3,59.939101871071834,
111.0,111.8,1,0.75,Stimuli\ImageFiles-Set1\Objects\Object_Card_00001.png,0,0,0,176,176,176,,,,,,,,,,,,,111.01274009999906,0.012740099999064114,None,145.83395340000425,145.83395340000425,145.83395340000425,145.83395340000425,145.83395340000425,145.83395340000425,145.83395340000425,145.83395340000425,,001,P018,2025_Mar_07_1805,CategoryLocalizer,2021.2.3,59.939101871071834,
111.8,112.0,5,0.0,Stimuli\Blank.png,0,0,0,177,177,177,,,,,,,,,,,,,111.81536629999755,0.015366299997552346,None,146.65137089999916,146.65137089999916,146.65137089999916,146.65137089999916,146.65137089999916,146.65137089999916,146.65137089999916,146.65137089999916,,001,P018,2025_Mar_07_1805,CategoryLocalizer,2021.2.3,59.939101871071834,
112.0,112.8,1,0.75,Stimuli\ImageFiles-Set1\Objects\Object_ShoppingCart_00001.png,0,0,0,178,178,178,,,,,,,,,,,,,112.03184979999787,0.03184979999787174,None,146.8514970000033,146.8514970000033,146.8514970000033,146.8514970000033,146.8514970000033,146.8514970000033,146.8514970000033,146.8514970000033,,001,P018,2025_Mar_07_1805,CategoryLocalizer,2021.2.3,59.939101871071834,
112.8,113.0,5,0.0,Stimuli\Blank.png,0,0,0,179,179,179,,,,,,,,,,,,,112.79855809999572,-0.0014419000042806829,None,147.61887150000257,147.61887150000257,147.61887150000257,147.61887150000257,147.61887150000257,147.61887150000257,147.61887150000257,147.61887150000257,,001,P018,2025_Mar_07_1805,CategoryLocalizer,2021.2.3,59.939101871071834,
113.0,113.8,1,0.75,Stimuli\ImageFiles-Set1\Objects\Object_IroningBoard_00001.png,0,0,0,180,180,180,,,,,,,,,,,,,113.0157481999995,0.01574819999950705,None,147.85241930000484,147.85241930000484,147.85241930000484,147.85241930000484,147.85241930000484,147.85241930000484,147.85241930000484,147.85241930000484,,001,P018,2025_Mar_07_1805,CategoryLocalizer,2021.2.3,59.939101871071834,
113.8,114.0,5,0.0,Stimuli\Blank.png,0,0,0,181,181,181,,,,,,,,,,,,,113.81673859999864,0.016738599998646464,None,148.65316670000175,148.65316670000175,148.65316670000175,148.65316670000175,148.65316670000175,148.65316670000175,148.65316670000175,148.65316670000175,,001,P018,2025_Mar_07_1805,CategoryLocalizer,2021.2.3,59.939101871071834,
114.0,114.8,1,0.75,Stimuli\ImageFiles-Set1\Objects\Object_Pot_00001.png,0,0,0,182,182,182,,,,,,,,,,,,,114.01571960000001,0.01571960000001127,None,148.83658190000278,148.83658190000278,148.83658190000278,148.83658190000278,148.83658190000278,148.83658190000278,148.83658190000278,148.83658190000278,,001,P018,2025_Mar_07_1805,CategoryLocalizer,2021.2.3,59.939101871071834,
114.8,115.0,5,0.0,Stimuli\Blank.png,0,0,0,183,183,183,,,,,,,,,,,,,114.80016629999591,0.00016629999591089017,None,149.62085300000035,149.62085300000035,149.62085300000035,149.62085300000035,149.62085300000035,149.62085300000035,149.62085300000035,149.62085300000035,,001,P018,2025_Mar_07_1805,CategoryLocalizer,2021.2.3,59.939101871071834,
115.0,115.8,1,0.75,Stimuli\ImageFiles-Set1\Objects\Object_Airplane_00001.png,0,0,0,184,184,184,,,,,,,,,,,,,115.0003046999991,0.00030469999910565093,None,149.82080660000065,149.82080660000065,149.82080660000065,149.82080660000065,149.82080660000065,149.82080660000065,149.82080660000065,149.82080660000065,,001,P018,2025_Mar_07_1805,CategoryLocalizer,2021.2.3,59.939101871071834,
115.8,116.0,5,0.0,Stimuli\Blank.png,0,0,0,185,185,185,,,,,,,,,,,,,115.80189389999578,0.0018938999957782698,None,150.621524400005,150.621524400005,150.621524400005,150.621524400005,150.621524400005,150.621524400005,150.621524400005,150.621524400005,,001,P018,2025_Mar_07_1805,CategoryLocalizer,2021.2.3,59.939101871071834,
116.0,116.8,1,0.75,Stimuli\ImageFiles-Set1\Objects\Object_Bench_00001.png,0,0,0,186,186,186,,,,,,,,,,,,,116.00190309999743,0.001903099997434765,None,150.82166220000363,150.82166220000363,150.82166220000363,150.82166220000363,150.82166220000363,150.82166220000363,150.82166220000363,150.82166220000363,,001,P018,2025_Mar_07_1805,CategoryLocalizer,2021.2.3,59.939101871071834,
116.8,117.0,5,0.0,Stimuli\Blank.png,0,0,0,187,187,187,,,,,,,,,,,,,116.8014148000002,0.0014148000002052186,None,151.62240010000096,151.62240010000096,151.62240010000096,151.62240010000096,151.62240010000096,151.62240010000096,151.62240010000096,151.62240010000096,,001,P018,2025_Mar_07_1805,CategoryLocalizer,2021.2.3,59.939101871071834,
117.0,117.8,1,0.75,Stimuli\ImageFiles-Set1\Objects\Object_Lamp_00001.png,1,1,0,188,188,188,,,,,,,,,,,,,117.00236539999605,0.002365399996051565,None,151.8225683000055,151.8225683000055,151.8225683000055,151.8225683000055,151.8225683000055,151.8225683000055,151.8225683000055,151.8225683000055,,001,P018,2025_Mar_07_1805,CategoryLocalizer,2021.2.3,59.939101871071834,
117.8,118.0,5,0.0,Stimuli\Blank.png,0,0,0,189,189,189,,,,,,,,,,,,,117.80210660000012,0.0021066000001184193,None,152.62328040000284,152.62328040000284,152.62328040000284,152.62328040000284,152.62328040000284,152.62328040000284,152.62328040000284,152.62328040000284,,001,P018,2025_Mar_07_1805,CategoryLocalizer,2021.2.3,59.939101871071834,
118.0,118.8,1,0.75,Stimuli\ImageFiles-Set1\Objects\Object_Sock_00001.png,0,0,0,190,190,190,,,,,,,,,,,,,118.00238559999707,0.002385599997069221,None,152.82345830000122,152.82345830000122,152.82345830000122,152.82345830000122,152.82345830000122,152.82345830000122,152.82345830000122,152.82345830000122,,001,P018,2025_Mar_07_1805,CategoryLocalizer,2021.2.3,59.939101871071834,
118.8,119.0,5,0.0,Stimuli\Blank.png,0,0,0,191,191,191,,,,,,,,,,,,,118.8030202000009,0.003020200000904083,None,153.62413050000032,153.62413050000032,153.62413050000032,153.62413050000032,153.62413050000032,153.62413050000032,153.62413050000032,153.62413050000032,,001,P018,2025_Mar_07_1805,CategoryLocalizer,2021.2.3,59.939101871071834,
119.0,119.8,1,0.75,Stimuli\ImageFiles-Set1\Objects\Object_Sock_00001.png,0,0,0,192,192,192,,,,,,,,,,,,,119.00386399999843,0.00386399999842979,2,153.82434590000048,153.82434590000048,153.82434590000048,153.82434590000048,153.82434590000048,153.82434590000048,153.82434590000048,153.82434590000048,0.28364699999656295,001,P018,2025_Mar_07_1805,CategoryLocalizer,2021.2.3,59.939101871071834,
119.8,120.0,5,0.0,Stimuli\Blank.png,0,0,0,193,193,193,,,,,,,,,,,,,119.80463120000059,0.004631200000588365,None,154.62509120000323,154.62509120000323,154.62509120000323,154.62509120000323,154.62509120000323,154.62509120000323,154.62509120000323,154.62509120000323,,001,P018,2025_Mar_07_1805,CategoryLocalizer,2021.2.3,59.939101871071834,
120.0,120.8,4,0.75,Stimuli\ImageFiles-Set1\Scenes\Scenes_004.png,0,0,0,194,194,194,,,,,,,,,,,,,120.00484370000049,0.00484370000049239,None,154.8419228999992,154.8419228999992,154.8419228999992,154.8419228999992,154.8419228999992,154.8419228999992,154.8419228999992,154.8419228999992,,001,P018,2025_Mar_07_1805,CategoryLocalizer,2021.2.3,59.939101871071834,
120.8,121.0,5,0.0,Stimuli\Blank.png,0,0,0,195,195,195,,,,,,,,,,,,,120.82165159999568,0.02165159999567834,None,155.642614700002,155.642614700002,155.642614700002,155.642614700002,155.642614700002,155.642614700002,155.642614700002,155.642614700002,,001,P018,2025_Mar_07_1805,CategoryLocalizer,2021.2.3,59.939101871071834,
121.0,121.8,4,0.75,Stimuli\ImageFiles-Set1\Scenes\Scenes_043.png,0,0,0,196,196,196,,,,,,,,,,,,,121.00649690000137,0.006496900001366157,None,155.84277570000268,155.84277570000268,155.84277570000268,155.84277570000268,155.84277570000268,155.84277570000268,155.84277570000268,155.84277570000268,,001,P018,2025_Mar_07_1805,CategoryLocalizer,2021.2.3,59.939101871071834,
121.8,122.0,5,0.0,Stimuli\Blank.png,0,0,0,197,197,197,,,,,,,,,,,,,121.8222850999955,0.02228509999549999,None,156.6435100000017,156.6435100000017,156.6435100000017,156.6435100000017,156.6435100000017,156.6435100000017,156.6435100000017,156.6435100000017,,001,P018,2025_Mar_07_1805,CategoryLocalizer,2021.2.3,59.939101871071834,
122.0,122.8,4,0.75,Stimuli\ImageFiles-Set1\Scenes\Scenes_017.png,0,0,0,198,198,198,,,,,,,,,,,,,122.00698239999474,0.006982399994740263,None,156.84368070000346,156.84368070000346,156.84368070000346,156.84368070000346,156.84368070000346,156.84368070000346,156.84368070000346,156.84368070000346,,001,P018,2025_Mar_07_1805,CategoryLocalizer,2021.2.3,59.939101871071834,
122.8,123.0,5,0.0,Stimuli\Blank.png,0,0,0,199,199,199,,,,,,,,,,,,,122.82317459999467,0.023174599994675305,None,157.64438560000417,157.64438560000417,157.64438560000417,157.64438560000417,157.64438560000417,157.64438560000417,157.64438560000417,157.64438560000417,,001,P018,2025_Mar_07_1805,CategoryLocalizer,2021.2.3,59.939101871071834,
123.0,123.8,4,0.75,Stimuli\ImageFiles-Set1\Scenes\Scenes_018.png,0,0,0,200,200,200,,,,,,,,,,,,,123.00737769999978,0.007377699999778997,None,157.82787900000403,157.82787900000403,157.82787900000403,157.82787900000403,157.82787900000403,157.82787900000403,157.82787900000403,157.82787900000403,,001,P018,2025_Mar_07_1805,CategoryLocalizer,2021.2.3,59.939101871071834,
123.8,124.0,5,0.0,Stimuli\Blank.png,0,0,0,201,201,201,,,,,,,,,,,,,123.80816319999576,0.008163199995763648,None,158.62861300000077,158.62861300000077,158.62861300000077,158.62861300000077,158.62861300000077,158.62861300000077,158.62861300000077,158.62861300000077,,001,P018,2025_Mar_07_1805,CategoryLocalizer,2021.2.3,59.939101871071834,
124.0,124.8,4,0.75,Stimuli\ImageFiles-Set1\Scenes\Scenes_056.png,0,0,0,202,202,202,,,,,,,,,,,,,124.00870569999825,0.008705699998245109,None,158.84545470000012,158.84545470000012,158.84545470000012,158.84545470000012,158.84545470000012,158.84545470000012,158.84545470000012,158.84545470000012,,001,P018,2025_Mar_07_1805,CategoryLocalizer,2021.2.3,59.939101871071834,
124.8,125.0,5,0.0,Stimuli\Blank.png,0,0,0,203,203,203,,,,,,,,,,,,,124.82546010000078,0.025460100000785246,None,159.64616029999888,159.64616029999888,159.64616029999888,159.64616029999888,159.64616029999888,159.64616029999888,159.64616029999888,159.64616029999888,,001,P018,2025_Mar_07_1805,CategoryLocalizer,2021.2.3,59.939101871071834,
125.0,125.8,4,0.75,Stimuli\ImageFiles-Set1\Scenes\Scenes_013.png,0,0,0,204,204,204,,,,,,,,,,,,,125.01040659999853,0.010406599998532329,None,159.8463374999992,159.8463374999992,159.8463374999992,159.8463374999992,159.8463374999992,159.8463374999992,159.8463374999992,159.8463374999992,,001,P018,2025_Mar_07_1805,CategoryLocalizer,2021.2.3,59.939101871071834,
125.8,126.0,5,0.0,Stimuli\Blank.png,0,0,0,205,205,205,,,,,,,,,,,,,125.82605299999705,0.026052999997048687,None,160.64704350000102,160.64704350000102,160.64704350000102,160.64704350000102,160.64704350000102,160.64704350000102,160.64704350000102,160.64704350000102,,001,P018,2025_Mar_07_1805,CategoryLocalizer,2021.2.3,59.939101871071834,
126.0,126.8,4,0.75,Stimuli\ImageFiles-Set1\Scenes\Scenes_040.png,0,0,0,206,206,206,,,,,,,,,,,,,126.00993089999974,0.009930899999744724,None,160.8472189000022,160.8472189000022,160.8472189000022,160.8472189000022,160.8472189000022,160.8472189000022,160.8472189000022,160.8472189000022,,001,P018,2025_Mar_07_1805,CategoryLocalizer,2021.2.3,59.939101871071834,
126.8,127.0,5,0.0,Stimuli\Blank.png,0,0,0,207,207,207,,,,,,,,,,,,,126.82670119999966,0.026701199999664027,None,161.64792400000442,161.64792400000442,161.64792400000442,161.64792400000442,161.64792400000442,161.64792400000442,161.64792400000442,161.64792400000442,,001,P018,2025_Mar_07_1805,CategoryLocalizer,2021.2.3,59.939101871071834,
127.0,127.8,4,0.75,Stimuli\ImageFiles-Set1\Scenes\Scenes_016.png,0,0,0,208,208,208,,,,,,,,,,,,,127.01141769999958,0.01141769999958342,None,161.8481064000007,161.8481064000007,161.8481064000007,161.8481064000007,161.8481064000007,161.8481064000007,161.8481064000007,161.8481064000007,,001,P018,2025_Mar_07_1805,CategoryLocalizer,2021.2.3,59.939101871071834,
127.8,128.0,5,0.0,Stimuli\Blank.png,0,0,0,209,209,209,,,,,,,,,,,,,127.82767400000012,0.027674000000118326,None,162.64880860000267,162.64880860000267,162.64880860000267,162.64880860000267,162.64880860000267,162.64880860000267,162.64880860000267,162.64880860000267,,001,P018,2025_Mar_07_1805,CategoryLocalizer,2021.2.3,59.939101871071834,
128.0,128.8,4,0.75,Stimuli\ImageFiles-Set1\Scenes\Scenes_058.png,0,0,0,210,210,210,,,,,,,,,,,,,128.01183619999938,0.01183619999937946,None,162.84898840000096,162.84898840000096,162.84898840000096,162.84898840000096,162.84898840000096,162.84898840000096,162.84898840000096,162.84898840000096,,001,P018,2025_Mar_07_1805,CategoryLocalizer,2021.2.3,59.939101871071834,
128.8,129.0,5,0.0,Stimuli\Blank.png,0,0,0,211,211,211,,,,,,,,,,,,,128.8293416000015,0.029341600001487222,None,163.6497445000059,163.6497445000059,163.6497445000059,163.6497445000059,163.6497445000059,163.6497445000059,163.6497445000059,163.6497445000059,,001,P018,2025_Mar_07_1805,CategoryLocalizer,2021.2.3,59.939101871071834,
129.0,129.8,4,0.75,Stimuli\ImageFiles-Set1\Scenes\Scenes_034.png,0,0,0,212,212,212,,,,,,,,,,,,,129.01230139999825,0.012301399998250417,None,163.83318920000602,163.83318920000602,163.83318920000602,163.83318920000602,163.83318920000602,163.83318920000602,163.83318920000602,163.83318920000602,,001,P018,2025_Mar_07_1805,CategoryLocalizer,2021.2.3,59.939101871071834,
129.8,130.0,5,0.0,Stimuli\Blank.png,0,0,0,213,213,213,,,,,,,,,,,,,129.81261399999494,0.012613999994925962,None,164.63389689999894,164.63389689999894,164.63389689999894,164.63389689999894,164.63389689999894,164.63389689999894,164.63389689999894,164.63389689999894,,001,P018,2025_Mar_07_1805,CategoryLocalizer,2021.2.3,59.939101871071834,
130.0,130.8,4,0.75,Stimuli\ImageFiles-Set1\Scenes\Scenes_009.png,0,0,0,214,214,214,,,,,,,,,,,,,130.01359969999612,0.013599699996120762,None,164.83404770000197,164.83404770000197,164.83404770000197,164.83404770000197,164.83404770000197,164.83404770000197,164.83404770000197,164.83404770000197,,001,P018,2025_Mar_07_1805,CategoryLocalizer,2021.2.3,59.939101871071834,
130.8,131.0,5,0.0,Stimuli\Blank.png,0,0,0,215,215,215,,,,,,,,,,,,,130.81462729999475,0.01462729999474277,None,165.6347872000042,165.6347872000042,165.6347872000042,165.6347872000042,165.6347872000042,165.6347872000042,165.6347872000042,165.6347872000042,,001,P018,2025_Mar_07_1805,CategoryLocalizer,2021.2.3,59.939101871071834,
131.0,131.8,4,0.75,Stimuli\ImageFiles-Set1\Scenes\Scenes_021.png,0,0,0,216,216,216,,,,,,,,,,,,,131.01420369999687,0.014203699996869545,None,165.8349573000014,165.8349573000014,165.8349573000014,165.8349573000014,165.8349573000014,165.8349573000014,165.8349573000014,165.8349573000014,,001,P018,2025_Mar_07_1805,CategoryLocalizer,2021.2.3,59.939101871071834,
131.8,132.0,5,0.0,Stimuli\Blank.png,0,0,0,217,217,217,,,,,,,,,,,,,131.81459099999483,0.01459099999482305,None,166.63571590000356,166.63571590000356,166.63571590000356,166.63571590000356,166.63571590000356,166.63571590000356,166.63571590000356,166.63571590000356,,001,P018,2025_Mar_07_1805,CategoryLocalizer,2021.2.3,59.939101871071834,
132.0,132.8,4,0.75,Stimuli\ImageFiles-Set1\Scenes\Scenes_003.png,0,0,0,218,218,218,,,,,,,,,,,,,132.01582670000062,0.015826700000616256,None,166.8526015000025,166.8526015000025,166.8526015000025,166.8526015000025,166.8526015000025,166.8526015000025,166.8526015000025,166.8526015000025,,001,P018,2025_Mar_07_1805,CategoryLocalizer,2021.2.3,59.939101871071834,
132.8,133.0,5,0.0,Stimuli\Blank.png,0,0,0,219,219,219,,,,,,,,,,,,,132.8162685999996,0.016268599999591515,None,167.637341200003,167.637341200003,167.637341200003,167.637341200003,167.637341200003,167.637341200003,167.637341200003,167.637341200003,,001,P018,2025_Mar_07_1805,CategoryLocalizer,2021.2.3,59.939101871071834,
133.0,133.8,4,0.75,Stimuli\ImageFiles-Set1\Scenes\Scenes_003.png,1,1,0,220,220,220,,,,,,,,,,,,,133.00088069999765,0.0008806999976513907,2,167.83683310000197,167.83683310000197,167.83683310000197,167.83683310000197,167.83683310000197,167.83683310000197,167.83683310000197,167.83683310000197,0.33600500000466127,001,P018,2025_Mar_07_1805,CategoryLocalizer,2021.2.3,59.939101871071834,
133.8,134.0,5,0.0,Stimuli\Blank.png,0,0,0,221,221,221,,,,,,,,,,,,,133.81661209999584,0.016612099995825247,None,168.63744460000453,168.63744460000453,168.63744460000453,168.63744460000453,168.63744460000453,168.63744460000453,168.63744460000453,168.63744460000453,,001,P018,2025_Mar_07_1805,CategoryLocalizer,2021.2.3,59.939101871071834,
134.0,134.8,4,0.75,Stimuli\ImageFiles-Set1\Scenes\Scenes_006.png,0,0,0,222,222,222,,,,,,,,,,,,,134.0011869999944,0.0011869999943883158,None,168.8376167000024,168.8376167000024,168.8376167000024,168.8376167000024,168.8376167000024,168.8376167000024,168.8376167000024,168.8376167000024,,001,P018,2025_Mar_07_1805,CategoryLocalizer,2021.2.3,59.939101871071834,
134.8,135.0,5,0.0,Stimuli\Blank.png,0,0,0,223,223,223,,,,,,,,,,,,,134.81822219999594,0.018222199995932442,None,169.63833600000362,169.63833600000362,169.63833600000362,169.63833600000362,169.63833600000362,169.63833600000362,169.63833600000362,169.63833600000362,,001,P018,2025_Mar_07_1805,CategoryLocalizer,2021.2.3,59.939101871071834,
135.0,135.8,4,0.75,Stimuli\ImageFiles-Set1\Scenes\Scenes_059.png,0,0,0,224,224,224,,,,,,,,,,,,,135.00077239999518,0.0007723999951849692,None,169.83851340000547,169.83851340000547,169.83851340000547,169.83851340000547,169.83851340000547,169.83851340000547,169.83851340000547,169.83851340000547,,001,P018,2025_Mar_07_1805,CategoryLocalizer,2021.2.3,59.939101871071834,
135.8,136.0,5,0.0,Stimuli\Blank.png,0,0,0,225,225,225,,,,,,,,,,,,,135.82027489999746,0.020274899997446028,None,170.65591259999928,170.65591259999928,170.65591259999928,170.65591259999928,170.65591259999928,170.65591259999928,170.65591259999928,170.65591259999928,,001,P018,2025_Mar_07_1805,CategoryLocalizer,2021.2.3,59.939101871071834,
136.0,136.8,2,0.75,Stimuli\ImageFiles-Set1\Bodies\Bodies_PushUp_00002.png,0,0,0,226,226,226,,,,,,,,,,,,,136.01826729999448,0.01826729999447707,None,170.83938450000278,170.83938450000278,170.83938450000278,170.83938450000278,170.83938450000278,170.83938450000278,170.83938450000278,170.83938450000278,,001,P018,2025_Mar_07_1805,CategoryLocalizer,2021.2.3,59.939101871071834,
136.8,137.0,5,0.0,Stimuli\Blank.png,0,0,0,227,227,227,,,,,,,,,,,,,136.8041990999991,0.00419909999908441,None,171.62342910000007,171.62342910000007,171.62342910000007,171.62342910000007,171.62342910000007,171.62342910000007,171.62342910000007,171.62342910000007,,001,P018,2025_Mar_07_1805,CategoryLocalizer,2021.2.3,59.939101871071834,
137.0,137.8,2,0.75,Stimuli\ImageFiles-Set1\Bodies\Bodies_SittingChair_00007.png,0,0,0,228,228,228,,,,,,,,,,,,,137.0025370000003,0.002537000000302214,None,171.82367879999947,171.82367879999947,171.82367879999947,171.82367879999947,171.82367879999947,171.82367879999947,171.82367879999947,171.82367879999947,,001,P018,2025_Mar_07_1805,CategoryLocalizer,2021.2.3,59.939101871071834,
137.8,138.0,5,0.0,Stimuli\Blank.png,0,0,0,229,229,229,,,,,,,,,,,,,137.80312639999465,0.0031263999946418153,None,172.62429100000008,172.62429100000008,172.62429100000008,172.62429100000008,172.62429100000008,172.62429100000008,172.62429100000008,172.62429100000008,,001,P018,2025_Mar_07_1805,CategoryLocalizer,2021.2.3,59.939101871071834,
138.0,138.8,2,0.75,Stimuli\ImageFiles-Set1\Bodies\Bodies_PushUp_00004.png,0,0,0,230,230,230,,,,,,,,,,,,,138.003609899999,0.00360989999899175,None,172.84116129999893,172.84116129999893,172.84116129999893,172.84116129999893,172.84116129999893,172.84116129999893,172.84116129999893,172.84116129999893,,001,P018,2025_Mar_07_1805,CategoryLocalizer,2021.2.3,59.939101871071834,
138.8,139.0,5,0.0,Stimuli\Blank.png,0,0,0,231,231,231,,,,,,,,,,,,,138.82168269999966,0.021682699999644228,None,173.6418655000016,173.6418655000016,173.6418655000016,173.6418655000016,173.6418655000016,173.6418655000016,173.6418655000016,173.6418655000016,,001,P018,2025_Mar_07_1805,CategoryLocalizer,2021.2.3,59.939101871071834,
139.0,139.8,2,0.75,Stimuli\ImageFiles-Set1\Bodies\Bodies_Walking_00006.png,0,0,0,232,232,232,,,,,,,,,,,,,139.00586379999731,0.005863799997314345,None,173.8420430000042,173.8420430000042,173.8420430000042,173.8420430000042,173.8420430000042,173.8420430000042,173.8420430000042,173.8420430000042,,001,P018,2025_Mar_07_1805,CategoryLocalizer,2021.2.3,59.939101871071834,
139.8,140.0,5,0.0,Stimuli\Blank.png,0,0,0,233,233,233,,,,,,,,,,,,,139.82222940000065,0.02222940000064,None,174.64274580000347,174.64274580000347,174.64274580000347,174.64274580000347,174.64274580000347,174.64274580000347,174.64274580000347,174.64274580000347,,001,P018,2025_Mar_07_1805,CategoryLocalizer,2021.2.3,59.939101871071834,
140.0,140.8,2,0.75,Stimuli\ImageFiles-Set1\Bodies\Bodies_SittingChair_00003.png,0,0,0,234,234,234,,,,,,,,,,,,,140.00511139999435,0.005111399994348176,None,174.82619390000036,174.82619390000036,174.82619390000036,174.82619390000036,174.82619390000036,174.82619390000036,174.82619390000036,174.82619390000036,,001,P018,2025_Mar_07_1805,CategoryLocalizer,2021.2.3,59.939101871071834,
140.8,141.0,5,0.0,Stimuli\Blank.png,0,0,0,235,235,235,,,,,,,,,,,,,140.80816770000092,0.008167700000910827,None,175.62697570000455,175.62697570000455,175.62697570000455,175.62697570000455,175.62697570000455,175.62697570000455,175.62697570000455,175.62697570000455,,001,P018,2025_Mar_07_1805,CategoryLocalizer,2021.2.3,59.939101871071834,
141.0,141.8,2,0.75,Stimuli\ImageFiles-Set1\Bodies\Bodies_Kicking_00005.png,0,0,0,236,236,236,,,,,,,,,,,,,141.00652779999655,0.006527799996547401,None,175.8271365000037,175.8271365000037,175.8271365000037,175.8271365000037,175.8271365000037,175.8271365000037,175.8271365000037,175.8271365000037,,001,P018,2025_Mar_07_1805,CategoryLocalizer,2021.2.3,59.939101871071834,
141.8,142.0,5,0.0,Stimuli\Blank.png,0,0,0,237,237,237,,,,,,,,,,,,,141.80731379999634,0.007313799996325088,None,176.62780960000237,176.62780960000237,176.62780960000237,176.62780960000237,176.62780960000237,176.62780960000237,176.62780960000237,176.62780960000237,,001,P018,2025_Mar_07_1805,CategoryLocalizer,2021.2.3,59.939101871071834,
142.0,142.8,2,0.75,Stimuli\ImageFiles-Set1\Bodies\Bodies_Kicking_00005.png,1,1,0,238,238,238,,,,,,,,,,,,,142.00688989999617,0.0068898999961675145,None,176.82800190000125,176.82800190000125,176.82800190000125,176.82800190000125,176.82800190000125,176.82800190000125,176.82800190000125,176.82800190000125,,001,P018,2025_Mar_07_1805,CategoryLocalizer,2021.2.3,59.939101871071834,
142.8,143.0,5,0.0,Stimuli\Blank.png,0,0,0,239,239,239,,,,,,,,,,,,,142.80779769999936,0.007797699999343877,None,177.6287261000034,177.6287261000034,177.6287261000034,177.6287261000034,177.6287261000034,177.6287261000034,177.6287261000034,177.6287261000034,,001,P018,2025_Mar_07_1805,CategoryLocalizer,2021.2.3,59.939101871071834,
143.0,143.8,2,0.75,Stimuli\ImageFiles-Set1\Bodies\Bodies_Lunging_00001.png,0,0,0,240,240,240,,,,,,,,,,,,,143.00784030000068,0.007840300000680145,None,177.82888359999924,177.82888359999924,177.82888359999924,177.82888359999924,177.82888359999924,177.82888359999924,177.82888359999924,177.82888359999924,,001,P018,2025_Mar_07_1805,CategoryLocalizer,2021.2.3,59.939101871071834,
143.8,144.0,5,0.0,Stimuli\Blank.png,0,0,0,241,241,241,,,,,,,,,,,,,143.81076729999768,0.010767299997667124,None,178.64629750000313,178.64629750000313,178.64629750000313,178.64629750000313,178.64629750000313,178.64629750000313,178.64629750000313,178.64629750000313,,001,P018,2025_Mar_07_1805,CategoryLocalizer,2021.2.3,59.939101871071834,
144.0,144.8,2,0.75,Stimuli\ImageFiles-Set1\Bodies\Bodies_QuadStretch_00001.png,0,0,0,242,242,242,,,,,,,,,,,,,144.0258074999947,0.025807499994698446,None,178.8631377000056,178.8631377000056,178.8631377000056,178.8631377000056,178.8631377000056,178.8631377000056,178.8631377000056,178.8631377000056,,001,P018,2025_Mar_07_1805,CategoryLocalizer,2021.2.3,59.939101871071834,
144.8,145.0,5,0.0,Stimuli\Blank.png,0,0,0,243,243,243,,,,,,,,,,,,,144.82682850000128,0.02682850000127246,None,179.6471640000018,179.6471640000018,179.6471640000018,179.6471640000018,179.6471640000018,179.6471640000018,179.6471640000018,179.6471640000018,,001,P018,2025_Mar_07_1805,CategoryLocalizer,2021.2.3,59.939101871071834,
145.0,145.8,2,0.75,Stimuli\ImageFiles-Set1\Bodies\Bodies_Standing_00007.png,0,0,0,244,244,244,,,,,,,,,,,,,145.01109069999802,0.011090699998021591,None,179.84735110000474,179.84735110000474,179.84735110000474,179.84735110000474,179.84735110000474,179.84735110000474,179.84735110000474,179.84735110000474,,001,P018,2025_Mar_07_1805,CategoryLocalizer,2021.2.3,59.939101871071834,
145.8,146.0,5,0.0,Stimuli\Blank.png,0,0,0,245,245,245,,,,,,,,,,,,,145.82764289999614,0.027642899996124015,None,180.64805990000605,180.64805990000605,180.64805990000605,180.64805990000605,180.64805990000605,180.64805990000605,180.64805990000605,180.64805990000605,,001,P018,2025_Mar_07_1805,CategoryLocalizer,2021.2.3,59.939101871071834,
146.0,146.8,2,0.75,Stimuli\ImageFiles-Set1\Bodies\Bodies_Kicking_00007.png,0,0,0,246,246,246,,,,,,,,,,,,,146.01115030000074,0.011150300000736024,None,180.8315466999993,180.8315466999993,180.8315466999993,180.8315466999993,180.8315466999993,180.8315466999993,180.8315466999993,180.8315466999993,,001,P018,2025_Mar_07_1805,CategoryLocalizer,2021.2.3,59.939101871071834,
146.8,147.0,5,0.0,Stimuli\Blank.png,0,0,0,247,247,247,,,,,,,,,,,,,146.81167229999846,0.011672299998451763,None,181.63225539999985,181.63225539999985,181.63225539999985,181.63225539999985,181.63225539999985,181.63225539999985,181.63225539999985,181.63225539999985,,001,P018,2025_Mar_07_1805,CategoryLocalizer,2021.2.3,59.939101871071834,
147.0,147.8,2,0.75,Stimuli\ImageFiles-Set1\Bodies\Bodies_Hanging_00002.png,1,1,0,248,248,248,,,,,,,,,,,,,147.01116799999727,0.011167999997269362,None,181.83242630000314,181.83242630000314,181.83242630000314,181.83242630000314,181.83242630000314,181.83242630000314,181.83242630000314,181.83242630000314,,001,P018,2025_Mar_07_1805,CategoryLocalizer,2021.2.3,59.939101871071834,
147.8,148.0,5,0.0,Stimuli\Blank.png,0,0,0,249,249,249,,,,,,,,,,,,,147.81217710000055,0.012177100000542396,None,182.63313720000588,182.63313720000588,182.63313720000588,182.63313720000588,182.63313720000588,182.63313720000588,182.63313720000588,182.63313720000588,,001,P018,2025_Mar_07_1805,CategoryLocalizer,2021.2.3,59.939101871071834,
148.0,148.8,2,0.75,Stimuli\ImageFiles-Set1\Bodies\Bodies_Crawling_00003.png,0,0,0,250,250,250,,,,,,,,,,,,,148.012619299996,0.012619299996003974,None,182.8500270000004,182.8500270000004,182.8500270000004,182.8500270000004,182.8500270000004,182.8500270000004,182.8500270000004,182.8500270000004,,001,P018,2025_Mar_07_1805,CategoryLocalizer,2021.2.3,59.939101871071834,
148.8,149.0,5,0.0,Stimuli\Blank.png,0,0,0,251,251,251,,,,,,,,,,,,,148.83034139999654,0.030341399996530072,None,183.65071080000052,183.65071080000052,183.65071080000052,183.65071080000052,183.65071080000052,183.65071080000052,183.65071080000052,183.65071080000052,,001,P018,2025_Mar_07_1805,CategoryLocalizer,2021.2.3,59.939101871071834,
149.0,149.8,2,0.75,Stimuli\ImageFiles-Set1\Bodies\Bodies_Crawling_00003.png,0,0,0,252,252,252,,,,,,,,,,,,,149.01373549999698,0.01373549999698298,2,183.83421760000056,183.83421760000056,183.83421760000056,183.83421760000056,183.83421760000056,183.83421760000056,183.83421760000056,183.83421760000056,0.3006406999993487,001,P018,2025_Mar_07_1805,CategoryLocalizer,2021.2.3,59.939101871071834,
149.8,150.0,5,0.0,Stimuli\Blank.png,0,0,0,253,253,253,,,,,,,,,,,,,149.81454790000134,0.014547900001332437,None,184.6349326999989,184.6349326999989,184.6349326999989,184.6349326999989,184.6349326999989,184.6349326999989,184.6349326999989,184.6349326999989,,001,P018,2025_Mar_07_1805,CategoryLocalizer,2021.2.3,59.939101871071834,
150.0,150.8,2,0.75,Stimuli\ImageFiles-Set1\Bodies\Bodies_Punching_00001.png,0,0,0,254,254,254,,,,,,,,,,,,,150.01474510000116,0.014745100001164246,None,184.8350919000004,184.8350919000004,184.8350919000004,184.8350919000004,184.8350919000004,184.8350919000004,184.8350919000004,184.8350919000004,,001,P018,2025_Mar_07_1805,CategoryLocalizer,2021.2.3,59.939101871071834,
150.8,151.0,5,0.0,Stimuli\Blank.png,0,0,0,255,255,255,,,,,,,,,,,,,150.8156747999965,0.01567479999647503,None,185.63579720000416,185.63579720000416,185.63579720000416,185.63579720000416,185.63579720000416,185.63579720000416,185.63579720000416,185.63579720000416,,001,P018,2025_Mar_07_1805,CategoryLocalizer,2021.2.3,59.939101871071834,
151.0,151.8,2,0.75,Stimuli\ImageFiles-Set1\Bodies\Bodies_Lunging_00004.png,0,0,0,256,256,256,,,,,,,,,,,,,151.0016370999947,0.0016370999946957454,None,185.83603900000162,185.83603900000162,185.83603900000162,185.83603900000162,185.83603900000162,185.83603900000162,185.83603900000162,185.83603900000162,,001,P018,2025_Mar_07_1805,CategoryLocalizer,2021.2.3,59.939101871071834,
151.8,152.0,5,0.0,Stimuli\Blank.png,0,0,0,257,257,257,,,,,,,,,,,,,151.81670859999576,0.016708599995752138,None,186.63667610000266,186.63667610000266,186.63667610000266,186.63667610000266,186.63667610000266,186.63667610000266,186.63667610000266,186.63667610000266,,001,P018,2025_Mar_07_1805,CategoryLocalizer,2021.2.3,59.939101871071834,
152.0,164.0,0,0.0,Stimuli\Blank.png,0,0,0,258,258,258,,,,,,,,,,,,,151.99951389999478,-0.0004861000052187592,None,186.82023930000287,186.82023930000287,186.82023930000287,186.82023930000287,186.82023930000287,186.82023930000287,186.82023930000287,186.82023930000287,,001,P018,2025_Mar_07_1805,CategoryLocalizer,2021.2.3,59.939101871071834,
164.0,164.8,4,0.75,Stimuli\ImageFiles-Set1\Scenes\Scenes_041.png,0,0,0,259,259,259,,,,,,,,,,,,,164.01050319999922,0.01050319999922067,None,198.84747150000476,198.84747150000476,198.84747150000476,198.84747150000476,198.84747150000476,198.84747150000476,198.84747150000476,198.84747150000476,,001,P018,2025_Mar_07_1805,CategoryLocalizer,2021.2.3,59.939101871071834,
164.8,165.0,5,0.0,Stimuli\Blank.png,0,0,0,260,260,260,,,,,,,,,,,,,164.8270637999958,0.02706379999580122,None,199.64818509999895,199.64818509999895,199.64818509999895,199.64818509999895,199.64818509999895,199.64818509999895,199.64818509999895,199.64818509999895,,001,P018,2025_Mar_07_1805,CategoryLocalizer,2021.2.3,59.939101871071834,
165.0,165.8,4,0.75,Stimuli\ImageFiles-Set1\Scenes\Scenes_029.png,0,0,0,261,261,261,,,,,,,,,,,,,165.01142889999755,0.011428899997554254,None,199.84835179999936,199.84835179999936,199.84835179999936,199.84835179999936,199.84835179999936,199.84835179999936,199.84835179999936,199.84835179999936,,001,P018,2025_Mar_07_1805,CategoryLocalizer,2021.2.3,59.939101871071834,
165.8,166.0,5,0.0,Stimuli\Blank.png,0,0,0,262,262,262,,,,,,,,,,,,,165.82799499999965,0.02799499999963473,None,200.6490685000026,200.6490685000026,200.6490685000026,200.6490685000026,200.6490685000026,200.6490685000026,200.6490685000026,200.6490685000026,,001,P018,2025_Mar_07_1805,CategoryLocalizer,2021.2.3,59.939101871071834,
166.0,166.8,4,0.75,Stimuli\ImageFiles-Set1\Scenes\Scenes_001.png,0,0,0,263,263,263,,,,,,,,,,,,,166.01208960000076,0.012089600000763312,None,200.832562399999,200.832562399999,200.832562399999,200.832562399999,200.832562399999,200.832562399999,200.832562399999,200.832562399999,,001,P018,2025_Mar_07_1805,CategoryLocalizer,2021.2.3,59.939101871071834,
166.8,167.0,5,0.0,Stimuli\Blank.png,0,0,0,264,264,264,,,,,,,,,,,,,166.81259950000094,0.01259950000093113,None,201.63327430000209,201.63327430000209,201.63327430000209,201.63327430000209,201.63327430000209,201.63327430000209,201.63327430000209,201.63327430000209,,001,P018,2025_Mar_07_1805,CategoryLocalizer,2021.2.3,59.939101871071834,
167.0,167.8,4,0.75,Stimuli\ImageFiles-Set1\Scenes\Scenes_028.png,0,0,0,265,265,265,,,,,,,,,,,,,167.01232199999504,0.012321999995037913,None,201.833455400003,201.833455400003,201.833455400003,201.833455400003,201.833455400003,201.833455400003,201.833455400003,201.833455400003,,001,P018,2025_Mar_07_1805,CategoryLocalizer,2021.2.3,59.939101871071834,
167.8,168.0,5,0.0,Stimuli\Blank.png,0,0,0,266,266,266,,,,,,,,,,,,,167.8138231999983,0.013823199998284963,None,202.63417430000118,202.63417430000118,202.63417430000118,202.63417430000118,202.63417430000118,202.63417430000118,202.63417430000118,202.63417430000118,,001,P018,2025_Mar_07_1805,CategoryLocalizer,2021.2.3,59.939101871071834,
168.0,168.8,4,0.75,Stimuli\ImageFiles-Set1\Scenes\Scenes_055.png,0,0,0,267,267,267,,,,,,,,,,,,,168.01388230000157,0.013882300001569092,None,202.85105450000265,202.85105450000265,202.85105450000265,202.85105450000265,202.85105450000265,202.85105450000265,202.85105450000265,202.85105450000265,,001,P018,2025_Mar_07_1805,CategoryLocalizer,2021.2.3,59.939101871071834,
168.8,169.0,5,0.0,Stimuli\Blank.png,0,0,0,268,268,268,,,,,,,,,,,,,168.83127729999978,0.03127729999977191,None,203.65172000000166,203.65172000000166,203.65172000000166,203.65172000000166,203.65172000000166,203.65172000000166,203.65172000000166,203.65172000000166,,001,P018,2025_Mar_07_1805,CategoryLocalizer,2021.2.3,59.939101871071834,
169.0,169.8,4,0.75,Stimuli\ImageFiles-Set1\Scenes\Scenes_031.png,0,0,0,269,269,269,,,,,,,,,,,,,169.01578109999537,0.015781099995365366,None,203.85190420000436,203.85190420000436,203.85190420000436,203.85190420000436,203.85190420000436,203.85190420000436,203.85190420000436,203.85190420000436,,001,P018,2025_Mar_07_1805,CategoryLocalizer,2021.2.3,59.939101871071834,
169.8,170.0,5,0.0,Stimuli\Blank.png,0,0,0,270,270,270,,,,,,,,,,,,,169.81484069999715,0.014840699997137108,None,204.63591360000282,204.63591360000282,204.63591360000282,204.63591360000282,204.63591360000282,204.63591360000282,204.63591360000282,204.63591360000282,,001,P018,2025_Mar_07_1805,CategoryLocalizer,2021.2.3,59.939101871071834,
170.0,170.8,4,0.75,Stimuli\ImageFiles-Set1\Scenes\Scenes_054.png,0,0,0,271,271,271,,,,,,,,,,,,,170.01608299999498,0.01608299999497831,None,204.85277750000387,204.85277750000387,204.85277750000387,204.85277750000387,204.85277750000387,204.85277750000387,204.85277750000387,204.85277750000387,,001,P018,2025_Mar_07_1805,CategoryLocalizer,2021.2.3,59.939101871071834,
170.8,171.0,5,0.0,Stimuli\Blank.png,0,0,0,272,272,272,,,,,,,,,,,,,170.81567399999767,0.015673999997659394,None,205.63682270000572,205.63682270000572,205.63682270000572,205.63682270000572,205.63682270000572,205.63682270000572,205.63682270000572,205.63682270000572,,001,P018,2025_Mar_07_1805,CategoryLocalizer,2021.2.3,59.939101871071834,
171.0,171.8,4,0.75,Stimuli\ImageFiles-Set1\Scenes\Scenes_060.png,0,0,0,273,273,273,,,,,,,,,,,,,171.00108539999928,0.0010853999992832541,None,205.83698949999962,205.83698949999962,205.83698949999962,205.83698949999962,205.83698949999962,205.83698949999962,205.83698949999962,205.83698949999962,,001,P018,2025_Mar_07_1805,CategoryLocalizer,2021.2.3,59.939101871071834,
171.8,172.0,5,0.0,Stimuli\Blank.png,0,0,0,274,274,274,,,,,,,,,,,,,171.81646080000064,0.01646080000062966,None,206.63768849999906,206.63768849999906,206.63768849999906,206.63768849999906,206.63768849999906,206.63768849999906,206.63768849999906,206.63768849999906,,001,P018,2025_Mar_07_1805,CategoryLocalizer,2021.2.3,59.939101871071834,
172.0,172.8,4,0.75,Stimuli\ImageFiles-Set1\Scenes\Scenes_022.png,0,0,0,275,275,275,,,,,,,,,,,,,172.00059239999973,0.0005923999997321516,None,206.83787690000463,206.83787690000463,206.83787690000463,206.83787690000463,206.83787690000463,206.83787690000463,206.83787690000463,206.83787690000463,,001,P018,2025_Mar_07_1805,CategoryLocalizer,2021.2.3,59.939101871071834,
172.8,173.0,5,0.0,Stimuli\Blank.png,0,0,0,276,276,276,,,,,,,,,,,,,172.81805899999745,0.018058999997435876,None,207.63857520000602,207.63857520000602,207.63857520000602,207.63857520000602,207.63857520000602,207.63857520000602,207.63857520000602,207.63857520000602,,001,P018,2025_Mar_07_1805,CategoryLocalizer,2021.2.3,59.939101871071834,
173.0,173.8,4,0.75,Stimuli\ImageFiles-Set1\Scenes\Scenes_050.png,0,0,0,277,277,277,,,,,,,,,,,,,173.00226180000027,0.0022618000002694316,None,207.8387520000033,207.8387520000033,207.8387520000033,207.8387520000033,207.8387520000033,207.8387520000033,207.8387520000033,207.8387520000033,,001,P018,2025_Mar_07_1805,CategoryLocalizer,2021.2.3,59.939101871071834,
173.8,174.0,5,0.0,Stimuli\Blank.png,0,0,0,278,278,278,,,,,,,,,,,,,173.81821159999527,0.018211599995254346,None,208.6394552999991,208.6394552999991,208.6394552999991,208.6394552999991,208.6394552999991,208.6394552999991,208.6394552999991,208.6394552999991,,001,P018,2025_Mar_07_1805,CategoryLocalizer,2021.2.3,59.939101871071834,
174.0,174.8,4,0.75,Stimuli\ImageFiles-Set1\Scenes\Scenes_027.png,0,0,0,279,279,279,,,,,,,,,,,,,174.0028009999951,0.0028009999950882047,None,208.83964050000213,208.83964050000213,208.83964050000213,208.83964050000213,208.83964050000213,208.83964050000213,208.83964050000213,208.83964050000213,,001,P018,2025_Mar_07_1805,CategoryLocalizer,2021.2.3,59.939101871071834,
174.8,175.0,5,0.0,Stimuli\Blank.png,0,0,0,280,280,280,,,,,,,,,,,,,174.8198205000008,0.019820500000776065,None,209.6403524000052,209.6403524000052,209.6403524000052,209.6403524000052,209.6403524000052,209.6403524000052,209.6403524000052,209.6403524000052,,001,P018,2025_Mar_07_1805,CategoryLocalizer,2021.2.3,59.939101871071834,
175.0,175.8,4,0.75,Stimuli\ImageFiles-Set1\Scenes\Scenes_027.png,1,1,0,281,281,281,,,,,,,,,,,,,175.00397789999988,0.003977899999881629,2,209.84051439999894,209.84051439999894,209.84051439999894,209.84051439999894,209.84051439999894,209.84051439999894,209.84051439999894,209.84051439999894,0.29131129999586847,001,P018,2025_Mar_07_1805,CategoryLocalizer,2021.2.3,59.939101871071834,
175.8,176.0,5,0.0,Stimuli\Blank.png,0,0,0,282,282,282,,,,,,,,,,,,,175.82082739999896,0.020827399998950114,None,210.64123400000244,210.64123400000244,210.64123400000244,210.64123400000244,210.64123400000244,210.64123400000244,210.64123400000244,210.64123400000244,,001,P018,2025_Mar_07_1805,CategoryLocalizer,2021.2.3,59.939101871071834,
176.0,176.8,4,0.75,Stimuli\ImageFiles-Set1\Scenes\Scenes_049.png,0,0,0,283,283,283,,,,,,,,,,,,,176.0054941999988,0.005494199998793192,None,210.84140850000404,210.84140850000404,210.84140850000404,210.84140850000404,210.84140850000404,210.84140850000404,210.84140850000404,210.84140850000404,,001,P018,2025_Mar_07_1805,CategoryLocalizer,2021.2.3,59.939101871071834,
176.8,177.0,5,0.0,Stimuli\Blank.png,0,0,0,284,284,284,,,,,,,,,,,,,176.82150769999862,0.021507699998608132,None,211.64210870000534,211.64210870000534,211.64210870000534,211.64210870000534,211.64210870000534,211.64210870000534,211.64210870000534,211.64210870000534,,001,P018,2025_Mar_07_1805,CategoryLocalizer,2021.2.3,59.939101871071834,
