eventStartTime,eventEndTime,eventCond,imSize,imFile,repeatedImage,responseEvent,Events.thisRepN,Events.thisTrialN,Events.thisN,Events.thisIndex,Instructions.started,Instructions.stopped,participantReadyResponse.keys,participantReadyResponse.rt,participantReadyResponse.started,participantReadyResponse.stopped,startWaitforTrigger,triggerResponse.keys,triggerResponse.rt,triggerResponse.started,triggerResponse.stopped,globalTimer,actualStartTime,startTimingDiff,participantResponse.keys,participantResponse.started,participantResponse.stopped,image.started,image.stopped,fixationOutside.started,fixationOutside.stopped,fixationInside.started,fixationInside.stopped,participantResponse.rt,session,participant,date,expName,psychopyVersion,frameRate,
,,,,,,,,,,,14.892384400000083,None,1,9.397427800000514,14.892384400000083,None,,,,,,,,,,,,,,,,,,,003,P019,2025_Mar_21_1102,CategoryLocalizer,2021.2.3,59.93924558100149,
,,,,,,,,,,,,,,,,,24.304638099998556,5,14.710038899998835,24.317803699999786,None,,,,,,,,,,,,,,003,P019,2025_Mar_21_1102,CategoryLocalizer,2021.2.3,59.93924558100149,
0.0,12.0,0,0.0,Stimuli\Blank.png,0,0,0,0,0,0,,,,,,,,,,,,39.03506339999876,0.05888939999931608,0.05888939999931608,None,39.11497259999851,None,39.11497259999851,None,39.11497259999851,None,39.11497259999851,None,,003,P019,2025_Mar_21_1102,CategoryLocalizer,2021.2.3,59.93924558100149,
12.0,12.8,1,0.75,Stimuli\ImageFiles-Set1\Objects\Object_Bed_00001.png,0,0,0,1,1,1,,,,,,,,,,,,,12.009644699999626,0.009644699999626027,None,51.05809329999829,51.05809329999829,51.05809329999829,51.05809329999829,51.05809329999829,51.05809329999829,51.05809329999829,51.05809329999829,,003,P019,2025_Mar_21_1102,CategoryLocalizer,2021.2.3,59.93924558100149,
12.8,13.0,5,0.0,Stimuli\Blank.png,0,0,0,2,2,2,,,,,,,,,,,,,12.809071499999845,0.00907149999984469,None,51.858810699999594,51.858810699999594,51.858810699999594,51.858810699999594,51.858810699999594,51.858810699999594,51.858810699999594,51.858810699999594,,003,P019,2025_Mar_21_1102,CategoryLocalizer,2021.2.3,59.93924558100149,
13.0,13.8,1,0.75,Stimuli\ImageFiles-Set1\Objects\Object_Bed_00001.png,1,1,0,3,3,3,,,,,,,,,,,,,13.00932880000073,0.009328800000730553,1,52.05897779999941,52.05897779999941,52.05897779999941,52.05897779999941,52.05897779999941,52.05897779999941,52.05897779999941,52.05897779999941,0.41981810000106634,003,P019,2025_Mar_21_1102,CategoryLocalizer,2021.2.3,59.93924558100149,
13.8,14.0,5,0.0,Stimuli\Blank.png,0,0,0,4,4,4,,,,,,,,,,,,,13.812144100000296,0.01214410000029531,None,52.87638199999856,52.87638199999856,52.87638199999856,52.87638199999856,52.87638199999856,52.87638199999856,52.87638199999856,52.87638199999856,,003,P019,2025_Mar_21_1102,CategoryLocalizer,2021.2.3,59.93924558100149,
14.0,14.8,1,0.75,Stimuli\ImageFiles-Set1\Objects\Object_Ring_00001.png,0,0,0,5,5,5,,,,,,,,,,,,,14.027785500000391,0.02778550000039104,None,53.09327269999994,53.09327269999994,53.09327269999994,53.09327269999994,53.09327269999994,53.09327269999994,53.09327269999994,53.09327269999994,,003,P019,2025_Mar_21_1102,CategoryLocalizer,2021.2.3,59.93924558100149,
14.8,15.0,5,0.0,Stimuli\Blank.png,0,0,0,6,6,6,,,,,,,,,,,,,14.82742049999979,0.02742049999978846,None,53.87726059999841,53.87726059999841,53.87726059999841,53.87726059999841,53.87726059999841,53.87726059999841,53.87726059999841,53.87726059999841,,003,P019,2025_Mar_21_1102,CategoryLocalizer,2021.2.3,59.93924558100149,
15.0,15.8,1,0.75,Stimuli\ImageFiles-Set1\Objects\Object_Brush_00001.png,0,0,0,7,7,7,,,,,,,,,,,,,15.011695400000463,0.011695400000462541,None,54.09411529999852,54.09411529999852,54.09411529999852,54.09411529999852,54.09411529999852,54.09411529999852,54.09411529999852,54.09411529999852,,003,P019,2025_Mar_21_1102,CategoryLocalizer,2021.2.3,59.93924558100149,
15.8,16.0,5,0.0,Stimuli\Blank.png,0,0,0,8,8,8,,,,,,,,,,,,,15.847053600000436,0.047053600000435125,None,54.91151969999919,54.91151969999919,54.91151969999919,54.91151969999919,54.91151969999919,54.91151969999919,54.91151969999919,54.91151969999919,,003,P019,2025_Mar_21_1102,CategoryLocalizer,2021.2.3,59.93924558100149,
16.0,16.8,1,0.75,Stimuli\ImageFiles-Set1\Objects\Object_Watch_00001.png,0,0,0,9,9,9,,,,,,,,,,,,,16.028556499999468,0.028556499999467633,None,55.078314299998965,55.078314299998965,55.078314299998965,55.078314299998965,55.078314299998965,55.078314299998965,55.078314299998965,55.078314299998965,,003,P019,2025_Mar_21_1102,CategoryLocalizer,2021.2.3,59.93924558100149,
16.8,17.0,5,0.0,Stimuli\Blank.png,0,0,0,10,10,10,,,,,,,,,,,,,16.813416799999686,0.01341679999968548,None,55.862317999999505,55.862317999999505,55.862317999999505,55.862317999999505,55.862317999999505,55.862317999999505,55.862317999999505,55.862317999999505,,003,P019,2025_Mar_21_1102,CategoryLocalizer,2021.2.3,59.93924558100149,
17.0,17.8,1,0.75,Stimuli\ImageFiles-Set1\Objects\Object_Football_00001.png,0,0,0,11,11,11,,,,,,,,,,,,,17.013485900000887,0.01348590000088734,None,56.079250099999626,56.079250099999626,56.079250099999626,56.079250099999626,56.079250099999626,56.079250099999626,56.079250099999626,56.079250099999626,,003,P019,2025_Mar_21_1102,CategoryLocalizer,2021.2.3,59.93924558100149,
17.8,18.0,5,0.0,Stimuli\Blank.png,0,0,0,12,12,12,,,,,,,,,,,,,17.832036400001016,0.03203640000101515,None,56.89662150000004,56.89662150000004,56.89662150000004,56.89662150000004,56.89662150000004,56.89662150000004,56.89662150000004,56.89662150000004,,003,P019,2025_Mar_21_1102,CategoryLocalizer,2021.2.3,59.93924558100149,
18.0,18.8,1,0.75,Stimuli\ImageFiles-Set1\Objects\Object_Airplane_00001.png,0,0,0,13,13,13,,,,,,,,,,,,,18.03080079999927,0.030800799999269657,None,57.08007879999968,57.08007879999968,57.08007879999968,57.08007879999968,57.08007879999968,57.08007879999968,57.08007879999968,57.08007879999968,,003,P019,2025_Mar_21_1102,CategoryLocalizer,2021.2.3,59.93924558100149,
18.8,19.0,5,0.0,Stimuli\Blank.png,0,0,0,14,14,14,,,,,,,,,,,,,18.81433250000009,0.014332500000090675,None,57.86411809999845,57.86411809999845,57.86411809999845,57.86411809999845,57.86411809999845,57.86411809999845,57.86411809999845,57.86411809999845,,003,P019,2025_Mar_21_1102,CategoryLocalizer,2021.2.3,59.93924558100149,
19.0,19.8,1,0.75,Stimuli\ImageFiles-Set1\Objects\Object_Lamp_00001.png,0,0,0,15,15,15,,,,,,,,,,,,,19.014512699999614,0.014512699999613687,None,58.06428429999869,58.06428429999869,58.06428429999869,58.06428429999869,58.06428429999869,58.06428429999869,58.06428429999869,58.06428429999869,,003,P019,2025_Mar_21_1102,CategoryLocalizer,2021.2.3,59.93924558100149,
19.8,20.0,5,0.0,Stimuli\Blank.png,0,0,0,16,16,16,,,,,,,,,,,,,19.817577800000436,0.017577800000434962,None,58.88171019999936,58.88171019999936,58.88171019999936,58.88171019999936,58.88171019999936,58.88171019999936,58.88171019999936,58.88171019999936,,003,P019,2025_Mar_21_1102,CategoryLocalizer,2021.2.3,59.93924558100149,
20.0,20.8,1,0.75,Stimuli\ImageFiles-Set1\Objects\Object_Pillow_00001.png,0,0,0,17,17,17,,,,,,,,,,,,,20.01749419999942,0.017494199999418925,None,59.081857999999556,59.081857999999556,59.081857999999556,59.081857999999556,59.081857999999556,59.081857999999556,59.081857999999556,59.081857999999556,,003,P019,2025_Mar_21_1102,CategoryLocalizer,2021.2.3,59.93924558100149,
20.8,21.0,5,0.0,Stimuli\Blank.png,0,0,0,18,18,18,,,,,,,,,,,,,20.817056600000797,0.017056600000795896,None,59.865889999999126,59.865889999999126,59.865889999999126,59.865889999999126,59.865889999999126,59.865889999999126,59.865889999999126,59.865889999999126,,003,P019,2025_Mar_21_1102,CategoryLocalizer,2021.2.3,59.93924558100149,
21.0,21.8,1,0.75,Stimuli\ImageFiles-Set1\Objects\Object_Knife_00001.png,0,0,0,19,19,19,,,,,,,,,,,,,21.000471699999252,0.00047169999925245065,None,60.04937819999941,60.04937819999941,60.04937819999941,60.04937819999941,60.04937819999941,60.04937819999941,60.04937819999941,60.04937819999941,,003,P019,2025_Mar_21_1102,CategoryLocalizer,2021.2.3,59.93924558100149,
21.8,22.0,5,0.0,Stimuli\Blank.png,0,0,0,20,20,20,,,,,,,,,,,,,21.802237899999454,0.002237899999453674,None,60.86681899999894,60.86681899999894,60.86681899999894,60.86681899999894,60.86681899999894,60.86681899999894,60.86681899999894,60.86681899999894,,003,P019,2025_Mar_21_1102,CategoryLocalizer,2021.2.3,59.93924558100149,
22.0,22.8,1,0.75,Stimuli\ImageFiles-Set1\Objects\Object_Box_00001.png,0,0,0,21,21,21,,,,,,,,,,,,,22.017794100000174,0.017794100000173785,None,61.08362719999968,61.08362719999968,61.08362719999968,61.08362719999968,61.08362719999968,61.08362719999968,61.08362719999968,61.08362719999968,,003,P019,2025_Mar_21_1102,CategoryLocalizer,2021.2.3,59.93924558100149,
22.8,23.0,5,0.0,Stimuli\Blank.png,0,0,0,22,22,22,,,,,,,,,,,,,22.818662499999846,0.01866249999984504,None,61.86764299999959,61.86764299999959,61.86764299999959,61.86764299999959,61.86764299999959,61.86764299999959,61.86764299999959,61.86764299999959,,003,P019,2025_Mar_21_1102,CategoryLocalizer,2021.2.3,59.93924558100149,
23.0,23.8,1,0.75,Stimuli\ImageFiles-Set1\Objects\Object_TeaBag_00001.png,1,1,0,23,23,23,,,,,,,,,,,,,23.001484599999458,0.0014845999994577141,None,62.05113959999835,62.05113959999835,62.05113959999835,62.05113959999835,62.05113959999835,62.05113959999835,62.05113959999835,62.05113959999835,,003,P019,2025_Mar_21_1102,CategoryLocalizer,2021.2.3,59.93924558100149,
23.8,24.0,5,0.0,Stimuli\Blank.png,0,0,0,24,24,24,,,,,,,,,,,,,23.802641100000983,0.002641100000982277,None,62.851853799998935,62.851853799998935,62.851853799998935,62.851853799998935,62.851853799998935,62.851853799998935,62.851853799998935,62.851853799998935,,003,P019,2025_Mar_21_1102,CategoryLocalizer,2021.2.3,59.93924558100149,
24.0,24.8,1,0.75,Stimuli\ImageFiles-Set1\Objects\Object_GarbageCan_00001.png,0,0,0,25,25,25,,,,,,,,,,,,,24.00273829999969,0.0027382999996916624,None,63.05203689999871,63.05203689999871,63.05203689999871,63.05203689999871,63.05203689999871,63.05203689999871,63.05203689999871,63.05203689999871,,003,P019,2025_Mar_21_1102,CategoryLocalizer,2021.2.3,59.93924558100149,
24.8,25.0,5,0.0,Stimuli\Blank.png,0,0,0,26,26,26,,,,,,,,,,,,,24.803301899999497,0.0033018999994958165,None,63.852742499999295,63.852742499999295,63.852742499999295,63.852742499999295,63.852742499999295,63.852742499999295,63.852742499999295,63.852742499999295,,003,P019,2025_Mar_21_1102,CategoryLocalizer,2021.2.3,59.93924558100149,
25.0,25.8,1,0.75,Stimuli\ImageFiles-Set1\Objects\Object_GarbageCan_00001.png,0,0,0,27,27,27,,,,,,,,,,,,,25.003225700000257,0.0032257000002573477,1,64.05291469999975,64.05291469999975,64.05291469999975,64.05291469999975,64.05291469999975,64.05291469999975,64.05291469999975,64.05291469999975,0.6838748999998643,003,P019,2025_Mar_21_1102,CategoryLocalizer,2021.2.3,59.93924558100149,
25.8,26.0,5,0.0,Stimuli\Blank.png,0,0,0,28,28,28,,,,,,,,,,,,,25.80480019999959,0.004800199999589694,None,64.85361399999965,64.85361399999965,64.85361399999965,64.85361399999965,64.85361399999965,64.85361399999965,64.85361399999965,64.85361399999965,,003,P019,2025_Mar_21_1102,CategoryLocalizer,2021.2.3,59.93924558100149,
26.0,26.8,1,0.75,Stimuli\ImageFiles-Set1\Objects\Object_Banana_00001.png,0,0,0,29,29,29,,,,,,,,,,,,,26.004039600000397,0.004039600000396604,None,65.07050469999922,65.07050469999922,65.07050469999922,65.07050469999922,65.07050469999922,65.07050469999922,65.07050469999922,65.07050469999922,,003,P019,2025_Mar_21_1102,CategoryLocalizer,2021.2.3,59.93924558100149,
26.8,27.0,5,0.0,Stimuli\Blank.png,0,0,0,30,30,30,,,,,,,,,,,,,26.822619599999598,0.022619599999597284,None,65.87120439999853,65.87120439999853,65.87120439999853,65.87120439999853,65.87120439999853,65.87120439999853,65.87120439999853,65.87120439999853,,003,P019,2025_Mar_21_1102,CategoryLocalizer,2021.2.3,59.93924558100149,
27.0,27.8,1,0.75,Stimuli\ImageFiles-Set1\Objects\Object_Highchair_00001.png,0,0,0,31,31,31,,,,,,,,,,,,,27.00578029999997,0.005780299999969429,None,66.0547407999984,66.0547407999984,66.0547407999984,66.0547407999984,66.0547407999984,66.0547407999984,66.0547407999984,66.0547407999984,,003,P019,2025_Mar_21_1102,CategoryLocalizer,2021.2.3,59.93924558100149,
27.8,28.0,5,0.0,Stimuli\Blank.png,0,0,0,32,32,32,,,,,,,,,,,,,27.80743149999944,0.007431499999437818,None,66.85540409999885,66.85540409999885,66.85540409999885,66.85540409999885,66.85540409999885,66.85540409999885,66.85540409999885,66.85540409999885,,003,P019,2025_Mar_21_1102,CategoryLocalizer,2021.2.3,59.93924558100149,
28.0,28.8,2,0.75,Stimuli\ImageFiles-Set1\Bodies\Bodies_SittingStretch_00005.png,0,0,0,33,33,33,,,,,,,,,,,,,28.00711720000072,0.0071172000007209135,None,67.05558089999977,67.05558089999977,67.05558089999977,67.05558089999977,67.05558089999977,67.05558089999977,67.05558089999977,67.05558089999977,,003,P019,2025_Mar_21_1102,CategoryLocalizer,2021.2.3,59.93924558100149,
28.8,29.0,5,0.0,Stimuli\Blank.png,0,0,0,34,34,34,,,,,,,,,,,,,28.806791400000293,0.006791400000292214,None,67.8562837999998,67.8562837999998,67.8562837999998,67.8562837999998,67.8562837999998,67.8562837999998,67.8562837999998,67.8562837999998,,003,P019,2025_Mar_21_1102,CategoryLocalizer,2021.2.3,59.93924558100149,
29.0,29.8,2,0.75,Stimuli\ImageFiles-Set1\Bodies\Bodies_Kneeling_00003.png,0,0,0,35,35,35,,,,,,,,,,,,,29.008714900000996,0.00871490000099584,None,68.07312649999949,68.07312649999949,68.07312649999949,68.07312649999949,68.07312649999949,68.07312649999949,68.07312649999949,68.07312649999949,,003,P019,2025_Mar_21_1102,CategoryLocalizer,2021.2.3,59.93924558100149,
29.8,30.0,5,0.0,Stimuli\Blank.png,0,0,0,36,36,36,,,,,,,,,,,,,29.825262800000928,0.0252628000009274,None,68.87384859999838,68.87384859999838,68.87384859999838,68.87384859999838,68.87384859999838,68.87384859999838,68.87384859999838,68.87384859999838,,003,P019,2025_Mar_21_1102,CategoryLocalizer,2021.2.3,59.93924558100149,
30.0,30.8,2,0.75,Stimuli\ImageFiles-Set1\Bodies\Bodies_Punching_00006.png,0,0,0,37,37,37,,,,,,,,,,,,,30.007916399999885,0.00791639999988547,None,69.05735719999939,69.05735719999939,69.05735719999939,69.05735719999939,69.05735719999939,69.05735719999939,69.05735719999939,69.05735719999939,,003,P019,2025_Mar_21_1102,CategoryLocalizer,2021.2.3,59.93924558100149,
30.8,31.0,5,0.0,Stimuli\Blank.png,0,0,0,38,38,38,,,,,,,,,,,,,30.80839229999947,0.008392299999467667,None,69.85803699999997,69.85803699999997,69.85803699999997,69.85803699999997,69.85803699999997,69.85803699999997,69.85803699999997,69.85803699999997,,003,P019,2025_Mar_21_1102,CategoryLocalizer,2021.2.3,59.93924558100149,
31.0,31.8,2,0.75,Stimuli\ImageFiles-Set1\Bodies\Bodies_Jumping_00002.png,0,0,0,39,39,39,,,,,,,,,,,,,31.00860289999946,0.008602899999459623,None,70.05821589999869,70.05821589999869,70.05821589999869,70.05821589999869,70.05821589999869,70.05821589999869,70.05821589999869,70.05821589999869,,003,P019,2025_Mar_21_1102,CategoryLocalizer,2021.2.3,59.93924558100149,
31.8,32.0,5,0.0,Stimuli\Blank.png,0,0,0,40,40,40,,,,,,,,,,,,,31.80926290000025,0.009262900000248209,None,70.85892109999986,70.85892109999986,70.85892109999986,70.85892109999986,70.85892109999986,70.85892109999986,70.85892109999986,70.85892109999986,,003,P019,2025_Mar_21_1102,CategoryLocalizer,2021.2.3,59.93924558100149,
32.0,32.8,2,0.75,Stimuli\ImageFiles-Set1\Bodies\Bodies_SittingChair_00001.png,0,0,0,41,41,41,,,,,,,,,,,,,32.01033029999962,0.010330299999623094,None,71.05910269999913,71.05910269999913,71.05910269999913,71.05910269999913,71.05910269999913,71.05910269999913,71.05910269999913,71.05910269999913,,003,P019,2025_Mar_21_1102,CategoryLocalizer,2021.2.3,59.93924558100149,
32.8,33.0,5,0.0,Stimuli\Blank.png,0,0,0,42,42,42,,,,,,,,,,,,,32.811371199999485,0.011371199999487658,None,71.85980189999827,71.85980189999827,71.85980189999827,71.85980189999827,71.85980189999827,71.85980189999827,71.85980189999827,71.85980189999827,,003,P019,2025_Mar_21_1102,CategoryLocalizer,2021.2.3,59.93924558100149,
33.0,33.8,2,0.75,Stimuli\ImageFiles-Set1\Bodies\Bodies_SittingChair_00001.png,1,1,0,43,43,43,,,,,,,,,,,,,33.01201020000008,0.01201020000007702,1,72.07667969999966,72.07667969999966,72.07667969999966,72.07667969999966,72.07667969999966,72.07667969999966,72.07667969999966,72.07667969999966,0.46845500000017637,003,P019,2025_Mar_21_1102,CategoryLocalizer,2021.2.3,59.93924558100149,
33.8,34.0,5,0.0,Stimuli\Blank.png,0,0,0,44,44,44,,,,,,,,,,,,,33.827626899999814,0.0276268999998166,None,72.87737429999834,72.87737429999834,72.87737429999834,72.87737429999834,72.87737429999834,72.87737429999834,72.87737429999834,72.87737429999834,,003,P019,2025_Mar_21_1102,CategoryLocalizer,2021.2.3,59.93924558100149,
34.0,34.8,2,0.75,Stimuli\ImageFiles-Set1\Bodies\Bodies_Kicking_00003.png,0,0,0,45,45,45,,,,,,,,,,,,,34.01164140000037,0.011641400000371505,None,73.06086929999947,73.06086929999947,73.06086929999947,73.06086929999947,73.06086929999947,73.06086929999947,73.06086929999947,73.06086929999947,,003,P019,2025_Mar_21_1102,CategoryLocalizer,2021.2.3,59.93924558100149,
34.8,35.0,5,0.0,Stimuli\Blank.png,0,0,0,46,46,46,,,,,,,,,,,,,34.812003000000914,0.012003000000916586,None,73.86158319999959,73.86158319999959,73.86158319999959,73.86158319999959,73.86158319999959,73.86158319999959,73.86158319999959,73.86158319999959,,003,P019,2025_Mar_21_1102,CategoryLocalizer,2021.2.3,59.93924558100149,
35.0,35.8,2,0.75,Stimuli\ImageFiles-Set1\Bodies\Bodies_SittingChair_00005.png,0,0,0,47,47,47,,,,,,,,,,,,,35.01243290000093,0.012432900000931113,None,74.06176199999936,74.06176199999936,74.06176199999936,74.06176199999936,74.06176199999936,74.06176199999936,74.06176199999936,74.06176199999936,,003,P019,2025_Mar_21_1102,CategoryLocalizer,2021.2.3,59.93924558100149,
35.8,36.0,5,0.0,Stimuli\Blank.png,0,0,0,48,48,48,,,,,,,,,,,,,35.81277410000075,0.012774100000754629,None,74.8624267999985,74.8624267999985,74.8624267999985,74.8624267999985,74.8624267999985,74.8624267999985,74.8624267999985,74.8624267999985,,003,P019,2025_Mar_21_1102,CategoryLocalizer,2021.2.3,59.93924558100149,
36.0,36.8,2,0.75,Stimuli\ImageFiles-Set1\Bodies\Bodies_Falling_00004.png,0,0,0,49,49,49,,,,,,,,,,,,,36.013813699999446,0.013813699999445817,None,75.0626386999993,75.0626386999993,75.0626386999993,75.0626386999993,75.0626386999993,75.0626386999993,75.0626386999993,75.0626386999993,,003,P019,2025_Mar_21_1102,CategoryLocalizer,2021.2.3,59.93924558100149,
36.8,37.0,5,0.0,Stimuli\Blank.png,0,0,0,50,50,50,,,,,,,,,,,,,36.81373899999926,0.013738999999262091,None,75.86334539999916,75.86334539999916,75.86334539999916,75.86334539999916,75.86334539999916,75.86334539999916,75.86334539999916,75.86334539999916,,003,P019,2025_Mar_21_1102,CategoryLocalizer,2021.2.3,59.93924558100149,
37.0,37.8,2,0.75,Stimuli\ImageFiles-Set1\Bodies\Bodies_Kicking_00005.png,0,0,0,51,51,51,,,,,,,,,,,,,37.01387520000026,0.013875200000256882,None,76.08021909999843,76.08021909999843,76.08021909999843,76.08021909999843,76.08021909999843,76.08021909999843,76.08021909999843,76.08021909999843,,003,P019,2025_Mar_21_1102,CategoryLocalizer,2021.2.3,59.93924558100149,
37.8,38.0,5,0.0,Stimuli\Blank.png,0,0,0,52,52,52,,,,,,,,,,,,,37.831861599999684,0.03186159999968652,None,76.8809188999985,76.8809188999985,76.8809188999985,76.8809188999985,76.8809188999985,76.8809188999985,76.8809188999985,76.8809188999985,,003,P019,2025_Mar_21_1102,CategoryLocalizer,2021.2.3,59.93924558100149,
38.0,38.8,2,0.75,Stimuli\ImageFiles-Set1\Bodies\Bodies_SittingFloor_00007.png,0,0,0,53,53,53,,,,,,,,,,,,,38.014781399999265,0.014781399999264977,None,77.08110779999879,77.08110779999879,77.08110779999879,77.08110779999879,77.08110779999879,77.08110779999879,77.08110779999879,77.08110779999879,,003,P019,2025_Mar_21_1102,CategoryLocalizer,2021.2.3,59.93924558100149,
38.8,39.0,5,0.0,Stimuli\Blank.png,0,0,0,54,54,54,,,,,,,,,,,,,38.832901499999934,0.0329014999999373,None,77.88181199999963,77.88181199999963,77.88181199999963,77.88181199999963,77.88181199999963,77.88181199999963,77.88181199999963,77.88181199999963,,003,P019,2025_Mar_21_1102,CategoryLocalizer,2021.2.3,59.93924558100149,
39.0,39.8,2,0.75,Stimuli\ImageFiles-Set1\Bodies\Bodies_Kneeling_00007.png,0,0,0,55,55,55,,,,,,,,,,,,,38.99907920000078,-0.0009207999992213445,None,78.04860479999843,78.04860479999843,78.04860479999843,78.04860479999843,78.04860479999843,78.04860479999843,78.04860479999843,78.04860479999843,,003,P019,2025_Mar_21_1102,CategoryLocalizer,2021.2.3,59.93924558100149,
39.8,40.0,5,0.0,Stimuli\Blank.png,0,0,0,56,56,56,,,,,,,,,,,,,39.79961800000092,-0.0003819999990781753,None,78.84931669999969,78.84931669999969,78.84931669999969,78.84931669999969,78.84931669999969,78.84931669999969,78.84931669999969,78.84931669999969,,003,P019,2025_Mar_21_1102,CategoryLocalizer,2021.2.3,59.93924558100149,
40.0,40.8,2,0.75,Stimuli\ImageFiles-Set1\Bodies\Bodies_Walking_00006.png,0,0,0,57,57,57,,,,,,,,,,,,,39.99975760000052,-0.0002423999994789483,None,79.04956009999842,79.04956009999842,79.04956009999842,79.04956009999842,79.04956009999842,79.04956009999842,79.04956009999842,79.04956009999842,,003,P019,2025_Mar_21_1102,CategoryLocalizer,2021.2.3,59.93924558100149,
40.8,41.0,5,0.0,Stimuli\Blank.png,0,0,0,58,58,58,,,,,,,,,,,,,40.802192000001014,0.002192000001016936,None,79.86689519999891,79.86689519999891,79.86689519999891,79.86689519999891,79.86689519999891,79.86689519999891,79.86689519999891,79.86689519999891,,003,P019,2025_Mar_21_1102,CategoryLocalizer,2021.2.3,59.93924558100149,
41.0,41.8,2,0.75,Stimuli\ImageFiles-Set1\Bodies\Bodies_SittingFloor_00003.png,0,0,0,59,59,59,,,,,,,,,,,,,41.01744409999992,0.01744409999992058,None,80.0837638999983,80.0837638999983,80.0837638999983,80.0837638999983,80.0837638999983,80.0837638999983,80.0837638999983,80.0837638999983,,003,P019,2025_Mar_21_1102,CategoryLocalizer,2021.2.3,59.93924558100149,
41.8,42.0,5,0.0,Stimuli\Blank.png,0,0,0,60,60,60,,,,,,,,,,,,,41.818005000000994,0.01800500000099703,None,80.86776839999948,80.86776839999948,80.86776839999948,80.86776839999948,80.86776839999948,80.86776839999948,80.86776839999948,80.86776839999948,,003,P019,2025_Mar_21_1102,CategoryLocalizer,2021.2.3,59.93924558100149,
42.0,42.8,2,0.75,Stimuli\ImageFiles-Set1\Bodies\Bodies_Lunging_00001.png,0,0,0,61,61,61,,,,,,,,,,,,,42.00243260000025,0.0024326000002474757,None,81.06794519999858,81.06794519999858,81.06794519999858,81.06794519999858,81.06794519999858,81.06794519999858,81.06794519999858,81.06794519999858,,003,P019,2025_Mar_21_1102,CategoryLocalizer,2021.2.3,59.93924558100149,
42.8,43.0,5,0.0,Stimuli\Blank.png,0,0,0,62,62,62,,,,,,,,,,,,,42.81941220000044,0.019412200000445523,None,81.86864849999984,81.86864849999984,81.86864849999984,81.86864849999984,81.86864849999984,81.86864849999984,81.86864849999984,81.86864849999984,,003,P019,2025_Mar_21_1102,CategoryLocalizer,2021.2.3,59.93924558100149,
43.0,43.8,2,0.75,Stimuli\ImageFiles-Set1\Bodies\Bodies_Running_00006.png,0,0,0,63,63,63,,,,,,,,,,,,,43.00248649999958,0.002486499999577063,None,82.0521506999994,82.0521506999994,82.0521506999994,82.0521506999994,82.0521506999994,82.0521506999994,82.0521506999994,82.0521506999994,,003,P019,2025_Mar_21_1102,CategoryLocalizer,2021.2.3,59.93924558100149,
43.8,44.0,5,0.0,Stimuli\Blank.png,0,0,0,64,64,64,,,,,,,,,,,,,43.80326310000055,0.003263100000552299,None,82.85285099999965,82.85285099999965,82.85285099999965,82.85285099999965,82.85285099999965,82.85285099999965,82.85285099999965,82.85285099999965,,003,P019,2025_Mar_21_1102,CategoryLocalizer,2021.2.3,59.93924558100149,
44.0,44.8,3,0.75,Stimuli\ImageFiles-Set1\Faces\Face_00085.png,0,0,0,65,65,65,,,,,,,,,,,,,44.004416499999934,0.004416499999933876,None,83.05303739999908,83.05303739999908,83.05303739999908,83.05303739999908,83.05303739999908,83.05303739999908,83.05303739999908,83.05303739999908,,003,P019,2025_Mar_21_1102,CategoryLocalizer,2021.2.3,59.93924558100149,
44.8,45.0,5,0.0,Stimuli\Blank.png,0,0,0,66,66,66,,,,,,,,,,,,,44.804088000000775,0.00408800000077747,None,83.85374159999992,83.85374159999992,83.85374159999992,83.85374159999992,83.85374159999992,83.85374159999992,83.85374159999992,83.85374159999992,,003,P019,2025_Mar_21_1102,CategoryLocalizer,2021.2.3,59.93924558100149,
45.0,45.8,3,0.75,Stimuli\ImageFiles-Set1\Faces\Face_00097.png,0,0,0,67,67,67,,,,,,,,,,,,,45.00419289999991,0.00419289999990724,None,84.07059609999851,84.07059609999851,84.07059609999851,84.07059609999851,84.07059609999851,84.07059609999851,84.07059609999851,84.07059609999851,,003,P019,2025_Mar_21_1102,CategoryLocalizer,2021.2.3,59.93924558100149,
45.8,46.0,5,0.0,Stimuli\Blank.png,0,0,0,68,68,68,,,,,,,,,,,,,45.82166870000037,0.021668700000375907,None,84.87130869999964,84.87130869999964,84.87130869999964,84.87130869999964,84.87130869999964,84.87130869999964,84.87130869999964,84.87130869999964,,003,P019,2025_Mar_21_1102,CategoryLocalizer,2021.2.3,59.93924558100149,
46.0,46.8,3,0.75,Stimuli\ImageFiles-Set1\Faces\Face_00097.png,1,1,0,69,69,69,,,,,,,,,,,,,46.007691999999224,0.007691999999224208,1,85.07147439999972,85.07147439999972,85.07147439999972,85.07147439999972,85.07147439999972,85.07147439999972,85.07147439999972,85.07147439999972,0.5294326999992336,003,P019,2025_Mar_21_1102,CategoryLocalizer,2021.2.3,59.93924558100149,
46.8,47.0,5,0.0,Stimuli\Blank.png,0,0,0,70,70,70,,,,,,,,,,,,,46.82307960000071,0.023079600000713185,None,85.87220529999831,85.87220529999831,85.87220529999831,85.87220529999831,85.87220529999831,85.87220529999831,85.87220529999831,85.87220529999831,,003,P019,2025_Mar_21_1102,CategoryLocalizer,2021.2.3,59.93924558100149,
47.0,47.8,3,0.75,Stimuli\ImageFiles-Set1\Faces\Face_00071.png,0,0,0,71,71,71,,,,,,,,,,,,,47.007388800000626,0.007388800000626361,None,86.07236959999864,86.07236959999864,86.07236959999864,86.07236959999864,86.07236959999864,86.07236959999864,86.07236959999864,86.07236959999864,,003,P019,2025_Mar_21_1102,CategoryLocalizer,2021.2.3,59.93924558100149,
47.8,48.0,5,0.0,Stimuli\Blank.png,0,0,0,72,72,72,,,,,,,,,,,,,47.82331440000053,0.023314400000529645,None,86.87306790000002,86.87306790000002,86.87306790000002,86.87306790000002,86.87306790000002,86.87306790000002,86.87306790000002,86.87306790000002,,003,P019,2025_Mar_21_1102,CategoryLocalizer,2021.2.3,59.93924558100149,
48.0,48.8,3,0.75,Stimuli\ImageFiles-Set1\Faces\Face_00027.png,0,0,0,73,73,73,,,,,,,,,,,,,48.00740159999987,0.007401599999866448,None,87.07325579999997,87.07325579999997,87.07325579999997,87.07325579999997,87.07325579999997,87.07325579999997,87.07325579999997,87.07325579999997,,003,P019,2025_Mar_21_1102,CategoryLocalizer,2021.2.3,59.93924558100149,
48.8,49.0,5,0.0,Stimuli\Blank.png,0,0,0,74,74,74,,,,,,,,,,,,,48.824937400000636,0.024937400000638377,None,87.87396399999852,87.87396399999852,87.87396399999852,87.87396399999852,87.87396399999852,87.87396399999852,87.87396399999852,87.87396399999852,,003,P019,2025_Mar_21_1102,CategoryLocalizer,2021.2.3,59.93924558100149,
49.0,49.8,3,0.75,Stimuli\ImageFiles-Set1\Faces\Face_00012.png,0,0,0,75,75,75,,,,,,,,,,,,,49.00775950000025,0.007759500000247499,None,88.05745209999986,88.05745209999986,88.05745209999986,88.05745209999986,88.05745209999986,88.05745209999986,88.05745209999986,88.05745209999986,,003,P019,2025_Mar_21_1102,CategoryLocalizer,2021.2.3,59.93924558100149,
49.8,50.0,5,0.0,Stimuli\Blank.png,0,0,0,76,76,76,,,,,,,,,,,,,49.80881790000058,0.00881790000057947,None,88.85815359999833,88.85815359999833,88.85815359999833,88.85815359999833,88.85815359999833,88.85815359999833,88.85815359999833,88.85815359999833,,003,P019,2025_Mar_21_1102,CategoryLocalizer,2021.2.3,59.93924558100149,
50.0,50.8,3,0.75,Stimuli\ImageFiles-Set1\Faces\Face_00005.png,0,0,0,77,77,77,,,,,,,,,,,,,50.009496200000285,0.009496200000285171,None,89.05833239999993,89.05833239999993,89.05833239999993,89.05833239999993,89.05833239999993,89.05833239999993,89.05833239999993,89.05833239999993,,003,P019,2025_Mar_21_1102,CategoryLocalizer,2021.2.3,59.93924558100149,
50.8,51.0,5,0.0,Stimuli\Blank.png,0,0,0,78,78,78,,,,,,,,,,,,,50.80930040000021,0.009300400000213926,None,89.85904159999882,89.85904159999882,89.85904159999882,89.85904159999882,89.85904159999882,89.85904159999882,89.85904159999882,89.85904159999882,,003,P019,2025_Mar_21_1102,CategoryLocalizer,2021.2.3,59.93924558100149,
51.0,51.8,3,0.75,Stimuli\ImageFiles-Set1\Faces\Face_00101.png,0,0,0,79,79,79,,,,,,,,,,,,,51.00967649999984,0.009676499999841326,None,90.05921319999834,90.05921319999834,90.05921319999834,90.05921319999834,90.05921319999834,90.05921319999834,90.05921319999834,90.05921319999834,,003,P019,2025_Mar_21_1102,CategoryLocalizer,2021.2.3,59.93924558100149,
51.8,52.0,5,0.0,Stimuli\Blank.png,0,0,0,80,80,80,,,,,,,,,,,,,51.81210330000067,0.012103300000674722,None,90.87662359999922,90.87662359999922,90.87662359999922,90.87662359999922,90.87662359999922,90.87662359999922,90.87662359999922,90.87662359999922,,003,P019,2025_Mar_21_1102,CategoryLocalizer,2021.2.3,59.93924558100149,
52.0,52.8,3,0.75,Stimuli\ImageFiles-Set1\Faces\Face_00018.png,0,0,0,81,81,81,,,,,,,,,,,,,52.02769090000038,0.02769090000037977,None,91.093464399999,91.093464399999,91.093464399999,91.093464399999,91.093464399999,91.093464399999,91.093464399999,91.093464399999,,003,P019,2025_Mar_21_1102,CategoryLocalizer,2021.2.3,59.93924558100149,
52.8,53.0,5,0.0,Stimuli\Blank.png,0,0,0,82,82,82,,,,,,,,,,,,,52.82775170000059,0.027751700000592905,None,91.87748909999937,91.87748909999937,91.87748909999937,91.87748909999937,91.87748909999937,91.87748909999937,91.87748909999937,91.87748909999937,,003,P019,2025_Mar_21_1102,CategoryLocalizer,2021.2.3,59.93924558100149,
53.0,53.8,3,0.75,Stimuli\ImageFiles-Set1\Faces\Face_00020.png,0,0,0,83,83,83,,,,,,,,,,,,,53.012003199999526,0.01200319999952626,None,92.07767409999906,92.07767409999906,92.07767409999906,92.07767409999906,92.07767409999906,92.07767409999906,92.07767409999906,92.07767409999906,,003,P019,2025_Mar_21_1102,CategoryLocalizer,2021.2.3,59.93924558100149,
53.8,54.0,5,0.0,Stimuli\Blank.png,0,0,0,84,84,84,,,,,,,,,,,,,53.829321700000946,0.029321700000949136,None,92.8783771999988,92.8783771999988,92.8783771999988,92.8783771999988,92.8783771999988,92.8783771999988,92.8783771999988,92.8783771999988,,003,P019,2025_Mar_21_1102,CategoryLocalizer,2021.2.3,59.93924558100149,
54.0,54.8,3,0.75,Stimuli\ImageFiles-Set1\Faces\Face_00087.png,0,0,0,85,85,85,,,,,,,,,,,,,54.012721999999485,0.012721999999484979,None,93.07854749999933,93.07854749999933,93.07854749999933,93.07854749999933,93.07854749999933,93.07854749999933,93.07854749999933,93.07854749999933,,003,P019,2025_Mar_21_1102,CategoryLocalizer,2021.2.3,59.93924558100149,
54.8,55.0,5,0.0,Stimuli\Blank.png,0,0,0,86,86,86,,,,,,,,,,,,,54.83014159999948,0.030141599999481627,None,93.87926639999932,93.87926639999932,93.87926639999932,93.87926639999932,93.87926639999932,93.87926639999932,93.87926639999932,93.87926639999932,,003,P019,2025_Mar_21_1102,CategoryLocalizer,2021.2.3,59.93924558100149,
55.0,55.8,3,0.75,Stimuli\ImageFiles-Set1\Faces\Face_00047.png,0,0,0,87,87,87,,,,,,,,,,,,,55.013011000000915,0.013011000000915374,None,94.07946209999864,94.07946209999864,94.07946209999864,94.07946209999864,94.07946209999864,94.07946209999864,94.07946209999864,94.07946209999864,,003,P019,2025_Mar_21_1102,CategoryLocalizer,2021.2.3,59.93924558100149,
55.8,56.0,5,0.0,Stimuli\Blank.png,0,0,0,88,88,88,,,,,,,,,,,,,55.83284149999963,0.03284149999963404,None,94.89683399999922,94.89683399999922,94.89683399999922,94.89683399999922,94.89683399999922,94.89683399999922,94.89683399999922,94.89683399999922,,003,P019,2025_Mar_21_1102,CategoryLocalizer,2021.2.3,59.93924558100149,
56.0,56.8,3,0.75,Stimuli\ImageFiles-Set1\Faces\Face_00077.png,0,0,0,89,89,89,,,,,,,,,,,,,56.014590200000384,0.014590200000384357,None,95.06363429999874,95.06363429999874,95.06363429999874,95.06363429999874,95.06363429999874,95.06363429999874,95.06363429999874,95.06363429999874,,003,P019,2025_Mar_21_1102,CategoryLocalizer,2021.2.3,59.93924558100149,
56.8,57.0,5,0.0,Stimuli\Blank.png,0,0,0,90,90,90,,,,,,,,,,,,,56.816846100000475,0.01684610000047826,None,95.88105609999911,95.88105609999911,95.88105609999911,95.88105609999911,95.88105609999911,95.88105609999911,95.88105609999911,95.88105609999911,,003,P019,2025_Mar_21_1102,CategoryLocalizer,2021.2.3,59.93924558100149,
57.0,57.8,3,0.75,Stimuli\ImageFiles-Set1\Faces\Face_00091.png,1,1,0,91,91,91,,,,,,,,,,,,,57.01677469999959,0.01677469999958703,None,96.08116859999973,96.08116859999973,96.08116859999973,96.08116859999973,96.08116859999973,96.08116859999973,96.08116859999973,96.08116859999973,,003,P019,2025_Mar_21_1102,CategoryLocalizer,2021.2.3,59.93924558100149,
57.8,58.0,5,0.0,Stimuli\Blank.png,0,0,0,92,92,92,,,,,,,,,,,,,57.817212899999504,0.017212899999506703,None,96.88192399999934,96.88192399999934,96.88192399999934,96.88192399999934,96.88192399999934,96.88192399999934,96.88192399999934,96.88192399999934,,003,P019,2025_Mar_21_1102,CategoryLocalizer,2021.2.3,59.93924558100149,
58.0,58.8,3,0.75,Stimuli\ImageFiles-Set1\Faces\Face_00059.png,0,0,0,93,93,93,,,,,,,,,,,,,58.01652060000015,0.01652060000014899,None,97.0820909999984,97.0820909999984,97.0820909999984,97.0820909999984,97.0820909999984,97.0820909999984,97.0820909999984,97.0820909999984,,003,P019,2025_Mar_21_1102,CategoryLocalizer,2021.2.3,59.93924558100149,
58.8,59.0,5,0.0,Stimuli\Blank.png,0,0,0,94,94,94,,,,,,,,,,,,,58.816694900000584,0.016694900000587154,None,97.86611589999848,97.86611589999848,97.86611589999848,97.86611589999848,97.86611589999848,97.86611589999848,97.86611589999848,97.86611589999848,,003,P019,2025_Mar_21_1102,CategoryLocalizer,2021.2.3,59.93924558100149,
59.0,59.8,3,0.75,Stimuli\ImageFiles-Set1\Faces\Face_00059.png,0,0,0,95,95,95,,,,,,,,,,,,,59.00345220000054,0.0034522000005381415,1,98.06629949999842,98.06629949999842,98.06629949999842,98.06629949999842,98.06629949999842,98.06629949999842,98.06629949999842,98.06629949999842,0.3845105999989755,003,P019,2025_Mar_21_1102,CategoryLocalizer,2021.2.3,59.93924558100149,
59.8,60.0,5,0.0,Stimuli\Blank.png,0,0,0,96,96,96,,,,,,,,,,,,,59.81888380000055,0.018883800000551787,None,98.86700659999951,98.86700659999951,98.86700659999951,98.86700659999951,98.86700659999951,98.86700659999951,98.86700659999951,98.86700659999951,,003,P019,2025_Mar_21_1102,CategoryLocalizer,2021.2.3,59.93924558100149,
60.0,60.8,4,0.75,Stimuli\ImageFiles-Set1\Scenes\Scenes_038.png,0,0,0,97,97,97,,,,,,,,,,,,,60.002626400000736,0.0026264000007358845,None,99.06718609999916,99.06718609999916,99.06718609999916,99.06718609999916,99.06718609999916,99.06718609999916,99.06718609999916,99.06718609999916,,003,P019,2025_Mar_21_1102,CategoryLocalizer,2021.2.3,59.93924558100149,
60.8,61.0,5,0.0,Stimuli\Blank.png,0,0,0,98,98,98,,,,,,,,,,,,,60.8181525,0.01815249999999935,None,99.86788729999898,99.86788729999898,99.86788729999898,99.86788729999898,99.86788729999898,99.86788729999898,99.86788729999898,99.86788729999898,,003,P019,2025_Mar_21_1102,CategoryLocalizer,2021.2.3,59.93924558100149,
61.0,61.8,4,0.75,Stimuli\ImageFiles-Set1\Scenes\Scenes_019.png,0,0,0,99,99,99,,,,,,,,,,,,,61.00155190000078,0.0015519000007770956,None,100.05137139999897,100.05137139999897,100.05137139999897,100.05137139999897,100.05137139999897,100.05137139999897,100.05137139999897,100.05137139999897,,003,P019,2025_Mar_21_1102,CategoryLocalizer,2021.2.3,59.93924558100149,
61.8,62.0,5,0.0,Stimuli\Blank.png,0,0,0,100,100,100,,,,,,,,,,,,,61.80292179999924,0.0029217999992425803,None,100.85209709999981,100.85209709999981,100.85209709999981,100.85209709999981,100.85209709999981,100.85209709999981,100.85209709999981,100.85209709999981,,003,P019,2025_Mar_21_1102,CategoryLocalizer,2021.2.3,59.93924558100149,
62.0,62.8,4,0.75,Stimuli\ImageFiles-Set1\Scenes\Scenes_013.png,0,0,0,101,101,101,,,,,,,,,,,,,62.00252399999954,0.002523999999539228,None,101.05226349999975,101.05226349999975,101.05226349999975,101.05226349999975,101.05226349999975,101.05226349999975,101.05226349999975,101.05226349999975,,003,P019,2025_Mar_21_1102,CategoryLocalizer,2021.2.3,59.93924558100149,
62.8,63.0,5,0.0,Stimuli\Blank.png,0,0,0,102,102,102,,,,,,,,,,,,,62.803372399999716,0.0033723999997192777,None,101.85296409999864,101.85296409999864,101.85296409999864,101.85296409999864,101.85296409999864,101.85296409999864,101.85296409999864,101.85296409999864,,003,P019,2025_Mar_21_1102,CategoryLocalizer,2021.2.3,59.93924558100149,
63.0,63.8,4,0.75,Stimuli\ImageFiles-Set1\Scenes\Scenes_014.png,0,0,0,103,103,103,,,,,,,,,,,,,63.003797100000156,0.003797100000156206,None,102.05315579999842,102.05315579999842,102.05315579999842,102.05315579999842,102.05315579999842,102.05315579999842,102.05315579999842,102.05315579999842,,003,P019,2025_Mar_21_1102,CategoryLocalizer,2021.2.3,59.93924558100149,
63.8,64.0,5,0.0,Stimuli\Blank.png,0,0,0,104,104,104,,,,,,,,,,,,,63.804154200000994,0.004154200000996866,None,102.85385489999862,102.85385489999862,102.85385489999862,102.85385489999862,102.85385489999862,102.85385489999862,102.85385489999862,102.85385489999862,,003,P019,2025_Mar_21_1102,CategoryLocalizer,2021.2.3,59.93924558100149,
64.0,64.8,4,0.75,Stimuli\ImageFiles-Set1\Scenes\Scenes_014.png,1,1,0,105,105,105,,,,,,,,,,,,,64.00432860000001,0.004328600000008009,1,103.05402899999899,103.05402899999899,103.05402899999899,103.05402899999899,103.05402899999899,103.05402899999899,103.05402899999899,103.05402899999899,0.49278050000066287,003,P019,2025_Mar_21_1102,CategoryLocalizer,2021.2.3,59.93924558100149,
64.8,65.0,5,0.0,Stimuli\Blank.png,0,0,0,106,106,106,,,,,,,,,,,,,64.80670029999965,0.006700299999650383,None,103.85472200000004,103.85472200000004,103.85472200000004,103.85472200000004,103.85472200000004,103.85472200000004,103.85472200000004,103.85472200000004,,003,P019,2025_Mar_21_1102,CategoryLocalizer,2021.2.3,59.93924558100149,
65.0,65.8,4,0.75,Stimuli\ImageFiles-Set1\Scenes\Scenes_003.png,0,0,0,107,107,107,,,,,,,,,,,,,65.00758619999942,0.0075861999994231155,None,104.07159929999943,104.07159929999943,104.07159929999943,104.07159929999943,104.07159929999943,104.07159929999943,104.07159929999943,104.07159929999943,,003,P019,2025_Mar_21_1102,CategoryLocalizer,2021.2.3,59.93924558100149,
65.8,66.0,5,0.0,Stimuli\Blank.png,0,0,0,108,108,108,,,,,,,,,,,,,65.8231025999994,0.02310259999940456,None,104.87230769999951,104.87230769999951,104.87230769999951,104.87230769999951,104.87230769999951,104.87230769999951,104.87230769999951,104.87230769999951,,003,P019,2025_Mar_21_1102,CategoryLocalizer,2021.2.3,59.93924558100149,
66.0,66.8,4,0.75,Stimuli\ImageFiles-Set1\Scenes\Scenes_035.png,0,0,0,109,109,109,,,,,,,,,,,,,66.00756159999946,0.007561599999462487,None,105.07248099999924,105.07248099999924,105.07248099999924,105.07248099999924,105.07248099999924,105.07248099999924,105.07248099999924,105.07248099999924,,003,P019,2025_Mar_21_1102,CategoryLocalizer,2021.2.3,59.93924558100149,
66.8,67.0,5,0.0,Stimuli\Blank.png,0,0,0,110,110,110,,,,,,,,,,,,,66.82356740000068,0.02356740000068669,None,105.87319429999843,105.87319429999843,105.87319429999843,105.87319429999843,105.87319429999843,105.87319429999843,105.87319429999843,105.87319429999843,,003,P019,2025_Mar_21_1102,CategoryLocalizer,2021.2.3,59.93924558100149,
67.0,67.8,4,0.75,Stimuli\ImageFiles-Set1\Scenes\Scenes_025.png,0,0,0,111,111,111,,,,,,,,,,,,,67.0075852000009,0.007585200000903569,None,106.07338029999846,106.07338029999846,106.07338029999846,106.07338029999846,106.07338029999846,106.07338029999846,106.07338029999846,106.07338029999846,,003,P019,2025_Mar_21_1102,CategoryLocalizer,2021.2.3,59.93924558100149,
67.8,68.0,5,0.0,Stimuli\Blank.png,0,0,0,112,112,112,,,,,,,,,,,,,67.82459489999928,0.024594899999286213,None,106.87407319999875,106.87407319999875,106.87407319999875,106.87407319999875,106.87407319999875,106.87407319999875,106.87407319999875,106.87407319999875,,003,P019,2025_Mar_21_1102,CategoryLocalizer,2021.2.3,59.93924558100149,
68.0,68.8,4,0.75,Stimuli\ImageFiles-Set1\Scenes\Scenes_004.png,0,0,0,113,113,113,,,,,,,,,,,,,68.00816169999962,0.008161699999618577,None,107.0742881999995,107.0742881999995,107.0742881999995,107.0742881999995,107.0742881999995,107.0742881999995,107.0742881999995,107.0742881999995,,003,P019,2025_Mar_21_1102,CategoryLocalizer,2021.2.3,59.93924558100149,
68.8,69.0,5,0.0,Stimuli\Blank.png,0,0,0,114,114,114,,,,,,,,,,,,,68.8253294999995,0.025329499999500626,None,107.87496009999995,107.87496009999995,107.87496009999995,107.87496009999995,107.87496009999995,107.87496009999995,107.87496009999995,107.87496009999995,,003,P019,2025_Mar_21_1102,CategoryLocalizer,2021.2.3,59.93924558100149,
69.0,69.8,4,0.75,Stimuli\ImageFiles-Set1\Scenes\Scenes_016.png,0,0,0,115,115,115,,,,,,,,,,,,,69.00937499999964,0.009374999999636202,None,108.05842649999977,108.05842649999977,108.05842649999977,108.05842649999977,108.05842649999977,108.05842649999977,108.05842649999977,108.05842649999977,,003,P019,2025_Mar_21_1102,CategoryLocalizer,2021.2.3,59.93924558100149,
69.8,70.0,5,0.0,Stimuli\Blank.png,0,0,0,116,116,116,,,,,,,,,,,,,69.81264349999947,0.01264349999947001,None,108.87586439999905,108.87586439999905,108.87586439999905,108.87586439999905,108.87586439999905,108.87586439999905,108.87586439999905,108.87586439999905,,003,P019,2025_Mar_21_1102,CategoryLocalizer,2021.2.3,59.93924558100149,
70.0,70.8,4,0.75,Stimuli\ImageFiles-Set1\Scenes\Scenes_001.png,1,1,0,117,117,117,,,,,,,,,,,,,70.02708370000073,0.02708370000073046,None,109.0760281999992,109.0760281999992,109.0760281999992,109.0760281999992,109.0760281999992,109.0760281999992,109.0760281999992,109.0760281999992,,003,P019,2025_Mar_21_1102,CategoryLocalizer,2021.2.3,59.93924558100149,
70.8,71.0,5,0.0,Stimuli\Blank.png,0,0,0,118,118,118,,,,,,,,,,,,,70.81166630000007,0.011666300000072738,None,109.86006129999987,109.86006129999987,109.86006129999987,109.86006129999987,109.86006129999987,109.86006129999987,109.86006129999987,109.86006129999987,,003,P019,2025_Mar_21_1102,CategoryLocalizer,2021.2.3,59.93924558100149,
71.0,71.8,4,0.75,Stimuli\ImageFiles-Set1\Scenes\Scenes_050.png,0,0,0,119,119,119,,,,,,,,,,,,,71.01215500000035,0.012155000000348082,None,110.07690299999922,110.07690299999922,110.07690299999922,110.07690299999922,110.07690299999922,110.07690299999922,110.07690299999922,110.07690299999922,,003,P019,2025_Mar_21_1102,CategoryLocalizer,2021.2.3,59.93924558100149,
71.8,72.0,5,0.0,Stimuli\Blank.png,0,0,0,120,120,120,,,,,,,,,,,,,71.82798139999977,0.027981399999774226,None,110.87762089999887,110.87762089999887,110.87762089999887,110.87762089999887,110.87762089999887,110.87762089999887,110.87762089999887,110.87762089999887,,003,P019,2025_Mar_21_1102,CategoryLocalizer,2021.2.3,59.93924558100149,
72.0,72.8,4,0.75,Stimuli\ImageFiles-Set1\Scenes\Scenes_050.png,0,0,0,121,121,121,,,,,,,,,,,,,72.01196069999969,0.011960699999690405,1,111.0611186999995,111.0611186999995,111.0611186999995,111.0611186999995,111.0611186999995,111.0611186999995,111.0611186999995,111.0611186999995,0.4956070999996882,003,P019,2025_Mar_21_1102,CategoryLocalizer,2021.2.3,59.93924558100149,
72.8,73.0,5,0.0,Stimuli\Blank.png,0,0,0,122,122,122,,,,,,,,,,,,,72.81322650000038,0.0132265000003855,None,111.86190019999958,111.86190019999958,111.86190019999958,111.86190019999958,111.86190019999958,111.86190019999958,111.86190019999958,111.86190019999958,,003,P019,2025_Mar_21_1102,CategoryLocalizer,2021.2.3,59.93924558100149,
73.0,73.8,4,0.75,Stimuli\ImageFiles-Set1\Scenes\Scenes_046.png,0,0,0,123,123,123,,,,,,,,,,,,,73.0128722999998,0.012872299999798997,None,112.0786954999985,112.0786954999985,112.0786954999985,112.0786954999985,112.0786954999985,112.0786954999985,112.0786954999985,112.0786954999985,,003,P019,2025_Mar_21_1102,CategoryLocalizer,2021.2.3,59.93924558100149,
73.8,74.0,5,0.0,Stimuli\Blank.png,0,0,0,124,124,124,,,,,,,,,,,,,73.83181089999925,0.03181089999925746,None,112.89607939999951,112.89607939999951,112.89607939999951,112.89607939999951,112.89607939999951,112.89607939999951,112.89607939999951,112.89607939999951,,003,P019,2025_Mar_21_1102,CategoryLocalizer,2021.2.3,59.93924558100149,
74.0,74.8,4,0.75,Stimuli\ImageFiles-Set1\Scenes\Scenes_011.png,0,0,0,125,125,125,,,,,,,,,,,,,74.02977860000101,0.02977860000100918,None,113.0795595999989,113.0795595999989,113.0795595999989,113.0795595999989,113.0795595999989,113.0795595999989,113.0795595999989,113.0795595999989,,003,P019,2025_Mar_21_1102,CategoryLocalizer,2021.2.3,59.93924558100149,
74.8,75.0,5,0.0,Stimuli\Blank.png,0,0,0,126,126,126,,,,,,,,,,,,,74.81490490000033,0.014904900000331622,None,113.86357529999987,113.86357529999987,113.86357529999987,113.86357529999987,113.86357529999987,113.86357529999987,113.86357529999987,113.86357529999987,,003,P019,2025_Mar_21_1102,CategoryLocalizer,2021.2.3,59.93924558100149,
75.0,75.8,4,0.75,Stimuli\ImageFiles-Set1\Scenes\Scenes_037.png,0,0,0,127,127,127,,,,,,,,,,,,,75.01749720000043,0.017497200000434532,None,114.08045049999964,114.08045049999964,114.08045049999964,114.08045049999964,114.08045049999964,114.08045049999964,114.08045049999964,114.08045049999964,,003,P019,2025_Mar_21_1102,CategoryLocalizer,2021.2.3,59.93924558100149,
75.8,76.0,5,0.0,Stimuli\Blank.png,0,0,0,128,128,128,,,,,,,,,,,,,75.81562640000084,0.01562640000084059,None,114.8644762999993,114.8644762999993,114.8644762999993,114.8644762999993,114.8644762999993,114.8644762999993,114.8644762999993,114.8644762999993,,003,P019,2025_Mar_21_1102,CategoryLocalizer,2021.2.3,59.93924558100149,
76.0,88.0,0,0.0,Stimuli\Blank.png,0,0,0,129,129,129,,,,,,,,,,,,,75.99834809999993,-0.0016519000000698725,None,115.04796759999954,115.04796759999954,115.04796759999954,115.04796759999954,115.04796759999954,115.04796759999954,115.04796759999954,115.04796759999954,,003,P019,2025_Mar_21_1102,CategoryLocalizer,2021.2.3,59.93924558100149,
88.0,88.8,3,0.75,Stimuli\ImageFiles-Set1\Faces\Face_00055.png,0,0,0,130,130,130,,,,,,,,,,,,,88.00896420000026,0.0089642000002641,None,127.05857130000004,127.05857130000004,127.05857130000004,127.05857130000004,127.05857130000004,127.05857130000004,127.05857130000004,127.05857130000004,,003,P019,2025_Mar_21_1102,CategoryLocalizer,2021.2.3,59.93924558100149,
88.8,89.0,5,0.0,Stimuli\Blank.png,0,0,0,131,131,131,,,,,,,,,,,,,88.80987930000083,0.009879300000832814,None,127.85928849999982,127.85928849999982,127.85928849999982,127.85928849999982,127.85928849999982,127.85928849999982,127.85928849999982,127.85928849999982,,003,P019,2025_Mar_21_1102,CategoryLocalizer,2021.2.3,59.93924558100149,
89.0,89.8,3,0.75,Stimuli\ImageFiles-Set1\Faces\Face_00075.png,0,0,0,132,132,132,,,,,,,,,,,,,89.01074010000048,0.01074010000047565,None,128.07614309999917,128.07614309999917,128.07614309999917,128.07614309999917,128.07614309999917,128.07614309999917,128.07614309999917,128.07614309999917,,003,P019,2025_Mar_21_1102,CategoryLocalizer,2021.2.3,59.93924558100149,
89.8,90.0,5,0.0,Stimuli\Blank.png,0,0,0,133,133,133,,,,,,,,,,,,,89.8286207000001,0.028620700000104193,None,128.87686509999912,128.87686509999912,128.87686509999912,128.87686509999912,128.87686509999912,128.87686509999912,128.87686509999912,128.87686509999912,,003,P019,2025_Mar_21_1102,CategoryLocalizer,2021.2.3,59.93924558100149,
90.0,90.8,3,0.75,Stimuli\ImageFiles-Set1\Faces\Face_00079.png,0,0,0,134,134,134,,,,,,,,,,,,,90.0113808999995,0.011380899999494432,None,129.06033939999907,129.06033939999907,129.06033939999907,129.06033939999907,129.06033939999907,129.06033939999907,129.06033939999907,129.06033939999907,,003,P019,2025_Mar_21_1102,CategoryLocalizer,2021.2.3,59.93924558100149,
90.8,91.0,5,0.0,Stimuli\Blank.png,0,0,0,135,135,135,,,,,,,,,,,,,90.81188099999963,0.01188099999963299,None,129.86118579999857,129.86118579999857,129.86118579999857,129.86118579999857,129.86118579999857,129.86118579999857,129.86118579999857,129.86118579999857,,003,P019,2025_Mar_21_1102,CategoryLocalizer,2021.2.3,59.93924558100149,
91.0,91.8,3,0.75,Stimuli\ImageFiles-Set1\Faces\Face_00039.png,0,0,0,136,136,136,,,,,,,,,,,,,91.01219400000082,0.01219400000081805,None,130.07793619999939,130.07793619999939,130.07793619999939,130.07793619999939,130.07793619999939,130.07793619999939,130.07793619999939,130.07793619999939,,003,P019,2025_Mar_21_1102,CategoryLocalizer,2021.2.3,59.93924558100149,
91.8,92.0,5,0.0,Stimuli\Blank.png,0,0,0,137,137,137,,,,,,,,,,,,,91.8299418000006,0.029941800000599983,None,130.87861649999832,130.87861649999832,130.87861649999832,130.87861649999832,130.87861649999832,130.87861649999832,130.87861649999832,130.87861649999832,,003,P019,2025_Mar_21_1102,CategoryLocalizer,2021.2.3,59.93924558100149,
92.0,92.8,3,0.75,Stimuli\ImageFiles-Set1\Faces\Face_00001.png,0,0,0,138,138,138,,,,,,,,,,,,,92.0124622000003,0.012462200000300072,None,131.06209829999898,131.06209829999898,131.06209829999898,131.06209829999898,131.06209829999898,131.06209829999898,131.06209829999898,131.06209829999898,,003,P019,2025_Mar_21_1102,CategoryLocalizer,2021.2.3,59.93924558100149,
92.8,93.0,5,0.0,Stimuli\Blank.png,0,0,0,139,139,139,,,,,,,,,,,,,92.81355609999991,0.013556099999917137,None,131.8628104999989,131.8628104999989,131.8628104999989,131.8628104999989,131.8628104999989,131.8628104999989,131.8628104999989,131.8628104999989,,003,P019,2025_Mar_21_1102,CategoryLocalizer,2021.2.3,59.93924558100149,
93.0,93.8,3,0.75,Stimuli\ImageFiles-Set1\Faces\Face_00001.png,1,1,0,140,140,140,,,,,,,,,,,,,93.0132666999998,0.013266699999803677,1,132.06299379999837,132.06299379999837,132.06299379999837,132.06299379999837,132.06299379999837,132.06299379999837,132.06299379999837,132.06299379999837,0.5307797999994364,003,P019,2025_Mar_21_1102,CategoryLocalizer,2021.2.3,59.93924558100149,
93.8,94.0,5,0.0,Stimuli\Blank.png,0,0,0,141,141,141,,,,,,,,,,,,,93.81412629999977,0.01412629999977355,None,132.86370319999878,132.86370319999878,132.86370319999878,132.86370319999878,132.86370319999878,132.86370319999878,132.86370319999878,132.86370319999878,,003,P019,2025_Mar_21_1102,CategoryLocalizer,2021.2.3,59.93924558100149,
94.0,94.8,3,0.75,Stimuli\ImageFiles-Set1\Faces\Face_00022.png,0,0,0,142,142,142,,,,,,,,,,,,,94.01473369999985,0.014733699999851524,None,133.0638659999986,133.0638659999986,133.0638659999986,133.0638659999986,133.0638659999986,133.0638659999986,133.0638659999986,133.0638659999986,,003,P019,2025_Mar_21_1102,CategoryLocalizer,2021.2.3,59.93924558100149,
94.8,95.0,5,0.0,Stimuli\Blank.png,0,0,0,143,143,143,,,,,,,,,,,,,94.81686740000077,0.01686740000077691,None,133.8812822,133.8812822,133.8812822,133.8812822,133.8812822,133.8812822,133.8812822,133.8812822,,003,P019,2025_Mar_21_1102,CategoryLocalizer,2021.2.3,59.93924558100149,
95.0,95.8,3,0.75,Stimuli\ImageFiles-Set1\Faces\Face_00043.png,0,0,0,144,144,144,,,,,,,,,,,,,95.01724380000087,0.01724380000086967,None,134.0814440999984,134.0814440999984,134.0814440999984,134.0814440999984,134.0814440999984,134.0814440999984,134.0814440999984,134.0814440999984,,003,P019,2025_Mar_21_1102,CategoryLocalizer,2021.2.3,59.93924558100149,
95.8,96.0,5,0.0,Stimuli\Blank.png,0,0,0,145,145,145,,,,,,,,,,,,,95.81687330000022,0.016873300000227687,None,134.86547249999967,134.86547249999967,134.86547249999967,134.86547249999967,134.86547249999967,134.86547249999967,134.86547249999967,134.86547249999967,,003,P019,2025_Mar_21_1102,CategoryLocalizer,2021.2.3,59.93924558100149,
96.0,96.8,3,0.75,Stimuli\ImageFiles-Set1\Faces\Face_00009.png,0,0,0,146,146,146,,,,,,,,,,,,,95.99915839999994,-0.0008416000000579515,None,135.04899159999877,135.04899159999877,135.04899159999877,135.04899159999877,135.04899159999877,135.04899159999877,135.04899159999877,135.04899159999877,,003,P019,2025_Mar_21_1102,CategoryLocalizer,2021.2.3,59.93924558100149,
96.8,97.0,5,0.0,Stimuli\Blank.png,0,0,0,147,147,147,,,,,,,,,,,,,96.7998776000004,-0.00012239999959717807,None,135.8496669999986,135.8496669999986,135.8496669999986,135.8496669999986,135.8496669999986,135.8496669999986,135.8496669999986,135.8496669999986,,003,P019,2025_Mar_21_1102,CategoryLocalizer,2021.2.3,59.93924558100149,
97.0,97.8,3,0.75,Stimuli\ImageFiles-Set1\Faces\Face_00099.png,1,1,0,148,148,148,,,,,,,,,,,,,97.00209279999945,0.0020927999994455604,None,136.06652889999896,136.06652889999896,136.06652889999896,136.06652889999896,136.06652889999896,136.06652889999896,136.06652889999896,136.06652889999896,,003,P019,2025_Mar_21_1102,CategoryLocalizer,2021.2.3,59.93924558100149,
97.8,98.0,5,0.0,Stimuli\Blank.png,0,0,0,149,149,149,,,,,,,,,,,,,97.81933019999997,0.019330199999970432,None,136.88394179999887,136.88394179999887,136.88394179999887,136.88394179999887,136.88394179999887,136.88394179999887,136.88394179999887,136.88394179999887,,003,P019,2025_Mar_21_1102,CategoryLocalizer,2021.2.3,59.93924558100149,
98.0,98.8,3,0.75,Stimuli\ImageFiles-Set1\Faces\Face_00035.png,0,0,0,150,150,150,,,,,,,,,,,,,98.01826179999989,0.018261799999891082,None,137.06741349999902,137.06741349999902,137.06741349999902,137.06741349999902,137.06741349999902,137.06741349999902,137.06741349999902,137.06741349999902,,003,P019,2025_Mar_21_1102,CategoryLocalizer,2021.2.3,59.93924558100149,
98.8,99.0,5,0.0,Stimuli\Blank.png,0,0,0,151,151,151,,,,,,,,,,,,,98.80405849999988,0.004058499999885612,None,137.86813999999868,137.86813999999868,137.86813999999868,137.86813999999868,137.86813999999868,137.86813999999868,137.86813999999868,137.86813999999868,,003,P019,2025_Mar_21_1102,CategoryLocalizer,2021.2.3,59.93924558100149,
99.0,99.8,3,0.75,Stimuli\ImageFiles-Set1\Faces\Face_00035.png,0,0,0,152,152,152,,,,,,,,,,,,,99.0192277999995,0.01922779999949853,1,138.06829379999908,138.06829379999908,138.06829379999908,138.06829379999908,138.06829379999908,138.06829379999908,138.06829379999908,138.06829379999908,0.5028892999998789,003,P019,2025_Mar_21_1102,CategoryLocalizer,2021.2.3,59.93924558100149,
99.8,100.0,5,0.0,Stimuli\Blank.png,0,0,0,153,153,153,,,,,,,,,,,,,99.80262709999988,0.002627099999884308,None,138.85231749999912,138.85231749999912,138.85231749999912,138.85231749999912,138.85231749999912,138.85231749999912,138.85231749999912,138.85231749999912,,003,P019,2025_Mar_21_1102,CategoryLocalizer,2021.2.3,59.93924558100149,
100.0,100.8,3,0.75,Stimuli\ImageFiles-Set1\Faces\Face_00119.png,0,0,0,154,154,154,,,,,,,,,,,,,100.00339449999956,0.0033944999995583203,None,139.06923109999843,139.06923109999843,139.06923109999843,139.06923109999843,139.06923109999843,139.06923109999843,139.06923109999843,139.06923109999843,,003,P019,2025_Mar_21_1102,CategoryLocalizer,2021.2.3,59.93924558100149,
100.8,101.0,5,0.0,Stimuli\Blank.png,0,0,0,155,155,155,,,,,,,,,,,,,100.82202030000008,0.022020300000079374,None,139.88658399999986,139.88658399999986,139.88658399999986,139.88658399999986,139.88658399999986,139.88658399999986,139.88658399999986,139.88658399999986,,003,P019,2025_Mar_21_1102,CategoryLocalizer,2021.2.3,59.93924558100149,
101.0,101.8,3,0.75,Stimuli\ImageFiles-Set1\Faces\Face_00041.png,0,0,0,156,156,156,,,,,,,,,,,,,101.02213119999942,0.02213119999942137,None,140.0867935999995,140.0867935999995,140.0867935999995,140.0867935999995,140.0867935999995,140.0867935999995,140.0867935999995,140.0867935999995,,003,P019,2025_Mar_21_1102,CategoryLocalizer,2021.2.3,59.93924558100149,
101.8,102.0,5,0.0,Stimuli\Blank.png,0,0,0,157,157,157,,,,,,,,,,,,,101.82166470000084,0.021664700000840753,None,140.87077509999835,140.87077509999835,140.87077509999835,140.87077509999835,140.87077509999835,140.87077509999835,140.87077509999835,140.87077509999835,,003,P019,2025_Mar_21_1102,CategoryLocalizer,2021.2.3,59.93924558100149,
102.0,102.8,3,0.75,Stimuli\ImageFiles-Set1\Faces\Face_00065.png,0,0,0,158,158,158,,,,,,,,,,,,,102.0069282000004,0.006928200000402285,None,141.0709623999992,141.0709623999992,141.0709623999992,141.0709623999992,141.0709623999992,141.0709623999992,141.0709623999992,141.0709623999992,,003,P019,2025_Mar_21_1102,CategoryLocalizer,2021.2.3,59.93924558100149,
102.8,103.0,5,0.0,Stimuli\Blank.png,0,0,0,159,159,159,,,,,,,,,,,,,102.82243480000034,0.02243480000034026,None,141.87165529999947,141.87165529999947,141.87165529999947,141.87165529999947,141.87165529999947,141.87165529999947,141.87165529999947,141.87165529999947,,003,P019,2025_Mar_21_1102,CategoryLocalizer,2021.2.3,59.93924558100149,
103.0,103.8,3,0.75,Stimuli\ImageFiles-Set1\Faces\Face_00031.png,0,0,0,160,160,160,,,,,,,,,,,,,103.00710629999958,0.007106299999577459,None,142.07185579999896,142.07185579999896,142.07185579999896,142.07185579999896,142.07185579999896,142.07185579999896,142.07185579999896,142.07185579999896,,003,P019,2025_Mar_21_1102,CategoryLocalizer,2021.2.3,59.93924558100149,
103.8,104.0,5,0.0,Stimuli\Blank.png,0,0,0,161,161,161,,,,,,,,,,,,,103.82368640000095,0.023686400000954677,None,142.87253959999907,142.87253959999907,142.87253959999907,142.87253959999907,142.87253959999907,142.87253959999907,142.87253959999907,142.87253959999907,,003,P019,2025_Mar_21_1102,CategoryLocalizer,2021.2.3,59.93924558100149,
104.0,104.8,1,0.75,Stimuli\ImageFiles-Set1\Objects\Object_Shirt_00001.png,0,0,0,162,162,162,,,,,,,,,,,,,104.00710400000025,0.007104000000254018,None,143.07271029999902,143.07271029999902,143.07271029999902,143.07271029999902,143.07271029999902,143.07271029999902,143.07271029999902,143.07271029999902,,003,P019,2025_Mar_21_1102,CategoryLocalizer,2021.2.3,59.93924558100149,
104.8,105.0,5,0.0,Stimuli\Blank.png,0,0,0,163,163,163,,,,,,,,,,,,,104.8245251999997,0.02452519999970093,None,143.87351829999898,143.87351829999898,143.87351829999898,143.87351829999898,143.87351829999898,143.87351829999898,143.87351829999898,143.87351829999898,,003,P019,2025_Mar_21_1102,CategoryLocalizer,2021.2.3,59.93924558100149,
105.0,105.8,1,0.75,Stimuli\ImageFiles-Set1\Objects\Object_Pencil_00001.png,0,0,0,164,164,164,,,,,,,,,,,,,105.0071394000006,0.007139400000596652,None,144.05691679999836,144.05691679999836,144.05691679999836,144.05691679999836,144.05691679999836,144.05691679999836,144.05691679999836,144.05691679999836,,003,P019,2025_Mar_21_1102,CategoryLocalizer,2021.2.3,59.93924558100149,
105.8,106.0,5,0.0,Stimuli\Blank.png,0,0,0,165,165,165,,,,,,,,,,,,,105.80795949999992,0.007959499999927289,None,144.85762869999962,144.85762869999962,144.85762869999962,144.85762869999962,144.85762869999962,144.85762869999962,144.85762869999962,144.85762869999962,,003,P019,2025_Mar_21_1102,CategoryLocalizer,2021.2.3,59.93924558100149,
106.0,106.8,1,0.75,Stimuli\ImageFiles-Set1\Objects\Object_Dryer_00001.png,0,0,0,166,166,166,,,,,,,,,,,,,106.0081852000003,0.00818520000029821,None,145.05780400000003,145.05780400000003,145.05780400000003,145.05780400000003,145.05780400000003,145.05780400000003,145.05780400000003,145.05780400000003,,003,P019,2025_Mar_21_1102,CategoryLocalizer,2021.2.3,59.93924558100149,
106.8,107.0,5,0.0,Stimuli\Blank.png,0,0,0,167,167,167,,,,,,,,,,,,,106.80977990000065,0.009779900000651764,None,145.85850759999994,145.85850759999994,145.85850759999994,145.85850759999994,145.85850759999994,145.85850759999994,145.85850759999994,145.85850759999994,,003,P019,2025_Mar_21_1102,CategoryLocalizer,2021.2.3,59.93924558100149,
107.0,107.8,1,0.75,Stimuli\ImageFiles-Set1\Objects\Object_Key_00001.png,0,0,0,168,168,168,,,,,,,,,,,,,107.01042460000099,0.010424600000987994,None,146.07540739999968,146.07540739999968,146.07540739999968,146.07540739999968,146.07540739999968,146.07540739999968,146.07540739999968,146.07540739999968,,003,P019,2025_Mar_21_1102,CategoryLocalizer,2021.2.3,59.93924558100149,
107.8,108.0,5,0.0,Stimuli\Blank.png,0,0,0,169,169,169,,,,,,,,,,,,,107.82750950000082,0.027509500000817866,None,146.87608629999886,146.87608629999886,146.87608629999886,146.87608629999886,146.87608629999886,146.87608629999886,146.87608629999886,146.87608629999886,,003,P019,2025_Mar_21_1102,CategoryLocalizer,2021.2.3,59.93924558100149,
108.0,108.8,1,0.75,Stimuli\ImageFiles-Set1\Objects\Object_Locker_00001.png,0,0,0,170,170,170,,,,,,,,,,,,,108.00992340000084,0.009923400000843685,None,147.05964159999894,147.05964159999894,147.05964159999894,147.05964159999894,147.05964159999894,147.05964159999894,147.05964159999894,147.05964159999894,,003,P019,2025_Mar_21_1102,CategoryLocalizer,2021.2.3,59.93924558100149,
108.8,109.0,5,0.0,Stimuli\Blank.png,0,0,0,171,171,171,,,,,,,,,,,,,108.811259600001,0.011259600000997239,None,147.86119739999958,147.86119739999958,147.86119739999958,147.86119739999958,147.86119739999958,147.86119739999958,147.86119739999958,147.86119739999958,,003,P019,2025_Mar_21_1102,CategoryLocalizer,2021.2.3,59.93924558100149,
109.0,109.8,1,0.75,Stimuli\ImageFiles-Set1\Objects\Object_Matches_00001.png,0,0,0,172,172,172,,,,,,,,,,,,,109.01251469999988,0.012514699999883305,None,148.07726339999863,148.07726339999863,148.07726339999863,148.07726339999863,148.07726339999863,148.07726339999863,148.07726339999863,148.07726339999863,,003,P019,2025_Mar_21_1102,CategoryLocalizer,2021.2.3,59.93924558100149,
109.8,110.0,5,0.0,Stimuli\Blank.png,0,0,0,173,173,173,,,,,,,,,,,,,109.82863929999985,0.028639299999852597,None,148.8778386999984,148.8778386999984,148.8778386999984,148.8778386999984,148.8778386999984,148.8778386999984,148.8778386999984,148.8778386999984,,003,P019,2025_Mar_21_1102,CategoryLocalizer,2021.2.3,59.93924558100149,
110.0,110.8,1,0.75,Stimuli\ImageFiles-Set1\Objects\Object_Card_00001.png,0,0,0,174,174,174,,,,,,,,,,,,,110.01207649999924,0.012076499999238877,None,149.061334,149.061334,149.061334,149.061334,149.061334,149.061334,149.061334,149.061334,,003,P019,2025_Mar_21_1102,CategoryLocalizer,2021.2.3,59.93924558100149,
110.8,111.0,5,0.0,Stimuli\Blank.png,0,0,0,175,175,175,,,,,,,,,,,,,110.81226720000086,0.012267200000863454,None,149.86204419999922,149.86204419999922,149.86204419999922,149.86204419999922,149.86204419999922,149.86204419999922,149.86204419999922,149.86204419999922,,003,P019,2025_Mar_21_1102,CategoryLocalizer,2021.2.3,59.93924558100149,
111.0,111.8,1,0.75,Stimuli\ImageFiles-Set1\Objects\Object_Oven_00001.png,0,0,0,176,176,176,,,,,,,,,,,,,111.01268960000016,0.012689600000157952,None,150.06221679999908,150.06221679999908,150.06221679999908,150.06221679999908,150.06221679999908,150.06221679999908,150.06221679999908,150.06221679999908,,003,P019,2025_Mar_21_1102,CategoryLocalizer,2021.2.3,59.93924558100149,
111.8,112.0,5,0.0,Stimuli\Blank.png,0,0,0,177,177,177,,,,,,,,,,,,,111.81334220000099,0.013342200000991511,None,150.86292389999835,150.86292389999835,150.86292389999835,150.86292389999835,150.86292389999835,150.86292389999835,150.86292389999835,150.86292389999835,,003,P019,2025_Mar_21_1102,CategoryLocalizer,2021.2.3,59.93924558100149,
112.0,112.8,1,0.75,Stimuli\ImageFiles-Set1\Objects\Object_Oven_00001.png,1,1,0,178,178,178,,,,,,,,,,,,,112.01412809999965,0.014128099999652477,1,151.0798053999988,151.0798053999988,151.0798053999988,151.0798053999988,151.0798053999988,151.0798053999988,151.0798053999988,151.0798053999988,0.3840381999998499,003,P019,2025_Mar_21_1102,CategoryLocalizer,2021.2.3,59.93924558100149,
112.8,113.0,5,0.0,Stimuli\Blank.png,0,0,0,179,179,179,,,,,,,,,,,,,112.83220540000002,0.03220540000002359,None,151.88050909999947,151.88050909999947,151.88050909999947,151.88050909999947,151.88050909999947,151.88050909999947,151.88050909999947,151.88050909999947,,003,P019,2025_Mar_21_1102,CategoryLocalizer,2021.2.3,59.93924558100149,
113.0,113.8,1,0.75,Stimuli\ImageFiles-Set1\Objects\Object_Bottle_00001.png,0,0,0,180,180,180,,,,,,,,,,,,,112.99767090000023,-0.0023290999997698236,None,152.04730539999946,152.04730539999946,152.04730539999946,152.04730539999946,152.04730539999946,152.04730539999946,152.04730539999946,152.04730539999946,,003,P019,2025_Mar_21_1102,CategoryLocalizer,2021.2.3,59.93924558100149,
113.8,114.0,5,0.0,Stimuli\Blank.png,0,0,0,181,181,181,,,,,,,,,,,,,113.81709389999924,0.017093899999238715,None,152.88138459999936,152.88138459999936,152.88138459999936,152.88138459999936,152.88138459999936,152.88138459999936,152.88138459999936,152.88138459999936,,003,P019,2025_Mar_21_1102,CategoryLocalizer,2021.2.3,59.93924558100149,
114.0,114.8,1,0.75,Stimuli\ImageFiles-Set1\Objects\Object_Screw_00001.png,0,0,0,182,182,182,,,,,,,,,,,,,114.01604270000098,0.016042700000980403,None,153.06491849999838,153.06491849999838,153.06491849999838,153.06491849999838,153.06491849999838,153.06491849999838,153.06491849999838,153.06491849999838,,003,P019,2025_Mar_21_1102,CategoryLocalizer,2021.2.3,59.93924558100149,
114.8,115.0,5,0.0,Stimuli\Blank.png,0,0,0,183,183,183,,,,,,,,,,,,,114.80005680000068,5.680000067798119e-05,None,153.84891119999884,153.84891119999884,153.84891119999884,153.84891119999884,153.84891119999884,153.84891119999884,153.84891119999884,153.84891119999884,,003,P019,2025_Mar_21_1102,CategoryLocalizer,2021.2.3,59.93924558100149,
115.0,115.8,1,0.75,Stimuli\ImageFiles-Set1\Objects\Object_Tool_00001.png,0,0,0,184,184,184,,,,,,,,,,,,,114.99932799999988,-0.0006720000001223525,None,154.04915099999926,154.04915099999926,154.04915099999926,154.04915099999926,154.04915099999926,154.04915099999926,154.04915099999926,154.04915099999926,,003,P019,2025_Mar_21_1102,CategoryLocalizer,2021.2.3,59.93924558100149,
115.8,116.0,5,0.0,Stimuli\Blank.png,0,0,0,185,185,185,,,,,,,,,,,,,115.80204199999935,0.0020419999993492866,None,154.8664833999992,154.8664833999992,154.8664833999992,154.8664833999992,154.8664833999992,154.8664833999992,154.8664833999992,154.8664833999992,,003,P019,2025_Mar_21_1102,CategoryLocalizer,2021.2.3,59.93924558100149,
116.0,116.8,1,0.75,Stimuli\ImageFiles-Set1\Objects\Object_FileFolder_00001.png,0,0,0,186,186,186,,,,,,,,,,,,,116.01786549999997,0.01786549999997078,None,155.08332669999982,155.08332669999982,155.08332669999982,155.08332669999982,155.08332669999982,155.08332669999982,155.08332669999982,155.08332669999982,,003,P019,2025_Mar_21_1102,CategoryLocalizer,2021.2.3,59.93924558100149,
116.8,117.0,5,0.0,Stimuli\Blank.png,0,0,0,187,187,187,,,,,,,,,,,,,116.81865319999997,0.01865319999997439,None,155.86735249999947,155.86735249999947,155.86735249999947,155.86735249999947,155.86735249999947,155.86735249999947,155.86735249999947,155.86735249999947,,003,P019,2025_Mar_21_1102,CategoryLocalizer,2021.2.3,59.93924558100149,
117.0,117.8,1,0.75,Stimuli\ImageFiles-Set1\Objects\Object_Chest_00001.png,0,0,0,188,188,188,,,,,,,,,,,,,117.00171000000046,0.0017100000004575122,None,156.06752739999865,156.06752739999865,156.06752739999865,156.06752739999865,156.06752739999865,156.06752739999865,156.06752739999865,156.06752739999865,,003,P019,2025_Mar_21_1102,CategoryLocalizer,2021.2.3,59.93924558100149,
117.8,118.0,5,0.0,Stimuli\Blank.png,0,0,0,189,189,189,,,,,,,,,,,,,117.81862100000035,0.018621000000351273,None,156.86823519999962,156.86823519999962,156.86823519999962,156.86823519999962,156.86823519999962,156.86823519999962,156.86823519999962,156.86823519999962,,003,P019,2025_Mar_21_1102,CategoryLocalizer,2021.2.3,59.93924558100149,
118.0,118.8,1,0.75,Stimuli\ImageFiles-Set1\Objects\Object_Crib_00001.png,0,0,0,190,190,190,,,,,,,,,,,,,118.002685200001,0.0026852000009967014,None,157.06841329999952,157.06841329999952,157.06841329999952,157.06841329999952,157.06841329999952,157.06841329999952,157.06841329999952,157.06841329999952,,003,P019,2025_Mar_21_1102,CategoryLocalizer,2021.2.3,59.93924558100149,
118.8,119.0,5,0.0,Stimuli\Blank.png,0,0,0,191,191,191,,,,,,,,,,,,,118.8219011000001,0.021901100000107476,None,157.86911429999964,157.86911429999964,157.86911429999964,157.86911429999964,157.86911429999964,157.86911429999964,157.86911429999964,157.86911429999964,,003,P019,2025_Mar_21_1102,CategoryLocalizer,2021.2.3,59.93924558100149,
119.0,119.8,1,0.75,Stimuli\ImageFiles-Set1\Objects\Object_Stroller_00001.png,0,0,0,192,192,192,,,,,,,,,,,,,119.00297809999938,0.0029780999993818114,None,158.06932089999827,158.06932089999827,158.06932089999827,158.06932089999827,158.06932089999827,158.06932089999827,158.06932089999827,158.06932089999827,,003,P019,2025_Mar_21_1102,CategoryLocalizer,2021.2.3,59.93924558100149,
119.8,120.0,5,0.0,Stimuli\Blank.png,0,0,0,193,193,193,,,,,,,,,,,,,119.82243729999936,0.02243729999936761,None,158.88671839999915,158.88671839999915,158.88671839999915,158.88671839999915,158.88671839999915,158.88671839999915,158.88671839999915,158.88671839999915,,003,P019,2025_Mar_21_1102,CategoryLocalizer,2021.2.3,59.93924558100149,
120.0,120.8,4,0.75,Stimuli\ImageFiles-Set1\Scenes\Scenes_008.png,0,0,0,194,194,194,,,,,,,,,,,,,120.02304379999987,0.023043799999868497,None,159.08687389999977,159.08687389999977,159.08687389999977,159.08687389999977,159.08687389999977,159.08687389999977,159.08687389999977,159.08687389999977,,003,P019,2025_Mar_21_1102,CategoryLocalizer,2021.2.3,59.93924558100149,
120.8,121.0,5,0.0,Stimuli\Blank.png,0,0,0,195,195,195,,,,,,,,,,,,,120.82124939999994,0.02124939999994524,None,159.87089079999896,159.87089079999896,159.87089079999896,159.87089079999896,159.87089079999896,159.87089079999896,159.87089079999896,159.87089079999896,,003,P019,2025_Mar_21_1102,CategoryLocalizer,2021.2.3,59.93924558100149,
121.0,121.8,4,0.75,Stimuli\ImageFiles-Set1\Scenes\Scenes_034.png,0,0,0,196,196,196,,,,,,,,,,,,,121.00679909999963,0.006799099999625469,None,160.07107169999836,160.07107169999836,160.07107169999836,160.07107169999836,160.07107169999836,160.07107169999836,160.07107169999836,160.07107169999836,,003,P019,2025_Mar_21_1102,CategoryLocalizer,2021.2.3,59.93924558100149,
121.8,122.0,5,0.0,Stimuli\Blank.png,0,0,0,197,197,197,,,,,,,,,,,,,121.82259139999951,0.022591399999512873,None,160.8717779999988,160.8717779999988,160.8717779999988,160.8717779999988,160.8717779999988,160.8717779999988,160.8717779999988,160.8717779999988,,003,P019,2025_Mar_21_1102,CategoryLocalizer,2021.2.3,59.93924558100149,
122.0,122.8,4,0.75,Stimuli\ImageFiles-Set1\Scenes\Scenes_012.png,0,0,0,198,198,198,,,,,,,,,,,,,122.00595690000046,0.005956900000455789,None,161.05526629999986,161.05526629999986,161.05526629999986,161.05526629999986,161.05526629999986,161.05526629999986,161.05526629999986,161.05526629999986,,003,P019,2025_Mar_21_1102,CategoryLocalizer,2021.2.3,59.93924558100149,
122.8,123.0,5,0.0,Stimuli\Blank.png,0,0,0,199,199,199,,,,,,,,,,,,,122.80620009999984,0.0062000999998446105,None,161.8560379999999,161.8560379999999,161.8560379999999,161.8560379999999,161.8560379999999,161.8560379999999,161.8560379999999,161.8560379999999,,003,P019,2025_Mar_21_1102,CategoryLocalizer,2021.2.3,59.93924558100149,
123.0,123.8,4,0.75,Stimuli\ImageFiles-Set1\Scenes\Scenes_030.png,0,0,0,200,200,200,,,,,,,,,,,,,123.00639389999924,0.0063938999992387835,None,162.05615139999827,162.05615139999827,162.05615139999827,162.05615139999827,162.05615139999827,162.05615139999827,162.05615139999827,162.05615139999827,,003,P019,2025_Mar_21_1102,CategoryLocalizer,2021.2.3,59.93924558100149,
123.8,124.0,5,0.0,Stimuli\Blank.png,0,0,0,201,201,201,,,,,,,,,,,,,123.80770350000057,0.0077035000005736265,None,162.8568628999983,162.8568628999983,162.8568628999983,162.8568628999983,162.8568628999983,162.8568628999983,162.8568628999983,162.8568628999983,,003,P019,2025_Mar_21_1102,CategoryLocalizer,2021.2.3,59.93924558100149,
124.0,124.8,4,0.75,Stimuli\ImageFiles-Set1\Scenes\Scenes_036.png,0,0,0,202,202,202,,,,,,,,,,,,,124.00900639999963,0.009006399999634596,None,163.07371459999922,163.07371459999922,163.07371459999922,163.07371459999922,163.07371459999922,163.07371459999922,163.07371459999922,163.07371459999922,,003,P019,2025_Mar_21_1102,CategoryLocalizer,2021.2.3,59.93924558100149,
124.8,125.0,5,0.0,Stimuli\Blank.png,0,0,0,203,203,203,,,,,,,,,,,,,124.82558269999936,0.02558269999936158,None,163.87444179999875,163.87444179999875,163.87444179999875,163.87444179999875,163.87444179999875,163.87444179999875,163.87444179999875,163.87444179999875,,003,P019,2025_Mar_21_1102,CategoryLocalizer,2021.2.3,59.93924558100149,
125.0,125.8,4,0.75,Stimuli\ImageFiles-Set1\Scenes\Scenes_053.png,0,0,0,204,204,204,,,,,,,,,,,,,125.00808580000012,0.00808580000011716,None,164.05791949999912,164.05791949999912,164.05791949999912,164.05791949999912,164.05791949999912,164.05791949999912,164.05791949999912,164.05791949999912,,003,P019,2025_Mar_21_1102,CategoryLocalizer,2021.2.3,59.93924558100149,
125.8,126.0,5,0.0,Stimuli\Blank.png,0,0,0,205,205,205,,,,,,,,,,,,,125.80891979999979,0.00891979999978787,None,164.8586353999999,164.8586353999999,164.8586353999999,164.8586353999999,164.8586353999999,164.8586353999999,164.8586353999999,164.8586353999999,,003,P019,2025_Mar_21_1102,CategoryLocalizer,2021.2.3,59.93924558100149,
126.0,126.8,4,0.75,Stimuli\ImageFiles-Set1\Scenes\Scenes_057.png,0,0,0,206,206,206,,,,,,,,,,,,,126.00970120000056,0.009701200000563404,None,165.0588057999994,165.0588057999994,165.0588057999994,165.0588057999994,165.0588057999994,165.0588057999994,165.0588057999994,165.0588057999994,,003,P019,2025_Mar_21_1102,CategoryLocalizer,2021.2.3,59.93924558100149,
126.8,127.0,5,0.0,Stimuli\Blank.png,0,0,0,207,207,207,,,,,,,,,,,,,126.81187780000073,0.011877800000732464,None,165.87620439999955,165.87620439999955,165.87620439999955,165.87620439999955,165.87620439999955,165.87620439999955,165.87620439999955,165.87620439999955,,003,P019,2025_Mar_21_1102,CategoryLocalizer,2021.2.3,59.93924558100149,
127.0,127.8,4,0.75,Stimuli\ImageFiles-Set1\Scenes\Scenes_018.png,0,0,0,208,208,208,,,,,,,,,,,,,127.02798339999936,0.02798339999935706,None,166.09317459999875,166.09317459999875,166.09317459999875,166.09317459999875,166.09317459999875,166.09317459999875,166.09317459999875,166.09317459999875,,003,P019,2025_Mar_21_1102,CategoryLocalizer,2021.2.3,59.93924558100149,
127.8,128.0,5,0.0,Stimuli\Blank.png,0,0,0,209,209,209,,,,,,,,,,,,,127.82794400000057,0.02794400000057351,None,166.87707879999834,166.87707879999834,166.87707879999834,166.87707879999834,166.87707879999834,166.87707879999834,166.87707879999834,166.87707879999834,,003,P019,2025_Mar_21_1102,CategoryLocalizer,2021.2.3,59.93924558100149,
128.0,128.8,4,0.75,Stimuli\ImageFiles-Set1\Scenes\Scenes_044.png,0,0,0,210,210,210,,,,,,,,,,,,,128.01138779999928,0.011387799999283743,None,167.06056969999918,167.06056969999918,167.06056969999918,167.06056969999918,167.06056969999918,167.06056969999918,167.06056969999918,167.06056969999918,,003,P019,2025_Mar_21_1102,CategoryLocalizer,2021.2.3,59.93924558100149,
128.8,129.0,5,0.0,Stimuli\Blank.png,0,0,0,211,211,211,,,,,,,,,,,,,128.81255939999937,0.012559399999361176,None,167.86127789999955,167.86127789999955,167.86127789999955,167.86127789999955,167.86127789999955,167.86127789999955,167.86127789999955,167.86127789999955,,003,P019,2025_Mar_21_1102,CategoryLocalizer,2021.2.3,59.93924558100149,
129.0,129.8,4,0.75,Stimuli\ImageFiles-Set1\Scenes\Scenes_049.png,0,0,0,212,212,212,,,,,,,,,,,,,129.01232130000062,0.012321300000621704,None,168.07816849999836,168.07816849999836,168.07816849999836,168.07816849999836,168.07816849999836,168.07816849999836,168.07816849999836,168.07816849999836,,003,P019,2025_Mar_21_1102,CategoryLocalizer,2021.2.3,59.93924558100149,
129.8,130.0,5,0.0,Stimuli\Blank.png,0,0,0,213,213,213,,,,,,,,,,,,,129.83034509999925,0.030345099999237846,None,168.8788611,168.8788611,168.8788611,168.8788611,168.8788611,168.8788611,168.8788611,168.8788611,,003,P019,2025_Mar_21_1102,CategoryLocalizer,2021.2.3,59.93924558100149,
130.0,130.8,4,0.75,Stimuli\ImageFiles-Set1\Scenes\Scenes_017.png,0,0,0,214,214,214,,,,,,,,,,,,,130.0129954999993,0.012995499999306048,None,169.0790176999999,169.0790176999999,169.0790176999999,169.0790176999999,169.0790176999999,169.0790176999999,169.0790176999999,169.0790176999999,,003,P019,2025_Mar_21_1102,CategoryLocalizer,2021.2.3,59.93924558100149,
130.8,131.0,5,0.0,Stimuli\Blank.png,0,0,0,215,215,215,,,,,,,,,,,,,130.83190660000037,0.0319066000003545,None,169.89644459999909,169.89644459999909,169.89644459999909,169.89644459999909,169.89644459999909,169.89644459999909,169.89644459999909,169.89644459999909,,003,P019,2025_Mar_21_1102,CategoryLocalizer,2021.2.3,59.93924558100149,
131.0,131.8,4,0.75,Stimuli\ImageFiles-Set1\Scenes\Scenes_017.png,1,1,0,216,216,216,,,,,,,,,,,,,131.03096990000085,0.030969900000854977,1,170.07989730000008,170.07989730000008,170.07989730000008,170.07989730000008,170.07989730000008,170.07989730000008,170.07989730000008,170.07989730000008,0.3738205999998172,003,P019,2025_Mar_21_1102,CategoryLocalizer,2021.2.3,59.93924558100149,
131.8,132.0,5,0.0,Stimuli\Blank.png,0,0,0,217,217,217,,,,,,,,,,,,,131.81442489999972,0.014424899999710306,None,170.86392319999868,170.86392319999868,170.86392319999868,170.86392319999868,170.86392319999868,170.86392319999868,170.86392319999868,170.86392319999868,,003,P019,2025_Mar_21_1102,CategoryLocalizer,2021.2.3,59.93924558100149,
132.0,132.8,4,0.75,Stimuli\ImageFiles-Set1\Scenes\Scenes_015.png,0,0,0,218,218,218,,,,,,,,,,,,,132.01724020000074,0.017240200000742334,None,171.08079709999947,171.08079709999947,171.08079709999947,171.08079709999947,171.08079709999947,171.08079709999947,171.08079709999947,171.08079709999947,,003,P019,2025_Mar_21_1102,CategoryLocalizer,2021.2.3,59.93924558100149,
132.8,133.0,5,0.0,Stimuli\Blank.png,0,0,0,219,219,219,,,,,,,,,,,,,132.81700679999994,0.017006799999933264,None,171.8815236999999,171.8815236999999,171.8815236999999,171.8815236999999,171.8815236999999,171.8815236999999,171.8815236999999,171.8815236999999,,003,P019,2025_Mar_21_1102,CategoryLocalizer,2021.2.3,59.93924558100149,
133.0,133.8,4,0.75,Stimuli\ImageFiles-Set1\Scenes\Scenes_026.png,0,0,0,220,220,220,,,,,,,,,,,,,133.0173451999999,0.0173451999999088,None,172.08168399999886,172.08168399999886,172.08168399999886,172.08168399999886,172.08168399999886,172.08168399999886,172.08168399999886,172.08168399999886,,003,P019,2025_Mar_21_1102,CategoryLocalizer,2021.2.3,59.93924558100149,
133.8,134.0,5,0.0,Stimuli\Blank.png,0,0,0,221,221,221,,,,,,,,,,,,,133.81631440000092,0.016314400000908336,None,172.86579969999912,172.86579969999912,172.86579969999912,172.86579969999912,172.86579969999912,172.86579969999912,172.86579969999912,172.86579969999912,,003,P019,2025_Mar_21_1102,CategoryLocalizer,2021.2.3,59.93924558100149,
134.0,134.8,4,0.75,Stimuli\ImageFiles-Set1\Scenes\Scenes_007.png,0,0,0,222,222,222,,,,,,,,,,,,,133.99996490000012,-3.509999987727497e-05,None,173.04919879999943,173.04919879999943,173.04919879999943,173.04919879999943,173.04919879999943,173.04919879999943,173.04919879999943,173.04919879999943,,003,P019,2025_Mar_21_1102,CategoryLocalizer,2021.2.3,59.93924558100149,
134.8,135.0,5,0.0,Stimuli\Blank.png,0,0,0,223,223,223,,,,,,,,,,,,,134.80024460000095,0.00024460000093995404,None,173.84990249999828,173.84990249999828,173.84990249999828,173.84990249999828,173.84990249999828,173.84990249999828,173.84990249999828,173.84990249999828,,003,P019,2025_Mar_21_1102,CategoryLocalizer,2021.2.3,59.93924558100149,
135.0,135.8,4,0.75,Stimuli\ImageFiles-Set1\Scenes\Scenes_052.png,0,0,0,224,224,224,,,,,,,,,,,,,135.00223840000035,0.0022384000003512483,None,174.06677479999962,174.06677479999962,174.06677479999962,174.06677479999962,174.06677479999962,174.06677479999962,174.06677479999962,174.06677479999962,,003,P019,2025_Mar_21_1102,CategoryLocalizer,2021.2.3,59.93924558100149,
135.8,136.0,5,0.0,Stimuli\Blank.png,0,0,0,225,225,225,,,,,,,,,,,,,135.81781129999945,0.01781129999943687,None,174.86746159999893,174.86746159999893,174.86746159999893,174.86746159999893,174.86746159999893,174.86746159999893,174.86746159999893,174.86746159999893,,003,P019,2025_Mar_21_1102,CategoryLocalizer,2021.2.3,59.93924558100149,
136.0,136.8,2,0.75,Stimuli\ImageFiles-Set1\Bodies\Bodies_Falling_00006.png,0,0,0,226,226,226,,,,,,,,,,,,,136.00182040000072,0.0018204000007244758,None,175.08430099999896,175.08430099999896,175.08430099999896,175.08430099999896,175.08430099999896,175.08430099999896,175.08430099999896,175.08430099999896,,003,P019,2025_Mar_21_1102,CategoryLocalizer,2021.2.3,59.93924558100149,
136.8,137.0,5,0.0,Stimuli\Blank.png,0,0,0,227,227,227,,,,,,,,,,,,,136.83909889999995,0.039098899999942205,None,175.90176959999917,175.90176959999917,175.90176959999917,175.90176959999917,175.90176959999917,175.90176959999917,175.90176959999917,175.90176959999917,,003,P019,2025_Mar_21_1102,CategoryLocalizer,2021.2.3,59.93924558100149,
137.0,137.8,2,0.75,Stimuli\ImageFiles-Set1\Bodies\Bodies_SittingChair_00003.png,0,0,0,228,228,228,,,,,,,,,,,,,137.01922360000026,0.019223600000259466,None,176.06852849999996,176.06852849999996,176.06852849999996,176.06852849999996,176.06852849999996,176.06852849999996,176.06852849999996,176.06852849999996,,003,P019,2025_Mar_21_1102,CategoryLocalizer,2021.2.3,59.93924558100149,
137.8,138.0,5,0.0,Stimuli\Blank.png,0,0,0,229,229,229,,,,,,,,,,,,,137.80301569999938,0.0030156999993664613,None,176.85259399999995,176.85259399999995,176.85259399999995,176.85259399999995,176.85259399999995,176.85259399999995,176.85259399999995,176.85259399999995,,003,P019,2025_Mar_21_1102,CategoryLocalizer,2021.2.3,59.93924558100149,
138.0,138.8,2,0.75,Stimuli\ImageFiles-Set1\Bodies\Bodies_SittingChair_00003.png,1,1,0,230,230,230,,,,,,,,,,,,,138.00303039999926,0.0030303999992611352,1,177.05270380000002,177.05270380000002,177.05270380000002,177.05270380000002,177.05270380000002,177.05270380000002,177.05270380000002,177.05270380000002,0.4672276999990572,003,P019,2025_Mar_21_1102,CategoryLocalizer,2021.2.3,59.93924558100149,
138.8,139.0,5,0.0,Stimuli\Blank.png,0,0,0,231,231,231,,,,,,,,,,,,,138.80445510000027,0.004455100000257062,None,177.85350389999985,177.85350389999985,177.85350389999985,177.85350389999985,177.85350389999985,177.85350389999985,177.85350389999985,177.85350389999985,,003,P019,2025_Mar_21_1102,CategoryLocalizer,2021.2.3,59.93924558100149,
139.0,139.8,2,0.75,Stimuli\ImageFiles-Set1\Bodies\Bodies_DownwardDog_00005.png,0,0,0,232,232,232,,,,,,,,,,,,,139.004767800001,0.004767800000990974,None,178.05362799999966,178.05362799999966,178.05362799999966,178.05362799999966,178.05362799999966,178.05362799999966,178.05362799999966,178.05362799999966,,003,P019,2025_Mar_21_1102,CategoryLocalizer,2021.2.3,59.93924558100149,
139.8,140.0,5,0.0,Stimuli\Blank.png,0,0,0,233,233,233,,,,,,,,,,,,,139.80689519999942,0.006895199999405577,None,178.8710407999988,178.8710407999988,178.8710407999988,178.8710407999988,178.8710407999988,178.8710407999988,178.8710407999988,178.8710407999988,,003,P019,2025_Mar_21_1102,CategoryLocalizer,2021.2.3,59.93924558100149,
140.0,140.8,2,0.75,Stimuli\ImageFiles-Set1\Bodies\Bodies_Waving_00001.png,0,0,0,234,234,234,,,,,,,,,,,,,140.02207740000085,0.02207740000085323,None,179.07118420000006,179.07118420000006,179.07118420000006,179.07118420000006,179.07118420000006,179.07118420000006,179.07118420000006,179.07118420000006,,003,P019,2025_Mar_21_1102,CategoryLocalizer,2021.2.3,59.93924558100149,
140.8,141.0,5,0.0,Stimuli\Blank.png,0,0,0,235,235,235,,,,,,,,,,,,,140.80682870000055,0.006828700000539811,None,179.85521889999836,179.85521889999836,179.85521889999836,179.85521889999836,179.85521889999836,179.85521889999836,179.85521889999836,179.85521889999836,,003,P019,2025_Mar_21_1102,CategoryLocalizer,2021.2.3,59.93924558100149,
141.0,141.8,2,0.75,Stimuli\ImageFiles-Set1\Bodies\Bodies_Crawling_00006.png,0,0,0,236,236,236,,,,,,,,,,,,,141.00796880000053,0.007968800000526244,None,180.07210619999933,180.07210619999933,180.07210619999933,180.07210619999933,180.07210619999933,180.07210619999933,180.07210619999933,180.07210619999933,,003,P019,2025_Mar_21_1102,CategoryLocalizer,2021.2.3,59.93924558100149,
141.8,142.0,5,0.0,Stimuli\Blank.png,0,0,0,237,237,237,,,,,,,,,,,,,141.82300600000053,0.023006000000521,None,180.87274709999838,180.87274709999838,180.87274709999838,180.87274709999838,180.87274709999838,180.87274709999838,180.87274709999838,180.87274709999838,,003,P019,2025_Mar_21_1102,CategoryLocalizer,2021.2.3,59.93924558100149,
142.0,142.8,2,0.75,Stimuli\ImageFiles-Set1\Bodies\Bodies_Waving_00003.png,0,0,0,238,238,238,,,,,,,,,,,,,142.00713630000064,0.007136300000638585,None,181.05626389999998,181.05626389999998,181.05626389999998,181.05626389999998,181.05626389999998,181.05626389999998,181.05626389999998,181.05626389999998,,003,P019,2025_Mar_21_1102,CategoryLocalizer,2021.2.3,59.93924558100149,
142.8,143.0,5,0.0,Stimuli\Blank.png,0,0,0,239,239,239,,,,,,,,,,,,,142.80778009999995,0.007780099999934009,None,181.85697679999976,181.85697679999976,181.85697679999976,181.85697679999976,181.85697679999976,181.85697679999976,181.85697679999976,181.85697679999976,,003,P019,2025_Mar_21_1102,CategoryLocalizer,2021.2.3,59.93924558100149,
143.0,143.8,2,0.75,Stimuli\ImageFiles-Set1\Bodies\Bodies_SittingFloor_00005.png,0,0,0,240,240,240,,,,,,,,,,,,,143.00866119999955,0.008661199999551172,None,182.0738356999991,182.0738356999991,182.0738356999991,182.0738356999991,182.0738356999991,182.0738356999991,182.0738356999991,182.0738356999991,,003,P019,2025_Mar_21_1102,CategoryLocalizer,2021.2.3,59.93924558100149,
143.8,144.0,5,0.0,Stimuli\Blank.png,0,0,0,241,241,241,,,,,,,,,,,,,143.8248265000002,0.024826500000187934,None,182.87451749999855,182.87451749999855,182.87451749999855,182.87451749999855,182.87451749999855,182.87451749999855,182.87451749999855,182.87451749999855,,003,P019,2025_Mar_21_1102,CategoryLocalizer,2021.2.3,59.93924558100149,
144.0,144.8,2,0.75,Stimuli\ImageFiles-Set1\Bodies\Bodies_Lunging_00004.png,0,0,0,242,242,242,,,,,,,,,,,,,144.00877109999965,0.008771099999648868,None,183.05804949999947,183.05804949999947,183.05804949999947,183.05804949999947,183.05804949999947,183.05804949999947,183.05804949999947,183.05804949999947,,003,P019,2025_Mar_21_1102,CategoryLocalizer,2021.2.3,59.93924558100149,
144.8,145.0,5,0.0,Stimuli\Blank.png,0,0,0,243,243,243,,,,,,,,,,,,,144.8089947999997,0.008994799999697989,None,183.85876599999938,183.85876599999938,183.85876599999938,183.85876599999938,183.85876599999938,183.85876599999938,183.85876599999938,183.85876599999938,,003,P019,2025_Mar_21_1102,CategoryLocalizer,2021.2.3,59.93924558100149,
145.0,145.8,2,0.75,Stimuli\ImageFiles-Set1\Bodies\Bodies_Jumping_00004.png,1,1,0,244,244,244,,,,,,,,,,,,,145.01197759999923,0.011977599999227095,None,184.07632620000004,184.07632620000004,184.07632620000004,184.07632620000004,184.07632620000004,184.07632620000004,184.07632620000004,184.07632620000004,,003,P019,2025_Mar_21_1102,CategoryLocalizer,2021.2.3,59.93924558100149,
145.8,146.0,5,0.0,Stimuli\Blank.png,0,0,0,245,245,245,,,,,,,,,,,,,145.82762120000007,0.027621200000055524,None,184.87632539999868,184.87632539999868,184.87632539999868,184.87632539999868,184.87632539999868,184.87632539999868,184.87632539999868,184.87632539999868,,003,P019,2025_Mar_21_1102,CategoryLocalizer,2021.2.3,59.93924558100149,
146.0,146.8,2,0.75,Stimuli\ImageFiles-Set1\Bodies\Bodies_Punching_00001.png,0,0,0,246,246,246,,,,,,,,,,,,,146.01049260000036,0.010492600000361563,None,185.05980779999845,185.05980779999845,185.05980779999845,185.05980779999845,185.05980779999845,185.05980779999845,185.05980779999845,185.05980779999845,,003,P019,2025_Mar_21_1102,CategoryLocalizer,2021.2.3,59.93924558100149,
146.8,147.0,5,0.0,Stimuli\Blank.png,0,0,0,247,247,247,,,,,,,,,,,,,146.81154509999942,0.011545099999409558,None,185.8605220999998,185.8605220999998,185.8605220999998,185.8605220999998,185.8605220999998,185.8605220999998,185.8605220999998,185.8605220999998,,003,P019,2025_Mar_21_1102,CategoryLocalizer,2021.2.3,59.93924558100149,
147.0,147.8,2,0.75,Stimuli\ImageFiles-Set1\Bodies\Bodies_Punching_00001.png,0,0,0,248,248,248,,,,,,,,,,,,,147.01157090000015,0.011570900000151596,1,186.06069119999847,186.06069119999847,186.06069119999847,186.06069119999847,186.06069119999847,186.06069119999847,186.06069119999847,186.06069119999847,0.591997799998353,003,P019,2025_Mar_21_1102,CategoryLocalizer,2021.2.3,59.93924558100149,
147.8,148.0,5,0.0,Stimuli\Blank.png,0,0,0,249,249,249,,,,,,,,,,,,,147.8120326999997,0.012032699999679153,None,186.86139989999901,186.86139989999901,186.86139989999901,186.86139989999901,186.86139989999901,186.86139989999901,186.86139989999901,186.86139989999901,,003,P019,2025_Mar_21_1102,CategoryLocalizer,2021.2.3,59.93924558100149,
148.0,148.8,2,0.75,Stimuli\ImageFiles-Set1\Bodies\Bodies_Hanging_00002.png,0,0,0,250,250,250,,,,,,,,,,,,,148.01249880000069,0.01249880000068515,None,187.06157279999934,187.06157279999934,187.06157279999934,187.06157279999934,187.06157279999934,187.06157279999934,187.06157279999934,187.06157279999934,,003,P019,2025_Mar_21_1102,CategoryLocalizer,2021.2.3,59.93924558100149,
148.8,149.0,5,0.0,Stimuli\Blank.png,0,0,0,251,251,251,,,,,,,,,,,,,148.81272159999935,0.012721599999338196,None,187.86227169999984,187.86227169999984,187.86227169999984,187.86227169999984,187.86227169999984,187.86227169999984,187.86227169999984,187.86227169999984,,003,P019,2025_Mar_21_1102,CategoryLocalizer,2021.2.3,59.93924558100149,
149.0,149.8,2,0.75,Stimuli\ImageFiles-Set1\Bodies\Bodies_Pushing_00003.png,0,0,0,252,252,252,,,,,,,,,,,,,149.01324310000018,0.013243100000181585,None,188.06246689999898,188.06246689999898,188.06246689999898,188.06246689999898,188.06246689999898,188.06246689999898,188.06246689999898,188.06246689999898,,003,P019,2025_Mar_21_1102,CategoryLocalizer,2021.2.3,59.93924558100149,
149.8,150.0,5,0.0,Stimuli\Blank.png,0,0,0,253,253,253,,,,,,,,,,,,,149.81337990000065,0.013379900000643374,None,188.86313209999935,188.86313209999935,188.86313209999935,188.86313209999935,188.86313209999935,188.86313209999935,188.86313209999935,188.86313209999935,,003,P019,2025_Mar_21_1102,CategoryLocalizer,2021.2.3,59.93924558100149,
150.0,150.8,2,0.75,Stimuli\ImageFiles-Set1\Bodies\Bodies_Lunging_00003.png,0,0,0,254,254,254,,,,,,,,,,,,,150.01446229999965,0.014462299999649986,None,189.08004759999858,189.08004759999858,189.08004759999858,189.08004759999858,189.08004759999858,189.08004759999858,189.08004759999858,189.08004759999858,,003,P019,2025_Mar_21_1102,CategoryLocalizer,2021.2.3,59.93924558100149,
150.8,151.0,5,0.0,Stimuli\Blank.png,0,0,0,255,255,255,,,,,,,,,,,,,150.83154409999952,0.03154409999950758,None,189.88073339999937,189.88073339999937,189.88073339999937,189.88073339999937,189.88073339999937,189.88073339999937,189.88073339999937,189.88073339999937,,003,P019,2025_Mar_21_1102,CategoryLocalizer,2021.2.3,59.93924558100149,
151.0,151.8,2,0.75,Stimuli\ImageFiles-Set1\Bodies\Bodies_CobraPose_00001.png,0,0,0,256,256,256,,,,,,,,,,,,,151.0169679999999,0.01696799999990617,None,190.08090759999868,190.08090759999868,190.08090759999868,190.08090759999868,190.08090759999868,190.08090759999868,190.08090759999868,190.08090759999868,,003,P019,2025_Mar_21_1102,CategoryLocalizer,2021.2.3,59.93924558100149,
151.8,152.0,5,0.0,Stimuli\Blank.png,0,0,0,257,257,257,,,,,,,,,,,,,151.81639150000046,0.016391500000452197,None,190.86493619999965,190.86493619999965,190.86493619999965,190.86493619999965,190.86493619999965,190.86493619999965,190.86493619999965,190.86493619999965,,003,P019,2025_Mar_21_1102,CategoryLocalizer,2021.2.3,59.93924558100149,
152.0,164.0,0,0.0,Stimuli\Blank.png,0,0,0,258,258,258,,,,,,,,,,,,,151.9994129000006,-0.0005870999993931036,None,191.04842779999854,191.04842779999854,191.04842779999854,191.04842779999854,191.04842779999854,191.04842779999854,191.04842779999854,191.04842779999854,,003,P019,2025_Mar_21_1102,CategoryLocalizer,2021.2.3,59.93924558100149,
164.0,164.8,4,0.75,Stimuli\ImageFiles-Set1\Scenes\Scenes_055.png,0,0,0,259,259,259,,,,,,,,,,,,,164.0093342,0.00933420000001206,None,203.05903809999836,203.05903809999836,203.05903809999836,203.05903809999836,203.05903809999836,203.05903809999836,203.05903809999836,203.05903809999836,,003,P019,2025_Mar_21_1102,CategoryLocalizer,2021.2.3,59.93924558100149,
164.8,165.0,5,0.0,Stimuli\Blank.png,0,0,0,260,260,260,,,,,,,,,,,,,164.8121013,0.01210129999998344,None,203.87646049999967,203.87646049999967,203.87646049999967,203.87646049999967,203.87646049999967,203.87646049999967,203.87646049999967,203.87646049999967,,003,P019,2025_Mar_21_1102,CategoryLocalizer,2021.2.3,59.93924558100149,
165.0,165.8,4,0.75,Stimuli\ImageFiles-Set1\Scenes\Scenes_022.png,0,0,0,261,261,261,,,,,,,,,,,,,165.02819090000048,0.028190900000481633,None,204.0932871999994,204.0932871999994,204.0932871999994,204.0932871999994,204.0932871999994,204.0932871999994,204.0932871999994,204.0932871999994,,003,P019,2025_Mar_21_1102,CategoryLocalizer,2021.2.3,59.93924558100149,
165.8,166.0,5,0.0,Stimuli\Blank.png,0,0,0,262,262,262,,,,,,,,,,,,,165.8282975000002,0.02829750000017839,None,204.87731239999994,204.87731239999994,204.87731239999994,204.87731239999994,204.87731239999994,204.87731239999994,204.87731239999994,204.87731239999994,,003,P019,2025_Mar_21_1102,CategoryLocalizer,2021.2.3,59.93924558100149,
166.0,166.8,4,0.75,Stimuli\ImageFiles-Set1\Scenes\Scenes_002.png,0,0,0,263,263,263,,,,,,,,,,,,,166.01185729999997,0.011857299999974202,None,205.06080989999828,205.06080989999828,205.06080989999828,205.06080989999828,205.06080989999828,205.06080989999828,205.06080989999828,205.06080989999828,,003,P019,2025_Mar_21_1102,CategoryLocalizer,2021.2.3,59.93924558100149,
166.8,167.0,5,0.0,Stimuli\Blank.png,0,0,0,264,264,264,,,,,,,,,,,,,166.81328849999954,0.013288499999532633,None,205.86152259999835,205.86152259999835,205.86152259999835,205.86152259999835,205.86152259999835,205.86152259999835,205.86152259999835,205.86152259999835,,003,P019,2025_Mar_21_1102,CategoryLocalizer,2021.2.3,59.93924558100149,
167.0,167.8,4,0.75,Stimuli\ImageFiles-Set1\Scenes\Scenes_058.png,0,0,0,265,265,265,,,,,,,,,,,,,167.012657700001,0.012657700001000194,None,206.07837969999855,206.07837969999855,206.07837969999855,206.07837969999855,206.07837969999855,206.07837969999855,206.07837969999855,206.07837969999855,,003,P019,2025_Mar_21_1102,CategoryLocalizer,2021.2.3,59.93924558100149,
167.8,168.0,5,0.0,Stimuli\Blank.png,0,0,0,266,266,266,,,,,,,,,,,,,167.82931479999934,0.029314799999326624,None,206.8790777999984,206.8790777999984,206.8790777999984,206.8790777999984,206.8790777999984,206.8790777999984,206.8790777999984,206.8790777999984,,003,P019,2025_Mar_21_1102,CategoryLocalizer,2021.2.3,59.93924558100149,
168.0,168.8,4,0.75,Stimuli\ImageFiles-Set1\Scenes\Scenes_031.png,0,0,0,267,267,267,,,,,,,,,,,,,168.01389150000068,0.013891500000681845,None,207.09594130000005,207.09594130000005,207.09594130000005,207.09594130000005,207.09594130000005,207.09594130000005,207.09594130000005,207.09594130000005,,003,P019,2025_Mar_21_1102,CategoryLocalizer,2021.2.3,59.93924558100149,
168.8,169.0,5,0.0,Stimuli\Blank.png,0,0,0,268,268,268,,,,,,,,,,,,,168.8468752000008,0.046875200000783934,None,207.89663499999915,207.89663499999915,207.89663499999915,207.89663499999915,207.89663499999915,207.89663499999915,207.89663499999915,207.89663499999915,,003,P019,2025_Mar_21_1102,CategoryLocalizer,2021.2.3,59.93924558100149,
169.0,169.8,4,0.75,Stimuli\ImageFiles-Set1\Scenes\Scenes_047.png,0,0,0,269,269,269,,,,,,,,,,,,,169.0145382999999,0.014538299999912851,None,208.08014430000003,208.08014430000003,208.08014430000003,208.08014430000003,208.08014430000003,208.08014430000003,208.08014430000003,208.08014430000003,,003,P019,2025_Mar_21_1102,CategoryLocalizer,2021.2.3,59.93924558100149,
169.8,170.0,5,0.0,Stimuli\Blank.png,0,0,0,270,270,270,,,,,,,,,,,,,169.83201740000004,0.032017400000029284,None,208.88086119999934,208.88086119999934,208.88086119999934,208.88086119999934,208.88086119999934,208.88086119999934,208.88086119999934,208.88086119999934,,003,P019,2025_Mar_21_1102,CategoryLocalizer,2021.2.3,59.93924558100149,
170.0,170.8,4,0.75,Stimuli\ImageFiles-Set1\Scenes\Scenes_041.png,0,0,0,271,271,271,,,,,,,,,,,,,170.01735050000025,0.017350500000247848,None,209.08103389999997,209.08103389999997,209.08103389999997,209.08103389999997,209.08103389999997,209.08103389999997,209.08103389999997,209.08103389999997,,003,P019,2025_Mar_21_1102,CategoryLocalizer,2021.2.3,59.93924558100149,
170.8,171.0,5,0.0,Stimuli\Blank.png,0,0,0,272,272,272,,,,,,,,,,,,,170.8170678000006,0.017067800000575062,None,209.8817614999989,209.8817614999989,209.8817614999989,209.8817614999989,209.8817614999989,209.8817614999989,209.8817614999989,209.8817614999989,,003,P019,2025_Mar_21_1102,CategoryLocalizer,2021.2.3,59.93924558100149,
171.0,171.8,4,0.75,Stimuli\ImageFiles-Set1\Scenes\Scenes_048.png,0,0,0,273,273,273,,,,,,,,,,,,,171.0179289000007,0.017928900000697467,None,210.08191899999838,210.08191899999838,210.08191899999838,210.08191899999838,210.08191899999838,210.08191899999838,210.08191899999838,210.08191899999838,,003,P019,2025_Mar_21_1102,CategoryLocalizer,2021.2.3,59.93924558100149,
171.8,172.0,5,0.0,Stimuli\Blank.png,0,0,0,274,274,274,,,,,,,,,,,,,171.81619800000044,0.016198000000429147,None,210.86593379999977,210.86593379999977,210.86593379999977,210.86593379999977,210.86593379999977,210.86593379999977,210.86593379999977,210.86593379999977,,003,P019,2025_Mar_21_1102,CategoryLocalizer,2021.2.3,59.93924558100149,
172.0,172.8,4,0.75,Stimuli\ImageFiles-Set1\Scenes\Scenes_060.png,0,0,0,275,275,275,,,,,,,,,,,,,171.9998345999993,-0.00016540000069653615,None,211.04942479999954,211.04942479999954,211.04942479999954,211.04942479999954,211.04942479999954,211.04942479999954,211.04942479999954,211.04942479999954,,003,P019,2025_Mar_21_1102,CategoryLocalizer,2021.2.3,59.93924558100149,
172.8,173.0,5,0.0,Stimuli\Blank.png,0,0,0,276,276,276,,,,,,,,,,,,,172.8017935000007,0.0017935000007014423,None,211.85014909999882,211.85014909999882,211.85014909999882,211.85014909999882,211.85014909999882,211.85014909999882,211.85014909999882,211.85014909999882,,003,P019,2025_Mar_21_1102,CategoryLocalizer,2021.2.3,59.93924558100149,
173.0,173.8,4,0.75,Stimuli\ImageFiles-Set1\Scenes\Scenes_006.png,0,0,0,277,277,277,,,,,,,,,,,,,173.00236089999999,0.002360899999985122,None,212.06700679999994,212.06700679999994,212.06700679999994,212.06700679999994,212.06700679999994,212.06700679999994,212.06700679999994,212.06700679999994,,003,P019,2025_Mar_21_1102,CategoryLocalizer,2021.2.3,59.93924558100149,
173.8,174.0,5,0.0,Stimuli\Blank.png,0,0,0,278,278,278,,,,,,,,,,,,,173.8180527000004,0.01805270000039627,None,212.86770689999867,212.86770689999867,212.86770689999867,212.86770689999867,212.86770689999867,212.86770689999867,212.86770689999867,212.86770689999867,,003,P019,2025_Mar_21_1102,CategoryLocalizer,2021.2.3,59.93924558100149,
174.0,174.8,4,0.75,Stimuli\ImageFiles-Set1\Scenes\Scenes_054.png,0,0,0,279,279,279,,,,,,,,,,,,,174.00258100000065,0.002581000000645872,None,213.06787489999988,213.06787489999988,213.06787489999988,213.06787489999988,213.06787489999988,213.06787489999988,213.06787489999988,213.06787489999988,,003,P019,2025_Mar_21_1102,CategoryLocalizer,2021.2.3,59.93924558100149,
174.8,175.0,5,0.0,Stimuli\Blank.png,0,0,0,280,280,280,,,,,,,,,,,,,174.819214000001,0.01921400000099993,None,213.86858329999995,213.86858329999995,213.86858329999995,213.86858329999995,213.86858329999995,213.86858329999995,213.86858329999995,213.86858329999995,,003,P019,2025_Mar_21_1102,CategoryLocalizer,2021.2.3,59.93924558100149,
175.0,175.8,4,0.75,Stimuli\ImageFiles-Set1\Scenes\Scenes_045.png,0,0,0,281,281,281,,,,,,,,,,,,,175.0026271000006,0.0026271000006090617,None,214.06876629999897,214.06876629999897,214.06876629999897,214.06876629999897,214.06876629999897,214.06876629999897,214.06876629999897,214.06876629999897,,003,P019,2025_Mar_21_1102,CategoryLocalizer,2021.2.3,59.93924558100149,
175.8,176.0,5,0.0,Stimuli\Blank.png,0,0,0,282,282,282,,,,,,,,,,,,,175.81970250000086,0.019702500000846612,None,214.86947539999892,214.86947539999892,214.86947539999892,214.86947539999892,214.86947539999892,214.86947539999892,214.86947539999892,214.86947539999892,,003,P019,2025_Mar_21_1102,CategoryLocalizer,2021.2.3,59.93924558100149,
176.0,176.8,4,0.75,Stimuli\ImageFiles-Set1\Scenes\Scenes_005.png,0,0,0,283,283,283,,,,,,,,,,,,,176.0033452000007,0.0033452000006946037,None,215.05296679999992,215.05296679999992,215.05296679999992,215.05296679999992,215.05296679999992,215.05296679999992,215.05296679999992,215.05296679999992,,003,P019,2025_Mar_21_1102,CategoryLocalizer,2021.2.3,59.93924558100149,
176.8,177.0,5,0.0,Stimuli\Blank.png,0,0,0,284,284,284,,,,,,,,,,,,,176.80402800000047,0.004028000000459997,None,215.85367679999945,215.85367679999945,215.85367679999945,215.85367679999945,215.85367679999945,215.85367679999945,215.85367679999945,215.85367679999945,,003,P019,2025_Mar_21_1102,CategoryLocalizer,2021.2.3,59.93924558100149,
