eventStartTime,eventEndTime,eventCond,imSize,imFile,repeatedImage,responseEvent,Events.thisRepN,Events.thisTrialN,Events.thisN,Events.thisIndex,Instructions.started,Instructions.stopped,participantReadyResponse.keys,participantReadyResponse.rt,participantReadyResponse.started,participantReadyResponse.stopped,startWaitforTrigger,triggerResponse.keys,triggerResponse.rt,triggerResponse.started,triggerResponse.stopped,globalTimer,actualStartTime,startTimingDiff,participantResponse.keys,participantResponse.started,participantResponse.stopped,image.started,image.stopped,fixationOutside.started,fixationOutside.stopped,fixationInside.started,fixationInside.stopped,participantResponse.rt,session,participant,date,expName,psychopyVersion,frameRate,
,,,,,,,,,,,12.349985799999558,None,1,135.86588159999883,12.349985799999558,None,,,,,,,,,,,,,,,,,,,001,P019,2025_Mar_21_1003,CategoryLocalizer,2021.2.3,59.94240733524857,
,,,,,,,,,,,,,,,,,148.22207010000056,5,15.458877999999459,148.23614129999987,None,,,,,,,,,,,,,,001,P019,2025_Mar_21_1003,CategoryLocalizer,2021.2.3,59.94240733524857,
0.0,12.0,0,0.0,Stimuli\Blank.png,0,0,0,0,0,0,,,,,,,,,,,,163.7042679999995,0.050169399999504094,0.050169399999504094,None,163.76652970000032,None,163.76652970000032,None,163.76652970000032,None,163.76652970000032,None,,001,P019,2025_Mar_21_1003,CategoryLocalizer,2021.2.3,59.94240733524857,
12.0,12.8,1,0.75,Stimuli\ImageFiles-Set1\Objects\Object_Airplane_00001.png,0,0,0,1,1,1,,,,,,,,,,,,,12.009493899999143,0.00949389999914274,None,175.72709939999913,175.72709939999913,175.72709939999913,175.72709939999913,175.72709939999913,175.72709939999913,175.72709939999913,175.72709939999913,,001,P019,2025_Mar_21_1003,CategoryLocalizer,2021.2.3,59.94240733524857,
12.8,13.0,5,0.0,Stimuli\Blank.png,0,0,0,2,2,2,,,,,,,,,,,,,12.808767999998963,0.008767999998962495,None,176.52790959999948,176.52790959999948,176.52790959999948,176.52790959999948,176.52790959999948,176.52790959999948,176.52790959999948,176.52790959999948,,001,P019,2025_Mar_21_1003,CategoryLocalizer,2021.2.3,59.94240733524857,
13.0,13.8,1,0.75,Stimuli\ImageFiles-Set1\Objects\Object_Airplane_00001.png,1,1,0,3,3,3,,,,,,,,,,,,,13.009867999999187,0.009867999999187305,1,176.72800570000072,176.72800570000072,176.72800570000072,176.72800570000072,176.72800570000072,176.72800570000072,176.72800570000072,176.72800570000072,0.6227615999996488,001,P019,2025_Mar_21_1003,CategoryLocalizer,2021.2.3,59.94240733524857,
13.8,14.0,5,0.0,Stimuli\Blank.png,0,0,0,4,4,4,,,,,,,,,,,,,13.810022100000424,0.01002210000042325,None,177.52869199999986,177.52869199999986,177.52869199999986,177.52869199999986,177.52869199999986,177.52869199999986,177.52869199999986,177.52869199999986,,001,P019,2025_Mar_21_1003,CategoryLocalizer,2021.2.3,59.94240733524857,
14.0,14.8,1,0.75,Stimuli\ImageFiles-Set1\Objects\Object_Pencil_00001.png,0,0,0,5,5,5,,,,,,,,,,,,,14.010581599999568,0.010581599999568425,None,177.76218399999925,177.76218399999925,177.76218399999925,177.76218399999925,177.76218399999925,177.76218399999925,177.76218399999925,177.76218399999925,,001,P019,2025_Mar_21_1003,CategoryLocalizer,2021.2.3,59.94240733524857,
14.8,15.0,5,0.0,Stimuli\Blank.png,0,0,0,6,6,6,,,,,,,,,,,,,14.84515139999894,0.04515139999893947,None,178.5629439000004,178.5629439000004,178.5629439000004,178.5629439000004,178.5629439000004,178.5629439000004,178.5629439000004,178.5629439000004,,001,P019,2025_Mar_21_1003,CategoryLocalizer,2021.2.3,59.94240733524857,
15.0,15.8,1,0.75,Stimuli\ImageFiles-Set1\Objects\Object_Pizza_00001.png,0,0,0,7,7,7,,,,,,,,,,,,,15.011126100000183,0.011126100000183214,None,178.72974539999996,178.72974539999996,178.72974539999996,178.72974539999996,178.72974539999996,178.72974539999996,178.72974539999996,178.72974539999996,,001,P019,2025_Mar_21_1003,CategoryLocalizer,2021.2.3,59.94240733524857,
15.8,16.0,5,0.0,Stimuli\Blank.png,0,0,0,8,8,8,,,,,,,,,,,,,15.812487799999872,0.01248779999987093,None,179.5304555999992,179.5304555999992,179.5304555999992,179.5304555999992,179.5304555999992,179.5304555999992,179.5304555999992,179.5304555999992,,001,P019,2025_Mar_21_1003,CategoryLocalizer,2021.2.3,59.94240733524857,
16.0,16.8,1,0.75,Stimuli\ImageFiles-Set1\Objects\Object_Stool_00001.png,0,0,0,9,9,9,,,,,,,,,,,,,16.01240709999911,0.01240709999910905,None,179.73065130000032,179.73065130000032,179.73065130000032,179.73065130000032,179.73065130000032,179.73065130000032,179.73065130000032,179.73065130000032,,001,P019,2025_Mar_21_1003,CategoryLocalizer,2021.2.3,59.94240733524857,
16.8,17.0,5,0.0,Stimuli\Blank.png,0,0,0,10,10,10,,,,,,,,,,,,,16.814818099999684,0.014818099999683199,None,180.54803840000022,180.54803840000022,180.54803840000022,180.54803840000022,180.54803840000022,180.54803840000022,180.54803840000022,180.54803840000022,,001,P019,2025_Mar_21_1003,CategoryLocalizer,2021.2.3,59.94240733524857,
17.0,17.8,1,0.75,Stimuli\ImageFiles-Set1\Objects\Object_Walnut_00001.png,0,0,0,11,11,11,,,,,,,,,,,,,17.03017279999949,0.030172799999490962,None,180.76488889999928,180.76488889999928,180.76488889999928,180.76488889999928,180.76488889999928,180.76488889999928,180.76488889999928,180.76488889999928,,001,P019,2025_Mar_21_1003,CategoryLocalizer,2021.2.3,59.94240733524857,
17.8,18.0,5,0.0,Stimuli\Blank.png,0,0,0,12,12,12,,,,,,,,,,,,,17.830502400000114,0.030502400000113283,None,181.54891900000075,181.54891900000075,181.54891900000075,181.54891900000075,181.54891900000075,181.54891900000075,181.54891900000075,181.54891900000075,,001,P019,2025_Mar_21_1003,CategoryLocalizer,2021.2.3,59.94240733524857,
18.0,18.8,1,0.75,Stimuli\ImageFiles-Set1\Objects\Object_Book_00001.png,0,0,0,13,13,13,,,,,,,,,,,,,18.013642699999764,0.013642699999763863,1,181.76582129999952,181.76582129999952,181.76582129999952,181.76582129999952,181.76582129999952,181.76582129999952,181.76582129999952,181.76582129999952,0.10205080000014277,001,P019,2025_Mar_21_1003,CategoryLocalizer,2021.2.3,59.94240733524857,
18.8,19.0,5,0.0,Stimuli\Blank.png,0,0,0,14,14,14,,,,,,,,,,,,,18.848491400000057,0.04849140000005647,None,182.5664914000008,182.5664914000008,182.5664914000008,182.5664914000008,182.5664914000008,182.5664914000008,182.5664914000008,182.5664914000008,,001,P019,2025_Mar_21_1003,CategoryLocalizer,2021.2.3,59.94240733524857,
19.0,19.8,1,0.75,Stimuli\ImageFiles-Set1\Objects\Object_Pillow_00001.png,0,0,0,15,15,15,,,,,,,,,,,,,19.0155737999994,0.015573799999401672,None,182.74999129999924,182.74999129999924,182.74999129999924,182.74999129999924,182.74999129999924,182.74999129999924,182.74999129999924,182.74999129999924,,001,P019,2025_Mar_21_1003,CategoryLocalizer,2021.2.3,59.94240733524857,
19.8,20.0,5,0.0,Stimuli\Blank.png,0,0,0,16,16,16,,,,,,,,,,,,,19.815922100000535,0.015922100000533845,None,183.53400150000016,183.53400150000016,183.53400150000016,183.53400150000016,183.53400150000016,183.53400150000016,183.53400150000016,183.53400150000016,,001,P019,2025_Mar_21_1003,CategoryLocalizer,2021.2.3,59.94240733524857,
20.0,20.8,1,0.75,Stimuli\ImageFiles-Set1\Objects\Object_Banana_00001.png,0,0,0,17,17,17,,,,,,,,,,,,,19.999447899999723,-0.000552100000277278,None,183.73418719999972,183.73418719999972,183.73418719999972,183.73418719999972,183.73418719999972,183.73418719999972,183.73418719999972,183.73418719999972,,001,P019,2025_Mar_21_1003,CategoryLocalizer,2021.2.3,59.94240733524857,
20.8,21.0,5,0.0,Stimuli\Blank.png,0,0,0,18,18,18,,,,,,,,,,,,,20.81614619999891,0.01614619999891076,None,184.53487549999954,184.53487549999954,184.53487549999954,184.53487549999954,184.53487549999954,184.53487549999954,184.53487549999954,184.53487549999954,,001,P019,2025_Mar_21_1003,CategoryLocalizer,2021.2.3,59.94240733524857,
21.0,21.8,1,0.75,Stimuli\ImageFiles-Set1\Objects\Object_Motorcycle_00001.png,0,0,0,19,19,19,,,,,,,,,,,,,20.999624899999617,-0.00037510000038309954,None,184.71835029999966,184.71835029999966,184.71835029999966,184.71835029999966,184.71835029999966,184.71835029999966,184.71835029999966,184.71835029999966,,001,P019,2025_Mar_21_1003,CategoryLocalizer,2021.2.3,59.94240733524857,
21.8,22.0,5,0.0,Stimuli\Blank.png,0,0,0,20,20,20,,,,,,,,,,,,,21.80156739999984,0.0015673999998391253,None,185.53579979999995,185.53579979999995,185.53579979999995,185.53579979999995,185.53579979999995,185.53579979999995,185.53579979999995,185.53579979999995,,001,P019,2025_Mar_21_1003,CategoryLocalizer,2021.2.3,59.94240733524857,
22.0,22.8,1,0.75,Stimuli\ImageFiles-Set1\Objects\Object_Dice_00001.png,0,0,0,21,21,21,,,,,,,,,,,,,22.01700560000063,0.017005600000629784,None,185.75263389999964,185.75263389999964,185.75263389999964,185.75263389999964,185.75263389999964,185.75263389999964,185.75263389999964,185.75263389999964,,001,P019,2025_Mar_21_1003,CategoryLocalizer,2021.2.3,59.94240733524857,
22.8,23.0,5,0.0,Stimuli\Blank.png,0,0,0,22,22,22,,,,,,,,,,,,,22.81981199999973,0.019811999999728158,None,186.55333299999984,186.55333299999984,186.55333299999984,186.55333299999984,186.55333299999984,186.55333299999984,186.55333299999984,186.55333299999984,,001,P019,2025_Mar_21_1003,CategoryLocalizer,2021.2.3,59.94240733524857,
23.0,23.8,1,0.75,Stimuli\ImageFiles-Set1\Objects\Object_Pot_00001.png,0,0,0,23,23,23,,,,,,,,,,,,,23.01792310000019,0.01792310000018915,None,186.77023279999958,186.77023279999958,186.77023279999958,186.77023279999958,186.77023279999958,186.77023279999958,186.77023279999958,186.77023279999958,,001,P019,2025_Mar_21_1003,CategoryLocalizer,2021.2.3,59.94240733524857,
23.8,24.0,5,0.0,Stimuli\Blank.png,0,0,0,24,24,24,,,,,,,,,,,,,23.835291499999585,0.03529149999958392,None,187.5542203999994,187.5542203999994,187.5542203999994,187.5542203999994,187.5542203999994,187.5542203999994,187.5542203999994,187.5542203999994,,001,P019,2025_Mar_21_1003,CategoryLocalizer,2021.2.3,59.94240733524857,
24.0,24.8,1,0.75,Stimuli\ImageFiles-Set1\Objects\Object_Bench_00001.png,1,1,0,25,25,25,,,,,,,,,,,,,24.00267619999977,0.002676199999768869,None,187.72102389999964,187.72102389999964,187.72102389999964,187.72102389999964,187.72102389999964,187.72102389999964,187.72102389999964,187.72102389999964,,001,P019,2025_Mar_21_1003,CategoryLocalizer,2021.2.3,59.94240733524857,
24.8,25.0,5,0.0,Stimuli\Blank.png,0,0,0,26,26,26,,,,,,,,,,,,,24.802638600000137,0.0026386000001359378,None,188.5217044000001,188.5217044000001,188.5217044000001,188.5217044000001,188.5217044000001,188.5217044000001,188.5217044000001,188.5217044000001,,001,P019,2025_Mar_21_1003,CategoryLocalizer,2021.2.3,59.94240733524857,
25.0,25.8,1,0.75,Stimuli\ImageFiles-Set1\Objects\Object_Card_00001.png,0,0,0,27,27,27,,,,,,,,,,,,,25.003544400000465,0.0035444000004645204,None,188.72192820000055,188.72192820000055,188.72192820000055,188.72192820000055,188.72192820000055,188.72192820000055,188.72192820000055,188.72192820000055,,001,P019,2025_Mar_21_1003,CategoryLocalizer,2021.2.3,59.94240733524857,
25.8,26.0,5,0.0,Stimuli\Blank.png,0,0,0,28,28,28,,,,,,,,,,,,,25.803732399999717,0.003732399999716307,None,189.52266670000063,189.52266670000063,189.52266670000063,189.52266670000063,189.52266670000063,189.52266670000063,189.52266670000063,189.52266670000063,,001,P019,2025_Mar_21_1003,CategoryLocalizer,2021.2.3,59.94240733524857,
26.0,26.8,1,0.75,Stimuli\ImageFiles-Set1\Objects\Object_Card_00001.png,0,0,0,29,29,29,,,,,,,,,,,,,26.004044400000566,0.004044400000566384,1,189.72280339999998,189.72280339999998,189.72280339999998,189.72280339999998,189.72280339999998,189.72280339999998,189.72280339999998,189.72280339999998,0.4920437000000675,001,P019,2025_Mar_21_1003,CategoryLocalizer,2021.2.3,59.94240733524857,
26.8,27.0,5,0.0,Stimuli\Blank.png,0,0,0,30,30,30,,,,,,,,,,,,,26.804789599998912,0.004789599998911598,None,190.52350189999925,190.52350189999925,190.52350189999925,190.52350189999925,190.52350189999925,190.52350189999925,190.52350189999925,190.52350189999925,,001,P019,2025_Mar_21_1003,CategoryLocalizer,2021.2.3,59.94240733524857,
27.0,27.8,1,0.75,Stimuli\ImageFiles-Set1\Objects\Object_Crib_00001.png,0,0,0,31,31,31,,,,,,,,,,,,,27.005809299998873,0.00580929999887303,None,190.7403675000005,190.7403675000005,190.7403675000005,190.7403675000005,190.7403675000005,190.7403675000005,190.7403675000005,190.7403675000005,,001,P019,2025_Mar_21_1003,CategoryLocalizer,2021.2.3,59.94240733524857,
27.8,28.0,5,0.0,Stimuli\Blank.png,0,0,0,32,32,32,,,,,,,,,,,,,27.82297490000019,0.022974900000189535,None,191.54110220000075,191.54110220000075,191.54110220000075,191.54110220000075,191.54110220000075,191.54110220000075,191.54110220000075,191.54110220000075,,001,P019,2025_Mar_21_1003,CategoryLocalizer,2021.2.3,59.94240733524857,
28.0,28.8,2,0.75,Stimuli\ImageFiles-Set1\Bodies\Bodies_Falling_00004.png,0,0,0,33,33,33,,,,,,,,,,,,,28.005608699999357,0.005608699999356759,None,191.72457249999934,191.72457249999934,191.72457249999934,191.72457249999934,191.72457249999934,191.72457249999934,191.72457249999934,191.72457249999934,,001,P019,2025_Mar_21_1003,CategoryLocalizer,2021.2.3,59.94240733524857,
28.8,29.0,5,0.0,Stimuli\Blank.png,0,0,0,34,34,34,,,,,,,,,,,,,28.80624159999934,0.006241599999338376,None,192.52530959999967,192.52530959999967,192.52530959999967,192.52530959999967,192.52530959999967,192.52530959999967,192.52530959999967,192.52530959999967,,001,P019,2025_Mar_21_1003,CategoryLocalizer,2021.2.3,59.94240733524857,
29.0,29.8,2,0.75,Stimuli\ImageFiles-Set1\Bodies\Bodies_Pushing_00003.png,0,0,0,35,35,35,,,,,,,,,,,,,29.0064538000006,0.0064538000005995855,None,192.74213729999974,192.74213729999974,192.74213729999974,192.74213729999974,192.74213729999974,192.74213729999974,192.74213729999974,192.74213729999974,,001,P019,2025_Mar_21_1003,CategoryLocalizer,2021.2.3,59.94240733524857,
29.8,30.0,5,0.0,Stimuli\Blank.png,0,0,0,36,36,36,,,,,,,,,,,,,29.824932699999408,0.024932699999407504,None,193.5428140999993,193.5428140999993,193.5428140999993,193.5428140999993,193.5428140999993,193.5428140999993,193.5428140999993,193.5428140999993,,001,P019,2025_Mar_21_1003,CategoryLocalizer,2021.2.3,59.94240733524857,
30.0,30.8,2,0.75,Stimuli\ImageFiles-Set1\Bodies\Bodies_SittingChair_00003.png,0,0,0,37,37,37,,,,,,,,,,,,,30.009725300000355,0.009725300000354764,None,193.74303280000095,193.74303280000095,193.74303280000095,193.74303280000095,193.74303280000095,193.74303280000095,193.74303280000095,193.74303280000095,,001,P019,2025_Mar_21_1003,CategoryLocalizer,2021.2.3,59.94240733524857,
30.8,31.0,5,0.0,Stimuli\Blank.png,0,0,0,38,38,38,,,,,,,,,,,,,30.82477900000049,0.02477900000048905,None,194.54375120000077,194.54375120000077,194.54375120000077,194.54375120000077,194.54375120000077,194.54375120000077,194.54375120000077,194.54375120000077,,001,P019,2025_Mar_21_1003,CategoryLocalizer,2021.2.3,59.94240733524857,
31.0,31.8,2,0.75,Stimuli\ImageFiles-Set1\Bodies\Bodies_CobraPose_00003.png,0,0,0,39,39,39,,,,,,,,,,,,,31.008955699999206,0.008955699999205535,None,194.72722109999995,194.72722109999995,194.72722109999995,194.72722109999995,194.72722109999995,194.72722109999995,194.72722109999995,194.72722109999995,,001,P019,2025_Mar_21_1003,CategoryLocalizer,2021.2.3,59.94240733524857,
31.8,32.0,5,0.0,Stimuli\Blank.png,0,0,0,40,40,40,,,,,,,,,,,,,31.809630100000504,0.009630100000503461,None,195.5279358000007,195.5279358000007,195.5279358000007,195.5279358000007,195.5279358000007,195.5279358000007,195.5279358000007,195.5279358000007,,001,P019,2025_Mar_21_1003,CategoryLocalizer,2021.2.3,59.94240733524857,
32.0,32.8,2,0.75,Stimuli\ImageFiles-Set1\Bodies\Bodies_Kneeling_00005.png,0,0,0,41,41,41,,,,,,,,,,,,,32.009284100000514,0.009284100000513718,None,195.74479819999942,195.74479819999942,195.74479819999942,195.74479819999942,195.74479819999942,195.74479819999942,195.74479819999942,195.74479819999942,,001,P019,2025_Mar_21_1003,CategoryLocalizer,2021.2.3,59.94240733524857,
32.8,33.0,5,0.0,Stimuli\Blank.png,0,0,0,42,42,42,,,,,,,,,,,,,32.82760479999888,0.027604799998883323,None,196.5456119999999,196.5456119999999,196.5456119999999,196.5456119999999,196.5456119999999,196.5456119999999,196.5456119999999,196.5456119999999,,001,P019,2025_Mar_21_1003,CategoryLocalizer,2021.2.3,59.94240733524857,
33.0,33.8,2,0.75,Stimuli\ImageFiles-Set1\Bodies\Bodies_Kneeling_00005.png,1,1,0,43,43,43,,,,,,,,,,,,,33.010759799999505,0.010759799999505049,1,196.72898560000067,196.72898560000067,196.72898560000067,196.72898560000067,196.72898560000067,196.72898560000067,196.72898560000067,196.72898560000067,0.4979074999992008,001,P019,2025_Mar_21_1003,CategoryLocalizer,2021.2.3,59.94240733524857,
33.8,34.0,5,0.0,Stimuli\Blank.png,0,0,0,44,44,44,,,,,,,,,,,,,33.81163919999926,0.01163919999926577,None,197.52969259999918,197.52969259999918,197.52969259999918,197.52969259999918,197.52969259999918,197.52969259999918,197.52969259999918,197.52969259999918,,001,P019,2025_Mar_21_1003,CategoryLocalizer,2021.2.3,59.94240733524857,
34.0,34.8,2,0.75,Stimuli\ImageFiles-Set1\Bodies\Bodies_Kicking_00003.png,0,0,0,45,45,45,,,,,,,,,,,,,34.01120049999918,0.011200499999176827,None,197.74662589999934,197.74662589999934,197.74662589999934,197.74662589999934,197.74662589999934,197.74662589999934,197.74662589999934,197.74662589999934,,001,P019,2025_Mar_21_1003,CategoryLocalizer,2021.2.3,59.94240733524857,
34.8,35.0,5,0.0,Stimuli\Blank.png,0,0,0,46,46,46,,,,,,,,,,,,,34.83005260000027,0.030052600000274765,None,198.56395630000043,198.56395630000043,198.56395630000043,198.56395630000043,198.56395630000043,198.56395630000043,198.56395630000043,198.56395630000043,,001,P019,2025_Mar_21_1003,CategoryLocalizer,2021.2.3,59.94240733524857,
35.0,35.8,2,0.75,Stimuli\ImageFiles-Set1\Bodies\Bodies_SittingChair_00005.png,0,0,0,47,47,47,,,,,,,,,,,,,35.03109760000007,0.03109760000006645,None,198.76412229999914,198.76412229999914,198.76412229999914,198.76412229999914,198.76412229999914,198.76412229999914,198.76412229999914,198.76412229999914,,001,P019,2025_Mar_21_1003,CategoryLocalizer,2021.2.3,59.94240733524857,
35.8,36.0,5,0.0,Stimuli\Blank.png,0,0,0,48,48,48,,,,,,,,,,,,,35.82983419999982,0.029834199999825728,None,199.54813599999943,199.54813599999943,199.54813599999943,199.54813599999943,199.54813599999943,199.54813599999943,199.54813599999943,199.54813599999943,,001,P019,2025_Mar_21_1003,CategoryLocalizer,2021.2.3,59.94240733524857,
36.0,36.8,2,0.75,Stimuli\ImageFiles-Set1\Bodies\Bodies_Kicking_00007.png,0,0,0,49,49,49,,,,,,,,,,,,,36.0139564000001,0.013956400000097346,None,199.7483214999993,199.7483214999993,199.7483214999993,199.7483214999993,199.7483214999993,199.7483214999993,199.7483214999993,199.7483214999993,,001,P019,2025_Mar_21_1003,CategoryLocalizer,2021.2.3,59.94240733524857,
36.8,37.0,5,0.0,Stimuli\Blank.png,0,0,0,50,50,50,,,,,,,,,,,,,36.83077140000023,0.030771400000233484,None,200.54903709999962,200.54903709999962,200.54903709999962,200.54903709999962,200.54903709999962,200.54903709999962,200.54903709999962,200.54903709999962,,001,P019,2025_Mar_21_1003,CategoryLocalizer,2021.2.3,59.94240733524857,
37.0,37.8,2,0.75,Stimuli\ImageFiles-Set1\Bodies\Bodies_SittingChair_00001.png,0,0,0,51,51,51,,,,,,,,,,,,,37.01427229999899,0.014272299998992821,None,200.74920960000054,200.74920960000054,200.74920960000054,200.74920960000054,200.74920960000054,200.74920960000054,200.74920960000054,200.74920960000054,,001,P019,2025_Mar_21_1003,CategoryLocalizer,2021.2.3,59.94240733524857,
37.8,38.0,5,0.0,Stimuli\Blank.png,0,0,0,52,52,52,,,,,,,,,,,,,37.831510800000615,0.03151080000061768,None,201.54991110000083,201.54991110000083,201.54991110000083,201.54991110000083,201.54991110000083,201.54991110000083,201.54991110000083,201.54991110000083,,001,P019,2025_Mar_21_1003,CategoryLocalizer,2021.2.3,59.94240733524857,
38.0,38.8,2,0.75,Stimuli\ImageFiles-Set1\Bodies\Bodies_Jumping_00006.png,0,0,0,53,53,53,,,,,,,,,,,,,38.0144094999996,0.014409499999601394,None,201.7501081999999,201.7501081999999,201.7501081999999,201.7501081999999,201.7501081999999,201.7501081999999,201.7501081999999,201.7501081999999,,001,P019,2025_Mar_21_1003,CategoryLocalizer,2021.2.3,59.94240733524857,
38.8,39.0,5,0.0,Stimuli\Blank.png,0,0,0,54,54,54,,,,,,,,,,,,,38.831928999999946,0.03192899999994836,None,202.55079809999916,202.55079809999916,202.55079809999916,202.55079809999916,202.55079809999916,202.55079809999916,202.55079809999916,202.55079809999916,,001,P019,2025_Mar_21_1003,CategoryLocalizer,2021.2.3,59.94240733524857,
39.0,39.8,2,0.75,Stimuli\ImageFiles-Set1\Bodies\Bodies_Waving_00005.png,0,0,0,55,55,55,,,,,,,,,,,,,39.0154335999996,0.015433599999596481,None,202.75099760000012,202.75099760000012,202.75099760000012,202.75099760000012,202.75099760000012,202.75099760000012,202.75099760000012,202.75099760000012,,001,P019,2025_Mar_21_1003,CategoryLocalizer,2021.2.3,59.94240733524857,
39.8,40.0,5,0.0,Stimuli\Blank.png,0,0,0,56,56,56,,,,,,,,,,,,,39.81595589999961,0.01595589999961078,None,203.5349984000004,203.5349984000004,203.5349984000004,203.5349984000004,203.5349984000004,203.5349984000004,203.5349984000004,203.5349984000004,,001,P019,2025_Mar_21_1003,CategoryLocalizer,2021.2.3,59.94240733524857,
40.0,40.8,2,0.75,Stimuli\ImageFiles-Set1\Bodies\Bodies_Walking_00006.png,0,0,0,57,57,57,,,,,,,,,,,,,39.99992029999885,-7.970000115165021e-05,None,203.7351964999998,203.7351964999998,203.7351964999998,203.7351964999998,203.7351964999998,203.7351964999998,203.7351964999998,203.7351964999998,,001,P019,2025_Mar_21_1003,CategoryLocalizer,2021.2.3,59.94240733524857,
40.8,41.0,5,0.0,Stimuli\Blank.png,0,0,0,58,58,58,,,,,,,,,,,,,40.81689430000006,0.01689430000006098,None,204.53588320000017,204.53588320000017,204.53588320000017,204.53588320000017,204.53588320000017,204.53588320000017,204.53588320000017,204.53588320000017,,001,P019,2025_Mar_21_1003,CategoryLocalizer,2021.2.3,59.94240733524857,
41.0,41.8,2,0.75,Stimuli\ImageFiles-Set1\Bodies\Bodies_QuadStretch_00003.png,1,1,0,59,59,59,,,,,,,,,,,,,41.00039619999916,0.00039619999915885273,None,204.71937529999923,204.71937529999923,204.71937529999923,204.71937529999923,204.71937529999923,204.71937529999923,204.71937529999923,204.71937529999923,,001,P019,2025_Mar_21_1003,CategoryLocalizer,2021.2.3,59.94240733524857,
41.8,42.0,5,0.0,Stimuli\Blank.png,0,0,0,60,60,60,,,,,,,,,,,,,41.8022222999989,0.0022222999989054415,None,205.52008670000032,205.52008670000032,205.52008670000032,205.52008670000032,205.52008670000032,205.52008670000032,205.52008670000032,205.52008670000032,,001,P019,2025_Mar_21_1003,CategoryLocalizer,2021.2.3,59.94240733524857,
42.0,42.8,2,0.75,Stimuli\ImageFiles-Set1\Bodies\Bodies_DownwardDog_00007.png,0,0,0,61,61,61,,,,,,,,,,,,,42.001434199999494,0.0014341999994940124,None,205.73694810000052,205.73694810000052,205.73694810000052,205.73694810000052,205.73694810000052,205.73694810000052,205.73694810000052,205.73694810000052,,001,P019,2025_Mar_21_1003,CategoryLocalizer,2021.2.3,59.94240733524857,
42.8,43.0,5,0.0,Stimuli\Blank.png,0,0,0,62,62,62,,,,,,,,,,,,,42.819624300000214,0.019624300000216977,None,206.53763719999915,206.53763719999915,206.53763719999915,206.53763719999915,206.53763719999915,206.53763719999915,206.53763719999915,206.53763719999915,,001,P019,2025_Mar_21_1003,CategoryLocalizer,2021.2.3,59.94240733524857,
43.0,43.8,2,0.75,Stimuli\ImageFiles-Set1\Bodies\Bodies_DownwardDog_00007.png,0,0,0,63,63,63,,,,,,,,,,,,,43.00497059999907,0.004970599999069236,1,206.73784680000063,206.73784680000063,206.73784680000063,206.73784680000063,206.73784680000063,206.73784680000063,206.73784680000063,206.73784680000063,0.502946399999928,001,P019,2025_Mar_21_1003,CategoryLocalizer,2021.2.3,59.94240733524857,
43.8,44.0,5,0.0,Stimuli\Blank.png,0,0,0,64,64,64,,,,,,,,,,,,,43.820211799999015,0.0202117999990179,None,207.5385597000004,207.5385597000004,207.5385597000004,207.5385597000004,207.5385597000004,207.5385597000004,207.5385597000004,207.5385597000004,,001,P019,2025_Mar_21_1003,CategoryLocalizer,2021.2.3,59.94240733524857,
44.0,44.8,3,0.75,Stimuli\ImageFiles-Set1\Faces\Face_00089.png,0,0,0,65,65,65,,,,,,,,,,,,,44.00364249999984,0.003642499999841675,None,207.73876030000065,207.73876030000065,207.73876030000065,207.73876030000065,207.73876030000065,207.73876030000065,207.73876030000065,207.73876030000065,,001,P019,2025_Mar_21_1003,CategoryLocalizer,2021.2.3,59.94240733524857,
44.8,45.0,5,0.0,Stimuli\Blank.png,0,0,0,66,66,66,,,,,,,,,,,,,44.82042849999925,0.020428499999255223,None,208.53941599999962,208.53941599999962,208.53941599999962,208.53941599999962,208.53941599999962,208.53941599999962,208.53941599999962,208.53941599999962,,001,P019,2025_Mar_21_1003,CategoryLocalizer,2021.2.3,59.94240733524857,
45.0,45.8,3,0.75,Stimuli\ImageFiles-Set1\Faces\Face_00005.png,0,0,0,67,67,67,,,,,,,,,,,,,45.00448270000015,0.004482700000153272,None,208.7396004000002,208.7396004000002,208.7396004000002,208.7396004000002,208.7396004000002,208.7396004000002,208.7396004000002,208.7396004000002,,001,P019,2025_Mar_21_1003,CategoryLocalizer,2021.2.3,59.94240733524857,
45.8,46.0,5,0.0,Stimuli\Blank.png,0,0,0,68,68,68,,,,,,,,,,,,,45.82155409999905,0.02155409999905089,None,209.54029900000023,209.54029900000023,209.54029900000023,209.54029900000023,209.54029900000023,209.54029900000023,209.54029900000023,209.54029900000023,,001,P019,2025_Mar_21_1003,CategoryLocalizer,2021.2.3,59.94240733524857,
46.0,46.8,3,0.75,Stimuli\ImageFiles-Set1\Faces\Face_00045.png,0,0,0,69,69,69,,,,,,,,,,,,,46.005610199999865,0.005610199999864562,None,209.75716359999933,209.75716359999933,209.75716359999933,209.75716359999933,209.75716359999933,209.75716359999933,209.75716359999933,209.75716359999933,,001,P019,2025_Mar_21_1003,CategoryLocalizer,2021.2.3,59.94240733524857,
46.8,47.0,5,0.0,Stimuli\Blank.png,0,0,0,70,70,70,,,,,,,,,,,,,46.840081099999225,0.040081099999227376,None,210.55789059999915,210.55789059999915,210.55789059999915,210.55789059999915,210.55789059999915,210.55789059999915,210.55789059999915,210.55789059999915,,001,P019,2025_Mar_21_1003,CategoryLocalizer,2021.2.3,59.94240733524857,
47.0,47.8,3,0.75,Stimuli\ImageFiles-Set1\Faces\Face_00069.png,0,0,0,71,71,71,,,,,,,,,,,,,47.00582140000006,0.0058214000000589294,None,210.72469009999986,210.72469009999986,210.72469009999986,210.72469009999986,210.72469009999986,210.72469009999986,210.72469009999986,210.72469009999986,,001,P019,2025_Mar_21_1003,CategoryLocalizer,2021.2.3,59.94240733524857,
47.8,48.0,5,0.0,Stimuli\Blank.png,0,0,0,72,72,72,,,,,,,,,,,,,47.80655200000001,0.006552000000013436,None,211.52539520000028,211.52539520000028,211.52539520000028,211.52539520000028,211.52539520000028,211.52539520000028,211.52539520000028,211.52539520000028,,001,P019,2025_Mar_21_1003,CategoryLocalizer,2021.2.3,59.94240733524857,
48.0,48.8,3,0.75,Stimuli\ImageFiles-Set1\Faces\Face_00025.png,0,0,0,73,73,73,,,,,,,,,,,,,48.00672180000038,0.006721800000377698,None,211.74225520000073,211.74225520000073,211.74225520000073,211.74225520000073,211.74225520000073,211.74225520000073,211.74225520000073,211.74225520000073,,001,P019,2025_Mar_21_1003,CategoryLocalizer,2021.2.3,59.94240733524857,
48.8,49.0,5,0.0,Stimuli\Blank.png,0,0,0,74,74,74,,,,,,,,,,,,,48.824991199999204,0.024991199999206515,None,212.54295749999983,212.54295749999983,212.54295749999983,212.54295749999983,212.54295749999983,212.54295749999983,212.54295749999983,212.54295749999983,,001,P019,2025_Mar_21_1003,CategoryLocalizer,2021.2.3,59.94240733524857,
49.0,49.8,3,0.75,Stimuli\ImageFiles-Set1\Faces\Face_00117.png,0,0,0,75,75,75,,,,,,,,,,,,,49.00818640000034,0.008186400000340655,None,212.74316960000033,212.74316960000033,212.74316960000033,212.74316960000033,212.74316960000033,212.74316960000033,212.74316960000033,212.74316960000033,,001,P019,2025_Mar_21_1003,CategoryLocalizer,2021.2.3,59.94240733524857,
49.8,50.0,5,0.0,Stimuli\Blank.png,0,0,0,76,76,76,,,,,,,,,,,,,49.825503000000026,0.02550300000002892,None,213.54384949999985,213.54384949999985,213.54384949999985,213.54384949999985,213.54384949999985,213.54384949999985,213.54384949999985,213.54384949999985,,001,P019,2025_Mar_21_1003,CategoryLocalizer,2021.2.3,59.94240733524857,
50.0,50.8,3,0.75,Stimuli\ImageFiles-Set1\Faces\Face_00119.png,0,0,0,77,77,77,,,,,,,,,,,,,50.00841559999935,0.008415599999352708,None,213.74403709999933,213.74403709999933,213.74403709999933,213.74403709999933,213.74403709999933,213.74403709999933,213.74403709999933,213.74403709999933,,001,P019,2025_Mar_21_1003,CategoryLocalizer,2021.2.3,59.94240733524857,
50.8,51.0,5,0.0,Stimuli\Blank.png,0,0,0,78,78,78,,,,,,,,,,,,,50.825917899999695,0.025917899999697624,None,214.54484650000086,214.54484650000086,214.54484650000086,214.54484650000086,214.54484650000086,214.54484650000086,214.54484650000086,214.54484650000086,,001,P019,2025_Mar_21_1003,CategoryLocalizer,2021.2.3,59.94240733524857,
51.0,51.8,3,0.75,Stimuli\ImageFiles-Set1\Faces\Face_00083.png,0,0,0,79,79,79,,,,,,,,,,,,,51.010737299999164,0.010737299999163952,None,214.76163629999974,214.76163629999974,214.76163629999974,214.76163629999974,214.76163629999974,214.76163629999974,214.76163629999974,214.76163629999974,,001,P019,2025_Mar_21_1003,CategoryLocalizer,2021.2.3,59.94240733524857,
51.8,52.0,5,0.0,Stimuli\Blank.png,0,0,0,80,80,80,,,,,,,,,,,,,51.8459256999995,0.04592569999950058,None,215.57898810000006,215.57898810000006,215.57898810000006,215.57898810000006,215.57898810000006,215.57898810000006,215.57898810000006,215.57898810000006,,001,P019,2025_Mar_21_1003,CategoryLocalizer,2021.2.3,59.94240733524857,
52.0,52.8,3,0.75,Stimuli\ImageFiles-Set1\Faces\Face_00012.png,0,0,0,81,81,81,,,,,,,,,,,,,52.029594100000395,0.029594100000394974,None,215.7624821999998,215.7624821999998,215.7624821999998,215.7624821999998,215.7624821999998,215.7624821999998,215.7624821999998,215.7624821999998,,001,P019,2025_Mar_21_1003,CategoryLocalizer,2021.2.3,59.94240733524857,
52.8,53.0,5,0.0,Stimuli\Blank.png,0,0,0,82,82,82,,,,,,,,,,,,,52.82825169999887,0.02825169999887578,None,216.54651709999962,216.54651709999962,216.54651709999962,216.54651709999962,216.54651709999962,216.54651709999962,216.54651709999962,216.54651709999962,,001,P019,2025_Mar_21_1003,CategoryLocalizer,2021.2.3,59.94240733524857,
53.0,53.8,3,0.75,Stimuli\ImageFiles-Set1\Faces\Face_00107.png,0,0,0,83,83,83,,,,,,,,,,,,,53.01101629999903,0.011016299999027979,None,216.76339059999918,216.76339059999918,216.76339059999918,216.76339059999918,216.76339059999918,216.76339059999918,216.76339059999918,216.76339059999918,,001,P019,2025_Mar_21_1003,CategoryLocalizer,2021.2.3,59.94240733524857,
53.8,54.0,5,0.0,Stimuli\Blank.png,0,0,0,84,84,84,,,,,,,,,,,,,53.84558409999954,0.04558409999954449,None,217.5640588999995,217.5640588999995,217.5640588999995,217.5640588999995,217.5640588999995,217.5640588999995,217.5640588999995,217.5640588999995,,001,P019,2025_Mar_21_1003,CategoryLocalizer,2021.2.3,59.94240733524857,
54.0,54.8,3,0.75,Stimuli\ImageFiles-Set1\Faces\Face_00101.png,0,0,0,85,85,85,,,,,,,,,,,,,54.012571400000525,0.01257140000052459,None,217.74757580000005,217.74757580000005,217.74757580000005,217.74757580000005,217.74757580000005,217.74757580000005,217.74757580000005,217.74757580000005,,001,P019,2025_Mar_21_1003,CategoryLocalizer,2021.2.3,59.94240733524857,
54.8,55.0,5,0.0,Stimuli\Blank.png,0,0,0,86,86,86,,,,,,,,,,,,,54.829393099998924,0.02939309999892714,None,218.54826780000076,218.54826780000076,218.54826780000076,218.54826780000076,218.54826780000076,218.54826780000076,218.54826780000076,218.54826780000076,,001,P019,2025_Mar_21_1003,CategoryLocalizer,2021.2.3,59.94240733524857,
55.0,55.8,3,0.75,Stimuli\ImageFiles-Set1\Faces\Face_00031.png,0,0,0,87,87,87,,,,,,,,,,,,,55.014805499999056,0.014805499999056337,None,218.7484500999999,218.7484500999999,218.7484500999999,218.7484500999999,218.7484500999999,218.7484500999999,218.7484500999999,218.7484500999999,,001,P019,2025_Mar_21_1003,CategoryLocalizer,2021.2.3,59.94240733524857,
55.8,56.0,5,0.0,Stimuli\Blank.png,0,0,0,88,88,88,,,,,,,,,,,,,55.83019789999889,0.030197899998896105,None,219.5491409999995,219.5491409999995,219.5491409999995,219.5491409999995,219.5491409999995,219.5491409999995,219.5491409999995,219.5491409999995,,001,P019,2025_Mar_21_1003,CategoryLocalizer,2021.2.3,59.94240733524857,
56.0,56.8,3,0.75,Stimuli\ImageFiles-Set1\Faces\Face_00043.png,0,0,0,89,89,89,,,,,,,,,,,,,56.01425129999916,0.014251299999159528,None,219.76602860000094,219.76602860000094,219.76602860000094,219.76602860000094,219.76602860000094,219.76602860000094,219.76602860000094,219.76602860000094,,001,P019,2025_Mar_21_1003,CategoryLocalizer,2021.2.3,59.94240733524857,
56.8,57.0,5,0.0,Stimuli\Blank.png,0,0,0,90,90,90,,,,,,,,,,,,,56.84977909999907,0.049779099999071263,None,220.58341010000004,220.58341010000004,220.58341010000004,220.58341010000004,220.58341010000004,220.58341010000004,220.58341010000004,220.58341010000004,,001,P019,2025_Mar_21_1003,CategoryLocalizer,2021.2.3,59.94240733524857,
57.0,57.8,3,0.75,Stimuli\ImageFiles-Set1\Faces\Face_00099.png,0,0,0,91,91,91,,,,,,,,,,,,,57.014692499999,0.014692499999000574,None,220.75022209999952,220.75022209999952,220.75022209999952,220.75022209999952,220.75022209999952,220.75022209999952,220.75022209999952,220.75022209999952,,001,P019,2025_Mar_21_1003,CategoryLocalizer,2021.2.3,59.94240733524857,
57.8,58.0,5,0.0,Stimuli\Blank.png,0,0,0,92,92,92,,,,,,,,,,,,,57.83191749999969,0.03191749999969318,None,221.55091999999968,221.55091999999968,221.55091999999968,221.55091999999968,221.55091999999968,221.55091999999968,221.55091999999968,221.55091999999968,,001,P019,2025_Mar_21_1003,CategoryLocalizer,2021.2.3,59.94240733524857,
58.0,58.8,3,0.75,Stimuli\ImageFiles-Set1\Faces\Face_00099.png,1,1,0,93,93,93,,,,,,,,,,,,,58.01558800000021,0.015588000000207103,1,221.7511056000003,221.7511056000003,221.7511056000003,221.7511056000003,221.7511056000003,221.7511056000003,221.7511056000003,221.7511056000003,0.504665100001148,001,P019,2025_Mar_21_1003,CategoryLocalizer,2021.2.3,59.94240733524857,
58.8,59.0,5,0.0,Stimuli\Blank.png,0,0,0,94,94,94,,,,,,,,,,,,,58.81645380000009,0.01645380000009311,None,222.53511849999995,222.53511849999995,222.53511849999995,222.53511849999995,222.53511849999995,222.53511849999995,222.53511849999995,222.53511849999995,,001,P019,2025_Mar_21_1003,CategoryLocalizer,2021.2.3,59.94240733524857,
59.0,59.8,3,0.75,Stimuli\ImageFiles-Set1\Faces\Face_00105.png,0,0,0,95,95,95,,,,,,,,,,,,,59.00067829999898,0.0006782999989809468,None,222.73529280000002,222.73529280000002,222.73529280000002,222.73529280000002,222.73529280000002,222.73529280000002,222.73529280000002,222.73529280000002,,001,P019,2025_Mar_21_1003,CategoryLocalizer,2021.2.3,59.94240733524857,
59.8,60.0,5,0.0,Stimuli\Blank.png,0,0,0,96,96,96,,,,,,,,,,,,,59.817016999999396,0.017016999999398763,None,223.53600929999993,223.53600929999993,223.53600929999993,223.53600929999993,223.53600929999993,223.53600929999993,223.53600929999993,223.53600929999993,,001,P019,2025_Mar_21_1003,CategoryLocalizer,2021.2.3,59.94240733524857,
60.0,60.8,4,0.75,Stimuli\ImageFiles-Set1\Scenes\Scenes_049.png,0,0,0,97,97,97,,,,,,,,,,,,,60.001208899999256,0.0012088999992556637,None,223.75286079999933,223.75286079999933,223.75286079999933,223.75286079999933,223.75286079999933,223.75286079999933,223.75286079999933,223.75286079999933,,001,P019,2025_Mar_21_1003,CategoryLocalizer,2021.2.3,59.94240733524857,
60.8,61.0,5,0.0,Stimuli\Blank.png,0,0,0,98,98,98,,,,,,,,,,,,,60.83522559999983,0.035225599999833435,None,224.55357419999928,224.55357419999928,224.55357419999928,224.55357419999928,224.55357419999928,224.55357419999928,224.55357419999928,224.55357419999928,,001,P019,2025_Mar_21_1003,CategoryLocalizer,2021.2.3,59.94240733524857,
61.0,61.8,4,0.75,Stimuli\ImageFiles-Set1\Scenes\Scenes_028.png,0,0,0,99,99,99,,,,,,,,,,,,,61.001538500000606,0.001538500000606291,None,224.7537730999993,224.7537730999993,224.7537730999993,224.7537730999993,224.7537730999993,224.7537730999993,224.7537730999993,224.7537730999993,,001,P019,2025_Mar_21_1003,CategoryLocalizer,2021.2.3,59.94240733524857,
61.8,62.0,5,0.0,Stimuli\Blank.png,0,0,0,100,100,100,,,,,,,,,,,,,61.83559989999958,0.03559989999958191,None,225.5544590999998,225.5544590999998,225.5544590999998,225.5544590999998,225.5544590999998,225.5544590999998,225.5544590999998,225.5544590999998,,001,P019,2025_Mar_21_1003,CategoryLocalizer,2021.2.3,59.94240733524857,
62.0,62.8,4,0.75,Stimuli\ImageFiles-Set1\Scenes\Scenes_012.png,0,0,0,101,101,101,,,,,,,,,,,,,62.00303249999888,0.0030324999988806667,None,225.73795539999992,225.73795539999992,225.73795539999992,225.73795539999992,225.73795539999992,225.73795539999992,225.73795539999992,225.73795539999992,,001,P019,2025_Mar_21_1003,CategoryLocalizer,2021.2.3,59.94240733524857,
62.8,63.0,5,0.0,Stimuli\Blank.png,0,0,0,102,102,102,,,,,,,,,,,,,62.819809099999475,0.019809099999477553,None,226.53866010000093,226.53866010000093,226.53866010000093,226.53866010000093,226.53866010000093,226.53866010000093,226.53866010000093,226.53866010000093,,001,P019,2025_Mar_21_1003,CategoryLocalizer,2021.2.3,59.94240733524857,
63.0,63.8,4,0.75,Stimuli\ImageFiles-Set1\Scenes\Scenes_041.png,0,0,0,103,103,103,,,,,,,,,,,,,63.00602350000008,0.006023500000083004,None,226.7555155000009,226.7555155000009,226.7555155000009,226.7555155000009,226.7555155000009,226.7555155000009,226.7555155000009,226.7555155000009,,001,P019,2025_Mar_21_1003,CategoryLocalizer,2021.2.3,59.94240733524857,
63.8,64.0,5,0.0,Stimuli\Blank.png,0,0,0,104,104,104,,,,,,,,,,,,,63.84002689999943,0.04002689999943243,None,227.57292280000001,227.57292280000001,227.57292280000001,227.57292280000001,227.57292280000001,227.57292280000001,227.57292280000001,227.57292280000001,,001,P019,2025_Mar_21_1003,CategoryLocalizer,2021.2.3,59.94240733524857,
64.0,64.8,4,0.75,Stimuli\ImageFiles-Set1\Scenes\Scenes_038.png,0,0,0,105,105,105,,,,,,,,,,,,,64.02069159999883,0.02069159999882686,None,227.75640460000068,227.75640460000068,227.75640460000068,227.75640460000068,227.75640460000068,227.75640460000068,227.75640460000068,227.75640460000068,,001,P019,2025_Mar_21_1003,CategoryLocalizer,2021.2.3,59.94240733524857,
64.8,65.0,5,0.0,Stimuli\Blank.png,0,0,0,106,106,106,,,,,,,,,,,,,64.82243849999941,0.022438499999410055,None,228.54042420000042,228.54042420000042,228.54042420000042,228.54042420000042,228.54042420000042,228.54042420000042,228.54042420000042,228.54042420000042,,001,P019,2025_Mar_21_1003,CategoryLocalizer,2021.2.3,59.94240733524857,
65.0,65.8,4,0.75,Stimuli\ImageFiles-Set1\Scenes\Scenes_054.png,0,0,0,107,107,107,,,,,,,,,,,,,65.00491279999915,0.004912799999146955,None,228.75728999999956,228.75728999999956,228.75728999999956,228.75728999999956,228.75728999999956,228.75728999999956,228.75728999999956,228.75728999999956,,001,P019,2025_Mar_21_1003,CategoryLocalizer,2021.2.3,59.94240733524857,
65.8,66.0,5,0.0,Stimuli\Blank.png,0,0,0,108,108,108,,,,,,,,,,,,,65.83954239999912,0.0395423999991209,None,229.55799839999963,229.55799839999963,229.55799839999963,229.55799839999963,229.55799839999963,229.55799839999963,229.55799839999963,229.55799839999963,,001,P019,2025_Mar_21_1003,CategoryLocalizer,2021.2.3,59.94240733524857,
66.0,66.8,4,0.75,Stimuli\ImageFiles-Set1\Scenes\Scenes_054.png,1,1,0,109,109,109,,,,,,,,,,,,,66.00599349999902,0.0059934999990218785,1,229.72481289999996,229.72481289999996,229.72481289999996,229.72481289999996,229.72481289999996,229.72481289999996,229.72481289999996,229.72481289999996,0.357375100000354,001,P019,2025_Mar_21_1003,CategoryLocalizer,2021.2.3,59.94240733524857,
66.8,67.0,5,0.0,Stimuli\Blank.png,0,0,0,110,110,110,,,,,,,,,,,,,66.8076717999993,0.007671799999300788,None,230.52552040000046,230.52552040000046,230.52552040000046,230.52552040000046,230.52552040000046,230.52552040000046,230.52552040000046,230.52552040000046,,001,P019,2025_Mar_21_1003,CategoryLocalizer,2021.2.3,59.94240733524857,
67.0,67.8,4,0.75,Stimuli\ImageFiles-Set1\Scenes\Scenes_044.png,0,0,0,111,111,111,,,,,,,,,,,,,67.00979089999964,0.009790899999643443,None,230.75908290000007,230.75908290000007,230.75908290000007,230.75908290000007,230.75908290000007,230.75908290000007,230.75908290000007,230.75908290000007,,001,P019,2025_Mar_21_1003,CategoryLocalizer,2021.2.3,59.94240733524857,
67.8,68.0,5,0.0,Stimuli\Blank.png,0,0,0,112,112,112,,,,,,,,,,,,,67.84075409999969,0.040754099999688265,None,231.5597572000006,231.5597572000006,231.5597572000006,231.5597572000006,231.5597572000006,231.5597572000006,231.5597572000006,231.5597572000006,,001,P019,2025_Mar_21_1003,CategoryLocalizer,2021.2.3,59.94240733524857,
68.0,68.8,4,0.75,Stimuli\ImageFiles-Set1\Scenes\Scenes_057.png,1,1,0,113,113,113,,,,,,,,,,,,,68.00759629999993,0.007596299999931944,None,231.77664600000026,231.77664600000026,231.77664600000026,231.77664600000026,231.77664600000026,231.77664600000026,231.77664600000026,231.77664600000026,,001,P019,2025_Mar_21_1003,CategoryLocalizer,2021.2.3,59.94240733524857,
68.8,69.0,5,0.0,Stimuli\Blank.png,0,0,0,114,114,114,,,,,,,,,,,,,68.8596206000002,0.05962060000020131,None,232.57812790000025,232.57812790000025,232.57812790000025,232.57812790000025,232.57812790000025,232.57812790000025,232.57812790000025,232.57812790000025,,001,P019,2025_Mar_21_1003,CategoryLocalizer,2021.2.3,59.94240733524857,
69.0,69.8,4,0.75,Stimuli\ImageFiles-Set1\Scenes\Scenes_045.png,0,0,0,115,115,115,,,,,,,,,,,,,69.0099169999994,0.009916999999404652,None,232.76098710000042,232.76098710000042,232.76098710000042,232.76098710000042,232.76098710000042,232.76098710000042,232.76098710000042,232.76098710000042,,001,P019,2025_Mar_21_1003,CategoryLocalizer,2021.2.3,59.94240733524857,
69.8,70.0,5,0.0,Stimuli\Blank.png,0,0,0,116,116,116,,,,,,,,,,,,,69.84322900000006,0.043229000000067686,None,233.5615424000007,233.5615424000007,233.5615424000007,233.5615424000007,233.5615424000007,233.5615424000007,233.5615424000007,233.5615424000007,,001,P019,2025_Mar_21_1003,CategoryLocalizer,2021.2.3,59.94240733524857,
70.0,70.8,4,0.75,Stimuli\ImageFiles-Set1\Scenes\Scenes_045.png,0,0,0,117,117,117,,,,,,,,,,,,,70.00939189999917,0.009391899999172892,1,233.74504220000017,233.74504220000017,233.74504220000017,233.74504220000017,233.74504220000017,233.74504220000017,233.74504220000017,233.74504220000017,0.4727502999994613,001,P019,2025_Mar_21_1003,CategoryLocalizer,2021.2.3,59.94240733524857,
70.8,71.0,5,0.0,Stimuli\Blank.png,0,0,0,118,118,118,,,,,,,,,,,,,70.82755940000061,0.0275594000006123,None,234.5457277000005,234.5457277000005,234.5457277000005,234.5457277000005,234.5457277000005,234.5457277000005,234.5457277000005,234.5457277000005,,001,P019,2025_Mar_21_1003,CategoryLocalizer,2021.2.3,59.94240733524857,
71.0,71.8,4,0.75,Stimuli\ImageFiles-Set1\Scenes\Scenes_009.png,0,0,0,119,119,119,,,,,,,,,,,,,71.01106149999941,0.011061499999414082,None,234.7460016999994,234.7460016999994,234.7460016999994,234.7460016999994,234.7460016999994,234.7460016999994,234.7460016999994,234.7460016999994,,001,P019,2025_Mar_21_1003,CategoryLocalizer,2021.2.3,59.94240733524857,
71.8,72.0,5,0.0,Stimuli\Blank.png,0,0,0,120,120,120,,,,,,,,,,,,,71.82960789999925,0.029607899999248843,None,235.5633455999996,235.5633455999996,235.5633455999996,235.5633455999996,235.5633455999996,235.5633455999996,235.5633455999996,235.5633455999996,,001,P019,2025_Mar_21_1003,CategoryLocalizer,2021.2.3,59.94240733524857,
72.0,72.8,4,0.75,Stimuli\ImageFiles-Set1\Scenes\Scenes_002.png,0,0,0,121,121,121,,,,,,,,,,,,,72.02776289999929,0.027762899999288493,None,235.7635011000002,235.7635011000002,235.7635011000002,235.7635011000002,235.7635011000002,235.7635011000002,235.7635011000002,235.7635011000002,,001,P019,2025_Mar_21_1003,CategoryLocalizer,2021.2.3,59.94240733524857,
72.8,73.0,5,0.0,Stimuli\Blank.png,0,0,0,122,122,122,,,,,,,,,,,,,72.82971050000015,0.02971050000014941,None,236.54750989999957,236.54750989999957,236.54750989999957,236.54750989999957,236.54750989999957,236.54750989999957,236.54750989999957,236.54750989999957,,001,P019,2025_Mar_21_1003,CategoryLocalizer,2021.2.3,59.94240733524857,
73.0,73.8,4,0.75,Stimuli\ImageFiles-Set1\Scenes\Scenes_060.png,0,0,0,123,123,123,,,,,,,,,,,,,73.01251349999984,0.01251349999984086,None,236.7476802000001,236.7476802000001,236.7476802000001,236.7476802000001,236.7476802000001,236.7476802000001,236.7476802000001,236.7476802000001,,001,P019,2025_Mar_21_1003,CategoryLocalizer,2021.2.3,59.94240733524857,
73.8,74.0,5,0.0,Stimuli\Blank.png,0,0,0,124,124,124,,,,,,,,,,,,,73.82943689999956,0.02943689999956689,None,237.5483867999992,237.5483867999992,237.5483867999992,237.5483867999992,237.5483867999992,237.5483867999992,237.5483867999992,237.5483867999992,,001,P019,2025_Mar_21_1003,CategoryLocalizer,2021.2.3,59.94240733524857,
74.0,74.8,4,0.75,Stimuli\ImageFiles-Set1\Scenes\Scenes_040.png,0,0,0,125,125,125,,,,,,,,,,,,,74.01389919999929,0.013899199999286793,None,237.74859350000042,237.74859350000042,237.74859350000042,237.74859350000042,237.74859350000042,237.74859350000042,237.74859350000042,237.74859350000042,,001,P019,2025_Mar_21_1003,CategoryLocalizer,2021.2.3,59.94240733524857,
74.8,75.0,5,0.0,Stimuli\Blank.png,0,0,0,126,126,126,,,,,,,,,,,,,74.8303820000001,0.030382000000102494,None,238.54926540000088,238.54926540000088,238.54926540000088,238.54926540000088,238.54926540000088,238.54926540000088,238.54926540000088,238.54926540000088,,001,P019,2025_Mar_21_1003,CategoryLocalizer,2021.2.3,59.94240733524857,
75.0,75.8,4,0.75,Stimuli\ImageFiles-Set1\Scenes\Scenes_052.png,0,0,0,127,127,127,,,,,,,,,,,,,75.01443819999986,0.014438199999858625,None,238.74944490000053,238.74944490000053,238.74944490000053,238.74944490000053,238.74944490000053,238.74944490000053,238.74944490000053,238.74944490000053,,001,P019,2025_Mar_21_1003,CategoryLocalizer,2021.2.3,59.94240733524857,
75.8,76.0,5,0.0,Stimuli\Blank.png,0,0,0,128,128,128,,,,,,,,,,,,,75.83130279999932,0.03130279999932384,None,239.55016249999971,239.55016249999971,239.55016249999971,239.55016249999971,239.55016249999971,239.55016249999971,239.55016249999971,239.55016249999971,,001,P019,2025_Mar_21_1003,CategoryLocalizer,2021.2.3,59.94240733524857,
76.0,88.0,0,0.0,Stimuli\Blank.png,0,0,0,129,129,129,,,,,,,,,,,,,76.01524939999945,0.015249399999447633,None,239.733655,239.733655,239.733655,239.733655,239.733655,239.733655,239.733655,239.733655,,001,P019,2025_Mar_21_1003,CategoryLocalizer,2021.2.3,59.94240733524857,
88.0,88.8,3,0.75,Stimuli\ImageFiles-Set1\Faces\Face_00075.png,0,0,0,130,130,130,,,,,,,,,,,,,88.0092268999997,0.009226899999703164,None,251.74427749999995,251.74427749999995,251.74427749999995,251.74427749999995,251.74427749999995,251.74427749999995,251.74427749999995,251.74427749999995,,001,P019,2025_Mar_21_1003,CategoryLocalizer,2021.2.3,59.94240733524857,
88.8,89.0,5,0.0,Stimuli\Blank.png,0,0,0,131,131,131,,,,,,,,,,,,,88.8260835000001,0.02608350000009807,None,252.5449580000004,252.5449580000004,252.5449580000004,252.5449580000004,252.5449580000004,252.5449580000004,252.5449580000004,252.5449580000004,,001,P019,2025_Mar_21_1003,CategoryLocalizer,2021.2.3,59.94240733524857,
89.0,89.8,3,0.75,Stimuli\ImageFiles-Set1\Faces\Face_00091.png,0,0,0,132,132,132,,,,,,,,,,,,,89.01044430000002,0.010444300000017392,None,252.74514970000018,252.74514970000018,252.74514970000018,252.74514970000018,252.74514970000018,252.74514970000018,252.74514970000018,252.74514970000018,,001,P019,2025_Mar_21_1003,CategoryLocalizer,2021.2.3,59.94240733524857,
89.8,90.0,5,0.0,Stimuli\Blank.png,0,0,0,133,133,133,,,,,,,,,,,,,89.82685289999972,0.0268528999997244,None,253.5458464000003,253.5458464000003,253.5458464000003,253.5458464000003,253.5458464000003,253.5458464000003,253.5458464000003,253.5458464000003,,001,P019,2025_Mar_21_1003,CategoryLocalizer,2021.2.3,59.94240733524857,
90.0,90.8,3,0.75,Stimuli\ImageFiles-Set1\Faces\Face_00091.png,1,1,0,134,134,134,,,,,,,,,,,,,90.01046859999951,0.010468599999512662,1,253.74605540000084,253.74605540000084,253.74605540000084,253.74605540000084,253.74605540000084,253.74605540000084,253.74605540000084,253.74605540000084,0.5537562999998045,001,P019,2025_Mar_21_1003,CategoryLocalizer,2021.2.3,59.94240733524857,
90.8,91.0,5,0.0,Stimuli\Blank.png,0,0,0,135,135,135,,,,,,,,,,,,,90.83016599999974,0.030165999999738347,None,254.56344060000083,254.56344060000083,254.56344060000083,254.56344060000083,254.56344060000083,254.56344060000083,254.56344060000083,254.56344060000083,,001,P019,2025_Mar_21_1003,CategoryLocalizer,2021.2.3,59.94240733524857,
91.0,91.8,3,0.75,Stimuli\ImageFiles-Set1\Faces\Face_00049.png,0,0,0,136,136,136,,,,,,,,,,,,,91.02988670000013,0.029886700000133715,None,254.78029249999963,254.78029249999963,254.78029249999963,254.78029249999963,254.78029249999963,254.78029249999963,254.78029249999963,254.78029249999963,,001,P019,2025_Mar_21_1003,CategoryLocalizer,2021.2.3,59.94240733524857,
91.8,92.0,5,0.0,Stimuli\Blank.png,0,0,0,137,137,137,,,,,,,,,,,,,91.84544259999893,0.04544259999893541,None,255.5643029999992,255.5643029999992,255.5643029999992,255.5643029999992,255.5643029999992,255.5643029999992,255.5643029999992,255.5643029999992,,001,P019,2025_Mar_21_1003,CategoryLocalizer,2021.2.3,59.94240733524857,
92.0,92.8,3,0.75,Stimuli\ImageFiles-Set1\Faces\Face_00113.png,0,0,0,138,138,138,,,,,,,,,,,,,92.01284420000047,0.012844200000472483,None,255.76447910000024,255.76447910000024,255.76447910000024,255.76447910000024,255.76447910000024,255.76447910000024,255.76447910000024,255.76447910000024,,001,P019,2025_Mar_21_1003,CategoryLocalizer,2021.2.3,59.94240733524857,
92.8,93.0,5,0.0,Stimuli\Blank.png,0,0,0,139,139,139,,,,,,,,,,,,,92.84633559999929,0.046335599999295596,None,256.5651797999999,256.5651797999999,256.5651797999999,256.5651797999999,256.5651797999999,256.5651797999999,256.5651797999999,256.5651797999999,,001,P019,2025_Mar_21_1003,CategoryLocalizer,2021.2.3,59.94240733524857,
93.0,93.8,3,0.75,Stimuli\ImageFiles-Set1\Faces\Face_00103.png,0,0,0,140,140,140,,,,,,,,,,,,,93.01363169999968,0.013631699999677949,None,256.74868029999925,256.74868029999925,256.74868029999925,256.74868029999925,256.74868029999925,256.74868029999925,256.74868029999925,256.74868029999925,,001,P019,2025_Mar_21_1003,CategoryLocalizer,2021.2.3,59.94240733524857,
93.8,94.0,5,0.0,Stimuli\Blank.png,0,0,0,141,141,141,,,,,,,,,,,,,93.83119669999905,0.031196699999057387,None,257.5493855000004,257.5493855000004,257.5493855000004,257.5493855000004,257.5493855000004,257.5493855000004,257.5493855000004,257.5493855000004,,001,P019,2025_Mar_21_1003,CategoryLocalizer,2021.2.3,59.94240733524857,
94.0,94.8,3,0.75,Stimuli\ImageFiles-Set1\Faces\Face_00022.png,0,0,0,142,142,142,,,,,,,,,,,,,94.01413800000046,0.014138000000457396,None,257.7328816999998,257.7328816999998,257.7328816999998,257.7328816999998,257.7328816999998,257.7328816999998,257.7328816999998,257.7328816999998,,001,P019,2025_Mar_21_1003,CategoryLocalizer,2021.2.3,59.94240733524857,
94.8,95.0,5,0.0,Stimuli\Blank.png,0,0,0,143,143,143,,,,,,,,,,,,,94.81466439999895,0.014664399998949307,None,258.5335947000003,258.5335947000003,258.5335947000003,258.5335947000003,258.5335947000003,258.5335947000003,258.5335947000003,258.5335947000003,,001,P019,2025_Mar_21_1003,CategoryLocalizer,2021.2.3,59.94240733524857,
95.0,95.8,3,0.75,Stimuli\ImageFiles-Set1\Faces\Face_00085.png,0,0,0,144,144,144,,,,,,,,,,,,,95.01561810000021,0.015618100000210688,None,258.7504564999999,258.7504564999999,258.7504564999999,258.7504564999999,258.7504564999999,258.7504564999999,258.7504564999999,258.7504564999999,,001,P019,2025_Mar_21_1003,CategoryLocalizer,2021.2.3,59.94240733524857,
95.8,96.0,5,0.0,Stimuli\Blank.png,0,0,0,145,145,145,,,,,,,,,,,,,95.8155771999991,0.015577199999100344,None,259.5344676000004,259.5344676000004,259.5344676000004,259.5344676000004,259.5344676000004,259.5344676000004,259.5344676000004,259.5344676000004,,001,P019,2025_Mar_21_1003,CategoryLocalizer,2021.2.3,59.94240733524857,
96.0,96.8,3,0.75,Stimuli\ImageFiles-Set1\Faces\Face_00111.png,0,0,0,146,146,146,,,,,,,,,,,,,95.99973750000026,-0.00026249999973515514,None,259.73465679999936,259.73465679999936,259.73465679999936,259.73465679999936,259.73465679999936,259.73465679999936,259.73465679999936,259.73465679999936,,001,P019,2025_Mar_21_1003,CategoryLocalizer,2021.2.3,59.94240733524857,
96.8,97.0,5,0.0,Stimuli\Blank.png,0,0,0,147,147,147,,,,,,,,,,,,,96.81651989999955,0.016519899999551058,None,260.5353613999996,260.5353613999996,260.5353613999996,260.5353613999996,260.5353613999996,260.5353613999996,260.5353613999996,260.5353613999996,,001,P019,2025_Mar_21_1003,CategoryLocalizer,2021.2.3,59.94240733524857,
97.0,97.8,3,0.75,Stimuli\ImageFiles-Set1\Faces\Face_00057.png,0,0,0,148,148,148,,,,,,,,,,,,,97.00045890000001,0.0004589000000123633,None,260.75223200000073,260.75223200000073,260.75223200000073,260.75223200000073,260.75223200000073,260.75223200000073,260.75223200000073,260.75223200000073,,001,P019,2025_Mar_21_1003,CategoryLocalizer,2021.2.3,59.94240733524857,
97.8,98.0,5,0.0,Stimuli\Blank.png,0,0,0,149,149,149,,,,,,,,,,,,,97.83470959999977,0.03470959999977197,None,261.55292499999996,261.55292499999996,261.55292499999996,261.55292499999996,261.55292499999996,261.55292499999996,261.55292499999996,261.55292499999996,,001,P019,2025_Mar_21_1003,CategoryLocalizer,2021.2.3,59.94240733524857,
98.0,98.8,3,0.75,Stimuli\ImageFiles-Set1\Faces\Face_00024.png,0,0,0,150,150,150,,,,,,,,,,,,,98.00076739999895,0.0007673999989492586,None,261.7364622999994,261.7364622999994,261.7364622999994,261.7364622999994,261.7364622999994,261.7364622999994,261.7364622999994,261.7364622999994,,001,P019,2025_Mar_21_1003,CategoryLocalizer,2021.2.3,59.94240733524857,
98.8,99.0,5,0.0,Stimuli\Blank.png,0,0,0,151,151,151,,,,,,,,,,,,,98.82112009999946,0.021120099999464514,None,262.5538207999998,262.5538207999998,262.5538207999998,262.5538207999998,262.5538207999998,262.5538207999998,262.5538207999998,262.5538207999998,,001,P019,2025_Mar_21_1003,CategoryLocalizer,2021.2.3,59.94240733524857,
99.0,99.8,3,0.75,Stimuli\ImageFiles-Set1\Faces\Face_00001.png,0,0,0,152,152,152,,,,,,,,,,,,,99.01909179999893,0.0190917999989324,None,262.75398759999916,262.75398759999916,262.75398759999916,262.75398759999916,262.75398759999916,262.75398759999916,262.75398759999916,262.75398759999916,,001,P019,2025_Mar_21_1003,CategoryLocalizer,2021.2.3,59.94240733524857,
99.8,100.0,5,0.0,Stimuli\Blank.png,0,0,0,153,153,153,,,,,,,,,,,,,99.82054629999948,0.020546299999480766,None,263.53801419999945,263.53801419999945,263.53801419999945,263.53801419999945,263.53801419999945,263.53801419999945,263.53801419999945,263.53801419999945,,001,P019,2025_Mar_21_1003,CategoryLocalizer,2021.2.3,59.94240733524857,
100.0,100.8,3,0.75,Stimuli\ImageFiles-Set1\Faces\Face_00014.png,0,0,0,154,154,154,,,,,,,,,,,,,100.00338480000028,0.0033848000002763,None,263.7548786999996,263.7548786999996,263.7548786999996,263.7548786999996,263.7548786999996,263.7548786999996,263.7548786999996,263.7548786999996,,001,P019,2025_Mar_21_1003,CategoryLocalizer,2021.2.3,59.94240733524857,
100.8,101.0,5,0.0,Stimuli\Blank.png,0,0,0,155,155,155,,,,,,,,,,,,,100.83693529999982,0.03693529999982559,None,264.5555791000006,264.5555791000006,264.5555791000006,264.5555791000006,264.5555791000006,264.5555791000006,264.5555791000006,264.5555791000006,,001,P019,2025_Mar_21_1003,CategoryLocalizer,2021.2.3,59.94240733524857,
101.0,101.8,3,0.75,Stimuli\ImageFiles-Set1\Faces\Face_00039.png,0,0,0,156,156,156,,,,,,,,,,,,,101.00354879999941,0.0035487999994074926,None,264.7223943000008,264.7223943000008,264.7223943000008,264.7223943000008,264.7223943000008,264.7223943000008,264.7223943000008,264.7223943000008,,001,P019,2025_Mar_21_1003,CategoryLocalizer,2021.2.3,59.94240733524857,
101.8,102.0,5,0.0,Stimuli\Blank.png,0,0,0,157,157,157,,,,,,,,,,,,,101.80438440000034,0.004384400000347455,None,265.5230967000007,265.5230967000007,265.5230967000007,265.5230967000007,265.5230967000007,265.5230967000007,265.5230967000007,265.5230967000007,,001,P019,2025_Mar_21_1003,CategoryLocalizer,2021.2.3,59.94240733524857,
102.0,102.8,3,0.75,Stimuli\ImageFiles-Set1\Faces\Face_00063.png,0,0,0,158,158,158,,,,,,,,,,,,,102.00472160000027,0.004721600000266335,None,265.7399767000006,265.7399767000006,265.7399767000006,265.7399767000006,265.7399767000006,265.7399767000006,265.7399767000006,265.7399767000006,,001,P019,2025_Mar_21_1003,CategoryLocalizer,2021.2.3,59.94240733524857,
102.8,103.0,5,0.0,Stimuli\Blank.png,0,0,0,159,159,159,,,,,,,,,,,,,102.82181270000001,0.02181270000001234,None,266.5406727999998,266.5406727999998,266.5406727999998,266.5406727999998,266.5406727999998,266.5406727999998,266.5406727999998,266.5406727999998,,001,P019,2025_Mar_21_1003,CategoryLocalizer,2021.2.3,59.94240733524857,
103.0,103.8,3,0.75,Stimuli\ImageFiles-Set1\Faces\Face_00009.png,0,0,0,160,160,160,,,,,,,,,,,,,103.00628329999927,0.006283299999267911,None,266.7575259000005,266.7575259000005,266.7575259000005,266.7575259000005,266.7575259000005,266.7575259000005,266.7575259000005,266.7575259000005,,001,P019,2025_Mar_21_1003,CategoryLocalizer,2021.2.3,59.94240733524857,
103.8,104.0,5,0.0,Stimuli\Blank.png,0,0,0,161,161,161,,,,,,,,,,,,,103.84038499999951,0.04038499999951739,None,267.5582357000003,267.5582357000003,267.5582357000003,267.5582357000003,267.5582357000003,267.5582357000003,267.5582357000003,267.5582357000003,,001,P019,2025_Mar_21_1003,CategoryLocalizer,2021.2.3,59.94240733524857,
104.0,104.8,1,0.75,Stimuli\ImageFiles-Set1\Objects\Object_IroningBoard_00001.png,0,0,0,162,162,162,,,,,,,,,,,,,104.00659710000036,0.006597100000362843,None,267.72504630000003,267.72504630000003,267.72504630000003,267.72504630000003,267.72504630000003,267.72504630000003,267.72504630000003,267.72504630000003,,001,P019,2025_Mar_21_1003,CategoryLocalizer,2021.2.3,59.94240733524857,
104.8,105.0,5,0.0,Stimuli\Blank.png,0,0,0,163,163,163,,,,,,,,,,,,,104.80789030000051,0.007890300000511274,None,268.52571949999947,268.52571949999947,268.52571949999947,268.52571949999947,268.52571949999947,268.52571949999947,268.52571949999947,268.52571949999947,,001,P019,2025_Mar_21_1003,CategoryLocalizer,2021.2.3,59.94240733524857,
105.0,105.8,1,0.75,Stimuli\ImageFiles-Set1\Objects\Object_IroningBoard_00001.png,1,1,0,164,164,164,,,,,,,,,,,,,105.00818880000043,0.008188800000425545,1,268.7259405999994,268.7259405999994,268.7259405999994,268.7259405999994,268.7259405999994,268.7259405999994,268.7259405999994,268.7259405999994,0.40479400000003807,001,P019,2025_Mar_21_1003,CategoryLocalizer,2021.2.3,59.94240733524857,
105.8,106.0,5,0.0,Stimuli\Blank.png,0,0,0,165,165,165,,,,,,,,,,,,,105.80980859999909,0.009808599999090006,None,269.54334000000017,269.54334000000017,269.54334000000017,269.54334000000017,269.54334000000017,269.54334000000017,269.54334000000017,269.54334000000017,,001,P019,2025_Mar_21_1003,CategoryLocalizer,2021.2.3,59.94240733524857,
106.0,106.8,1,0.75,Stimuli\ImageFiles-Set1\Objects\Object_PepperShaker_00001.png,0,0,0,166,166,166,,,,,,,,,,,,,106.02537099999972,0.0253709999997227,None,269.76018060000024,269.76018060000024,269.76018060000024,269.76018060000024,269.76018060000024,269.76018060000024,269.76018060000024,269.76018060000024,,001,P019,2025_Mar_21_1003,CategoryLocalizer,2021.2.3,59.94240733524857,
106.8,107.0,5,0.0,Stimuli\Blank.png,0,0,0,167,167,167,,,,,,,,,,,,,106.82638749999933,0.026387499999330544,None,270.5442127999995,270.5442127999995,270.5442127999995,270.5442127999995,270.5442127999995,270.5442127999995,270.5442127999995,270.5442127999995,,001,P019,2025_Mar_21_1003,CategoryLocalizer,2021.2.3,59.94240733524857,
107.0,107.8,1,0.75,Stimuli\ImageFiles-Set1\Objects\Object_Dryer_00001.png,0,0,0,168,168,168,,,,,,,,,,,,,107.00936820000061,0.00936820000060834,None,270.7443839000007,270.7443839000007,270.7443839000007,270.7443839000007,270.7443839000007,270.7443839000007,270.7443839000007,270.7443839000007,,001,P019,2025_Mar_21_1003,CategoryLocalizer,2021.2.3,59.94240733524857,
107.8,108.0,5,0.0,Stimuli\Blank.png,0,0,0,169,169,169,,,,,,,,,,,,,107.82681570000022,0.026815700000227594,None,271.54508969999915,271.54508969999915,271.54508969999915,271.54508969999915,271.54508969999915,271.54508969999915,271.54508969999915,271.54508969999915,,001,P019,2025_Mar_21_1003,CategoryLocalizer,2021.2.3,59.94240733524857,
108.0,108.8,1,0.75,Stimuli\ImageFiles-Set1\Objects\Object_Gun_00001.png,0,0,0,170,170,170,,,,,,,,,,,,,108.01013880000028,0.010138800000277115,None,271.72857400000066,271.72857400000066,271.72857400000066,271.72857400000066,271.72857400000066,271.72857400000066,271.72857400000066,271.72857400000066,,001,P019,2025_Mar_21_1003,CategoryLocalizer,2021.2.3,59.94240733524857,
108.8,109.0,5,0.0,Stimuli\Blank.png,0,0,0,171,171,171,,,,,,,,,,,,,108.81076670000039,0.010766700000388596,None,272.5292967000005,272.5292967000005,272.5292967000005,272.5292967000005,272.5292967000005,272.5292967000005,272.5292967000005,272.5292967000005,,001,P019,2025_Mar_21_1003,CategoryLocalizer,2021.2.3,59.94240733524857,
109.0,109.8,1,0.75,Stimuli\ImageFiles-Set1\Objects\Object_Whistle_00001.png,0,0,0,172,172,172,,,,,,,,,,,,,109.01063789999898,0.010637899998982903,None,272.76284549999946,272.76284549999946,272.76284549999946,272.76284549999946,272.76284549999946,272.76284549999946,272.76284549999946,272.76284549999946,,001,P019,2025_Mar_21_1003,CategoryLocalizer,2021.2.3,59.94240733524857,
109.8,110.0,5,0.0,Stimuli\Blank.png,0,0,0,173,173,173,,,,,,,,,,,,,109.8456313000006,0.045631300000607666,None,273.56355040000017,273.56355040000017,273.56355040000017,273.56355040000017,273.56355040000017,273.56355040000017,273.56355040000017,273.56355040000017,,001,P019,2025_Mar_21_1003,CategoryLocalizer,2021.2.3,59.94240733524857,
110.0,110.8,1,0.75,Stimuli\ImageFiles-Set1\Objects\Object_Stroller_00001.png,0,0,0,174,174,174,,,,,,,,,,,,,110.0114238999995,0.011423899999499554,None,273.7470522000003,273.7470522000003,273.7470522000003,273.7470522000003,273.7470522000003,273.7470522000003,273.7470522000003,273.7470522000003,,001,P019,2025_Mar_21_1003,CategoryLocalizer,2021.2.3,59.94240733524857,
110.8,111.0,5,0.0,Stimuli\Blank.png,0,0,0,175,175,175,,,,,,,,,,,,,110.83012719999897,0.030127199998972287,None,274.5477499999997,274.5477499999997,274.5477499999997,274.5477499999997,274.5477499999997,274.5477499999997,274.5477499999997,274.5477499999997,,001,P019,2025_Mar_21_1003,CategoryLocalizer,2021.2.3,59.94240733524857,
111.0,111.8,1,0.75,Stimuli\ImageFiles-Set1\Objects\Object_Pipe_00001.png,0,0,0,176,176,176,,,,,,,,,,,,,111.0139006999998,0.013900699999794597,None,274.74792119999984,274.74792119999984,274.74792119999984,274.74792119999984,274.74792119999984,274.74792119999984,274.74792119999984,274.74792119999984,,001,P019,2025_Mar_21_1003,CategoryLocalizer,2021.2.3,59.94240733524857,
111.8,112.0,5,0.0,Stimuli\Blank.png,0,0,0,177,177,177,,,,,,,,,,,,,111.8296463000006,0.029646300000607084,None,275.5486254999996,275.5486254999996,275.5486254999996,275.5486254999996,275.5486254999996,275.5486254999996,275.5486254999996,275.5486254999996,,001,P019,2025_Mar_21_1003,CategoryLocalizer,2021.2.3,59.94240733524857,
112.0,112.8,1,0.75,Stimuli\ImageFiles-Set1\Objects\Object_Apple_00001.png,0,0,0,178,178,178,,,,,,,,,,,,,112.01442110000062,0.014421100000618026,None,275.7655004999997,275.7655004999997,275.7655004999997,275.7655004999997,275.7655004999997,275.7655004999997,275.7655004999997,275.7655004999997,,001,P019,2025_Mar_21_1003,CategoryLocalizer,2021.2.3,59.94240733524857,
112.8,113.0,5,0.0,Stimuli\Blank.png,0,0,0,179,179,179,,,,,,,,,,,,,112.84723099999974,0.047230999999740675,None,276.5661927000001,276.5661927000001,276.5661927000001,276.5661927000001,276.5661927000001,276.5661927000001,276.5661927000001,276.5661927000001,,001,P019,2025_Mar_21_1003,CategoryLocalizer,2021.2.3,59.94240733524857,
113.0,113.8,1,0.75,Stimuli\ImageFiles-Set1\Objects\Object_Key_00001.png,0,0,0,180,180,180,,,,,,,,,,,,,113.01462489999903,0.014624899999034824,None,276.74970399999984,276.74970399999984,276.74970399999984,276.74970399999984,276.74970399999984,276.74970399999984,276.74970399999984,276.74970399999984,,001,P019,2025_Mar_21_1003,CategoryLocalizer,2021.2.3,59.94240733524857,
113.8,114.0,5,0.0,Stimuli\Blank.png,0,0,0,181,181,181,,,,,,,,,,,,,113.8321935999993,0.032193599999303046,None,277.5503982000009,277.5503982000009,277.5503982000009,277.5503982000009,277.5503982000009,277.5503982000009,277.5503982000009,277.5503982000009,,001,P019,2025_Mar_21_1003,CategoryLocalizer,2021.2.3,59.94240733524857,
114.0,114.8,1,0.75,Stimuli\ImageFiles-Set1\Objects\Object_Chest_00001.png,1,1,0,182,182,182,,,,,,,,,,,,,114.00116249999883,0.0011624999988271156,None,277.73388370000066,277.73388370000066,277.73388370000066,277.73388370000066,277.73388370000066,277.73388370000066,277.73388370000066,277.73388370000066,,001,P019,2025_Mar_21_1003,CategoryLocalizer,2021.2.3,59.94240733524857,
114.8,115.0,5,0.0,Stimuli\Blank.png,0,0,0,183,183,183,,,,,,,,,,,,,114.81649209999887,0.016492099998870913,None,278.53459570000086,278.53459570000086,278.53459570000086,278.53459570000086,278.53459570000086,278.53459570000086,278.53459570000086,278.53459570000086,,001,P019,2025_Mar_21_1003,CategoryLocalizer,2021.2.3,59.94240733524857,
115.0,115.8,1,0.75,Stimuli\ImageFiles-Set1\Objects\Object_Nightstand_00001.png,0,0,0,184,184,184,,,,,,,,,,,,,114.99933579999924,-0.0006642000007559545,None,278.7514859999992,278.7514859999992,278.7514859999992,278.7514859999992,278.7514859999992,278.7514859999992,278.7514859999992,278.7514859999992,,001,P019,2025_Mar_21_1003,CategoryLocalizer,2021.2.3,59.94240733524857,
115.8,116.0,5,0.0,Stimuli\Blank.png,0,0,0,185,185,185,,,,,,,,,,,,,115.83522529999937,0.035225299999368076,None,279.56884320000063,279.56884320000063,279.56884320000063,279.56884320000063,279.56884320000063,279.56884320000063,279.56884320000063,279.56884320000063,,001,P019,2025_Mar_21_1003,CategoryLocalizer,2021.2.3,59.94240733524857,
116.0,116.8,1,0.75,Stimuli\ImageFiles-Set1\Objects\Object_Nightstand_00001.png,0,0,0,186,186,186,,,,,,,,,,,,,116.01672839999992,0.01672839999991993,1,279.7356505000007,279.7356505000007,279.7356505000007,279.7356505000007,279.7356505000007,279.7356505000007,279.7356505000007,279.7356505000007,0.5091518000008364,001,P019,2025_Mar_21_1003,CategoryLocalizer,2021.2.3,59.94240733524857,
116.8,117.0,5,0.0,Stimuli\Blank.png,0,0,0,187,187,187,,,,,,,,,,,,,116.80074810000042,0.000748100000421914,None,280.51968099999976,280.51968099999976,280.51968099999976,280.51968099999976,280.51968099999976,280.51968099999976,280.51968099999976,280.51968099999976,,001,P019,2025_Mar_21_1003,CategoryLocalizer,2021.2.3,59.94240733524857,
117.0,117.8,1,0.75,Stimuli\ImageFiles-Set1\Objects\Object_Glasses_00001.png,0,0,0,188,188,188,,,,,,,,,,,,,117.001861499999,0.0018614999989949865,None,280.7198607999999,280.7198607999999,280.7198607999999,280.7198607999999,280.7198607999999,280.7198607999999,280.7198607999999,280.7198607999999,,001,P019,2025_Mar_21_1003,CategoryLocalizer,2021.2.3,59.94240733524857,
117.8,118.0,5,0.0,Stimuli\Blank.png,0,0,0,189,189,189,,,,,,,,,,,,,117.80248679999931,0.002486799999317668,None,281.5206538000002,281.5206538000002,281.5206538000002,281.5206538000002,281.5206538000002,281.5206538000002,281.5206538000002,281.5206538000002,,001,P019,2025_Mar_21_1003,CategoryLocalizer,2021.2.3,59.94240733524857,
118.0,118.8,1,0.75,Stimuli\ImageFiles-Set1\Objects\Object_Oven_00001.png,0,0,0,190,190,190,,,,,,,,,,,,,118.001895899999,0.0018958999989990843,None,281.75410679999914,281.75410679999914,281.75410679999914,281.75410679999914,281.75410679999914,281.75410679999914,281.75410679999914,281.75410679999914,,001,P019,2025_Mar_21_1003,CategoryLocalizer,2021.2.3,59.94240733524857,
118.8,119.0,5,0.0,Stimuli\Blank.png,0,0,0,191,191,191,,,,,,,,,,,,,118.83636859999933,0.03636859999933506,None,282.55482259999917,282.55482259999917,282.55482259999917,282.55482259999917,282.55482259999917,282.55482259999917,282.55482259999917,282.55482259999917,,001,P019,2025_Mar_21_1003,CategoryLocalizer,2021.2.3,59.94240733524857,
119.0,119.8,1,0.75,Stimuli\ImageFiles-Set1\Objects\Object_ShoppingCart_00001.png,0,0,0,192,192,192,,,,,,,,,,,,,119.00457509999978,0.004575099999783561,None,282.73834630000056,282.73834630000056,282.73834630000056,282.73834630000056,282.73834630000056,282.73834630000056,282.73834630000056,282.73834630000056,,001,P019,2025_Mar_21_1003,CategoryLocalizer,2021.2.3,59.94240733524857,
119.8,120.0,5,0.0,Stimuli\Blank.png,0,0,0,193,193,193,,,,,,,,,,,,,119.820142999999,0.020142999999009703,None,283.5390196999997,283.5390196999997,283.5390196999997,283.5390196999997,283.5390196999997,283.5390196999997,283.5390196999997,283.5390196999997,,001,P019,2025_Mar_21_1003,CategoryLocalizer,2021.2.3,59.94240733524857,
120.0,120.8,4,0.75,Stimuli\ImageFiles-Set1\Scenes\Scenes_039.png,0,0,0,194,194,194,,,,,,,,,,,,,120.00452860000041,0.004528600000412553,None,283.7558771999993,283.7558771999993,283.7558771999993,283.7558771999993,283.7558771999993,283.7558771999993,283.7558771999993,283.7558771999993,,001,P019,2025_Mar_21_1003,CategoryLocalizer,2021.2.3,59.94240733524857,
120.8,121.0,5,0.0,Stimuli\Blank.png,0,0,0,195,195,195,,,,,,,,,,,,,120.83972999999969,0.03972999999969318,None,284.57327609999993,284.57327609999993,284.57327609999993,284.57327609999993,284.57327609999993,284.57327609999993,284.57327609999993,284.57327609999993,,001,P019,2025_Mar_21_1003,CategoryLocalizer,2021.2.3,59.94240733524857,
121.0,121.8,4,0.75,Stimuli\ImageFiles-Set1\Scenes\Scenes_029.png,0,0,0,196,196,196,,,,,,,,,,,,,121.0211550999993,0.021155099999305094,None,284.7734822000002,284.7734822000002,284.7734822000002,284.7734822000002,284.7734822000002,284.7734822000002,284.7734822000002,284.7734822000002,,001,P019,2025_Mar_21_1003,CategoryLocalizer,2021.2.3,59.94240733524857,
121.8,122.0,5,0.0,Stimuli\Blank.png,0,0,0,197,197,197,,,,,,,,,,,,,121.8396432999998,0.039643299999809756,None,285.5574677000004,285.5574677000004,285.5574677000004,285.5574677000004,285.5574677000004,285.5574677000004,285.5574677000004,285.5574677000004,,001,P019,2025_Mar_21_1003,CategoryLocalizer,2021.2.3,59.94240733524857,
122.0,122.8,4,0.75,Stimuli\ImageFiles-Set1\Scenes\Scenes_003.png,0,0,0,198,198,198,,,,,,,,,,,,,122.00599789999978,0.00599789999978384,None,285.7409599999992,285.7409599999992,285.7409599999992,285.7409599999992,285.7409599999992,285.7409599999992,285.7409599999992,285.7409599999992,,001,P019,2025_Mar_21_1003,CategoryLocalizer,2021.2.3,59.94240733524857,
122.8,123.0,5,0.0,Stimuli\Blank.png,0,0,0,199,199,199,,,,,,,,,,,,,122.82313819999945,0.023138199999451103,None,286.54163359999984,286.54163359999984,286.54163359999984,286.54163359999984,286.54163359999984,286.54163359999984,286.54163359999984,286.54163359999984,,001,P019,2025_Mar_21_1003,CategoryLocalizer,2021.2.3,59.94240733524857,
123.0,123.8,4,0.75,Stimuli\ImageFiles-Set1\Scenes\Scenes_003.png,1,1,0,200,200,200,,,,,,,,,,,,,123.00628719999986,0.006287199999860604,1,286.7251699999997,286.7251699999997,286.7251699999997,286.7251699999997,286.7251699999997,286.7251699999997,286.7251699999997,286.7251699999997,0.40975710000020626,001,P019,2025_Mar_21_1003,CategoryLocalizer,2021.2.3,59.94240733524857,
123.8,124.0,5,0.0,Stimuli\Blank.png,0,0,0,201,201,201,,,,,,,,,,,,,123.80713629999991,0.007136299999913831,None,287.52595459999975,287.52595459999975,287.52595459999975,287.52595459999975,287.52595459999975,287.52595459999975,287.52595459999975,287.52595459999975,,001,P019,2025_Mar_21_1003,CategoryLocalizer,2021.2.3,59.94240733524857,
124.0,124.8,4,0.75,Stimuli\ImageFiles-Set1\Scenes\Scenes_059.png,0,0,0,202,202,202,,,,,,,,,,,,,124.01037899999938,0.010378999999375083,None,287.75943220000045,287.75943220000045,287.75943220000045,287.75943220000045,287.75943220000045,287.75943220000045,287.75943220000045,287.75943220000045,,001,P019,2025_Mar_21_1003,CategoryLocalizer,2021.2.3,59.94240733524857,
124.8,125.0,5,0.0,Stimuli\Blank.png,0,0,0,203,203,203,,,,,,,,,,,,,124.84115609999935,0.04115609999935543,None,288.56012290000035,288.56012290000035,288.56012290000035,288.56012290000035,288.56012290000035,288.56012290000035,288.56012290000035,288.56012290000035,,001,P019,2025_Mar_21_1003,CategoryLocalizer,2021.2.3,59.94240733524857,
125.0,125.8,4,0.75,Stimuli\ImageFiles-Set1\Scenes\Scenes_015.png,0,0,0,204,204,204,,,,,,,,,,,,,125.00972799999909,0.009727999999086023,None,288.7436199999993,288.7436199999993,288.7436199999993,288.7436199999993,288.7436199999993,288.7436199999993,288.7436199999993,288.7436199999993,,001,P019,2025_Mar_21_1003,CategoryLocalizer,2021.2.3,59.94240733524857,
125.8,126.0,5,0.0,Stimuli\Blank.png,0,0,0,205,205,205,,,,,,,,,,,,,125.82612580000023,0.026125800000230015,None,289.5443123999994,289.5443123999994,289.5443123999994,289.5443123999994,289.5443123999994,289.5443123999994,289.5443123999994,289.5443123999994,,001,P019,2025_Mar_21_1003,CategoryLocalizer,2021.2.3,59.94240733524857,
126.0,126.8,4,0.75,Stimuli\ImageFiles-Set1\Scenes\Scenes_027.png,0,0,0,206,206,206,,,,,,,,,,,,,126.00960250000026,0.009602500000255532,None,289.7611847999997,289.7611847999997,289.7611847999997,289.7611847999997,289.7611847999997,289.7611847999997,289.7611847999997,289.7611847999997,,001,P019,2025_Mar_21_1003,CategoryLocalizer,2021.2.3,59.94240733524857,
126.8,127.0,5,0.0,Stimuli\Blank.png,0,0,0,207,207,207,,,,,,,,,,,,,126.84408249999979,0.04408249999978864,None,290.56188979999934,290.56188979999934,290.56188979999934,290.56188979999934,290.56188979999934,290.56188979999934,290.56188979999934,290.56188979999934,,001,P019,2025_Mar_21_1003,CategoryLocalizer,2021.2.3,59.94240733524857,
127.0,127.8,4,0.75,Stimuli\ImageFiles-Set1\Scenes\Scenes_006.png,0,0,0,208,208,208,,,,,,,,,,,,,127.01072190000014,0.010721900000135065,None,290.74536760000046,290.74536760000046,290.74536760000046,290.74536760000046,290.74536760000046,290.74536760000046,290.74536760000046,290.74536760000046,,001,P019,2025_Mar_21_1003,CategoryLocalizer,2021.2.3,59.94240733524857,
127.8,128.0,5,0.0,Stimuli\Blank.png,0,0,0,209,209,209,,,,,,,,,,,,,127.82961729999988,0.029617299999884494,None,291.56277389999923,291.56277389999923,291.56277389999923,291.56277389999923,291.56277389999923,291.56277389999923,291.56277389999923,291.56277389999923,,001,P019,2025_Mar_21_1003,CategoryLocalizer,2021.2.3,59.94240733524857,
128.0,128.8,4,0.75,Stimuli\ImageFiles-Set1\Scenes\Scenes_014.png,0,0,0,210,210,210,,,,,,,,,,,,,128.02968849999888,0.029688499998883344,None,291.77962540000044,291.77962540000044,291.77962540000044,291.77962540000044,291.77962540000044,291.77962540000044,291.77962540000044,291.77962540000044,,001,P019,2025_Mar_21_1003,CategoryLocalizer,2021.2.3,59.94240733524857,
128.8,129.0,5,0.0,Stimuli\Blank.png,0,0,0,211,211,211,,,,,,,,,,,,,128.84564639999917,0.045646399999156984,None,292.56365800000094,292.56365800000094,292.56365800000094,292.56365800000094,292.56365800000094,292.56365800000094,292.56365800000094,292.56365800000094,,001,P019,2025_Mar_21_1003,CategoryLocalizer,2021.2.3,59.94240733524857,
129.0,129.8,4,0.75,Stimuli\ImageFiles-Set1\Scenes\Scenes_018.png,0,0,0,212,212,212,,,,,,,,,,,,,129.0126079999991,0.01260799999909068,None,292.7471521999996,292.7471521999996,292.7471521999996,292.7471521999996,292.7471521999996,292.7471521999996,292.7471521999996,292.7471521999996,,001,P019,2025_Mar_21_1003,CategoryLocalizer,2021.2.3,59.94240733524857,
129.8,130.0,5,0.0,Stimuli\Blank.png,0,0,0,213,213,213,,,,,,,,,,,,,129.82999960000052,0.029999600000508053,None,293.54785430000084,293.54785430000084,293.54785430000084,293.54785430000084,293.54785430000084,293.54785430000084,293.54785430000084,293.54785430000084,,001,P019,2025_Mar_21_1003,CategoryLocalizer,2021.2.3,59.94240733524857,
130.0,130.8,4,0.75,Stimuli\ImageFiles-Set1\Scenes\Scenes_033.png,0,0,0,214,214,214,,,,,,,,,,,,,130.01260199999888,0.012601999998878455,None,293.7480417000006,293.7480417000006,293.7480417000006,293.7480417000006,293.7480417000006,293.7480417000006,293.7480417000006,293.7480417000006,,001,P019,2025_Mar_21_1003,CategoryLocalizer,2021.2.3,59.94240733524857,
130.8,131.0,5,0.0,Stimuli\Blank.png,0,0,0,215,215,215,,,,,,,,,,,,,130.83034509999925,0.030345099999237846,None,294.5487453000005,294.5487453000005,294.5487453000005,294.5487453000005,294.5487453000005,294.5487453000005,294.5487453000005,294.5487453000005,,001,P019,2025_Mar_21_1003,CategoryLocalizer,2021.2.3,59.94240733524857,
131.0,131.8,4,0.75,Stimuli\ImageFiles-Set1\Scenes\Scenes_011.png,0,0,0,216,216,216,,,,,,,,,,,,,131.01514250000037,0.015142500000365544,None,294.7489186999992,294.7489186999992,294.7489186999992,294.7489186999992,294.7489186999992,294.7489186999992,294.7489186999992,294.7489186999992,,001,P019,2025_Mar_21_1003,CategoryLocalizer,2021.2.3,59.94240733524857,
131.8,132.0,5,0.0,Stimuli\Blank.png,0,0,0,217,217,217,,,,,,,,,,,,,131.81605750000017,0.016057500000158598,None,295.5329572999999,295.5329572999999,295.5329572999999,295.5329572999999,295.5329572999999,295.5329572999999,295.5329572999999,295.5329572999999,,001,P019,2025_Mar_21_1003,CategoryLocalizer,2021.2.3,59.94240733524857,
132.0,132.8,4,0.75,Stimuli\ImageFiles-Set1\Scenes\Scenes_026.png,0,0,0,218,218,218,,,,,,,,,,,,,132.00023899999906,0.0002389999990555225,None,295.73311769999964,295.73311769999964,295.73311769999964,295.73311769999964,295.73311769999964,295.73311769999964,295.73311769999964,295.73311769999964,,001,P019,2025_Mar_21_1003,CategoryLocalizer,2021.2.3,59.94240733524857,
132.8,133.0,5,0.0,Stimuli\Blank.png,0,0,0,219,219,219,,,,,,,,,,,,,132.8165786999998,0.016578699999797664,None,296.53384299999925,296.53384299999925,296.53384299999925,296.53384299999925,296.53384299999925,296.53384299999925,296.53384299999925,296.53384299999925,,001,P019,2025_Mar_21_1003,CategoryLocalizer,2021.2.3,59.94240733524857,
133.0,133.8,4,0.75,Stimuli\ImageFiles-Set1\Scenes\Scenes_010.png,0,0,0,220,220,220,,,,,,,,,,,,,133.0001147999992,0.00011479999920993578,None,296.7506842999992,296.7506842999992,296.7506842999992,296.7506842999992,296.7506842999992,296.7506842999992,296.7506842999992,296.7506842999992,,001,P019,2025_Mar_21_1003,CategoryLocalizer,2021.2.3,59.94240733524857,
133.8,134.0,5,0.0,Stimuli\Blank.png,0,0,0,221,221,221,,,,,,,,,,,,,133.83415400000013,0.03415400000011459,None,297.5514051000009,297.5514051000009,297.5514051000009,297.5514051000009,297.5514051000009,297.5514051000009,297.5514051000009,297.5514051000009,,001,P019,2025_Mar_21_1003,CategoryLocalizer,2021.2.3,59.94240733524857,
134.0,134.8,4,0.75,Stimuli\ImageFiles-Set1\Scenes\Scenes_019.png,0,0,0,222,222,222,,,,,,,,,,,,,133.99927089999983,-0.0007291000001714565,None,297.73488820000057,297.73488820000057,297.73488820000057,297.73488820000057,297.73488820000057,297.73488820000057,297.73488820000057,297.73488820000057,,001,P019,2025_Mar_21_1003,CategoryLocalizer,2021.2.3,59.94240733524857,
134.8,135.0,5,0.0,Stimuli\Blank.png,0,0,0,223,223,223,,,,,,,,,,,,,134.8176158999995,0.017615899999498197,None,298.53559920000043,298.53559920000043,298.53559920000043,298.53559920000043,298.53559920000043,298.53559920000043,298.53559920000043,298.53559920000043,,001,P019,2025_Mar_21_1003,CategoryLocalizer,2021.2.3,59.94240733524857,
135.0,135.8,4,0.75,Stimuli\ImageFiles-Set1\Scenes\Scenes_047.png,0,0,0,224,224,224,,,,,,,,,,,,,135.00115499999993,0.0011549999999260763,None,298.7357678999997,298.7357678999997,298.7357678999997,298.7357678999997,298.7357678999997,298.7357678999997,298.7357678999997,298.7357678999997,,001,P019,2025_Mar_21_1003,CategoryLocalizer,2021.2.3,59.94240733524857,
135.8,136.0,5,0.0,Stimuli\Blank.png,0,0,0,225,225,225,,,,,,,,,,,,,135.81747919999907,0.017479199999058892,None,299.5364793000008,299.5364793000008,299.5364793000008,299.5364793000008,299.5364793000008,299.5364793000008,299.5364793000008,299.5364793000008,,001,P019,2025_Mar_21_1003,CategoryLocalizer,2021.2.3,59.94240733524857,
136.0,136.8,2,0.75,Stimuli\ImageFiles-Set1\Bodies\Bodies_Lunging_00003.png,0,0,0,226,226,226,,,,,,,,,,,,,136.00114779999967,0.0011477999996714061,None,299.7366550000006,299.7366550000006,299.7366550000006,299.7366550000006,299.7366550000006,299.7366550000006,299.7366550000006,299.7366550000006,,001,P019,2025_Mar_21_1003,CategoryLocalizer,2021.2.3,59.94240733524857,
136.8,137.0,5,0.0,Stimuli\Blank.png,0,0,0,227,227,227,,,,,,,,,,,,,136.82063220000055,0.02063220000053434,None,300.55405659999997,300.55405659999997,300.55405659999997,300.55405659999997,300.55405659999997,300.55405659999997,300.55405659999997,300.55405659999997,,001,P019,2025_Mar_21_1003,CategoryLocalizer,2021.2.3,59.94240733524857,
137.0,137.8,2,0.75,Stimuli\ImageFiles-Set1\Bodies\Bodies_Pushing_00005.png,0,0,0,228,228,228,,,,,,,,,,,,,137.0191558000006,0.019155800000589807,None,300.7542264999993,300.7542264999993,300.7542264999993,300.7542264999993,300.7542264999993,300.7542264999993,300.7542264999993,300.7542264999993,,001,P019,2025_Mar_21_1003,CategoryLocalizer,2021.2.3,59.94240733524857,
137.8,138.0,5,0.0,Stimuli\Blank.png,0,0,0,229,229,229,,,,,,,,,,,,,137.81919819999894,0.019198199998925247,None,301.53824410000016,301.53824410000016,301.53824410000016,301.53824410000016,301.53824410000016,301.53824410000016,301.53824410000016,301.53824410000016,,001,P019,2025_Mar_21_1003,CategoryLocalizer,2021.2.3,59.94240733524857,
138.0,138.8,2,0.75,Stimuli\ImageFiles-Set1\Bodies\Bodies_Jumping_00004.png,0,0,0,230,230,230,,,,,,,,,,,,,138.0047427999998,0.0047427999998035375,None,301.7551033,301.7551033,301.7551033,301.7551033,301.7551033,301.7551033,301.7551033,301.7551033,,001,P019,2025_Mar_21_1003,CategoryLocalizer,2021.2.3,59.94240733524857,
138.8,139.0,5,0.0,Stimuli\Blank.png,0,0,0,231,231,231,,,,,,,,,,,,,138.83692399999927,0.036923999999260104,None,302.5558163000005,302.5558163000005,302.5558163000005,302.5558163000005,302.5558163000005,302.5558163000005,302.5558163000005,302.5558163000005,,001,P019,2025_Mar_21_1003,CategoryLocalizer,2021.2.3,59.94240733524857,
139.0,139.8,2,0.75,Stimuli\ImageFiles-Set1\Bodies\Bodies_Crawling_00003.png,0,0,0,232,232,232,,,,,,,,,,,,,139.00394769999912,0.003947699999116594,None,302.7393439999996,302.7393439999996,302.7393439999996,302.7393439999996,302.7393439999996,302.7393439999996,302.7393439999996,302.7393439999996,,001,P019,2025_Mar_21_1003,CategoryLocalizer,2021.2.3,59.94240733524857,
139.8,140.0,5,0.0,Stimuli\Blank.png,0,0,0,233,233,233,,,,,,,,,,,,,139.8217270999994,0.021727099999395705,None,303.5400145000003,303.5400145000003,303.5400145000003,303.5400145000003,303.5400145000003,303.5400145000003,303.5400145000003,303.5400145000003,,001,P019,2025_Mar_21_1003,CategoryLocalizer,2021.2.3,59.94240733524857,
140.0,140.8,2,0.75,Stimuli\ImageFiles-Set1\Bodies\Bodies_SittingFloor_00005.png,0,0,0,234,234,234,,,,,,,,,,,,,140.00476630000048,0.00476630000048317,None,303.7402155,303.7402155,303.7402155,303.7402155,303.7402155,303.7402155,303.7402155,303.7402155,,001,P019,2025_Mar_21_1003,CategoryLocalizer,2021.2.3,59.94240733524857,
140.8,141.0,5,0.0,Stimuli\Blank.png,0,0,0,235,235,235,,,,,,,,,,,,,140.822768,0.022767999999985022,None,304.5409268000003,304.5409268000003,304.5409268000003,304.5409268000003,304.5409268000003,304.5409268000003,304.5409268000003,304.5409268000003,,001,P019,2025_Mar_21_1003,CategoryLocalizer,2021.2.3,59.94240733524857,
141.0,141.8,2,0.75,Stimuli\ImageFiles-Set1\Bodies\Bodies_SittingFloor_00005.png,1,1,0,236,236,236,,,,,,,,,,,,,141.0055066999994,0.00550669999938691,1,304.7410412999998,304.7410412999998,304.7410412999998,304.7410412999998,304.7410412999998,304.7410412999998,304.7410412999998,304.7410412999998,0.5626835000002757,001,P019,2025_Mar_21_1003,CategoryLocalizer,2021.2.3,59.94240733524857,
141.8,142.0,5,0.0,Stimuli\Blank.png,0,0,0,237,237,237,,,,,,,,,,,,,141.82490030000008,0.02490030000006982,None,305.55848010000045,305.55848010000045,305.55848010000045,305.55848010000045,305.55848010000045,305.55848010000045,305.55848010000045,305.55848010000045,,001,P019,2025_Mar_21_1003,CategoryLocalizer,2021.2.3,59.94240733524857,
142.0,142.8,2,0.75,Stimuli\ImageFiles-Set1\Bodies\Bodies_Walking_00004.png,0,0,0,238,238,238,,,,,,,,,,,,,142.02491969999937,0.024919699999372824,None,305.75864770000044,305.75864770000044,305.75864770000044,305.75864770000044,305.75864770000044,305.75864770000044,305.75864770000044,305.75864770000044,,001,P019,2025_Mar_21_1003,CategoryLocalizer,2021.2.3,59.94240733524857,
142.8,143.0,5,0.0,Stimuli\Blank.png,0,0,0,239,239,239,,,,,,,,,,,,,142.82377730000007,0.02377730000006295,None,306.54266310000094,306.54266310000094,306.54266310000094,306.54266310000094,306.54266310000094,306.54266310000094,306.54266310000094,306.54266310000094,,001,P019,2025_Mar_21_1003,CategoryLocalizer,2021.2.3,59.94240733524857,
143.0,143.8,2,0.75,Stimuli\ImageFiles-Set1\Bodies\Bodies_SittingFloor_00003.png,0,0,0,240,240,240,,,,,,,,,,,,,143.0081725,0.008172500000000582,None,306.74286050000046,306.74286050000046,306.74286050000046,306.74286050000046,306.74286050000046,306.74286050000046,306.74286050000046,306.74286050000046,,001,P019,2025_Mar_21_1003,CategoryLocalizer,2021.2.3,59.94240733524857,
143.8,144.0,5,0.0,Stimuli\Blank.png,0,0,0,241,241,241,,,,,,,,,,,,,143.82562990000042,0.025629900000410544,None,307.5435551999999,307.5435551999999,307.5435551999999,307.5435551999999,307.5435551999999,307.5435551999999,307.5435551999999,307.5435551999999,,001,P019,2025_Mar_21_1003,CategoryLocalizer,2021.2.3,59.94240733524857,
144.0,144.8,2,0.75,Stimuli\ImageFiles-Set1\Bodies\Bodies_SittingStretch_00002.png,0,0,0,242,242,242,,,,,,,,,,,,,144.00827109999955,0.008271099999547005,None,307.74379170000066,307.74379170000066,307.74379170000066,307.74379170000066,307.74379170000066,307.74379170000066,307.74379170000066,307.74379170000066,,001,P019,2025_Mar_21_1003,CategoryLocalizer,2021.2.3,59.94240733524857,
144.8,145.0,5,0.0,Stimuli\Blank.png,0,0,0,243,243,243,,,,,,,,,,,,,144.82543629999964,0.025436299999626044,None,308.5444423000008,308.5444423000008,308.5444423000008,308.5444423000008,308.5444423000008,308.5444423000008,308.5444423000008,308.5444423000008,,001,P019,2025_Mar_21_1003,CategoryLocalizer,2021.2.3,59.94240733524857,
145.0,145.8,2,0.75,Stimuli\ImageFiles-Set1\Bodies\Bodies_Pushing_00001.png,0,0,0,244,244,244,,,,,,,,,,,,,145.0095519000006,0.00955190000058792,None,308.7446082999995,308.7446082999995,308.7446082999995,308.7446082999995,308.7446082999995,308.7446082999995,308.7446082999995,308.7446082999995,,001,P019,2025_Mar_21_1003,CategoryLocalizer,2021.2.3,59.94240733524857,
145.8,146.0,5,0.0,Stimuli\Blank.png,0,0,0,245,245,245,,,,,,,,,,,,,145.8264608999998,0.0264608999997904,None,309.5453242000003,309.5453242000003,309.5453242000003,309.5453242000003,309.5453242000003,309.5453242000003,309.5453242000003,309.5453242000003,,001,P019,2025_Mar_21_1003,CategoryLocalizer,2021.2.3,59.94240733524857,
146.0,146.8,2,0.75,Stimuli\ImageFiles-Set1\Bodies\Bodies_Crawling_00006.png,0,0,0,246,246,246,,,,,,,,,,,,,146.01043089999985,0.010430899999846588,None,309.74549809999917,309.74549809999917,309.74549809999917,309.74549809999917,309.74549809999917,309.74549809999917,309.74549809999917,309.74549809999917,,001,P019,2025_Mar_21_1003,CategoryLocalizer,2021.2.3,59.94240733524857,
146.8,147.0,5,0.0,Stimuli\Blank.png,0,0,0,247,247,247,,,,,,,,,,,,,146.82969799999955,0.02969799999954148,None,310.5629090000002,310.5629090000002,310.5629090000002,310.5629090000002,310.5629090000002,310.5629090000002,310.5629090000002,310.5629090000002,,001,P019,2025_Mar_21_1003,CategoryLocalizer,2021.2.3,59.94240733524857,
147.0,147.8,2,0.75,Stimuli\ImageFiles-Set1\Bodies\Bodies_Standing_00003.png,1,1,0,248,248,248,,,,,,,,,,,,,147.02827939999952,0.028279399999519228,None,310.76307610000003,310.76307610000003,310.76307610000003,310.76307610000003,310.76307610000003,310.76307610000003,310.76307610000003,310.76307610000003,,001,P019,2025_Mar_21_1003,CategoryLocalizer,2021.2.3,59.94240733524857,
147.8,148.0,5,0.0,Stimuli\Blank.png,0,0,0,249,249,249,,,,,,,,,,,,,147.83056849999957,0.030568499999560572,None,311.5637956999999,311.5637956999999,311.5637956999999,311.5637956999999,311.5637956999999,311.5637956999999,311.5637956999999,311.5637956999999,,001,P019,2025_Mar_21_1003,CategoryLocalizer,2021.2.3,59.94240733524857,
148.0,148.8,2,0.75,Stimuli\ImageFiles-Set1\Bodies\Bodies_Running_00006.png,0,0,0,250,250,250,,,,,,,,,,,,,148.03075929999977,0.030759299999772338,None,311.7639524999995,311.7639524999995,311.7639524999995,311.7639524999995,311.7639524999995,311.7639524999995,311.7639524999995,311.7639524999995,,001,P019,2025_Mar_21_1003,CategoryLocalizer,2021.2.3,59.94240733524857,
148.8,149.0,5,0.0,Stimuli\Blank.png,0,0,0,251,251,251,,,,,,,,,,,,,148.83026830000017,0.030268300000159343,None,312.54798239999946,312.54798239999946,312.54798239999946,312.54798239999946,312.54798239999946,312.54798239999946,312.54798239999946,312.54798239999946,,001,P019,2025_Mar_21_1003,CategoryLocalizer,2021.2.3,59.94240733524857,
149.0,149.8,2,0.75,Stimuli\ImageFiles-Set1\Bodies\Bodies_Running_00006.png,0,0,0,252,252,252,,,,,,,,,,,,,149.01343880000059,0.013438800000585616,1,312.7314817000006,312.7314817000006,312.7314817000006,312.7314817000006,312.7314817000006,312.7314817000006,312.7314817000006,312.7314817000006,0.5332194999991771,001,P019,2025_Mar_21_1003,CategoryLocalizer,2021.2.3,59.94240733524857,
149.8,150.0,5,0.0,Stimuli\Blank.png,0,0,0,253,253,253,,,,,,,,,,,,,149.8139689999989,0.01396899999889456,None,313.53218190000007,313.53218190000007,313.53218190000007,313.53218190000007,313.53218190000007,313.53218190000007,313.53218190000007,313.53218190000007,,001,P019,2025_Mar_21_1003,CategoryLocalizer,2021.2.3,59.94240733524857,
150.0,150.8,2,0.75,Stimuli\ImageFiles-Set1\Bodies\Bodies_Jumping_00002.png,0,0,0,254,254,254,,,,,,,,,,,,,150.01399909999964,0.01399909999963711,None,313.76580749999994,313.76580749999994,313.76580749999994,313.76580749999994,313.76580749999994,313.76580749999994,313.76580749999994,313.76580749999994,,001,P019,2025_Mar_21_1003,CategoryLocalizer,2021.2.3,59.94240733524857,
150.8,151.0,5,0.0,Stimuli\Blank.png,0,0,0,255,255,255,,,,,,,,,,,,,150.8475230999993,0.04752309999929594,None,314.5664199999992,314.5664199999992,314.5664199999992,314.5664199999992,314.5664199999992,314.5664199999992,314.5664199999992,314.5664199999992,,001,P019,2025_Mar_21_1003,CategoryLocalizer,2021.2.3,59.94240733524857,
151.0,151.8,2,0.75,Stimuli\ImageFiles-Set1\Bodies\Bodies_PushUp_00002.png,0,0,0,256,256,256,,,,,,,,,,,,,151.0147796000001,0.014779600000110804,None,314.74991819999923,314.74991819999923,314.74991819999923,314.74991819999923,314.74991819999923,314.74991819999923,314.74991819999923,314.74991819999923,,001,P019,2025_Mar_21_1003,CategoryLocalizer,2021.2.3,59.94240733524857,
151.8,152.0,5,0.0,Stimuli\Blank.png,0,0,0,257,257,257,,,,,,,,,,,,,151.8323664999989,0.03236649999888641,None,315.5506179999993,315.5506179999993,315.5506179999993,315.5506179999993,315.5506179999993,315.5506179999993,315.5506179999993,315.5506179999993,,001,P019,2025_Mar_21_1003,CategoryLocalizer,2021.2.3,59.94240733524857,
152.0,164.0,0,0.0,Stimuli\Blank.png,0,0,0,258,258,258,,,,,,,,,,,,,151.9999800000005,-1.9999999494757503e-05,None,315.71745589999955,315.71745589999955,315.71745589999955,315.71745589999955,315.71745589999955,315.71745589999955,315.71745589999955,315.71745589999955,,001,P019,2025_Mar_21_1003,CategoryLocalizer,2021.2.3,59.94240733524857,
164.0,164.8,4,0.75,Stimuli\ImageFiles-Set1\Scenes\Scenes_004.png,0,0,0,259,259,259,,,,,,,,,,,,,164.0107009000003,0.010700900000301772,None,327.74474349999946,327.74474349999946,327.74474349999946,327.74474349999946,327.74474349999946,327.74474349999946,327.74474349999946,327.74474349999946,,001,P019,2025_Mar_21_1003,CategoryLocalizer,2021.2.3,59.94240733524857,
164.8,165.0,5,0.0,Stimuli\Blank.png,0,0,0,260,260,260,,,,,,,,,,,,,164.82731520000016,0.027315200000145978,None,328.5454673999993,328.5454673999993,328.5454673999993,328.5454673999993,328.5454673999993,328.5454673999993,328.5454673999993,328.5454673999993,,001,P019,2025_Mar_21_1003,CategoryLocalizer,2021.2.3,59.94240733524857,
165.0,165.8,4,0.75,Stimuli\ImageFiles-Set1\Scenes\Scenes_053.png,0,0,0,261,261,261,,,,,,,,,,,,,165.01070489999984,0.010704899999836925,None,328.7623005000005,328.7623005000005,328.7623005000005,328.7623005000005,328.7623005000005,328.7623005000005,328.7623005000005,328.7623005000005,,001,P019,2025_Mar_21_1003,CategoryLocalizer,2021.2.3,59.94240733524857,
165.8,166.0,5,0.0,Stimuli\Blank.png,0,0,0,262,262,262,,,,,,,,,,,,,165.84424149999904,0.04424149999903193,None,329.5630113999996,329.5630113999996,329.5630113999996,329.5630113999996,329.5630113999996,329.5630113999996,329.5630113999996,329.5630113999996,,001,P019,2025_Mar_21_1003,CategoryLocalizer,2021.2.3,59.94240733524857,
166.0,166.8,4,0.75,Stimuli\ImageFiles-Set1\Scenes\Scenes_020.png,0,0,0,263,263,263,,,,,,,,,,,,,166.01097730000038,0.010977300000377,None,329.74650499999916,329.74650499999916,329.74650499999916,329.74650499999916,329.74650499999916,329.74650499999916,329.74650499999916,329.74650499999916,,001,P019,2025_Mar_21_1003,CategoryLocalizer,2021.2.3,59.94240733524857,
166.8,167.0,5,0.0,Stimuli\Blank.png,0,0,0,264,264,264,,,,,,,,,,,,,166.8301234999999,0.03012349999988828,None,330.56390959999953,330.56390959999953,330.56390959999953,330.56390959999953,330.56390959999953,330.56390959999953,330.56390959999953,330.56390959999953,,001,P019,2025_Mar_21_1003,CategoryLocalizer,2021.2.3,59.94240733524857,
167.0,167.8,4,0.75,Stimuli\ImageFiles-Set1\Scenes\Scenes_042.png,0,0,0,265,265,265,,,,,,,,,,,,,167.02953369999886,0.029533699998864904,None,330.7640701,330.7640701,330.7640701,330.7640701,330.7640701,330.7640701,330.7640701,330.7640701,,001,P019,2025_Mar_21_1003,CategoryLocalizer,2021.2.3,59.94240733524857,
167.8,168.0,5,0.0,Stimuli\Blank.png,0,0,0,266,266,266,,,,,,,,,,,,,167.82923680000022,0.029236800000205676,None,331.5480950000001,331.5480950000001,331.5480950000001,331.5480950000001,331.5480950000001,331.5480950000001,331.5480950000001,331.5480950000001,,001,P019,2025_Mar_21_1003,CategoryLocalizer,2021.2.3,59.94240733524857,
168.0,168.8,4,0.75,Stimuli\ImageFiles-Set1\Scenes\Scenes_022.png,0,0,0,267,267,267,,,,,,,,,,,,,168.01480859999901,0.014808599999014405,None,331.74827650000043,331.74827650000043,331.74827650000043,331.74827650000043,331.74827650000043,331.74827650000043,331.74827650000043,331.74827650000043,,001,P019,2025_Mar_21_1003,CategoryLocalizer,2021.2.3,59.94240733524857,
168.8,169.0,5,0.0,Stimuli\Blank.png,0,0,0,268,268,268,,,,,,,,,,,,,168.82999159999963,0.029991599999618757,None,332.5489691999992,332.5489691999992,332.5489691999992,332.5489691999992,332.5489691999992,332.5489691999992,332.5489691999992,332.5489691999992,,001,P019,2025_Mar_21_1003,CategoryLocalizer,2021.2.3,59.94240733524857,
169.0,169.8,4,0.75,Stimuli\ImageFiles-Set1\Scenes\Scenes_056.png,0,0,0,269,269,269,,,,,,,,,,,,,169.0141812999991,0.014181299999108887,None,332.76588959999935,332.76588959999935,332.76588959999935,332.76588959999935,332.76588959999935,332.76588959999935,332.76588959999935,332.76588959999935,,001,P019,2025_Mar_21_1003,CategoryLocalizer,2021.2.3,59.94240733524857,
169.8,170.0,5,0.0,Stimuli\Blank.png,0,0,0,270,270,270,,,,,,,,,,,,,169.84755439999935,0.04755439999934197,None,333.5665442999998,333.5665442999998,333.5665442999998,333.5665442999998,333.5665442999998,333.5665442999998,333.5665442999998,333.5665442999998,,001,P019,2025_Mar_21_1003,CategoryLocalizer,2021.2.3,59.94240733524857,
170.0,170.8,4,0.75,Stimuli\ImageFiles-Set1\Scenes\Scenes_025.png,0,0,0,271,271,271,,,,,,,,,,,,,170.01463580000018,0.014635800000178278,None,333.75003880000077,333.75003880000077,333.75003880000077,333.75003880000077,333.75003880000077,333.75003880000077,333.75003880000077,333.75003880000077,,001,P019,2025_Mar_21_1003,CategoryLocalizer,2021.2.3,59.94240733524857,
170.8,171.0,5,0.0,Stimuli\Blank.png,0,0,0,272,272,272,,,,,,,,,,,,,170.83173709999937,0.03173709999936136,None,334.5507429999998,334.5507429999998,334.5507429999998,334.5507429999998,334.5507429999998,334.5507429999998,334.5507429999998,334.5507429999998,,001,P019,2025_Mar_21_1003,CategoryLocalizer,2021.2.3,59.94240733524857,
171.0,171.8,4,0.75,Stimuli\ImageFiles-Set1\Scenes\Scenes_032.png,0,0,0,273,273,273,,,,,,,,,,,,,171.01626099999885,0.016260999998849,None,334.7509205999995,334.7509205999995,334.7509205999995,334.7509205999995,334.7509205999995,334.7509205999995,334.7509205999995,334.7509205999995,,001,P019,2025_Mar_21_1003,CategoryLocalizer,2021.2.3,59.94240733524857,
171.8,172.0,5,0.0,Stimuli\Blank.png,0,0,0,274,274,274,,,,,,,,,,,,,171.81597030000012,0.015970300000105908,None,335.53494520000095,335.53494520000095,335.53494520000095,335.53494520000095,335.53494520000095,335.53494520000095,335.53494520000095,335.53494520000095,,001,P019,2025_Mar_21_1003,CategoryLocalizer,2021.2.3,59.94240733524857,
172.0,172.8,4,0.75,Stimuli\ImageFiles-Set1\Scenes\Scenes_008.png,0,0,0,275,275,275,,,,,,,,,,,,,172.00154359999942,0.0015435999994224403,None,335.735138,335.735138,335.735138,335.735138,335.735138,335.735138,335.735138,335.735138,,001,P019,2025_Mar_21_1003,CategoryLocalizer,2021.2.3,59.94240733524857,
172.8,173.0,5,0.0,Stimuli\Blank.png,0,0,0,276,276,276,,,,,,,,,,,,,172.81766199999947,0.017661999999461386,None,336.53584319999936,336.53584319999936,336.53584319999936,336.53584319999936,336.53584319999936,336.53584319999936,336.53584319999936,336.53584319999936,,001,P019,2025_Mar_21_1003,CategoryLocalizer,2021.2.3,59.94240733524857,
173.0,173.8,4,0.75,Stimuli\ImageFiles-Set1\Scenes\Scenes_008.png,1,1,0,277,277,277,,,,,,,,,,,,,173.0010213000005,0.0010213000005023787,1,336.7360458000003,336.7360458000003,336.7360458000003,336.7360458000003,336.7360458000003,336.7360458000003,336.7360458000003,336.7360458000003,0.48966310000105295,001,P019,2025_Mar_21_1003,CategoryLocalizer,2021.2.3,59.94240733524857,
173.8,174.0,5,0.0,Stimuli\Blank.png,0,0,0,278,278,278,,,,,,,,,,,,,173.81982179999977,0.01982179999976097,None,337.5534007999995,337.5534007999995,337.5534007999995,337.5534007999995,337.5534007999995,337.5534007999995,337.5534007999995,337.5534007999995,,001,P019,2025_Mar_21_1003,CategoryLocalizer,2021.2.3,59.94240733524857,
174.0,174.8,4,0.75,Stimuli\ImageFiles-Set1\Scenes\Scenes_046.png,0,0,0,279,279,279,,,,,,,,,,,,,174.0197645999997,0.01976459999968938,None,337.77025780000076,337.77025780000076,337.77025780000076,337.77025780000076,337.77025780000076,337.77025780000076,337.77025780000076,337.77025780000076,,001,P019,2025_Mar_21_1003,CategoryLocalizer,2021.2.3,59.94240733524857,
174.8,175.0,5,0.0,Stimuli\Blank.png,0,0,0,280,280,280,,,,,,,,,,,,,174.8352842000004,0.03528420000037613,None,338.5542803999997,338.5542803999997,338.5542803999997,338.5542803999997,338.5542803999997,338.5542803999997,338.5542803999997,338.5542803999997,,001,P019,2025_Mar_21_1003,CategoryLocalizer,2021.2.3,59.94240733524857,
175.0,175.8,4,0.75,Stimuli\ImageFiles-Set1\Scenes\Scenes_021.png,0,0,0,281,281,281,,,,,,,,,,,,,175.00206609999987,0.0020660999998654006,None,338.7545016999993,338.7545016999993,338.7545016999993,338.7545016999993,338.7545016999993,338.7545016999993,338.7545016999993,338.7545016999993,,001,P019,2025_Mar_21_1003,CategoryLocalizer,2021.2.3,59.94240733524857,
175.8,176.0,5,0.0,Stimuli\Blank.png,0,0,0,282,282,282,,,,,,,,,,,,,175.83603699999912,0.03603699999911214,None,339.5551639000005,339.5551639000005,339.5551639000005,339.5551639000005,339.5551639000005,339.5551639000005,339.5551639000005,339.5551639000005,,001,P019,2025_Mar_21_1003,CategoryLocalizer,2021.2.3,59.94240733524857,
176.0,176.8,4,0.75,Stimuli\ImageFiles-Set1\Scenes\Scenes_036.png,0,0,0,283,283,283,,,,,,,,,,,,,176.00295469999946,0.002954699999463628,None,339.7553607000009,339.7553607000009,339.7553607000009,339.7553607000009,339.7553607000009,339.7553607000009,339.7553607000009,339.7553607000009,,001,P019,2025_Mar_21_1003,CategoryLocalizer,2021.2.3,59.94240733524857,
176.8,177.0,5,0.0,Stimuli\Blank.png,0,0,0,284,284,284,,,,,,,,,,,,,176.83766660000038,0.037666600000363815,None,340.5560762999994,340.5560762999994,340.5560762999994,340.5560762999994,340.5560762999994,340.5560762999994,340.5560762999994,340.5560762999994,,001,P019,2025_Mar_21_1003,CategoryLocalizer,2021.2.3,59.94240733524857,
