eventStartTime,eventEndTime,eventCond,imSize,imFile,repeatedImage,responseEvent,Events.thisRepN,Events.thisTrialN,Events.thisN,Events.thisIndex,Instructions.started,Instructions.stopped,participantReadyResponse.keys,participantReadyResponse.rt,participantReadyResponse.started,participantReadyResponse.stopped,startWaitforTrigger,triggerResponse.keys,triggerResponse.rt,triggerResponse.started,triggerResponse.stopped,globalTimer,actualStartTime,startTimingDiff,participantResponse.keys,participantResponse.started,participantResponse.stopped,image.started,image.stopped,fixationOutside.started,fixationOutside.stopped,fixationInside.started,fixationInside.stopped,participantResponse.rt,session,participant,date,expName,psychopyVersion,frameRate,
,,,,,,,,,,,15.888184600000386,None,1,20.306668499999432,15.888184600000386,None,,,,,,,,,,,,,,,,,,,002,P019,2025_Mar_21_1034,CategoryLocalizer,2021.2.3,59.9416168652525,
,,,,,,,,,,,,,,,,,36.204304000000775,5,13.66435939999974,36.21758360000058,None,,,,,,,,,,,,,,002,P019,2025_Mar_21_1034,CategoryLocalizer,2021.2.3,59.9416168652525,
0.0,12.0,0,0.0,Stimuli\Blank.png,0,0,0,0,0,0,,,,,,,,,,,,49.89979940000012,0.062501099999281,0.062501099999281,None,49.97971990000042,None,49.97971990000042,None,49.97971990000042,None,49.97971990000042,None,,002,P019,2025_Mar_21_1034,CategoryLocalizer,2021.2.3,59.9416168652525,
12.0,12.8,1,0.75,Stimuli\ImageFiles-Set2\Objects\Object_Desk_00001.png,0,0,0,1,1,1,,,,,,,,,,,,,12.011327099999107,0.011327099999107304,None,61.95698520000042,61.95698520000042,61.95698520000042,61.95698520000042,61.95698520000042,61.95698520000042,61.95698520000042,61.95698520000042,,002,P019,2025_Mar_21_1034,CategoryLocalizer,2021.2.3,59.9416168652525,
12.8,13.0,5,0.0,Stimuli\Blank.png,0,0,0,2,2,2,,,,,,,,,,,,,12.844342099999267,0.04434209999926608,None,62.75767629999973,62.75767629999973,62.75767629999973,62.75767629999973,62.75767629999973,62.75767629999973,62.75767629999973,62.75767629999973,,002,P019,2025_Mar_21_1034,CategoryLocalizer,2021.2.3,59.9416168652525,
13.0,13.8,1,0.75,Stimuli\ImageFiles-Set2\Objects\Object_Truck_00001.png,0,0,0,3,3,3,,,,,,,,,,,,,13.010744499999419,0.010744499999418622,None,62.941187100001116,62.941187100001116,62.941187100001116,62.941187100001116,62.941187100001116,62.941187100001116,62.941187100001116,62.941187100001116,,002,P019,2025_Mar_21_1034,CategoryLocalizer,2021.2.3,59.9416168652525,
13.8,14.0,5,0.0,Stimuli\Blank.png,0,0,0,4,4,4,,,,,,,,,,,,,13.827949499998795,0.027949499998793925,None,63.74188560000039,63.74188560000039,63.74188560000039,63.74188560000039,63.74188560000039,63.74188560000039,63.74188560000039,63.74188560000039,,002,P019,2025_Mar_21_1034,CategoryLocalizer,2021.2.3,59.9416168652525,
14.0,14.8,1,0.75,Stimuli\ImageFiles-Set2\Objects\Object_Button1_00001.png,0,0,0,5,5,5,,,,,,,,,,,,,14.011503399999128,0.011503399999128305,None,63.95873750000101,63.95873750000101,63.95873750000101,63.95873750000101,63.95873750000101,63.95873750000101,63.95873750000101,63.95873750000101,,002,P019,2025_Mar_21_1034,CategoryLocalizer,2021.2.3,59.9416168652525,
14.8,15.0,5,0.0,Stimuli\Blank.png,0,0,0,6,6,6,,,,,,,,,,,,,14.84575329999825,0.04575329999824973,None,64.75944400000117,64.75944400000117,64.75944400000117,64.75944400000117,64.75944400000117,64.75944400000117,64.75944400000117,64.75944400000117,,002,P019,2025_Mar_21_1034,CategoryLocalizer,2021.2.3,59.9416168652525,
15.0,15.8,1,0.75,Stimuli\ImageFiles-Set2\Objects\Object_Toast_00001.png,0,0,0,7,7,7,,,,,,,,,,,,,15.01233879999927,0.012338799999270122,None,64.94294330000048,64.94294330000048,64.94294330000048,64.94294330000048,64.94294330000048,64.94294330000048,64.94294330000048,64.94294330000048,,002,P019,2025_Mar_21_1034,CategoryLocalizer,2021.2.3,59.9416168652525,
15.8,16.0,5,0.0,Stimuli\Blank.png,0,0,0,8,8,8,,,,,,,,,,,,,15.829268199999206,0.029268199999204825,None,65.7436472999998,65.7436472999998,65.7436472999998,65.7436472999998,65.7436472999998,65.7436472999998,65.7436472999998,65.7436472999998,,002,P019,2025_Mar_21_1034,CategoryLocalizer,2021.2.3,59.9416168652525,
16.0,16.8,1,0.75,Stimuli\ImageFiles-Set2\Objects\Object_Dresser_00001.png,0,0,0,9,9,9,,,,,,,,,,,,,16.013186099999075,0.01318609999907494,None,65.94384020000143,65.94384020000143,65.94384020000143,65.94384020000143,65.94384020000143,65.94384020000143,65.94384020000143,65.94384020000143,,002,P019,2025_Mar_21_1034,CategoryLocalizer,2021.2.3,59.9416168652525,
16.8,17.0,5,0.0,Stimuli\Blank.png,0,0,0,10,10,10,,,,,,,,,,,,,16.832319199998892,0.032319199998891435,None,66.76122690000011,66.76122690000011,66.76122690000011,66.76122690000011,66.76122690000011,66.76122690000011,66.76122690000011,66.76122690000011,,002,P019,2025_Mar_21_1034,CategoryLocalizer,2021.2.3,59.9416168652525,
17.0,17.8,1,0.75,Stimuli\ImageFiles-Set2\Objects\Object_Hamburger_00001.png,0,0,0,11,11,11,,,,,,,,,,,,,17.014401599999474,0.014401599999473547,None,66.9447412999998,66.9447412999998,66.9447412999998,66.9447412999998,66.9447412999998,66.9447412999998,66.9447412999998,66.9447412999998,,002,P019,2025_Mar_21_1034,CategoryLocalizer,2021.2.3,59.9416168652525,
17.8,18.0,5,0.0,Stimuli\Blank.png,0,0,0,12,12,12,,,,,,,,,,,,,17.83275589999903,0.03275589999902806,None,67.76212750000013,67.76212750000013,67.76212750000013,67.76212750000013,67.76212750000013,67.76212750000013,67.76212750000013,67.76212750000013,,002,P019,2025_Mar_21_1034,CategoryLocalizer,2021.2.3,59.9416168652525,
18.0,18.8,1,0.75,Stimuli\ImageFiles-Set2\Objects\Object_Dishwasher_00001.png,0,0,0,13,13,13,,,,,,,,,,,,,18.01842999999826,0.018429999998261337,None,67.96228190000147,67.96228190000147,67.96228190000147,67.96228190000147,67.96228190000147,67.96228190000147,67.96228190000147,67.96228190000147,,002,P019,2025_Mar_21_1034,CategoryLocalizer,2021.2.3,59.9416168652525,
18.8,19.0,5,0.0,Stimuli\Blank.png,0,0,0,14,14,14,,,,,,,,,,,,,18.831845999999132,0.03184599999913118,None,68.74630120000074,68.74630120000074,68.74630120000074,68.74630120000074,68.74630120000074,68.74630120000074,68.74630120000074,68.74630120000074,,002,P019,2025_Mar_21_1034,CategoryLocalizer,2021.2.3,59.9416168652525,
19.0,19.8,1,0.75,Stimuli\ImageFiles-Set2\Objects\Object_Mug_00001.png,0,0,0,15,15,15,,,,,,,,,,,,,19.015233099999023,0.01523309999902267,None,68.9464818000015,68.9464818000015,68.9464818000015,68.9464818000015,68.9464818000015,68.9464818000015,68.9464818000015,68.9464818000015,,002,P019,2025_Mar_21_1034,CategoryLocalizer,2021.2.3,59.9416168652525,
19.8,20.0,5,0.0,Stimuli\Blank.png,0,0,0,16,16,16,,,,,,,,,,,,,19.81737239999893,0.01737239999892992,None,69.73052410000128,69.73052410000128,69.73052410000128,69.73052410000128,69.73052410000128,69.73052410000128,69.73052410000128,69.73052410000128,,002,P019,2025_Mar_21_1034,CategoryLocalizer,2021.2.3,59.9416168652525,
20.0,20.8,1,0.75,Stimuli\ImageFiles-Set2\Objects\Object_Mug_00001.png,1,1,0,17,17,17,,,,,,,,,,,,,20.00006519999988,6.519999988086056e-05,1,69.91400109999995,69.91400109999995,69.91400109999995,69.91400109999995,69.91400109999995,69.91400109999995,69.91400109999995,69.91400109999995,0.41187019999961194,002,P019,2025_Mar_21_1034,CategoryLocalizer,2021.2.3,59.9416168652525,
20.8,21.0,5,0.0,Stimuli\Blank.png,0,0,0,18,18,18,,,,,,,,,,,,,20.802656099998785,0.002656099998784356,None,70.73139970000011,70.73139970000011,70.73139970000011,70.73139970000011,70.73139970000011,70.73139970000011,70.73139970000011,70.73139970000011,,002,P019,2025_Mar_21_1034,CategoryLocalizer,2021.2.3,59.9416168652525,
21.0,21.8,1,0.75,Stimuli\ImageFiles-Set2\Objects\Object_Barrel_00001.png,0,0,0,19,19,19,,,,,,,,,,,,,21.017998099998294,0.017998099998294492,None,70.96492360000047,70.96492360000047,70.96492360000047,70.96492360000047,70.96492360000047,70.96492360000047,70.96492360000047,70.96492360000047,,002,P019,2025_Mar_21_1034,CategoryLocalizer,2021.2.3,59.9416168652525,
21.8,22.0,5,0.0,Stimuli\Blank.png,0,0,0,20,20,20,,,,,,,,,,,,,21.835102399998505,0.03510239999850384,None,71.74894600000152,71.74894600000152,71.74894600000152,71.74894600000152,71.74894600000152,71.74894600000152,71.74894600000152,71.74894600000152,,002,P019,2025_Mar_21_1034,CategoryLocalizer,2021.2.3,59.9416168652525,
22.0,22.8,1,0.75,Stimuli\ImageFiles-Set2\Objects\Object_Tomato_00001.png,0,0,0,21,21,21,,,,,,,,,,,,,22.002751799998805,0.002751799998804927,None,71.93249880000076,71.93249880000076,71.93249880000076,71.93249880000076,71.93249880000076,71.93249880000076,71.93249880000076,71.93249880000076,,002,P019,2025_Mar_21_1034,CategoryLocalizer,2021.2.3,59.9416168652525,
22.8,23.0,5,0.0,Stimuli\Blank.png,0,0,0,22,22,22,,,,,,,,,,,,,22.81872679999833,0.018726799998329824,None,72.73315689999981,72.73315689999981,72.73315689999981,72.73315689999981,72.73315689999981,72.73315689999981,72.73315689999981,72.73315689999981,,002,P019,2025_Mar_21_1034,CategoryLocalizer,2021.2.3,59.9416168652525,
23.0,23.8,1,0.75,Stimuli\ImageFiles-Set2\Objects\Object_Glass_00001.png,0,0,0,23,23,23,,,,,,,,,,,,,23.003323699998873,0.003323699998873053,None,72.93334820000018,72.93334820000018,72.93334820000018,72.93334820000018,72.93334820000018,72.93334820000018,72.93334820000018,72.93334820000018,,002,P019,2025_Mar_21_1034,CategoryLocalizer,2021.2.3,59.9416168652525,
23.8,24.0,5,0.0,Stimuli\Blank.png,0,0,0,24,24,24,,,,,,,,,,,,,23.82299299999977,0.02299299999976867,None,73.75074219999988,73.75074219999988,73.75074219999988,73.75074219999988,73.75074219999988,73.75074219999988,73.75074219999988,73.75074219999988,,002,P019,2025_Mar_21_1034,CategoryLocalizer,2021.2.3,59.9416168652525,
24.0,24.8,1,0.75,Stimuli\ImageFiles-Set2\Objects\Object_Tape_00001.png,0,0,0,25,25,25,,,,,,,,,,,,,24.022485499999675,0.022485499999675085,None,73.95089480000024,73.95089480000024,73.95089480000024,73.95089480000024,73.95089480000024,73.95089480000024,73.95089480000024,73.95089480000024,,002,P019,2025_Mar_21_1034,CategoryLocalizer,2021.2.3,59.9416168652525,
24.8,25.0,5,0.0,Stimuli\Blank.png,0,0,0,26,26,26,,,,,,,,,,,,,24.821222699998543,0.021222699998542538,None,74.73499140000058,74.73499140000058,74.73499140000058,74.73499140000058,74.73499140000058,74.73499140000058,74.73499140000058,74.73499140000058,,002,P019,2025_Mar_21_1034,CategoryLocalizer,2021.2.3,59.9416168652525,
25.0,25.8,1,0.75,Stimuli\ImageFiles-Set2\Objects\Object_Hat_00001.png,0,0,0,27,27,27,,,,,,,,,,,,,25.004298899999412,0.004298899999412242,None,74.93506900000102,74.93506900000102,74.93506900000102,74.93506900000102,74.93506900000102,74.93506900000102,74.93506900000102,74.93506900000102,,002,P019,2025_Mar_21_1034,CategoryLocalizer,2021.2.3,59.9416168652525,
25.8,26.0,5,0.0,Stimuli\Blank.png,0,0,0,28,28,28,,,,,,,,,,,,,25.822025399998893,0.02202539999889197,None,75.73581240000021,75.73581240000021,75.73581240000021,75.73581240000021,75.73581240000021,75.73581240000021,75.73581240000021,75.73581240000021,,002,P019,2025_Mar_21_1034,CategoryLocalizer,2021.2.3,59.9416168652525,
26.0,26.8,1,0.75,Stimuli\ImageFiles-Set2\Objects\Object_Brick_00001.png,0,0,0,29,29,29,,,,,,,,,,,,,26.00571939999827,0.005719399998270092,None,75.93598940000084,75.93598940000084,75.93598940000084,75.93598940000084,75.93598940000084,75.93598940000084,75.93598940000084,75.93598940000084,,002,P019,2025_Mar_21_1034,CategoryLocalizer,2021.2.3,59.9416168652525,
26.8,27.0,5,0.0,Stimuli\Blank.png,0,0,0,30,30,30,,,,,,,,,,,,,26.82287279999946,0.022872799999458238,None,76.73669359999985,76.73669359999985,76.73669359999985,76.73669359999985,76.73669359999985,76.73669359999985,76.73669359999985,76.73669359999985,,002,P019,2025_Mar_21_1034,CategoryLocalizer,2021.2.3,59.9416168652525,
27.0,27.8,1,0.75,Stimuli\ImageFiles-Set2\Objects\Object_Belt_00001.png,0,0,0,31,31,31,,,,,,,,,,,,,27.007525899998654,0.007525899998654495,None,76.93686810000145,76.93686810000145,76.93686810000145,76.93686810000145,76.93686810000145,76.93686810000145,76.93686810000145,76.93686810000145,,002,P019,2025_Mar_21_1034,CategoryLocalizer,2021.2.3,59.9416168652525,
27.8,28.0,5,0.0,Stimuli\Blank.png,0,0,0,32,32,32,,,,,,,,,,,,,27.82309169999826,0.023091699998257553,None,77.73758140000064,77.73758140000064,77.73758140000064,77.73758140000064,77.73758140000064,77.73758140000064,77.73758140000064,77.73758140000064,,002,P019,2025_Mar_21_1034,CategoryLocalizer,2021.2.3,59.9416168652525,
28.0,28.8,2,0.75,Stimuli\ImageFiles-Set2\Bodies\Bodies_Waving_00006.png,0,0,0,33,33,33,,,,,,,,,,,,,28.00747499999852,0.007474999998521525,None,77.93775860000096,77.93775860000096,77.93775860000096,77.93775860000096,77.93775860000096,77.93775860000096,77.93775860000096,77.93775860000096,,002,P019,2025_Mar_21_1034,CategoryLocalizer,2021.2.3,59.9416168652525,
28.8,29.0,5,0.0,Stimuli\Blank.png,0,0,0,34,34,34,,,,,,,,,,,,,28.82413269999961,0.02413269999960832,None,78.73845200000142,78.73845200000142,78.73845200000142,78.73845200000142,78.73845200000142,78.73845200000142,78.73845200000142,78.73845200000142,,002,P019,2025_Mar_21_1034,CategoryLocalizer,2021.2.3,59.9416168652525,
29.0,29.8,2,0.75,Stimuli\ImageFiles-Set2\Bodies\Bodies_Kneeling_00004.png,0,0,0,35,35,35,,,,,,,,,,,,,29.008807199999865,0.008807199999864679,None,78.93869230000018,78.93869230000018,78.93869230000018,78.93869230000018,78.93869230000018,78.93869230000018,78.93869230000018,78.93869230000018,,002,P019,2025_Mar_21_1034,CategoryLocalizer,2021.2.3,59.9416168652525,
29.8,30.0,5,0.0,Stimuli\Blank.png,0,0,0,36,36,36,,,,,,,,,,,,,29.824803199999224,0.02480319999922287,None,79.73933709999983,79.73933709999983,79.73933709999983,79.73933709999983,79.73933709999983,79.73933709999983,79.73933709999983,79.73933709999983,,002,P019,2025_Mar_21_1034,CategoryLocalizer,2021.2.3,59.9416168652525,
30.0,30.8,2,0.75,Stimuli\ImageFiles-Set2\Bodies\Bodies_Standing_00006.png,0,0,0,37,37,37,,,,,,,,,,,,,30.008340499998667,0.008340499998666928,None,79.93953140000121,79.93953140000121,79.93953140000121,79.93953140000121,79.93953140000121,79.93953140000121,79.93953140000121,79.93953140000121,,002,P019,2025_Mar_21_1034,CategoryLocalizer,2021.2.3,59.9416168652525,
30.8,31.0,5,0.0,Stimuli\Blank.png,0,0,0,38,38,38,,,,,,,,,,,,,30.82812009999907,0.02812009999906806,None,80.75693320000028,80.75693320000028,80.75693320000028,80.75693320000028,80.75693320000028,80.75693320000028,80.75693320000028,80.75693320000028,,002,P019,2025_Mar_21_1034,CategoryLocalizer,2021.2.3,59.9416168652525,
31.0,31.8,2,0.75,Stimuli\ImageFiles-Set2\Bodies\Bodies_SittingStretch_00006.png,0,0,0,39,39,39,,,,,,,,,,,,,31.027613199999905,0.02761319999990519,None,80.95709110000098,80.95709110000098,80.95709110000098,80.95709110000098,80.95709110000098,80.95709110000098,80.95709110000098,80.95709110000098,,002,P019,2025_Mar_21_1034,CategoryLocalizer,2021.2.3,59.9416168652525,
31.8,32.0,5,0.0,Stimuli\Blank.png,0,0,0,40,40,40,,,,,,,,,,,,,31.82718179999938,0.027181799999379308,None,81.74110720000135,81.74110720000135,81.74110720000135,81.74110720000135,81.74110720000135,81.74110720000135,81.74110720000135,81.74110720000135,,002,P019,2025_Mar_21_1034,CategoryLocalizer,2021.2.3,59.9416168652525,
32.0,32.8,2,0.75,Stimuli\ImageFiles-Set2\Bodies\Bodies_PushUp_00006.png,0,0,0,41,41,41,,,,,,,,,,,,,32.01106869999967,0.011068699999668752,None,81.94131920000109,81.94131920000109,81.94131920000109,81.94131920000109,81.94131920000109,81.94131920000109,81.94131920000109,81.94131920000109,,002,P019,2025_Mar_21_1034,CategoryLocalizer,2021.2.3,59.9416168652525,
32.8,33.0,5,0.0,Stimuli\Blank.png,0,0,0,42,42,42,,,,,,,,,,,,,32.82813019999958,0.02813019999958044,None,82.7420001999999,82.7420001999999,82.7420001999999,82.7420001999999,82.7420001999999,82.7420001999999,82.7420001999999,82.7420001999999,,002,P019,2025_Mar_21_1034,CategoryLocalizer,2021.2.3,59.9416168652525,
33.0,33.8,2,0.75,Stimuli\ImageFiles-Set2\Bodies\Bodies_Running_00001.png,0,0,0,43,43,43,,,,,,,,,,,,,33.01235639999868,0.01235639999867999,None,82.94220860000132,82.94220860000132,82.94220860000132,82.94220860000132,82.94220860000132,82.94220860000132,82.94220860000132,82.94220860000132,,002,P019,2025_Mar_21_1034,CategoryLocalizer,2021.2.3,59.9416168652525,
33.8,34.0,5,0.0,Stimuli\Blank.png,0,0,0,44,44,44,,,,,,,,,,,,,33.82841809999991,0.02841809999991085,None,83.7428772000003,83.7428772000003,83.7428772000003,83.7428772000003,83.7428772000003,83.7428772000003,83.7428772000003,83.7428772000003,,002,P019,2025_Mar_21_1034,CategoryLocalizer,2021.2.3,59.9416168652525,
34.0,34.8,2,0.75,Stimuli\ImageFiles-Set2\Bodies\Bodies_DownwardDog_00004.png,0,0,0,45,45,45,,,,,,,,,,,,,34.01189879999947,0.011898799999471521,None,83.95978060000016,83.95978060000016,83.95978060000016,83.95978060000016,83.95978060000016,83.95978060000016,83.95978060000016,83.95978060000016,,002,P019,2025_Mar_21_1034,CategoryLocalizer,2021.2.3,59.9416168652525,
34.8,35.0,5,0.0,Stimuli\Blank.png,0,0,0,46,46,46,,,,,,,,,,,,,34.848273399999016,0.04827339999901881,None,84.7771614000012,84.7771614000012,84.7771614000012,84.7771614000012,84.7771614000012,84.7771614000012,84.7771614000012,84.7771614000012,,002,P019,2025_Mar_21_1034,CategoryLocalizer,2021.2.3,59.9416168652525,
35.0,35.8,2,0.75,Stimuli\ImageFiles-Set2\Bodies\Bodies_Crawling_00004.png,0,0,0,47,47,47,,,,,,,,,,,,,35.032307699999365,0.03230769999936456,None,84.97733789999984,84.97733789999984,84.97733789999984,84.97733789999984,84.97733789999984,84.97733789999984,84.97733789999984,84.97733789999984,,002,P019,2025_Mar_21_1034,CategoryLocalizer,2021.2.3,59.9416168652525,
35.8,36.0,5,0.0,Stimuli\Blank.png,0,0,0,48,48,48,,,,,,,,,,,,,35.83282589999908,0.03282589999908225,None,85.76134810000076,85.76134810000076,85.76134810000076,85.76134810000076,85.76134810000076,85.76134810000076,85.76134810000076,85.76134810000076,,002,P019,2025_Mar_21_1034,CategoryLocalizer,2021.2.3,59.9416168652525,
36.0,36.8,2,0.75,Stimuli\ImageFiles-Set2\Bodies\Bodies_Kneeling_00001.png,0,0,0,49,49,49,,,,,,,,,,,,,36.0143838999993,0.01438389999930223,None,85.96152080000138,85.96152080000138,85.96152080000138,85.96152080000138,85.96152080000138,85.96152080000138,85.96152080000138,85.96152080000138,,002,P019,2025_Mar_21_1034,CategoryLocalizer,2021.2.3,59.9416168652525,
36.8,37.0,5,0.0,Stimuli\Blank.png,0,0,0,50,50,50,,,,,,,,,,,,,36.84839699999975,0.048396999999752666,None,86.76221609999993,86.76221609999993,86.76221609999993,86.76221609999993,86.76221609999993,86.76221609999993,86.76221609999993,86.76221609999993,,002,P019,2025_Mar_21_1034,CategoryLocalizer,2021.2.3,59.9416168652525,
37.0,37.8,2,0.75,Stimuli\ImageFiles-Set2\Bodies\Bodies_Hanging_00007.png,0,0,0,51,51,51,,,,,,,,,,,,,37.01722189999964,0.0172218999996403,None,86.9624543000009,86.9624543000009,86.9624543000009,86.9624543000009,86.9624543000009,86.9624543000009,86.9624543000009,86.9624543000009,,002,P019,2025_Mar_21_1034,CategoryLocalizer,2021.2.3,59.9416168652525,
37.8,38.0,5,0.0,Stimuli\Blank.png,0,0,0,52,52,52,,,,,,,,,,,,,37.832586999998966,0.03258699999896919,None,87.74641990000055,87.74641990000055,87.74641990000055,87.74641990000055,87.74641990000055,87.74641990000055,87.74641990000055,87.74641990000055,,002,P019,2025_Mar_21_1034,CategoryLocalizer,2021.2.3,59.9416168652525,
38.0,38.8,2,0.75,Stimuli\ImageFiles-Set2\Bodies\Bodies_Waving_00002.png,0,0,0,53,53,53,,,,,,,,,,,,,37.99938259999908,-0.0006174000009195879,None,87.9299260000007,87.9299260000007,87.9299260000007,87.9299260000007,87.9299260000007,87.9299260000007,87.9299260000007,87.9299260000007,,002,P019,2025_Mar_21_1034,CategoryLocalizer,2021.2.3,59.9416168652525,
38.8,39.0,5,0.0,Stimuli\Blank.png,0,0,0,54,54,54,,,,,,,,,,,,,38.81679819999954,0.016798199999541907,None,88.73062750000099,88.73062750000099,88.73062750000099,88.73062750000099,88.73062750000099,88.73062750000099,88.73062750000099,88.73062750000099,,002,P019,2025_Mar_21_1034,CategoryLocalizer,2021.2.3,59.9416168652525,
39.0,39.8,2,0.75,Stimuli\ImageFiles-Set2\Bodies\Bodies_Jumping_00001.png,0,0,0,55,55,55,,,,,,,,,,,,,39.00208759999987,0.0020875999998679617,None,88.94750190000013,88.94750190000013,88.94750190000013,88.94750190000013,88.94750190000013,88.94750190000013,88.94750190000013,88.94750190000013,,002,P019,2025_Mar_21_1034,CategoryLocalizer,2021.2.3,59.9416168652525,
39.8,40.0,5,0.0,Stimuli\Blank.png,0,0,0,56,56,56,,,,,,,,,,,,,39.83363839999947,0.033638399999475155,None,89.74818180000148,89.74818180000148,89.74818180000148,89.74818180000148,89.74818180000148,89.74818180000148,89.74818180000148,89.74818180000148,,002,P019,2025_Mar_21_1034,CategoryLocalizer,2021.2.3,59.9416168652525,
40.0,40.8,2,0.75,Stimuli\ImageFiles-Set2\Bodies\Bodies_Hanging_00001.png,0,0,0,57,57,57,,,,,,,,,,,,,40.002294099998835,0.0022940999988350086,None,89.93170720000126,89.93170720000126,89.93170720000126,89.93170720000126,89.93170720000126,89.93170720000126,89.93170720000126,89.93170720000126,,002,P019,2025_Mar_21_1034,CategoryLocalizer,2021.2.3,59.9416168652525,
40.8,41.0,5,0.0,Stimuli\Blank.png,0,0,0,58,58,58,,,,,,,,,,,,,40.817848999999114,0.017848999999117154,None,90.73238579999997,90.73238579999997,90.73238579999997,90.73238579999997,90.73238579999997,90.73238579999997,90.73238579999997,90.73238579999997,,002,P019,2025_Mar_21_1034,CategoryLocalizer,2021.2.3,59.9416168652525,
41.0,41.8,2,0.75,Stimuli\ImageFiles-Set2\Bodies\Bodies_Jumping_00005.png,0,0,0,59,59,59,,,,,,,,,,,,,41.00149359999887,0.0014935999988665571,None,90.93257230000017,90.93257230000017,90.93257230000017,90.93257230000017,90.93257230000017,90.93257230000017,90.93257230000017,90.93257230000017,,002,P019,2025_Mar_21_1034,CategoryLocalizer,2021.2.3,59.9416168652525,
41.8,42.0,5,0.0,Stimuli\Blank.png,0,0,0,60,60,60,,,,,,,,,,,,,41.81988939999974,0.01988939999974093,None,91.73327140000038,91.73327140000038,91.73327140000038,91.73327140000038,91.73327140000038,91.73327140000038,91.73327140000038,91.73327140000038,,002,P019,2025_Mar_21_1034,CategoryLocalizer,2021.2.3,59.9416168652525,
42.0,42.8,2,0.75,Stimuli\ImageFiles-Set2\Bodies\Bodies_Jumping_00005.png,1,1,0,61,61,61,,,,,,,,,,,,,42.00287389999903,0.002873899999030982,1,91.91677900000104,91.91677900000104,91.91677900000104,91.91677900000104,91.91677900000104,91.91677900000104,91.91677900000104,91.91677900000104,0.5290810999995301,002,P019,2025_Mar_21_1034,CategoryLocalizer,2021.2.3,59.9416168652525,
42.8,43.0,5,0.0,Stimuli\Blank.png,0,0,0,62,62,62,,,,,,,,,,,,,42.80367179999848,0.0036717999984858807,None,92.7174754000007,92.7174754000007,92.7174754000007,92.7174754000007,92.7174754000007,92.7174754000007,92.7174754000007,92.7174754000007,,002,P019,2025_Mar_21_1034,CategoryLocalizer,2021.2.3,59.9416168652525,
43.0,43.8,2,0.75,Stimuli\ImageFiles-Set2\Bodies\Bodies_Running_00002.png,0,0,0,63,63,63,,,,,,,,,,,,,43.003331899999466,0.003331899999466259,None,92.93426660000114,92.93426660000114,92.93426660000114,92.93426660000114,92.93426660000114,92.93426660000114,92.93426660000114,92.93426660000114,,002,P019,2025_Mar_21_1034,CategoryLocalizer,2021.2.3,59.9416168652525,
43.8,44.0,5,0.0,Stimuli\Blank.png,0,0,0,64,64,64,,,,,,,,,,,,,43.82244949999949,0.02244949999949597,None,93.75173630000063,93.75173630000063,93.75173630000063,93.75173630000063,93.75173630000063,93.75173630000063,93.75173630000063,93.75173630000063,,002,P019,2025_Mar_21_1034,CategoryLocalizer,2021.2.3,59.9416168652525,
44.0,44.8,3,0.75,Stimuli\ImageFiles-Set2\Faces\Face_00078.png,0,0,0,65,65,65,,,,,,,,,,,,,44.02264239999931,0.022642399999313056,None,93.96858830000019,93.96858830000019,93.96858830000019,93.96858830000019,93.96858830000019,93.96858830000019,93.96858830000019,93.96858830000019,,002,P019,2025_Mar_21_1034,CategoryLocalizer,2021.2.3,59.9416168652525,
44.8,45.0,5,0.0,Stimuli\Blank.png,0,0,0,66,66,66,,,,,,,,,,,,,44.83831019999889,0.038310199998889516,None,94.75260460000027,94.75260460000027,94.75260460000027,94.75260460000027,94.75260460000027,94.75260460000027,94.75260460000027,94.75260460000027,,002,P019,2025_Mar_21_1034,CategoryLocalizer,2021.2.3,59.9416168652525,
45.0,45.8,3,0.75,Stimuli\ImageFiles-Set2\Faces\Face_00050.png,0,0,0,67,67,67,,,,,,,,,,,,,45.0056100999991,0.005610099999103113,None,94.93609880000076,94.93609880000076,94.93609880000076,94.93609880000076,94.93609880000076,94.93609880000076,94.93609880000076,94.93609880000076,,002,P019,2025_Mar_21_1034,CategoryLocalizer,2021.2.3,59.9416168652525,
45.8,46.0,5,0.0,Stimuli\Blank.png,0,0,0,68,68,68,,,,,,,,,,,,,45.82372239999859,0.02372239999859005,None,95.73681150000084,95.73681150000084,95.73681150000084,95.73681150000084,95.73681150000084,95.73681150000084,95.73681150000084,95.73681150000084,,002,P019,2025_Mar_21_1034,CategoryLocalizer,2021.2.3,59.9416168652525,
46.0,46.8,3,0.75,Stimuli\ImageFiles-Set2\Faces\Face_00094.png,0,0,0,69,69,69,,,,,,,,,,,,,46.00763129999905,0.007631299999047769,None,95.95368220000091,95.95368220000091,95.95368220000091,95.95368220000091,95.95368220000091,95.95368220000091,95.95368220000091,95.95368220000091,,002,P019,2025_Mar_21_1034,CategoryLocalizer,2021.2.3,59.9416168652525,
46.8,47.0,5,0.0,Stimuli\Blank.png,0,0,0,70,70,70,,,,,,,,,,,,,46.839878699998735,0.03987869999873794,None,96.75437330000022,96.75437330000022,96.75437330000022,96.75437330000022,96.75437330000022,96.75437330000022,96.75437330000022,96.75437330000022,,002,P019,2025_Mar_21_1034,CategoryLocalizer,2021.2.3,59.9416168652525,
47.0,47.8,3,0.75,Stimuli\ImageFiles-Set2\Faces\Face_00066.png,0,0,0,71,71,71,,,,,,,,,,,,,47.00692039999922,0.006920399999216897,None,96.95455460000085,96.95455460000085,96.95455460000085,96.95455460000085,96.95455460000085,96.95455460000085,96.95455460000085,96.95455460000085,,002,P019,2025_Mar_21_1034,CategoryLocalizer,2021.2.3,59.9416168652525,
47.8,48.0,5,0.0,Stimuli\Blank.png,0,0,0,72,72,72,,,,,,,,,,,,,47.8432714999999,0.04327149999990354,None,97.77198719999978,97.77198719999978,97.77198719999978,97.77198719999978,97.77198719999978,97.77198719999978,97.77198719999978,97.77198719999978,,002,P019,2025_Mar_21_1034,CategoryLocalizer,2021.2.3,59.9416168652525,
48.0,48.8,3,0.75,Stimuli\ImageFiles-Set2\Faces\Face_00028.png,0,0,0,73,73,73,,,,,,,,,,,,,48.02575089999846,0.02575089999845659,None,97.95541260000027,97.95541260000027,97.95541260000027,97.95541260000027,97.95541260000027,97.95541260000027,97.95541260000027,97.95541260000027,,002,P019,2025_Mar_21_1034,CategoryLocalizer,2021.2.3,59.9416168652525,
48.8,49.0,5,0.0,Stimuli\Blank.png,0,0,0,74,74,74,,,,,,,,,,,,,48.82565309999882,0.02565309999882004,None,98.73951579999994,98.73951579999994,98.73951579999994,98.73951579999994,98.73951579999994,98.73951579999994,98.73951579999994,98.73951579999994,,002,P019,2025_Mar_21_1034,CategoryLocalizer,2021.2.3,59.9416168652525,
49.0,49.8,3,0.75,Stimuli\ImageFiles-Set2\Faces\Face_00011.png,0,0,0,75,75,75,,,,,,,,,,,,,49.00843859999986,0.008438599999863072,None,98.93965240000034,98.93965240000034,98.93965240000034,98.93965240000034,98.93965240000034,98.93965240000034,98.93965240000034,98.93965240000034,,002,P019,2025_Mar_21_1034,CategoryLocalizer,2021.2.3,59.9416168652525,
49.8,50.0,5,0.0,Stimuli\Blank.png,0,0,0,76,76,76,,,,,,,,,,,,,49.82762989999901,0.02762989999901322,None,99.75704820000101,99.75704820000101,99.75704820000101,99.75704820000101,99.75704820000101,99.75704820000101,99.75704820000101,99.75704820000101,,002,P019,2025_Mar_21_1034,CategoryLocalizer,2021.2.3,59.9416168652525,
50.0,50.8,3,0.75,Stimuli\ImageFiles-Set2\Faces\Face_00011.png,1,1,0,77,77,77,,,,,,,,,,,,,50.02701639999941,0.027016399999411078,1,99.9572087000015,99.9572087000015,99.9572087000015,99.9572087000015,99.9572087000015,99.9572087000015,99.9572087000015,99.9572087000015,0.5108273999994708,002,P019,2025_Mar_21_1034,CategoryLocalizer,2021.2.3,59.9416168652525,
50.8,51.0,5,0.0,Stimuli\Blank.png,0,0,0,78,78,78,,,,,,,,,,,,,50.82737039999847,0.02737039999847468,None,100.74124149999989,100.74124149999989,100.74124149999989,100.74124149999989,100.74124149999989,100.74124149999989,100.74124149999989,100.74124149999989,,002,P019,2025_Mar_21_1034,CategoryLocalizer,2021.2.3,59.9416168652525,
51.0,51.8,3,0.75,Stimuli\ImageFiles-Set2\Faces\Face_00019.png,0,0,0,79,79,79,,,,,,,,,,,,,51.0108608999999,0.01086089999989781,None,100.94141540000055,100.94141540000055,100.94141540000055,100.94141540000055,100.94141540000055,100.94141540000055,100.94141540000055,100.94141540000055,,002,P019,2025_Mar_21_1034,CategoryLocalizer,2021.2.3,59.9416168652525,
51.8,52.0,5,0.0,Stimuli\Blank.png,0,0,0,80,80,80,,,,,,,,,,,,,51.82779049999954,0.027790499999539975,None,101.7421344000013,101.7421344000013,101.7421344000013,101.7421344000013,101.7421344000013,101.7421344000013,101.7421344000013,101.7421344000013,,002,P019,2025_Mar_21_1034,CategoryLocalizer,2021.2.3,59.9416168652525,
52.0,52.8,3,0.75,Stimuli\ImageFiles-Set2\Faces\Face_00042.png,0,0,0,81,81,81,,,,,,,,,,,,,52.01178179999988,0.011781799999880604,None,101.92561150000074,101.92561150000074,101.92561150000074,101.92561150000074,101.92561150000074,101.92561150000074,101.92561150000074,101.92561150000074,,002,P019,2025_Mar_21_1034,CategoryLocalizer,2021.2.3,59.9416168652525,
52.8,53.0,5,0.0,Stimuli\Blank.png,0,0,0,82,82,82,,,,,,,,,,,,,52.81201829999918,0.012018299999184023,None,102.72632200000044,102.72632200000044,102.72632200000044,102.72632200000044,102.72632200000044,102.72632200000044,102.72632200000044,102.72632200000044,,002,P019,2025_Mar_21_1034,CategoryLocalizer,2021.2.3,59.9416168652525,
53.0,53.8,3,0.75,Stimuli\ImageFiles-Set2\Faces\Face_00048.png,0,0,0,83,83,83,,,,,,,,,,,,,53.01431589999993,0.01431589999992866,None,102.95986260000063,102.95986260000063,102.95986260000063,102.95986260000063,102.95986260000063,102.95986260000063,102.95986260000063,102.95986260000063,,002,P019,2025_Mar_21_1034,CategoryLocalizer,2021.2.3,59.9416168652525,
53.8,54.0,5,0.0,Stimuli\Blank.png,0,0,0,84,84,84,,,,,,,,,,,,,53.84776999999849,0.04776999999849352,None,103.7772874000002,103.7772874000002,103.7772874000002,103.7772874000002,103.7772874000002,103.7772874000002,103.7772874000002,103.7772874000002,,002,P019,2025_Mar_21_1034,CategoryLocalizer,2021.2.3,59.9416168652525,
54.0,54.8,3,0.75,Stimuli\ImageFiles-Set2\Faces\Face_00086.png,0,0,0,85,85,85,,,,,,,,,,,,,54.030278799998996,0.030278799998995964,None,103.960755600001,103.960755600001,103.960755600001,103.960755600001,103.960755600001,103.960755600001,103.960755600001,103.960755600001,,002,P019,2025_Mar_21_1034,CategoryLocalizer,2021.2.3,59.9416168652525,
54.8,55.0,5,0.0,Stimuli\Blank.png,0,0,0,86,86,86,,,,,,,,,,,,,54.83260119999977,0.03260119999977462,None,104.76148040000044,104.76148040000044,104.76148040000044,104.76148040000044,104.76148040000044,104.76148040000044,104.76148040000044,104.76148040000044,,002,P019,2025_Mar_21_1034,CategoryLocalizer,2021.2.3,59.9416168652525,
55.0,55.8,3,0.75,Stimuli\ImageFiles-Set2\Faces\Face_00026.png,0,0,0,87,87,87,,,,,,,,,,,,,55.01449119999961,0.014491199999611126,None,104.92826080000123,104.92826080000123,104.92826080000123,104.92826080000123,104.92826080000123,104.92826080000123,104.92826080000123,104.92826080000123,,002,P019,2025_Mar_21_1034,CategoryLocalizer,2021.2.3,59.9416168652525,
55.8,56.0,5,0.0,Stimuli\Blank.png,0,0,0,88,88,88,,,,,,,,,,,,,55.814938899999106,0.014938899999108912,None,105.7289892000008,105.7289892000008,105.7289892000008,105.7289892000008,105.7289892000008,105.7289892000008,105.7289892000008,105.7289892000008,,002,P019,2025_Mar_21_1034,CategoryLocalizer,2021.2.3,59.9416168652525,
56.0,56.8,3,0.75,Stimuli\ImageFiles-Set2\Faces\Face_00006.png,0,0,0,89,89,89,,,,,,,,,,,,,56.01717649999955,0.017176499999550288,None,105.96254020000015,105.96254020000015,105.96254020000015,105.96254020000015,105.96254020000015,105.96254020000015,105.96254020000015,105.96254020000015,,002,P019,2025_Mar_21_1034,CategoryLocalizer,2021.2.3,59.9416168652525,
56.8,57.0,5,0.0,Stimuli\Blank.png,0,0,0,90,90,90,,,,,,,,,,,,,56.83291199999985,0.03291199999985395,None,106.7465385000014,106.7465385000014,106.7465385000014,106.7465385000014,106.7465385000014,106.7465385000014,106.7465385000014,106.7465385000014,,002,P019,2025_Mar_21_1034,CategoryLocalizer,2021.2.3,59.9416168652525,
57.0,57.8,3,0.75,Stimuli\ImageFiles-Set2\Faces\Face_00064.png,1,1,0,91,91,91,,,,,,,,,,,,,56.99998909999886,-1.0900001143454574e-05,None,106.94672320000063,106.94672320000063,106.94672320000063,106.94672320000063,106.94672320000063,106.94672320000063,106.94672320000063,106.94672320000063,,002,P019,2025_Mar_21_1034,CategoryLocalizer,2021.2.3,59.9416168652525,
57.8,58.0,5,0.0,Stimuli\Blank.png,0,0,0,92,92,92,,,,,,,,,,,,,57.83370779999859,0.03370779999859508,None,107.74741960000028,107.74741960000028,107.74741960000028,107.74741960000028,107.74741960000028,107.74741960000028,107.74741960000028,107.74741960000028,,002,P019,2025_Mar_21_1034,CategoryLocalizer,2021.2.3,59.9416168652525,
58.0,58.8,3,0.75,Stimuli\ImageFiles-Set2\Faces\Face_00090.png,0,0,0,93,93,93,,,,,,,,,,,,,57.999737999998615,-0.00026200000138487667,None,107.9309286000007,107.9309286000007,107.9309286000007,107.9309286000007,107.9309286000007,107.9309286000007,107.9309286000007,107.9309286000007,,002,P019,2025_Mar_21_1034,CategoryLocalizer,2021.2.3,59.9416168652525,
58.8,59.0,5,0.0,Stimuli\Blank.png,0,0,0,94,94,94,,,,,,,,,,,,,58.817731499999354,0.01773149999935697,None,108.73162779999984,108.73162779999984,108.73162779999984,108.73162779999984,108.73162779999984,108.73162779999984,108.73162779999984,108.73162779999984,,002,P019,2025_Mar_21_1034,CategoryLocalizer,2021.2.3,59.9416168652525,
59.0,59.8,3,0.75,Stimuli\ImageFiles-Set2\Faces\Face_00090.png,0,0,0,95,95,95,,,,,,,,,,,,,59.00255389999984,0.0025538999998389045,1,108.93182490000072,108.93182490000072,108.93182490000072,108.93182490000072,108.93182490000072,108.93182490000072,108.93182490000072,108.93182490000072,0.4671725999996852,002,P019,2025_Mar_21_1034,CategoryLocalizer,2021.2.3,59.9416168652525,
59.8,60.0,5,0.0,Stimuli\Blank.png,0,0,0,96,96,96,,,,,,,,,,,,,59.81794009999976,0.017940099999762538,None,109.73251900000105,109.73251900000105,109.73251900000105,109.73251900000105,109.73251900000105,109.73251900000105,109.73251900000105,109.73251900000105,,002,P019,2025_Mar_21_1034,CategoryLocalizer,2021.2.3,59.9416168652525,
60.0,60.8,4,0.75,Stimuli\ImageFiles-Set2\Scenes\Scenes_091.png,0,0,0,97,97,97,,,,,,,,,,,,,60.00276649999978,0.002766499999779626,None,109.94938569999977,109.94938569999977,109.94938569999977,109.94938569999977,109.94938569999977,109.94938569999977,109.94938569999977,109.94938569999977,,002,P019,2025_Mar_21_1034,CategoryLocalizer,2021.2.3,59.9416168652525,
60.8,61.0,5,0.0,Stimuli\Blank.png,0,0,0,98,98,98,,,,,,,,,,,,,60.8382359999996,0.03823599999959981,None,110.76677250000103,110.76677250000103,110.76677250000103,110.76677250000103,110.76677250000103,110.76677250000103,110.76677250000103,110.76677250000103,,002,P019,2025_Mar_21_1034,CategoryLocalizer,2021.2.3,59.9416168652525,
61.0,61.8,4,0.75,Stimuli\ImageFiles-Set2\Scenes\Scenes_110.png,0,0,0,99,99,99,,,,,,,,,,,,,61.01910889999999,0.01910889999999199,None,110.96699310000076,110.96699310000076,110.96699310000076,110.96699310000076,110.96699310000076,110.96699310000076,110.96699310000076,110.96699310000076,,002,P019,2025_Mar_21_1034,CategoryLocalizer,2021.2.3,59.9416168652525,
61.8,62.0,5,0.0,Stimuli\Blank.png,0,0,0,100,100,100,,,,,,,,,,,,,61.83671829999912,0.036718299999122905,None,111.75104300000021,111.75104300000021,111.75104300000021,111.75104300000021,111.75104300000021,111.75104300000021,111.75104300000021,111.75104300000021,,002,P019,2025_Mar_21_1034,CategoryLocalizer,2021.2.3,59.9416168652525,
62.0,62.8,4,0.75,Stimuli\ImageFiles-Set2\Scenes\Scenes_105.png,0,0,0,101,101,101,,,,,,,,,,,,,62.00359059999937,0.00359059999937017,None,111.95115580000129,111.95115580000129,111.95115580000129,111.95115580000129,111.95115580000129,111.95115580000129,111.95115580000129,111.95115580000129,,002,P019,2025_Mar_21_1034,CategoryLocalizer,2021.2.3,59.9416168652525,
62.8,63.0,5,0.0,Stimuli\Blank.png,0,0,0,102,102,102,,,,,,,,,,,,,62.83812019999823,0.03812019999823235,None,112.75185659999988,112.75185659999988,112.75185659999988,112.75185659999988,112.75185659999988,112.75185659999988,112.75185659999988,112.75185659999988,,002,P019,2025_Mar_21_1034,CategoryLocalizer,2021.2.3,59.9416168652525,
63.0,63.8,4,0.75,Stimuli\ImageFiles-Set2\Scenes\Scenes_063.png,0,0,0,103,103,103,,,,,,,,,,,,,63.00419819999843,0.004198199998427299,None,112.9353798000011,112.9353798000011,112.9353798000011,112.9353798000011,112.9353798000011,112.9353798000011,112.9353798000011,112.9353798000011,,002,P019,2025_Mar_21_1034,CategoryLocalizer,2021.2.3,59.9416168652525,
63.8,64.0,5,0.0,Stimuli\Blank.png,0,0,0,104,104,104,,,,,,,,,,,,,63.823014699999476,0.023014699999478694,None,113.73604570000134,113.73604570000134,113.73604570000134,113.73604570000134,113.73604570000134,113.73604570000134,113.73604570000134,113.73604570000134,,002,P019,2025_Mar_21_1034,CategoryLocalizer,2021.2.3,59.9416168652525,
64.0,64.8,4,0.75,Stimuli\ImageFiles-Set2\Scenes\Scenes_088.png,0,0,0,105,105,105,,,,,,,,,,,,,64.0056358999991,0.0056358999991061864,None,113.93622950000099,113.93622950000099,113.93622950000099,113.93622950000099,113.93622950000099,113.93622950000099,113.93622950000099,113.93622950000099,,002,P019,2025_Mar_21_1034,CategoryLocalizer,2021.2.3,59.9416168652525,
64.8,65.0,5,0.0,Stimuli\Blank.png,0,0,0,106,106,106,,,,,,,,,,,,,64.82328629999938,0.02328629999938414,None,114.73694760000035,114.73694760000035,114.73694760000035,114.73694760000035,114.73694760000035,114.73694760000035,114.73694760000035,114.73694760000035,,002,P019,2025_Mar_21_1034,CategoryLocalizer,2021.2.3,59.9416168652525,
65.0,65.8,4,0.75,Stimuli\ImageFiles-Set2\Scenes\Scenes_116.png,0,0,0,107,107,107,,,,,,,,,,,,,65.00770979999834,0.007709799998337985,None,114.93706920000113,114.93706920000113,114.93706920000113,114.93706920000113,114.93706920000113,114.93706920000113,114.93706920000113,114.93706920000113,,002,P019,2025_Mar_21_1034,CategoryLocalizer,2021.2.3,59.9416168652525,
65.8,66.0,5,0.0,Stimuli\Blank.png,0,0,0,108,108,108,,,,,,,,,,,,,65.8233339999988,0.023333999998797594,None,115.73781469999994,115.73781469999994,115.73781469999994,115.73781469999994,115.73781469999994,115.73781469999994,115.73781469999994,115.73781469999994,,002,P019,2025_Mar_21_1034,CategoryLocalizer,2021.2.3,59.9416168652525,
66.0,66.8,4,0.75,Stimuli\ImageFiles-Set2\Scenes\Scenes_115.png,0,0,0,109,109,109,,,,,,,,,,,,,66.00778039999932,0.007780399999319343,None,115.93802649999998,115.93802649999998,115.93802649999998,115.93802649999998,115.93802649999998,115.93802649999998,115.93802649999998,115.93802649999998,,002,P019,2025_Mar_21_1034,CategoryLocalizer,2021.2.3,59.9416168652525,
66.8,67.0,5,0.0,Stimuli\Blank.png,0,0,0,110,110,110,,,,,,,,,,,,,66.82449089999864,0.024490899998639293,None,116.73870270000043,116.73870270000043,116.73870270000043,116.73870270000043,116.73870270000043,116.73870270000043,116.73870270000043,116.73870270000043,,002,P019,2025_Mar_21_1034,CategoryLocalizer,2021.2.3,59.9416168652525,
67.0,67.8,4,0.75,Stimuli\ImageFiles-Set2\Scenes\Scenes_069.png,0,0,0,111,111,111,,,,,,,,,,,,,67.00783869999941,0.007838699999410892,None,116.9388783000013,116.9388783000013,116.9388783000013,116.9388783000013,116.9388783000013,116.9388783000013,116.9388783000013,116.9388783000013,,002,P019,2025_Mar_21_1034,CategoryLocalizer,2021.2.3,59.9416168652525,
67.8,68.0,5,0.0,Stimuli\Blank.png,0,0,0,112,112,112,,,,,,,,,,,,,67.82718079999904,0.027180799999044325,None,117.75626740000007,117.75626740000007,117.75626740000007,117.75626740000007,117.75626740000007,117.75626740000007,117.75626740000007,117.75626740000007,,002,P019,2025_Mar_21_1034,CategoryLocalizer,2021.2.3,59.9416168652525,
68.0,68.8,4,0.75,Stimuli\ImageFiles-Set2\Scenes\Scenes_109.png,0,0,0,113,113,113,,,,,,,,,,,,,68.02611579999939,0.0261157999993884,None,117.95644130000073,117.95644130000073,117.95644130000073,117.95644130000073,117.95644130000073,117.95644130000073,117.95644130000073,117.95644130000073,,002,P019,2025_Mar_21_1034,CategoryLocalizer,2021.2.3,59.9416168652525,
68.8,69.0,5,0.0,Stimuli\Blank.png,0,0,0,114,114,114,,,,,,,,,,,,,68.82605179999882,0.02605179999882523,None,118.74046790000102,118.74046790000102,118.74046790000102,118.74046790000102,118.74046790000102,118.74046790000102,118.74046790000102,118.74046790000102,,002,P019,2025_Mar_21_1034,CategoryLocalizer,2021.2.3,59.9416168652525,
69.0,69.8,4,0.75,Stimuli\ImageFiles-Set2\Scenes\Scenes_085.png,0,0,0,115,115,115,,,,,,,,,,,,,69.01057899999978,0.010578999999779626,None,118.94069290000152,118.94069290000152,118.94069290000152,118.94069290000152,118.94069290000152,118.94069290000152,118.94069290000152,118.94069290000152,,002,P019,2025_Mar_21_1034,CategoryLocalizer,2021.2.3,59.9416168652525,
69.8,70.0,5,0.0,Stimuli\Blank.png,0,0,0,116,116,116,,,,,,,,,,,,,69.82737859999907,0.027378599999067887,None,119.74135399999977,119.74135399999977,119.74135399999977,119.74135399999977,119.74135399999977,119.74135399999977,119.74135399999977,119.74135399999977,,002,P019,2025_Mar_21_1034,CategoryLocalizer,2021.2.3,59.9416168652525,
70.0,70.8,4,0.75,Stimuli\ImageFiles-Set2\Scenes\Scenes_102.png,0,0,0,117,117,117,,,,,,,,,,,,,70.01039629999832,0.010396299998319591,None,119.9415665000015,119.9415665000015,119.9415665000015,119.9415665000015,119.9415665000015,119.9415665000015,119.9415665000015,119.9415665000015,,002,P019,2025_Mar_21_1034,CategoryLocalizer,2021.2.3,59.9416168652525,
70.8,71.0,5,0.0,Stimuli\Blank.png,0,0,0,118,118,118,,,,,,,,,,,,,70.82881969999835,0.02881969999835121,None,120.74223920000077,120.74223920000077,120.74223920000077,120.74223920000077,120.74223920000077,120.74223920000077,120.74223920000077,120.74223920000077,,002,P019,2025_Mar_21_1034,CategoryLocalizer,2021.2.3,59.9416168652525,
71.0,71.8,4,0.75,Stimuli\ImageFiles-Set2\Scenes\Scenes_111.png,0,0,0,119,119,119,,,,,,,,,,,,,71.01144669999849,0.01144669999848702,None,120.94247689999975,120.94247689999975,120.94247689999975,120.94247689999975,120.94247689999975,120.94247689999975,120.94247689999975,120.94247689999975,,002,P019,2025_Mar_21_1034,CategoryLocalizer,2021.2.3,59.9416168652525,
71.8,72.0,5,0.0,Stimuli\Blank.png,0,0,0,120,120,120,,,,,,,,,,,,,71.82857960000001,0.028579600000014693,None,121.74312290000125,121.74312290000125,121.74312290000125,121.74312290000125,121.74312290000125,121.74312290000125,121.74312290000125,121.74312290000125,,002,P019,2025_Mar_21_1034,CategoryLocalizer,2021.2.3,59.9416168652525,
72.0,72.8,4,0.75,Stimuli\ImageFiles-Set2\Scenes\Scenes_077.png,0,0,0,121,121,121,,,,,,,,,,,,,72.01284759999908,0.01284759999907692,None,121.94330730000001,121.94330730000001,121.94330730000001,121.94330730000001,121.94330730000001,121.94330730000001,121.94330730000001,121.94330730000001,,002,P019,2025_Mar_21_1034,CategoryLocalizer,2021.2.3,59.9416168652525,
72.8,73.0,5,0.0,Stimuli\Blank.png,0,0,0,122,122,122,,,,,,,,,,,,,72.83081969999876,0.030819699998758665,None,122.74403780000102,122.74403780000102,122.74403780000102,122.74403780000102,122.74403780000102,122.74403780000102,122.74403780000102,122.74403780000102,,002,P019,2025_Mar_21_1034,CategoryLocalizer,2021.2.3,59.9416168652525,
73.0,73.8,4,0.75,Stimuli\ImageFiles-Set2\Scenes\Scenes_077.png,1,1,0,123,123,123,,,,,,,,,,,,,73.01331589999972,0.013315899999724934,1,122.94419280000147,122.94419280000147,122.94419280000147,122.94419280000147,122.94419280000147,122.94419280000147,122.94419280000147,122.94419280000147,0.41064920000098937,002,P019,2025_Mar_21_1034,CategoryLocalizer,2021.2.3,59.9416168652525,
73.8,74.0,5,0.0,Stimuli\Blank.png,0,0,0,124,124,124,,,,,,,,,,,,,73.83342859999902,0.03342859999902714,None,123.76158880000003,123.76158880000003,123.76158880000003,123.76158880000003,123.76158880000003,123.76158880000003,123.76158880000003,123.76158880000003,,002,P019,2025_Mar_21_1034,CategoryLocalizer,2021.2.3,59.9416168652525,
74.0,74.8,4,0.75,Stimuli\ImageFiles-Set2\Scenes\Scenes_070.png,0,0,0,125,125,125,,,,,,,,,,,,,74.01580029999968,0.015800299999682466,None,123.94505800000115,123.94505800000115,123.94505800000115,123.94505800000115,123.94505800000115,123.94505800000115,123.94505800000115,123.94505800000115,,002,P019,2025_Mar_21_1034,CategoryLocalizer,2021.2.3,59.9416168652525,
74.8,75.0,5,0.0,Stimuli\Blank.png,0,0,0,126,126,126,,,,,,,,,,,,,74.81472569999823,0.014725699998237474,None,124.72909980000077,124.72909980000077,124.72909980000077,124.72909980000077,124.72909980000077,124.72909980000077,124.72909980000077,124.72909980000077,,002,P019,2025_Mar_21_1034,CategoryLocalizer,2021.2.3,59.9416168652525,
75.0,75.8,4,0.75,Stimuli\ImageFiles-Set2\Scenes\Scenes_113.png,0,0,0,127,127,127,,,,,,,,,,,,,75.01720729999943,0.01720729999942705,None,124.94596869999987,124.94596869999987,124.94596869999987,124.94596869999987,124.94596869999987,124.94596869999987,124.94596869999987,124.94596869999987,,002,P019,2025_Mar_21_1034,CategoryLocalizer,2021.2.3,59.9416168652525,
75.8,76.0,5,0.0,Stimuli\Blank.png,0,0,0,128,128,128,,,,,,,,,,,,,75.81723479999891,0.017234799998917083,None,125.74667800000134,125.74667800000134,125.74667800000134,125.74667800000134,125.74667800000134,125.74667800000134,125.74667800000134,125.74667800000134,,002,P019,2025_Mar_21_1034,CategoryLocalizer,2021.2.3,59.9416168652525,
76.0,88.0,0,0.0,Stimuli\Blank.png,0,0,0,129,129,129,,,,,,,,,,,,,76.01624999999876,0.016249999998763087,None,125.93020100000103,125.93020100000103,125.93020100000103,125.93020100000103,125.93020100000103,125.93020100000103,125.93020100000103,125.93020100000103,,002,P019,2025_Mar_21_1034,CategoryLocalizer,2021.2.3,59.9416168652525,
88.0,88.8,3,0.75,Stimuli\ImageFiles-Set2\Faces\Face_00017.png,0,0,0,130,130,130,,,,,,,,,,,,,88.01021499999842,0.0102149999984249,None,137.94079670000065,137.94079670000065,137.94079670000065,137.94079670000065,137.94079670000065,137.94079670000065,137.94079670000065,137.94079670000065,,002,P019,2025_Mar_21_1034,CategoryLocalizer,2021.2.3,59.9416168652525,
88.8,89.0,5,0.0,Stimuli\Blank.png,0,0,0,131,131,131,,,,,,,,,,,,,88.82694499999889,0.02694499999888933,None,138.74149620000026,138.74149620000026,138.74149620000026,138.74149620000026,138.74149620000026,138.74149620000026,138.74149620000026,138.74149620000026,,002,P019,2025_Mar_21_1034,CategoryLocalizer,2021.2.3,59.9416168652525,
89.0,89.8,3,0.75,Stimuli\ImageFiles-Set2\Faces\Face_00017.png,1,1,0,132,132,132,,,,,,,,,,,,,89.012249899999,0.01224989999900572,1,138.94166150000092,138.94166150000092,138.94166150000092,138.94166150000092,138.94166150000092,138.94166150000092,138.94166150000092,138.94166150000092,0.42812969999977213,002,P019,2025_Mar_21_1034,CategoryLocalizer,2021.2.3,59.9416168652525,
89.8,90.0,5,0.0,Stimuli\Blank.png,0,0,0,133,133,133,,,,,,,,,,,,,89.82879169999978,0.028791699999786147,None,139.74232210000082,139.74232210000082,139.74232210000082,139.74232210000082,139.74232210000082,139.74232210000082,139.74232210000082,139.74232210000082,,002,P019,2025_Mar_21_1034,CategoryLocalizer,2021.2.3,59.9416168652525,
90.0,90.8,3,0.75,Stimuli\ImageFiles-Set2\Faces\Face_00104.png,0,0,0,134,134,134,,,,,,,,,,,,,90.01195929999994,0.01195929999994405,None,139.94255780000094,139.94255780000094,139.94255780000094,139.94255780000094,139.94255780000094,139.94255780000094,139.94255780000094,139.94255780000094,,002,P019,2025_Mar_21_1034,CategoryLocalizer,2021.2.3,59.9416168652525,
90.8,91.0,5,0.0,Stimuli\Blank.png,0,0,0,135,135,135,,,,,,,,,,,,,90.82949999999983,0.02949999999982822,None,140.74320030000126,140.74320030000126,140.74320030000126,140.74320030000126,140.74320030000126,140.74320030000126,140.74320030000126,140.74320030000126,,002,P019,2025_Mar_21_1034,CategoryLocalizer,2021.2.3,59.9416168652525,
91.0,91.8,3,0.75,Stimuli\ImageFiles-Set2\Faces\Face_00060.png,0,0,0,136,136,136,,,,,,,,,,,,,91.01269879999927,0.012698799999270705,None,140.94340990000092,140.94340990000092,140.94340990000092,140.94340990000092,140.94340990000092,140.94340990000092,140.94340990000092,140.94340990000092,,002,P019,2025_Mar_21_1034,CategoryLocalizer,2021.2.3,59.9416168652525,
91.8,92.0,5,0.0,Stimuli\Blank.png,0,0,0,137,137,137,,,,,,,,,,,,,91.82992429999831,0.029924299998313586,None,141.74411150000014,141.74411150000014,141.74411150000014,141.74411150000014,141.74411150000014,141.74411150000014,141.74411150000014,141.74411150000014,,002,P019,2025_Mar_21_1034,CategoryLocalizer,2021.2.3,59.9416168652525,
92.0,92.8,3,0.75,Stimuli\ImageFiles-Set2\Faces\Face_00116.png,0,0,0,138,138,138,,,,,,,,,,,,,92.0137008999991,0.013700899999093963,None,141.92758940000022,141.92758940000022,141.92758940000022,141.92758940000022,141.92758940000022,141.92758940000022,141.92758940000022,141.92758940000022,,002,P019,2025_Mar_21_1034,CategoryLocalizer,2021.2.3,59.9416168652525,
92.8,93.0,5,0.0,Stimuli\Blank.png,0,0,0,139,139,139,,,,,,,,,,,,,92.81445649999841,0.014456499998416916,None,142.72830369999974,142.72830369999974,142.72830369999974,142.72830369999974,142.72830369999974,142.72830369999974,142.72830369999974,142.72830369999974,,002,P019,2025_Mar_21_1034,CategoryLocalizer,2021.2.3,59.9416168652525,
93.0,93.8,3,0.75,Stimuli\ImageFiles-Set2\Faces\Face_00021.png,0,0,0,140,140,140,,,,,,,,,,,,,93.01407559999825,0.014075599998250254,None,142.928472900001,142.928472900001,142.928472900001,142.928472900001,142.928472900001,142.928472900001,142.928472900001,142.928472900001,,002,P019,2025_Mar_21_1034,CategoryLocalizer,2021.2.3,59.9416168652525,
93.8,94.0,5,0.0,Stimuli\Blank.png,0,0,0,141,141,141,,,,,,,,,,,,,93.81576159999895,0.015761599998953102,None,143.72918329999993,143.72918329999993,143.72918329999993,143.72918329999993,143.72918329999993,143.72918329999993,143.72918329999993,143.72918329999993,,002,P019,2025_Mar_21_1034,CategoryLocalizer,2021.2.3,59.9416168652525,
94.0,94.8,3,0.75,Stimuli\ImageFiles-Set2\Faces\Face_00044.png,0,0,0,142,142,142,,,,,,,,,,,,,93.99867589999849,-0.0013241000015113968,None,143.9293761000008,143.9293761000008,143.9293761000008,143.9293761000008,143.9293761000008,143.9293761000008,143.9293761000008,143.9293761000008,,002,P019,2025_Mar_21_1034,CategoryLocalizer,2021.2.3,59.9416168652525,
94.8,95.0,5,0.0,Stimuli\Blank.png,0,0,0,143,143,143,,,,,,,,,,,,,94.8165442999998,0.016544299999807777,None,144.73007810000126,144.73007810000126,144.73007810000126,144.73007810000126,144.73007810000126,144.73007810000126,144.73007810000126,144.73007810000126,,002,P019,2025_Mar_21_1034,CategoryLocalizer,2021.2.3,59.9416168652525,
95.0,95.8,3,0.75,Stimuli\ImageFiles-Set2\Faces\Face_00108.png,0,0,0,144,144,144,,,,,,,,,,,,,94.99921089999953,-0.0007891000004747184,None,144.91359060000104,144.91359060000104,144.91359060000104,144.91359060000104,144.91359060000104,144.91359060000104,144.91359060000104,144.91359060000104,,002,P019,2025_Mar_21_1034,CategoryLocalizer,2021.2.3,59.9416168652525,
95.8,96.0,5,0.0,Stimuli\Blank.png,0,0,0,145,145,145,,,,,,,,,,,,,95.79971409999962,-0.00028590000037809205,None,145.7142975000006,145.7142975000006,145.7142975000006,145.7142975000006,145.7142975000006,145.7142975000006,145.7142975000006,145.7142975000006,,002,P019,2025_Mar_21_1034,CategoryLocalizer,2021.2.3,59.9416168652525,
96.0,96.8,3,0.75,Stimuli\ImageFiles-Set2\Faces\Face_00013.png,0,0,0,146,146,146,,,,,,,,,,,,,96.00097089999872,0.0009708999987196876,None,145.93118200000026,145.93118200000026,145.93118200000026,145.93118200000026,145.93118200000026,145.93118200000026,145.93118200000026,145.93118200000026,,002,P019,2025_Mar_21_1034,CategoryLocalizer,2021.2.3,59.9416168652525,
96.8,97.0,5,0.0,Stimuli\Blank.png,0,0,0,147,147,147,,,,,,,,,,,,,96.81852639999852,0.018526399998521015,None,146.73187240000152,146.73187240000152,146.73187240000152,146.73187240000152,146.73187240000152,146.73187240000152,146.73187240000152,146.73187240000152,,002,P019,2025_Mar_21_1034,CategoryLocalizer,2021.2.3,59.9416168652525,
97.0,97.8,3,0.75,Stimuli\ImageFiles-Set2\Faces\Face_00092.png,1,1,0,148,148,148,,,,,,,,,,,,,97.00140909999936,0.0014090999993641162,None,146.9320372000002,146.9320372000002,146.9320372000002,146.9320372000002,146.9320372000002,146.9320372000002,146.9320372000002,146.9320372000002,,002,P019,2025_Mar_21_1034,CategoryLocalizer,2021.2.3,59.9416168652525,
97.8,98.0,5,0.0,Stimuli\Blank.png,0,0,0,149,149,149,,,,,,,,,,,,,97.81942399999934,0.019423999999347075,None,147.73358010000084,147.73358010000084,147.73358010000084,147.73358010000084,147.73358010000084,147.73358010000084,147.73358010000084,147.73358010000084,,002,P019,2025_Mar_21_1034,CategoryLocalizer,2021.2.3,59.9416168652525,
98.0,98.8,3,0.75,Stimuli\ImageFiles-Set2\Faces\Face_00110.png,0,0,0,150,150,150,,,,,,,,,,,,,98.00265369999943,0.002653699999427772,None,147.93313260000104,147.93313260000104,147.93313260000104,147.93313260000104,147.93313260000104,147.93313260000104,147.93313260000104,147.93313260000104,,002,P019,2025_Mar_21_1034,CategoryLocalizer,2021.2.3,59.9416168652525,
98.8,99.0,5,0.0,Stimuli\Blank.png,0,0,0,151,151,151,,,,,,,,,,,,,98.81925459999911,0.019254599999115385,None,148.73363250000148,148.73363250000148,148.73363250000148,148.73363250000148,148.73363250000148,148.73363250000148,148.73363250000148,148.73363250000148,,002,P019,2025_Mar_21_1034,CategoryLocalizer,2021.2.3,59.9416168652525,
99.0,99.8,3,0.75,Stimuli\ImageFiles-Set2\Faces\Face_00110.png,0,0,0,152,152,152,,,,,,,,,,,,,99.0033072999995,0.0033072999995056307,1,148.91712019999977,148.91712019999977,148.91712019999977,148.91712019999977,148.91712019999977,148.91712019999977,148.91712019999977,148.91712019999977,0.3967202999992878,002,P019,2025_Mar_21_1034,CategoryLocalizer,2021.2.3,59.9416168652525,
99.8,100.0,5,0.0,Stimuli\Blank.png,0,0,0,153,153,153,,,,,,,,,,,,,99.80343819999871,0.003438199998711866,None,149.7178324000015,149.7178324000015,149.7178324000015,149.7178324000015,149.7178324000015,149.7178324000015,149.7178324000015,149.7178324000015,,002,P019,2025_Mar_21_1034,CategoryLocalizer,2021.2.3,59.9416168652525,
100.0,100.8,3,0.75,Stimuli\ImageFiles-Set2\Faces\Face_00080.png,0,0,0,154,154,154,,,,,,,,,,,,,100.0038741999997,0.0038741999997000676,None,149.9514048000001,149.9514048000001,149.9514048000001,149.9514048000001,149.9514048000001,149.9514048000001,149.9514048000001,149.9514048000001,,002,P019,2025_Mar_21_1034,CategoryLocalizer,2021.2.3,59.9416168652525,
100.8,101.0,5,0.0,Stimuli\Blank.png,0,0,0,155,155,155,,,,,,,,,,,,,100.83815089999916,0.038150899999166654,None,150.75208920000114,150.75208920000114,150.75208920000114,150.75208920000114,150.75208920000114,150.75208920000114,150.75208920000114,150.75208920000114,,002,P019,2025_Mar_21_1034,CategoryLocalizer,2021.2.3,59.9416168652525,
101.0,101.8,3,0.75,Stimuli\ImageFiles-Set2\Faces\Face_00058.png,0,0,0,156,156,156,,,,,,,,,,,,,101.00439099999858,0.004390999998577172,None,150.91888440000002,150.91888440000002,150.91888440000002,150.91888440000002,150.91888440000002,150.91888440000002,150.91888440000002,150.91888440000002,,002,P019,2025_Mar_21_1034,CategoryLocalizer,2021.2.3,59.9416168652525,
101.8,102.0,5,0.0,Stimuli\Blank.png,0,0,0,157,157,157,,,,,,,,,,,,,101.80574949999937,0.005749499999367913,None,151.7196074000003,151.7196074000003,151.7196074000003,151.7196074000003,151.7196074000003,151.7196074000003,151.7196074000003,151.7196074000003,,002,P019,2025_Mar_21_1034,CategoryLocalizer,2021.2.3,59.9416168652525,
102.0,102.8,3,0.75,Stimuli\ImageFiles-Set2\Faces\Face_00052.png,0,0,0,158,158,158,,,,,,,,,,,,,102.00567759999831,0.005677599998307414,None,151.9531375000006,151.9531375000006,151.9531375000006,151.9531375000006,151.9531375000006,151.9531375000006,151.9531375000006,151.9531375000006,,002,P019,2025_Mar_21_1034,CategoryLocalizer,2021.2.3,59.9416168652525,
102.8,103.0,5,0.0,Stimuli\Blank.png,0,0,0,159,159,159,,,,,,,,,,,,,102.84016769999835,0.04016769999834935,None,152.75387659999978,152.75387659999978,152.75387659999978,152.75387659999978,152.75387659999978,152.75387659999978,152.75387659999978,152.75387659999978,,002,P019,2025_Mar_21_1034,CategoryLocalizer,2021.2.3,59.9416168652525,
103.0,103.8,3,0.75,Stimuli\ImageFiles-Set2\Faces\Face_00054.png,0,0,0,160,160,160,,,,,,,,,,,,,103.00680459999967,0.006804599999668426,None,152.95405290000053,152.95405290000053,152.95405290000053,152.95405290000053,152.95405290000053,152.95405290000053,152.95405290000053,152.95405290000053,,002,P019,2025_Mar_21_1034,CategoryLocalizer,2021.2.3,59.9416168652525,
103.8,104.0,5,0.0,Stimuli\Blank.png,0,0,0,161,161,161,,,,,,,,,,,,,103.8401630999997,0.04016309999970247,None,153.75472550000086,153.75472550000086,153.75472550000086,153.75472550000086,153.75472550000086,153.75472550000086,153.75472550000086,153.75472550000086,,002,P019,2025_Mar_21_1034,CategoryLocalizer,2021.2.3,59.9416168652525,
104.0,104.8,1,0.75,Stimuli\ImageFiles-Set2\Objects\Object_Boot_00001.png,0,0,0,162,162,162,,,,,,,,,,,,,104.00700439999855,0.0070043999985500704,None,153.92153860000144,153.92153860000144,153.92153860000144,153.92153860000144,153.92153860000144,153.92153860000144,153.92153860000144,153.92153860000144,,002,P019,2025_Mar_21_1034,CategoryLocalizer,2021.2.3,59.9416168652525,
104.8,105.0,5,0.0,Stimuli\Blank.png,0,0,0,163,163,163,,,,,,,,,,,,,104.80787019999843,0.007870199998436078,None,154.72226200000114,154.72226200000114,154.72226200000114,154.72226200000114,154.72226200000114,154.72226200000114,154.72226200000114,154.72226200000114,,002,P019,2025_Mar_21_1034,CategoryLocalizer,2021.2.3,59.9416168652525,
105.0,105.8,1,0.75,Stimuli\ImageFiles-Set2\Objects\Object_Switch_00001.png,0,0,0,164,164,164,,,,,,,,,,,,,105.00844439999855,0.008444399998552399,None,154.9391126999999,154.9391126999999,154.9391126999999,154.9391126999999,154.9391126999999,154.9391126999999,154.9391126999999,154.9391126999999,,002,P019,2025_Mar_21_1034,CategoryLocalizer,2021.2.3,59.9416168652525,
105.8,106.0,5,0.0,Stimuli\Blank.png,0,0,0,165,165,165,,,,,,,,,,,,,105.8261767999993,0.026176799999305445,None,155.73987579999994,155.73987579999994,155.73987579999994,155.73987579999994,155.73987579999994,155.73987579999994,155.73987579999994,155.73987579999994,,002,P019,2025_Mar_21_1034,CategoryLocalizer,2021.2.3,59.9416168652525,
106.0,106.8,1,0.75,Stimuli\ImageFiles-Set2\Objects\Object_Pin_00001.png,0,0,0,166,166,166,,,,,,,,,,,,,106.0095954999997,0.00959549999970477,None,155.9400172000005,155.9400172000005,155.9400172000005,155.9400172000005,155.9400172000005,155.9400172000005,155.9400172000005,155.9400172000005,,002,P019,2025_Mar_21_1034,CategoryLocalizer,2021.2.3,59.9416168652525,
106.8,107.0,5,0.0,Stimuli\Blank.png,0,0,0,167,167,167,,,,,,,,,,,,,106.82692429999952,0.026924299999521395,None,156.74070370000118,156.74070370000118,156.74070370000118,156.74070370000118,156.74070370000118,156.74070370000118,156.74070370000118,156.74070370000118,,002,P019,2025_Mar_21_1034,CategoryLocalizer,2021.2.3,59.9416168652525,
107.0,107.8,1,0.75,Stimuli\ImageFiles-Set2\Objects\Object_Sandal_00001.png,0,0,0,168,168,168,,,,,,,,,,,,,107.00964479999857,0.009644799998568487,None,156.94087600000057,156.94087600000057,156.94087600000057,156.94087600000057,156.94087600000057,156.94087600000057,156.94087600000057,156.94087600000057,,002,P019,2025_Mar_21_1034,CategoryLocalizer,2021.2.3,59.9416168652525,
107.8,108.0,5,0.0,Stimuli\Blank.png,0,0,0,169,169,169,,,,,,,,,,,,,107.82718309999836,0.027183099998367766,None,157.74159800000052,157.74159800000052,157.74159800000052,157.74159800000052,157.74159800000052,157.74159800000052,157.74159800000052,157.74159800000052,,002,P019,2025_Mar_21_1034,CategoryLocalizer,2021.2.3,59.9416168652525,
108.0,108.8,1,0.75,Stimuli\ImageFiles-Set2\Objects\Object_Microphone_00001.png,0,0,0,170,170,170,,,,,,,,,,,,,108.01234789999944,0.012347899999440415,None,157.94178730000021,157.94178730000021,157.94178730000021,157.94178730000021,157.94178730000021,157.94178730000021,157.94178730000021,157.94178730000021,,002,P019,2025_Mar_21_1034,CategoryLocalizer,2021.2.3,59.9416168652525,
108.8,109.0,5,0.0,Stimuli\Blank.png,0,0,0,171,171,171,,,,,,,,,,,,,108.8280481999991,0.02804819999910535,None,158.74247490000016,158.74247490000016,158.74247490000016,158.74247490000016,158.74247490000016,158.74247490000016,158.74247490000016,158.74247490000016,,002,P019,2025_Mar_21_1034,CategoryLocalizer,2021.2.3,59.9416168652525,
109.0,109.8,1,0.75,Stimuli\ImageFiles-Set2\Objects\Object_Ambulance_00001.png,0,0,0,172,172,172,,,,,,,,,,,,,109.01206229999843,0.012062299998433446,None,158.95933049999985,158.95933049999985,158.95933049999985,158.95933049999985,158.95933049999985,158.95933049999985,158.95933049999985,158.95933049999985,,002,P019,2025_Mar_21_1034,CategoryLocalizer,2021.2.3,59.9416168652525,
109.8,110.0,5,0.0,Stimuli\Blank.png,0,0,0,173,173,173,,,,,,,,,,,,,109.8475742999999,0.047574299999908476,None,159.77674620000107,159.77674620000107,159.77674620000107,159.77674620000107,159.77674620000107,159.77674620000107,159.77674620000107,159.77674620000107,,002,P019,2025_Mar_21_1034,CategoryLocalizer,2021.2.3,59.9416168652525,
110.0,110.8,1,0.75,Stimuli\ImageFiles-Set2\Objects\Object_Bowl_00001.png,0,0,0,174,174,174,,,,,,,,,,,,,110.02945029999864,0.02945029999864346,None,159.96021110000038,159.96021110000038,159.96021110000038,159.96021110000038,159.96021110000038,159.96021110000038,159.96021110000038,159.96021110000038,,002,P019,2025_Mar_21_1034,CategoryLocalizer,2021.2.3,59.9416168652525,
110.8,111.0,5,0.0,Stimuli\Blank.png,0,0,0,175,175,175,,,,,,,,,,,,,110.82969999999841,0.029699999998413773,None,160.7442441000003,160.7442441000003,160.7442441000003,160.7442441000003,160.7442441000003,160.7442441000003,160.7442441000003,160.7442441000003,,002,P019,2025_Mar_21_1034,CategoryLocalizer,2021.2.3,59.9416168652525,
111.0,111.8,1,0.75,Stimuli\ImageFiles-Set2\Objects\Object_Champagne_00001.png,0,0,0,176,176,176,,,,,,,,,,,,,111.01316619999852,0.013166199998522643,None,160.94448809999994,160.94448809999994,160.94448809999994,160.94448809999994,160.94448809999994,160.94448809999994,160.94448809999994,160.94448809999994,,002,P019,2025_Mar_21_1034,CategoryLocalizer,2021.2.3,59.9416168652525,
111.8,112.0,5,0.0,Stimuli\Blank.png,0,0,0,177,177,177,,,,,,,,,,,,,111.8312877999997,0.03128779999970277,None,161.74517019999985,161.74517019999985,161.74517019999985,161.74517019999985,161.74517019999985,161.74517019999985,161.74517019999985,161.74517019999985,,002,P019,2025_Mar_21_1034,CategoryLocalizer,2021.2.3,59.9416168652525,
112.0,112.8,1,0.75,Stimuli\ImageFiles-Set2\Objects\Object_Bicycle_00001.png,0,0,0,178,178,178,,,,,,,,,,,,,112.01455279999936,0.014552799999364652,None,161.94532450000042,161.94532450000042,161.94532450000042,161.94532450000042,161.94532450000042,161.94532450000042,161.94532450000042,161.94532450000042,,002,P019,2025_Mar_21_1034,CategoryLocalizer,2021.2.3,59.9416168652525,
112.8,113.0,5,0.0,Stimuli\Blank.png,0,0,0,179,179,179,,,,,,,,,,,,,112.83251389999896,0.03251389999896048,None,162.7460202000002,162.7460202000002,162.7460202000002,162.7460202000002,162.7460202000002,162.7460202000002,162.7460202000002,162.7460202000002,,002,P019,2025_Mar_21_1034,CategoryLocalizer,2021.2.3,59.9416168652525,
113.0,113.8,1,0.75,Stimuli\ImageFiles-Set2\Objects\Object_Couch_00001.png,0,0,0,180,180,180,,,,,,,,,,,,,112.99828249999882,-0.001717500001177541,None,162.92952570000125,162.92952570000125,162.92952570000125,162.92952570000125,162.92952570000125,162.92952570000125,162.92952570000125,162.92952570000125,,002,P019,2025_Mar_21_1034,CategoryLocalizer,2021.2.3,59.9416168652525,
113.8,114.0,5,0.0,Stimuli\Blank.png,0,0,0,181,181,181,,,,,,,,,,,,,113.83290119999947,0.03290119999947194,None,163.74689480000052,163.74689480000052,163.74689480000052,163.74689480000052,163.74689480000052,163.74689480000052,163.74689480000052,163.74689480000052,,002,P019,2025_Mar_21_1034,CategoryLocalizer,2021.2.3,59.9416168652525,
114.0,114.8,1,0.75,Stimuli\ImageFiles-Set2\Objects\Object_Walker_00001.png,0,0,0,182,182,182,,,,,,,,,,,,,113.99991269999919,-8.730000081413891e-05,None,163.93047300000035,163.93047300000035,163.93047300000035,163.93047300000035,163.93047300000035,163.93047300000035,163.93047300000035,163.93047300000035,,002,P019,2025_Mar_21_1034,CategoryLocalizer,2021.2.3,59.9416168652525,
114.8,115.0,5,0.0,Stimuli\Blank.png,0,0,0,183,183,183,,,,,,,,,,,,,114.81662579999829,0.01662579999829461,None,164.73110129999986,164.73110129999986,164.73110129999986,164.73110129999986,164.73110129999986,164.73110129999986,164.73110129999986,164.73110129999986,,002,P019,2025_Mar_21_1034,CategoryLocalizer,2021.2.3,59.9416168652525,
115.0,115.8,1,0.75,Stimuli\ImageFiles-Set2\Objects\Object_Dumpster_00001.png,0,0,0,184,184,184,,,,,,,,,,,,,115.00250409999899,0.0025040999989869306,None,164.93128609999985,164.93128609999985,164.93128609999985,164.93128609999985,164.93128609999985,164.93128609999985,164.93128609999985,164.93128609999985,,002,P019,2025_Mar_21_1034,CategoryLocalizer,2021.2.3,59.9416168652525,
115.8,116.0,5,0.0,Stimuli\Blank.png,0,0,0,185,185,185,,,,,,,,,,,,,115.81814269999995,0.01814269999995588,None,165.73198680000132,165.73198680000132,165.73198680000132,165.73198680000132,165.73198680000132,165.73198680000132,165.73198680000132,165.73198680000132,,002,P019,2025_Mar_21_1034,CategoryLocalizer,2021.2.3,59.9416168652525,
116.0,116.8,1,0.75,Stimuli\ImageFiles-Set2\Objects\Object_Wheelchair_00001.png,0,0,0,186,186,186,,,,,,,,,,,,,116.00236219999897,0.002362199998970027,None,165.9322228000001,165.9322228000001,165.9322228000001,165.9322228000001,165.9322228000001,165.9322228000001,165.9322228000001,165.9322228000001,,002,P019,2025_Mar_21_1034,CategoryLocalizer,2021.2.3,59.9416168652525,
116.8,117.0,5,0.0,Stimuli\Blank.png,0,0,0,187,187,187,,,,,,,,,,,,,116.81833749999896,0.018337499998963835,None,166.73286569999982,166.73286569999982,166.73286569999982,166.73286569999982,166.73286569999982,166.73286569999982,166.73286569999982,166.73286569999982,,002,P019,2025_Mar_21_1034,CategoryLocalizer,2021.2.3,59.9416168652525,
117.0,117.8,1,0.75,Stimuli\ImageFiles-Set2\Objects\Object_Scissors_00001.png,0,0,0,188,188,188,,,,,,,,,,,,,117.00200649999897,0.0020064999989699572,None,166.91635610000048,166.91635610000048,166.91635610000048,166.91635610000048,166.91635610000048,166.91635610000048,166.91635610000048,166.91635610000048,,002,P019,2025_Mar_21_1034,CategoryLocalizer,2021.2.3,59.9416168652525,
117.8,118.0,5,0.0,Stimuli\Blank.png,0,0,0,189,189,189,,,,,,,,,,,,,117.80309289999968,0.003092899999685983,None,167.71707090000018,167.71707090000018,167.71707090000018,167.71707090000018,167.71707090000018,167.71707090000018,167.71707090000018,167.71707090000018,,002,P019,2025_Mar_21_1034,CategoryLocalizer,2021.2.3,59.9416168652525,
118.0,118.8,1,0.75,Stimuli\ImageFiles-Set2\Objects\Object_Scissors_00001.png,1,1,0,190,190,190,,,,,,,,,,,,,118.00345639999978,0.0034563999997772044,1,167.91723679999996,167.91723679999996,167.91723679999996,167.91723679999996,167.91723679999996,167.91723679999996,167.91723679999996,167.91723679999996,0.5826415999999881,002,P019,2025_Mar_21_1034,CategoryLocalizer,2021.2.3,59.9416168652525,
118.8,119.0,5,0.0,Stimuli\Blank.png,0,0,0,191,191,191,,,,,,,,,,,,,118.80417279999892,0.00417279999892628,None,168.71795620000012,168.71795620000012,168.71795620000012,168.71795620000012,168.71795620000012,168.71795620000012,168.71795620000012,168.71795620000012,,002,P019,2025_Mar_21_1034,CategoryLocalizer,2021.2.3,59.9416168652525,
119.0,119.8,1,0.75,Stimuli\ImageFiles-Set2\Objects\Object_Shelves_00001.png,0,0,0,192,192,192,,,,,,,,,,,,,119.00378939999973,0.003789399999732268,None,168.93484870000066,168.93484870000066,168.93484870000066,168.93484870000066,168.93484870000066,168.93484870000066,168.93484870000066,168.93484870000066,,002,P019,2025_Mar_21_1034,CategoryLocalizer,2021.2.3,59.9416168652525,
119.8,120.0,5,0.0,Stimuli\Blank.png,0,0,0,193,193,193,,,,,,,,,,,,,119.8222539999988,0.022253999998795848,None,169.73553290000018,169.73553290000018,169.73553290000018,169.73553290000018,169.73553290000018,169.73553290000018,169.73553290000018,169.73553290000018,,002,P019,2025_Mar_21_1034,CategoryLocalizer,2021.2.3,59.9416168652525,
120.0,120.8,4,0.75,Stimuli\ImageFiles-Set2\Scenes\Scenes_103.png,0,0,0,194,194,194,,,,,,,,,,,,,120.00461409999843,0.00461409999843454,None,169.9523764000005,169.9523764000005,169.9523764000005,169.9523764000005,169.9523764000005,169.9523764000005,169.9523764000005,169.9523764000005,,002,P019,2025_Mar_21_1034,CategoryLocalizer,2021.2.3,59.9416168652525,
120.8,121.0,5,0.0,Stimuli\Blank.png,0,0,0,195,195,195,,,,,,,,,,,,,120.83880359999966,0.038803599999667426,None,170.75307560000147,170.75307560000147,170.75307560000147,170.75307560000147,170.75307560000147,170.75307560000147,170.75307560000147,170.75307560000147,,002,P019,2025_Mar_21_1034,CategoryLocalizer,2021.2.3,59.9416168652525,
121.0,121.8,4,0.75,Stimuli\ImageFiles-Set2\Scenes\Scenes_103.png,1,1,0,196,196,196,,,,,,,,,,,,,121.0066270999996,0.0066270999996049795,1,170.93657789999997,170.93657789999997,170.93657789999997,170.93657789999997,170.93657789999997,170.93657789999997,170.93657789999997,170.93657789999997,0.5195423000004666,002,P019,2025_Mar_21_1034,CategoryLocalizer,2021.2.3,59.9416168652525,
121.8,122.0,5,0.0,Stimuli\Blank.png,0,0,0,197,197,197,,,,,,,,,,,,,121.8230894999997,0.023089499999699115,None,171.73728230000052,171.73728230000052,171.73728230000052,171.73728230000052,171.73728230000052,171.73728230000052,171.73728230000052,171.73728230000052,,002,P019,2025_Mar_21_1034,CategoryLocalizer,2021.2.3,59.9416168652525,
122.0,122.8,4,0.75,Stimuli\ImageFiles-Set2\Scenes\Scenes_095.png,0,0,0,198,198,198,,,,,,,,,,,,,122.00683959999878,0.0068395999987842515,None,171.93745620000118,171.93745620000118,171.93745620000118,171.93745620000118,171.93745620000118,171.93745620000118,171.93745620000118,171.93745620000118,,002,P019,2025_Mar_21_1034,CategoryLocalizer,2021.2.3,59.9416168652525,
122.8,123.0,5,0.0,Stimuli\Blank.png,0,0,0,199,199,199,,,,,,,,,,,,,122.82379749999927,0.02379749999927583,None,172.73817140000028,172.73817140000028,172.73817140000028,172.73817140000028,172.73817140000028,172.73817140000028,172.73817140000028,172.73817140000028,,002,P019,2025_Mar_21_1034,CategoryLocalizer,2021.2.3,59.9416168652525,
123.0,123.8,4,0.75,Stimuli\ImageFiles-Set2\Scenes\Scenes_068.png,0,0,0,200,200,200,,,,,,,,,,,,,123.00772969999889,0.007729699998890283,None,172.95504530000107,172.95504530000107,172.95504530000107,172.95504530000107,172.95504530000107,172.95504530000107,172.95504530000107,172.95504530000107,,002,P019,2025_Mar_21_1034,CategoryLocalizer,2021.2.3,59.9416168652525,
123.8,124.0,5,0.0,Stimuli\Blank.png,0,0,0,201,201,201,,,,,,,,,,,,,123.84209869999904,0.0420986999990447,None,173.7557439000011,173.7557439000011,173.7557439000011,173.7557439000011,173.7557439000011,173.7557439000011,173.7557439000011,173.7557439000011,,002,P019,2025_Mar_21_1034,CategoryLocalizer,2021.2.3,59.9416168652525,
124.0,124.8,4,0.75,Stimuli\ImageFiles-Set2\Scenes\Scenes_078.png,0,0,0,202,202,202,,,,,,,,,,,,,124.00812119999864,0.008121199998640805,None,173.9559093000007,173.9559093000007,173.9559093000007,173.9559093000007,173.9559093000007,173.9559093000007,173.9559093000007,173.9559093000007,,002,P019,2025_Mar_21_1034,CategoryLocalizer,2021.2.3,59.9416168652525,
124.8,125.0,5,0.0,Stimuli\Blank.png,0,0,0,203,203,203,,,,,,,,,,,,,124.84268039999915,0.04268039999915629,None,174.7566222000005,174.7566222000005,174.7566222000005,174.7566222000005,174.7566222000005,174.7566222000005,174.7566222000005,174.7566222000005,,002,P019,2025_Mar_21_1034,CategoryLocalizer,2021.2.3,59.9416168652525,
125.0,125.8,4,0.75,Stimuli\ImageFiles-Set2\Scenes\Scenes_072.png,0,0,0,204,204,204,,,,,,,,,,,,,125.00974659999883,0.009746599998834427,None,174.9401209000007,174.9401209000007,174.9401209000007,174.9401209000007,174.9401209000007,174.9401209000007,174.9401209000007,174.9401209000007,,002,P019,2025_Mar_21_1034,CategoryLocalizer,2021.2.3,59.9416168652525,
125.8,126.0,5,0.0,Stimuli\Blank.png,0,0,0,205,205,205,,,,,,,,,,,,,125.82690699999876,0.026906999998757897,None,175.7408231999998,175.7408231999998,175.7408231999998,175.7408231999998,175.7408231999998,175.7408231999998,175.7408231999998,175.7408231999998,,002,P019,2025_Mar_21_1034,CategoryLocalizer,2021.2.3,59.9416168652525,
126.0,126.8,4,0.75,Stimuli\ImageFiles-Set2\Scenes\Scenes_090.png,0,0,0,206,206,206,,,,,,,,,,,,,126.00985839999885,0.009858399998847744,None,175.95767720000003,175.95767720000003,175.95767720000003,175.95767720000003,175.95767720000003,175.95767720000003,175.95767720000003,175.95767720000003,,002,P019,2025_Mar_21_1034,CategoryLocalizer,2021.2.3,59.9416168652525,
126.8,127.0,5,0.0,Stimuli\Blank.png,0,0,0,207,207,207,,,,,,,,,,,,,126.8439701999996,0.04397019999960605,None,176.75840190000054,176.75840190000054,176.75840190000054,176.75840190000054,176.75840190000054,176.75840190000054,176.75840190000054,176.75840190000054,,002,P019,2025_Mar_21_1034,CategoryLocalizer,2021.2.3,59.9416168652525,
127.0,127.8,4,0.75,Stimuli\ImageFiles-Set2\Scenes\Scenes_083.png,0,0,0,208,208,208,,,,,,,,,,,,,127.01186769999913,0.0118676999991294,None,176.9585635000003,176.9585635000003,176.9585635000003,176.9585635000003,176.9585635000003,176.9585635000003,176.9585635000003,176.9585635000003,,002,P019,2025_Mar_21_1034,CategoryLocalizer,2021.2.3,59.9416168652525,
127.8,128.0,5,0.0,Stimuli\Blank.png,0,0,0,209,209,209,,,,,,,,,,,,,127.84474119999868,0.044741199998682646,None,177.7592706000014,177.7592706000014,177.7592706000014,177.7592706000014,177.7592706000014,177.7592706000014,177.7592706000014,177.7592706000014,,002,P019,2025_Mar_21_1034,CategoryLocalizer,2021.2.3,59.9416168652525,
128.0,128.8,4,0.75,Stimuli\ImageFiles-Set2\Scenes\Scenes_080.png,0,0,0,210,210,210,,,,,,,,,,,,,128.01179049999882,0.011790499998824089,None,177.94276979999995,177.94276979999995,177.94276979999995,177.94276979999995,177.94276979999995,177.94276979999995,177.94276979999995,177.94276979999995,,002,P019,2025_Mar_21_1034,CategoryLocalizer,2021.2.3,59.9416168652525,
128.8,129.0,5,0.0,Stimuli\Blank.png,0,0,0,211,211,211,,,,,,,,,,,,,128.8290681999988,0.029068199998789623,None,178.7434763000001,178.7434763000001,178.7434763000001,178.7434763000001,178.7434763000001,178.7434763000001,178.7434763000001,178.7434763000001,,002,P019,2025_Mar_21_1034,CategoryLocalizer,2021.2.3,59.9416168652525,
129.0,129.8,4,0.75,Stimuli\ImageFiles-Set2\Scenes\Scenes_106.png,1,1,0,212,212,212,,,,,,,,,,,,,129.01316379999844,0.013163799998437753,None,178.94365460000154,178.94365460000154,178.94365460000154,178.94365460000154,178.94365460000154,178.94365460000154,178.94365460000154,178.94365460000154,,002,P019,2025_Mar_21_1034,CategoryLocalizer,2021.2.3,59.9416168652525,
129.8,130.0,5,0.0,Stimuli\Blank.png,0,0,0,213,213,213,,,,,,,,,,,,,129.83255709999867,0.0325570999986553,None,179.7610431000012,179.7610431000012,179.7610431000012,179.7610431000012,179.7610431000012,179.7610431000012,179.7610431000012,179.7610431000012,,002,P019,2025_Mar_21_1034,CategoryLocalizer,2021.2.3,59.9416168652525,
130.0,130.8,4,0.75,Stimuli\ImageFiles-Set2\Scenes\Scenes_066.png,0,0,0,214,214,214,,,,,,,,,,,,,130.01448019999953,0.014480199999525212,None,179.96122840000135,179.96122840000135,179.96122840000135,179.96122840000135,179.96122840000135,179.96122840000135,179.96122840000135,179.96122840000135,,002,P019,2025_Mar_21_1034,CategoryLocalizer,2021.2.3,59.9416168652525,
130.8,131.0,5,0.0,Stimuli\Blank.png,0,0,0,215,215,215,,,,,,,,,,,,,130.84816299999875,0.04816299999873763,None,180.7619360000008,180.7619360000008,180.7619360000008,180.7619360000008,180.7619360000008,180.7619360000008,180.7619360000008,180.7619360000008,,002,P019,2025_Mar_21_1034,CategoryLocalizer,2021.2.3,59.9416168652525,
131.0,131.8,4,0.75,Stimuli\ImageFiles-Set2\Scenes\Scenes_066.png,0,0,0,216,216,216,,,,,,,,,,,,,131.0143580999993,0.014358099999299156,1,180.92873280000094,180.92873280000094,180.92873280000094,180.92873280000094,180.92873280000094,180.92873280000094,180.92873280000094,180.92873280000094,0.3980888000005507,002,P019,2025_Mar_21_1034,CategoryLocalizer,2021.2.3,59.9416168652525,
131.8,132.0,5,0.0,Stimuli\Blank.png,0,0,0,217,217,217,,,,,,,,,,,,,131.81489269999838,0.014892699998370063,None,181.72946580000098,181.72946580000098,181.72946580000098,181.72946580000098,181.72946580000098,181.72946580000098,181.72946580000098,181.72946580000098,,002,P019,2025_Mar_21_1034,CategoryLocalizer,2021.2.3,59.9416168652525,
132.0,132.8,4,0.75,Stimuli\ImageFiles-Set2\Scenes\Scenes_071.png,0,0,0,218,218,218,,,,,,,,,,,,,132.0151795999991,0.015179599999100901,None,181.9463082000002,181.9463082000002,181.9463082000002,181.9463082000002,181.9463082000002,181.9463082000002,181.9463082000002,181.9463082000002,,002,P019,2025_Mar_21_1034,CategoryLocalizer,2021.2.3,59.9416168652525,
132.8,133.0,5,0.0,Stimuli\Blank.png,0,0,0,219,219,219,,,,,,,,,,,,,132.81570229999852,0.015702299998508806,None,182.7303294000012,182.7303294000012,182.7303294000012,182.7303294000012,182.7303294000012,182.7303294000012,182.7303294000012,182.7303294000012,,002,P019,2025_Mar_21_1034,CategoryLocalizer,2021.2.3,59.9416168652525,
133.0,133.8,4,0.75,Stimuli\ImageFiles-Set2\Scenes\Scenes_098.png,0,0,0,220,220,220,,,,,,,,,,,,,133.00006589999975,6.589999975403771e-05,None,182.9305183000015,182.9305183000015,182.9305183000015,182.9305183000015,182.9305183000015,182.9305183000015,182.9305183000015,182.9305183000015,,002,P019,2025_Mar_21_1034,CategoryLocalizer,2021.2.3,59.9416168652525,
133.8,134.0,5,0.0,Stimuli\Blank.png,0,0,0,221,221,221,,,,,,,,,,,,,133.81671639999877,0.016716399998756515,None,183.73126370000136,183.73126370000136,183.73126370000136,183.73126370000136,183.73126370000136,183.73126370000136,183.73126370000136,183.73126370000136,,002,P019,2025_Mar_21_1034,CategoryLocalizer,2021.2.3,59.9416168652525,
134.0,134.8,4,0.75,Stimuli\ImageFiles-Set2\Scenes\Scenes_084.png,0,0,0,222,222,222,,,,,,,,,,,,,134.00025519999872,0.00025519999871903565,None,183.948085,183.948085,183.948085,183.948085,183.948085,183.948085,183.948085,183.948085,,002,P019,2025_Mar_21_1034,CategoryLocalizer,2021.2.3,59.9416168652525,
134.8,135.0,5,0.0,Stimuli\Blank.png,0,0,0,223,223,223,,,,,,,,,,,,,134.8350492999998,0.03504929999979822,None,184.748867100001,184.748867100001,184.748867100001,184.748867100001,184.748867100001,184.748867100001,184.748867100001,184.748867100001,,002,P019,2025_Mar_21_1034,CategoryLocalizer,2021.2.3,59.9416168652525,
135.0,135.8,4,0.75,Stimuli\ImageFiles-Set2\Scenes\Scenes_118.png,0,0,0,224,224,224,,,,,,,,,,,,,135.00174619999962,0.0017461999996157829,None,184.94895970000107,184.94895970000107,184.94895970000107,184.94895970000107,184.94895970000107,184.94895970000107,184.94895970000107,184.94895970000107,,002,P019,2025_Mar_21_1034,CategoryLocalizer,2021.2.3,59.9416168652525,
135.8,136.0,5,0.0,Stimuli\Blank.png,0,0,0,225,225,225,,,,,,,,,,,,,135.8375718999996,0.037571899999591096,None,185.766313600001,185.766313600001,185.766313600001,185.766313600001,185.766313600001,185.766313600001,185.766313600001,185.766313600001,,002,P019,2025_Mar_21_1034,CategoryLocalizer,2021.2.3,59.9416168652525,
136.0,136.8,2,0.75,Stimuli\ImageFiles-Set2\Bodies\Bodies_Running_00003.png,0,0,0,226,226,226,,,,,,,,,,,,,136.0186546999994,0.018654699999387958,None,185.94986849999987,185.94986849999987,185.94986849999987,185.94986849999987,185.94986849999987,185.94986849999987,185.94986849999987,185.94986849999987,,002,P019,2025_Mar_21_1034,CategoryLocalizer,2021.2.3,59.9416168652525,
136.8,137.0,5,0.0,Stimuli\Blank.png,0,0,0,227,227,227,,,,,,,,,,,,,136.8199799999984,0.019979999998383846,None,186.7338679000004,186.7338679000004,186.7338679000004,186.7338679000004,186.7338679000004,186.7338679000004,186.7338679000004,186.7338679000004,,002,P019,2025_Mar_21_1034,CategoryLocalizer,2021.2.3,59.9416168652525,
137.0,137.8,2,0.75,Stimuli\ImageFiles-Set2\Bodies\Bodies_Running_00007.png,0,0,0,228,228,228,,,,,,,,,,,,,137.00297219999993,0.0029721999999310356,None,186.91736860000128,186.91736860000128,186.91736860000128,186.91736860000128,186.91736860000128,186.91736860000128,186.91736860000128,186.91736860000128,,002,P019,2025_Mar_21_1034,CategoryLocalizer,2021.2.3,59.9416168652525,
137.8,138.0,5,0.0,Stimuli\Blank.png,0,0,0,229,229,229,,,,,,,,,,,,,137.8035461999989,0.003546199998879729,None,187.71806629999992,187.71806629999992,187.71806629999992,187.71806629999992,187.71806629999992,187.71806629999992,187.71806629999992,187.71806629999992,,002,P019,2025_Mar_21_1034,CategoryLocalizer,2021.2.3,59.9416168652525,
138.0,138.8,2,0.75,Stimuli\ImageFiles-Set2\Bodies\Bodies_SittingStretch_00003.png,0,0,0,230,230,230,,,,,,,,,,,,,138.00458079999953,0.004580799999530427,None,187.93556350000108,187.93556350000108,187.93556350000108,187.93556350000108,187.93556350000108,187.93556350000108,187.93556350000108,187.93556350000108,,002,P019,2025_Mar_21_1034,CategoryLocalizer,2021.2.3,59.9416168652525,
138.8,139.0,5,0.0,Stimuli\Blank.png,0,0,0,231,231,231,,,,,,,,,,,,,138.82201179999902,0.022011799999006598,None,188.73562990000028,188.73562990000028,188.73562990000028,188.73562990000028,188.73562990000028,188.73562990000028,188.73562990000028,188.73562990000028,,002,P019,2025_Mar_21_1034,CategoryLocalizer,2021.2.3,59.9416168652525,
139.0,139.8,2,0.75,Stimuli\ImageFiles-Set2\Bodies\Bodies_Kicking_00004.png,0,0,0,232,232,232,,,,,,,,,,,,,139.00458629999957,0.004586299999573384,None,188.93585590000112,188.93585590000112,188.93585590000112,188.93585590000112,188.93585590000112,188.93585590000112,188.93585590000112,188.93585590000112,,002,P019,2025_Mar_21_1034,CategoryLocalizer,2021.2.3,59.9416168652525,
139.8,140.0,5,0.0,Stimuli\Blank.png,0,0,0,233,233,233,,,,,,,,,,,,,139.82315629999903,0.023156299999016028,None,189.73652760000004,189.73652760000004,189.73652760000004,189.73652760000004,189.73652760000004,189.73652760000004,189.73652760000004,189.73652760000004,,002,P019,2025_Mar_21_1034,CategoryLocalizer,2021.2.3,59.9416168652525,
140.0,140.8,2,0.75,Stimuli\ImageFiles-Set2\Bodies\Bodies_SittingChair_00006.png,0,0,0,234,234,234,,,,,,,,,,,,,140.00611059999937,0.006110599999374244,None,189.9200079000002,189.9200079000002,189.9200079000002,189.9200079000002,189.9200079000002,189.9200079000002,189.9200079000002,189.9200079000002,,002,P019,2025_Mar_21_1034,CategoryLocalizer,2021.2.3,59.9416168652525,
140.8,141.0,5,0.0,Stimuli\Blank.png,0,0,0,235,235,235,,,,,,,,,,,,,140.8068308999991,0.006830899999101803,None,190.72072450000087,190.72072450000087,190.72072450000087,190.72072450000087,190.72072450000087,190.72072450000087,190.72072450000087,190.72072450000087,,002,P019,2025_Mar_21_1034,CategoryLocalizer,2021.2.3,59.9416168652525,
141.0,141.8,2,0.75,Stimuli\ImageFiles-Set2\Bodies\Bodies_Crawling_00007.png,0,0,0,236,236,236,,,,,,,,,,,,,141.0077657999991,0.007765799999106093,None,190.93771610000113,190.93771610000113,190.93771610000113,190.93771610000113,190.93771610000113,190.93771610000113,190.93771610000113,190.93771610000113,,002,P019,2025_Mar_21_1034,CategoryLocalizer,2021.2.3,59.9416168652525,
141.8,142.0,5,0.0,Stimuli\Blank.png,0,0,0,237,237,237,,,,,,,,,,,,,141.82387859999835,0.023878599998340633,None,191.73828690000119,191.73828690000119,191.73828690000119,191.73828690000119,191.73828690000119,191.73828690000119,191.73828690000119,191.73828690000119,,002,P019,2025_Mar_21_1034,CategoryLocalizer,2021.2.3,59.9416168652525,
142.0,142.8,2,0.75,Stimuli\ImageFiles-Set2\Bodies\Bodies_Crawling_00007.png,1,1,0,238,238,238,,,,,,,,,,,,,142.0072797999983,0.007279799998286762,1,191.9217879000007,191.9217879000007,191.9217879000007,191.9217879000007,191.9217879000007,191.9217879000007,191.9217879000007,191.9217879000007,0.4920895000013843,002,P019,2025_Mar_21_1034,CategoryLocalizer,2021.2.3,59.9416168652525,
142.8,143.0,5,0.0,Stimuli\Blank.png,0,0,0,239,239,239,,,,,,,,,,,,,142.8082214999995,0.008221499999478965,None,192.72246040000027,192.72246040000027,192.72246040000027,192.72246040000027,192.72246040000027,192.72246040000027,192.72246040000027,192.72246040000027,,002,P019,2025_Mar_21_1034,CategoryLocalizer,2021.2.3,59.9416168652525,
143.0,143.8,2,0.75,Stimuli\ImageFiles-Set2\Bodies\Bodies_Kneeling_00006.png,0,0,0,240,240,240,,,,,,,,,,,,,143.0081644999991,0.008164499999111285,None,192.9560534000011,192.9560534000011,192.9560534000011,192.9560534000011,192.9560534000011,192.9560534000011,192.9560534000011,192.9560534000011,,002,P019,2025_Mar_21_1034,CategoryLocalizer,2021.2.3,59.9416168652525,
143.8,144.0,5,0.0,Stimuli\Blank.png,0,0,0,241,241,241,,,,,,,,,,,,,143.84329389999948,0.04329389999946898,None,193.75674350000008,193.75674350000008,193.75674350000008,193.75674350000008,193.75674350000008,193.75674350000008,193.75674350000008,193.75674350000008,,002,P019,2025_Mar_21_1034,CategoryLocalizer,2021.2.3,59.9416168652525,
144.0,144.8,2,0.75,Stimuli\ImageFiles-Set2\Bodies\Bodies_Standing_00002.png,0,0,0,242,242,242,,,,,,,,,,,,,144.00938349999888,0.009383499998875777,None,193.9402356999999,193.9402356999999,193.9402356999999,193.9402356999999,193.9402356999999,193.9402356999999,193.9402356999999,193.9402356999999,,002,P019,2025_Mar_21_1034,CategoryLocalizer,2021.2.3,59.9416168652525,
144.8,145.0,5,0.0,Stimuli\Blank.png,0,0,0,243,243,243,,,,,,,,,,,,,144.82714639999904,0.027146399999026016,None,194.74095390000002,194.74095390000002,194.74095390000002,194.74095390000002,194.74095390000002,194.74095390000002,194.74095390000002,194.74095390000002,,002,P019,2025_Mar_21_1034,CategoryLocalizer,2021.2.3,59.9416168652525,
145.0,145.8,2,0.75,Stimuli\ImageFiles-Set2\Bodies\Bodies_Running_00004.png,1,1,0,244,244,244,,,,,,,,,,,,,145.0124935999993,0.012493599999288563,None,194.94114750000153,194.94114750000153,194.94114750000153,194.94114750000153,194.94114750000153,194.94114750000153,194.94114750000153,194.94114750000153,,002,P019,2025_Mar_21_1034,CategoryLocalizer,2021.2.3,59.9416168652525,
145.8,146.0,5,0.0,Stimuli\Blank.png,0,0,0,245,245,245,,,,,,,,,,,,,145.8284449999992,0.02844499999918071,None,195.74183950000042,195.74183950000042,195.74183950000042,195.74183950000042,195.74183950000042,195.74183950000042,195.74183950000042,195.74183950000042,,002,P019,2025_Mar_21_1034,CategoryLocalizer,2021.2.3,59.9416168652525,
146.0,146.8,2,0.75,Stimuli\ImageFiles-Set2\Bodies\Bodies_Running_00005.png,0,0,0,246,246,246,,,,,,,,,,,,,146.01146779999908,0.011467799999081763,None,195.94200749999982,195.94200749999982,195.94200749999982,195.94200749999982,195.94200749999982,195.94200749999982,195.94200749999982,195.94200749999982,,002,P019,2025_Mar_21_1034,CategoryLocalizer,2021.2.3,59.9416168652525,
146.8,147.0,5,0.0,Stimuli\Blank.png,0,0,0,247,247,247,,,,,,,,,,,,,146.82854169999882,0.02854169999881151,None,196.74271709999994,196.74271709999994,196.74271709999994,196.74271709999994,196.74271709999994,196.74271709999994,196.74271709999994,196.74271709999994,,002,P019,2025_Mar_21_1034,CategoryLocalizer,2021.2.3,59.9416168652525,
147.0,147.8,2,0.75,Stimuli\ImageFiles-Set2\Bodies\Bodies_Running_00005.png,0,0,0,248,248,248,,,,,,,,,,,,,147.0130324999991,0.013032499999098945,1,196.9429110000001,196.9429110000001,196.9429110000001,196.9429110000001,196.9429110000001,196.9429110000001,196.9429110000001,196.9429110000001,0.4269303000000946,002,P019,2025_Mar_21_1034,CategoryLocalizer,2021.2.3,59.9416168652525,
147.8,148.0,5,0.0,Stimuli\Blank.png,0,0,0,249,249,249,,,,,,,,,,,,,147.83013279999977,0.030132799999762483,None,197.74359170000025,197.74359170000025,197.74359170000025,197.74359170000025,197.74359170000025,197.74359170000025,197.74359170000025,197.74359170000025,,002,P019,2025_Mar_21_1034,CategoryLocalizer,2021.2.3,59.9416168652525,
148.0,148.8,2,0.75,Stimuli\ImageFiles-Set2\Bodies\Bodies_Pushing_00002.png,0,0,0,250,250,250,,,,,,,,,,,,,148.01338059999944,0.013380599999436527,None,197.94381270000122,197.94381270000122,197.94381270000122,197.94381270000122,197.94381270000122,197.94381270000122,197.94381270000122,197.94381270000122,,002,P019,2025_Mar_21_1034,CategoryLocalizer,2021.2.3,59.9416168652525,
148.8,149.0,5,0.0,Stimuli\Blank.png,0,0,0,251,251,251,,,,,,,,,,,,,148.82993019999958,0.02993019999956914,None,198.74450090000028,198.74450090000028,198.74450090000028,198.74450090000028,198.74450090000028,198.74450090000028,198.74450090000028,198.74450090000028,,002,P019,2025_Mar_21_1034,CategoryLocalizer,2021.2.3,59.9416168652525,
149.0,149.8,2,0.75,Stimuli\ImageFiles-Set2\Bodies\Bodies_Hanging_00005.png,0,0,0,252,252,252,,,,,,,,,,,,,149.01373179999973,0.013731799999732175,None,198.9279776000003,198.9279776000003,198.9279776000003,198.9279776000003,198.9279776000003,198.9279776000003,198.9279776000003,198.9279776000003,,002,P019,2025_Mar_21_1034,CategoryLocalizer,2021.2.3,59.9416168652525,
149.8,150.0,5,0.0,Stimuli\Blank.png,0,0,0,253,253,253,,,,,,,,,,,,,149.81417049999982,0.014170499999806907,None,199.72868030000063,199.72868030000063,199.72868030000063,199.72868030000063,199.72868030000063,199.72868030000063,199.72868030000063,199.72868030000063,,002,P019,2025_Mar_21_1034,CategoryLocalizer,2021.2.3,59.9416168652525,
150.0,150.8,2,0.75,Stimuli\ImageFiles-Set2\Bodies\Bodies_QuadStretch_00006.png,0,0,0,254,254,254,,,,,,,,,,,,,150.01438719999896,0.014387199998964206,None,199.94561330000033,199.94561330000033,199.94561330000033,199.94561330000033,199.94561330000033,199.94561330000033,199.94561330000033,199.94561330000033,,002,P019,2025_Mar_21_1034,CategoryLocalizer,2021.2.3,59.9416168652525,
150.8,151.0,5,0.0,Stimuli\Blank.png,0,0,0,255,255,255,,,,,,,,,,,,,150.83174959999997,0.03174959999995508,None,200.74625480000032,200.74625480000032,200.74625480000032,200.74625480000032,200.74625480000032,200.74625480000032,200.74625480000032,200.74625480000032,,002,P019,2025_Mar_21_1034,CategoryLocalizer,2021.2.3,59.9416168652525,
151.0,151.8,2,0.75,Stimuli\ImageFiles-Set2\Bodies\Bodies_Falling_00003.png,0,0,0,256,256,256,,,,,,,,,,,,,151.01710849999836,0.01710849999835773,None,200.94644870000047,200.94644870000047,200.94644870000047,200.94644870000047,200.94644870000047,200.94644870000047,200.94644870000047,200.94644870000047,,002,P019,2025_Mar_21_1034,CategoryLocalizer,2021.2.3,59.9416168652525,
151.8,152.0,5,0.0,Stimuli\Blank.png,0,0,0,257,257,257,,,,,,,,,,,,,151.8178732999986,0.017873299998598213,None,201.74711519999983,201.74711519999983,201.74711519999983,201.74711519999983,201.74711519999983,201.74711519999983,201.74711519999983,201.74711519999983,,002,P019,2025_Mar_21_1034,CategoryLocalizer,2021.2.3,59.9416168652525,
152.0,164.0,0,0.0,Stimuli\Blank.png,0,0,0,258,258,258,,,,,,,,,,,,,152.01767929999914,0.01767929999914486,None,201.93062559999998,201.93062559999998,201.93062559999998,201.93062559999998,201.93062559999998,201.93062559999998,201.93062559999998,201.93062559999998,,002,P019,2025_Mar_21_1034,CategoryLocalizer,2021.2.3,59.9416168652525,
164.0,164.8,4,0.75,Stimuli\ImageFiles-Set2\Scenes\Scenes_096.png,0,0,0,259,259,259,,,,,,,,,,,,,164.01065339999877,0.010653399998773239,None,213.95806170000105,213.95806170000105,213.95806170000105,213.95806170000105,213.95806170000105,213.95806170000105,213.95806170000105,213.95806170000105,,002,P019,2025_Mar_21_1034,CategoryLocalizer,2021.2.3,59.9416168652525,
164.8,165.0,5,0.0,Stimuli\Blank.png,0,0,0,260,260,260,,,,,,,,,,,,,164.8447213999989,0.04472139999887759,None,214.75862659999984,214.75862659999984,214.75862659999984,214.75862659999984,214.75862659999984,214.75862659999984,214.75862659999984,214.75862659999984,,002,P019,2025_Mar_21_1034,CategoryLocalizer,2021.2.3,59.9416168652525,
165.0,165.8,4,0.75,Stimuli\ImageFiles-Set2\Scenes\Scenes_096.png,1,1,0,261,261,261,,,,,,,,,,,,,165.01116049999837,0.011160499998368323,1,214.92544199999975,214.92544199999975,214.92544199999975,214.92544199999975,214.92544199999975,214.92544199999975,214.92544199999975,214.92544199999975,0.4757518999995227,002,P019,2025_Mar_21_1034,CategoryLocalizer,2021.2.3,59.9416168652525,
165.8,166.0,5,0.0,Stimuli\Blank.png,0,0,0,262,262,262,,,,,,,,,,,,,165.8125031999989,0.012503199998889158,None,215.7261907000011,215.7261907000011,215.7261907000011,215.7261907000011,215.7261907000011,215.7261907000011,215.7261907000011,215.7261907000011,,002,P019,2025_Mar_21_1034,CategoryLocalizer,2021.2.3,59.9416168652525,
166.0,166.8,4,0.75,Stimuli\ImageFiles-Set2\Scenes\Scenes_119.png,0,0,0,263,263,263,,,,,,,,,,,,,166.0134554999986,0.013455499998599407,None,215.9430056000001,215.9430056000001,215.9430056000001,215.9430056000001,215.9430056000001,215.9430056000001,215.9430056000001,215.9430056000001,,002,P019,2025_Mar_21_1034,CategoryLocalizer,2021.2.3,59.9416168652525,
166.8,167.0,5,0.0,Stimuli\Blank.png,0,0,0,264,264,264,,,,,,,,,,,,,166.8291866999989,0.029186699998888344,None,216.74371340000107,216.74371340000107,216.74371340000107,216.74371340000107,216.74371340000107,216.74371340000107,216.74371340000107,216.74371340000107,,002,P019,2025_Mar_21_1034,CategoryLocalizer,2021.2.3,59.9416168652525,
167.0,167.8,4,0.75,Stimuli\ImageFiles-Set2\Scenes\Scenes_100.png,0,0,0,265,265,265,,,,,,,,,,,,,167.0147249999991,0.01472499999908905,None,216.9605683000009,216.9605683000009,216.9605683000009,216.9605683000009,216.9605683000009,216.9605683000009,216.9605683000009,216.9605683000009,,002,P019,2025_Mar_21_1034,CategoryLocalizer,2021.2.3,59.9416168652525,
167.8,168.0,5,0.0,Stimuli\Blank.png,0,0,0,266,266,266,,,,,,,,,,,,,167.84740339999917,0.04740339999915477,None,217.76128250000147,217.76128250000147,217.76128250000147,217.76128250000147,217.76128250000147,217.76128250000147,217.76128250000147,217.76128250000147,,002,P019,2025_Mar_21_1034,CategoryLocalizer,2021.2.3,59.9416168652525,
168.0,168.8,4,0.75,Stimuli\ImageFiles-Set2\Scenes\Scenes_112.png,0,0,0,267,267,267,,,,,,,,,,,,,168.01380899999822,0.013808999998218496,None,217.94478040000104,217.94478040000104,217.94478040000104,217.94478040000104,217.94478040000104,217.94478040000104,217.94478040000104,217.94478040000104,,002,P019,2025_Mar_21_1034,CategoryLocalizer,2021.2.3,59.9416168652525,
168.8,169.0,5,0.0,Stimuli\Blank.png,0,0,0,268,268,268,,,,,,,,,,,,,168.83206569999857,0.032065699998554464,None,218.7454983000007,218.7454983000007,218.7454983000007,218.7454983000007,218.7454983000007,218.7454983000007,218.7454983000007,218.7454983000007,,002,P019,2025_Mar_21_1034,CategoryLocalizer,2021.2.3,59.9416168652525,
169.0,169.8,4,0.75,Stimuli\ImageFiles-Set2\Scenes\Scenes_089.png,0,0,0,269,269,269,,,,,,,,,,,,,169.0170896999989,0.017089699998905417,None,218.9456998000005,218.9456998000005,218.9456998000005,218.9456998000005,218.9456998000005,218.9456998000005,218.9456998000005,218.9456998000005,,002,P019,2025_Mar_21_1034,CategoryLocalizer,2021.2.3,59.9416168652525,
169.8,170.0,5,0.0,Stimuli\Blank.png,0,0,0,270,270,270,,,,,,,,,,,,,169.81760119999853,0.017601199998523498,None,219.74640830000135,219.74640830000135,219.74640830000135,219.74640830000135,219.74640830000135,219.74640830000135,219.74640830000135,219.74640830000135,,002,P019,2025_Mar_21_1034,CategoryLocalizer,2021.2.3,59.9416168652525,
170.0,170.8,4,0.75,Stimuli\ImageFiles-Set2\Scenes\Scenes_108.png,0,0,0,271,271,271,,,,,,,,,,,,,170.01781489999848,0.01781489999848418,None,219.9632216000009,219.9632216000009,219.9632216000009,219.9632216000009,219.9632216000009,219.9632216000009,219.9632216000009,219.9632216000009,,002,P019,2025_Mar_21_1034,CategoryLocalizer,2021.2.3,59.9416168652525,
170.8,171.0,5,0.0,Stimuli\Blank.png,0,0,0,272,272,272,,,,,,,,,,,,,170.83322959999896,0.033229599998946924,None,220.74725240000043,220.74725240000043,220.74725240000043,220.74725240000043,220.74725240000043,220.74725240000043,220.74725240000043,220.74725240000043,,002,P019,2025_Mar_21_1034,CategoryLocalizer,2021.2.3,59.9416168652525,
171.0,171.8,4,0.75,Stimuli\ImageFiles-Set2\Scenes\Scenes_075.png,0,0,0,273,273,273,,,,,,,,,,,,,171.00079209999967,0.0007920999996713363,None,220.9307542000006,220.9307542000006,220.9307542000006,220.9307542000006,220.9307542000006,220.9307542000006,220.9307542000006,220.9307542000006,,002,P019,2025_Mar_21_1034,CategoryLocalizer,2021.2.3,59.9416168652525,
171.8,172.0,5,0.0,Stimuli\Blank.png,0,0,0,274,274,274,,,,,,,,,,,,,171.81795499999862,0.017954999998607946,None,221.731452,221.731452,221.731452,221.731452,221.731452,221.731452,221.731452,221.731452,,002,P019,2025_Mar_21_1034,CategoryLocalizer,2021.2.3,59.9416168652525,
172.0,172.8,4,0.75,Stimuli\ImageFiles-Set2\Scenes\Scenes_114.png,0,0,0,275,275,275,,,,,,,,,,,,,172.00236259999838,0.0023625999983778456,None,221.94833480000125,221.94833480000125,221.94833480000125,221.94833480000125,221.94833480000125,221.94833480000125,221.94833480000125,221.94833480000125,,002,P019,2025_Mar_21_1034,CategoryLocalizer,2021.2.3,59.9416168652525,
172.8,173.0,5,0.0,Stimuli\Blank.png,0,0,0,276,276,276,,,,,,,,,,,,,172.83518009999898,0.03518009999896776,None,222.74900890000026,222.74900890000026,222.74900890000026,222.74900890000026,222.74900890000026,222.74900890000026,222.74900890000026,222.74900890000026,,002,P019,2025_Mar_21_1034,CategoryLocalizer,2021.2.3,59.9416168652525,
173.0,173.8,4,0.75,Stimuli\ImageFiles-Set2\Scenes\Scenes_081.png,0,0,0,277,277,277,,,,,,,,,,,,,173.0020986999989,0.002098699998896336,None,222.94919579999987,222.94919579999987,222.94919579999987,222.94919579999987,222.94919579999987,222.94919579999987,222.94919579999987,222.94919579999987,,002,P019,2025_Mar_21_1034,CategoryLocalizer,2021.2.3,59.9416168652525,
173.8,174.0,5,0.0,Stimuli\Blank.png,0,0,0,278,278,278,,,,,,,,,,,,,173.83724719999918,0.0372471999991717,None,223.7665861000005,223.7665861000005,223.7665861000005,223.7665861000005,223.7665861000005,223.7665861000005,223.7665861000005,223.7665861000005,,002,P019,2025_Mar_21_1034,CategoryLocalizer,2021.2.3,59.9416168652525,
174.0,174.8,4,0.75,Stimuli\ImageFiles-Set2\Scenes\Scenes_061.png,0,0,0,279,279,279,,,,,,,,,,,,,174.01926509999976,0.019265099999756785,None,223.96677350000027,223.96677350000027,223.96677350000027,223.96677350000027,223.96677350000027,223.96677350000027,223.96677350000027,223.96677350000027,,002,P019,2025_Mar_21_1034,CategoryLocalizer,2021.2.3,59.9416168652525,
174.8,175.0,5,0.0,Stimuli\Blank.png,0,0,0,280,280,280,,,,,,,,,,,,,174.83687909999935,0.03687909999933936,None,224.75078250000115,224.75078250000115,224.75078250000115,224.75078250000115,224.75078250000115,224.75078250000115,224.75078250000115,224.75078250000115,,002,P019,2025_Mar_21_1034,CategoryLocalizer,2021.2.3,59.9416168652525,
175.0,175.8,4,0.75,Stimuli\ImageFiles-Set2\Scenes\Scenes_065.png,0,0,0,281,281,281,,,,,,,,,,,,,175.00397749999865,0.003977499998654821,None,224.93427710000105,224.93427710000105,224.93427710000105,224.93427710000105,224.93427710000105,224.93427710000105,224.93427710000105,224.93427710000105,,002,P019,2025_Mar_21_1034,CategoryLocalizer,2021.2.3,59.9416168652525,
175.8,176.0,5,0.0,Stimuli\Blank.png,0,0,0,282,282,282,,,,,,,,,,,,,175.82270849999986,0.02270849999985103,None,225.75167900000088,225.75167900000088,225.75167900000088,225.75167900000088,225.75167900000088,225.75167900000088,225.75167900000088,225.75167900000088,,002,P019,2025_Mar_21_1034,CategoryLocalizer,2021.2.3,59.9416168652525,
176.0,176.8,4,0.75,Stimuli\ImageFiles-Set2\Scenes\Scenes_076.png,0,0,0,283,283,283,,,,,,,,,,,,,176.02253439999913,0.022534399999130983,None,225.9685231000003,225.9685231000003,225.9685231000003,225.9685231000003,225.9685231000003,225.9685231000003,225.9685231000003,225.9685231000003,,002,P019,2025_Mar_21_1034,CategoryLocalizer,2021.2.3,59.9416168652525,
176.8,177.0,5,0.0,Stimuli\Blank.png,0,0,0,284,284,284,,,,,,,,,,,,,176.83806719999848,0.03806719999846564,None,226.7525480000004,226.7525480000004,226.7525480000004,226.7525480000004,226.7525480000004,226.7525480000004,226.7525480000004,226.7525480000004,,002,P019,2025_Mar_21_1034,CategoryLocalizer,2021.2.3,59.9416168652525,
177.0,177.8,4,0.75,Stimuli\ImageFiles-Set2\Scenes\Scenes_104.png,1,1,0,285,285,285,,,,,,,,,,,,,177.00587879999875,0.005878799998754403,None,226.9360482000011,226.9360482000011,226.9360482000011,226.9360482000011,226.9360482000011,226.9360482000011,226.9360482000011,226.9360482000011,,002,P019,2025_Mar_21_1034,CategoryLocalizer,2021.2.3,59.9416168652525,
177.8,178.0,5,0.0,Stimuli\Blank.png,0,0,0,286,286,286,,,,,,,,,,,,,177.82312039999852,0.023120399998504126,None,227.7367662000015,227.7367662000015,227.7367662000015,227.7367662000015,227.7367662000015,227.7367662000015,227.7367662000015,227.7367662000015,,002,P019,2025_Mar_21_1034,CategoryLocalizer,2021.2.3,59.9416168652525,
