eventStartTime,eventEndTime,eventCond,imSize,imFile,repeatedImage,responseEvent,Events.thisRepN,Events.thisTrialN,Events.thisN,Events.thisIndex,Instructions.started,Instructions.stopped,participantReadyResponse.keys,participantReadyResponse.rt,participantReadyResponse.started,participantReadyResponse.stopped,startWaitforTrigger,triggerResponse.keys,triggerResponse.rt,triggerResponse.started,triggerResponse.stopped,globalTimer,actualStartTime,startTimingDiff,participantResponse.keys,participantResponse.started,participantResponse.stopped,image.started,image.stopped,fixationOutside.started,fixationOutside.stopped,fixationInside.started,fixationInside.stopped,participantResponse.rt,session,participant,date,expName,psychopyVersion,frameRate,
,,,,,,,,,,,11.635396600002423,None,1,23.798434399999678,11.635396600002423,None,,,,,,,,,,,,,,,,,,,001,P020,2025_May_06_1703,CategoryLocalizer,2021.2.3,59.95904797164072,
,,,,,,,,,,,,,,,,,35.437351799999306,5,15.21949979999772,35.44991149999987,None,,,,,,,,,,,,,,001,P020,2025_May_06_1703,CategoryLocalizer,2021.2.3,59.95904797164072,
0.0,12.0,0,0.0,Stimuli\Blank.png,0,0,0,0,0,0,,,,,,,,,,,,50.68241339999804,0.027333500001986977,0.027333500001986977,None,50.73006200000236,None,50.73006200000236,None,50.73006200000236,None,50.73006200000236,None,,001,P020,2025_May_06_1703,CategoryLocalizer,2021.2.3,59.95904797164072,
12.0,12.8,1,0.75,Stimuli\ImageFiles-Set1\Objects\Object_Walnut_00001.png,0,0,0,1,1,1,,,,,,,,,,,,,12.011707500001648,0.011707500001648441,None,62.72401450000325,62.72401450000325,62.72401450000325,62.72401450000325,62.72401450000325,62.72401450000325,62.72401450000325,62.72401450000325,,001,P020,2025_May_06_1703,CategoryLocalizer,2021.2.3,59.95904797164072,
12.8,13.0,5,0.0,Stimuli\Blank.png,0,0,0,2,2,2,,,,,,,,,,,,,12.827786100002413,0.02778610000241244,None,63.52470909999829,63.52470909999829,63.52470909999829,63.52470909999829,63.52470909999829,63.52470909999829,63.52470909999829,63.52470909999829,,001,P020,2025_May_06_1703,CategoryLocalizer,2021.2.3,59.95904797164072,
13.0,13.8,1,0.75,Stimuli\ImageFiles-Set1\Objects\Object_Tool_00001.png,0,0,0,3,3,3,,,,,,,,,,,,,13.011619899996731,0.011619899996730965,None,63.708209700002044,63.708209700002044,63.708209700002044,63.708209700002044,63.708209700002044,63.708209700002044,63.708209700002044,63.708209700002044,,001,P020,2025_May_06_1703,CategoryLocalizer,2021.2.3,59.95904797164072,
13.8,14.0,5,0.0,Stimuli\Blank.png,0,0,0,4,4,4,,,,,,,,,,,,,13.812406800003373,0.012406800003372354,None,64.50892800000292,64.50892800000292,64.50892800000292,64.50892800000292,64.50892800000292,64.50892800000292,64.50892800000292,64.50892800000292,,001,P020,2025_May_06_1703,CategoryLocalizer,2021.2.3,59.95904797164072,
14.0,14.8,1,0.75,Stimuli\ImageFiles-Set1\Objects\Object_TeaBag_00001.png,0,0,0,5,5,5,,,,,,,,,,,,,14.01245370000106,0.012453700001060497,None,64.70909540000139,64.70909540000139,64.70909540000139,64.70909540000139,64.70909540000139,64.70909540000139,64.70909540000139,64.70909540000139,,001,P020,2025_May_06_1703,CategoryLocalizer,2021.2.3,59.95904797164072,
14.8,15.0,5,0.0,Stimuli\Blank.png,0,0,0,6,6,6,,,,,,,,,,,,,14.81316450000304,0.013164500003039592,None,65.50981969999702,65.50981969999702,65.50981969999702,65.50981969999702,65.50981969999702,65.50981969999702,65.50981969999702,65.50981969999702,,001,P020,2025_May_06_1703,CategoryLocalizer,2021.2.3,59.95904797164072,
15.0,15.8,1,0.75,Stimuli\ImageFiles-Set1\Objects\Object_Door_00001.png,0,0,0,7,7,7,,,,,,,,,,,,,15.012962300002982,0.012962300002982374,None,65.7099812000015,65.7099812000015,65.7099812000015,65.7099812000015,65.7099812000015,65.7099812000015,65.7099812000015,65.7099812000015,,001,P020,2025_May_06_1703,CategoryLocalizer,2021.2.3,59.95904797164072,
15.8,16.0,5,0.0,Stimuli\Blank.png,0,0,0,8,8,8,,,,,,,,,,,,,15.813898000000336,0.013898000000335031,None,66.5106827999989,66.5106827999989,66.5106827999989,66.5106827999989,66.5106827999989,66.5106827999989,66.5106827999989,66.5106827999989,,001,P020,2025_May_06_1703,CategoryLocalizer,2021.2.3,59.95904797164072,
16.0,16.8,1,0.75,Stimuli\ImageFiles-Set1\Objects\Object_Screw_00001.png,0,0,0,9,9,9,,,,,,,,,,,,,16.01382339999691,0.013823399996908847,None,66.71086179999838,66.71086179999838,66.71086179999838,66.71086179999838,66.71086179999838,66.71086179999838,66.71086179999838,66.71086179999838,,001,P020,2025_May_06_1703,CategoryLocalizer,2021.2.3,59.95904797164072,
16.8,17.0,5,0.0,Stimuli\Blank.png,0,0,0,10,10,10,,,,,,,,,,,,,16.815297900000587,0.015297900000586395,None,67.51156739999715,67.51156739999715,67.51156739999715,67.51156739999715,67.51156739999715,67.51156739999715,67.51156739999715,67.51156739999715,,001,P020,2025_May_06_1703,CategoryLocalizer,2021.2.3,59.95904797164072,
17.0,17.8,1,0.75,Stimuli\ImageFiles-Set1\Objects\Object_Pipe_00001.png,0,0,0,11,11,11,,,,,,,,,,,,,17.01532690000022,0.015326900000218302,None,67.71176289999858,67.71176289999858,67.71176289999858,67.71176289999858,67.71176289999858,67.71176289999858,67.71176289999858,67.71176289999858,,001,P020,2025_May_06_1703,CategoryLocalizer,2021.2.3,59.95904797164072,
17.8,18.0,5,0.0,Stimuli\Blank.png,0,0,0,12,12,12,,,,,,,,,,,,,17.79945189999853,-0.0005481000014704307,None,68.49578470000415,68.49578470000415,68.49578470000415,68.49578470000415,68.49578470000415,68.49578470000415,68.49578470000415,68.49578470000415,,001,P020,2025_May_06_1703,CategoryLocalizer,2021.2.3,59.95904797164072,
18.0,18.8,1,0.75,Stimuli\ImageFiles-Set1\Objects\Object_Box_00001.png,0,0,0,13,13,13,,,,,,,,,,,,,17.99966359999962,-0.0003364000003784895,None,68.71265850000054,68.71265850000054,68.71265850000054,68.71265850000054,68.71265850000054,68.71265850000054,68.71265850000054,68.71265850000054,,001,P020,2025_May_06_1703,CategoryLocalizer,2021.2.3,59.95904797164072,
18.8,19.0,5,0.0,Stimuli\Blank.png,0,0,0,14,14,14,,,,,,,,,,,,,18.819705299996713,0.019705299996712,None,69.53005429999757,69.53005429999757,69.53005429999757,69.53005429999757,69.53005429999757,69.53005429999757,69.53005429999757,69.53005429999757,,001,P020,2025_May_06_1703,CategoryLocalizer,2021.2.3,59.95904797164072,
19.0,19.8,1,0.75,Stimuli\ImageFiles-Set1\Objects\Object_PepperShaker_00001.png,0,0,0,15,15,15,,,,,,,,,,,,,19.018739500002994,0.018739500002993736,None,69.73022330000094,69.73022330000094,69.73022330000094,69.73022330000094,69.73022330000094,69.73022330000094,69.73022330000094,69.73022330000094,,001,P020,2025_May_06_1703,CategoryLocalizer,2021.2.3,59.95904797164072,
19.8,20.0,5,0.0,Stimuli\Blank.png,0,0,0,16,16,16,,,,,,,,,,,,,19.817273400003614,0.01727340000361366,None,70.5142388000022,70.5142388000022,70.5142388000022,70.5142388000022,70.5142388000022,70.5142388000022,70.5142388000022,70.5142388000022,,001,P020,2025_May_06_1703,CategoryLocalizer,2021.2.3,59.95904797164072,
20.0,20.8,1,0.75,Stimuli\ImageFiles-Set1\Objects\Object_Motorcycle_00001.png,0,0,0,17,17,17,,,,,,,,,,,,,20.001149000003352,0.00114900000335183,None,70.69773800000257,70.69773800000257,70.69773800000257,70.69773800000257,70.69773800000257,70.69773800000257,70.69773800000257,70.69773800000257,,001,P020,2025_May_06_1703,CategoryLocalizer,2021.2.3,59.95904797164072,
20.8,21.0,5,0.0,Stimuli\Blank.png,0,0,0,18,18,18,,,,,,,,,,,,,20.80309020000277,0.0030902000027701604,None,71.51512180000282,71.51512180000282,71.51512180000282,71.51512180000282,71.51512180000282,71.51512180000282,71.51512180000282,71.51512180000282,,001,P020,2025_May_06_1703,CategoryLocalizer,2021.2.3,59.95904797164072,
21.0,21.8,1,0.75,Stimuli\ImageFiles-Set1\Objects\Object_Locker_00001.png,0,0,0,19,19,19,,,,,,,,,,,,,21.01883909999742,0.018839099997421727,None,71.73200070000166,71.73200070000166,71.73200070000166,71.73200070000166,71.73200070000166,71.73200070000166,71.73200070000166,71.73200070000166,,001,P020,2025_May_06_1703,CategoryLocalizer,2021.2.3,59.95904797164072,
21.8,22.0,5,0.0,Stimuli\Blank.png,0,0,0,20,20,20,,,,,,,,,,,,,21.818926400002965,0.018926400002964527,None,72.51600029999827,72.51600029999827,72.51600029999827,72.51600029999827,72.51600029999827,72.51600029999827,72.51600029999827,72.51600029999827,,001,P020,2025_May_06_1703,CategoryLocalizer,2021.2.3,59.95904797164072,
22.0,22.8,1,0.75,Stimuli\ImageFiles-Set1\Objects\Object_Crib_00001.png,0,0,0,21,21,21,,,,,,,,,,,,,22.003248100001656,0.0032481000016559847,None,72.69949510000151,72.69949510000151,72.69949510000151,72.69949510000151,72.69949510000151,72.69949510000151,72.69949510000151,72.69949510000151,,001,P020,2025_May_06_1703,CategoryLocalizer,2021.2.3,59.95904797164072,
22.8,23.0,5,0.0,Stimuli\Blank.png,0,0,0,22,22,22,,,,,,,,,,,,,22.804029799997807,0.0040297999978058385,None,73.50020829999994,73.50020829999994,73.50020829999994,73.50020829999994,73.50020829999994,73.50020829999994,73.50020829999994,73.50020829999994,,001,P020,2025_May_06_1703,CategoryLocalizer,2021.2.3,59.95904797164072,
23.0,23.8,1,0.75,Stimuli\ImageFiles-Set1\Objects\Object_Card_00001.png,0,0,0,23,23,23,,,,,,,,,,,,,23.003534900002705,0.003534900002705399,None,73.71708509999735,73.71708509999735,73.71708509999735,73.71708509999735,73.71708509999735,73.71708509999735,73.71708509999735,73.71708509999735,,001,P020,2025_May_06_1703,CategoryLocalizer,2021.2.3,59.95904797164072,
23.8,24.0,5,0.0,Stimuli\Blank.png,0,0,0,24,24,24,,,,,,,,,,,,,23.822829299999285,0.022829299999283847,None,74.53446350000013,74.53446350000013,74.53446350000013,74.53446350000013,74.53446350000013,74.53446350000013,74.53446350000013,74.53446350000013,,001,P020,2025_May_06_1703,CategoryLocalizer,2021.2.3,59.95904797164072,
24.0,24.8,1,0.75,Stimuli\ImageFiles-Set1\Objects\Object_Stroller_00001.png,0,0,0,25,25,25,,,,,,,,,,,,,24.022942700001295,0.022942700001294725,None,74.73463469999842,74.73463469999842,74.73463469999842,74.73463469999842,74.73463469999842,74.73463469999842,74.73463469999842,74.73463469999842,,001,P020,2025_May_06_1703,CategoryLocalizer,2021.2.3,59.95904797164072,
24.8,25.0,5,0.0,Stimuli\Blank.png,0,0,0,26,26,26,,,,,,,,,,,,,24.82269929999893,0.022699299998929945,None,75.51866690000315,75.51866690000315,75.51866690000315,75.51866690000315,75.51866690000315,75.51866690000315,75.51866690000315,75.51866690000315,,001,P020,2025_May_06_1703,CategoryLocalizer,2021.2.3,59.95904797164072,
25.0,25.8,1,0.75,Stimuli\ImageFiles-Set1\Objects\Object_FileFolder_00001.png,0,0,0,27,27,27,,,,,,,,,,,,,25.005800799997814,0.005800799997814465,None,75.71884249999857,75.71884249999857,75.71884249999857,75.71884249999857,75.71884249999857,75.71884249999857,75.71884249999857,75.71884249999857,,001,P020,2025_May_06_1703,CategoryLocalizer,2021.2.3,59.95904797164072,
25.8,26.0,5,0.0,Stimuli\Blank.png,0,0,0,28,28,28,,,,,,,,,,,,,25.823374699997657,0.023374699997656734,None,76.51956179999979,76.51956179999979,76.51956179999979,76.51956179999979,76.51956179999979,76.51956179999979,76.51956179999979,76.51956179999979,,001,P020,2025_May_06_1703,CategoryLocalizer,2021.2.3,59.95904797164072,
26.0,26.8,1,0.75,Stimuli\ImageFiles-Set1\Objects\Object_FileFolder_00001.png,1,1,0,29,29,29,,,,,,,,,,,,,26.00668990000122,0.0066899000012199394,1,76.70306600000185,76.70306600000185,76.70306600000185,76.70306600000185,76.70306600000185,76.70306600000185,76.70306600000185,76.70306600000185,0.6134059000032721,001,P020,2025_May_06_1703,CategoryLocalizer,2021.2.3,59.95904797164072,
26.8,27.0,5,0.0,Stimuli\Blank.png,0,0,0,30,30,30,,,,,,,,,,,,,26.806662800001504,0.006662800001503655,None,77.50379860000248,77.50379860000248,77.50379860000248,77.50379860000248,77.50379860000248,77.50379860000248,77.50379860000248,77.50379860000248,,001,P020,2025_May_06_1703,CategoryLocalizer,2021.2.3,59.95904797164072,
27.0,27.8,1,0.75,Stimuli\ImageFiles-Set1\Objects\Object_Dryer_00001.png,0,0,0,31,31,31,,,,,,,,,,,,,27.007859400000598,0.007859400000597816,None,77.72061280000344,77.72061280000344,77.72061280000344,77.72061280000344,77.72061280000344,77.72061280000344,77.72061280000344,77.72061280000344,,001,P020,2025_May_06_1703,CategoryLocalizer,2021.2.3,59.95904797164072,
27.8,28.0,5,0.0,Stimuli\Blank.png,0,0,0,32,32,32,,,,,,,,,,,,,27.8252141999983,0.02521419999829888,None,78.5214072000017,78.5214072000017,78.5214072000017,78.5214072000017,78.5214072000017,78.5214072000017,78.5214072000017,78.5214072000017,,001,P020,2025_May_06_1703,CategoryLocalizer,2021.2.3,59.95904797164072,
28.0,28.8,2,0.75,Stimuli\ImageFiles-Set1\Bodies\Bodies_Standing_00007.png,0,0,0,33,33,33,,,,,,,,,,,,,28.007990600002813,0.007990600002813153,None,78.70481190000282,78.70481190000282,78.70481190000282,78.70481190000282,78.70481190000282,78.70481190000282,78.70481190000282,78.70481190000282,,001,P020,2025_May_06_1703,CategoryLocalizer,2021.2.3,59.95904797164072,
28.8,29.0,5,0.0,Stimuli\Blank.png,0,0,0,34,34,34,,,,,,,,,,,,,28.80898999999772,0.008989999997719877,None,79.50549170000158,79.50549170000158,79.50549170000158,79.50549170000158,79.50549170000158,79.50549170000158,79.50549170000158,79.50549170000158,,001,P020,2025_May_06_1703,CategoryLocalizer,2021.2.3,59.95904797164072,
29.0,29.8,2,0.75,Stimuli\ImageFiles-Set1\Bodies\Bodies_Standing_00001.png,0,0,0,35,35,35,,,,,,,,,,,,,29.01027780000004,0.01027780000003986,None,79.72238060000382,79.72238060000382,79.72238060000382,79.72238060000382,79.72238060000382,79.72238060000382,79.72238060000382,79.72238060000382,,001,P020,2025_May_06_1703,CategoryLocalizer,2021.2.3,59.95904797164072,
29.8,30.0,5,0.0,Stimuli\Blank.png,0,0,0,36,36,36,,,,,,,,,,,,,29.82763349999732,0.027633499997318012,None,80.53977229999873,80.53977229999873,80.53977229999873,80.53977229999873,80.53977229999873,80.53977229999873,80.53977229999873,80.53977229999873,,001,P020,2025_May_06_1703,CategoryLocalizer,2021.2.3,59.95904797164072,
30.0,30.8,2,0.75,Stimuli\ImageFiles-Set1\Bodies\Bodies_DownwardDog_00001.png,0,0,0,37,37,37,,,,,,,,,,,,,30.026886799998465,0.026886799998464994,None,80.72326610000164,80.72326610000164,80.72326610000164,80.72326610000164,80.72326610000164,80.72326610000164,80.72326610000164,80.72326610000164,,001,P020,2025_May_06_1703,CategoryLocalizer,2021.2.3,59.95904797164072,
30.8,31.0,5,0.0,Stimuli\Blank.png,0,0,0,38,38,38,,,,,,,,,,,,,30.810790900002758,0.010790900002756842,None,81.50729110000248,81.50729110000248,81.50729110000248,81.50729110000248,81.50729110000248,81.50729110000248,81.50729110000248,81.50729110000248,,001,P020,2025_May_06_1703,CategoryLocalizer,2021.2.3,59.95904797164072,
31.0,31.8,2,0.75,Stimuli\ImageFiles-Set1\Bodies\Bodies_DownwardDog_00001.png,1,1,0,39,39,39,,,,,,,,,,,,,31.01035530000081,0.01035530000081053,1,81.70747120000306,81.70747120000306,81.70747120000306,81.70747120000306,81.70747120000306,81.70747120000306,81.70747120000306,81.70747120000306,0.5330205999998725,001,P020,2025_May_06_1703,CategoryLocalizer,2021.2.3,59.95904797164072,
31.8,32.0,5,0.0,Stimuli\Blank.png,0,0,0,40,40,40,,,,,,,,,,,,,31.81233909999719,0.012339099997188185,None,82.50819339999725,82.50819339999725,82.50819339999725,82.50819339999725,82.50819339999725,82.50819339999725,82.50819339999725,82.50819339999725,,001,P020,2025_May_06_1703,CategoryLocalizer,2021.2.3,59.95904797164072,
32.0,32.8,2,0.75,Stimuli\ImageFiles-Set1\Bodies\Bodies_Lunging_00004.png,0,0,0,41,41,41,,,,,,,,,,,,,32.012665399997786,0.012665399997786153,None,82.72506040000007,82.72506040000007,82.72506040000007,82.72506040000007,82.72506040000007,82.72506040000007,82.72506040000007,82.72506040000007,,001,P020,2025_May_06_1703,CategoryLocalizer,2021.2.3,59.95904797164072,
32.8,33.0,5,0.0,Stimuli\Blank.png,0,0,0,42,42,42,,,,,,,,,,,,,32.82916739999928,0.029167399999280974,None,83.52571650000027,83.52571650000027,83.52571650000027,83.52571650000027,83.52571650000027,83.52571650000027,83.52571650000027,83.52571650000027,,001,P020,2025_May_06_1703,CategoryLocalizer,2021.2.3,59.95904797164072,
33.0,33.8,2,0.75,Stimuli\ImageFiles-Set1\Bodies\Bodies_Falling_00002.png,0,0,0,43,43,43,,,,,,,,,,,,,33.01260180000099,0.012601800000993535,None,83.70923349999794,83.70923349999794,83.70923349999794,83.70923349999794,83.70923349999794,83.70923349999794,83.70923349999794,83.70923349999794,,001,P020,2025_May_06_1703,CategoryLocalizer,2021.2.3,59.95904797164072,
33.8,34.0,5,0.0,Stimuli\Blank.png,0,0,0,44,44,44,,,,,,,,,,,,,33.81355379999877,0.013553799998774707,None,84.51000410000415,84.51000410000415,84.51000410000415,84.51000410000415,84.51000410000415,84.51000410000415,84.51000410000415,84.51000410000415,,001,P020,2025_May_06_1703,CategoryLocalizer,2021.2.3,59.95904797164072,
34.0,34.8,2,0.75,Stimuli\ImageFiles-Set1\Bodies\Bodies_Punching_00003.png,0,0,0,45,45,45,,,,,,,,,,,,,34.01338019999821,0.013380199998209719,None,84.71012499999779,84.71012499999779,84.71012499999779,84.71012499999779,84.71012499999779,84.71012499999779,84.71012499999779,84.71012499999779,,001,P020,2025_May_06_1703,CategoryLocalizer,2021.2.3,59.95904797164072,
34.8,35.0,5,0.0,Stimuli\Blank.png,0,0,0,46,46,46,,,,,,,,,,,,,34.814630200002284,0.014630200002287097,None,85.5108287999974,85.5108287999974,85.5108287999974,85.5108287999974,85.5108287999974,85.5108287999974,85.5108287999974,85.5108287999974,,001,P020,2025_May_06_1703,CategoryLocalizer,2021.2.3,59.95904797164072,
35.0,35.8,2,0.75,Stimuli\ImageFiles-Set1\Bodies\Bodies_QuadStretch_00001.png,0,0,0,47,47,47,,,,,,,,,,,,,35.01402080000116,0.01402080000116257,None,85.71101610000187,85.71101610000187,85.71101610000187,85.71101610000187,85.71101610000187,85.71101610000187,85.71101610000187,85.71101610000187,,001,P020,2025_May_06_1703,CategoryLocalizer,2021.2.3,59.95904797164072,
35.8,36.0,5,0.0,Stimuli\Blank.png,0,0,0,48,48,48,,,,,,,,,,,,,35.81536739999865,0.015367399998652331,None,86.51172280000173,86.51172280000173,86.51172280000173,86.51172280000173,86.51172280000173,86.51172280000173,86.51172280000173,86.51172280000173,,001,P020,2025_May_06_1703,CategoryLocalizer,2021.2.3,59.95904797164072,
36.0,36.8,2,0.75,Stimuli\ImageFiles-Set1\Bodies\Bodies_DownwardDog_00006.png,0,0,0,49,49,49,,,,,,,,,,,,,36.01476980000007,0.014769800000067335,None,86.72859410000092,86.72859410000092,86.72859410000092,86.72859410000092,86.72859410000092,86.72859410000092,86.72859410000092,86.72859410000092,,001,P020,2025_May_06_1703,CategoryLocalizer,2021.2.3,59.95904797164072,
36.8,37.0,5,0.0,Stimuli\Blank.png,0,0,0,50,50,50,,,,,,,,,,,,,36.83297019999736,0.03297019999736506,None,87.52930790000391,87.52930790000391,87.52930790000391,87.52930790000391,87.52930790000391,87.52930790000391,87.52930790000391,87.52930790000391,,001,P020,2025_May_06_1703,CategoryLocalizer,2021.2.3,59.95904797164072,
37.0,37.8,2,0.75,Stimuli\ImageFiles-Set1\Bodies\Bodies_SittingChair_00003.png,0,0,0,51,51,51,,,,,,,,,,,,,36.99909050000133,-0.0009094999986700714,None,87.69609779999882,87.69609779999882,87.69609779999882,87.69609779999882,87.69609779999882,87.69609779999882,87.69609779999882,87.69609779999882,,001,P020,2025_May_06_1703,CategoryLocalizer,2021.2.3,59.95904797164072,
37.8,38.0,5,0.0,Stimuli\Blank.png,0,0,0,52,52,52,,,,,,,,,,,,,37.800328099998296,0.00032809999829908065,None,88.49681330000021,88.49681330000021,88.49681330000021,88.49681330000021,88.49681330000021,88.49681330000021,88.49681330000021,88.49681330000021,,001,P020,2025_May_06_1703,CategoryLocalizer,2021.2.3,59.95904797164072,
38.0,38.8,2,0.75,Stimuli\ImageFiles-Set1\Bodies\Bodies_CobraPose_00001.png,0,0,0,53,53,53,,,,,,,,,,,,,38.000148599996464,0.00014859999646432698,None,88.7136365999977,88.7136365999977,88.7136365999977,88.7136365999977,88.7136365999977,88.7136365999977,88.7136365999977,88.7136365999977,,001,P020,2025_May_06_1703,CategoryLocalizer,2021.2.3,59.95904797164072,
38.8,39.0,5,0.0,Stimuli\Blank.png,0,0,0,54,54,54,,,,,,,,,,,,,38.81724889999896,0.017248899998961065,None,89.51448179999716,89.51448179999716,89.51448179999716,89.51448179999716,89.51448179999716,89.51448179999716,89.51448179999716,89.51448179999716,,001,P020,2025_May_06_1703,CategoryLocalizer,2021.2.3,59.95904797164072,
39.0,39.8,2,0.75,Stimuli\ImageFiles-Set1\Bodies\Bodies_Hanging_00006.png,0,0,0,55,55,55,,,,,,,,,,,,,39.002890700001444,0.002890700001444202,None,89.71456639999815,89.71456639999815,89.71456639999815,89.71456639999815,89.71456639999815,89.71456639999815,89.71456639999815,89.71456639999815,,001,P020,2025_May_06_1703,CategoryLocalizer,2021.2.3,59.95904797164072,
39.8,40.0,5,0.0,Stimuli\Blank.png,0,0,0,56,56,56,,,,,,,,,,,,,39.81870679999702,0.01870679999701963,None,90.51526339999691,90.51526339999691,90.51526339999691,90.51526339999691,90.51526339999691,90.51526339999691,90.51526339999691,90.51526339999691,,001,P020,2025_May_06_1703,CategoryLocalizer,2021.2.3,59.95904797164072,
40.0,40.8,2,0.75,Stimuli\ImageFiles-Set1\Bodies\Bodies_Walking_00006.png,0,0,0,57,57,57,,,,,,,,,,,,,40.002111000001605,0.0021110000016051345,None,90.69875779999711,90.69875779999711,90.69875779999711,90.69875779999711,90.69875779999711,90.69875779999711,90.69875779999711,90.69875779999711,,001,P020,2025_May_06_1703,CategoryLocalizer,2021.2.3,59.95904797164072,
40.8,41.0,5,0.0,Stimuli\Blank.png,0,0,0,58,58,58,,,,,,,,,,,,,40.803569399999105,0.0035693999991082137,None,91.49946739999723,91.49946739999723,91.49946739999723,91.49946739999723,91.49946739999723,91.49946739999723,91.49946739999723,91.49946739999723,,001,P020,2025_May_06_1703,CategoryLocalizer,2021.2.3,59.95904797164072,
41.0,41.8,2,0.75,Stimuli\ImageFiles-Set1\Bodies\Bodies_CobraPose_00005.png,1,1,0,59,59,59,,,,,,,,,,,,,41.00380210000003,0.0038021000000298955,None,91.71632559999853,91.71632559999853,91.71632559999853,91.71632559999853,91.71632559999853,91.71632559999853,91.71632559999853,91.71632559999853,,001,P020,2025_May_06_1703,CategoryLocalizer,2021.2.3,59.95904797164072,
41.8,42.0,5,0.0,Stimuli\Blank.png,0,0,0,60,60,60,,,,,,,,,,,,,41.82034310000017,0.020343100000175696,None,92.51703590000398,92.51703590000398,92.51703590000398,92.51703590000398,92.51703590000398,92.51703590000398,92.51703590000398,92.51703590000398,,001,P020,2025_May_06_1703,CategoryLocalizer,2021.2.3,59.95904797164072,
42.0,42.8,2,0.75,Stimuli\ImageFiles-Set1\Bodies\Bodies_SittingStretch_00002.png,0,0,0,61,61,61,,,,,,,,,,,,,42.003619800001616,0.0036198000016156584,None,92.73395139999775,92.73395139999775,92.73395139999775,92.73395139999775,92.73395139999775,92.73395139999775,92.73395139999775,92.73395139999775,,001,P020,2025_May_06_1703,CategoryLocalizer,2021.2.3,59.95904797164072,
42.8,43.0,5,0.0,Stimuli\Blank.png,0,0,0,62,62,62,,,,,,,,,,,,,42.83875329999864,0.038753299998646185,None,93.53461010000319,93.53461010000319,93.53461010000319,93.53461010000319,93.53461010000319,93.53461010000319,93.53461010000319,93.53461010000319,,001,P020,2025_May_06_1703,CategoryLocalizer,2021.2.3,59.95904797164072,
43.0,43.8,2,0.75,Stimuli\ImageFiles-Set1\Bodies\Bodies_SittingStretch_00002.png,0,0,0,63,63,63,,,,,,,,,,,,,43.005052200001955,0.005052200001955498,None,93.71811100000195,93.71811100000195,93.71811100000195,93.71811100000195,93.71811100000195,93.71811100000195,93.71811100000195,93.71811100000195,,001,P020,2025_May_06_1703,CategoryLocalizer,2021.2.3,59.95904797164072,
43.8,44.0,5,0.0,Stimuli\Blank.png,0,0,0,64,64,64,,,,,,,,,,,,,43.82282419999683,0.022824199996833272,1,94.51881609999691,94.51881609999691,94.51881609999691,94.51881609999691,94.51881609999691,94.51881609999691,94.51881609999691,94.51881609999691,0.07880229999864241,001,P020,2025_May_06_1703,CategoryLocalizer,2021.2.3,59.95904797164072,
44.0,44.8,3,0.75,Stimuli\ImageFiles-Set1\Faces\Face_00081.png,0,0,0,65,65,65,,,,,,,,,,,,,44.005723000002035,0.0057230000020354055,None,94.73567670000193,94.73567670000193,94.73567670000193,94.73567670000193,94.73567670000193,94.73567670000193,94.73567670000193,94.73567670000193,,001,P020,2025_May_06_1703,CategoryLocalizer,2021.2.3,59.95904797164072,
44.8,45.0,5,0.0,Stimuli\Blank.png,0,0,0,66,66,66,,,,,,,,,,,,,44.83992489999946,0.03992489999946258,None,95.53636520000146,95.53636520000146,95.53636520000146,95.53636520000146,95.53636520000146,95.53636520000146,95.53636520000146,95.53636520000146,,001,P020,2025_May_06_1703,CategoryLocalizer,2021.2.3,59.95904797164072,
45.0,45.8,3,0.75,Stimuli\ImageFiles-Set1\Faces\Face_00103.png,0,0,0,67,67,67,,,,,,,,,,,,,45.008826500001305,0.008826500001305249,None,95.73661110000103,95.73661110000103,95.73661110000103,95.73661110000103,95.73661110000103,95.73661110000103,95.73661110000103,95.73661110000103,,001,P020,2025_May_06_1703,CategoryLocalizer,2021.2.3,59.95904797164072,
45.8,46.0,5,0.0,Stimuli\Blank.png,0,0,0,68,68,68,,,,,,,,,,,,,45.84072149999702,0.04072149999701935,None,96.53723290000198,96.53723290000198,96.53723290000198,96.53723290000198,96.53723290000198,96.53723290000198,96.53723290000198,96.53723290000198,,001,P020,2025_May_06_1703,CategoryLocalizer,2021.2.3,59.95904797164072,
46.0,46.8,3,0.75,Stimuli\ImageFiles-Set1\Faces\Face_00103.png,1,1,0,69,69,69,,,,,,,,,,,,,46.00762150000082,0.007621500000823289,1,96.70404730000155,96.70404730000155,96.70404730000155,96.70404730000155,96.70404730000155,96.70404730000155,96.70404730000155,96.70404730000155,0.6964235999985249,001,P020,2025_May_06_1703,CategoryLocalizer,2021.2.3,59.95904797164072,
46.8,47.0,5,0.0,Stimuli\Blank.png,0,0,0,70,70,70,,,,,,,,,,,,,46.80881290000252,0.00881290000252477,None,97.50478560000192,97.50478560000192,97.50478560000192,97.50478560000192,97.50478560000192,97.50478560000192,97.50478560000192,97.50478560000192,,001,P020,2025_May_06_1703,CategoryLocalizer,2021.2.3,59.95904797164072,
47.0,47.8,3,0.75,Stimuli\ImageFiles-Set1\Faces\Face_00089.png,0,0,0,71,71,71,,,,,,,,,,,,,47.00862600000255,0.008626000002550427,None,97.72165659999882,97.72165659999882,97.72165659999882,97.72165659999882,97.72165659999882,97.72165659999882,97.72165659999882,97.72165659999882,,001,P020,2025_May_06_1703,CategoryLocalizer,2021.2.3,59.95904797164072,
47.8,48.0,5,0.0,Stimuli\Blank.png,0,0,0,72,72,72,,,,,,,,,,,,,47.82777840000199,0.027778400001992054,None,98.53905710000254,98.53905710000254,98.53905710000254,98.53905710000254,98.53905710000254,98.53905710000254,98.53905710000254,98.53905710000254,,001,P020,2025_May_06_1703,CategoryLocalizer,2021.2.3,59.95904797164072,
48.0,48.8,3,0.75,Stimuli\ImageFiles-Set1\Faces\Face_00113.png,0,0,0,73,73,73,,,,,,,,,,,,,48.02534259999811,0.025342599998111837,None,98.73922440000024,98.73922440000024,98.73922440000024,98.73922440000024,98.73922440000024,98.73922440000024,98.73922440000024,98.73922440000024,,001,P020,2025_May_06_1703,CategoryLocalizer,2021.2.3,59.95904797164072,
48.8,49.0,5,0.0,Stimuli\Blank.png,0,0,0,74,74,74,,,,,,,,,,,,,48.82892079999874,0.028920799998743973,None,99.53992950000247,99.53992950000247,99.53992950000247,99.53992950000247,99.53992950000247,99.53992950000247,99.53992950000247,99.53992950000247,,001,P020,2025_May_06_1703,CategoryLocalizer,2021.2.3,59.95904797164072,
49.0,49.8,3,0.75,Stimuli\ImageFiles-Set1\Faces\Face_00083.png,0,0,0,75,75,75,,,,,,,,,,,,,49.029013999999734,0.029013999999733642,None,99.75677700000233,99.75677700000233,99.75677700000233,99.75677700000233,99.75677700000233,99.75677700000233,99.75677700000233,99.75677700000233,,001,P020,2025_May_06_1703,CategoryLocalizer,2021.2.3,59.95904797164072,
49.8,50.0,5,0.0,Stimuli\Blank.png,0,0,0,76,76,76,,,,,,,,,,,,,49.84353230000124,0.04353230000124597,None,100.54080480000266,100.54080480000266,100.54080480000266,100.54080480000266,100.54080480000266,100.54080480000266,100.54080480000266,100.54080480000266,,001,P020,2025_May_06_1703,CategoryLocalizer,2021.2.3,59.95904797164072,
50.0,50.8,3,0.75,Stimuli\ImageFiles-Set1\Faces\Face_00033.png,0,0,0,77,77,77,,,,,,,,,,,,,50.01111420000234,0.011114200002339203,None,100.74098799999774,100.74098799999774,100.74098799999774,100.74098799999774,100.74098799999774,100.74098799999774,100.74098799999774,100.74098799999774,,001,P020,2025_May_06_1703,CategoryLocalizer,2021.2.3,59.95904797164072,
50.8,51.0,5,0.0,Stimuli\Blank.png,0,0,0,78,78,78,,,,,,,,,,,,,50.84526110000297,0.045261100002974786,None,101.54168490000302,101.54168490000302,101.54168490000302,101.54168490000302,101.54168490000302,101.54168490000302,101.54168490000302,101.54168490000302,,001,P020,2025_May_06_1703,CategoryLocalizer,2021.2.3,59.95904797164072,
51.0,51.8,3,0.75,Stimuli\ImageFiles-Set1\Faces\Face_00069.png,0,0,0,79,79,79,,,,,,,,,,,,,51.01417650000076,0.014176500000758097,None,101.72518410000339,101.72518410000339,101.72518410000339,101.72518410000339,101.72518410000339,101.72518410000339,101.72518410000339,101.72518410000339,,001,P020,2025_May_06_1703,CategoryLocalizer,2021.2.3,59.95904797164072,
51.8,52.0,5,0.0,Stimuli\Blank.png,0,0,0,80,80,80,,,,,,,,,,,,,51.82896649999748,0.028966499997480355,None,102.52604979999887,102.52604979999887,102.52604979999887,102.52604979999887,102.52604979999887,102.52604979999887,102.52604979999887,102.52604979999887,,001,P020,2025_May_06_1703,CategoryLocalizer,2021.2.3,59.95904797164072,
52.0,52.8,3,0.75,Stimuli\ImageFiles-Set1\Faces\Face_00051.png,0,0,0,81,81,81,,,,,,,,,,,,,52.01293070000247,0.012930700002470985,None,102.7427869000021,102.7427869000021,102.7427869000021,102.7427869000021,102.7427869000021,102.7427869000021,102.7427869000021,102.7427869000021,,001,P020,2025_May_06_1703,CategoryLocalizer,2021.2.3,59.95904797164072,
52.8,53.0,5,0.0,Stimuli\Blank.png,0,0,0,82,82,82,,,,,,,,,,,,,52.84806630000094,0.04806630000094003,None,103.56013940000412,103.56013940000412,103.56013940000412,103.56013940000412,103.56013940000412,103.56013940000412,103.56013940000412,103.56013940000412,,001,P020,2025_May_06_1703,CategoryLocalizer,2021.2.3,59.95904797164072,
53.0,53.8,3,0.75,Stimuli\ImageFiles-Set1\Faces\Face_00117.png,0,0,0,83,83,83,,,,,,,,,,,,,53.03061329999764,0.030613299997639842,None,103.74364049999713,103.74364049999713,103.74364049999713,103.74364049999713,103.74364049999713,103.74364049999713,103.74364049999713,103.74364049999713,,001,P020,2025_May_06_1703,CategoryLocalizer,2021.2.3,59.95904797164072,
53.8,54.0,5,0.0,Stimuli\Blank.png,0,0,0,84,84,84,,,,,,,,,,,,,53.83063350000157,0.030633500001570724,None,104.52766169999813,104.52766169999813,104.52766169999813,104.52766169999813,104.52766169999813,104.52766169999813,104.52766169999813,104.52766169999813,,001,P020,2025_May_06_1703,CategoryLocalizer,2021.2.3,59.95904797164072,
54.0,54.8,3,0.75,Stimuli\ImageFiles-Set1\Faces\Face_00053.png,0,0,0,85,85,85,,,,,,,,,,,,,54.01403169999685,0.014031699996849056,None,104.74452600000222,104.74452600000222,104.74452600000222,104.74452600000222,104.74452600000222,104.74452600000222,104.74452600000222,104.74452600000222,,001,P020,2025_May_06_1703,CategoryLocalizer,2021.2.3,59.95904797164072,
54.8,55.0,5,0.0,Stimuli\Blank.png,0,0,0,86,86,86,,,,,,,,,,,,,54.84943049999856,0.049430499998564414,None,105.54523390000395,105.54523390000395,105.54523390000395,105.54523390000395,105.54523390000395,105.54523390000395,105.54523390000395,105.54523390000395,,001,P020,2025_May_06_1703,CategoryLocalizer,2021.2.3,59.95904797164072,
55.0,55.8,3,0.75,Stimuli\ImageFiles-Set1\Faces\Face_00075.png,0,0,0,87,87,87,,,,,,,,,,,,,54.999162400003115,-0.0008375999968848191,None,105.71205010000267,105.71205010000267,105.71205010000267,105.71205010000267,105.71205010000267,105.71205010000267,105.71205010000267,105.71205010000267,,001,P020,2025_May_06_1703,CategoryLocalizer,2021.2.3,59.95904797164072,
55.8,56.0,5,0.0,Stimuli\Blank.png,0,0,0,88,88,88,,,,,,,,,,,,,55.8163526999997,0.01635269999970035,None,106.51277809999738,106.51277809999738,106.51277809999738,106.51277809999738,106.51277809999738,106.51277809999738,106.51277809999738,106.51277809999738,,001,P020,2025_May_06_1703,CategoryLocalizer,2021.2.3,59.95904797164072,
56.0,56.8,3,0.75,Stimuli\ImageFiles-Set1\Faces\Face_00009.png,1,1,0,89,89,89,,,,,,,,,,,,,55.99920800000109,-0.0007919999989098869,None,106.71297290000075,106.71297290000075,106.71297290000075,106.71297290000075,106.71297290000075,106.71297290000075,106.71297290000075,106.71297290000075,,001,P020,2025_May_06_1703,CategoryLocalizer,2021.2.3,59.95904797164072,
56.8,57.0,5,0.0,Stimuli\Blank.png,0,0,0,90,90,90,,,,,,,,,,,,,56.81821610000043,0.018216100000429947,None,107.53034560000378,107.53034560000378,107.53034560000378,107.53034560000378,107.53034560000378,107.53034560000378,107.53034560000378,107.53034560000378,,001,P020,2025_May_06_1703,CategoryLocalizer,2021.2.3,59.95904797164072,
57.0,57.8,3,0.75,Stimuli\ImageFiles-Set1\Faces\Face_00003.png,0,0,0,91,91,91,,,,,,,,,,,,,57.017343899999105,0.017343899999104906,None,107.73050450000301,107.73050450000301,107.73050450000301,107.73050450000301,107.73050450000301,107.73050450000301,107.73050450000301,107.73050450000301,,001,P020,2025_May_06_1703,CategoryLocalizer,2021.2.3,59.95904797164072,
57.8,58.0,5,0.0,Stimuli\Blank.png,0,0,0,92,92,92,,,,,,,,,,,,,57.817543999997724,0.017543999997727155,None,108.51452040000004,108.51452040000004,108.51452040000004,108.51452040000004,108.51452040000004,108.51452040000004,108.51452040000004,108.51452040000004,,001,P020,2025_May_06_1703,CategoryLocalizer,2021.2.3,59.95904797164072,
58.0,58.8,3,0.75,Stimuli\ImageFiles-Set1\Faces\Face_00003.png,0,0,0,93,93,93,,,,,,,,,,,,,58.002418700001726,0.0024187000017263927,1,108.71470019999833,108.71470019999833,108.71470019999833,108.71470019999833,108.71470019999833,108.71470019999833,108.71470019999833,108.71470019999833,0.5488487000038731,001,P020,2025_May_06_1703,CategoryLocalizer,2021.2.3,59.95904797164072,
58.8,59.0,5,0.0,Stimuli\Blank.png,0,0,0,94,94,94,,,,,,,,,,,,,58.81908780000231,0.019087800002310473,None,109.51541720000387,109.51541720000387,109.51541720000387,109.51541720000387,109.51541720000387,109.51541720000387,109.51541720000387,109.51541720000387,,001,P020,2025_May_06_1703,CategoryLocalizer,2021.2.3,59.95904797164072,
59.0,59.8,3,0.75,Stimuli\ImageFiles-Set1\Faces\Face_00014.png,0,0,0,95,95,95,,,,,,,,,,,,,59.002379600002314,0.002379600002313964,None,109.73227639999823,109.73227639999823,109.73227639999823,109.73227639999823,109.73227639999823,109.73227639999823,109.73227639999823,109.73227639999823,,001,P020,2025_May_06_1703,CategoryLocalizer,2021.2.3,59.95904797164072,
59.8,60.0,5,0.0,Stimuli\Blank.png,0,0,0,96,96,96,,,,,,,,,,,,,59.83865849999711,0.03865849999711202,None,110.54969240000355,110.54969240000355,110.54969240000355,110.54969240000355,110.54969240000355,110.54969240000355,110.54969240000355,110.54969240000355,,001,P020,2025_May_06_1703,CategoryLocalizer,2021.2.3,59.95904797164072,
60.0,60.8,4,0.75,Stimuli\ImageFiles-Set1\Scenes\Scenes_017.png,0,0,0,97,97,97,,,,,,,,,,,,,60.020028699997056,0.02002869999705581,None,110.73312019999867,110.73312019999867,110.73312019999867,110.73312019999867,110.73312019999867,110.73312019999867,110.73312019999867,110.73312019999867,,001,P020,2025_May_06_1703,CategoryLocalizer,2021.2.3,59.95904797164072,
60.8,61.0,5,0.0,Stimuli\Blank.png,0,0,0,98,98,98,,,,,,,,,,,,,60.82051540000248,0.020515400002480533,None,111.51718170000095,111.51718170000095,111.51718170000095,111.51718170000095,111.51718170000095,111.51718170000095,111.51718170000095,111.51718170000095,,001,P020,2025_May_06_1703,CategoryLocalizer,2021.2.3,59.95904797164072,
61.0,61.8,4,0.75,Stimuli\ImageFiles-Set1\Scenes\Scenes_017.png,1,1,0,99,99,99,,,,,,,,,,,,,61.00362799999857,0.0036279999985708855,1,111.70067939999717,111.70067939999717,111.70067939999717,111.70067939999717,111.70067939999717,111.70067939999717,111.70067939999717,111.70067939999717,0.527838599999086,001,P020,2025_May_06_1703,CategoryLocalizer,2021.2.3,59.95904797164072,
61.8,62.0,5,0.0,Stimuli\Blank.png,0,0,0,100,100,100,,,,,,,,,,,,,61.80498420000367,0.004984200003676165,None,112.50138220000372,112.50138220000372,112.50138220000372,112.50138220000372,112.50138220000372,112.50138220000372,112.50138220000372,112.50138220000372,,001,P020,2025_May_06_1703,CategoryLocalizer,2021.2.3,59.95904797164072,
62.0,62.8,4,0.75,Stimuli\ImageFiles-Set1\Scenes\Scenes_048.png,0,0,0,101,101,101,,,,,,,,,,,,,62.00497319999704,0.004973199997039046,None,112.71824449999986,112.71824449999986,112.71824449999986,112.71824449999986,112.71824449999986,112.71824449999986,112.71824449999986,112.71824449999986,,001,P020,2025_May_06_1703,CategoryLocalizer,2021.2.3,59.95904797164072,
62.8,63.0,5,0.0,Stimuli\Blank.png,0,0,0,102,102,102,,,,,,,,,,,,,62.82252190000145,0.02252190000145049,None,113.51896000000124,113.51896000000124,113.51896000000124,113.51896000000124,113.51896000000124,113.51896000000124,113.51896000000124,113.51896000000124,,001,P020,2025_May_06_1703,CategoryLocalizer,2021.2.3,59.95904797164072,
63.0,63.8,4,0.75,Stimuli\ImageFiles-Set1\Scenes\Scenes_052.png,0,0,0,103,103,103,,,,,,,,,,,,,63.00598809999792,0.005988099997921381,None,113.71909869999945,113.71909869999945,113.71909869999945,113.71909869999945,113.71909869999945,113.71909869999945,113.71909869999945,113.71909869999945,,001,P020,2025_May_06_1703,CategoryLocalizer,2021.2.3,59.95904797164072,
63.8,64.0,5,0.0,Stimuli\Blank.png,0,0,0,104,104,104,,,,,,,,,,,,,63.824047100002645,0.024047100002647426,None,114.51985450000211,114.51985450000211,114.51985450000211,114.51985450000211,114.51985450000211,114.51985450000211,114.51985450000211,114.51985450000211,,001,P020,2025_May_06_1703,CategoryLocalizer,2021.2.3,59.95904797164072,
64.0,64.8,4,0.75,Stimuli\ImageFiles-Set1\Scenes\Scenes_037.png,0,0,0,105,105,105,,,,,,,,,,,,,64.00674699999945,0.006746999999450054,None,114.72002909999719,114.72002909999719,114.72002909999719,114.72002909999719,114.72002909999719,114.72002909999719,114.72002909999719,114.72002909999719,,001,P020,2025_May_06_1703,CategoryLocalizer,2021.2.3,59.95904797164072,
64.8,65.0,5,0.0,Stimuli\Blank.png,0,0,0,106,106,106,,,,,,,,,,,,,64.82359810000344,0.02359810000343998,None,115.52073579999706,115.52073579999706,115.52073579999706,115.52073579999706,115.52073579999706,115.52073579999706,115.52073579999706,115.52073579999706,,001,P020,2025_May_06_1703,CategoryLocalizer,2021.2.3,59.95904797164072,
65.0,65.8,4,0.75,Stimuli\ImageFiles-Set1\Scenes\Scenes_035.png,0,0,0,107,107,107,,,,,,,,,,,,,65.00768670000252,0.007686700002523139,None,115.73759930000233,115.73759930000233,115.73759930000233,115.73759930000233,115.73759930000233,115.73759930000233,115.73759930000233,115.73759930000233,,001,P020,2025_May_06_1703,CategoryLocalizer,2021.2.3,59.95904797164072,
65.8,66.0,5,0.0,Stimuli\Blank.png,0,0,0,108,108,108,,,,,,,,,,,,,65.84501720000117,0.045017200001169044,None,116.55500169999868,116.55500169999868,116.55500169999868,116.55500169999868,116.55500169999868,116.55500169999868,116.55500169999868,116.55500169999868,,001,P020,2025_May_06_1703,CategoryLocalizer,2021.2.3,59.95904797164072,
66.0,66.8,4,0.75,Stimuli\ImageFiles-Set1\Scenes\Scenes_055.png,0,0,0,109,109,109,,,,,,,,,,,,,66.02626540000347,0.02626540000346722,None,116.75517039999977,116.75517039999977,116.75517039999977,116.75517039999977,116.75517039999977,116.75517039999977,116.75517039999977,116.75517039999977,,001,P020,2025_May_06_1703,CategoryLocalizer,2021.2.3,59.95904797164072,
66.8,67.0,5,0.0,Stimuli\Blank.png,0,0,0,110,110,110,,,,,,,,,,,,,66.84297150000202,0.04297150000202521,None,117.53918800000247,117.53918800000247,117.53918800000247,117.53918800000247,117.53918800000247,117.53918800000247,117.53918800000247,117.53918800000247,,001,P020,2025_May_06_1703,CategoryLocalizer,2021.2.3,59.95904797164072,
67.0,67.8,4,0.75,Stimuli\ImageFiles-Set1\Scenes\Scenes_024.png,0,0,0,111,111,111,,,,,,,,,,,,,67.00908730000083,0.00908730000082869,None,117.72268579999945,117.72268579999945,117.72268579999945,117.72268579999945,117.72268579999945,117.72268579999945,117.72268579999945,117.72268579999945,,001,P020,2025_May_06_1703,CategoryLocalizer,2021.2.3,59.95904797164072,
67.8,68.0,5,0.0,Stimuli\Blank.png,0,0,0,112,112,112,,,,,,,,,,,,,67.82805740000185,0.02805740000185608,None,118.54009280000173,118.54009280000173,118.54009280000173,118.54009280000173,118.54009280000173,118.54009280000173,118.54009280000173,118.54009280000173,,001,P020,2025_May_06_1703,CategoryLocalizer,2021.2.3,59.95904797164072,
68.0,68.8,4,0.75,Stimuli\ImageFiles-Set1\Scenes\Scenes_015.png,0,0,0,113,113,113,,,,,,,,,,,,,68.029037100001,0.029037100001005456,None,118.75691989999905,118.75691989999905,118.75691989999905,118.75691989999905,118.75691989999905,118.75691989999905,118.75691989999905,118.75691989999905,,001,P020,2025_May_06_1703,CategoryLocalizer,2021.2.3,59.95904797164072,
68.8,69.0,5,0.0,Stimuli\Blank.png,0,0,0,114,114,114,,,,,,,,,,,,,68.84502880000218,0.045028800002185676,None,119.54094069999701,119.54094069999701,119.54094069999701,119.54094069999701,119.54094069999701,119.54094069999701,119.54094069999701,119.54094069999701,,001,P020,2025_May_06_1703,CategoryLocalizer,2021.2.3,59.95904797164072,
69.0,69.8,4,0.75,Stimuli\ImageFiles-Set1\Scenes\Scenes_036.png,0,0,0,115,115,115,,,,,,,,,,,,,69.01128769999923,0.011287699999229517,None,119.74115010000241,119.74115010000241,119.74115010000241,119.74115010000241,119.74115010000241,119.74115010000241,119.74115010000241,119.74115010000241,,001,P020,2025_May_06_1703,CategoryLocalizer,2021.2.3,59.95904797164072,
69.8,70.0,5,0.0,Stimuli\Blank.png,0,0,0,116,116,116,,,,,,,,,,,,,69.8452860000034,0.04528600000340077,None,120.54189980000228,120.54189980000228,120.54189980000228,120.54189980000228,120.54189980000228,120.54189980000228,120.54189980000228,120.54189980000228,,001,P020,2025_May_06_1703,CategoryLocalizer,2021.2.3,59.95904797164072,
70.0,70.8,4,0.75,Stimuli\ImageFiles-Set1\Scenes\Scenes_001.png,0,0,0,117,117,117,,,,,,,,,,,,,70.01241689999733,0.01241689999733353,None,120.7420878999983,120.7420878999983,120.7420878999983,120.7420878999983,120.7420878999983,120.7420878999983,120.7420878999983,120.7420878999983,,001,P020,2025_May_06_1703,CategoryLocalizer,2021.2.3,59.95904797164072,
70.8,71.0,5,0.0,Stimuli\Blank.png,0,0,0,118,118,118,,,,,,,,,,,,,70.84817089999706,0.0481708999970607,None,121.55942650000361,121.55942650000361,121.55942650000361,121.55942650000361,121.55942650000361,121.55942650000361,121.55942650000361,121.55942650000361,,001,P020,2025_May_06_1703,CategoryLocalizer,2021.2.3,59.95904797164072,
71.0,71.8,4,0.75,Stimuli\ImageFiles-Set1\Scenes\Scenes_021.png,1,1,0,119,119,119,,,,,,,,,,,,,71.02989119999984,0.029891199999838136,None,121.74289750000025,121.74289750000025,121.74289750000025,121.74289750000025,121.74289750000025,121.74289750000025,121.74289750000025,121.74289750000025,,001,P020,2025_May_06_1703,CategoryLocalizer,2021.2.3,59.95904797164072,
71.8,72.0,5,0.0,Stimuli\Blank.png,0,0,0,120,120,120,,,,,,,,,,,,,71.83137449999776,0.0313744999977672,None,122.52693349999754,122.52693349999754,122.52693349999754,122.52693349999754,122.52693349999754,122.52693349999754,122.52693349999754,122.52693349999754,,001,P020,2025_May_06_1703,CategoryLocalizer,2021.2.3,59.95904797164072,
72.0,72.8,4,0.75,Stimuli\ImageFiles-Set1\Scenes\Scenes_006.png,0,0,0,121,121,121,,,,,,,,,,,,,72.01399829999718,0.013998299997183494,None,122.7271103000021,122.7271103000021,122.7271103000021,122.7271103000021,122.7271103000021,122.7271103000021,122.7271103000021,122.7271103000021,,001,P020,2025_May_06_1703,CategoryLocalizer,2021.2.3,59.95904797164072,
72.8,73.0,5,0.0,Stimuli\Blank.png,0,0,0,122,122,122,,,,,,,,,,,,,72.83135990000301,0.03135990000301092,None,123.52781790000154,123.52781790000154,123.52781790000154,123.52781790000154,123.52781790000154,123.52781790000154,123.52781790000154,123.52781790000154,,001,P020,2025_May_06_1703,CategoryLocalizer,2021.2.3,59.95904797164072,
73.0,73.8,4,0.75,Stimuli\ImageFiles-Set1\Scenes\Scenes_006.png,0,0,0,123,123,123,,,,,,,,,,,,,73.01469419999921,0.014694199999212287,1,123.71129780000047,123.71129780000047,123.71129780000047,123.71129780000047,123.71129780000047,123.71129780000047,123.71129780000047,123.71129780000047,0.4702733000012813,001,P020,2025_May_06_1703,CategoryLocalizer,2021.2.3,59.95904797164072,
73.8,74.0,5,0.0,Stimuli\Blank.png,0,0,0,124,124,124,,,,,,,,,,,,,73.8149138000008,0.014913800000798005,None,124.51201320000109,124.51201320000109,124.51201320000109,124.51201320000109,124.51201320000109,124.51201320000109,124.51201320000109,124.51201320000109,,001,P020,2025_May_06_1703,CategoryLocalizer,2021.2.3,59.95904797164072,
74.0,74.8,4,0.75,Stimuli\ImageFiles-Set1\Scenes\Scenes_010.png,0,0,0,125,125,125,,,,,,,,,,,,,74.01550139999745,0.015501399997447152,None,124.7455553999971,124.7455553999971,124.7455553999971,124.7455553999971,124.7455553999971,124.7455553999971,124.7455553999971,124.7455553999971,,001,P020,2025_May_06_1703,CategoryLocalizer,2021.2.3,59.95904797164072,
74.8,75.0,5,0.0,Stimuli\Blank.png,0,0,0,126,126,126,,,,,,,,,,,,,74.8337027000016,0.03370270000159792,None,125.52957749999769,125.52957749999769,125.52957749999769,125.52957749999769,125.52957749999769,125.52957749999769,125.52957749999769,125.52957749999769,,001,P020,2025_May_06_1703,CategoryLocalizer,2021.2.3,59.95904797164072,
75.0,75.8,4,0.75,Stimuli\ImageFiles-Set1\Scenes\Scenes_056.png,0,0,0,127,127,127,,,,,,,,,,,,,74.99956360000215,-0.000436399997852277,None,125.71307209999941,125.71307209999941,125.71307209999941,125.71307209999941,125.71307209999941,125.71307209999941,125.71307209999941,125.71307209999941,,001,P020,2025_May_06_1703,CategoryLocalizer,2021.2.3,59.95904797164072,
75.8,76.0,5,0.0,Stimuli\Blank.png,0,0,0,128,128,128,,,,,,,,,,,,,75.81731430000218,0.017314300002183813,None,126.51378839999961,126.51378839999961,126.51378839999961,126.51378839999961,126.51378839999961,126.51378839999961,126.51378839999961,126.51378839999961,,001,P020,2025_May_06_1703,CategoryLocalizer,2021.2.3,59.95904797164072,
76.0,88.0,0,0.0,Stimuli\Blank.png,0,0,0,129,129,129,,,,,,,,,,,,,76.00044940000225,0.00044940000225324184,None,126.6972756000032,126.6972756000032,126.6972756000032,126.6972756000032,126.6972756000032,126.6972756000032,126.6972756000032,126.6972756000032,,001,P020,2025_May_06_1703,CategoryLocalizer,2021.2.3,59.95904797164072,
88.0,88.8,3,0.75,Stimuli\ImageFiles-Set1\Faces\Face_00091.png,0,0,0,130,130,130,,,,,,,,,,,,,88.01397829999769,0.013978299997688737,None,138.74131820000184,138.74131820000184,138.74131820000184,138.74131820000184,138.74131820000184,138.74131820000184,138.74131820000184,138.74131820000184,,001,P020,2025_May_06_1703,CategoryLocalizer,2021.2.3,59.95904797164072,
88.8,89.0,5,0.0,Stimuli\Blank.png,0,0,0,131,131,131,,,,,,,,,,,,,88.8458901999984,0.0458901999983965,None,139.54197659999772,139.54197659999772,139.54197659999772,139.54197659999772,139.54197659999772,139.54197659999772,139.54197659999772,139.54197659999772,,001,P020,2025_May_06_1703,CategoryLocalizer,2021.2.3,59.95904797164072,
89.0,89.8,3,0.75,Stimuli\ImageFiles-Set1\Faces\Face_00018.png,0,0,0,132,132,132,,,,,,,,,,,,,89.01250450000225,0.012504500002251007,None,139.74213289999898,139.74213289999898,139.74213289999898,139.74213289999898,139.74213289999898,139.74213289999898,139.74213289999898,139.74213289999898,,001,P020,2025_May_06_1703,CategoryLocalizer,2021.2.3,59.95904797164072,
89.8,90.0,5,0.0,Stimuli\Blank.png,0,0,0,133,133,133,,,,,,,,,,,,,89.84580650000134,0.04580650000134767,None,140.54293580000376,140.54293580000376,140.54293580000376,140.54293580000376,140.54293580000376,140.54293580000376,140.54293580000376,140.54293580000376,,001,P020,2025_May_06_1703,CategoryLocalizer,2021.2.3,59.95904797164072,
90.0,90.8,3,0.75,Stimuli\ImageFiles-Set1\Faces\Face_00077.png,0,0,0,134,134,134,,,,,,,,,,,,,90.01301070000045,0.013010700000450015,None,140.74307119999867,140.74307119999867,140.74307119999867,140.74307119999867,140.74307119999867,140.74307119999867,140.74307119999867,140.74307119999867,,001,P020,2025_May_06_1703,CategoryLocalizer,2021.2.3,59.95904797164072,
90.8,91.0,5,0.0,Stimuli\Blank.png,0,0,0,135,135,135,,,,,,,,,,,,,90.84770489999937,0.047704899999374106,None,141.54376480000064,141.54376480000064,141.54376480000064,141.54376480000064,141.54376480000064,141.54376480000064,141.54376480000064,141.54376480000064,,001,P020,2025_May_06_1703,CategoryLocalizer,2021.2.3,59.95904797164072,
91.0,91.8,3,0.75,Stimuli\ImageFiles-Set1\Faces\Face_00119.png,0,0,0,136,136,136,,,,,,,,,,,,,91.01460750000115,0.014607500001147855,None,141.74394380000012,141.74394380000012,141.74394380000012,141.74394380000012,141.74394380000012,141.74394380000012,141.74394380000012,141.74394380000012,,001,P020,2025_May_06_1703,CategoryLocalizer,2021.2.3,59.95904797164072,
91.8,92.0,5,0.0,Stimuli\Blank.png,0,0,0,137,137,137,,,,,,,,,,,,,91.84909340000013,0.04909340000013174,None,142.54467780000414,142.54467780000414,142.54467780000414,142.54467780000414,142.54467780000414,142.54467780000414,142.54467780000414,142.54467780000414,,001,P020,2025_May_06_1703,CategoryLocalizer,2021.2.3,59.95904797164072,
92.0,92.8,3,0.75,Stimuli\ImageFiles-Set1\Faces\Face_00020.png,0,0,0,138,138,138,,,,,,,,,,,,,91.99939060000179,-0.0006093999982113019,None,142.72813640000095,142.72813640000095,142.72813640000095,142.72813640000095,142.72813640000095,142.72813640000095,142.72813640000095,142.72813640000095,,001,P020,2025_May_06_1703,CategoryLocalizer,2021.2.3,59.95904797164072,
92.8,93.0,5,0.0,Stimuli\Blank.png,0,0,0,139,139,139,,,,,,,,,,,,,92.83279870000115,0.032798700001151815,None,143.52885100000276,143.52885100000276,143.52885100000276,143.52885100000276,143.52885100000276,143.52885100000276,143.52885100000276,143.52885100000276,,001,P020,2025_May_06_1703,CategoryLocalizer,2021.2.3,59.95904797164072,
93.0,93.8,3,0.75,Stimuli\ImageFiles-Set1\Faces\Face_00031.png,0,0,0,140,140,140,,,,,,,,,,,,,92.99920060000295,-0.000799399997049477,None,143.71230880000076,143.71230880000076,143.71230880000076,143.71230880000076,143.71230880000076,143.71230880000076,143.71230880000076,143.71230880000076,,001,P020,2025_May_06_1703,CategoryLocalizer,2021.2.3,59.95904797164072,
93.8,94.0,5,0.0,Stimuli\Blank.png,0,0,0,141,141,141,,,,,,,,,,,,,93.81739099999686,0.017390999996862888,None,144.51304740000342,144.51304740000342,144.51304740000342,144.51304740000342,144.51304740000342,144.51304740000342,144.51304740000342,144.51304740000342,,001,P020,2025_May_06_1703,CategoryLocalizer,2021.2.3,59.95904797164072,
94.0,94.8,3,0.75,Stimuli\ImageFiles-Set1\Faces\Face_00063.png,0,0,0,142,142,142,,,,,,,,,,,,,93.99957500000164,-0.00042499999835854396,None,144.71318500000052,144.71318500000052,144.71318500000052,144.71318500000052,144.71318500000052,144.71318500000052,144.71318500000052,144.71318500000052,,001,P020,2025_May_06_1703,CategoryLocalizer,2021.2.3,59.95904797164072,
94.8,95.0,5,0.0,Stimuli\Blank.png,0,0,0,143,143,143,,,,,,,,,,,,,94.81811400000151,0.01811400000151764,None,145.513933299997,145.513933299997,145.513933299997,145.513933299997,145.513933299997,145.513933299997,145.513933299997,145.513933299997,,001,P020,2025_May_06_1703,CategoryLocalizer,2021.2.3,59.95904797164072,
95.0,95.8,3,0.75,Stimuli\ImageFiles-Set1\Faces\Face_00085.png,0,0,0,144,144,144,,,,,,,,,,,,,95.0030506999974,0.003050699997402262,None,145.73079580000194,145.73079580000194,145.73079580000194,145.73079580000194,145.73079580000194,145.73079580000194,145.73079580000194,145.73079580000194,,001,P020,2025_May_06_1703,CategoryLocalizer,2021.2.3,59.95904797164072,
95.8,96.0,5,0.0,Stimuli\Blank.png,0,0,0,145,145,145,,,,,,,,,,,,,95.8345724000028,0.03457240000280137,None,146.5314997000023,146.5314997000023,146.5314997000023,146.5314997000023,146.5314997000023,146.5314997000023,146.5314997000023,146.5314997000023,,001,P020,2025_May_06_1703,CategoryLocalizer,2021.2.3,59.95904797164072,
96.0,96.8,3,0.75,Stimuli\ImageFiles-Set1\Faces\Face_00037.png,0,0,0,146,146,146,,,,,,,,,,,,,96.00179899999785,0.0017989999978453852,None,146.73168760000408,146.73168760000408,146.73168760000408,146.73168760000408,146.73168760000408,146.73168760000408,146.73168760000408,146.73168760000408,,001,P020,2025_May_06_1703,CategoryLocalizer,2021.2.3,59.95904797164072,
96.8,97.0,5,0.0,Stimuli\Blank.png,0,0,0,147,147,147,,,,,,,,,,,,,96.83764130000054,0.03764130000054422,None,147.54907619999722,147.54907619999722,147.54907619999722,147.54907619999722,147.54907619999722,147.54907619999722,147.54907619999722,147.54907619999722,,001,P020,2025_May_06_1703,CategoryLocalizer,2021.2.3,59.95904797164072,
97.0,97.8,3,0.75,Stimuli\ImageFiles-Set1\Faces\Face_00005.png,0,0,0,148,148,148,,,,,,,,,,,,,97.01922159999958,0.019221599999582395,None,147.74924509999983,147.74924509999983,147.74924509999983,147.74924509999983,147.74924509999983,147.74924509999983,147.74924509999983,147.74924509999983,,001,P020,2025_May_06_1703,CategoryLocalizer,2021.2.3,59.95904797164072,
97.8,98.0,5,0.0,Stimuli\Blank.png,0,0,0,149,149,149,,,,,,,,,,,,,97.83734930000355,0.037349300003555186,None,148.53327130000253,148.53327130000253,148.53327130000253,148.53327130000253,148.53327130000253,148.53327130000253,148.53327130000253,148.53327130000253,,001,P020,2025_May_06_1703,CategoryLocalizer,2021.2.3,59.95904797164072,
98.0,98.8,3,0.75,Stimuli\ImageFiles-Set1\Faces\Face_00111.png,0,0,0,150,150,150,,,,,,,,,,,,,98.00342429999728,0.003424299997277558,None,148.71678139999858,148.71678139999858,148.71678139999858,148.71678139999858,148.71678139999858,148.71678139999858,148.71678139999858,148.71678139999858,,001,P020,2025_May_06_1703,CategoryLocalizer,2021.2.3,59.95904797164072,
98.8,99.0,5,0.0,Stimuli\Blank.png,0,0,0,151,151,151,,,,,,,,,,,,,98.82303279999905,0.02303279999905783,None,149.53416740000102,149.53416740000102,149.53416740000102,149.53416740000102,149.53416740000102,149.53416740000102,149.53416740000102,149.53416740000102,,001,P020,2025_May_06_1703,CategoryLocalizer,2021.2.3,59.95904797164072,
99.0,99.8,3,0.75,Stimuli\ImageFiles-Set1\Faces\Face_00035.png,0,0,0,152,152,152,,,,,,,,,,,,,99.02299759999732,0.02299759999732487,None,149.7510173999981,149.7510173999981,149.7510173999981,149.7510173999981,149.7510173999981,149.7510173999981,149.7510173999981,149.7510173999981,,001,P020,2025_May_06_1703,CategoryLocalizer,2021.2.3,59.95904797164072,
99.8,100.0,5,0.0,Stimuli\Blank.png,0,0,0,153,153,153,,,,,,,,,,,,,99.83816900000238,0.03816900000238377,None,150.5350393999979,150.5350393999979,150.5350393999979,150.5350393999979,150.5350393999979,150.5350393999979,150.5350393999979,150.5350393999979,,001,P020,2025_May_06_1703,CategoryLocalizer,2021.2.3,59.95904797164072,
100.0,100.8,3,0.75,Stimuli\ImageFiles-Set1\Faces\Face_00087.png,0,0,0,154,154,154,,,,,,,,,,,,,100.00555139999778,0.005551399997784756,None,150.71856069999922,150.71856069999922,150.71856069999922,150.71856069999922,150.71856069999922,150.71856069999922,150.71856069999922,150.71856069999922,,001,P020,2025_May_06_1703,CategoryLocalizer,2021.2.3,59.95904797164072,
100.8,101.0,5,0.0,Stimuli\Blank.png,0,0,0,155,155,155,,,,,,,,,,,,,100.82271860000037,0.022718600000374067,None,151.51925130000018,151.51925130000018,151.51925130000018,151.51925130000018,151.51925130000018,151.51925130000018,151.51925130000018,151.51925130000018,,001,P020,2025_May_06_1703,CategoryLocalizer,2021.2.3,59.95904797164072,
101.0,101.8,3,0.75,Stimuli\ImageFiles-Set1\Faces\Face_00087.png,1,1,0,156,156,156,,,,,,,,,,,,,101.00557359999948,0.005573599999479484,None,151.702735699997,151.702735699997,151.702735699997,151.702735699997,151.702735699997,151.702735699997,151.702735699997,151.702735699997,,001,P020,2025_May_06_1703,CategoryLocalizer,2021.2.3,59.95904797164072,
101.8,102.0,5,0.0,Stimuli\Blank.png,0,0,0,157,157,157,,,,,,,,,,,,,101.80818200000067,0.008182000000672929,None,152.52015160000155,152.52015160000155,152.52015160000155,152.52015160000155,152.52015160000155,152.52015160000155,152.52015160000155,152.52015160000155,,001,P020,2025_May_06_1703,CategoryLocalizer,2021.2.3,59.95904797164072,
102.0,102.8,3,0.75,Stimuli\ImageFiles-Set1\Faces\Face_00045.png,0,0,0,158,158,158,,,,,,,,,,,,,102.02383209999971,0.02383209999970859,1,152.73698960000183,152.73698960000183,152.73698960000183,152.73698960000183,152.73698960000183,152.73698960000183,152.73698960000183,152.73698960000183,0.023819100002583582,001,P020,2025_May_06_1703,CategoryLocalizer,2021.2.3,59.95904797164072,
102.8,103.0,5,0.0,Stimuli\Blank.png,0,0,0,159,159,159,,,,,,,,,,,,,102.82404870000028,0.0240487000002787,None,153.5210231000019,153.5210231000019,153.5210231000019,153.5210231000019,153.5210231000019,153.5210231000019,153.5210231000019,153.5210231000019,,001,P020,2025_May_06_1703,CategoryLocalizer,2021.2.3,59.95904797164072,
103.0,103.8,3,0.75,Stimuli\ImageFiles-Set1\Faces\Face_00025.png,0,0,0,160,160,160,,,,,,,,,,,,,103.0075721999965,0.007572199996502604,None,153.7211903999996,153.7211903999996,153.7211903999996,153.7211903999996,153.7211903999996,153.7211903999996,153.7211903999996,153.7211903999996,,001,P020,2025_May_06_1703,CategoryLocalizer,2021.2.3,59.95904797164072,
103.8,104.0,5,0.0,Stimuli\Blank.png,0,0,0,161,161,161,,,,,,,,,,,,,103.82628200000181,0.0262820000018138,None,154.52191129999846,154.52191129999846,154.52191129999846,154.52191129999846,154.52191129999846,154.52191129999846,154.52191129999846,154.52191129999846,,001,P020,2025_May_06_1703,CategoryLocalizer,2021.2.3,59.95904797164072,
104.0,104.8,1,0.75,Stimuli\ImageFiles-Set1\Objects\Object_Football_00001.png,0,0,0,162,162,162,,,,,,,,,,,,,104.00905339999736,0.009053399997355882,None,154.73877019999782,154.73877019999782,154.73877019999782,154.73877019999782,154.73877019999782,154.73877019999782,154.73877019999782,154.73877019999782,,001,P020,2025_May_06_1703,CategoryLocalizer,2021.2.3,59.95904797164072,
104.8,105.0,5,0.0,Stimuli\Blank.png,0,0,0,163,163,163,,,,,,,,,,,,,104.84282410000014,0.04282410000014636,None,155.5394937000019,155.5394937000019,155.5394937000019,155.5394937000019,155.5394937000019,155.5394937000019,155.5394937000019,155.5394937000019,,001,P020,2025_May_06_1703,CategoryLocalizer,2021.2.3,59.95904797164072,
105.0,105.8,1,0.75,Stimuli\ImageFiles-Set1\Objects\Object_ShoppingCart_00001.png,0,0,0,164,164,164,,,,,,,,,,,,,105.01013149999926,0.010131499999260996,None,155.7062853000025,155.7062853000025,155.7062853000025,155.7062853000025,155.7062853000025,155.7062853000025,155.7062853000025,155.7062853000025,,001,P020,2025_May_06_1703,CategoryLocalizer,2021.2.3,59.95904797164072,
105.8,106.0,5,0.0,Stimuli\Blank.png,0,0,0,165,165,165,,,,,,,,,,,,,105.81063230000291,0.01063230000291071,None,156.5070412999994,156.5070412999994,156.5070412999994,156.5070412999994,156.5070412999994,156.5070412999994,156.5070412999994,156.5070412999994,,001,P020,2025_May_06_1703,CategoryLocalizer,2021.2.3,59.95904797164072,
106.0,106.8,1,0.75,Stimuli\ImageFiles-Set1\Objects\Object_Stool_00001.png,0,0,0,166,166,166,,,,,,,,,,,,,106.01018080000358,0.01018080000358168,None,156.72450550000212,156.72450550000212,156.72450550000212,156.72450550000212,156.72450550000212,156.72450550000212,156.72450550000212,156.72450550000212,,001,P020,2025_May_06_1703,CategoryLocalizer,2021.2.3,59.95904797164072,
106.8,107.0,5,0.0,Stimuli\Blank.png,0,0,0,167,167,167,,,,,,,,,,,,,106.82755010000255,0.027550100002557087,None,157.52455120000377,157.52455120000377,157.52455120000377,157.52455120000377,157.52455120000377,157.52455120000377,157.52455120000377,157.52455120000377,,001,P020,2025_May_06_1703,CategoryLocalizer,2021.2.3,59.95904797164072,
107.0,107.8,1,0.75,Stimuli\ImageFiles-Set1\Objects\Object_Airplane_00001.png,0,0,0,168,168,168,,,,,,,,,,,,,107.01182910000352,0.011829100003524218,None,157.72473210000317,157.72473210000317,157.72473210000317,157.72473210000317,157.72473210000317,157.72473210000317,157.72473210000317,157.72473210000317,,001,P020,2025_May_06_1703,CategoryLocalizer,2021.2.3,59.95904797164072,
107.8,108.0,5,0.0,Stimuli\Blank.png,0,0,0,169,169,169,,,,,,,,,,,,,107.82891650000238,0.02891650000238144,None,158.52545700000337,158.52545700000337,158.52545700000337,158.52545700000337,158.52545700000337,158.52545700000337,158.52545700000337,158.52545700000337,,001,P020,2025_May_06_1703,CategoryLocalizer,2021.2.3,59.95904797164072,
108.0,108.8,1,0.75,Stimuli\ImageFiles-Set1\Objects\Object_Table_00001.png,0,0,0,170,170,170,,,,,,,,,,,,,108.01183760000276,0.011837600002763793,None,158.72563829999854,158.72563829999854,158.72563829999854,158.72563829999854,158.72563829999854,158.72563829999854,158.72563829999854,158.72563829999854,,001,P020,2025_May_06_1703,CategoryLocalizer,2021.2.3,59.95904797164072,
108.8,109.0,5,0.0,Stimuli\Blank.png,0,0,0,171,171,171,,,,,,,,,,,,,108.82980559999851,0.029805599998510957,None,159.52632489999814,159.52632489999814,159.52632489999814,159.52632489999814,159.52632489999814,159.52632489999814,159.52632489999814,159.52632489999814,,001,P020,2025_May_06_1703,CategoryLocalizer,2021.2.3,59.95904797164072,
109.0,109.8,1,0.75,Stimuli\ImageFiles-Set1\Objects\Object_Wagon_00001.png,0,0,0,172,172,172,,,,,,,,,,,,,109.01343769999949,0.01343769999948563,None,159.74318669999775,159.74318669999775,159.74318669999775,159.74318669999775,159.74318669999775,159.74318669999775,159.74318669999775,159.74318669999775,,001,P020,2025_May_06_1703,CategoryLocalizer,2021.2.3,59.95904797164072,
109.8,110.0,5,0.0,Stimuli\Blank.png,0,0,0,173,173,173,,,,,,,,,,,,,109.84739799999807,0.047397999998068485,None,160.5439200000037,160.5439200000037,160.5439200000037,160.5439200000037,160.5439200000037,160.5439200000037,160.5439200000037,160.5439200000037,,001,P020,2025_May_06_1703,CategoryLocalizer,2021.2.3,59.95904797164072,
110.0,110.8,1,0.75,Stimuli\ImageFiles-Set1\Objects\Object_Book_00001.png,0,0,0,174,174,174,,,,,,,,,,,,,110.01472130000184,0.014721300001838244,None,160.72738720000052,160.72738720000052,160.72738720000052,160.72738720000052,160.72738720000052,160.72738720000052,160.72738720000052,160.72738720000052,,001,P020,2025_May_06_1703,CategoryLocalizer,2021.2.3,59.95904797164072,
110.8,111.0,5,0.0,Stimuli\Blank.png,0,0,0,175,175,175,,,,,,,,,,,,,110.83286750000116,0.03286750000116001,None,161.54478940000263,161.54478940000263,161.54478940000263,161.54478940000263,161.54478940000263,161.54478940000263,161.54478940000263,161.54478940000263,,001,P020,2025_May_06_1703,CategoryLocalizer,2021.2.3,59.95904797164072,
111.0,111.8,1,0.75,Stimuli\ImageFiles-Set1\Objects\Object_Apple_00001.png,0,0,0,176,176,176,,,,,,,,,,,,,111.01447850000113,0.014478500001132488,None,161.7449925999972,161.7449925999972,161.7449925999972,161.7449925999972,161.7449925999972,161.7449925999972,161.7449925999972,161.7449925999972,,001,P020,2025_May_06_1703,CategoryLocalizer,2021.2.3,59.95904797164072,
111.8,112.0,5,0.0,Stimuli\Blank.png,0,0,0,177,177,177,,,,,,,,,,,,,111.84914130000107,0.04914130000106809,None,162.5456720000002,162.5456720000002,162.5456720000002,162.5456720000002,162.5456720000002,162.5456720000002,162.5456720000002,162.5456720000002,,001,P020,2025_May_06_1703,CategoryLocalizer,2021.2.3,59.95904797164072,
112.0,112.8,1,0.75,Stimuli\ImageFiles-Set1\Objects\Object_Bench_00001.png,0,0,0,178,178,178,,,,,,,,,,,,,111.99891970000317,-0.001080299996829126,None,162.7124982000023,162.7124982000023,162.7124982000023,162.7124982000023,162.7124982000023,162.7124982000023,162.7124982000023,162.7124982000023,,001,P020,2025_May_06_1703,CategoryLocalizer,2021.2.3,59.95904797164072,
112.8,113.0,5,0.0,Stimuli\Blank.png,0,0,0,179,179,179,,,,,,,,,,,,,112.81876400000328,0.01876400000328715,None,163.52988280000136,163.52988280000136,163.52988280000136,163.52988280000136,163.52988280000136,163.52988280000136,163.52988280000136,163.52988280000136,,001,P020,2025_May_06_1703,CategoryLocalizer,2021.2.3,59.95904797164072,
113.0,113.8,1,0.75,Stimuli\ImageFiles-Set1\Objects\Object_Bench_00001.png,1,1,0,180,180,180,,,,,,,,,,,,,113.01897959999769,0.018979599997692276,1,163.73005730000295,163.73005730000295,163.73005730000295,163.73005730000295,163.73005730000295,163.73005730000295,163.73005730000295,163.73005730000295,0.6014795000010054,001,P020,2025_May_06_1703,CategoryLocalizer,2021.2.3,59.95904797164072,
113.8,114.0,5,0.0,Stimuli\Blank.png,0,0,0,181,181,181,,,,,,,,,,,,,113.81697359999816,0.016973599998166833,None,164.5140726000027,164.5140726000027,164.5140726000027,164.5140726000027,164.5140726000027,164.5140726000027,164.5140726000027,164.5140726000027,,001,P020,2025_May_06_1703,CategoryLocalizer,2021.2.3,59.95904797164072,
114.0,114.8,1,0.75,Stimuli\ImageFiles-Set1\Objects\Object_Lamp_00001.png,0,0,0,182,182,182,,,,,,,,,,,,,114.00092020000011,0.0009202000001096167,None,164.69757260000188,164.69757260000188,164.69757260000188,164.69757260000188,164.69757260000188,164.69757260000188,164.69757260000188,164.69757260000188,,001,P020,2025_May_06_1703,CategoryLocalizer,2021.2.3,59.95904797164072,
114.8,115.0,5,0.0,Stimuli\Blank.png,0,0,0,183,183,183,,,,,,,,,,,,,114.80307280000125,0.0030728000012487655,None,165.5149711999984,165.5149711999984,165.5149711999984,165.5149711999984,165.5149711999984,165.5149711999984,165.5149711999984,165.5149711999984,,001,P020,2025_May_06_1703,CategoryLocalizer,2021.2.3,59.95904797164072,
115.0,115.8,1,0.75,Stimuli\ImageFiles-Set1\Objects\Object_Peanut_00001.png,0,0,0,184,184,184,,,,,,,,,,,,,115.01803340000333,0.018033400003332645,None,165.7318396999981,165.7318396999981,165.7318396999981,165.7318396999981,165.7318396999981,165.7318396999981,165.7318396999981,165.7318396999981,,001,P020,2025_May_06_1703,CategoryLocalizer,2021.2.3,59.95904797164072,
115.8,116.0,5,0.0,Stimuli\Blank.png,0,0,0,185,185,185,,,,,,,,,,,,,115.81928550000157,0.019285500001572586,None,166.51584900000307,166.51584900000307,166.51584900000307,166.51584900000307,166.51584900000307,166.51584900000307,166.51584900000307,166.51584900000307,,001,P020,2025_May_06_1703,CategoryLocalizer,2021.2.3,59.95904797164072,
116.0,116.8,1,0.75,Stimuli\ImageFiles-Set1\Objects\Object_Hammer_00001.png,0,0,0,186,186,186,,,,,,,,,,,,,116.00294279999798,0.0029427999979816377,None,166.732723000001,166.732723000001,166.732723000001,166.732723000001,166.732723000001,166.732723000001,166.732723000001,166.732723000001,,001,P020,2025_May_06_1703,CategoryLocalizer,2021.2.3,59.95904797164072,
116.8,117.0,5,0.0,Stimuli\Blank.png,0,0,0,187,187,187,,,,,,,,,,,,,116.83742250000068,0.037422500000687364,None,167.533471499999,167.533471499999,167.533471499999,167.533471499999,167.533471499999,167.533471499999,167.533471499999,167.533471499999,,001,P020,2025_May_06_1703,CategoryLocalizer,2021.2.3,59.95904797164072,
117.0,117.8,1,0.75,Stimuli\ImageFiles-Set1\Objects\Object_Dice_00001.png,0,0,0,188,188,188,,,,,,,,,,,,,117.00433959999646,0.004339599996455945,None,167.73360060000414,167.73360060000414,167.73360060000414,167.73360060000414,167.73360060000414,167.73360060000414,167.73360060000414,167.73360060000414,,001,P020,2025_May_06_1703,CategoryLocalizer,2021.2.3,59.95904797164072,
117.8,118.0,5,0.0,Stimuli\Blank.png,0,0,0,189,189,189,,,,,,,,,,,,,117.83720509999694,0.037205099996938884,None,168.53429399999732,168.53429399999732,168.53429399999732,168.53429399999732,168.53429399999732,168.53429399999732,168.53429399999732,168.53429399999732,,001,P020,2025_May_06_1703,CategoryLocalizer,2021.2.3,59.95904797164072,
118.0,118.8,1,0.75,Stimuli\ImageFiles-Set1\Objects\Object_Nightstand_00001.png,0,0,0,190,190,190,,,,,,,,,,,,,118.00476840000192,0.004768400001921691,None,168.7178053000025,168.7178053000025,168.7178053000025,168.7178053000025,168.7178053000025,168.7178053000025,168.7178053000025,168.7178053000025,,001,P020,2025_May_06_1703,CategoryLocalizer,2021.2.3,59.95904797164072,
118.8,119.0,5,0.0,Stimuli\Blank.png,0,0,0,191,191,191,,,,,,,,,,,,,118.82478629999969,0.02478629999968973,None,169.53518379999878,169.53518379999878,169.53518379999878,169.53518379999878,169.53518379999878,169.53518379999878,169.53518379999878,169.53518379999878,,001,P020,2025_May_06_1703,CategoryLocalizer,2021.2.3,59.95904797164072,
119.0,119.8,1,0.75,Stimuli\ImageFiles-Set1\Objects\Object_IroningBoard_00001.png,0,0,0,192,192,192,,,,,,,,,,,,,119.02237730000343,0.02237730000342708,None,169.75205149999965,169.75205149999965,169.75205149999965,169.75205149999965,169.75205149999965,169.75205149999965,169.75205149999965,169.75205149999965,,001,P020,2025_May_06_1703,CategoryLocalizer,2021.2.3,59.95904797164072,
119.8,120.0,5,0.0,Stimuli\Blank.png,0,0,0,193,193,193,,,,,,,,,,,,,119.83902449999732,0.039024499997324824,None,170.53606600000057,170.53606600000057,170.53606600000057,170.53606600000057,170.53606600000057,170.53606600000057,170.53606600000057,170.53606600000057,,001,P020,2025_May_06_1703,CategoryLocalizer,2021.2.3,59.95904797164072,
120.0,120.8,4,0.75,Stimuli\ImageFiles-Set1\Scenes\Scenes_051.png,0,0,0,194,194,194,,,,,,,,,,,,,120.00571749999654,0.00571749999653548,None,170.7195767000012,170.7195767000012,170.7195767000012,170.7195767000012,170.7195767000012,170.7195767000012,170.7195767000012,170.7195767000012,,001,P020,2025_May_06_1703,CategoryLocalizer,2021.2.3,59.95904797164072,
120.8,121.0,5,0.0,Stimuli\Blank.png,0,0,0,195,195,195,,,,,,,,,,,,,120.8237786000027,0.023778600002700045,None,171.5202900000004,171.5202900000004,171.5202900000004,171.5202900000004,171.5202900000004,171.5202900000004,171.5202900000004,171.5202900000004,,001,P020,2025_May_06_1703,CategoryLocalizer,2021.2.3,59.95904797164072,
121.0,121.8,4,0.75,Stimuli\ImageFiles-Set1\Scenes\Scenes_020.png,0,0,0,196,196,196,,,,,,,,,,,,,121.00850860000355,0.008508600003551692,None,171.7204617000025,171.7204617000025,171.7204617000025,171.7204617000025,171.7204617000025,171.7204617000025,171.7204617000025,171.7204617000025,,001,P020,2025_May_06_1703,CategoryLocalizer,2021.2.3,59.95904797164072,
121.8,122.0,5,0.0,Stimuli\Blank.png,0,0,0,197,197,197,,,,,,,,,,,,,121.82459380000364,0.024593800003643196,None,172.52116999999998,172.52116999999998,172.52116999999998,172.52116999999998,172.52116999999998,172.52116999999998,172.52116999999998,172.52116999999998,,001,P020,2025_May_06_1703,CategoryLocalizer,2021.2.3,59.95904797164072,
122.0,122.8,4,0.75,Stimuli\ImageFiles-Set1\Scenes\Scenes_023.png,0,0,0,198,198,198,,,,,,,,,,,,,122.00813729999936,0.008137299999361858,None,172.73805030000221,172.73805030000221,172.73805030000221,172.73805030000221,172.73805030000221,172.73805030000221,172.73805030000221,172.73805030000221,,001,P020,2025_May_06_1703,CategoryLocalizer,2021.2.3,59.95904797164072,
122.8,123.0,5,0.0,Stimuli\Blank.png,0,0,0,199,199,199,,,,,,,,,,,,,122.84386929999891,0.0438692999989172,None,173.55541639999865,173.55541639999865,173.55541639999865,173.55541639999865,173.55541639999865,173.55541639999865,173.55541639999865,173.55541639999865,,001,P020,2025_May_06_1703,CategoryLocalizer,2021.2.3,59.95904797164072,
123.0,123.8,4,0.75,Stimuli\ImageFiles-Set1\Scenes\Scenes_023.png,1,1,0,200,200,200,,,,,,,,,,,,,123.02570549999655,0.025705499996547587,1,173.7222225000005,173.7222225000005,173.7222225000005,173.7222225000005,173.7222225000005,173.7222225000005,173.7222225000005,173.7222225000005,0.7314637000017683,001,P020,2025_May_06_1703,CategoryLocalizer,2021.2.3,59.95904797164072,
123.8,124.0,5,0.0,Stimuli\Blank.png,0,0,0,201,201,201,,,,,,,,,,,,,123.80918720000045,0.009187200000454254,None,174.5062334000031,174.5062334000031,174.5062334000031,174.5062334000031,174.5062334000031,174.5062334000031,174.5062334000031,174.5062334000031,,001,P020,2025_May_06_1703,CategoryLocalizer,2021.2.3,59.95904797164072,
124.0,124.8,4,0.75,Stimuli\ImageFiles-Set1\Scenes\Scenes_040.png,0,0,0,202,202,202,,,,,,,,,,,,,124.00953260000097,0.00953260000096634,None,174.72307939999882,174.72307939999882,174.72307939999882,174.72307939999882,174.72307939999882,174.72307939999882,174.72307939999882,174.72307939999882,,001,P020,2025_May_06_1703,CategoryLocalizer,2021.2.3,59.95904797164072,
124.8,125.0,5,0.0,Stimuli\Blank.png,0,0,0,203,203,203,,,,,,,,,,,,,124.82752199999959,0.027521999999592595,None,175.52378060000046,175.52378060000046,175.52378060000046,175.52378060000046,175.52378060000046,175.52378060000046,175.52378060000046,175.52378060000046,,001,P020,2025_May_06_1703,CategoryLocalizer,2021.2.3,59.95904797164072,
125.0,125.8,4,0.75,Stimuli\ImageFiles-Set1\Scenes\Scenes_060.png,0,0,0,204,204,204,,,,,,,,,,,,,125.01019819999783,0.01019819999783067,None,175.72399009999936,175.72399009999936,175.72399009999936,175.72399009999936,175.72399009999936,175.72399009999936,175.72399009999936,175.72399009999936,,001,P020,2025_May_06_1703,CategoryLocalizer,2021.2.3,59.95904797164072,
125.8,126.0,5,0.0,Stimuli\Blank.png,0,0,0,205,205,205,,,,,,,,,,,,,125.82813280000119,0.02813280000118823,None,176.52470760000142,176.52470760000142,176.52470760000142,176.52470760000142,176.52470760000142,176.52470760000142,176.52470760000142,176.52470760000142,,001,P020,2025_May_06_1703,CategoryLocalizer,2021.2.3,59.95904797164072,
126.0,126.8,4,0.75,Stimuli\ImageFiles-Set1\Scenes\Scenes_004.png,0,0,0,206,206,206,,,,,,,,,,,,,126.01141009999992,0.01141009999992093,None,176.72491260000243,176.72491260000243,176.72491260000243,176.72491260000243,176.72491260000243,176.72491260000243,176.72491260000243,176.72491260000243,,001,P020,2025_May_06_1703,CategoryLocalizer,2021.2.3,59.95904797164072,
126.8,127.0,5,0.0,Stimuli\Blank.png,0,0,0,207,207,207,,,,,,,,,,,,,126.82949190000363,0.02949190000363444,None,177.52559230000043,177.52559230000043,177.52559230000043,177.52559230000043,177.52559230000043,177.52559230000043,177.52559230000043,177.52559230000043,,001,P020,2025_May_06_1703,CategoryLocalizer,2021.2.3,59.95904797164072,
127.0,127.8,4,0.75,Stimuli\ImageFiles-Set1\Scenes\Scenes_025.png,0,0,0,208,208,208,,,,,,,,,,,,,127.01246610000089,0.012466100000892766,None,177.742456400003,177.742456400003,177.742456400003,177.742456400003,177.742456400003,177.742456400003,177.742456400003,177.742456400003,,001,P020,2025_May_06_1703,CategoryLocalizer,2021.2.3,59.95904797164072,
127.8,128.0,5,0.0,Stimuli\Blank.png,0,0,0,209,209,209,,,,,,,,,,,,,127.84728300000279,0.04728300000279262,None,178.54316310000286,178.54316310000286,178.54316310000286,178.54316310000286,178.54316310000286,178.54316310000286,178.54316310000286,178.54316310000286,,001,P020,2025_May_06_1703,CategoryLocalizer,2021.2.3,59.95904797164072,
128.0,128.8,4,0.75,Stimuli\ImageFiles-Set1\Scenes\Scenes_012.png,1,1,0,210,210,210,,,,,,,,,,,,,128.01311300000089,0.013113000000885222,None,178.7433211000025,178.7433211000025,178.7433211000025,178.7433211000025,178.7433211000025,178.7433211000025,178.7433211000025,178.7433211000025,,001,P020,2025_May_06_1703,CategoryLocalizer,2021.2.3,59.95904797164072,
128.8,129.0,5,0.0,Stimuli\Blank.png,0,0,0,211,211,211,,,,,,,,,,,,,128.84768169999734,0.04768169999732663,None,179.54404619999696,179.54404619999696,179.54404619999696,179.54404619999696,179.54404619999696,179.54404619999696,179.54404619999696,179.54404619999696,,001,P020,2025_May_06_1703,CategoryLocalizer,2021.2.3,59.95904797164072,
129.0,129.8,4,0.75,Stimuli\ImageFiles-Set1\Scenes\Scenes_031.png,0,0,0,212,212,212,,,,,,,,,,,,,129.01423500000237,0.014235000002372544,None,179.74422990000312,179.74422990000312,179.74422990000312,179.74422990000312,179.74422990000312,179.74422990000312,179.74422990000312,179.74422990000312,,001,P020,2025_May_06_1703,CategoryLocalizer,2021.2.3,59.95904797164072,
129.8,130.0,5,0.0,Stimuli\Blank.png,0,0,0,213,213,213,,,,,,,,,,,,,129.84853940000175,0.048539400001743616,None,180.5449327000024,180.5449327000024,180.5449327000024,180.5449327000024,180.5449327000024,180.5449327000024,180.5449327000024,180.5449327000024,,001,P020,2025_May_06_1703,CategoryLocalizer,2021.2.3,59.95904797164072,
130.0,130.8,4,0.75,Stimuli\ImageFiles-Set1\Scenes\Scenes_031.png,0,0,0,214,214,214,,,,,,,,,,,,,130.01462049999827,0.014620499998272862,1,180.7117670000007,180.7117670000007,180.7117670000007,180.7117670000007,180.7117670000007,180.7117670000007,180.7117670000007,180.7117670000007,0.6668572000053246,001,P020,2025_May_06_1703,CategoryLocalizer,2021.2.3,59.95904797164072,
130.8,131.0,5,0.0,Stimuli\Blank.png,0,0,0,215,215,215,,,,,,,,,,,,,130.81820359999983,0.018203599999822018,None,181.5291356000016,181.5291356000016,181.5291356000016,181.5291356000016,181.5291356000016,181.5291356000016,181.5291356000016,181.5291356000016,,001,P020,2025_May_06_1703,CategoryLocalizer,2021.2.3,59.95904797164072,
131.0,131.8,4,0.75,Stimuli\ImageFiles-Set1\Scenes\Scenes_008.png,0,0,0,216,216,216,,,,,,,,,,,,,131.01553089999652,0.01553089999652002,None,181.7460132999986,181.7460132999986,181.7460132999986,181.7460132999986,181.7460132999986,181.7460132999986,181.7460132999986,181.7460132999986,,001,P020,2025_May_06_1703,CategoryLocalizer,2021.2.3,59.95904797164072,
131.8,132.0,5,0.0,Stimuli\Blank.png,0,0,0,217,217,217,,,,,,,,,,,,,131.8344339999967,0.03443399999667918,None,182.5300423000008,182.5300423000008,182.5300423000008,182.5300423000008,182.5300423000008,182.5300423000008,182.5300423000008,182.5300423000008,,001,P020,2025_May_06_1703,CategoryLocalizer,2021.2.3,59.95904797164072,
132.0,132.8,4,0.75,Stimuli\ImageFiles-Set1\Scenes\Scenes_057.png,0,0,0,218,218,218,,,,,,,,,,,,,131.99991050000244,-8.949999755714089e-05,None,182.7135122000036,182.7135122000036,182.7135122000036,182.7135122000036,182.7135122000036,182.7135122000036,182.7135122000036,182.7135122000036,,001,P020,2025_May_06_1703,CategoryLocalizer,2021.2.3,59.95904797164072,
132.8,133.0,5,0.0,Stimuli\Blank.png,0,0,0,219,219,219,,,,,,,,,,,,,132.81707710000046,0.017077100000449263,None,183.51421850000042,183.51421850000042,183.51421850000042,183.51421850000042,183.51421850000042,183.51421850000042,183.51421850000042,183.51421850000042,,001,P020,2025_May_06_1703,CategoryLocalizer,2021.2.3,59.95904797164072,
133.0,133.8,4,0.75,Stimuli\ImageFiles-Set1\Scenes\Scenes_047.png,0,0,0,220,220,220,,,,,,,,,,,,,133.00065120000363,0.0006512000036309473,None,183.71439159999863,183.71439159999863,183.71439159999863,183.71439159999863,183.71439159999863,183.71439159999863,183.71439159999863,183.71439159999863,,001,P020,2025_May_06_1703,CategoryLocalizer,2021.2.3,59.95904797164072,
133.8,134.0,5,0.0,Stimuli\Blank.png,0,0,0,221,221,221,,,,,,,,,,,,,133.81898470000306,0.01898470000304542,None,184.51512180000282,184.51512180000282,184.51512180000282,184.51512180000282,184.51512180000282,184.51512180000282,184.51512180000282,184.51512180000282,,001,P020,2025_May_06_1703,CategoryLocalizer,2021.2.3,59.95904797164072,
134.0,134.8,4,0.75,Stimuli\ImageFiles-Set1\Scenes\Scenes_049.png,0,0,0,222,222,222,,,,,,,,,,,,,134.0035349000027,0.003534900002705399,None,184.73196270000335,184.73196270000335,184.73196270000335,184.73196270000335,184.73196270000335,184.73196270000335,184.73196270000335,184.73196270000335,,001,P020,2025_May_06_1703,CategoryLocalizer,2021.2.3,59.95904797164072,
134.8,135.0,5,0.0,Stimuli\Blank.png,0,0,0,223,223,223,,,,,,,,,,,,,134.8354599000013,0.035459900001285405,None,185.53267539999797,185.53267539999797,185.53267539999797,185.53267539999797,185.53267539999797,185.53267539999797,185.53267539999797,185.53267539999797,,001,P020,2025_May_06_1703,CategoryLocalizer,2021.2.3,59.95904797164072,
135.0,135.8,4,0.75,Stimuli\ImageFiles-Set1\Scenes\Scenes_022.png,0,0,0,224,224,224,,,,,,,,,,,,,135.00368400000298,0.0036840000029769726,None,185.71616530000028,185.71616530000028,185.71616530000028,185.71616530000028,185.71616530000028,185.71616530000028,185.71616530000028,185.71616530000028,,001,P020,2025_May_06_1703,CategoryLocalizer,2021.2.3,59.95904797164072,
135.8,136.0,5,0.0,Stimuli\Blank.png,0,0,0,225,225,225,,,,,,,,,,,,,135.82023749999644,0.020237499996426322,None,186.51687559999846,186.51687559999846,186.51687559999846,186.51687559999846,186.51687559999846,186.51687559999846,186.51687559999846,186.51687559999846,,001,P020,2025_May_06_1703,CategoryLocalizer,2021.2.3,59.95904797164072,
136.0,136.8,2,0.75,Stimuli\ImageFiles-Set1\Bodies\Bodies_Walking_00002.png,0,0,0,226,226,226,,,,,,,,,,,,,136.00437819999934,0.004378199999337085,None,186.7170632999987,186.7170632999987,186.7170632999987,186.7170632999987,186.7170632999987,186.7170632999987,186.7170632999987,186.7170632999987,,001,P020,2025_May_06_1703,CategoryLocalizer,2021.2.3,59.95904797164072,
136.8,137.0,5,0.0,Stimuli\Blank.png,0,0,0,227,227,227,,,,,,,,,,,,,136.82061180000164,0.020611800001631764,None,187.51776090000203,187.51776090000203,187.51776090000203,187.51776090000203,187.51776090000203,187.51776090000203,187.51776090000203,187.51776090000203,,001,P020,2025_May_06_1703,CategoryLocalizer,2021.2.3,59.95904797164072,
137.0,137.8,2,0.75,Stimuli\ImageFiles-Set1\Bodies\Bodies_Standing_00003.png,0,0,0,228,228,228,,,,,,,,,,,,,137.00439010000264,0.004390100002638064,None,187.73463259999698,187.73463259999698,187.73463259999698,187.73463259999698,187.73463259999698,187.73463259999698,187.73463259999698,187.73463259999698,,001,P020,2025_May_06_1703,CategoryLocalizer,2021.2.3,59.95904797164072,
137.8,138.0,5,0.0,Stimuli\Blank.png,0,0,0,229,229,229,,,,,,,,,,,,,137.83911439999792,0.03911439999791355,None,188.55206349999935,188.55206349999935,188.55206349999935,188.55206349999935,188.55206349999935,188.55206349999935,188.55206349999935,188.55206349999935,,001,P020,2025_May_06_1703,CategoryLocalizer,2021.2.3,59.95904797164072,
138.0,138.8,2,0.75,Stimuli\ImageFiles-Set1\Bodies\Bodies_Punching_00001.png,0,0,0,230,230,230,,,,,,,,,,,,,138.02237259999674,0.022372599996742792,None,188.73550760000217,188.73550760000217,188.73550760000217,188.73550760000217,188.73550760000217,188.73550760000217,188.73550760000217,188.73550760000217,,001,P020,2025_May_06_1703,CategoryLocalizer,2021.2.3,59.95904797164072,
138.8,139.0,5,0.0,Stimuli\Blank.png,0,0,0,231,231,231,,,,,,,,,,,,,138.8238515999983,0.023851599998295114,None,189.51954410000326,189.51954410000326,189.51954410000326,189.51954410000326,189.51954410000326,189.51954410000326,189.51954410000326,189.51954410000326,,001,P020,2025_May_06_1703,CategoryLocalizer,2021.2.3,59.95904797164072,
139.0,139.8,2,0.75,Stimuli\ImageFiles-Set1\Bodies\Bodies_SittingFloor_00007.png,0,0,0,232,232,232,,,,,,,,,,,,,139.00816089999716,0.008160899997164961,None,189.7363925000027,189.7363925000027,189.7363925000027,189.7363925000027,189.7363925000027,189.7363925000027,189.7363925000027,189.7363925000027,,001,P020,2025_May_06_1703,CategoryLocalizer,2021.2.3,59.95904797164072,
139.8,140.0,5,0.0,Stimuli\Blank.png,0,0,0,233,233,233,,,,,,,,,,,,,139.84042919999774,0.04042919999773176,None,190.5370976999984,190.5370976999984,190.5370976999984,190.5370976999984,190.5370976999984,190.5370976999984,190.5370976999984,190.5370976999984,,001,P020,2025_May_06_1703,CategoryLocalizer,2021.2.3,59.95904797164072,
140.0,140.8,2,0.75,Stimuli\ImageFiles-Set1\Bodies\Bodies_SittingFloor_00007.png,1,1,0,234,234,234,,,,,,,,,,,,,140.00804320000316,0.008043200003157835,1,190.72060059999785,190.72060059999785,190.72060059999785,190.72060059999785,190.72060059999785,190.72060059999785,190.72060059999785,190.72060059999785,0.5840898999958881,001,P020,2025_May_06_1703,CategoryLocalizer,2021.2.3,59.95904797164072,
140.8,141.0,5,0.0,Stimuli\Blank.png,0,0,0,235,235,235,,,,,,,,,,,,,140.82439919999888,0.02439919999886797,None,191.5213062000039,191.5213062000039,191.5213062000039,191.5213062000039,191.5213062000039,191.5213062000039,191.5213062000039,191.5213062000039,,001,P020,2025_May_06_1703,CategoryLocalizer,2021.2.3,59.95904797164072,
141.0,141.8,2,0.75,Stimuli\ImageFiles-Set1\Bodies\Bodies_Running_00006.png,0,0,0,236,236,236,,,,,,,,,,,,,141.00892179999937,0.008921799999370705,None,191.72145499999897,191.72145499999897,191.72145499999897,191.72145499999897,191.72145499999897,191.72145499999897,191.72145499999897,191.72145499999897,,001,P020,2025_May_06_1703,CategoryLocalizer,2021.2.3,59.95904797164072,
141.8,142.0,5,0.0,Stimuli\Blank.png,0,0,0,237,237,237,,,,,,,,,,,,,141.8278038999997,0.02780389999969657,None,192.53887370000302,192.53887370000302,192.53887370000302,192.53887370000302,192.53887370000302,192.53887370000302,192.53887370000302,192.53887370000302,,001,P020,2025_May_06_1703,CategoryLocalizer,2021.2.3,59.95904797164072,
142.0,142.8,2,0.75,Stimuli\ImageFiles-Set1\Bodies\Bodies_Walking_00004.png,0,0,0,238,238,238,,,,,,,,,,,,,142.0262417999984,0.02624179999838816,None,192.7223515000005,192.7223515000005,192.7223515000005,192.7223515000005,192.7223515000005,192.7223515000005,192.7223515000005,192.7223515000005,,001,P020,2025_May_06_1703,CategoryLocalizer,2021.2.3,59.95904797164072,
142.8,143.0,5,0.0,Stimuli\Blank.png,0,0,0,239,239,239,,,,,,,,,,,,,142.8092480999985,0.009248099998501402,None,193.50639570000203,193.50639570000203,193.50639570000203,193.50639570000203,193.50639570000203,193.50639570000203,193.50639570000203,193.50639570000203,,001,P020,2025_May_06_1703,CategoryLocalizer,2021.2.3,59.95904797164072,
143.0,143.8,2,0.75,Stimuli\ImageFiles-Set1\Bodies\Bodies_Waving_00001.png,0,0,0,240,240,240,,,,,,,,,,,,,143.00961809999717,0.009618099997169338,None,193.70658679999906,193.70658679999906,193.70658679999906,193.70658679999906,193.70658679999906,193.70658679999906,193.70658679999906,193.70658679999906,,001,P020,2025_May_06_1703,CategoryLocalizer,2021.2.3,59.95904797164072,
143.8,144.0,5,0.0,Stimuli\Blank.png,0,0,0,241,241,241,,,,,,,,,,,,,143.81015650000336,0.010156500003347446,None,194.50728009999875,194.50728009999875,194.50728009999875,194.50728009999875,194.50728009999875,194.50728009999875,194.50728009999875,194.50728009999875,,001,P020,2025_May_06_1703,CategoryLocalizer,2021.2.3,59.95904797164072,
144.0,144.8,2,0.75,Stimuli\ImageFiles-Set1\Bodies\Bodies_Crawling_00003.png,0,0,0,242,242,242,,,,,,,,,,,,,144.01046659999702,0.010466599997016601,None,194.72414440000284,194.72414440000284,194.72414440000284,194.72414440000284,194.72414440000284,194.72414440000284,194.72414440000284,194.72414440000284,,001,P020,2025_May_06_1703,CategoryLocalizer,2021.2.3,59.95904797164072,
144.8,145.0,5,0.0,Stimuli\Blank.png,0,0,0,243,243,243,,,,,,,,,,,,,144.8285246000014,0.0285246000013899,None,195.52484350000304,195.52484350000304,195.52484350000304,195.52484350000304,195.52484350000304,195.52484350000304,195.52484350000304,195.52484350000304,,001,P020,2025_May_06_1703,CategoryLocalizer,2021.2.3,59.95904797164072,
145.0,145.8,2,0.75,Stimuli\ImageFiles-Set1\Bodies\Bodies_Hanging_00002.png,0,0,0,244,244,244,,,,,,,,,,,,,145.01188430000184,0.01188430000183871,None,195.72503270000016,195.72503270000016,195.72503270000016,195.72503270000016,195.72503270000016,195.72503270000016,195.72503270000016,195.72503270000016,,001,P020,2025_May_06_1703,CategoryLocalizer,2021.2.3,59.95904797164072,
145.8,146.0,5,0.0,Stimuli\Blank.png,0,0,0,245,245,245,,,,,,,,,,,,,145.8294393000033,0.029439300003275548,None,196.52573300000222,196.52573300000222,196.52573300000222,196.52573300000222,196.52573300000222,196.52573300000222,196.52573300000222,196.52573300000222,,001,P020,2025_May_06_1703,CategoryLocalizer,2021.2.3,59.95904797164072,
146.0,146.8,2,0.75,Stimuli\ImageFiles-Set1\Bodies\Bodies_Waving_00003.png,0,0,0,246,246,246,,,,,,,,,,,,,146.0124558000025,0.012455800002499018,None,196.70922900000005,196.70922900000005,196.70922900000005,196.70922900000005,196.70922900000005,196.70922900000005,196.70922900000005,196.70922900000005,,001,P020,2025_May_06_1703,CategoryLocalizer,2021.2.3,59.95904797164072,
146.8,147.0,5,0.0,Stimuli\Blank.png,0,0,0,247,247,247,,,,,,,,,,,,,146.8127986000036,0.012798600003577576,None,197.50994390000415,197.50994390000415,197.50994390000415,197.50994390000415,197.50994390000415,197.50994390000415,197.50994390000415,197.50994390000415,,001,P020,2025_May_06_1703,CategoryLocalizer,2021.2.3,59.95904797164072,
147.0,147.8,2,0.75,Stimuli\ImageFiles-Set1\Bodies\Bodies_Pushing_00003.png,0,0,0,248,248,248,,,,,,,,,,,,,147.01351949999662,0.013519499996618833,None,197.7268219999969,197.7268219999969,197.7268219999969,197.7268219999969,197.7268219999969,197.7268219999969,197.7268219999969,197.7268219999969,,001,P020,2025_May_06_1703,CategoryLocalizer,2021.2.3,59.95904797164072,
147.8,148.0,5,0.0,Stimuli\Blank.png,0,0,0,249,249,249,,,,,,,,,,,,,147.83160019999923,0.03160019999921815,None,198.52752529999998,198.52752529999998,198.52752529999998,198.52752529999998,198.52752529999998,198.52752529999998,198.52752529999998,198.52752529999998,,001,P020,2025_May_06_1703,CategoryLocalizer,2021.2.3,59.95904797164072,
148.0,148.8,2,0.75,Stimuli\ImageFiles-Set1\Bodies\Bodies_Waving_00005.png,0,0,0,250,250,250,,,,,,,,,,,,,148.01402360000066,0.014023600000655279,None,198.71099420000246,198.71099420000246,198.71099420000246,198.71099420000246,198.71099420000246,198.71099420000246,198.71099420000246,198.71099420000246,,001,P020,2025_May_06_1703,CategoryLocalizer,2021.2.3,59.95904797164072,
148.8,149.0,5,0.0,Stimuli\Blank.png,0,0,0,251,251,251,,,,,,,,,,,,,148.81477799999993,0.014777999999921576,None,199.51170280000224,199.51170280000224,199.51170280000224,199.51170280000224,199.51170280000224,199.51170280000224,199.51170280000224,199.51170280000224,,001,P020,2025_May_06_1703,CategoryLocalizer,2021.2.3,59.95904797164072,
149.0,149.8,2,0.75,Stimuli\ImageFiles-Set1\Bodies\Bodies_PushUp_00004.png,1,1,0,252,252,252,,,,,,,,,,,,,149.01536360000318,0.01536360000318382,None,199.745284800003,199.745284800003,199.745284800003,199.745284800003,199.745284800003,199.745284800003,199.745284800003,199.745284800003,,001,P020,2025_May_06_1703,CategoryLocalizer,2021.2.3,59.95904797164072,
149.8,150.0,5,0.0,Stimuli\Blank.png,0,0,0,253,253,253,,,,,,,,,,,,,149.83278930000233,0.03278930000232094,None,200.5292699999991,200.5292699999991,200.5292699999991,200.5292699999991,200.5292699999991,200.5292699999991,200.5292699999991,200.5292699999991,,001,P020,2025_May_06_1703,CategoryLocalizer,2021.2.3,59.95904797164072,
150.0,150.8,2,0.75,Stimuli\ImageFiles-Set1\Bodies\Bodies_Jumping_00002.png,0,0,0,254,254,254,,,,,,,,,,,,,149.99899490000098,-0.0010050999990198761,None,200.7127698999975,200.7127698999975,200.7127698999975,200.7127698999975,200.7127698999975,200.7127698999975,200.7127698999975,200.7127698999975,,001,P020,2025_May_06_1703,CategoryLocalizer,2021.2.3,59.95904797164072,
150.8,151.0,5,0.0,Stimuli\Blank.png,0,0,0,255,255,255,,,,,,,,,,,,,150.81823789999908,0.018237899999064666,None,201.53016239999852,201.53016239999852,201.53016239999852,201.53016239999852,201.53016239999852,201.53016239999852,201.53016239999852,201.53016239999852,,001,P020,2025_May_06_1703,CategoryLocalizer,2021.2.3,59.95904797164072,
151.0,151.8,2,0.75,Stimuli\ImageFiles-Set1\Bodies\Bodies_Jumping_00002.png,0,0,0,256,256,256,,,,,,,,,,,,,151.0167861000009,0.01678610000089975,1,201.71364870000252,201.71364870000252,201.71364870000252,201.71364870000252,201.71364870000252,201.71364870000252,201.71364870000252,201.71364870000252,0.6039516000018921,001,P020,2025_May_06_1703,CategoryLocalizer,2021.2.3,59.95904797164072,
151.8,152.0,5,0.0,Stimuli\Blank.png,0,0,0,257,257,257,,,,,,,,,,,,,151.80052350000187,0.000523500001861521,None,202.49769709999964,202.49769709999964,202.49769709999964,202.49769709999964,202.49769709999964,202.49769709999964,202.49769709999964,202.49769709999964,,001,P020,2025_May_06_1703,CategoryLocalizer,2021.2.3,59.95904797164072,
152.0,164.0,0,0.0,Stimuli\Blank.png,0,0,0,258,258,258,,,,,,,,,,,,,152.0012360999972,0.001236099997186102,None,202.6979311000032,202.6979311000032,202.6979311000032,202.6979311000032,202.6979311000032,202.6979311000032,202.6979311000032,202.6979311000032,,001,P020,2025_May_06_1703,CategoryLocalizer,2021.2.3,59.95904797164072,
164.0,164.8,4,0.75,Stimuli\ImageFiles-Set1\Scenes\Scenes_003.png,0,0,0,259,259,259,,,,,,,,,,,,,164.01337459999922,0.013374599999224301,None,214.74187299999903,214.74187299999903,214.74187299999903,214.74187299999903,214.74187299999903,214.74187299999903,214.74187299999903,214.74187299999903,,001,P020,2025_May_06_1703,CategoryLocalizer,2021.2.3,59.95904797164072,
164.8,165.0,5,0.0,Stimuli\Blank.png,0,0,0,260,260,260,,,,,,,,,,,,,164.84775639999862,0.04775639999860459,None,215.5592534000025,215.5592534000025,215.5592534000025,215.5592534000025,215.5592534000025,215.5592534000025,215.5592534000025,215.5592534000025,,001,P020,2025_May_06_1703,CategoryLocalizer,2021.2.3,59.95904797164072,
165.0,165.8,4,0.75,Stimuli\ImageFiles-Set1\Scenes\Scenes_038.png,0,0,0,261,261,261,,,,,,,,,,,,,165.02948160000233,0.029481600002327468,None,215.74277189999702,215.74277189999702,215.74277189999702,215.74277189999702,215.74277189999702,215.74277189999702,215.74277189999702,215.74277189999702,,001,P020,2025_May_06_1703,CategoryLocalizer,2021.2.3,59.95904797164072,
165.8,166.0,5,0.0,Stimuli\Blank.png,0,0,0,262,262,262,,,,,,,,,,,,,165.83010680000007,0.0301068000000555,None,216.52677299999777,216.52677299999777,216.52677299999777,216.52677299999777,216.52677299999777,216.52677299999777,216.52677299999777,216.52677299999777,,001,P020,2025_May_06_1703,CategoryLocalizer,2021.2.3,59.95904797164072,
166.0,166.8,4,0.75,Stimuli\ImageFiles-Set1\Scenes\Scenes_009.png,0,0,0,263,263,263,,,,,,,,,,,,,166.01364379999723,0.01364379999722587,None,216.72698700000183,216.72698700000183,216.72698700000183,216.72698700000183,216.72698700000183,216.72698700000183,216.72698700000183,216.72698700000183,,001,P020,2025_May_06_1703,CategoryLocalizer,2021.2.3,59.95904797164072,
166.8,167.0,5,0.0,Stimuli\Blank.png,0,0,0,264,264,264,,,,,,,,,,,,,166.83061299999827,0.03061299999825451,None,217.52764480000042,217.52764480000042,217.52764480000042,217.52764480000042,217.52764480000042,217.52764480000042,217.52764480000042,217.52764480000042,,001,P020,2025_May_06_1703,CategoryLocalizer,2021.2.3,59.95904797164072,
167.0,167.8,4,0.75,Stimuli\ImageFiles-Set1\Scenes\Scenes_002.png,0,0,0,265,265,265,,,,,,,,,,,,,167.01410829999804,0.01410829999804264,None,217.72783390000404,217.72783390000404,217.72783390000404,217.72783390000404,217.72783390000404,217.72783390000404,217.72783390000404,217.72783390000404,,001,P020,2025_May_06_1703,CategoryLocalizer,2021.2.3,59.95904797164072,
167.8,168.0,5,0.0,Stimuli\Blank.png,0,0,0,266,266,266,,,,,,,,,,,,,167.83324670000002,0.03324670000000651,None,218.54522290000023,218.54522290000023,218.54522290000023,218.54522290000023,218.54522290000023,218.54522290000023,218.54522290000023,218.54522290000023,,001,P020,2025_May_06_1703,CategoryLocalizer,2021.2.3,59.95904797164072,
168.0,168.8,4,0.75,Stimuli\ImageFiles-Set1\Scenes\Scenes_044.png,0,0,0,267,267,267,,,,,,,,,,,,,168.014983699999,0.014983699998992961,None,218.72868169999856,218.72868169999856,218.72868169999856,218.72868169999856,218.72868169999856,218.72868169999856,218.72868169999856,218.72868169999856,,001,P020,2025_May_06_1703,CategoryLocalizer,2021.2.3,59.95904797164072,
168.8,169.0,5,0.0,Stimuli\Blank.png,0,0,0,268,268,268,,,,,,,,,,,,,168.81655060000048,0.01655060000047115,None,219.5127496999994,219.5127496999994,219.5127496999994,219.5127496999994,219.5127496999994,219.5127496999994,219.5127496999994,219.5127496999994,,001,P020,2025_May_06_1703,CategoryLocalizer,2021.2.3,59.95904797164072,
169.0,169.8,4,0.75,Stimuli\ImageFiles-Set1\Scenes\Scenes_014.png,0,0,0,269,269,269,,,,,,,,,,,,,168.99973209999735,-0.00026790000265464187,None,219.7129253000021,219.7129253000021,219.7129253000021,219.7129253000021,219.7129253000021,219.7129253000021,219.7129253000021,219.7129253000021,,001,P020,2025_May_06_1703,CategoryLocalizer,2021.2.3,59.95904797164072,
169.8,170.0,5,0.0,Stimuli\Blank.png,0,0,0,270,270,270,,,,,,,,,,,,,169.82013620000362,0.02013620000360561,None,220.53034850000404,220.53034850000404,220.53034850000404,220.53034850000404,220.53034850000404,220.53034850000404,220.53034850000404,220.53034850000404,,001,P020,2025_May_06_1703,CategoryLocalizer,2021.2.3,59.95904797164072,
170.0,170.8,4,0.75,Stimuli\ImageFiles-Set1\Scenes\Scenes_041.png,0,0,0,271,271,271,,,,,,,,,,,,,170.01762150000286,0.017621500002860557,None,220.74717039999814,220.74717039999814,220.74717039999814,220.74717039999814,220.74717039999814,220.74717039999814,220.74717039999814,220.74717039999814,,001,P020,2025_May_06_1703,CategoryLocalizer,2021.2.3,59.95904797164072,
170.8,171.0,5,0.0,Stimuli\Blank.png,0,0,0,272,272,272,,,,,,,,,,,,,170.83408749999944,0.03408749999942984,None,221.53119159999915,221.53119159999915,221.53119159999915,221.53119159999915,221.53119159999915,221.53119159999915,221.53119159999915,221.53119159999915,,001,P020,2025_May_06_1703,CategoryLocalizer,2021.2.3,59.95904797164072,
171.0,171.8,4,0.75,Stimuli\ImageFiles-Set1\Scenes\Scenes_030.png,0,0,0,273,273,273,,,,,,,,,,,,,171.00333249999676,0.0033324999967589974,None,221.7146924999979,221.7146924999979,221.7146924999979,221.7146924999979,221.7146924999979,221.7146924999979,221.7146924999979,221.7146924999979,,001,P020,2025_May_06_1703,CategoryLocalizer,2021.2.3,59.95904797164072,
171.8,172.0,5,0.0,Stimuli\Blank.png,0,0,0,274,274,274,,,,,,,,,,,,,171.8197810999991,0.019781099999079288,None,222.53207909999765,222.53207909999765,222.53207909999765,222.53207909999765,222.53207909999765,222.53207909999765,222.53207909999765,222.53207909999765,,001,P020,2025_May_06_1703,CategoryLocalizer,2021.2.3,59.95904797164072,
172.0,172.8,4,0.75,Stimuli\ImageFiles-Set1\Scenes\Scenes_030.png,1,1,0,275,275,275,,,,,,,,,,,,,172.019398299999,0.019398299999011215,1,222.71557310000208,222.71557310000208,222.71557310000208,222.71557310000208,222.71557310000208,222.71557310000208,222.71557310000208,222.71557310000208,0.6192015999986324,001,P020,2025_May_06_1703,CategoryLocalizer,2021.2.3,59.95904797164072,
172.8,173.0,5,0.0,Stimuli\Blank.png,0,0,0,276,276,276,,,,,,,,,,,,,172.8029979999992,0.0029979999991951445,None,223.499602099997,223.499602099997,223.499602099997,223.499602099997,223.499602099997,223.499602099997,223.499602099997,223.499602099997,,001,P020,2025_May_06_1703,CategoryLocalizer,2021.2.3,59.95904797164072,
173.0,173.8,4,0.75,Stimuli\ImageFiles-Set1\Scenes\Scenes_058.png,0,0,0,277,277,277,,,,,,,,,,,,,173.00351989999763,0.0035198999976273626,None,223.7164552000031,223.7164552000031,223.7164552000031,223.7164552000031,223.7164552000031,223.7164552000031,223.7164552000031,223.7164552000031,,001,P020,2025_May_06_1703,CategoryLocalizer,2021.2.3,59.95904797164072,
173.8,174.0,5,0.0,Stimuli\Blank.png,0,0,0,278,278,278,,,,,,,,,,,,,173.82015839999804,0.02015839999802438,None,224.51716419999866,224.51716419999866,224.51716419999866,224.51716419999866,224.51716419999866,224.51716419999866,224.51716419999866,224.51716419999866,,001,P020,2025_May_06_1703,CategoryLocalizer,2021.2.3,59.95904797164072,
174.0,174.8,4,0.75,Stimuli\ImageFiles-Set1\Scenes\Scenes_054.png,0,0,0,279,279,279,,,,,,,,,,,,,174.0043747000018,0.004374700001790188,None,224.7173479999983,224.7173479999983,224.7173479999983,224.7173479999983,224.7173479999983,224.7173479999983,224.7173479999983,224.7173479999983,,001,P020,2025_May_06_1703,CategoryLocalizer,2021.2.3,59.95904797164072,
174.8,175.0,5,0.0,Stimuli\Blank.png,0,0,0,280,280,280,,,,,,,,,,,,,174.8235113999981,0.02351139999808538,None,225.5347402999978,225.5347402999978,225.5347402999978,225.5347402999978,225.5347402999978,225.5347402999978,225.5347402999978,225.5347402999978,,001,P020,2025_May_06_1703,CategoryLocalizer,2021.2.3,59.95904797164072,
175.0,175.8,4,0.75,Stimuli\ImageFiles-Set1\Scenes\Scenes_050.png,0,0,0,281,281,281,,,,,,,,,,,,,175.0228569000028,0.02285690000280738,None,225.75159700000222,225.75159700000222,225.75159700000222,225.75159700000222,225.75159700000222,225.75159700000222,225.75159700000222,225.75159700000222,,001,P020,2025_May_06_1703,CategoryLocalizer,2021.2.3,59.95904797164072,
175.8,176.0,5,0.0,Stimuli\Blank.png,0,0,0,282,282,282,,,,,,,,,,,,,175.8391233000002,0.039123300000198924,None,226.53562280000187,226.53562280000187,226.53562280000187,226.53562280000187,226.53562280000187,226.53562280000187,226.53562280000187,226.53562280000187,,001,P020,2025_May_06_1703,CategoryLocalizer,2021.2.3,59.95904797164072,
176.0,176.8,4,0.75,Stimuli\ImageFiles-Set1\Scenes\Scenes_042.png,0,0,0,283,283,283,,,,,,,,,,,,,176.00612920000276,0.006129200002760626,None,226.7191171000013,226.7191171000013,226.7191171000013,226.7191171000013,226.7191171000013,226.7191171000013,226.7191171000013,226.7191171000013,,001,P020,2025_May_06_1703,CategoryLocalizer,2021.2.3,59.95904797164072,
176.8,177.0,5,0.0,Stimuli\Blank.png,0,0,0,284,284,284,,,,,,,,,,,,,176.82326930000272,0.02326930000270977,None,227.51982590000262,227.51982590000262,227.51982590000262,227.51982590000262,227.51982590000262,227.51982590000262,227.51982590000262,227.51982590000262,,001,P020,2025_May_06_1703,CategoryLocalizer,2021.2.3,59.95904797164072,
