eventStartTime,eventEndTime,eventCond,imSize,imFile,repeatedImage,responseEvent,Events.thisRepN,Events.thisTrialN,Events.thisN,Events.thisIndex,Instructions.started,Instructions.stopped,participantReadyResponse.keys,participantReadyResponse.rt,participantReadyResponse.started,participantReadyResponse.stopped,startWaitforTrigger,triggerResponse.keys,triggerResponse.rt,triggerResponse.started,triggerResponse.stopped,globalTimer,actualStartTime,startTimingDiff,participantResponse.keys,participantResponse.started,participantResponse.stopped,image.started,image.stopped,fixationOutside.started,fixationOutside.stopped,fixationInside.started,fixationInside.stopped,participantResponse.rt,session,participant,date,expName,psychopyVersion,frameRate,
,,,,,,,,,,,10.296990500006359,None,1,9.518638300003659,10.296990500006359,None,,,,,,,,,,,,,,,,,,,003,P020,2025_May_06_1759,CategoryLocalizer,2021.2.3,59.943197824132504,
,,,,,,,,,,,,,,,,,19.820241400004306,5,14.662366700002167,19.83326980000129,None,,,,,,,,,,,,,,003,P020,2025_May_06_1759,CategoryLocalizer,2021.2.3,59.943197824132504,
0.0,12.0,0,0.0,Stimuli\Blank.png,0,0,0,0,0,0,,,,,,,,,,,,34.5002661000035,0.03631399999721907,0.03631399999721907,None,34.54623630000424,None,34.54623630000424,None,34.54623630000424,None,34.54623630000424,None,,003,P020,2025_May_06_1759,CategoryLocalizer,2021.2.3,59.943197824132504,
12.0,12.8,1,0.75,Stimuli\ImageFiles-Set1\Objects\Object_Scale_00001.png,0,0,0,1,1,1,,,,,,,,,,,,,12.014681599997857,0.01468159999785712,None,46.540175900001486,46.540175900001486,46.540175900001486,46.540175900001486,46.540175900001486,46.540175900001486,46.540175900001486,46.540175900001486,,003,P020,2025_May_06_1759,CategoryLocalizer,2021.2.3,59.943197824132504,
12.8,13.0,5,0.0,Stimuli\Blank.png,0,0,0,2,2,2,,,,,,,,,,,,,12.827699299996311,0.0276992999963106,None,47.34090719999949,47.34090719999949,47.34090719999949,47.34090719999949,47.34090719999949,47.34090719999949,47.34090719999949,47.34090719999949,,003,P020,2025_May_06_1759,CategoryLocalizer,2021.2.3,59.943197824132504,
13.0,13.8,1,0.75,Stimuli\ImageFiles-Set1\Objects\Object_Lamp_00001.png,0,0,0,3,3,3,,,,,,,,,,,,,13.011543299995537,0.011543299995537382,None,47.54107570000633,47.54107570000633,47.54107570000633,47.54107570000633,47.54107570000633,47.54107570000633,47.54107570000633,47.54107570000633,,003,P020,2025_May_06_1759,CategoryLocalizer,2021.2.3,59.943197824132504,
13.8,14.0,5,0.0,Stimuli\Blank.png,0,0,0,4,4,4,,,,,,,,,,,,,13.826964599997154,0.026964599997153726,None,48.34177669999917,48.34177669999917,48.34177669999917,48.34177669999917,48.34177669999917,48.34177669999917,48.34177669999917,48.34177669999917,,003,P020,2025_May_06_1759,CategoryLocalizer,2021.2.3,59.943197824132504,
14.0,14.8,1,0.75,Stimuli\ImageFiles-Set1\Objects\Object_Oven_00001.png,0,0,0,5,5,5,,,,,,,,,,,,,14.010264099997585,0.010264099997584708,None,48.52526770000259,48.52526770000259,48.52526770000259,48.52526770000259,48.52526770000259,48.52526770000259,48.52526770000259,48.52526770000259,,003,P020,2025_May_06_1759,CategoryLocalizer,2021.2.3,59.943197824132504,
14.8,15.0,5,0.0,Stimuli\Blank.png,0,0,0,6,6,6,,,,,,,,,,,,,14.811615999999049,0.011615999999047943,None,49.325985900002706,49.325985900002706,49.325985900002706,49.325985900002706,49.325985900002706,49.325985900002706,49.325985900002706,49.325985900002706,,003,P020,2025_May_06_1759,CategoryLocalizer,2021.2.3,59.943197824132504,
15.0,15.8,1,0.75,Stimuli\ImageFiles-Set1\Objects\Object_Boat_00001.png,0,0,0,7,7,7,,,,,,,,,,,,,15.012225200000103,0.012225200000102632,None,49.52622690000135,49.52622690000135,49.52622690000135,49.52622690000135,49.52622690000135,49.52622690000135,49.52622690000135,49.52622690000135,,003,P020,2025_May_06_1759,CategoryLocalizer,2021.2.3,59.943197824132504,
15.8,16.0,5,0.0,Stimuli\Blank.png,0,0,0,8,8,8,,,,,,,,,,,,,15.813685699999041,0.013685699999040679,None,50.326885700000275,50.326885700000275,50.326885700000275,50.326885700000275,50.326885700000275,50.326885700000275,50.326885700000275,50.326885700000275,,003,P020,2025_May_06_1759,CategoryLocalizer,2021.2.3,59.943197824132504,
16.0,16.8,1,0.75,Stimuli\ImageFiles-Set1\Objects\Object_FileFolder_00001.png,0,0,0,9,9,9,,,,,,,,,,,,,16.012172199996712,0.012172199996712152,None,50.52704220000305,50.52704220000305,50.52704220000305,50.52704220000305,50.52704220000305,50.52704220000305,50.52704220000305,50.52704220000305,,003,P020,2025_May_06_1759,CategoryLocalizer,2021.2.3,59.943197824132504,
16.8,17.0,5,0.0,Stimuli\Blank.png,0,0,0,10,10,10,,,,,,,,,,,,,16.81388639999932,0.0138863999993184,None,51.32775400000537,51.32775400000537,51.32775400000537,51.32775400000537,51.32775400000537,51.32775400000537,51.32775400000537,51.32775400000537,,003,P020,2025_May_06_1759,CategoryLocalizer,2021.2.3,59.943197824132504,
17.0,17.8,1,0.75,Stimuli\ImageFiles-Set1\Objects\Object_Screw_00001.png,0,0,0,11,11,11,,,,,,,,,,,,,17.01404739999998,0.01404739999998128,None,51.544634199999564,51.544634199999564,51.544634199999564,51.544634199999564,51.544634199999564,51.544634199999564,51.544634199999564,51.544634199999564,,003,P020,2025_May_06_1759,CategoryLocalizer,2021.2.3,59.943197824132504,
17.8,18.0,5,0.0,Stimuli\Blank.png,0,0,0,12,12,12,,,,,,,,,,,,,17.832283099996857,0.032283099996856635,None,52.362011200006236,52.362011200006236,52.362011200006236,52.362011200006236,52.362011200006236,52.362011200006236,52.362011200006236,52.362011200006236,,003,P020,2025_May_06_1759,CategoryLocalizer,2021.2.3,59.943197824132504,
18.0,18.8,1,0.75,Stimuli\ImageFiles-Set1\Objects\Object_Screw_00001.png,1,1,0,13,13,13,,,,,,,,,,,,,18.01487499999348,0.014874999993480742,1,52.52881210000487,52.52881210000487,52.52881210000487,52.52881210000487,52.52881210000487,52.52881210000487,52.52881210000487,52.52881210000487,0.5849140999998781,003,P020,2025_May_06_1759,CategoryLocalizer,2021.2.3,59.943197824132504,
18.8,19.0,5,0.0,Stimuli\Blank.png,0,0,0,14,14,14,,,,,,,,,,,,,18.817278599999554,0.01727859999955328,None,53.34621030000562,53.34621030000562,53.34621030000562,53.34621030000562,53.34621030000562,53.34621030000562,53.34621030000562,53.34621030000562,,003,P020,2025_May_06_1759,CategoryLocalizer,2021.2.3,59.943197824132504,
19.0,19.8,1,0.75,Stimuli\ImageFiles-Set1\Objects\Object_GarbageCan_00001.png,0,0,0,15,15,15,,,,,,,,,,,,,19.015023399995698,0.015023399995698128,None,53.52977660000033,53.52977660000033,53.52977660000033,53.52977660000033,53.52977660000033,53.52977660000033,53.52977660000033,53.52977660000033,,003,P020,2025_May_06_1759,CategoryLocalizer,2021.2.3,59.943197824132504,
19.8,20.0,5,0.0,Stimuli\Blank.png,0,0,0,16,16,16,,,,,,,,,,,,,19.817397599996184,0.01739759999618329,None,54.347109599999385,54.347109599999385,54.347109599999385,54.347109599999385,54.347109599999385,54.347109599999385,54.347109599999385,54.347109599999385,,003,P020,2025_May_06_1759,CategoryLocalizer,2021.2.3,59.943197824132504,
20.0,20.8,1,0.75,Stimuli\ImageFiles-Set1\Objects\Object_Recliner_00001.png,1,1,0,17,17,17,,,,,,,,,,,,,20.01577819999511,0.01577819999511121,None,54.53058370000508,54.53058370000508,54.53058370000508,54.53058370000508,54.53058370000508,54.53058370000508,54.53058370000508,54.53058370000508,,003,P020,2025_May_06_1759,CategoryLocalizer,2021.2.3,59.943197824132504,
20.8,21.0,5,0.0,Stimuli\Blank.png,0,0,0,18,18,18,,,,,,,,,,,,,20.80227069999819,0.002270699998188519,None,55.33137140000326,55.33137140000326,55.33137140000326,55.33137140000326,55.33137140000326,55.33137140000326,55.33137140000326,55.33137140000326,,003,P020,2025_May_06_1759,CategoryLocalizer,2021.2.3,59.943197824132504,
21.0,21.8,1,0.75,Stimuli\ImageFiles-Set1\Objects\Object_Key_00001.png,0,0,0,19,19,19,,,,,,,,,,,,,21.01683259999845,0.01683259999845177,None,55.53147580000223,55.53147580000223,55.53147580000223,55.53147580000223,55.53147580000223,55.53147580000223,55.53147580000223,55.53147580000223,,003,P020,2025_May_06_1759,CategoryLocalizer,2021.2.3,59.943197824132504,
21.8,22.0,5,0.0,Stimuli\Blank.png,0,0,0,20,20,20,,,,,,,,,,,,,21.803025799999887,0.0030257999998859475,None,56.332147900000564,56.332147900000564,56.332147900000564,56.332147900000564,56.332147900000564,56.332147900000564,56.332147900000564,56.332147900000564,,003,P020,2025_May_06_1759,CategoryLocalizer,2021.2.3,59.943197824132504,
22.0,22.8,1,0.75,Stimuli\ImageFiles-Set1\Objects\Object_Key_00001.png,0,0,0,21,21,21,,,,,,,,,,,,,22.018264599995746,0.01826459999574581,1,56.5323600000047,56.5323600000047,56.5323600000047,56.5323600000047,56.5323600000047,56.5323600000047,56.5323600000047,56.5323600000047,0.465305099998659,003,P020,2025_May_06_1759,CategoryLocalizer,2021.2.3,59.943197824132504,
22.8,23.0,5,0.0,Stimuli\Blank.png,0,0,0,22,22,22,,,,,,,,,,,,,22.80201809999562,0.002018099995620304,None,57.316384800004016,57.316384800004016,57.316384800004016,57.316384800004016,57.316384800004016,57.316384800004016,57.316384800004016,57.316384800004016,,003,P020,2025_May_06_1759,CategoryLocalizer,2021.2.3,59.943197824132504,
23.0,23.8,1,0.75,Stimuli\ImageFiles-Set1\Objects\Object_Hammer_00001.png,0,0,0,23,23,23,,,,,,,,,,,,,23.00230609999562,0.00230609999562148,None,57.51655620000383,57.51655620000383,57.51655620000383,57.51655620000383,57.51655620000383,57.51655620000383,57.51655620000383,57.51655620000383,,003,P020,2025_May_06_1759,CategoryLocalizer,2021.2.3,59.943197824132504,
23.8,24.0,5,0.0,Stimuli\Blank.png,0,0,0,24,24,24,,,,,,,,,,,,,23.802994799996668,0.0029947999966672967,None,58.317234900001495,58.317234900001495,58.317234900001495,58.317234900001495,58.317234900001495,58.317234900001495,58.317234900001495,58.317234900001495,,003,P020,2025_May_06_1759,CategoryLocalizer,2021.2.3,59.943197824132504,
24.0,24.8,1,0.75,Stimuli\ImageFiles-Set1\Objects\Object_Brush_00001.png,0,0,0,25,25,25,,,,,,,,,,,,,24.00328539999464,0.003285399994638283,None,58.51740630000131,58.51740630000131,58.51740630000131,58.51740630000131,58.51740630000131,58.51740630000131,58.51740630000131,58.51740630000131,,003,P020,2025_May_06_1759,CategoryLocalizer,2021.2.3,59.943197824132504,
24.8,25.0,5,0.0,Stimuli\Blank.png,0,0,0,26,26,26,,,,,,,,,,,,,24.804214499999944,0.0042144999999429444,None,59.31815980000101,59.31815980000101,59.31815980000101,59.31815980000101,59.31815980000101,59.31815980000101,59.31815980000101,59.31815980000101,,003,P020,2025_May_06_1759,CategoryLocalizer,2021.2.3,59.943197824132504,
25.0,25.8,1,0.75,Stimuli\ImageFiles-Set1\Objects\Object_Nightstand_00001.png,0,0,0,27,27,27,,,,,,,,,,,,,25.00349639999331,0.003496399993309751,None,59.518323500000406,59.518323500000406,59.518323500000406,59.518323500000406,59.518323500000406,59.518323500000406,59.518323500000406,59.518323500000406,,003,P020,2025_May_06_1759,CategoryLocalizer,2021.2.3,59.943197824132504,
25.8,26.0,5,0.0,Stimuli\Blank.png,0,0,0,28,28,28,,,,,,,,,,,,,25.804641299997456,0.004641299997455661,None,60.3190637000007,60.3190637000007,60.3190637000007,60.3190637000007,60.3190637000007,60.3190637000007,60.3190637000007,60.3190637000007,,003,P020,2025_May_06_1759,CategoryLocalizer,2021.2.3,59.943197824132504,
26.0,26.8,1,0.75,Stimuli\ImageFiles-Set1\Objects\Object_PepperShaker_00001.png,0,0,0,29,29,29,,,,,,,,,,,,,26.004975099996955,0.004975099996954668,None,60.51917530000355,60.51917530000355,60.51917530000355,60.51917530000355,60.51917530000355,60.51917530000355,60.51917530000355,60.51917530000355,,003,P020,2025_May_06_1759,CategoryLocalizer,2021.2.3,59.943197824132504,
26.8,27.0,5,0.0,Stimuli\Blank.png,0,0,0,30,30,30,,,,,,,,,,,,,26.805705399994622,0.005705399994621274,None,61.31994560000021,61.31994560000021,61.31994560000021,61.31994560000021,61.31994560000021,61.31994560000021,61.31994560000021,61.31994560000021,,003,P020,2025_May_06_1759,CategoryLocalizer,2021.2.3,59.943197824132504,
27.0,27.8,1,0.75,Stimuli\ImageFiles-Set1\Objects\Object_Canoe_00001.png,0,0,0,31,31,31,,,,,,,,,,,,,27.007422299997415,0.007422299997415394,None,61.536784399999306,61.536784399999306,61.536784399999306,61.536784399999306,61.536784399999306,61.536784399999306,61.536784399999306,61.536784399999306,,003,P020,2025_May_06_1759,CategoryLocalizer,2021.2.3,59.943197824132504,
27.8,28.0,5,0.0,Stimuli\Blank.png,0,0,0,32,32,32,,,,,,,,,,,,,27.82312799999636,0.023127999996358284,None,62.337497799999255,62.337497799999255,62.337497799999255,62.337497799999255,62.337497799999255,62.337497799999255,62.337497799999255,62.337497799999255,,003,P020,2025_May_06_1759,CategoryLocalizer,2021.2.3,59.943197824132504,
28.0,28.8,2,0.75,Stimuli\ImageFiles-Set1\Bodies\Bodies_Falling_00006.png,0,0,0,33,33,33,,,,,,,,,,,,,28.006898799998453,0.006898799998452887,None,62.53763840000465,62.53763840000465,62.53763840000465,62.53763840000465,62.53763840000465,62.53763840000465,62.53763840000465,62.53763840000465,,003,P020,2025_May_06_1759,CategoryLocalizer,2021.2.3,59.943197824132504,
28.8,29.0,5,0.0,Stimuli\Blank.png,0,0,0,34,34,34,,,,,,,,,,,,,28.823974799997814,0.023974799997812823,None,63.33837660000427,63.33837660000427,63.33837660000427,63.33837660000427,63.33837660000427,63.33837660000427,63.33837660000427,63.33837660000427,,003,P020,2025_May_06_1759,CategoryLocalizer,2021.2.3,59.943197824132504,
29.0,29.8,2,0.75,Stimuli\ImageFiles-Set1\Bodies\Bodies_Falling_00006.png,1,1,0,35,35,35,,,,,,,,,,,,,29.007980399997905,0.007980399997904897,1,63.521879899999476,63.521879899999476,63.521879899999476,63.521879899999476,63.521879899999476,63.521879899999476,63.521879899999476,63.521879899999476,0.5120780999932322,003,P020,2025_May_06_1759,CategoryLocalizer,2021.2.3,59.943197824132504,
29.8,30.0,5,0.0,Stimuli\Blank.png,0,0,0,36,36,36,,,,,,,,,,,,,29.808322299999418,0.008322299999417027,None,64.32257899999968,64.32257899999968,64.32257899999968,64.32257899999968,64.32257899999968,64.32257899999968,64.32257899999968,64.32257899999968,,003,P020,2025_May_06_1759,CategoryLocalizer,2021.2.3,59.943197824132504,
30.0,30.8,2,0.75,Stimuli\ImageFiles-Set1\Bodies\Bodies_DownwardDog_00005.png,0,0,0,37,37,37,,,,,,,,,,,,,30.008997699995234,0.008997699995234143,None,64.52274749999924,64.52274749999924,64.52274749999924,64.52274749999924,64.52274749999924,64.52274749999924,64.52274749999924,64.52274749999924,,003,P020,2025_May_06_1759,CategoryLocalizer,2021.2.3,59.943197824132504,
30.8,31.0,5,0.0,Stimuli\Blank.png,0,0,0,38,38,38,,,,,,,,,,,,,30.809178399998927,0.009178399998926778,None,65.32346410000173,65.32346410000173,65.32346410000173,65.32346410000173,65.32346410000173,65.32346410000173,65.32346410000173,65.32346410000173,,003,P020,2025_May_06_1759,CategoryLocalizer,2021.2.3,59.943197824132504,
31.0,31.8,2,0.75,Stimuli\ImageFiles-Set1\Bodies\Bodies_Lunging_00003.png,0,0,0,39,39,39,,,,,,,,,,,,,31.008919799998694,0.008919799998693634,None,65.52365629999986,65.52365629999986,65.52365629999986,65.52365629999986,65.52365629999986,65.52365629999986,65.52365629999986,65.52365629999986,,003,P020,2025_May_06_1759,CategoryLocalizer,2021.2.3,59.943197824132504,
31.8,32.0,5,0.0,Stimuli\Blank.png,0,0,0,40,40,40,,,,,,,,,,,,,31.80991340000037,0.009913400000368,None,66.32435680000344,66.32435680000344,66.32435680000344,66.32435680000344,66.32435680000344,66.32435680000344,66.32435680000344,66.32435680000344,,003,P020,2025_May_06_1759,CategoryLocalizer,2021.2.3,59.943197824132504,
32.0,32.8,2,0.75,Stimuli\ImageFiles-Set1\Bodies\Bodies_Kicking_00003.png,0,0,0,41,41,41,,,,,,,,,,,,,32.009858299999905,0.009858299999905284,None,66.52461659999972,66.52461659999972,66.52461659999972,66.52461659999972,66.52461659999972,66.52461659999972,66.52461659999972,66.52461659999972,,003,P020,2025_May_06_1759,CategoryLocalizer,2021.2.3,59.943197824132504,
32.8,33.0,5,0.0,Stimuli\Blank.png,0,0,0,42,42,42,,,,,,,,,,,,,32.81319589999475,0.013195899994755678,None,67.34193280000181,67.34193280000181,67.34193280000181,67.34193280000181,67.34193280000181,67.34193280000181,67.34193280000181,67.34193280000181,,003,P020,2025_May_06_1759,CategoryLocalizer,2021.2.3,59.943197824132504,
33.0,33.8,2,0.75,Stimuli\ImageFiles-Set1\Bodies\Bodies_CobraPose_00003.png,0,0,0,43,43,43,,,,,,,,,,,,,33.02802989999327,0.0280298999932711,None,67.55878859999939,67.55878859999939,67.55878859999939,67.55878859999939,67.55878859999939,67.55878859999939,67.55878859999939,67.55878859999939,,003,P020,2025_May_06_1759,CategoryLocalizer,2021.2.3,59.943197824132504,
33.8,34.0,5,0.0,Stimuli\Blank.png,0,0,0,44,44,44,,,,,,,,,,,,,33.82781279999472,0.027812799994720194,None,68.3428056000048,68.3428056000048,68.3428056000048,68.3428056000048,68.3428056000048,68.3428056000048,68.3428056000048,68.3428056000048,,003,P020,2025_May_06_1759,CategoryLocalizer,2021.2.3,59.943197824132504,
34.0,34.8,2,0.75,Stimuli\ImageFiles-Set1\Bodies\Bodies_Crawling_00003.png,0,0,0,45,45,45,,,,,,,,,,,,,34.011306699998386,0.011306699998385739,None,68.52629990000423,68.52629990000423,68.52629990000423,68.52629990000423,68.52629990000423,68.52629990000423,68.52629990000423,68.52629990000423,,003,P020,2025_May_06_1759,CategoryLocalizer,2021.2.3,59.943197824132504,
34.8,35.0,5,0.0,Stimuli\Blank.png,0,0,0,46,46,46,,,,,,,,,,,,,34.81277629999386,0.012776299993859652,None,69.32701910000469,69.32701910000469,69.32701910000469,69.32701910000469,69.32701910000469,69.32701910000469,69.32701910000469,69.32701910000469,,003,P020,2025_May_06_1759,CategoryLocalizer,2021.2.3,59.943197824132504,
35.0,35.8,2,0.75,Stimuli\ImageFiles-Set1\Bodies\Bodies_Crawling_00006.png,0,0,0,47,47,47,,,,,,,,,,,,,35.01308129999961,0.013081299999612384,None,69.52785290000611,69.52785290000611,69.52785290000611,69.52785290000611,69.52785290000611,69.52785290000611,69.52785290000611,69.52785290000611,,003,P020,2025_May_06_1759,CategoryLocalizer,2021.2.3,59.943197824132504,
35.8,36.0,5,0.0,Stimuli\Blank.png,0,0,0,48,48,48,,,,,,,,,,,,,35.81301169999642,0.013011699996425818,None,70.32789890000277,70.32789890000277,70.32789890000277,70.32789890000277,70.32789890000277,70.32789890000277,70.32789890000277,70.32789890000277,,003,P020,2025_May_06_1759,CategoryLocalizer,2021.2.3,59.943197824132504,
36.0,36.8,2,0.75,Stimuli\ImageFiles-Set1\Bodies\Bodies_Waving_00003.png,0,0,0,49,49,49,,,,,,,,,,,,,36.01332619999448,0.013326199994480703,None,70.52807460000622,70.52807460000622,70.52807460000622,70.52807460000622,70.52807460000622,70.52807460000622,70.52807460000622,70.52807460000622,,003,P020,2025_May_06_1759,CategoryLocalizer,2021.2.3,59.943197824132504,
36.8,37.0,5,0.0,Stimuli\Blank.png,0,0,0,50,50,50,,,,,,,,,,,,,36.81496179999522,0.014961799995219849,None,71.32879450000473,71.32879450000473,71.32879450000473,71.32879450000473,71.32879450000473,71.32879450000473,71.32879450000473,71.32879450000473,,003,P020,2025_May_06_1759,CategoryLocalizer,2021.2.3,59.943197824132504,
37.0,37.8,2,0.75,Stimuli\ImageFiles-Set1\Bodies\Bodies_QuadStretch_00003.png,0,0,0,51,51,51,,,,,,,,,,,,,37.01400309999735,0.014003099997353274,None,71.52915340000618,71.52915340000618,71.52915340000618,71.52915340000618,71.52915340000618,71.52915340000618,71.52915340000618,71.52915340000618,,003,P020,2025_May_06_1759,CategoryLocalizer,2021.2.3,59.943197824132504,
37.8,38.0,5,0.0,Stimuli\Blank.png,0,0,0,52,52,52,,,,,,,,,,,,,37.8172443999938,0.017244399993799675,None,72.34635650000564,72.34635650000564,72.34635650000564,72.34635650000564,72.34635650000564,72.34635650000564,72.34635650000564,72.34635650000564,,003,P020,2025_May_06_1759,CategoryLocalizer,2021.2.3,59.943197824132504,
38.0,38.8,2,0.75,Stimuli\ImageFiles-Set1\Bodies\Bodies_Falling_00004.png,0,0,0,53,53,53,,,,,,,,,,,,,38.01578009999503,0.01578009999502683,None,72.52982610000618,72.52982610000618,72.52982610000618,72.52982610000618,72.52982610000618,72.52982610000618,72.52982610000618,72.52982610000618,,003,P020,2025_May_06_1759,CategoryLocalizer,2021.2.3,59.943197824132504,
38.8,39.0,5,0.0,Stimuli\Blank.png,0,0,0,54,54,54,,,,,,,,,,,,,38.7996650999994,-0.00033490000059543945,None,73.31400540000323,73.31400540000323,73.31400540000323,73.31400540000323,73.31400540000323,73.31400540000323,73.31400540000323,73.31400540000323,,003,P020,2025_May_06_1759,CategoryLocalizer,2021.2.3,59.943197824132504,
39.0,39.8,2,0.75,Stimuli\ImageFiles-Set1\Bodies\Bodies_Waving_00001.png,0,0,0,55,55,55,,,,,,,,,,,,,38.99968369999988,-0.00031630000012228265,None,73.51412859999982,73.51412859999982,73.51412859999982,73.51412859999982,73.51412859999982,73.51412859999982,73.51412859999982,73.51412859999982,,003,P020,2025_May_06_1759,CategoryLocalizer,2021.2.3,59.943197824132504,
39.8,40.0,5,0.0,Stimuli\Blank.png,0,0,0,56,56,56,,,,,,,,,,,,,39.80199459999858,0.0019945999985822027,None,74.33146610000404,74.33146610000404,74.33146610000404,74.33146610000404,74.33146610000404,74.33146610000404,74.33146610000404,74.33146610000404,,003,P020,2025_May_06_1759,CategoryLocalizer,2021.2.3,59.943197824132504,
40.0,40.8,2,0.75,Stimuli\ImageFiles-Set1\Bodies\Bodies_Hanging_00006.png,1,1,0,57,57,57,,,,,,,,,,,,,40.017369899993355,0.01736989999335492,None,74.53161550000368,74.53161550000368,74.53161550000368,74.53161550000368,74.53161550000368,74.53161550000368,74.53161550000368,74.53161550000368,,003,P020,2025_May_06_1759,CategoryLocalizer,2021.2.3,59.943197824132504,
40.8,41.0,5,0.0,Stimuli\Blank.png,0,0,0,58,58,58,,,,,,,,,,,,,40.80239889999939,0.0023988999993918014,None,75.33233520000067,75.33233520000067,75.33233520000067,75.33233520000067,75.33233520000067,75.33233520000067,75.33233520000067,75.33233520000067,,003,P020,2025_May_06_1759,CategoryLocalizer,2021.2.3,59.943197824132504,
41.0,41.8,2,0.75,Stimuli\ImageFiles-Set1\Bodies\Bodies_Standing_00007.png,0,0,0,59,59,59,,,,,,,,,,,,,41.01834559999406,0.018345599994063377,None,75.53250130000379,75.53250130000379,75.53250130000379,75.53250130000379,75.53250130000379,75.53250130000379,75.53250130000379,75.53250130000379,,003,P020,2025_May_06_1759,CategoryLocalizer,2021.2.3,59.943197824132504,
41.8,42.0,5,0.0,Stimuli\Blank.png,0,0,0,60,60,60,,,,,,,,,,,,,41.802772499999264,0.0027724999992670973,None,76.31653760000336,76.31653760000336,76.31653760000336,76.31653760000336,76.31653760000336,76.31653760000336,76.31653760000336,76.31653760000336,,003,P020,2025_May_06_1759,CategoryLocalizer,2021.2.3,59.943197824132504,
42.0,42.8,2,0.75,Stimuli\ImageFiles-Set1\Bodies\Bodies_Standing_00007.png,0,0,0,61,61,61,,,,,,,,,,,,,42.00210749999678,0.0021074999967822805,1,76.51671050000004,76.51671050000004,76.51671050000004,76.51671050000004,76.51671050000004,76.51671050000004,76.51671050000004,76.51671050000004,0.5093204000004334,003,P020,2025_May_06_1759,CategoryLocalizer,2021.2.3,59.943197824132504,
42.8,43.0,5,0.0,Stimuli\Blank.png,0,0,0,62,62,62,,,,,,,,,,,,,42.80256559999543,0.0025655999954352637,None,77.31741519999923,77.31741519999923,77.31741519999923,77.31741519999923,77.31741519999923,77.31741519999923,77.31741519999923,77.31741519999923,,003,P020,2025_May_06_1759,CategoryLocalizer,2021.2.3,59.943197824132504,
43.0,43.8,2,0.75,Stimuli\ImageFiles-Set1\Bodies\Bodies_Walking_00002.png,0,0,0,63,63,63,,,,,,,,,,,,,43.00273279999965,0.002732799999648705,None,77.51759020000463,77.51759020000463,77.51759020000463,77.51759020000463,77.51759020000463,77.51759020000463,77.51759020000463,77.51759020000463,,003,P020,2025_May_06_1759,CategoryLocalizer,2021.2.3,59.943197824132504,
43.8,44.0,5,0.0,Stimuli\Blank.png,0,0,0,64,64,64,,,,,,,,,,,,,43.80351299999893,0.003512999998932287,None,78.31832150000264,78.31832150000264,78.31832150000264,78.31832150000264,78.31832150000264,78.31832150000264,78.31832150000264,78.31832150000264,,003,P020,2025_May_06_1759,CategoryLocalizer,2021.2.3,59.943197824132504,
44.0,44.8,3,0.75,Stimuli\ImageFiles-Set1\Faces\Face_00001.png,0,0,0,65,65,65,,,,,,,,,,,,,44.003526099993906,0.003526099993905518,None,78.53515809999953,78.53515809999953,78.53515809999953,78.53515809999953,78.53515809999953,78.53515809999953,78.53515809999953,78.53515809999953,,003,P020,2025_May_06_1759,CategoryLocalizer,2021.2.3,59.943197824132504,
44.8,45.0,5,0.0,Stimuli\Blank.png,0,0,0,66,66,66,,,,,,,,,,,,,44.82271899999614,0.022718999996143907,None,79.35257220000494,79.35257220000494,79.35257220000494,79.35257220000494,79.35257220000494,79.35257220000494,79.35257220000494,79.35257220000494,,003,P020,2025_May_06_1759,CategoryLocalizer,2021.2.3,59.943197824132504,
45.0,45.8,3,0.75,Stimuli\ImageFiles-Set1\Faces\Face_00109.png,0,0,0,67,67,67,,,,,,,,,,,,,45.0216877999992,0.021687799999199342,None,79.55272759999934,79.55272759999934,79.55272759999934,79.55272759999934,79.55272759999934,79.55272759999934,79.55272759999934,79.55272759999934,,003,P020,2025_May_06_1759,CategoryLocalizer,2021.2.3,59.943197824132504,
45.8,46.0,5,0.0,Stimuli\Blank.png,0,0,0,68,68,68,,,,,,,,,,,,,45.822983199999726,0.022983199999728754,None,80.3367677999995,80.3367677999995,80.3367677999995,80.3367677999995,80.3367677999995,80.3367677999995,80.3367677999995,80.3367677999995,,003,P020,2025_May_06_1759,CategoryLocalizer,2021.2.3,59.943197824132504,
46.0,46.8,3,0.75,Stimuli\ImageFiles-Set1\Faces\Face_00069.png,0,0,0,69,69,69,,,,,,,,,,,,,46.00724139999511,0.007241399995109532,None,80.53691070000059,80.53691070000059,80.53691070000059,80.53691070000059,80.53691070000059,80.53691070000059,80.53691070000059,80.53691070000059,,003,P020,2025_May_06_1759,CategoryLocalizer,2021.2.3,59.943197824132504,
46.8,47.0,5,0.0,Stimuli\Blank.png,0,0,0,70,70,70,,,,,,,,,,,,,46.82276749999437,0.022767499994372997,None,81.33764840000367,81.33764840000367,81.33764840000367,81.33764840000367,81.33764840000367,81.33764840000367,81.33764840000367,81.33764840000367,,003,P020,2025_May_06_1759,CategoryLocalizer,2021.2.3,59.943197824132504,
47.0,47.8,3,0.75,Stimuli\ImageFiles-Set1\Faces\Face_00027.png,0,0,0,71,71,71,,,,,,,,,,,,,47.00658599999588,0.006585999995877501,None,81.52113530000497,81.52113530000497,81.52113530000497,81.52113530000497,81.52113530000497,81.52113530000497,81.52113530000497,81.52113530000497,,003,P020,2025_May_06_1759,CategoryLocalizer,2021.2.3,59.943197824132504,
47.8,48.0,5,0.0,Stimuli\Blank.png,0,0,0,72,72,72,,,,,,,,,,,,,47.807017999999516,0.00701799999951902,None,82.32184200000484,82.32184200000484,82.32184200000484,82.32184200000484,82.32184200000484,82.32184200000484,82.32184200000484,82.32184200000484,,003,P020,2025_May_06_1759,CategoryLocalizer,2021.2.3,59.943197824132504,
48.0,48.8,3,0.75,Stimuli\ImageFiles-Set1\Faces\Face_00025.png,0,0,0,73,73,73,,,,,,,,,,,,,48.007314799993765,0.007314799993764609,None,82.52202030000626,82.52202030000626,82.52202030000626,82.52202030000626,82.52202030000626,82.52202030000626,82.52202030000626,82.52202030000626,,003,P020,2025_May_06_1759,CategoryLocalizer,2021.2.3,59.943197824132504,
48.8,49.0,5,0.0,Stimuli\Blank.png,0,0,0,74,74,74,,,,,,,,,,,,,48.80838689999655,0.008386899996551733,None,83.32272899999953,83.32272899999953,83.32272899999953,83.32272899999953,83.32272899999953,83.32272899999953,83.32272899999953,83.32272899999953,,003,P020,2025_May_06_1759,CategoryLocalizer,2021.2.3,59.943197824132504,
49.0,49.8,3,0.75,Stimuli\ImageFiles-Set1\Faces\Face_00009.png,0,0,0,75,75,75,,,,,,,,,,,,,49.00793169999815,0.007931699998152908,None,83.53960690000531,83.53960690000531,83.53960690000531,83.53960690000531,83.53960690000531,83.53960690000531,83.53960690000531,83.53960690000531,,003,P020,2025_May_06_1759,CategoryLocalizer,2021.2.3,59.943197824132504,
49.8,50.0,5,0.0,Stimuli\Blank.png,0,0,0,76,76,76,,,,,,,,,,,,,49.82667849999416,0.026678499994162053,None,84.34030000000348,84.34030000000348,84.34030000000348,84.34030000000348,84.34030000000348,84.34030000000348,84.34030000000348,84.34030000000348,,003,P020,2025_May_06_1759,CategoryLocalizer,2021.2.3,59.943197824132504,
50.0,50.8,3,0.75,Stimuli\ImageFiles-Set1\Faces\Face_00063.png,0,0,0,77,77,77,,,,,,,,,,,,,50.009551099996315,0.009551099996315315,None,84.52378970000427,84.52378970000427,84.52378970000427,84.52378970000427,84.52378970000427,84.52378970000427,84.52378970000427,84.52378970000427,,003,P020,2025_May_06_1759,CategoryLocalizer,2021.2.3,59.943197824132504,
50.8,51.0,5,0.0,Stimuli\Blank.png,0,0,0,78,78,78,,,,,,,,,,,,,50.810115499996755,0.010115499996757649,None,85.32452780000312,85.32452780000312,85.32452780000312,85.32452780000312,85.32452780000312,85.32452780000312,85.32452780000312,85.32452780000312,,003,P020,2025_May_06_1759,CategoryLocalizer,2021.2.3,59.943197824132504,
51.0,51.8,3,0.75,Stimuli\ImageFiles-Set1\Faces\Face_00079.png,0,0,0,79,79,79,,,,,,,,,,,,,51.009704799995234,0.00970479999523377,None,85.5246752000021,85.5246752000021,85.5246752000021,85.5246752000021,85.5246752000021,85.5246752000021,85.5246752000021,85.5246752000021,,003,P020,2025_May_06_1759,CategoryLocalizer,2021.2.3,59.943197824132504,
51.8,52.0,5,0.0,Stimuli\Blank.png,0,0,0,80,80,80,,,,,,,,,,,,,51.81232359999558,0.012323599995582413,None,86.34210510000412,86.34210510000412,86.34210510000412,86.34210510000412,86.34210510000412,86.34210510000412,86.34210510000412,86.34210510000412,,003,P020,2025_May_06_1759,CategoryLocalizer,2021.2.3,59.943197824132504,
52.0,52.8,3,0.75,Stimuli\ImageFiles-Set1\Faces\Face_00095.png,0,0,0,81,81,81,,,,,,,,,,,,,52.02801129999716,0.028011299997160677,None,86.55893130000186,86.55893130000186,86.55893130000186,86.55893130000186,86.55893130000186,86.55893130000186,86.55893130000186,86.55893130000186,,003,P020,2025_May_06_1759,CategoryLocalizer,2021.2.3,59.943197824132504,
52.8,53.0,5,0.0,Stimuli\Blank.png,0,0,0,82,82,82,,,,,,,,,,,,,52.828428499997244,0.02842849999724706,None,87.34297470000456,87.34297470000456,87.34297470000456,87.34297470000456,87.34297470000456,87.34297470000456,87.34297470000456,87.34297470000456,,003,P020,2025_May_06_1759,CategoryLocalizer,2021.2.3,59.943197824132504,
53.0,53.8,3,0.75,Stimuli\ImageFiles-Set1\Faces\Face_00083.png,0,0,0,83,83,83,,,,,,,,,,,,,53.01210879999417,0.012108799994166475,None,87.54313890000049,87.54313890000049,87.54313890000049,87.54313890000049,87.54313890000049,87.54313890000049,87.54313890000049,87.54313890000049,,003,P020,2025_May_06_1759,CategoryLocalizer,2021.2.3,59.943197824132504,
53.8,54.0,5,0.0,Stimuli\Blank.png,0,0,0,84,84,84,,,,,,,,,,,,,53.82941469999787,0.029414699997872162,None,88.34383589999925,88.34383589999925,88.34383589999925,88.34383589999925,88.34383589999925,88.34383589999925,88.34383589999925,88.34383589999925,,003,P020,2025_May_06_1759,CategoryLocalizer,2021.2.3,59.943197824132504,
54.0,54.8,3,0.75,Stimuli\ImageFiles-Set1\Faces\Face_00051.png,0,0,0,85,85,85,,,,,,,,,,,,,54.013170099999115,0.013170099999115337,None,88.52733640000224,88.52733640000224,88.52733640000224,88.52733640000224,88.52733640000224,88.52733640000224,88.52733640000224,88.52733640000224,,003,P020,2025_May_06_1759,CategoryLocalizer,2021.2.3,59.943197824132504,
54.8,55.0,5,0.0,Stimuli\Blank.png,0,0,0,86,86,86,,,,,,,,,,,,,54.81386709999788,0.013867099997881382,None,89.3280556000027,89.3280556000027,89.3280556000027,89.3280556000027,89.3280556000027,89.3280556000027,89.3280556000027,89.3280556000027,,003,P020,2025_May_06_1759,CategoryLocalizer,2021.2.3,59.943197824132504,
55.0,55.8,3,0.75,Stimuli\ImageFiles-Set1\Faces\Face_00041.png,0,0,0,87,87,87,,,,,,,,,,,,,55.01395409999532,0.013954099995316938,None,89.5282315000004,89.5282315000004,89.5282315000004,89.5282315000004,89.5282315000004,89.5282315000004,89.5282315000004,89.5282315000004,,003,P020,2025_May_06_1759,CategoryLocalizer,2021.2.3,59.943197824132504,
55.8,56.0,5,0.0,Stimuli\Blank.png,0,0,0,88,88,88,,,,,,,,,,,,,55.81408639999427,0.014086399994269527,None,90.32890970000153,90.32890970000153,90.32890970000153,90.32890970000153,90.32890970000153,90.32890970000153,90.32890970000153,90.32890970000153,,003,P020,2025_May_06_1759,CategoryLocalizer,2021.2.3,59.943197824132504,
56.0,56.8,3,0.75,Stimuli\ImageFiles-Set1\Faces\Face_00041.png,1,1,0,89,89,89,,,,,,,,,,,,,56.01700379999966,0.01700379999965662,1,90.54583560000174,90.54583560000174,90.54583560000174,90.54583560000174,90.54583560000174,90.54583560000174,90.54583560000174,90.54583560000174,0.5748773000013898,003,P020,2025_May_06_1759,CategoryLocalizer,2021.2.3,59.943197824132504,
56.8,57.0,5,0.0,Stimuli\Blank.png,0,0,0,90,90,90,,,,,,,,,,,,,56.81727559999854,0.017275599998541225,None,91.34663900000305,91.34663900000305,91.34663900000305,91.34663900000305,91.34663900000305,91.34663900000305,91.34663900000305,91.34663900000305,,003,P020,2025_May_06_1759,CategoryLocalizer,2021.2.3,59.943197824132504,
57.0,57.8,3,0.75,Stimuli\ImageFiles-Set1\Faces\Face_00055.png,0,0,0,91,91,91,,,,,,,,,,,,,57.017182399999,0.017182399999001063,None,91.5467908999999,91.5467908999999,91.5467908999999,91.5467908999999,91.5467908999999,91.5467908999999,91.5467908999999,91.5467908999999,,003,P020,2025_May_06_1759,CategoryLocalizer,2021.2.3,59.943197824132504,
57.8,58.0,5,0.0,Stimuli\Blank.png,0,0,0,92,92,92,,,,,,,,,,,,,57.81835189999401,0.018351899994016208,None,92.34738740000466,92.34738740000466,92.34738740000466,92.34738740000466,92.34738740000466,92.34738740000466,92.34738740000466,92.34738740000466,,003,P020,2025_May_06_1759,CategoryLocalizer,2021.2.3,59.943197824132504,
58.0,58.8,3,0.75,Stimuli\ImageFiles-Set1\Faces\Face_00059.png,0,0,0,93,93,93,,,,,,,,,,,,,58.01619819999905,0.01619819999905303,None,92.53087770000275,92.53087770000275,92.53087770000275,92.53087770000275,92.53087770000275,92.53087770000275,92.53087770000275,92.53087770000275,,003,P020,2025_May_06_1759,CategoryLocalizer,2021.2.3,59.943197824132504,
58.8,59.0,5,0.0,Stimuli\Blank.png,0,0,0,94,94,94,,,,,,,,,,,,,58.80231919999642,0.002319199996421162,None,93.3315980000043,93.3315980000043,93.3315980000043,93.3315980000043,93.3315980000043,93.3315980000043,93.3315980000043,93.3315980000043,,003,P020,2025_May_06_1759,CategoryLocalizer,2021.2.3,59.943197824132504,
59.0,59.8,3,0.75,Stimuli\ImageFiles-Set1\Faces\Face_00047.png,0,0,0,95,95,95,,,,,,,,,,,,,59.01690049999888,0.01690049999888288,None,93.53175740000006,93.53175740000006,93.53175740000006,93.53175740000006,93.53175740000006,93.53175740000006,93.53175740000006,93.53175740000006,,003,P020,2025_May_06_1759,CategoryLocalizer,2021.2.3,59.943197824132504,
59.8,60.0,5,0.0,Stimuli\Blank.png,0,0,0,96,96,96,,,,,,,,,,,,,59.803513199993176,0.003513199993179228,None,94.33247880000272,94.33247880000272,94.33247880000272,94.33247880000272,94.33247880000272,94.33247880000272,94.33247880000272,94.33247880000272,,003,P020,2025_May_06_1759,CategoryLocalizer,2021.2.3,59.943197824132504,
60.0,60.8,4,0.75,Stimuli\ImageFiles-Set1\Scenes\Scenes_006.png,0,0,0,97,97,97,,,,,,,,,,,,,60.017875300000014,0.01787530000001425,None,94.5326481000011,94.5326481000011,94.5326481000011,94.5326481000011,94.5326481000011,94.5326481000011,94.5326481000011,94.5326481000011,,003,P020,2025_May_06_1759,CategoryLocalizer,2021.2.3,59.943197824132504,
60.8,61.0,5,0.0,Stimuli\Blank.png,0,0,0,98,98,98,,,,,,,,,,,,,60.80184279999958,0.0018427999995793698,None,95.3166807000016,95.3166807000016,95.3166807000016,95.3166807000016,95.3166807000016,95.3166807000016,95.3166807000016,95.3166807000016,,003,P020,2025_May_06_1759,CategoryLocalizer,2021.2.3,59.943197824132504,
61.0,61.8,4,0.75,Stimuli\ImageFiles-Set1\Scenes\Scenes_046.png,0,0,0,99,99,99,,,,,,,,,,,,,61.00294869999925,0.002948699999251403,None,95.53357410000172,95.53357410000172,95.53357410000172,95.53357410000172,95.53357410000172,95.53357410000172,95.53357410000172,95.53357410000172,,003,P020,2025_May_06_1759,CategoryLocalizer,2021.2.3,59.943197824132504,
61.8,62.0,5,0.0,Stimuli\Blank.png,0,0,0,100,100,100,,,,,,,,,,,,,61.81937809999363,0.019378099993630826,None,96.33424400000513,96.33424400000513,96.33424400000513,96.33424400000513,96.33424400000513,96.33424400000513,96.33424400000513,96.33424400000513,,003,P020,2025_May_06_1759,CategoryLocalizer,2021.2.3,59.943197824132504,
62.0,62.8,4,0.75,Stimuli\ImageFiles-Set1\Scenes\Scenes_016.png,0,0,0,101,101,101,,,,,,,,,,,,,62.00294049999502,0.002940499995020218,None,96.51774160000059,96.51774160000059,96.51774160000059,96.51774160000059,96.51774160000059,96.51774160000059,96.51774160000059,96.51774160000059,,003,P020,2025_May_06_1759,CategoryLocalizer,2021.2.3,59.943197824132504,
62.8,63.0,5,0.0,Stimuli\Blank.png,0,0,0,102,102,102,,,,,,,,,,,,,62.803459299997485,0.0034592999974876193,None,97.31844580000325,97.31844580000325,97.31844580000325,97.31844580000325,97.31844580000325,97.31844580000325,97.31844580000325,97.31844580000325,,003,P020,2025_May_06_1759,CategoryLocalizer,2021.2.3,59.943197824132504,
63.0,63.8,4,0.75,Stimuli\ImageFiles-Set1\Scenes\Scenes_011.png,0,0,0,103,103,103,,,,,,,,,,,,,63.004575599996315,0.00457559999631485,None,97.51863620000222,97.51863620000222,97.51863620000222,97.51863620000222,97.51863620000222,97.51863620000222,97.51863620000222,97.51863620000222,,003,P020,2025_May_06_1759,CategoryLocalizer,2021.2.3,59.943197824132504,
63.8,64.0,5,0.0,Stimuli\Blank.png,0,0,0,104,104,104,,,,,,,,,,,,,63.80438359999971,0.004383599999712828,None,98.31933640000352,98.31933640000352,98.31933640000352,98.31933640000352,98.31933640000352,98.31933640000352,98.31933640000352,98.31933640000352,,003,P020,2025_May_06_1759,CategoryLocalizer,2021.2.3,59.943197824132504,
64.0,64.8,4,0.75,Stimuli\ImageFiles-Set1\Scenes\Scenes_011.png,1,1,0,105,105,105,,,,,,,,,,,,,64.00529189999361,0.00529189999360824,1,98.53619860000617,98.53619860000617,98.53619860000617,98.53619860000617,98.53619860000617,98.53619860000617,98.53619860000617,98.53619860000617,0.5355718999999226,003,P020,2025_May_06_1759,CategoryLocalizer,2021.2.3,59.943197824132504,
64.8,65.0,5,0.0,Stimuli\Blank.png,0,0,0,106,106,106,,,,,,,,,,,,,64.82213429999683,0.022134299996835693,None,99.33689860000595,99.33689860000595,99.33689860000595,99.33689860000595,99.33689860000595,99.33689860000595,99.33689860000595,99.33689860000595,,003,P020,2025_May_06_1759,CategoryLocalizer,2021.2.3,59.943197824132504,
65.0,65.8,4,0.75,Stimuli\ImageFiles-Set1\Scenes\Scenes_018.png,0,0,0,107,107,107,,,,,,,,,,,,,65.00672919999488,0.006729199994879309,None,99.53707930000382,99.53707930000382,99.53707930000382,99.53707930000382,99.53707930000382,99.53707930000382,99.53707930000382,99.53707930000382,,003,P020,2025_May_06_1759,CategoryLocalizer,2021.2.3,59.943197824132504,
65.8,66.0,5,0.0,Stimuli\Blank.png,0,0,0,108,108,108,,,,,,,,,,,,,65.8229080999954,0.022908099995404996,None,100.33778620000521,100.33778620000521,100.33778620000521,100.33778620000521,100.33778620000521,100.33778620000521,100.33778620000521,100.33778620000521,,003,P020,2025_May_06_1759,CategoryLocalizer,2021.2.3,59.943197824132504,
66.0,66.8,4,0.75,Stimuli\ImageFiles-Set1\Scenes\Scenes_039.png,0,0,0,109,109,109,,,,,,,,,,,,,66.0065495999952,0.006549599995196331,None,100.52129129999958,100.52129129999958,100.52129129999958,100.52129129999958,100.52129129999958,100.52129129999958,100.52129129999958,100.52129129999958,,003,P020,2025_May_06_1759,CategoryLocalizer,2021.2.3,59.943197824132504,
66.8,67.0,5,0.0,Stimuli\Blank.png,0,0,0,110,110,110,,,,,,,,,,,,,66.80807110000023,0.008071100000236697,None,101.32199880000553,101.32199880000553,101.32199880000553,101.32199880000553,101.32199880000553,101.32199880000553,101.32199880000553,101.32199880000553,,003,P020,2025_May_06_1759,CategoryLocalizer,2021.2.3,59.943197824132504,
67.0,67.8,4,0.75,Stimuli\ImageFiles-Set1\Scenes\Scenes_005.png,0,0,0,111,111,111,,,,,,,,,,,,,67.00835819999338,0.008358199993381277,None,101.53885010000522,101.53885010000522,101.53885010000522,101.53885010000522,101.53885010000522,101.53885010000522,101.53885010000522,101.53885010000522,,003,P020,2025_May_06_1759,CategoryLocalizer,2021.2.3,59.943197824132504,
67.8,68.0,5,0.0,Stimuli\Blank.png,0,0,0,112,112,112,,,,,,,,,,,,,67.82459749999543,0.024597499995437033,None,102.33955880000576,102.33955880000576,102.33955880000576,102.33955880000576,102.33955880000576,102.33955880000576,102.33955880000576,102.33955880000576,,003,P020,2025_May_06_1759,CategoryLocalizer,2021.2.3,59.943197824132504,
68.0,68.8,4,0.75,Stimuli\ImageFiles-Set1\Scenes\Scenes_031.png,1,1,0,113,113,113,,,,,,,,,,,,,68.00895989999844,0.008959899998444598,None,102.5397421000016,102.5397421000016,102.5397421000016,102.5397421000016,102.5397421000016,102.5397421000016,102.5397421000016,102.5397421000016,,003,P020,2025_May_06_1759,CategoryLocalizer,2021.2.3,59.943197824132504,
68.8,69.0,5,0.0,Stimuli\Blank.png,0,0,0,114,114,114,,,,,,,,,,,,,68.82593699999416,0.025936999994158327,None,103.34044740000536,103.34044740000536,103.34044740000536,103.34044740000536,103.34044740000536,103.34044740000536,103.34044740000536,103.34044740000536,,003,P020,2025_May_06_1759,CategoryLocalizer,2021.2.3,59.943197824132504,
69.0,69.8,4,0.75,Stimuli\ImageFiles-Set1\Scenes\Scenes_020.png,0,0,0,115,115,115,,,,,,,,,,,,,69.00986310000008,0.009863100000075065,None,103.54062450000492,103.54062450000492,103.54062450000492,103.54062450000492,103.54062450000492,103.54062450000492,103.54062450000492,103.54062450000492,,003,P020,2025_May_06_1759,CategoryLocalizer,2021.2.3,59.943197824132504,
69.8,70.0,5,0.0,Stimuli\Blank.png,0,0,0,116,116,116,,,,,,,,,,,,,69.82652049999888,0.026520499998881064,None,104.34133160000056,104.34133160000056,104.34133160000056,104.34133160000056,104.34133160000056,104.34133160000056,104.34133160000056,104.34133160000056,,003,P020,2025_May_06_1759,CategoryLocalizer,2021.2.3,59.943197824132504,
70.0,70.8,4,0.75,Stimuli\ImageFiles-Set1\Scenes\Scenes_020.png,0,0,0,117,117,117,,,,,,,,,,,,,70.01058089999424,0.01058089999423828,1,104.54152620000241,104.54152620000241,104.54152620000241,104.54152620000241,104.54152620000241,104.54152620000241,104.54152620000241,104.54152620000241,0.5103888000012375,003,P020,2025_May_06_1759,CategoryLocalizer,2021.2.3,59.943197824132504,
70.8,71.0,5,0.0,Stimuli\Blank.png,0,0,0,118,118,118,,,,,,,,,,,,,70.82774639999843,0.027746399998434867,None,105.34223240000574,105.34223240000574,105.34223240000574,105.34223240000574,105.34223240000574,105.34223240000574,105.34223240000574,105.34223240000574,,003,P020,2025_May_06_1759,CategoryLocalizer,2021.2.3,59.943197824132504,
71.0,71.8,4,0.75,Stimuli\ImageFiles-Set1\Scenes\Scenes_043.png,0,0,0,119,119,119,,,,,,,,,,,,,71.01260619999812,0.012606199998117518,None,105.54241360000015,105.54241360000015,105.54241360000015,105.54241360000015,105.54241360000015,105.54241360000015,105.54241360000015,105.54241360000015,,003,P020,2025_May_06_1759,CategoryLocalizer,2021.2.3,59.943197824132504,
71.8,72.0,5,0.0,Stimuli\Blank.png,0,0,0,120,120,120,,,,,,,,,,,,,71.82914049999818,0.029140499998177916,None,106.34307690000423,106.34307690000423,106.34307690000423,106.34307690000423,106.34307690000423,106.34307690000423,106.34307690000423,106.34307690000423,,003,P020,2025_May_06_1759,CategoryLocalizer,2021.2.3,59.943197824132504,
72.0,72.8,4,0.75,Stimuli\ImageFiles-Set1\Scenes\Scenes_024.png,0,0,0,121,121,121,,,,,,,,,,,,,72.01197179999872,0.01197179999871878,None,106.54328140000143,106.54328140000143,106.54328140000143,106.54328140000143,106.54328140000143,106.54328140000143,106.54328140000143,106.54328140000143,,003,P020,2025_May_06_1759,CategoryLocalizer,2021.2.3,59.943197824132504,
72.8,73.0,5,0.0,Stimuli\Blank.png,0,0,0,122,122,122,,,,,,,,,,,,,72.82897709999816,0.02897709999815845,None,107.3439892000024,107.3439892000024,107.3439892000024,107.3439892000024,107.3439892000024,107.3439892000024,107.3439892000024,107.3439892000024,,003,P020,2025_May_06_1759,CategoryLocalizer,2021.2.3,59.943197824132504,
73.0,73.8,4,0.75,Stimuli\ImageFiles-Set1\Scenes\Scenes_040.png,0,0,0,123,123,123,,,,,,,,,,,,,73.01322559999971,0.013225599999714177,None,107.54417540000577,107.54417540000577,107.54417540000577,107.54417540000577,107.54417540000577,107.54417540000577,107.54417540000577,107.54417540000577,,003,P020,2025_May_06_1759,CategoryLocalizer,2021.2.3,59.943197824132504,
73.8,74.0,5,0.0,Stimuli\Blank.png,0,0,0,124,124,124,,,,,,,,,,,,,73.82990710000013,0.029907100000130526,None,108.3448897000053,108.3448897000053,108.3448897000053,108.3448897000053,108.3448897000053,108.3448897000053,108.3448897000053,108.3448897000053,,003,P020,2025_May_06_1759,CategoryLocalizer,2021.2.3,59.943197824132504,
74.0,74.8,4,0.75,Stimuli\ImageFiles-Set1\Scenes\Scenes_015.png,0,0,0,125,125,125,,,,,,,,,,,,,74.01341659999889,0.013416599998890888,None,108.52837720000389,108.52837720000389,108.52837720000389,108.52837720000389,108.52837720000389,108.52837720000389,108.52837720000389,108.52837720000389,,003,P020,2025_May_06_1759,CategoryLocalizer,2021.2.3,59.943197824132504,
74.8,75.0,5,0.0,Stimuli\Blank.png,0,0,0,126,126,126,,,,,,,,,,,,,74.81461989999661,0.014619899996617391,None,109.3290433000002,109.3290433000002,109.3290433000002,109.3290433000002,109.3290433000002,109.3290433000002,109.3290433000002,109.3290433000002,,003,P020,2025_May_06_1759,CategoryLocalizer,2021.2.3,59.943197824132504,
75.0,75.8,4,0.75,Stimuli\ImageFiles-Set1\Scenes\Scenes_004.png,0,0,0,127,127,127,,,,,,,,,,,,,75.01575419999426,0.015754199994262308,None,109.54610360000515,109.54610360000515,109.54610360000515,109.54610360000515,109.54610360000515,109.54610360000515,109.54610360000515,109.54610360000515,,003,P020,2025_May_06_1759,CategoryLocalizer,2021.2.3,59.943197824132504,
75.8,76.0,5,0.0,Stimuli\Blank.png,0,0,0,128,128,128,,,,,,,,,,,,,75.81576049999421,0.015760499994215138,None,110.32996780000394,110.32996780000394,110.32996780000394,110.32996780000394,110.32996780000394,110.32996780000394,110.32996780000394,110.32996780000394,,003,P020,2025_May_06_1759,CategoryLocalizer,2021.2.3,59.943197824132504,
76.0,88.0,0,0.0,Stimuli\Blank.png,0,0,0,129,129,129,,,,,,,,,,,,,75.99916759999905,-0.0008324000009451993,None,110.51345270000456,110.51345270000456,110.51345270000456,110.51345270000456,110.51345270000456,110.51345270000456,110.51345270000456,110.51345270000456,,003,P020,2025_May_06_1759,CategoryLocalizer,2021.2.3,59.943197824132504,
88.0,88.8,3,0.75,Stimuli\ImageFiles-Set1\Faces\Face_00085.png,0,0,0,130,130,130,,,,,,,,,,,,,88.00985359999322,0.009853599993220996,None,122.52408860000287,122.52408860000287,122.52408860000287,122.52408860000287,122.52408860000287,122.52408860000287,122.52408860000287,122.52408860000287,,003,P020,2025_May_06_1759,CategoryLocalizer,2021.2.3,59.943197824132504,
88.8,89.0,5,0.0,Stimuli\Blank.png,0,0,0,131,131,131,,,,,,,,,,,,,88.80986019999546,0.009860199995458174,None,123.3247915000029,123.3247915000029,123.3247915000029,123.3247915000029,123.3247915000029,123.3247915000029,123.3247915000029,123.3247915000029,,003,P020,2025_May_06_1759,CategoryLocalizer,2021.2.3,59.943197824132504,
89.0,89.8,3,0.75,Stimuli\ImageFiles-Set1\Faces\Face_00031.png,0,0,0,132,132,132,,,,,,,,,,,,,89.01007009999739,0.01007009999739239,None,123.52497720000247,123.52497720000247,123.52497720000247,123.52497720000247,123.52497720000247,123.52497720000247,123.52497720000247,123.52497720000247,,003,P020,2025_May_06_1759,CategoryLocalizer,2021.2.3,59.943197824132504,
89.8,90.0,5,0.0,Stimuli\Blank.png,0,0,0,133,133,133,,,,,,,,,,,,,89.81258449999586,0.012584499995867304,None,124.34236810000584,124.34236810000584,124.34236810000584,124.34236810000584,124.34236810000584,124.34236810000584,124.34236810000584,124.34236810000584,,003,P020,2025_May_06_1759,CategoryLocalizer,2021.2.3,59.943197824132504,
90.0,90.8,3,0.75,Stimuli\ImageFiles-Set1\Faces\Face_00077.png,0,0,0,134,134,134,,,,,,,,,,,,,90.02825379999558,0.028253799995582085,None,124.5592242000057,124.5592242000057,124.5592242000057,124.5592242000057,124.5592242000057,124.5592242000057,124.5592242000057,124.5592242000057,,003,P020,2025_May_06_1759,CategoryLocalizer,2021.2.3,59.943197824132504,
90.8,91.0,5,0.0,Stimuli\Blank.png,0,0,0,135,135,135,,,,,,,,,,,,,90.82878099999652,0.028780999996527612,None,125.34325580000586,125.34325580000586,125.34325580000586,125.34325580000586,125.34325580000586,125.34325580000586,125.34325580000586,125.34325580000586,,003,P020,2025_May_06_1759,CategoryLocalizer,2021.2.3,59.943197824132504,
91.0,91.8,3,0.75,Stimuli\ImageFiles-Set1\Faces\Face_00075.png,0,0,0,136,136,136,,,,,,,,,,,,,91.01179769999726,0.01179769999725977,None,125.52673420000065,125.52673420000065,125.52673420000065,125.52673420000065,125.52673420000065,125.52673420000065,125.52673420000065,125.52673420000065,,003,P020,2025_May_06_1759,CategoryLocalizer,2021.2.3,59.943197824132504,
91.8,92.0,5,0.0,Stimuli\Blank.png,0,0,0,137,137,137,,,,,,,,,,,,,91.81307279999601,0.013072799996010076,None,126.32743460000347,126.32743460000347,126.32743460000347,126.32743460000347,126.32743460000347,126.32743460000347,126.32743460000347,126.32743460000347,,003,P020,2025_May_06_1759,CategoryLocalizer,2021.2.3,59.943197824132504,
92.0,92.8,3,0.75,Stimuli\ImageFiles-Set1\Faces\Face_00097.png,0,0,0,138,138,138,,,,,,,,,,,,,92.01280539999425,0.012805399994249456,None,126.52763410000625,126.52763410000625,126.52763410000625,126.52763410000625,126.52763410000625,126.52763410000625,126.52763410000625,126.52763410000625,,003,P020,2025_May_06_1759,CategoryLocalizer,2021.2.3,59.943197824132504,
92.8,93.0,5,0.0,Stimuli\Blank.png,0,0,0,139,139,139,,,,,,,,,,,,,92.81335369999579,0.013353699995789725,None,127.32830690000264,127.32830690000264,127.32830690000264,127.32830690000264,127.32830690000264,127.32830690000264,127.32830690000264,127.32830690000264,,003,P020,2025_May_06_1759,CategoryLocalizer,2021.2.3,59.943197824132504,
93.0,93.8,3,0.75,Stimuli\ImageFiles-Set1\Faces\Face_00091.png,0,0,0,140,140,140,,,,,,,,,,,,,93.01451759999327,0.01451759999326896,None,127.52854099999968,127.52854099999968,127.52854099999968,127.52854099999968,127.52854099999968,127.52854099999968,127.52854099999968,127.52854099999968,,003,P020,2025_May_06_1759,CategoryLocalizer,2021.2.3,59.943197824132504,
93.8,94.0,5,0.0,Stimuli\Blank.png,0,0,0,141,141,141,,,,,,,,,,,,,93.81414819999918,0.01414819999918393,None,128.32922840000538,128.32922840000538,128.32922840000538,128.32922840000538,128.32922840000538,128.32922840000538,128.32922840000538,128.32922840000538,,003,P020,2025_May_06_1759,CategoryLocalizer,2021.2.3,59.943197824132504,
94.0,94.8,3,0.75,Stimuli\ImageFiles-Set1\Faces\Face_00005.png,0,0,0,142,142,142,,,,,,,,,,,,,94.01514909999969,0.015149099999689497,None,128.52939860000333,128.52939860000333,128.52939860000333,128.52939860000333,128.52939860000333,128.52939860000333,128.52939860000333,128.52939860000333,,003,P020,2025_May_06_1759,CategoryLocalizer,2021.2.3,59.943197824132504,
94.8,95.0,5,0.0,Stimuli\Blank.png,0,0,0,143,143,143,,,,,,,,,,,,,94.79901529999916,-0.0009847000008420537,None,129.31343030000426,129.31343030000426,129.31343030000426,129.31343030000426,129.31343030000426,129.31343030000426,129.31343030000426,129.31343030000426,,003,P020,2025_May_06_1759,CategoryLocalizer,2021.2.3,59.943197824132504,
95.0,95.8,3,0.75,Stimuli\ImageFiles-Set1\Faces\Face_00103.png,0,0,0,144,144,144,,,,,,,,,,,,,94.99920469999779,-0.0007953000022098422,None,129.5136016000033,129.5136016000033,129.5136016000033,129.5136016000033,129.5136016000033,129.5136016000033,129.5136016000033,129.5136016000033,,003,P020,2025_May_06_1759,CategoryLocalizer,2021.2.3,59.943197824132504,
95.8,96.0,5,0.0,Stimuli\Blank.png,0,0,0,145,145,145,,,,,,,,,,,,,95.79964279999695,-0.0003572000030516165,None,130.31432110000605,130.31432110000605,130.31432110000605,130.31432110000605,130.31432110000605,130.31432110000605,130.31432110000605,130.31432110000605,,003,P020,2025_May_06_1759,CategoryLocalizer,2021.2.3,59.943197824132504,
96.0,96.8,3,0.75,Stimuli\ImageFiles-Set1\Faces\Face_00037.png,0,0,0,146,146,146,,,,,,,,,,,,,95.99957309999445,-0.00042690000555012375,None,130.51449310000316,130.51449310000316,130.51449310000316,130.51449310000316,130.51449310000316,130.51449310000316,130.51449310000316,130.51449310000316,,003,P020,2025_May_06_1759,CategoryLocalizer,2021.2.3,59.943197824132504,
96.8,97.0,5,0.0,Stimuli\Blank.png,0,0,0,147,147,147,,,,,,,,,,,,,96.8013706999991,0.0013706999991001112,None,131.33188820000214,131.33188820000214,131.33188820000214,131.33188820000214,131.33188820000214,131.33188820000214,131.33188820000214,131.33188820000214,,003,P020,2025_May_06_1759,CategoryLocalizer,2021.2.3,59.943197824132504,
97.0,97.8,3,0.75,Stimuli\ImageFiles-Set1\Faces\Face_00039.png,0,0,0,148,148,148,,,,,,,,,,,,,97.01773999999568,0.01773999999568332,None,131.54874019999988,131.54874019999988,131.54874019999988,131.54874019999988,131.54874019999988,131.54874019999988,131.54874019999988,131.54874019999988,,003,P020,2025_May_06_1759,CategoryLocalizer,2021.2.3,59.943197824132504,
97.8,98.0,5,0.0,Stimuli\Blank.png,0,0,0,149,149,149,,,,,,,,,,,,,97.81857039999886,0.018570399998864673,None,132.33276699999988,132.33276699999988,132.33276699999988,132.33276699999988,132.33276699999988,132.33276699999988,132.33276699999988,132.33276699999988,,003,P020,2025_May_06_1759,CategoryLocalizer,2021.2.3,59.943197824132504,
98.0,98.8,3,0.75,Stimuli\ImageFiles-Set1\Faces\Face_00113.png,0,0,0,150,150,150,,,,,,,,,,,,,98.00275829999737,0.0027582999973674305,None,132.53295590000198,132.53295590000198,132.53295590000198,132.53295590000198,132.53295590000198,132.53295590000198,132.53295590000198,132.53295590000198,,003,P020,2025_May_06_1759,CategoryLocalizer,2021.2.3,59.943197824132504,
98.8,99.0,5,0.0,Stimuli\Blank.png,0,0,0,151,151,151,,,,,,,,,,,,,98.81877729999542,0.01877729999542055,None,133.3336316999994,133.3336316999994,133.3336316999994,133.3336316999994,133.3336316999994,133.3336316999994,133.3336316999994,133.3336316999994,,003,P020,2025_May_06_1759,CategoryLocalizer,2021.2.3,59.943197824132504,
99.0,99.8,3,0.75,Stimuli\ImageFiles-Set1\Faces\Face_00107.png,0,0,0,152,152,152,,,,,,,,,,,,,99.00287489999755,0.0028748999975505285,None,133.53387010000006,133.53387010000006,133.53387010000006,133.53387010000006,133.53387010000006,133.53387010000006,133.53387010000006,133.53387010000006,,003,P020,2025_May_06_1759,CategoryLocalizer,2021.2.3,59.943197824132504,
99.8,100.0,5,0.0,Stimuli\Blank.png,0,0,0,153,153,153,,,,,,,,,,,,,99.81955639999796,0.019556399997966878,None,134.33454139999958,134.33454139999958,134.33454139999958,134.33454139999958,134.33454139999958,134.33454139999958,134.33454139999958,134.33454139999958,,003,P020,2025_May_06_1759,CategoryLocalizer,2021.2.3,59.943197824132504,
100.0,100.8,3,0.75,Stimuli\ImageFiles-Set1\Faces\Face_00029.png,0,0,0,154,154,154,,,,,,,,,,,,,100.00376949999918,0.0037694999991799705,None,134.51799290000054,134.51799290000054,134.51799290000054,134.51799290000054,134.51799290000054,134.51799290000054,134.51799290000054,134.51799290000054,,003,P020,2025_May_06_1759,CategoryLocalizer,2021.2.3,59.943197824132504,
100.8,101.0,5,0.0,Stimuli\Blank.png,0,0,0,155,155,155,,,,,,,,,,,,,100.80399229999603,0.003992299996028237,None,135.31873740000447,135.31873740000447,135.31873740000447,135.31873740000447,135.31873740000447,135.31873740000447,135.31873740000447,135.31873740000447,,003,P020,2025_May_06_1759,CategoryLocalizer,2021.2.3,59.943197824132504,
101.0,101.8,3,0.75,Stimuli\ImageFiles-Set1\Faces\Face_00029.png,1,1,0,156,156,156,,,,,,,,,,,,,101.00447189999977,0.004471899999771267,None,135.51891830000386,135.51891830000386,135.51891830000386,135.51891830000386,135.51891830000386,135.51891830000386,135.51891830000386,135.51891830000386,,003,P020,2025_May_06_1759,CategoryLocalizer,2021.2.3,59.943197824132504,
101.8,102.0,5,0.0,Stimuli\Blank.png,0,0,0,157,157,157,,,,,,,,,,,,,101.80467289999797,0.004672899997970603,None,136.31963070000347,136.31963070000347,136.31963070000347,136.31963070000347,136.31963070000347,136.31963070000347,136.31963070000347,136.31963070000347,,003,P020,2025_May_06_1759,CategoryLocalizer,2021.2.3,59.943197824132504,
102.0,102.8,3,0.75,Stimuli\ImageFiles-Set1\Faces\Face_00035.png,0,0,0,158,158,158,,,,,,,,,,,,,102.00774919999822,0.007749199998215772,None,136.5364589000019,136.5364589000019,136.5364589000019,136.5364589000019,136.5364589000019,136.5364589000019,136.5364589000019,136.5364589000019,,003,P020,2025_May_06_1759,CategoryLocalizer,2021.2.3,59.943197824132504,
102.8,103.0,5,0.0,Stimuli\Blank.png,0,0,0,159,159,159,,,,,,,,,,,,,102.8228392999954,0.0228392999953968,None,137.33724530000472,137.33724530000472,137.33724530000472,137.33724530000472,137.33724530000472,137.33724530000472,137.33724530000472,137.33724530000472,,003,P020,2025_May_06_1759,CategoryLocalizer,2021.2.3,59.943197824132504,
103.0,103.8,3,0.75,Stimuli\ImageFiles-Set1\Faces\Face_00119.png,0,0,0,160,160,160,,,,,,,,,,,,,103.0069669000004,0.006966900000406895,None,137.53737309999997,137.53737309999997,137.53737309999997,137.53737309999997,137.53737309999997,137.53737309999997,137.53737309999997,137.53737309999997,,003,P020,2025_May_06_1759,CategoryLocalizer,2021.2.3,59.943197824132504,
103.8,104.0,5,0.0,Stimuli\Blank.png,0,0,0,161,161,161,,,,,,,,,,,,,103.82320249999611,0.0232024999961169,None,138.3380765000038,138.3380765000038,138.3380765000038,138.3380765000038,138.3380765000038,138.3380765000038,138.3380765000038,138.3380765000038,,003,P020,2025_May_06_1759,CategoryLocalizer,2021.2.3,59.943197824132504,
104.0,104.8,1,0.75,Stimuli\ImageFiles-Set1\Objects\Object_Sock_00001.png,0,0,0,162,162,162,,,,,,,,,,,,,104.00706509999873,0.0070650999987265095,None,138.52154480000172,138.52154480000172,138.52154480000172,138.52154480000172,138.52154480000172,138.52154480000172,138.52154480000172,138.52154480000172,,003,P020,2025_May_06_1759,CategoryLocalizer,2021.2.3,59.943197824132504,
104.8,105.0,5,0.0,Stimuli\Blank.png,0,0,0,163,163,163,,,,,,,,,,,,,104.80793959999573,0.007939599995737012,None,139.32229320000624,139.32229320000624,139.32229320000624,139.32229320000624,139.32229320000624,139.32229320000624,139.32229320000624,139.32229320000624,,003,P020,2025_May_06_1759,CategoryLocalizer,2021.2.3,59.943197824132504,
105.0,105.8,1,0.75,Stimuli\ImageFiles-Set1\Objects\Object_Sock_00001.png,1,1,0,164,164,164,,,,,,,,,,,,,105.00814369999716,0.008143699997162912,1,139.52247080000234,139.52247080000234,139.52247080000234,139.52247080000234,139.52247080000234,139.52247080000234,139.52247080000234,139.52247080000234,0.47430500000336906,003,P020,2025_May_06_1759,CategoryLocalizer,2021.2.3,59.943197824132504,
105.8,106.0,5,0.0,Stimuli\Blank.png,0,0,0,165,165,165,,,,,,,,,,,,,105.80882069999643,0.0088206999964342,None,140.32317760000296,140.32317760000296,140.32317760000296,140.32317760000296,140.32317760000296,140.32317760000296,140.32317760000296,140.32317760000296,,003,P020,2025_May_06_1759,CategoryLocalizer,2021.2.3,59.943197824132504,
106.0,106.8,1,0.75,Stimuli\ImageFiles-Set1\Objects\Object_Glasses_00001.png,0,0,0,166,166,166,,,,,,,,,,,,,106.00932439999451,0.009324399994511623,None,140.52334630000405,140.52334630000405,140.52334630000405,140.52334630000405,140.52334630000405,140.52334630000405,140.52334630000405,140.52334630000405,,003,P020,2025_May_06_1759,CategoryLocalizer,2021.2.3,59.943197824132504,
106.8,107.0,5,0.0,Stimuli\Blank.png,0,0,0,167,167,167,,,,,,,,,,,,,106.81012019999616,0.01012019999616598,None,141.32409259999986,141.32409259999986,141.32409259999986,141.32409259999986,141.32409259999986,141.32409259999986,141.32409259999986,141.32409259999986,,003,P020,2025_May_06_1759,CategoryLocalizer,2021.2.3,59.943197824132504,
107.0,107.8,1,0.75,Stimuli\ImageFiles-Set1\Objects\Object_TeaBag_00001.png,0,0,0,168,168,168,,,,,,,,,,,,,107.01076919999468,0.010769199994683731,None,141.52425050000602,141.52425050000602,141.52425050000602,141.52425050000602,141.52425050000602,141.52425050000602,141.52425050000602,141.52425050000602,,003,P020,2025_May_06_1759,CategoryLocalizer,2021.2.3,59.943197824132504,
107.8,108.0,5,0.0,Stimuli\Blank.png,0,0,0,169,169,169,,,,,,,,,,,,,107.81216469999345,0.01216469999344838,None,142.3416453000027,142.3416453000027,142.3416453000027,142.3416453000027,142.3416453000027,142.3416453000027,142.3416453000027,142.3416453000027,,003,P020,2025_May_06_1759,CategoryLocalizer,2021.2.3,59.943197824132504,
108.0,108.8,1,0.75,Stimuli\ImageFiles-Set1\Objects\Object_Shirt_00001.png,0,0,0,170,170,170,,,,,,,,,,,,,108.02744609999354,0.027446099993539974,None,142.5418060000011,142.5418060000011,142.5418060000011,142.5418060000011,142.5418060000011,142.5418060000011,142.5418060000011,142.5418060000011,,003,P020,2025_May_06_1759,CategoryLocalizer,2021.2.3,59.943197824132504,
108.8,109.0,5,0.0,Stimuli\Blank.png,0,0,0,171,171,171,,,,,,,,,,,,,108.8134859999991,0.013485999999105047,None,143.34252290000586,143.34252290000586,143.34252290000586,143.34252290000586,143.34252290000586,143.34252290000586,143.34252290000586,143.34252290000586,,003,P020,2025_May_06_1759,CategoryLocalizer,2021.2.3,59.943197824132504,
109.0,109.8,1,0.75,Stimuli\ImageFiles-Set1\Objects\Object_Bench_00001.png,0,0,0,172,172,172,,,,,,,,,,,,,109.02845189999789,0.028451899997889996,None,143.55938900000183,143.55938900000183,143.55938900000183,143.55938900000183,143.55938900000183,143.55938900000183,143.55938900000183,143.55938900000183,,003,P020,2025_May_06_1759,CategoryLocalizer,2021.2.3,59.943197824132504,
109.8,110.0,5,0.0,Stimuli\Blank.png,0,0,0,173,173,173,,,,,,,,,,,,,109.82909119999385,0.02909119999385723,None,144.3434045000031,144.3434045000031,144.3434045000031,144.3434045000031,144.3434045000031,144.3434045000031,144.3434045000031,144.3434045000031,,003,P020,2025_May_06_1759,CategoryLocalizer,2021.2.3,59.943197824132504,
110.0,110.8,1,0.75,Stimuli\ImageFiles-Set1\Objects\Object_Dice_00001.png,0,0,0,174,174,174,,,,,,,,,,,,,110.01233909999428,0.012339099994278513,None,144.5268950000027,144.5268950000027,144.5268950000027,144.5268950000027,144.5268950000027,144.5268950000027,144.5268950000027,144.5268950000027,,003,P020,2025_May_06_1759,CategoryLocalizer,2021.2.3,59.943197824132504,
110.8,111.0,5,0.0,Stimuli\Blank.png,0,0,0,175,175,175,,,,,,,,,,,,,110.81345539999893,0.013455399998932194,None,145.3275819000046,145.3275819000046,145.3275819000046,145.3275819000046,145.3275819000046,145.3275819000046,145.3275819000046,145.3275819000046,,003,P020,2025_May_06_1759,CategoryLocalizer,2021.2.3,59.943197824132504,
111.0,111.8,1,0.75,Stimuli\ImageFiles-Set1\Objects\Object_Stool_00001.png,0,0,0,176,176,176,,,,,,,,,,,,,111.01356139999552,0.01356139999552397,None,145.52775100000144,145.52775100000144,145.52775100000144,145.52775100000144,145.52775100000144,145.52775100000144,145.52775100000144,145.52775100000144,,003,P020,2025_May_06_1759,CategoryLocalizer,2021.2.3,59.943197824132504,
111.8,112.0,5,0.0,Stimuli\Blank.png,0,0,0,177,177,177,,,,,,,,,,,,,111.8135559999937,0.01355599999369872,None,146.3285049000042,146.3285049000042,146.3285049000042,146.3285049000042,146.3285049000042,146.3285049000042,146.3285049000042,146.3285049000042,,003,P020,2025_May_06_1759,CategoryLocalizer,2021.2.3,59.943197824132504,
112.0,112.8,1,0.75,Stimuli\ImageFiles-Set1\Objects\Object_ShoppingCart_00001.png,0,0,0,178,178,178,,,,,,,,,,,,,112.01428599999781,0.014285999997809995,None,146.54535840000608,146.54535840000608,146.54535840000608,146.54535840000608,146.54535840000608,146.54535840000608,146.54535840000608,146.54535840000608,,003,P020,2025_May_06_1759,CategoryLocalizer,2021.2.3,59.943197824132504,
112.8,113.0,5,0.0,Stimuli\Blank.png,0,0,0,179,179,179,,,,,,,,,,,,,112.83161679999466,0.03161679999466571,None,147.34605210000154,147.34605210000154,147.34605210000154,147.34605210000154,147.34605210000154,147.34605210000154,147.34605210000154,147.34605210000154,,003,P020,2025_May_06_1759,CategoryLocalizer,2021.2.3,59.943197824132504,
113.0,113.8,1,0.75,Stimuli\ImageFiles-Set1\Objects\Object_IroningBoard_00001.png,1,1,0,180,180,180,,,,,,,,,,,,,113.01745069999743,0.017450699997425545,None,147.5462456000023,147.5462456000023,147.5462456000023,147.5462456000023,147.5462456000023,147.5462456000023,147.5462456000023,147.5462456000023,,003,P020,2025_May_06_1759,CategoryLocalizer,2021.2.3,59.943197824132504,
113.8,114.0,5,0.0,Stimuli\Blank.png,0,0,0,181,181,181,,,,,,,,,,,,,113.81600869999966,0.01600869999965937,None,148.3302277000039,148.3302277000039,148.3302277000039,148.3302277000039,148.3302277000039,148.3302277000039,148.3302277000039,148.3302277000039,,003,P020,2025_May_06_1759,CategoryLocalizer,2021.2.3,59.943197824132504,
114.0,114.8,1,0.75,Stimuli\ImageFiles-Set1\Objects\Object_Airplane_00001.png,0,0,0,182,182,182,,,,,,,,,,,,,113.99939879999874,-0.0006012000012560748,None,148.51374520000536,148.51374520000536,148.51374520000536,148.51374520000536,148.51374520000536,148.51374520000536,148.51374520000536,148.51374520000536,,003,P020,2025_May_06_1759,CategoryLocalizer,2021.2.3,59.943197824132504,
114.8,115.0,5,0.0,Stimuli\Blank.png,0,0,0,183,183,183,,,,,,,,,,,,,114.79956319999474,-0.00043680000526080676,None,149.31446320000396,149.31446320000396,149.31446320000396,149.31446320000396,149.31446320000396,149.31446320000396,149.31446320000396,149.31446320000396,,003,P020,2025_May_06_1759,CategoryLocalizer,2021.2.3,59.943197824132504,
115.0,115.8,1,0.75,Stimuli\ImageFiles-Set1\Objects\Object_Airplane_00001.png,0,0,0,184,184,184,,,,,,,,,,,,,115.0000504999989,5.0499998906161636e-05,1,149.51474489999964,149.51474489999964,149.51474489999964,149.51474489999964,149.51474489999964,149.51474489999964,149.51474489999964,149.51474489999964,0.5831140000009327,003,P020,2025_May_06_1759,CategoryLocalizer,2021.2.3,59.943197824132504,
115.8,116.0,5,0.0,Stimuli\Blank.png,0,0,0,185,185,185,,,,,,,,,,,,,115.8025251999934,0.0025251999933999514,None,150.3320387000058,150.3320387000058,150.3320387000058,150.3320387000058,150.3320387000058,150.3320387000058,150.3320387000058,150.3320387000058,,003,P020,2025_May_06_1759,CategoryLocalizer,2021.2.3,59.943197824132504,
116.0,116.8,1,0.75,Stimuli\ImageFiles-Set1\Objects\Object_ComputerMouse_00001.png,0,0,0,186,186,186,,,,,,,,,,,,,116.01798959999724,0.017989599997235928,None,150.53222440000536,150.53222440000536,150.53222440000536,150.53222440000536,150.53222440000536,150.53222440000536,150.53222440000536,150.53222440000536,,003,P020,2025_May_06_1759,CategoryLocalizer,2021.2.3,59.943197824132504,
116.8,117.0,5,0.0,Stimuli\Blank.png,0,0,0,187,187,187,,,,,,,,,,,,,116.80237199999829,0.002371999998288743,None,151.31623319999926,151.31623319999926,151.31623319999926,151.31623319999926,151.31623319999926,151.31623319999926,151.31623319999926,151.31623319999926,,003,P020,2025_May_06_1759,CategoryLocalizer,2021.2.3,59.943197824132504,
117.0,117.8,1,0.75,Stimuli\ImageFiles-Set1\Objects\Object_Lipstick_00001.png,0,0,0,188,188,188,,,,,,,,,,,,,117.00159849999909,0.0015984999990905635,None,151.5164128000033,151.5164128000033,151.5164128000033,151.5164128000033,151.5164128000033,151.5164128000033,151.5164128000033,151.5164128000033,,003,P020,2025_May_06_1759,CategoryLocalizer,2021.2.3,59.943197824132504,
117.8,118.0,5,0.0,Stimuli\Blank.png,0,0,0,189,189,189,,,,,,,,,,,,,117.80344439999317,0.0034443999931710323,None,152.31712260000495,152.31712260000495,152.31712260000495,152.31712260000495,152.31712260000495,152.31712260000495,152.31712260000495,152.31712260000495,,003,P020,2025_May_06_1759,CategoryLocalizer,2021.2.3,59.943197824132504,
118.0,118.8,1,0.75,Stimuli\ImageFiles-Set1\Objects\Object_Matches_00001.png,0,0,0,190,190,190,,,,,,,,,,,,,118.002937199999,0.0029371999989962205,None,152.5173017000052,152.5173017000052,152.5173017000052,152.5173017000052,152.5173017000052,152.5173017000052,152.5173017000052,152.5173017000052,,003,P020,2025_May_06_1759,CategoryLocalizer,2021.2.3,59.943197824132504,
118.8,119.0,5,0.0,Stimuli\Blank.png,0,0,0,191,191,191,,,,,,,,,,,,,118.80371849999938,0.0037184999993797874,None,153.3180044000037,153.3180044000037,153.3180044000037,153.3180044000037,153.3180044000037,153.3180044000037,153.3180044000037,153.3180044000037,,003,P020,2025_May_06_1759,CategoryLocalizer,2021.2.3,59.943197824132504,
119.0,119.8,1,0.75,Stimuli\ImageFiles-Set1\Objects\Object_Stroller_00001.png,0,0,0,192,192,192,,,,,,,,,,,,,119.00396949999413,0.0039694999941275455,None,153.51820800000132,153.51820800000132,153.51820800000132,153.51820800000132,153.51820800000132,153.51820800000132,153.51820800000132,153.51820800000132,,003,P020,2025_May_06_1759,CategoryLocalizer,2021.2.3,59.943197824132504,
119.8,120.0,5,0.0,Stimuli\Blank.png,0,0,0,193,193,193,,,,,,,,,,,,,119.80404559999442,0.004045599994427107,None,154.3188883000039,154.3188883000039,154.3188883000039,154.3188883000039,154.3188883000039,154.3188883000039,154.3188883000039,154.3188883000039,,003,P020,2025_May_06_1759,CategoryLocalizer,2021.2.3,59.943197824132504,
120.0,120.8,4,0.75,Stimuli\ImageFiles-Set1\Scenes\Scenes_013.png,0,0,0,194,194,194,,,,,,,,,,,,,120.00433679999696,0.0043367999969632365,None,154.519068600006,154.519068600006,154.519068600006,154.519068600006,154.519068600006,154.519068600006,154.519068600006,154.519068600006,,003,P020,2025_May_06_1759,CategoryLocalizer,2021.2.3,59.943197824132504,
120.8,121.0,5,0.0,Stimuli\Blank.png,0,0,0,195,195,195,,,,,,,,,,,,,120.80572229999962,0.005722299999618485,None,155.31979060000594,155.31979060000594,155.31979060000594,155.31979060000594,155.31979060000594,155.31979060000594,155.31979060000594,155.31979060000594,,003,P020,2025_May_06_1759,CategoryLocalizer,2021.2.3,59.943197824132504,
121.0,121.8,4,0.75,Stimuli\ImageFiles-Set1\Scenes\Scenes_059.png,0,0,0,196,196,196,,,,,,,,,,,,,121.00501899999654,0.005018999996536877,None,155.51999200000137,155.51999200000137,155.51999200000137,155.51999200000137,155.51999200000137,155.51999200000137,155.51999200000137,155.51999200000137,,003,P020,2025_May_06_1759,CategoryLocalizer,2021.2.3,59.943197824132504,
121.8,122.0,5,0.0,Stimuli\Blank.png,0,0,0,197,197,197,,,,,,,,,,,,,121.80822739999712,0.008227399997124962,None,156.3373494000043,156.3373494000043,156.3373494000043,156.3373494000043,156.3373494000043,156.3373494000043,156.3373494000043,156.3373494000043,,003,P020,2025_May_06_1759,CategoryLocalizer,2021.2.3,59.943197824132504,
122.0,122.8,4,0.75,Stimuli\ImageFiles-Set1\Scenes\Scenes_053.png,0,0,0,198,198,198,,,,,,,,,,,,,122.02283650000027,0.022836500000266824,None,156.55422580000595,156.55422580000595,156.55422580000595,156.55422580000595,156.55422580000595,156.55422580000595,156.55422580000595,156.55422580000595,,003,P020,2025_May_06_1759,CategoryLocalizer,2021.2.3,59.943197824132504,
122.8,123.0,5,0.0,Stimuli\Blank.png,0,0,0,199,199,199,,,,,,,,,,,,,122.82418349999352,0.024183499993526425,None,157.33823410000332,157.33823410000332,157.33823410000332,157.33823410000332,157.33823410000332,157.33823410000332,157.33823410000332,157.33823410000332,,003,P020,2025_May_06_1759,CategoryLocalizer,2021.2.3,59.943197824132504,
123.0,123.8,4,0.75,Stimuli\ImageFiles-Set1\Scenes\Scenes_057.png,0,0,0,200,200,200,,,,,,,,,,,,,123.00670799999352,0.006707999993523117,None,157.5217294000031,157.5217294000031,157.5217294000031,157.5217294000031,157.5217294000031,157.5217294000031,157.5217294000031,157.5217294000031,,003,P020,2025_May_06_1759,CategoryLocalizer,2021.2.3,59.943197824132504,
123.8,124.0,5,0.0,Stimuli\Blank.png,0,0,0,201,201,201,,,,,,,,,,,,,123.80897410000034,0.008974100000344265,None,158.32244600000558,158.32244600000558,158.32244600000558,158.32244600000558,158.32244600000558,158.32244600000558,158.32244600000558,158.32244600000558,,003,P020,2025_May_06_1759,CategoryLocalizer,2021.2.3,59.943197824132504,
124.0,124.8,4,0.75,Stimuli\ImageFiles-Set1\Scenes\Scenes_049.png,0,0,0,202,202,202,,,,,,,,,,,,,124.00848899999983,0.008488999999826774,None,158.53933590000088,158.53933590000088,158.53933590000088,158.53933590000088,158.53933590000088,158.53933590000088,158.53933590000088,158.53933590000088,,003,P020,2025_May_06_1759,CategoryLocalizer,2021.2.3,59.943197824132504,
124.8,125.0,5,0.0,Stimuli\Blank.png,0,0,0,203,203,203,,,,,,,,,,,,,124.8251941999988,0.025194199998807676,None,159.34000490000471,159.34000490000471,159.34000490000471,159.34000490000471,159.34000490000471,159.34000490000471,159.34000490000471,159.34000490000471,,003,P020,2025_May_06_1759,CategoryLocalizer,2021.2.3,59.943197824132504,
125.0,125.8,4,0.75,Stimuli\ImageFiles-Set1\Scenes\Scenes_003.png,0,0,0,204,204,204,,,,,,,,,,,,,125.00922939999873,0.009229399998730514,None,159.52346980000584,159.52346980000584,159.52346980000584,159.52346980000584,159.52346980000584,159.52346980000584,159.52346980000584,159.52346980000584,,003,P020,2025_May_06_1759,CategoryLocalizer,2021.2.3,59.943197824132504,
125.8,126.0,5,0.0,Stimuli\Blank.png,0,0,0,205,205,205,,,,,,,,,,,,,125.8093671999959,0.009367199995907072,None,160.3242167999997,160.3242167999997,160.3242167999997,160.3242167999997,160.3242167999997,160.3242167999997,160.3242167999997,160.3242167999997,,003,P020,2025_May_06_1759,CategoryLocalizer,2021.2.3,59.943197824132504,
126.0,126.8,4,0.75,Stimuli\ImageFiles-Set1\Scenes\Scenes_042.png,0,0,0,206,206,206,,,,,,,,,,,,,126.01016799999343,0.010167999993427657,None,160.541057500006,160.541057500006,160.541057500006,160.541057500006,160.541057500006,160.541057500006,160.541057500006,160.541057500006,,003,P020,2025_May_06_1759,CategoryLocalizer,2021.2.3,59.943197824132504,
126.8,127.0,5,0.0,Stimuli\Blank.png,0,0,0,207,207,207,,,,,,,,,,,,,126.82683489999908,0.026834899999087725,None,161.34182720000535,161.34182720000535,161.34182720000535,161.34182720000535,161.34182720000535,161.34182720000535,161.34182720000535,161.34182720000535,,003,P020,2025_May_06_1759,CategoryLocalizer,2021.2.3,59.943197824132504,
127.0,127.8,4,0.75,Stimuli\ImageFiles-Set1\Scenes\Scenes_025.png,0,0,0,208,208,208,,,,,,,,,,,,,127.01231600000028,0.012316000000282656,None,161.54196340000635,161.54196340000635,161.54196340000635,161.54196340000635,161.54196340000635,161.54196340000635,161.54196340000635,161.54196340000635,,003,P020,2025_May_06_1759,CategoryLocalizer,2021.2.3,59.943197824132504,
127.8,128.0,5,0.0,Stimuli\Blank.png,0,0,0,209,209,209,,,,,,,,,,,,,127.82909879999352,0.02909879999351972,None,162.35938100000203,162.35938100000203,162.35938100000203,162.35938100000203,162.35938100000203,162.35938100000203,162.35938100000203,162.35938100000203,,003,P020,2025_May_06_1759,CategoryLocalizer,2021.2.3,59.943197824132504,
128.0,128.8,4,0.75,Stimuli\ImageFiles-Set1\Scenes\Scenes_026.png,0,0,0,210,210,210,,,,,,,,,,,,,128.02890019999904,0.028900199999043252,None,162.55953730000329,162.55953730000329,162.55953730000329,162.55953730000329,162.55953730000329,162.55953730000329,162.55953730000329,162.55953730000329,,003,P020,2025_May_06_1759,CategoryLocalizer,2021.2.3,59.943197824132504,
128.8,129.0,5,0.0,Stimuli\Blank.png,0,0,0,211,211,211,,,,,,,,,,,,,128.828614799997,0.028614799997001228,None,163.34354730000632,163.34354730000632,163.34354730000632,163.34354730000632,163.34354730000632,163.34354730000632,163.34354730000632,163.34354730000632,,003,P020,2025_May_06_1759,CategoryLocalizer,2021.2.3,59.943197824132504,
129.0,129.8,4,0.75,Stimuli\ImageFiles-Set1\Scenes\Scenes_028.png,0,0,0,212,212,212,,,,,,,,,,,,,129.01270069999737,0.012700699997367337,None,163.5604112000001,163.5604112000001,163.5604112000001,163.5604112000001,163.5604112000001,163.5604112000001,163.5604112000001,163.5604112000001,,003,P020,2025_May_06_1759,CategoryLocalizer,2021.2.3,59.943197824132504,
129.8,130.0,5,0.0,Stimuli\Blank.png,0,0,0,213,213,213,,,,,,,,,,,,,129.84702509999624,0.047025099996233166,None,164.36112030000368,164.36112030000368,164.36112030000368,164.36112030000368,164.36112030000368,164.36112030000368,164.36112030000368,164.36112030000368,,003,P020,2025_May_06_1759,CategoryLocalizer,2021.2.3,59.943197824132504,
130.0,130.8,4,0.75,Stimuli\ImageFiles-Set1\Scenes\Scenes_023.png,0,0,0,214,214,214,,,,,,,,,,,,,130.0139429999981,0.013942999998107553,None,164.54464089999965,164.54464089999965,164.54464089999965,164.54464089999965,164.54464089999965,164.54464089999965,164.54464089999965,164.54464089999965,,003,P020,2025_May_06_1759,CategoryLocalizer,2021.2.3,59.943197824132504,
130.8,131.0,5,0.0,Stimuli\Blank.png,0,0,0,215,215,215,,,,,,,,,,,,,130.8327816999954,0.032781699995382496,None,165.3619669000036,165.3619669000036,165.3619669000036,165.3619669000036,165.3619669000036,165.3619669000036,165.3619669000036,165.3619669000036,,003,P020,2025_May_06_1759,CategoryLocalizer,2021.2.3,59.943197824132504,
131.0,131.8,4,0.75,Stimuli\ImageFiles-Set1\Scenes\Scenes_047.png,0,0,0,216,216,216,,,,,,,,,,,,,131.014654599996,0.014654599995992612,None,165.5288045000052,165.5288045000052,165.5288045000052,165.5288045000052,165.5288045000052,165.5288045000052,165.5288045000052,165.5288045000052,,003,P020,2025_May_06_1759,CategoryLocalizer,2021.2.3,59.943197824132504,
131.8,132.0,5,0.0,Stimuli\Blank.png,0,0,0,217,217,217,,,,,,,,,,,,,131.81517029999668,0.015170299996668746,None,166.32948659999965,166.32948659999965,166.32948659999965,166.32948659999965,166.32948659999965,166.32948659999965,166.32948659999965,166.32948659999965,,003,P020,2025_May_06_1759,CategoryLocalizer,2021.2.3,59.943197824132504,
132.0,132.8,4,0.75,Stimuli\ImageFiles-Set1\Scenes\Scenes_038.png,0,0,0,218,218,218,,,,,,,,,,,,,132.017334199998,0.017334199998003896,None,166.54638620000333,166.54638620000333,166.54638620000333,166.54638620000333,166.54638620000333,166.54638620000333,166.54638620000333,166.54638620000333,,003,P020,2025_May_06_1759,CategoryLocalizer,2021.2.3,59.943197824132504,
132.8,133.0,5,0.0,Stimuli\Blank.png,0,0,0,219,219,219,,,,,,,,,,,,,132.81744689999323,0.017446899993217357,None,167.34710050000285,167.34710050000285,167.34710050000285,167.34710050000285,167.34710050000285,167.34710050000285,167.34710050000285,167.34710050000285,,003,P020,2025_May_06_1759,CategoryLocalizer,2021.2.3,59.943197824132504,
133.0,133.8,4,0.75,Stimuli\ImageFiles-Set1\Scenes\Scenes_038.png,1,1,0,220,220,220,,,,,,,,,,,,,133.01640859999316,0.016408599993155804,1,167.53057830000034,167.53057830000034,167.53057830000034,167.53057830000034,167.53057830000034,167.53057830000034,167.53057830000034,167.53057830000034,0.5042870000033872,003,P020,2025_May_06_1759,CategoryLocalizer,2021.2.3,59.943197824132504,
133.8,134.0,5,0.0,Stimuli\Blank.png,0,0,0,221,221,221,,,,,,,,,,,,,133.79969299999357,-0.0003070000064440137,None,168.31461870000203,168.31461870000203,168.31461870000203,168.31461870000203,168.31461870000203,168.31461870000203,168.31461870000203,168.31461870000203,,003,P020,2025_May_06_1759,CategoryLocalizer,2021.2.3,59.943197824132504,
134.0,134.8,4,0.75,Stimuli\ImageFiles-Set1\Scenes\Scenes_017.png,0,0,0,222,222,222,,,,,,,,,,,,,133.9999436999933,-5.630000669043511e-05,None,168.5147907999999,168.5147907999999,168.5147907999999,168.5147907999999,168.5147907999999,168.5147907999999,168.5147907999999,168.5147907999999,,003,P020,2025_May_06_1759,CategoryLocalizer,2021.2.3,59.943197824132504,
134.8,135.0,5,0.0,Stimuli\Blank.png,0,0,0,223,223,223,,,,,,,,,,,,,134.80083059999743,0.0008305999974140832,None,169.3155031999995,169.3155031999995,169.3155031999995,169.3155031999995,169.3155031999995,169.3155031999995,169.3155031999995,169.3155031999995,,003,P020,2025_May_06_1759,CategoryLocalizer,2021.2.3,59.943197824132504,
135.0,135.8,4,0.75,Stimuli\ImageFiles-Set1\Scenes\Scenes_034.png,0,0,0,224,224,224,,,,,,,,,,,,,135.0016398999942,0.001639899994188454,None,169.5156427000038,169.5156427000038,169.5156427000038,169.5156427000038,169.5156427000038,169.5156427000038,169.5156427000038,169.5156427000038,,003,P020,2025_May_06_1759,CategoryLocalizer,2021.2.3,59.943197824132504,
135.8,136.0,5,0.0,Stimuli\Blank.png,0,0,0,225,225,225,,,,,,,,,,,,,135.80135759999393,0.0013575999939234862,None,170.31638390000444,170.31638390000444,170.31638390000444,170.31638390000444,170.31638390000444,170.31638390000444,170.31638390000444,170.31638390000444,,003,P020,2025_May_06_1759,CategoryLocalizer,2021.2.3,59.943197824132504,
136.0,136.8,2,0.75,Stimuli\ImageFiles-Set1\Bodies\Bodies_Waving_00007.png,0,0,0,226,226,226,,,,,,,,,,,,,136.0035371999984,0.003537199998390861,None,170.53325160000531,170.53325160000531,170.53325160000531,170.53325160000531,170.53325160000531,170.53325160000531,170.53325160000531,170.53325160000531,,003,P020,2025_May_06_1759,CategoryLocalizer,2021.2.3,59.943197824132504,
136.8,137.0,5,0.0,Stimuli\Blank.png,0,0,0,227,227,227,,,,,,,,,,,,,136.8190112999946,0.01901129999458817,None,171.33395140000357,171.33395140000357,171.33395140000357,171.33395140000357,171.33395140000357,171.33395140000357,171.33395140000357,171.33395140000357,,003,P020,2025_May_06_1759,CategoryLocalizer,2021.2.3,59.943197824132504,
137.0,137.8,2,0.75,Stimuli\ImageFiles-Set1\Bodies\Bodies_Kicking_00007.png,0,0,0,228,228,228,,,,,,,,,,,,,137.00314389999403,0.003143899994029198,None,171.5174521000008,171.5174521000008,171.5174521000008,171.5174521000008,171.5174521000008,171.5174521000008,171.5174521000008,171.5174521000008,,003,P020,2025_May_06_1759,CategoryLocalizer,2021.2.3,59.943197824132504,
137.8,138.0,5,0.0,Stimuli\Blank.png,0,0,0,229,229,229,,,,,,,,,,,,,137.80401869999332,0.004018699993309838,None,172.31815460000507,172.31815460000507,172.31815460000507,172.31815460000507,172.31815460000507,172.31815460000507,172.31815460000507,172.31815460000507,,003,P020,2025_May_06_1759,CategoryLocalizer,2021.2.3,59.943197824132504,
138.0,138.8,2,0.75,Stimuli\ImageFiles-Set1\Bodies\Bodies_Pushing_00001.png,0,0,0,230,230,230,,,,,,,,,,,,,138.00409819999913,0.004098199999134522,None,172.5183249000038,172.5183249000038,172.5183249000038,172.5183249000038,172.5183249000038,172.5183249000038,172.5183249000038,172.5183249000038,,003,P020,2025_May_06_1759,CategoryLocalizer,2021.2.3,59.943197824132504,
138.8,139.0,5,0.0,Stimuli\Blank.png,0,0,0,231,231,231,,,,,,,,,,,,,138.8042518000002,0.004251800000190542,None,173.31902970000374,173.31902970000374,173.31902970000374,173.31902970000374,173.31902970000374,173.31902970000374,173.31902970000374,173.31902970000374,,003,P020,2025_May_06_1759,CategoryLocalizer,2021.2.3,59.943197824132504,
139.0,139.8,2,0.75,Stimuli\ImageFiles-Set1\Bodies\Bodies_SittingChair_00005.png,0,0,0,232,232,232,,,,,,,,,,,,,139.00521730000037,0.005217300000367686,None,173.51922729999933,173.51922729999933,173.51922729999933,173.51922729999933,173.51922729999933,173.51922729999933,173.51922729999933,173.51922729999933,,003,P020,2025_May_06_1759,CategoryLocalizer,2021.2.3,59.943197824132504,
139.8,140.0,5,0.0,Stimuli\Blank.png,0,0,0,233,233,233,,,,,,,,,,,,,139.80592429999524,0.005924299995228921,None,174.3199409000008,174.3199409000008,174.3199409000008,174.3199409000008,174.3199409000008,174.3199409000008,174.3199409000008,174.3199409000008,,003,P020,2025_May_06_1759,CategoryLocalizer,2021.2.3,59.943197824132504,
140.0,140.8,2,0.75,Stimuli\ImageFiles-Set1\Bodies\Bodies_CobraPose_00005.png,0,0,0,234,234,234,,,,,,,,,,,,,140.00517069999478,0.005170699994778261,None,174.5200771000018,174.5200771000018,174.5200771000018,174.5200771000018,174.5200771000018,174.5200771000018,174.5200771000018,174.5200771000018,,003,P020,2025_May_06_1759,CategoryLocalizer,2021.2.3,59.943197824132504,
140.8,141.0,5,0.0,Stimuli\Blank.png,0,0,0,235,235,235,,,,,,,,,,,,,140.8083964999969,0.008396499996877083,None,175.33750470000086,175.33750470000086,175.33750470000086,175.33750470000086,175.33750470000086,175.33750470000086,175.33750470000086,175.33750470000086,,003,P020,2025_May_06_1759,CategoryLocalizer,2021.2.3,59.943197824132504,
141.0,141.8,2,0.75,Stimuli\ImageFiles-Set1\Bodies\Bodies_Walking_00004.png,0,0,0,236,236,236,,,,,,,,,,,,,141.0237416999953,0.023741699995298404,None,175.55436240000563,175.55436240000563,175.55436240000563,175.55436240000563,175.55436240000563,175.55436240000563,175.55436240000563,175.55436240000563,,003,P020,2025_May_06_1759,CategoryLocalizer,2021.2.3,59.943197824132504,
141.8,142.0,5,0.0,Stimuli\Blank.png,0,0,0,237,237,237,,,,,,,,,,,,,141.82339030000003,0.02339030000001685,None,176.33837940000376,176.33837940000376,176.33837940000376,176.33837940000376,176.33837940000376,176.33837940000376,176.33837940000376,176.33837940000376,,003,P020,2025_May_06_1759,CategoryLocalizer,2021.2.3,59.943197824132504,
142.0,142.8,2,0.75,Stimuli\ImageFiles-Set1\Bodies\Bodies_DownwardDog_00007.png,0,0,0,238,238,238,,,,,,,,,,,,,142.00821589999396,0.008215899993956555,None,176.52187470000354,176.52187470000354,176.52187470000354,176.52187470000354,176.52187470000354,176.52187470000354,176.52187470000354,176.52187470000354,,003,P020,2025_May_06_1759,CategoryLocalizer,2021.2.3,59.943197824132504,
142.8,143.0,5,0.0,Stimuli\Blank.png,0,0,0,239,239,239,,,,,,,,,,,,,142.80840219999664,0.008402199996623949,None,177.3225922000056,177.3225922000056,177.3225922000056,177.3225922000056,177.3225922000056,177.3225922000056,177.3225922000056,177.3225922000056,,003,P020,2025_May_06_1759,CategoryLocalizer,2021.2.3,59.943197824132504,
143.0,143.8,2,0.75,Stimuli\ImageFiles-Set1\Bodies\Bodies_Falling_00002.png,0,0,0,240,240,240,,,,,,,,,,,,,143.0088512000002,0.008851200000208337,None,177.52275600000576,177.52275600000576,177.52275600000576,177.52275600000576,177.52275600000576,177.52275600000576,177.52275600000576,177.52275600000576,,003,P020,2025_May_06_1759,CategoryLocalizer,2021.2.3,59.943197824132504,
143.8,144.0,5,0.0,Stimuli\Blank.png,0,0,0,241,241,241,,,,,,,,,,,,,143.8084275999936,0.008427599993581225,None,178.3234650000013,178.3234650000013,178.3234650000013,178.3234650000013,178.3234650000013,178.3234650000013,178.3234650000013,178.3234650000013,,003,P020,2025_May_06_1759,CategoryLocalizer,2021.2.3,59.943197824132504,
144.0,144.8,2,0.75,Stimuli\ImageFiles-Set1\Bodies\Bodies_Walking_00006.png,0,0,0,242,242,242,,,,,,,,,,,,,144.0087366999942,0.008736699994187802,None,178.52364320000197,178.52364320000197,178.52364320000197,178.52364320000197,178.52364320000197,178.52364320000197,178.52364320000197,178.52364320000197,,003,P020,2025_May_06_1759,CategoryLocalizer,2021.2.3,59.943197824132504,
144.8,145.0,5,0.0,Stimuli\Blank.png,0,0,0,243,243,243,,,,,,,,,,,,,144.81015879999904,0.010158799999032908,None,179.3244182000053,179.3244182000053,179.3244182000053,179.3244182000053,179.3244182000053,179.3244182000053,179.3244182000053,179.3244182000053,,003,P020,2025_May_06_1759,CategoryLocalizer,2021.2.3,59.943197824132504,
145.0,145.8,2,0.75,Stimuli\ImageFiles-Set1\Bodies\Bodies_Walking_00006.png,1,1,0,244,244,244,,,,,,,,,,,,,145.0095541999981,0.009554199998092372,1,179.52453180000157,179.52453180000157,179.52453180000157,179.52453180000157,179.52453180000157,179.52453180000157,179.52453180000157,179.52453180000157,0.6193484000032186,003,P020,2025_May_06_1759,CategoryLocalizer,2021.2.3,59.943197824132504,
145.8,146.0,5,0.0,Stimuli\Blank.png,0,0,0,245,245,245,,,,,,,,,,,,,145.81030699999974,0.010306999999727395,None,180.3252192,180.3252192,180.3252192,180.3252192,180.3252192,180.3252192,180.3252192,180.3252192,,003,P020,2025_May_06_1759,CategoryLocalizer,2021.2.3,59.943197824132504,
146.0,146.8,2,0.75,Stimuli\ImageFiles-Set1\Bodies\Bodies_Punching_00003.png,0,0,0,246,246,246,,,,,,,,,,,,,146.01037709999946,0.01037709999945946,None,180.54209330000594,180.54209330000594,180.54209330000594,180.54209330000594,180.54209330000594,180.54209330000594,180.54209330000594,180.54209330000594,,003,P020,2025_May_06_1759,CategoryLocalizer,2021.2.3,59.943197824132504,
146.8,147.0,5,0.0,Stimuli\Blank.png,0,0,0,247,247,247,,,,,,,,,,,,,146.82860809999693,0.028608099996915826,None,181.3428073000032,181.3428073000032,181.3428073000032,181.3428073000032,181.3428073000032,181.3428073000032,181.3428073000032,181.3428073000032,,003,P020,2025_May_06_1759,CategoryLocalizer,2021.2.3,59.943197824132504,
147.0,147.8,2,0.75,Stimuli\ImageFiles-Set1\Bodies\Bodies_SittingStretch_00005.png,0,0,0,248,248,248,,,,,,,,,,,,,147.01213739999366,0.012137399993662257,None,181.54301449999912,181.54301449999912,181.54301449999912,181.54301449999912,181.54301449999912,181.54301449999912,181.54301449999912,181.54301449999912,,003,P020,2025_May_06_1759,CategoryLocalizer,2021.2.3,59.943197824132504,
147.8,148.0,5,0.0,Stimuli\Blank.png,0,0,0,249,249,249,,,,,,,,,,,,,147.8294198999938,0.02941989999379757,None,182.34371300000203,182.34371300000203,182.34371300000203,182.34371300000203,182.34371300000203,182.34371300000203,182.34371300000203,182.34371300000203,,003,P020,2025_May_06_1759,CategoryLocalizer,2021.2.3,59.943197824132504,
148.0,148.8,2,0.75,Stimuli\ImageFiles-Set1\Bodies\Bodies_CobraPose_00001.png,0,0,0,250,250,250,,,,,,,,,,,,,148.01290479999443,0.012904799994430505,None,182.52718150000146,182.52718150000146,182.52718150000146,182.52718150000146,182.52718150000146,182.52718150000146,182.52718150000146,182.52718150000146,,003,P020,2025_May_06_1759,CategoryLocalizer,2021.2.3,59.943197824132504,
148.8,149.0,5,0.0,Stimuli\Blank.png,0,0,0,251,251,251,,,,,,,,,,,,,148.81325300000026,0.013253000000247539,None,183.3278960000025,183.3278960000025,183.3278960000025,183.3278960000025,183.3278960000025,183.3278960000025,183.3278960000025,183.3278960000025,,003,P020,2025_May_06_1759,CategoryLocalizer,2021.2.3,59.943197824132504,
149.0,149.8,2,0.75,Stimuli\ImageFiles-Set1\Bodies\Bodies_Standing_00001.png,0,0,0,252,252,252,,,,,,,,,,,,,149.01378879999538,0.01378879999538185,None,183.5280383000063,183.5280383000063,183.5280383000063,183.5280383000063,183.5280383000063,183.5280383000063,183.5280383000063,183.5280383000063,,003,P020,2025_May_06_1759,CategoryLocalizer,2021.2.3,59.943197824132504,
149.8,150.0,5,0.0,Stimuli\Blank.png,0,0,0,253,253,253,,,,,,,,,,,,,149.8138001999978,0.013800199997774598,None,184.3287799000027,184.3287799000027,184.3287799000027,184.3287799000027,184.3287799000027,184.3287799000027,184.3287799000027,184.3287799000027,,003,P020,2025_May_06_1759,CategoryLocalizer,2021.2.3,59.943197824132504,
150.0,150.8,2,0.75,Stimuli\ImageFiles-Set1\Bodies\Bodies_Running_00006.png,0,0,0,254,254,254,,,,,,,,,,,,,150.01397989999532,0.013979899995320011,None,184.54565160000493,184.54565160000493,184.54565160000493,184.54565160000493,184.54565160000493,184.54565160000493,184.54565160000493,184.54565160000493,,003,P020,2025_May_06_1759,CategoryLocalizer,2021.2.3,59.943197824132504,
150.8,151.0,5,0.0,Stimuli\Blank.png,0,0,0,255,255,255,,,,,,,,,,,,,150.83202619999793,0.03202619999791523,None,185.34635189999972,185.34635189999972,185.34635189999972,185.34635189999972,185.34635189999972,185.34635189999972,185.34635189999972,185.34635189999972,,003,P020,2025_May_06_1759,CategoryLocalizer,2021.2.3,59.943197824132504,
151.0,151.8,2,0.75,Stimuli\ImageFiles-Set1\Bodies\Bodies_Lunging_00001.png,0,0,0,256,256,256,,,,,,,,,,,,,151.01490399999602,0.014903999996022321,None,185.52987320000102,185.52987320000102,185.52987320000102,185.52987320000102,185.52987320000102,185.52987320000102,185.52987320000102,185.52987320000102,,003,P020,2025_May_06_1759,CategoryLocalizer,2021.2.3,59.943197824132504,
151.8,152.0,5,0.0,Stimuli\Blank.png,0,0,0,257,257,257,,,,,,,,,,,,,151.81590949999372,0.01590949999371105,None,186.33054870000342,186.33054870000342,186.33054870000342,186.33054870000342,186.33054870000342,186.33054870000342,186.33054870000342,186.33054870000342,,003,P020,2025_May_06_1759,CategoryLocalizer,2021.2.3,59.943197824132504,
152.0,164.0,0,0.0,Stimuli\Blank.png,0,0,0,258,258,258,,,,,,,,,,,,,151.99954469999648,-0.00045530000352300704,None,186.51403960000607,186.51403960000607,186.51403960000607,186.51403960000607,186.51403960000607,186.51403960000607,186.51403960000607,186.51403960000607,,003,P020,2025_May_06_1759,CategoryLocalizer,2021.2.3,59.943197824132504,
164.0,164.8,4,0.75,Stimuli\ImageFiles-Set1\Scenes\Scenes_022.png,0,0,0,259,259,259,,,,,,,,,,,,,164.01048919999448,0.010489199994481169,None,198.5413594000056,198.5413594000056,198.5413594000056,198.5413594000056,198.5413594000056,198.5413594000056,198.5413594000056,198.5413594000056,,003,P020,2025_May_06_1759,CategoryLocalizer,2021.2.3,59.943197824132504,
164.8,165.0,5,0.0,Stimuli\Blank.png,0,0,0,260,260,260,,,,,,,,,,,,,164.82858309999574,0.02858309999572839,None,199.3420862999992,199.3420862999992,199.3420862999992,199.3420862999992,199.3420862999992,199.3420862999992,199.3420862999992,199.3420862999992,,003,P020,2025_May_06_1759,CategoryLocalizer,2021.2.3,59.943197824132504,
165.0,165.8,4,0.75,Stimuli\ImageFiles-Set1\Scenes\Scenes_032.png,0,0,0,261,261,261,,,,,,,,,,,,,165.0132336999959,0.013233699995907955,None,199.57563300000038,199.57563300000038,199.57563300000038,199.57563300000038,199.57563300000038,199.57563300000038,199.57563300000038,199.57563300000038,,003,P020,2025_May_06_1759,CategoryLocalizer,2021.2.3,59.943197824132504,
165.8,166.0,5,0.0,Stimuli\Blank.png,0,0,0,262,262,262,,,,,,,,,,,,,165.8613955999972,0.06139559999718358,None,200.37643840000237,200.37643840000237,200.37643840000237,200.37643840000237,200.37643840000237,200.37643840000237,200.37643840000237,200.37643840000237,,003,P020,2025_May_06_1759,CategoryLocalizer,2021.2.3,59.943197824132504,
166.0,166.8,4,0.75,Stimuli\ImageFiles-Set1\Scenes\Scenes_060.png,0,0,0,263,263,263,,,,,,,,,,,,,166.01239249999344,0.012392499993438832,None,200.54312840000057,200.54312840000057,200.54312840000057,200.54312840000057,200.54312840000057,200.54312840000057,200.54312840000057,200.54312840000057,,003,P020,2025_May_06_1759,CategoryLocalizer,2021.2.3,59.943197824132504,
166.8,167.0,5,0.0,Stimuli\Blank.png,0,0,0,264,264,264,,,,,,,,,,,,,166.82986959999835,0.02986959999833516,None,201.34383970000636,201.34383970000636,201.34383970000636,201.34383970000636,201.34383970000636,201.34383970000636,201.34383970000636,201.34383970000636,,003,P020,2025_May_06_1759,CategoryLocalizer,2021.2.3,59.943197824132504,
167.0,167.8,4,0.75,Stimuli\ImageFiles-Set1\Scenes\Scenes_019.png,0,0,0,265,265,265,,,,,,,,,,,,,167.012415899997,0.012415899996994995,None,201.54401979999966,201.54401979999966,201.54401979999966,201.54401979999966,201.54401979999966,201.54401979999966,201.54401979999966,201.54401979999966,,003,P020,2025_May_06_1759,CategoryLocalizer,2021.2.3,59.943197824132504,
167.8,168.0,5,0.0,Stimuli\Blank.png,0,0,0,266,266,266,,,,,,,,,,,,,167.83258039999782,0.03258039999781204,None,202.361413000006,202.361413000006,202.361413000006,202.361413000006,202.361413000006,202.361413000006,202.361413000006,202.361413000006,,003,P020,2025_May_06_1759,CategoryLocalizer,2021.2.3,59.943197824132504,
168.0,168.8,4,0.75,Stimuli\ImageFiles-Set1\Scenes\Scenes_019.png,1,1,0,267,267,267,,,,,,,,,,,,,168.01334399999905,0.013343999999051448,1,202.54493450000155,202.54493450000155,202.54493450000155,202.54493450000155,202.54493450000155,202.54493450000155,202.54493450000155,202.54493450000155,0.49592760000086855,003,P020,2025_May_06_1759,CategoryLocalizer,2021.2.3,59.943197824132504,
168.8,169.0,5,0.0,Stimuli\Blank.png,0,0,0,268,268,268,,,,,,,,,,,,,168.83366119999846,0.03366119999844841,None,203.36230590000196,203.36230590000196,203.36230590000196,203.36230590000196,203.36230590000196,203.36230590000196,203.36230590000196,203.36230590000196,,003,P020,2025_May_06_1759,CategoryLocalizer,2021.2.3,59.943197824132504,
169.0,169.8,4,0.75,Stimuli\ImageFiles-Set1\Scenes\Scenes_058.png,0,0,0,269,269,269,,,,,,,,,,,,,169.0147305999999,0.014730599999893457,None,203.5291079000017,203.5291079000017,203.5291079000017,203.5291079000017,203.5291079000017,203.5291079000017,203.5291079000017,203.5291079000017,,003,P020,2025_May_06_1759,CategoryLocalizer,2021.2.3,59.943197824132504,
169.8,170.0,5,0.0,Stimuli\Blank.png,0,0,0,270,270,270,,,,,,,,,,,,,169.8156777999975,0.015677799997490638,None,204.3298300000024,204.3298300000024,204.3298300000024,204.3298300000024,204.3298300000024,204.3298300000024,204.3298300000024,204.3298300000024,,003,P020,2025_May_06_1759,CategoryLocalizer,2021.2.3,59.943197824132504,
170.0,170.8,4,0.75,Stimuli\ImageFiles-Set1\Scenes\Scenes_035.png,0,0,0,271,271,271,,,,,,,,,,,,,169.99839449999854,-0.0016055000014603138,None,204.51330420000158,204.51330420000158,204.51330420000158,204.51330420000158,204.51330420000158,204.51330420000158,204.51330420000158,204.51330420000158,,003,P020,2025_May_06_1759,CategoryLocalizer,2021.2.3,59.943197824132504,
170.8,171.0,5,0.0,Stimuli\Blank.png,0,0,0,272,272,272,,,,,,,,,,,,,170.79993779999495,-6.220000506118595e-05,None,205.3140188000034,205.3140188000034,205.3140188000034,205.3140188000034,205.3140188000034,205.3140188000034,205.3140188000034,205.3140188000034,,003,P020,2025_May_06_1759,CategoryLocalizer,2021.2.3,59.943197824132504,
171.0,171.8,4,0.75,Stimuli\ImageFiles-Set1\Scenes\Scenes_002.png,0,0,0,273,273,273,,,,,,,,,,,,,171.00079129999358,0.0007912999935797416,None,205.53089870000258,205.53089870000258,205.53089870000258,205.53089870000258,205.53089870000258,205.53089870000258,205.53089870000258,205.53089870000258,,003,P020,2025_May_06_1759,CategoryLocalizer,2021.2.3,59.943197824132504,
171.8,172.0,5,0.0,Stimuli\Blank.png,0,0,0,274,274,274,,,,,,,,,,,,,171.81730029999744,0.017300299997430102,None,206.3315939000022,206.3315939000022,206.3315939000022,206.3315939000022,206.3315939000022,206.3315939000022,206.3315939000022,206.3315939000022,,003,P020,2025_May_06_1759,CategoryLocalizer,2021.2.3,59.943197824132504,
172.0,172.8,4,0.75,Stimuli\ImageFiles-Set1\Scenes\Scenes_021.png,0,0,0,275,275,275,,,,,,,,,,,,,172.00235129999783,0.0023512999978265725,None,206.53176570000505,206.53176570000505,206.53176570000505,206.53176570000505,206.53176570000505,206.53176570000505,206.53176570000505,206.53176570000505,,003,P020,2025_May_06_1759,CategoryLocalizer,2021.2.3,59.943197824132504,
172.8,173.0,5,0.0,Stimuli\Blank.png,0,0,0,276,276,276,,,,,,,,,,,,,172.8186807999955,0.018680799995479447,None,207.33247259999916,207.33247259999916,207.33247259999916,207.33247259999916,207.33247259999916,207.33247259999916,207.33247259999916,207.33247259999916,,003,P020,2025_May_06_1759,CategoryLocalizer,2021.2.3,59.943197824132504,
173.0,173.8,4,0.75,Stimuli\ImageFiles-Set1\Scenes\Scenes_030.png,0,0,0,277,277,277,,,,,,,,,,,,,173.0022536999968,0.0022536999967996962,None,207.5159719000003,207.5159719000003,207.5159719000003,207.5159719000003,207.5159719000003,207.5159719000003,207.5159719000003,207.5159719000003,,003,P020,2025_May_06_1759,CategoryLocalizer,2021.2.3,59.943197824132504,
173.8,174.0,5,0.0,Stimuli\Blank.png,0,0,0,278,278,278,,,,,,,,,,,,,173.8029133999953,0.0029133999952932754,None,208.31667550000566,208.31667550000566,208.31667550000566,208.31667550000566,208.31667550000566,208.31667550000566,208.31667550000566,208.31667550000566,,003,P020,2025_May_06_1759,CategoryLocalizer,2021.2.3,59.943197824132504,
174.0,174.8,4,0.75,Stimuli\ImageFiles-Set1\Scenes\Scenes_037.png,0,0,0,279,279,279,,,,,,,,,,,,,174.00198769999406,0.0019876999940606765,None,208.53357189999952,208.53357189999952,208.53357189999952,208.53357189999952,208.53357189999952,208.53357189999952,208.53357189999952,208.53357189999952,,003,P020,2025_May_06_1759,CategoryLocalizer,2021.2.3,59.943197824132504,
174.8,175.0,5,0.0,Stimuli\Blank.png,0,0,0,280,280,280,,,,,,,,,,,,,174.8197782999996,0.01977829999958658,None,209.33424750000268,209.33424750000268,209.33424750000268,209.33424750000268,209.33424750000268,209.33424750000268,209.33424750000268,209.33424750000268,,003,P020,2025_May_06_1759,CategoryLocalizer,2021.2.3,59.943197824132504,
175.0,175.8,4,0.75,Stimuli\ImageFiles-Set1\Scenes\Scenes_044.png,0,0,0,281,281,281,,,,,,,,,,,,,175.00386589999835,0.0038658999983454123,None,209.5344641000047,209.5344641000047,209.5344641000047,209.5344641000047,209.5344641000047,209.5344641000047,209.5344641000047,209.5344641000047,,003,P020,2025_May_06_1759,CategoryLocalizer,2021.2.3,59.943197824132504,
175.8,176.0,5,0.0,Stimuli\Blank.png,0,0,0,282,282,282,,,,,,,,,,,,,175.82019079999736,0.020190799997351405,None,210.33513210000092,210.33513210000092,210.33513210000092,210.33513210000092,210.33513210000092,210.33513210000092,210.33513210000092,210.33513210000092,,003,P020,2025_May_06_1759,CategoryLocalizer,2021.2.3,59.943197824132504,
176.0,176.8,4,0.75,Stimuli\ImageFiles-Set1\Scenes\Scenes_010.png,0,0,0,283,283,283,,,,,,,,,,,,,176.00373319999926,0.0037331999992602505,None,210.51862010000332,210.51862010000332,210.51862010000332,210.51862010000332,210.51862010000332,210.51862010000332,210.51862010000332,210.51862010000332,,003,P020,2025_May_06_1759,CategoryLocalizer,2021.2.3,59.943197824132504,
176.8,177.0,5,0.0,Stimuli\Blank.png,0,0,0,284,284,284,,,,,,,,,,,,,176.80511869999464,0.005118699994625331,None,211.31940810000378,211.31940810000378,211.31940810000378,211.31940810000378,211.31940810000378,211.31940810000378,211.31940810000378,211.31940810000378,,003,P020,2025_May_06_1759,CategoryLocalizer,2021.2.3,59.943197824132504,
