eventStartTime,eventEndTime,eventCond,imSize,imFile,repeatedImage,responseEvent,Events.thisRepN,Events.thisTrialN,Events.thisN,Events.thisIndex,Instructions.started,Instructions.stopped,participantReadyResponse.keys,participantReadyResponse.rt,participantReadyResponse.started,participantReadyResponse.stopped,startWaitforTrigger,triggerResponse.keys,triggerResponse.rt,triggerResponse.started,triggerResponse.stopped,globalTimer,actualStartTime,startTimingDiff,participantResponse.keys,participantResponse.started,participantResponse.stopped,image.started,image.stopped,fixationOutside.started,fixationOutside.stopped,fixationInside.started,fixationInside.stopped,participantResponse.rt,session,participant,date,expName,psychopyVersion,frameRate,
,,,,,,,,,,,11.92310919999727,None,1,31.675670299999183,11.92310919999727,None,,,,,,,,,,,,,,,,,,,002,P020,2025_May_06_1731,CategoryLocalizer,2021.2.3,59.919563976072,
,,,,,,,,,,,,,,,,,43.617758200001845,5,14.82066720000148,43.63106030000199,None,,,,,,,,,,,,,,002,P020,2025_May_06_1731,CategoryLocalizer,2021.2.3,59.919563976072,
0.0,12.0,0,0.0,Stimuli\Blank.png,0,0,0,0,0,0,,,,,,,,,,,,58.464331900002435,0.04509010000037961,0.04509010000037961,None,58.52758709999762,None,58.52758709999762,None,58.52758709999762,None,58.52758709999762,None,,002,P020,2025_May_06_1731,CategoryLocalizer,2021.2.3,59.919563976072,
12.0,12.8,1,0.75,Stimuli\ImageFiles-Set2\Objects\Object_Switch_00001.png,0,0,0,1,1,1,,,,,,,,,,,,,12.010692799995013,0.010692799995013047,None,70.50483389999863,70.50483389999863,70.50483389999863,70.50483389999863,70.50483389999863,70.50483389999863,70.50483389999863,70.50483389999863,,002,P020,2025_May_06_1731,CategoryLocalizer,2021.2.3,59.919563976072,
12.8,13.0,5,0.0,Stimuli\Blank.png,0,0,0,2,2,2,,,,,,,,,,,,,12.827478399995016,0.027478399995015224,None,71.3055475000001,71.3055475000001,71.3055475000001,71.3055475000001,71.3055475000001,71.3055475000001,71.3055475000001,71.3055475000001,,002,P020,2025_May_06_1731,CategoryLocalizer,2021.2.3,59.919563976072,
13.0,13.8,1,0.75,Stimuli\ImageFiles-Set2\Objects\Object_Mailbox_00001.png,0,0,0,3,3,3,,,,,,,,,,,,,13.01013409999723,0.010134099997230805,None,71.50575440000102,71.50575440000102,71.50575440000102,71.50575440000102,71.50575440000102,71.50575440000102,71.50575440000102,71.50575440000102,,002,P020,2025_May_06_1731,CategoryLocalizer,2021.2.3,59.919563976072,
13.8,14.0,5,0.0,Stimuli\Blank.png,0,0,0,4,4,4,,,,,,,,,,,,,13.827358099995763,0.02735809999576233,None,72.30642829999852,72.30642829999852,72.30642829999852,72.30642829999852,72.30642829999852,72.30642829999852,72.30642829999852,72.30642829999852,,002,P020,2025_May_06_1731,CategoryLocalizer,2021.2.3,59.919563976072,
14.0,14.8,1,0.75,Stimuli\ImageFiles-Set2\Objects\Object_Glass_00001.png,0,0,0,5,5,5,,,,,,,,,,,,,14.010886999996728,0.010886999996728264,None,72.50660020000214,72.50660020000214,72.50660020000214,72.50660020000214,72.50660020000214,72.50660020000214,72.50660020000214,72.50660020000214,,002,P020,2025_May_06_1731,CategoryLocalizer,2021.2.3,59.919563976072,
14.8,15.0,5,0.0,Stimuli\Blank.png,0,0,0,6,6,6,,,,,,,,,,,,,14.828668199996173,0.028668199996172206,None,73.30731799999921,73.30731799999921,73.30731799999921,73.30731799999921,73.30731799999921,73.30731799999921,73.30731799999921,73.30731799999921,,002,P020,2025_May_06_1731,CategoryLocalizer,2021.2.3,59.919563976072,
15.0,15.8,1,0.75,Stimuli\ImageFiles-Set2\Objects\Object_Tomato_00001.png,0,0,0,7,7,7,,,,,,,,,,,,,15.012353499994788,0.012353499994787853,None,73.50749789999827,73.50749789999827,73.50749789999827,73.50749789999827,73.50749789999827,73.50749789999827,73.50749789999827,73.50749789999827,,002,P020,2025_May_06_1731,CategoryLocalizer,2021.2.3,59.919563976072,
15.8,16.0,5,0.0,Stimuli\Blank.png,0,0,0,8,8,8,,,,,,,,,,,,,15.83114139999816,0.031141399998158903,None,74.32490749999852,74.32490749999852,74.32490749999852,74.32490749999852,74.32490749999852,74.32490749999852,74.32490749999852,74.32490749999852,,002,P020,2025_May_06_1731,CategoryLocalizer,2021.2.3,59.919563976072,
16.0,16.8,1,0.75,Stimuli\ImageFiles-Set2\Objects\Object_Barrel_00001.png,0,0,0,9,9,9,,,,,,,,,,,,,16.03146689999994,0.031466899999941234,None,74.52506580000045,74.52506580000045,74.52506580000045,74.52506580000045,74.52506580000045,74.52506580000045,74.52506580000045,74.52506580000045,,002,P020,2025_May_06_1731,CategoryLocalizer,2021.2.3,59.919563976072,
16.8,17.0,5,0.0,Stimuli\Blank.png,0,0,0,10,10,10,,,,,,,,,,,,,16.830697699995653,0.030697699995652528,None,75.3090835999974,75.3090835999974,75.3090835999974,75.3090835999974,75.3090835999974,75.3090835999974,75.3090835999974,75.3090835999974,,002,P020,2025_May_06_1731,CategoryLocalizer,2021.2.3,59.919563976072,
17.0,17.8,1,0.75,Stimuli\ImageFiles-Set2\Objects\Object_Desk_00001.png,0,0,0,11,11,11,,,,,,,,,,,,,17.016417300001194,0.016417300001194235,None,75.50929310000356,75.50929310000356,75.50929310000356,75.50929310000356,75.50929310000356,75.50929310000356,75.50929310000356,75.50929310000356,,002,P020,2025_May_06_1731,CategoryLocalizer,2021.2.3,59.919563976072,
17.8,18.0,5,0.0,Stimuli\Blank.png,0,0,0,12,12,12,,,,,,,,,,,,,17.816052399997716,0.016052399997715128,None,76.30998649999674,76.30998649999674,76.30998649999674,76.30998649999674,76.30998649999674,76.30998649999674,76.30998649999674,76.30998649999674,,002,P020,2025_May_06_1731,CategoryLocalizer,2021.2.3,59.919563976072,
18.0,18.8,1,0.75,Stimuli\ImageFiles-Set2\Objects\Object_Dishwasher_00001.png,0,0,0,13,13,13,,,,,,,,,,,,,18.015157199995883,0.015157199995883275,None,76.52686610000092,76.52686610000092,76.52686610000092,76.52686610000092,76.52686610000092,76.52686610000092,76.52686610000092,76.52686610000092,,002,P020,2025_May_06_1731,CategoryLocalizer,2021.2.3,59.919563976072,
18.8,19.0,5,0.0,Stimuli\Blank.png,0,0,0,14,14,14,,,,,,,,,,,,,18.83194939999521,0.031949399995209404,None,77.3108590999982,77.3108590999982,77.3108590999982,77.3108590999982,77.3108590999982,77.3108590999982,77.3108590999982,77.3108590999982,,002,P020,2025_May_06_1731,CategoryLocalizer,2021.2.3,59.919563976072,
19.0,19.8,1,0.75,Stimuli\ImageFiles-Set2\Objects\Object_Pitcher_00001.png,0,0,0,15,15,15,,,,,,,,,,,,,19.01652379999723,0.016523799997230526,None,77.52773190000153,77.52773190000153,77.52773190000153,77.52773190000153,77.52773190000153,77.52773190000153,77.52773190000153,77.52773190000153,,002,P020,2025_May_06_1731,CategoryLocalizer,2021.2.3,59.919563976072,
19.8,20.0,5,0.0,Stimuli\Blank.png,0,0,0,16,16,16,,,,,,,,,,,,,19.83279439999751,0.03279439999750977,None,78.31175380000059,78.31175380000059,78.31175380000059,78.31175380000059,78.31175380000059,78.31175380000059,78.31175380000059,78.31175380000059,,002,P020,2025_May_06_1731,CategoryLocalizer,2021.2.3,59.919563976072,
20.0,20.8,1,0.75,Stimuli\ImageFiles-Set2\Objects\Object_Button1_00001.png,0,0,0,17,17,17,,,,,,,,,,,,,19.999567200000456,-0.00043279999954393134,None,78.49524460000248,78.49524460000248,78.49524460000248,78.49524460000248,78.49524460000248,78.49524460000248,78.49524460000248,78.49524460000248,,002,P020,2025_May_06_1731,CategoryLocalizer,2021.2.3,59.919563976072,
20.8,21.0,5,0.0,Stimuli\Blank.png,0,0,0,18,18,18,,,,,,,,,,,,,20.816943699996045,0.016943699996044614,None,79.29594019999786,79.29594019999786,79.29594019999786,79.29594019999786,79.29594019999786,79.29594019999786,79.29594019999786,79.29594019999786,,002,P020,2025_May_06_1731,CategoryLocalizer,2021.2.3,59.919563976072,
21.0,21.8,1,0.75,Stimuli\ImageFiles-Set2\Objects\Object_Button1_00001.png,1,1,0,19,19,19,,,,,,,,,,,,,21.00079359999654,0.0007935999965411611,1,79.47944450000068,79.47944450000068,79.47944450000068,79.47944450000068,79.47944450000068,79.47944450000068,79.47944450000068,79.47944450000068,0.3953440000041155,002,P020,2025_May_06_1731,CategoryLocalizer,2021.2.3,59.919563976072,
21.8,22.0,5,0.0,Stimuli\Blank.png,0,0,0,20,20,20,,,,,,,,,,,,,21.801840100000845,0.0018401000008445578,None,80.28015540000342,80.28015540000342,80.28015540000342,80.28015540000342,80.28015540000342,80.28015540000342,80.28015540000342,80.28015540000342,,002,P020,2025_May_06_1731,CategoryLocalizer,2021.2.3,59.919563976072,
22.0,22.8,1,0.75,Stimuli\ImageFiles-Set2\Objects\Object_Mug_00001.png,0,0,0,21,21,21,,,,,,,,,,,,,22.00145799999882,0.0014579999988200143,None,80.51370250000036,80.51370250000036,80.51370250000036,80.51370250000036,80.51370250000036,80.51370250000036,80.51370250000036,80.51370250000036,,002,P020,2025_May_06_1731,CategoryLocalizer,2021.2.3,59.919563976072,
22.8,23.0,5,0.0,Stimuli\Blank.png,0,0,0,22,22,22,,,,,,,,,,,,,22.8362535999986,0.03625359999859867,None,81.31440280000243,81.31440280000243,81.31440280000243,81.31440280000243,81.31440280000243,81.31440280000243,81.31440280000243,81.31440280000243,,002,P020,2025_May_06_1731,CategoryLocalizer,2021.2.3,59.919563976072,
23.0,23.8,1,0.75,Stimuli\ImageFiles-Set2\Objects\Object_Toast_00001.png,0,0,0,23,23,23,,,,,,,,,,,,,23.002253499995277,0.0022534999952767976,None,81.4979061999984,81.4979061999984,81.4979061999984,81.4979061999984,81.4979061999984,81.4979061999984,81.4979061999984,81.4979061999984,,002,P020,2025_May_06_1731,CategoryLocalizer,2021.2.3,59.919563976072,
23.8,24.0,5,0.0,Stimuli\Blank.png,0,0,0,24,24,24,,,,,,,,,,,,,23.821353699997417,0.021353699997415987,None,82.298618300003,82.298618300003,82.298618300003,82.298618300003,82.298618300003,82.298618300003,82.298618300003,82.298618300003,,002,P020,2025_May_06_1731,CategoryLocalizer,2021.2.3,59.919563976072,
24.0,24.8,1,0.75,Stimuli\ImageFiles-Set2\Objects\Object_WashingMachine_00001.png,0,0,0,25,25,25,,,,,,,,,,,,,24.003836999996565,0.0038369999965652823,None,82.49878889999673,82.49878889999673,82.49878889999673,82.49878889999673,82.49878889999673,82.49878889999673,82.49878889999673,82.49878889999673,,002,P020,2025_May_06_1731,CategoryLocalizer,2021.2.3,59.919563976072,
24.8,25.0,5,0.0,Stimuli\Blank.png,0,0,0,26,26,26,,,,,,,,,,,,,24.8211020000017,0.021102000001700816,None,83.29948760000116,83.29948760000116,83.29948760000116,83.29948760000116,83.29948760000116,83.29948760000116,83.29948760000116,83.29948760000116,,002,P020,2025_May_06_1731,CategoryLocalizer,2021.2.3,59.919563976072,
25.0,25.8,1,0.75,Stimuli\ImageFiles-Set2\Objects\Object_Couch_00001.png,0,0,0,27,27,27,,,,,,,,,,,,,25.003932100000384,0.003932100000383798,None,83.49967589999869,83.49967589999869,83.49967589999869,83.49967589999869,83.49967589999869,83.49967589999869,83.49967589999869,83.49967589999869,,002,P020,2025_May_06_1731,CategoryLocalizer,2021.2.3,59.919563976072,
25.8,26.0,5,0.0,Stimuli\Blank.png,0,0,0,28,28,28,,,,,,,,,,,,,25.822157599999628,0.022157599999626854,None,84.30038329999661,84.30038329999661,84.30038329999661,84.30038329999661,84.30038329999661,84.30038329999661,84.30038329999661,84.30038329999661,,002,P020,2025_May_06_1731,CategoryLocalizer,2021.2.3,59.919563976072,
26.0,26.8,1,0.75,Stimuli\ImageFiles-Set2\Objects\Object_Strawberry_00001.png,0,0,0,29,29,29,,,,,,,,,,,,,26.007207099995867,0.0072070999958668835,None,84.51723309999943,84.51723309999943,84.51723309999943,84.51723309999943,84.51723309999943,84.51723309999943,84.51723309999943,84.51723309999943,,002,P020,2025_May_06_1731,CategoryLocalizer,2021.2.3,59.919563976072,
26.8,27.0,5,0.0,Stimuli\Blank.png,0,0,0,30,30,30,,,,,,,,,,,,,26.842288499996357,0.04228849999635642,None,85.33464760000061,85.33464760000061,85.33464760000061,85.33464760000061,85.33464760000061,85.33464760000061,85.33464760000061,85.33464760000061,,002,P020,2025_May_06_1731,CategoryLocalizer,2021.2.3,59.919563976072,
27.0,27.8,1,0.75,Stimuli\ImageFiles-Set2\Objects\Object_Pepper_00001.png,0,0,0,31,31,31,,,,,,,,,,,,,27.022381499999028,0.022381499999028165,None,85.53481250000186,85.53481250000186,85.53481250000186,85.53481250000186,85.53481250000186,85.53481250000186,85.53481250000186,85.53481250000186,,002,P020,2025_May_06_1731,CategoryLocalizer,2021.2.3,59.919563976072,
27.8,28.0,5,0.0,Stimuli\Blank.png,0,0,0,32,32,32,,,,,,,,,,,,,27.842614699999103,0.04261469999910261,None,86.33551109999826,86.33551109999826,86.33551109999826,86.33551109999826,86.33551109999826,86.33551109999826,86.33551109999826,86.33551109999826,,002,P020,2025_May_06_1731,CategoryLocalizer,2021.2.3,59.919563976072,
28.0,28.8,2,0.75,Stimuli\ImageFiles-Set2\Bodies\Bodies_Waving_00006.png,0,0,0,33,33,33,,,,,,,,,,,,,28.024057099995844,0.0240570999958436,None,86.51902819999668,86.51902819999668,86.51902819999668,86.51902819999668,86.51902819999668,86.51902819999668,86.51902819999668,86.51902819999668,,002,P020,2025_May_06_1731,CategoryLocalizer,2021.2.3,59.919563976072,
28.8,29.0,5,0.0,Stimuli\Blank.png,0,0,0,34,34,34,,,,,,,,,,,,,28.824009600000863,0.02400960000086272,None,87.30303540000023,87.30303540000023,87.30303540000023,87.30303540000023,87.30303540000023,87.30303540000023,87.30303540000023,87.30303540000023,,002,P020,2025_May_06_1731,CategoryLocalizer,2021.2.3,59.919563976072,
29.0,29.8,2,0.75,Stimuli\ImageFiles-Set2\Bodies\Bodies_Jumping_00003.png,0,0,0,35,35,35,,,,,,,,,,,,,29.008131499998854,0.008131499998853542,None,87.48651899999822,87.48651899999822,87.48651899999822,87.48651899999822,87.48651899999822,87.48651899999822,87.48651899999822,87.48651899999822,,002,P020,2025_May_06_1731,CategoryLocalizer,2021.2.3,59.919563976072,
29.8,30.0,5,0.0,Stimuli\Blank.png,0,0,0,36,36,36,,,,,,,,,,,,,29.809733999994933,0.009733999994931963,None,88.28733590000047,88.28733590000047,88.28733590000047,88.28733590000047,88.28733590000047,88.28733590000047,88.28733590000047,88.28733590000047,,002,P020,2025_May_06_1731,CategoryLocalizer,2021.2.3,59.919563976072,
30.0,30.8,2,0.75,Stimuli\ImageFiles-Set2\Bodies\Bodies_SittingChair_00002.png,0,0,0,37,37,37,,,,,,,,,,,,,30.00896020000073,0.008960200000728946,None,88.5042220999967,88.5042220999967,88.5042220999967,88.5042220999967,88.5042220999967,88.5042220999967,88.5042220999967,88.5042220999967,,002,P020,2025_May_06_1731,CategoryLocalizer,2021.2.3,59.919563976072,
30.8,31.0,5,0.0,Stimuli\Blank.png,0,0,0,38,38,38,,,,,,,,,,,,,30.827819699996326,0.027819699996324943,None,89.3048179000034,89.3048179000034,89.3048179000034,89.3048179000034,89.3048179000034,89.3048179000034,89.3048179000034,89.3048179000034,,002,P020,2025_May_06_1731,CategoryLocalizer,2021.2.3,59.919563976072,
31.0,31.8,2,0.75,Stimuli\ImageFiles-Set2\Bodies\Bodies_SittingChair_00002.png,1,1,0,39,39,39,,,,,,,,,,,,,31.013154100000975,0.013154100000974722,1,89.50500399999873,89.50500399999873,89.50500399999873,89.50500399999873,89.50500399999873,89.50500399999873,89.50500399999873,89.50500399999873,0.6130932000014582,002,P020,2025_May_06_1731,CategoryLocalizer,2021.2.3,59.919563976072,
31.8,32.0,5,0.0,Stimuli\Blank.png,0,0,0,40,40,40,,,,,,,,,,,,,31.826912500000617,0.02691250000061629,None,90.30568789999961,90.30568789999961,90.30568789999961,90.30568789999961,90.30568789999961,90.30568789999961,90.30568789999961,90.30568789999961,,002,P020,2025_May_06_1731,CategoryLocalizer,2021.2.3,59.919563976072,
32.0,32.8,2,0.75,Stimuli\ImageFiles-Set2\Bodies\Bodies_Falling_00001.png,0,0,0,41,41,41,,,,,,,,,,,,,32.01112219999777,0.011122199997771531,None,90.50592039999901,90.50592039999901,90.50592039999901,90.50592039999901,90.50592039999901,90.50592039999901,90.50592039999901,90.50592039999901,,002,P020,2025_May_06_1731,CategoryLocalizer,2021.2.3,59.919563976072,
32.8,33.0,5,0.0,Stimuli\Blank.png,0,0,0,42,42,42,,,,,,,,,,,,,32.828226099998574,0.028226099998576615,None,91.30657139999676,91.30657139999676,91.30657139999676,91.30657139999676,91.30657139999676,91.30657139999676,91.30657139999676,91.30657139999676,,002,P020,2025_May_06_1731,CategoryLocalizer,2021.2.3,59.919563976072,
33.0,33.8,2,0.75,Stimuli\ImageFiles-Set2\Bodies\Bodies_Kicking_00006.png,0,0,0,43,43,43,,,,,,,,,,,,,33.012384000001475,0.012384000001475215,None,91.52344440000161,91.52344440000161,91.52344440000161,91.52344440000161,91.52344440000161,91.52344440000161,91.52344440000161,91.52344440000161,,002,P020,2025_May_06_1731,CategoryLocalizer,2021.2.3,59.919563976072,
33.8,34.0,5,0.0,Stimuli\Blank.png,0,0,0,44,44,44,,,,,,,,,,,,,33.8457888999983,0.045788899998299826,None,92.32414499999868,92.32414499999868,92.32414499999868,92.32414499999868,92.32414499999868,92.32414499999868,92.32414499999868,92.32414499999868,,002,P020,2025_May_06_1731,CategoryLocalizer,2021.2.3,59.919563976072,
34.0,34.8,2,0.75,Stimuli\ImageFiles-Set2\Bodies\Bodies_DownwardDog_00002.png,0,0,0,45,45,45,,,,,,,,,,,,,34.01196279999567,0.011962799995671958,None,92.50765859999956,92.50765859999956,92.50765859999956,92.50765859999956,92.50765859999956,92.50765859999956,92.50765859999956,92.50765859999956,,002,P020,2025_May_06_1731,CategoryLocalizer,2021.2.3,59.919563976072,
34.8,35.0,5,0.0,Stimuli\Blank.png,0,0,0,46,46,46,,,,,,,,,,,,,34.831398700000136,0.031398700000139,None,93.30835859999934,93.30835859999934,93.30835859999934,93.30835859999934,93.30835859999934,93.30835859999934,93.30835859999934,93.30835859999934,,002,P020,2025_May_06_1731,CategoryLocalizer,2021.2.3,59.919563976072,
35.0,35.8,2,0.75,Stimuli\ImageFiles-Set2\Bodies\Bodies_PushUp_00003.png,0,0,0,47,47,47,,,,,,,,,,,,,35.01290860000154,0.012908600001537707,None,93.50851829999738,93.50851829999738,93.50851829999738,93.50851829999738,93.50851829999738,93.50851829999738,93.50851829999738,93.50851829999738,,002,P020,2025_May_06_1731,CategoryLocalizer,2021.2.3,59.919563976072,
35.8,36.0,5,0.0,Stimuli\Blank.png,0,0,0,48,48,48,,,,,,,,,,,,,35.83064469999954,0.030644699999541558,None,94.30928080000012,94.30928080000012,94.30928080000012,94.30928080000012,94.30928080000012,94.30928080000012,94.30928080000012,94.30928080000012,,002,P020,2025_May_06_1731,CategoryLocalizer,2021.2.3,59.919563976072,
36.0,36.8,2,0.75,Stimuli\ImageFiles-Set2\Bodies\Bodies_Walking_00001.png,1,1,0,49,49,49,,,,,,,,,,,,,36.01391259999946,0.013912599999457598,None,94.5094076000023,94.5094076000023,94.5094076000023,94.5094076000023,94.5094076000023,94.5094076000023,94.5094076000023,94.5094076000023,,002,P020,2025_May_06_1731,CategoryLocalizer,2021.2.3,59.919563976072,
36.8,37.0,5,0.0,Stimuli\Blank.png,0,0,0,50,50,50,,,,,,,,,,,,,36.832720899998094,0.0327208999980968,None,95.31013250000251,95.31013250000251,95.31013250000251,95.31013250000251,95.31013250000251,95.31013250000251,95.31013250000251,95.31013250000251,,002,P020,2025_May_06_1731,CategoryLocalizer,2021.2.3,59.919563976072,
37.0,37.8,2,0.75,Stimuli\ImageFiles-Set2\Bodies\Bodies_Kneeling_00006.png,0,0,0,51,51,51,,,,,,,,,,,,,36.998570899995684,-0.001429100004315842,None,95.4769238000008,95.4769238000008,95.4769238000008,95.4769238000008,95.4769238000008,95.4769238000008,95.4769238000008,95.4769238000008,,002,P020,2025_May_06_1731,CategoryLocalizer,2021.2.3,59.919563976072,
37.8,38.0,5,0.0,Stimuli\Blank.png,0,0,0,52,52,52,,,,,,,,,,,,,37.80125319999934,0.0012531999993399268,None,96.29433199999767,96.29433199999767,96.29433199999767,96.29433199999767,96.29433199999767,96.29433199999767,96.29433199999767,96.29433199999767,,002,P020,2025_May_06_1731,CategoryLocalizer,2021.2.3,59.919563976072,
38.0,38.8,2,0.75,Stimuli\ImageFiles-Set2\Bodies\Bodies_Kneeling_00006.png,0,0,0,53,53,53,,,,,,,,,,,,,38.017476900000474,0.017476900000474416,1,96.51116960000218,96.51116960000218,96.51116960000218,96.51116960000218,96.51116960000218,96.51116960000218,96.51116960000218,96.51116960000218,0.36080889999720966,002,P020,2025_May_06_1731,CategoryLocalizer,2021.2.3,59.919563976072,
38.8,39.0,5,0.0,Stimuli\Blank.png,0,0,0,54,54,54,,,,,,,,,,,,,38.81638920000114,0.016389200001142967,None,97.29521170000226,97.29521170000226,97.29521170000226,97.29521170000226,97.29521170000226,97.29521170000226,97.29521170000226,97.29521170000226,,002,P020,2025_May_06_1731,CategoryLocalizer,2021.2.3,59.919563976072,
39.0,39.8,2,0.75,Stimuli\ImageFiles-Set2\Bodies\Bodies_Kneeling_00002.png,0,0,0,55,55,55,,,,,,,,,,,,,39.00148239999544,0.0014823999954387546,None,97.49538839999877,97.49538839999877,97.49538839999877,97.49538839999877,97.49538839999877,97.49538839999877,97.49538839999877,97.49538839999877,,002,P020,2025_May_06_1731,CategoryLocalizer,2021.2.3,59.919563976072,
39.8,40.0,5,0.0,Stimuli\Blank.png,0,0,0,56,56,56,,,,,,,,,,,,,39.81719129999692,0.017191299996923703,None,98.29611139999906,98.29611139999906,98.29611139999906,98.29611139999906,98.29611139999906,98.29611139999906,98.29611139999906,98.29611139999906,,002,P020,2025_May_06_1731,CategoryLocalizer,2021.2.3,59.919563976072,
40.0,40.8,2,0.75,Stimuli\ImageFiles-Set2\Bodies\Bodies_Running_00007.png,0,0,0,57,57,57,,,,,,,,,,,,,40.00069999999687,0.0006999999968684278,None,98.4795804000023,98.4795804000023,98.4795804000023,98.4795804000023,98.4795804000023,98.4795804000023,98.4795804000023,98.4795804000023,,002,P020,2025_May_06_1731,CategoryLocalizer,2021.2.3,59.919563976072,
40.8,41.0,5,0.0,Stimuli\Blank.png,0,0,0,58,58,58,,,,,,,,,,,,,40.80124619999697,0.0012461999969701765,None,99.28028880000056,99.28028880000056,99.28028880000056,99.28028880000056,99.28028880000056,99.28028880000056,99.28028880000056,99.28028880000056,,002,P020,2025_May_06_1731,CategoryLocalizer,2021.2.3,59.919563976072,
41.0,41.8,2,0.75,Stimuli\ImageFiles-Set2\Bodies\Bodies_Running_00002.png,0,0,0,59,59,59,,,,,,,,,,,,,41.002177700000175,0.0021777000001748092,None,99.49717149999924,99.49717149999924,99.49717149999924,99.49717149999924,99.49717149999924,99.49717149999924,99.49717149999924,99.49717149999924,,002,P020,2025_May_06_1731,CategoryLocalizer,2021.2.3,59.919563976072,
41.8,42.0,5,0.0,Stimuli\Blank.png,0,0,0,60,60,60,,,,,,,,,,,,,41.819523799997114,0.019523799997116953,None,100.29789529999834,100.29789529999834,100.29789529999834,100.29789529999834,100.29789529999834,100.29789529999834,100.29789529999834,100.29789529999834,,002,P020,2025_May_06_1731,CategoryLocalizer,2021.2.3,59.919563976072,
42.0,42.8,2,0.75,Stimuli\ImageFiles-Set2\Bodies\Bodies_Falling_00003.png,0,0,0,61,61,61,,,,,,,,,,,,,42.002345900000364,0.002345900000364054,None,100.4980540999968,100.4980540999968,100.4980540999968,100.4980540999968,100.4980540999968,100.4980540999968,100.4980540999968,100.4980540999968,,002,P020,2025_May_06_1731,CategoryLocalizer,2021.2.3,59.919563976072,
42.8,43.0,5,0.0,Stimuli\Blank.png,0,0,0,62,62,62,,,,,,,,,,,,,42.82077749999735,0.0207774999973509,None,101.29874869999912,101.29874869999912,101.29874869999912,101.29874869999912,101.29874869999912,101.29874869999912,101.29874869999912,101.29874869999912,,002,P020,2025_May_06_1731,CategoryLocalizer,2021.2.3,59.919563976072,
43.0,43.8,2,0.75,Stimuli\ImageFiles-Set2\Bodies\Bodies_CobraPose_00007.png,0,0,0,63,63,63,,,,,,,,,,,,,43.00341820000176,0.0034182000017608516,None,101.499040900002,101.499040900002,101.499040900002,101.499040900002,101.499040900002,101.499040900002,101.499040900002,101.499040900002,,002,P020,2025_May_06_1731,CategoryLocalizer,2021.2.3,59.919563976072,
43.8,44.0,5,0.0,Stimuli\Blank.png,0,0,0,64,64,64,,,,,,,,,,,,,43.82066069999564,0.020660699995644904,None,102.29967220000253,102.29967220000253,102.29967220000253,102.29967220000253,102.29967220000253,102.29967220000253,102.29967220000253,102.29967220000253,,002,P020,2025_May_06_1731,CategoryLocalizer,2021.2.3,59.919563976072,
44.0,44.8,3,0.75,Stimuli\ImageFiles-Set2\Faces\Face_00023.png,0,0,0,65,65,65,,,,,,,,,,,,,44.00655249999545,0.006552499995450489,None,102.51651709999715,102.51651709999715,102.51651709999715,102.51651709999715,102.51651709999715,102.51651709999715,102.51651709999715,102.51651709999715,,002,P020,2025_May_06_1731,CategoryLocalizer,2021.2.3,59.919563976072,
44.8,45.0,5,0.0,Stimuli\Blank.png,0,0,0,66,66,66,,,,,,,,,,,,,44.83834190000198,0.038341900001981344,None,103.31720559999667,103.31720559999667,103.31720559999667,103.31720559999667,103.31720559999667,103.31720559999667,103.31720559999667,103.31720559999667,,002,P020,2025_May_06_1731,CategoryLocalizer,2021.2.3,59.919563976072,
45.0,45.8,3,0.75,Stimuli\ImageFiles-Set2\Faces\Face_00070.png,0,0,0,67,67,67,,,,,,,,,,,,,45.00568470000144,0.005684700001438614,None,103.5007162999973,103.5007162999973,103.5007162999973,103.5007162999973,103.5007162999973,103.5007162999973,103.5007162999973,103.5007162999973,,002,P020,2025_May_06_1731,CategoryLocalizer,2021.2.3,59.919563976072,
45.8,46.0,5,0.0,Stimuli\Blank.png,0,0,0,68,68,68,,,,,,,,,,,,,45.822341300001426,0.022341300001428976,None,104.30140920000122,104.30140920000122,104.30140920000122,104.30140920000122,104.30140920000122,104.30140920000122,104.30140920000122,104.30140920000122,,002,P020,2025_May_06_1731,CategoryLocalizer,2021.2.3,59.919563976072,
46.0,46.8,3,0.75,Stimuli\ImageFiles-Set2\Faces\Face_00056.png,0,0,0,69,69,69,,,,,,,,,,,,,46.00689579999744,0.00689579999743728,None,104.51827359999879,104.51827359999879,104.51827359999879,104.51827359999879,104.51827359999879,104.51827359999879,104.51827359999879,104.51827359999879,,002,P020,2025_May_06_1731,CategoryLocalizer,2021.2.3,59.919563976072,
46.8,47.0,5,0.0,Stimuli\Blank.png,0,0,0,70,70,70,,,,,,,,,,,,,46.84080050000193,0.0408005000019358,None,105.31897410000238,105.31897410000238,105.31897410000238,105.31897410000238,105.31897410000238,105.31897410000238,105.31897410000238,105.31897410000238,,002,P020,2025_May_06_1731,CategoryLocalizer,2021.2.3,59.919563976072,
47.0,47.8,3,0.75,Stimuli\ImageFiles-Set2\Faces\Face_00096.png,0,0,0,71,71,71,,,,,,,,,,,,,47.00688699999591,0.0068869999959133565,None,105.50246860000334,105.50246860000334,105.50246860000334,105.50246860000334,105.50246860000334,105.50246860000334,105.50246860000334,105.50246860000334,,002,P020,2025_May_06_1731,CategoryLocalizer,2021.2.3,59.919563976072,
47.8,48.0,5,0.0,Stimuli\Blank.png,0,0,0,72,72,72,,,,,,,,,,,,,47.82662600000185,0.026626000001854777,None,106.3198820999969,106.3198820999969,106.3198820999969,106.3198820999969,106.3198820999969,106.3198820999969,106.3198820999969,106.3198820999969,,002,P020,2025_May_06_1731,CategoryLocalizer,2021.2.3,59.919563976072,
48.0,48.8,3,0.75,Stimuli\ImageFiles-Set2\Faces\Face_00118.png,0,0,0,73,73,73,,,,,,,,,,,,,48.027551300001505,0.027551300001505297,None,106.53684549999889,106.53684549999889,106.53684549999889,106.53684549999889,106.53684549999889,106.53684549999889,106.53684549999889,106.53684549999889,,002,P020,2025_May_06_1731,CategoryLocalizer,2021.2.3,59.919563976072,
48.8,49.0,5,0.0,Stimuli\Blank.png,0,0,0,74,74,74,,,,,,,,,,,,,48.84194120000029,0.041941200000295,None,107.32074509999802,107.32074509999802,107.32074509999802,107.32074509999802,107.32074509999802,107.32074509999802,107.32074509999802,107.32074509999802,,002,P020,2025_May_06_1731,CategoryLocalizer,2021.2.3,59.919563976072,
49.0,49.8,3,0.75,Stimuli\ImageFiles-Set2\Faces\Face_00118.png,1,1,0,75,75,75,,,,,,,,,,,,,49.00896669999929,0.00896669999929145,1,107.48755600000004,107.48755600000004,107.48755600000004,107.48755600000004,107.48755600000004,107.48755600000004,107.48755600000004,107.48755600000004,0.667510699997365,002,P020,2025_May_06_1731,CategoryLocalizer,2021.2.3,59.919563976072,
49.8,50.0,5,0.0,Stimuli\Blank.png,0,0,0,76,76,76,,,,,,,,,,,,,49.811575699997775,0.011575699997777633,None,108.30496239999775,108.30496239999775,108.30496239999775,108.30496239999775,108.30496239999775,108.30496239999775,108.30496239999775,108.30496239999775,,002,P020,2025_May_06_1731,CategoryLocalizer,2021.2.3,59.919563976072,
50.0,50.8,3,0.75,Stimuli\ImageFiles-Set2\Faces\Face_00092.png,0,0,0,77,77,77,,,,,,,,,,,,,50.026874499999394,0.026874499999394175,None,108.52179980000074,108.52179980000074,108.52179980000074,108.52179980000074,108.52179980000074,108.52179980000074,108.52179980000074,108.52179980000074,,002,P020,2025_May_06_1731,CategoryLocalizer,2021.2.3,59.919563976072,
50.8,51.0,5,0.0,Stimuli\Blank.png,0,0,0,78,78,78,,,,,,,,,,,,,50.82750159999705,0.02750159999705204,None,109.30582739999954,109.30582739999954,109.30582739999954,109.30582739999954,109.30582739999954,109.30582739999954,109.30582739999954,109.30582739999954,,002,P020,2025_May_06_1731,CategoryLocalizer,2021.2.3,59.919563976072,
51.0,51.8,3,0.75,Stimuli\ImageFiles-Set2\Faces\Face_00102.png,0,0,0,79,79,79,,,,,,,,,,,,,51.01176960000157,0.011769600001571234,None,109.50601720000122,109.50601720000122,109.50601720000122,109.50601720000122,109.50601720000122,109.50601720000122,109.50601720000122,109.50601720000122,,002,P020,2025_May_06_1731,CategoryLocalizer,2021.2.3,59.919563976072,
51.8,52.0,5,0.0,Stimuli\Blank.png,0,0,0,80,80,80,,,,,,,,,,,,,51.82767590000003,0.02767590000003395,None,110.30672059999779,110.30672059999779,110.30672059999779,110.30672059999779,110.30672059999779,110.30672059999779,110.30672059999779,110.30672059999779,,002,P020,2025_May_06_1731,CategoryLocalizer,2021.2.3,59.919563976072,
52.0,52.8,3,0.75,Stimuli\ImageFiles-Set2\Faces\Face_00004.png,0,0,0,81,81,81,,,,,,,,,,,,,52.01132019999932,0.011320199999317992,None,110.49020890000247,110.49020890000247,110.49020890000247,110.49020890000247,110.49020890000247,110.49020890000247,110.49020890000247,110.49020890000247,,002,P020,2025_May_06_1731,CategoryLocalizer,2021.2.3,59.919563976072,
52.8,53.0,5,0.0,Stimuli\Blank.png,0,0,0,82,82,82,,,,,,,,,,,,,52.811863599999924,0.011863599999927033,None,111.29092479999963,111.29092479999963,111.29092479999963,111.29092479999963,111.29092479999963,111.29092479999963,111.29092479999963,111.29092479999963,,002,P020,2025_May_06_1731,CategoryLocalizer,2021.2.3,59.919563976072,
53.0,53.8,3,0.75,Stimuli\ImageFiles-Set2\Faces\Face_00080.png,0,0,0,83,83,83,,,,,,,,,,,,,53.01287669999874,0.01287669999874197,None,111.50777799999923,111.50777799999923,111.50777799999923,111.50777799999923,111.50777799999923,111.50777799999923,111.50777799999923,111.50777799999923,,002,P020,2025_May_06_1731,CategoryLocalizer,2021.2.3,59.919563976072,
53.8,54.0,5,0.0,Stimuli\Blank.png,0,0,0,84,84,84,,,,,,,,,,,,,53.83141539999633,0.031415399996333804,None,112.32517679999728,112.32517679999728,112.32517679999728,112.32517679999728,112.32517679999728,112.32517679999728,112.32517679999728,112.32517679999728,,002,P020,2025_May_06_1731,CategoryLocalizer,2021.2.3,59.919563976072,
54.0,54.8,3,0.75,Stimuli\ImageFiles-Set2\Faces\Face_00084.png,0,0,0,85,85,85,,,,,,,,,,,,,54.033075300001656,0.033075300001655705,None,112.52536780000082,112.52536780000082,112.52536780000082,112.52536780000082,112.52536780000082,112.52536780000082,112.52536780000082,112.52536780000082,,002,P020,2025_May_06_1731,CategoryLocalizer,2021.2.3,59.919563976072,
54.8,55.0,5,0.0,Stimuli\Blank.png,0,0,0,86,86,86,,,,,,,,,,,,,54.81618489999528,0.016184899995280944,None,113.3093841000009,113.3093841000009,113.3093841000009,113.3093841000009,113.3093841000009,113.3093841000009,113.3093841000009,113.3093841000009,,002,P020,2025_May_06_1731,CategoryLocalizer,2021.2.3,59.919563976072,
55.0,55.8,3,0.75,Stimuli\ImageFiles-Set2\Faces\Face_00066.png,0,0,0,87,87,87,,,,,,,,,,,,,55.016121900000144,0.016121900000143796,None,113.50956359999691,113.50956359999691,113.50956359999691,113.50956359999691,113.50956359999691,113.50956359999691,113.50956359999691,113.50956359999691,,002,P020,2025_May_06_1731,CategoryLocalizer,2021.2.3,59.919563976072,
55.8,56.0,5,0.0,Stimuli\Blank.png,0,0,0,88,88,88,,,,,,,,,,,,,55.81528640000033,0.015286400000334766,None,114.29362399999809,114.29362399999809,114.29362399999809,114.29362399999809,114.29362399999809,114.29362399999809,114.29362399999809,114.29362399999809,,002,P020,2025_May_06_1731,CategoryLocalizer,2021.2.3,59.919563976072,
56.0,56.8,3,0.75,Stimuli\ImageFiles-Set2\Faces\Face_00064.png,1,1,0,89,89,89,,,,,,,,,,,,,56.01693340000202,0.01693340000201715,None,114.5271483999968,114.5271483999968,114.5271483999968,114.5271483999968,114.5271483999968,114.5271483999968,114.5271483999968,114.5271483999968,,002,P020,2025_May_06_1731,CategoryLocalizer,2021.2.3,59.919563976072,
56.8,57.0,5,0.0,Stimuli\Blank.png,0,0,0,90,90,90,,,,,,,,,,,,,56.832233000001,0.03223300000099982,None,115.31113999999798,115.31113999999798,115.31113999999798,115.31113999999798,115.31113999999798,115.31113999999798,115.31113999999798,115.31113999999798,,002,P020,2025_May_06_1731,CategoryLocalizer,2021.2.3,59.919563976072,
57.0,57.8,3,0.75,Stimuli\ImageFiles-Set2\Faces\Face_00062.png,0,0,0,91,91,91,,,,,,,,,,,,,56.99986260000151,-0.0001373999984934926,None,115.49464910000097,115.49464910000097,115.49464910000097,115.49464910000097,115.49464910000097,115.49464910000097,115.49464910000097,115.49464910000097,,002,P020,2025_May_06_1731,CategoryLocalizer,2021.2.3,59.919563976072,
57.8,58.0,5,0.0,Stimuli\Blank.png,0,0,0,92,92,92,,,,,,,,,,,,,57.8174560999978,0.01745609999780129,None,116.29536260000168,116.29536260000168,116.29536260000168,116.29536260000168,116.29536260000168,116.29536260000168,116.29536260000168,116.29536260000168,,002,P020,2025_May_06_1731,CategoryLocalizer,2021.2.3,59.919563976072,
58.0,58.8,3,0.75,Stimuli\ImageFiles-Set2\Faces\Face_00062.png,0,0,0,93,93,93,,,,,,,,,,,,,58.00042019999819,0.00042019999818876386,1,116.47886920000019,116.47886920000019,116.47886920000019,116.47886920000019,116.47886920000019,116.47886920000019,116.47886920000019,116.47886920000019,0.5960104999976465,002,P020,2025_May_06_1731,CategoryLocalizer,2021.2.3,59.919563976072,
58.8,59.0,5,0.0,Stimuli\Blank.png,0,0,0,94,94,94,,,,,,,,,,,,,58.80185060000076,0.0018506000007647572,None,117.27955279999878,117.27955279999878,117.27955279999878,117.27955279999878,117.27955279999878,117.27955279999878,117.27955279999878,117.27955279999878,,002,P020,2025_May_06_1731,CategoryLocalizer,2021.2.3,59.919563976072,
59.0,59.8,3,0.75,Stimuli\ImageFiles-Set2\Faces\Face_00028.png,0,0,0,95,95,95,,,,,,,,,,,,,59.00197759999719,0.0019775999971898273,None,117.49643159999687,117.49643159999687,117.49643159999687,117.49643159999687,117.49643159999687,117.49643159999687,117.49643159999687,117.49643159999687,,002,P020,2025_May_06_1731,CategoryLocalizer,2021.2.3,59.919563976072,
59.8,60.0,5,0.0,Stimuli\Blank.png,0,0,0,96,96,96,,,,,,,,,,,,,59.81895359999908,0.01895359999907953,None,118.29713520000223,118.29713520000223,118.29713520000223,118.29713520000223,118.29713520000223,118.29713520000223,118.29713520000223,118.29713520000223,,002,P020,2025_May_06_1731,CategoryLocalizer,2021.2.3,59.919563976072,
60.0,60.8,4,0.75,Stimuli\ImageFiles-Set2\Scenes\Scenes_099.png,0,0,0,97,97,97,,,,,,,,,,,,,60.002421199998935,0.0024211999989347532,None,118.51399130000209,118.51399130000209,118.51399130000209,118.51399130000209,118.51399130000209,118.51399130000209,118.51399130000209,118.51399130000209,,002,P020,2025_May_06_1731,CategoryLocalizer,2021.2.3,59.919563976072,
60.8,61.0,5,0.0,Stimuli\Blank.png,0,0,0,98,98,98,,,,,,,,,,,,,60.835864599997876,0.035864599997879054,None,119.31469680000009,119.31469680000009,119.31469680000009,119.31469680000009,119.31469680000009,119.31469680000009,119.31469680000009,119.31469680000009,,002,P020,2025_May_06_1731,CategoryLocalizer,2021.2.3,59.919563976072,
61.0,61.8,4,0.75,Stimuli\ImageFiles-Set2\Scenes\Scenes_073.png,0,0,0,99,99,99,,,,,,,,,,,,,61.002450499996485,0.002450499996484723,None,119.49820760000148,119.49820760000148,119.49820760000148,119.49820760000148,119.49820760000148,119.49820760000148,119.49820760000148,119.49820760000148,,002,P020,2025_May_06_1731,CategoryLocalizer,2021.2.3,59.919563976072,
61.8,62.0,5,0.0,Stimuli\Blank.png,0,0,0,100,100,100,,,,,,,,,,,,,61.82174400000076,0.021744000000765595,None,120.31561379999766,120.31561379999766,120.31561379999766,120.31561379999766,120.31561379999766,120.31561379999766,120.31561379999766,120.31561379999766,,002,P020,2025_May_06_1731,CategoryLocalizer,2021.2.3,59.919563976072,
62.0,62.8,4,0.75,Stimuli\ImageFiles-Set2\Scenes\Scenes_082.png,0,0,0,101,101,101,,,,,,,,,,,,,62.021013999998104,0.021013999998103827,None,120.5324369000009,120.5324369000009,120.5324369000009,120.5324369000009,120.5324369000009,120.5324369000009,120.5324369000009,120.5324369000009,,002,P020,2025_May_06_1731,CategoryLocalizer,2021.2.3,59.919563976072,
62.8,63.0,5,0.0,Stimuli\Blank.png,0,0,0,102,102,102,,,,,,,,,,,,,62.83743120000145,0.03743120000144984,None,121.31648320000386,121.31648320000386,121.31648320000386,121.31648320000386,121.31648320000386,121.31648320000386,121.31648320000386,121.31648320000386,,002,P020,2025_May_06_1731,CategoryLocalizer,2021.2.3,59.919563976072,
63.0,63.8,4,0.75,Stimuli\ImageFiles-Set2\Scenes\Scenes_082.png,1,1,0,103,103,103,,,,,,,,,,,,,63.0042214999994,0.004221499999403022,None,121.48328539999784,121.48328539999784,121.48328539999784,121.48328539999784,121.48328539999784,121.48328539999784,121.48328539999784,121.48328539999784,,002,P020,2025_May_06_1731,CategoryLocalizer,2021.2.3,59.919563976072,
63.8,64.0,5,0.0,Stimuli\Blank.png,0,0,0,104,104,104,,,,,,,,,,,,,63.80587699999887,0.005876999998875476,1,122.28398860000016,122.28398860000016,122.28398860000016,122.28398860000016,122.28398860000016,122.28398860000016,122.28398860000016,122.28398860000016,0.07500959999742918,002,P020,2025_May_06_1731,CategoryLocalizer,2021.2.3,59.919563976072,
64.0,64.8,4,0.75,Stimuli\ImageFiles-Set2\Scenes\Scenes_086.png,0,0,0,105,105,105,,,,,,,,,,,,,64.0053184999997,0.005318499999702908,None,122.50084549999883,122.50084549999883,122.50084549999883,122.50084549999883,122.50084549999883,122.50084549999883,122.50084549999883,122.50084549999883,,002,P020,2025_May_06_1731,CategoryLocalizer,2021.2.3,59.919563976072,
64.8,65.0,5,0.0,Stimuli\Blank.png,0,0,0,106,106,106,,,,,,,,,,,,,64.82330569999613,0.023305699996129192,None,123.30154449999827,123.30154449999827,123.30154449999827,123.30154449999827,123.30154449999827,123.30154449999827,123.30154449999827,123.30154449999827,,002,P020,2025_May_06_1731,CategoryLocalizer,2021.2.3,59.919563976072,
65.0,65.8,4,0.75,Stimuli\ImageFiles-Set2\Scenes\Scenes_109.png,0,0,0,107,107,107,,,,,,,,,,,,,65.00617149999744,0.006171499997435603,None,123.50174549999792,123.50174549999792,123.50174549999792,123.50174549999792,123.50174549999792,123.50174549999792,123.50174549999792,123.50174549999792,,002,P020,2025_May_06_1731,CategoryLocalizer,2021.2.3,59.919563976072,
65.8,66.0,5,0.0,Stimuli\Blank.png,0,0,0,108,108,108,,,,,,,,,,,,,65.82392019999679,0.023920199996794622,None,124.3024504999994,124.3024504999994,124.3024504999994,124.3024504999994,124.3024504999994,124.3024504999994,124.3024504999994,124.3024504999994,,002,P020,2025_May_06_1731,CategoryLocalizer,2021.2.3,59.919563976072,
66.0,66.8,4,0.75,Stimuli\ImageFiles-Set2\Scenes\Scenes_093.png,0,0,0,109,109,109,,,,,,,,,,,,,66.0075016999981,0.007501699998101685,None,124.51930349999748,124.51930349999748,124.51930349999748,124.51930349999748,124.51930349999748,124.51930349999748,124.51930349999748,124.51930349999748,,002,P020,2025_May_06_1731,CategoryLocalizer,2021.2.3,59.919563976072,
66.8,67.0,5,0.0,Stimuli\Blank.png,0,0,0,110,110,110,,,,,,,,,,,,,66.84213810000074,0.042138100000741474,None,125.32001090000267,125.32001090000267,125.32001090000267,125.32001090000267,125.32001090000267,125.32001090000267,125.32001090000267,125.32001090000267,,002,P020,2025_May_06_1731,CategoryLocalizer,2021.2.3,59.919563976072,
67.0,67.8,4,0.75,Stimuli\ImageFiles-Set2\Scenes\Scenes_102.png,0,0,0,111,111,111,,,,,,,,,,,,,67.00800249999884,0.008002499998838175,None,125.50350369999796,125.50350369999796,125.50350369999796,125.50350369999796,125.50350369999796,125.50350369999796,125.50350369999796,125.50350369999796,,002,P020,2025_May_06_1731,CategoryLocalizer,2021.2.3,59.919563976072,
67.8,68.0,5,0.0,Stimuli\Blank.png,0,0,0,112,112,112,,,,,,,,,,,,,67.82621680000011,0.02621680000011395,None,126.30420299999969,126.30420299999969,126.30420299999969,126.30420299999969,126.30420299999969,126.30420299999969,126.30420299999969,126.30420299999969,,002,P020,2025_May_06_1731,CategoryLocalizer,2021.2.3,59.919563976072,
68.0,68.8,4,0.75,Stimuli\ImageFiles-Set2\Scenes\Scenes_085.png,0,0,0,113,113,113,,,,,,,,,,,,,68.00875249999808,0.008752499998081475,None,126.48769729999913,126.48769729999913,126.48769729999913,126.48769729999913,126.48769729999913,126.48769729999913,126.48769729999913,126.48769729999913,,002,P020,2025_May_06_1731,CategoryLocalizer,2021.2.3,59.919563976072,
68.8,69.0,5,0.0,Stimuli\Blank.png,0,0,0,114,114,114,,,,,,,,,,,,,68.8109203999993,0.010920399999307051,None,127.28842109999823,127.28842109999823,127.28842109999823,127.28842109999823,127.28842109999823,127.28842109999823,127.28842109999823,127.28842109999823,,002,P020,2025_May_06_1731,CategoryLocalizer,2021.2.3,59.919563976072,
69.0,69.8,4,0.75,Stimuli\ImageFiles-Set2\Scenes\Scenes_061.png,0,0,0,115,115,115,,,,,,,,,,,,,69.01079709999613,0.010797099996125326,None,127.52199619999737,127.52199619999737,127.52199619999737,127.52199619999737,127.52199619999737,127.52199619999737,127.52199619999737,127.52199619999737,,002,P020,2025_May_06_1731,CategoryLocalizer,2021.2.3,59.919563976072,
69.8,70.0,5,0.0,Stimuli\Blank.png,0,0,0,116,116,116,,,,,,,,,,,,,69.84624369999801,0.046243699998015586,None,128.33933539999998,128.33933539999998,128.33933539999998,128.33933539999998,128.33933539999998,128.33933539999998,128.33933539999998,128.33933539999998,,002,P020,2025_May_06_1731,CategoryLocalizer,2021.2.3,59.919563976072,
70.0,70.8,4,0.75,Stimuli\ImageFiles-Set2\Scenes\Scenes_074.png,0,0,0,117,117,117,,,,,,,,,,,,,70.02814989999752,0.028149899997515604,None,128.5395170999982,128.5395170999982,128.5395170999982,128.5395170999982,128.5395170999982,128.5395170999982,128.5395170999982,128.5395170999982,,002,P020,2025_May_06_1731,CategoryLocalizer,2021.2.3,59.919563976072,
70.8,71.0,5,0.0,Stimuli\Blank.png,0,0,0,118,118,118,,,,,,,,,,,,,70.84516989999975,0.045169899999748964,None,129.3236070999992,129.3236070999992,129.3236070999992,129.3236070999992,129.3236070999992,129.3236070999992,129.3236070999992,129.3236070999992,,002,P020,2025_May_06_1731,CategoryLocalizer,2021.2.3,59.919563976072,
71.0,71.8,4,0.75,Stimuli\ImageFiles-Set2\Scenes\Scenes_106.png,0,0,0,119,119,119,,,,,,,,,,,,,71.01288029999705,0.012880299997050315,None,129.52372599999944,129.52372599999944,129.52372599999944,129.52372599999944,129.52372599999944,129.52372599999944,129.52372599999944,129.52372599999944,,002,P020,2025_May_06_1731,CategoryLocalizer,2021.2.3,59.919563976072,
71.8,72.0,5,0.0,Stimuli\Blank.png,0,0,0,120,120,120,,,,,,,,,,,,,71.84604659999604,0.04604659999604621,None,130.3244338000004,130.3244338000004,130.3244338000004,130.3244338000004,130.3244338000004,130.3244338000004,130.3244338000004,130.3244338000004,,002,P020,2025_May_06_1731,CategoryLocalizer,2021.2.3,59.919563976072,
72.0,72.8,4,0.75,Stimuli\ImageFiles-Set2\Scenes\Scenes_075.png,1,1,0,121,121,121,,,,,,,,,,,,,72.01225239999621,0.01225239999621408,None,130.5246107999992,130.5246107999992,130.5246107999992,130.5246107999992,130.5246107999992,130.5246107999992,130.5246107999992,130.5246107999992,,002,P020,2025_May_06_1731,CategoryLocalizer,2021.2.3,59.919563976072,
72.8,73.0,5,0.0,Stimuli\Blank.png,0,0,0,122,122,122,,,,,,,,,,,,,72.84726750000118,0.047267500001183294,None,131.3253291000001,131.3253291000001,131.3253291000001,131.3253291000001,131.3253291000001,131.3253291000001,131.3253291000001,131.3253291000001,,002,P020,2025_May_06_1731,CategoryLocalizer,2021.2.3,59.919563976072,
73.0,73.8,4,0.75,Stimuli\ImageFiles-Set2\Scenes\Scenes_095.png,0,0,0,123,123,123,,,,,,,,,,,,,73.01397480000014,0.01397480000014184,None,131.508811599997,131.508811599997,131.508811599997,131.508811599997,131.508811599997,131.508811599997,131.508811599997,131.508811599997,,002,P020,2025_May_06_1731,CategoryLocalizer,2021.2.3,59.919563976072,
73.8,74.0,5,0.0,Stimuli\Blank.png,0,0,0,124,124,124,,,,,,,,,,,,,73.83128949999809,0.031289499998095494,None,132.30952940000134,132.30952940000134,132.30952940000134,132.30952940000134,132.30952940000134,132.30952940000134,132.30952940000134,132.30952940000134,,002,P020,2025_May_06_1731,CategoryLocalizer,2021.2.3,59.919563976072,
74.0,74.8,4,0.75,Stimuli\ImageFiles-Set2\Scenes\Scenes_095.png,0,0,0,125,125,125,,,,,,,,,,,,,74.0140539999993,0.014053999999305233,1,132.4930091999995,132.4930091999995,132.4930091999995,132.4930091999995,132.4930091999995,132.4930091999995,132.4930091999995,132.4930091999995,0.469914900000731,002,P020,2025_May_06_1731,CategoryLocalizer,2021.2.3,59.919563976072,
74.8,75.0,5,0.0,Stimuli\Blank.png,0,0,0,126,126,126,,,,,,,,,,,,,74.81744649999746,0.01744649999746173,None,133.31041269999696,133.31041269999696,133.31041269999696,133.31041269999696,133.31041269999696,133.31041269999696,133.31041269999696,133.31041269999696,,002,P020,2025_May_06_1731,CategoryLocalizer,2021.2.3,59.919563976072,
75.0,75.8,4,0.75,Stimuli\ImageFiles-Set2\Scenes\Scenes_120.png,0,0,0,127,127,127,,,,,,,,,,,,,75.01677879999625,0.016778799996245652,None,133.51058080000075,133.51058080000075,133.51058080000075,133.51058080000075,133.51058080000075,133.51058080000075,133.51058080000075,133.51058080000075,,002,P020,2025_May_06_1731,CategoryLocalizer,2021.2.3,59.919563976072,
75.8,76.0,5,0.0,Stimuli\Blank.png,0,0,0,128,128,128,,,,,,,,,,,,,75.81627429999935,0.016274299999352593,None,134.29462680000142,134.29462680000142,134.29462680000142,134.29462680000142,134.29462680000142,134.29462680000142,134.29462680000142,134.29462680000142,,002,P020,2025_May_06_1731,CategoryLocalizer,2021.2.3,59.919563976072,
76.0,88.0,0,0.0,Stimuli\Blank.png,0,0,0,129,129,129,,,,,,,,,,,,,75.99988730000041,-0.00011269999959040433,None,134.47812469999917,134.47812469999917,134.47812469999917,134.47812469999917,134.47812469999917,134.47812469999917,134.47812469999917,134.47812469999917,,002,P020,2025_May_06_1731,CategoryLocalizer,2021.2.3,59.919563976072,
88.0,88.8,3,0.75,Stimuli\ImageFiles-Set2\Faces\Face_00008.png,0,0,0,130,130,130,,,,,,,,,,,,,88.00966849999531,0.00966849999531405,None,146.48872239999764,146.48872239999764,146.48872239999764,146.48872239999764,146.48872239999764,146.48872239999764,146.48872239999764,146.48872239999764,,002,P020,2025_May_06_1731,CategoryLocalizer,2021.2.3,59.919563976072,
88.8,89.0,5,0.0,Stimuli\Blank.png,0,0,0,131,131,131,,,,,,,,,,,,,88.81053959999554,0.010539599995539106,None,147.28948949999904,147.28948949999904,147.28948949999904,147.28948949999904,147.28948949999904,147.28948949999904,147.28948949999904,147.28948949999904,,002,P020,2025_May_06_1731,CategoryLocalizer,2021.2.3,59.919563976072,
89.0,89.8,3,0.75,Stimuli\ImageFiles-Set2\Faces\Face_00094.png,0,0,0,132,132,132,,,,,,,,,,,,,89.01120570000057,0.011205700000573415,None,147.50633940000262,147.50633940000262,147.50633940000262,147.50633940000262,147.50633940000262,147.50633940000262,147.50633940000262,147.50633940000262,,002,P020,2025_May_06_1731,CategoryLocalizer,2021.2.3,59.919563976072,
89.8,90.0,5,0.0,Stimuli\Blank.png,0,0,0,133,133,133,,,,,,,,,,,,,89.82803920000151,0.028039200001515496,None,148.30700510000315,148.30700510000315,148.30700510000315,148.30700510000315,148.30700510000315,148.30700510000315,148.30700510000315,148.30700510000315,,002,P020,2025_May_06_1731,CategoryLocalizer,2021.2.3,59.919563976072,
90.0,90.8,3,0.75,Stimuli\ImageFiles-Set2\Faces\Face_00094.png,1,1,0,134,134,134,,,,,,,,,,,,,90.01235769999766,0.012357699997664895,1,148.50719579999713,148.50719579999713,148.50719579999713,148.50719579999713,148.50719579999713,148.50719579999713,148.50719579999713,148.50719579999713,0.6087361000027158,002,P020,2025_May_06_1731,CategoryLocalizer,2021.2.3,59.919563976072,
90.8,91.0,5,0.0,Stimuli\Blank.png,0,0,0,135,135,135,,,,,,,,,,,,,90.83170779999637,0.031707799996368635,None,149.30789000000368,149.30789000000368,149.30789000000368,149.30789000000368,149.30789000000368,149.30789000000368,149.30789000000368,149.30789000000368,,002,P020,2025_May_06_1731,CategoryLocalizer,2021.2.3,59.919563976072,
91.0,91.8,3,0.75,Stimuli\ImageFiles-Set2\Faces\Face_00032.png,0,0,0,136,136,136,,,,,,,,,,,,,91.0126231999966,0.012623199996596668,None,149.50808959999995,149.50808959999995,149.50808959999995,149.50808959999995,149.50808959999995,149.50808959999995,149.50808959999995,149.50808959999995,,002,P020,2025_May_06_1731,CategoryLocalizer,2021.2.3,59.919563976072,
91.8,92.0,5,0.0,Stimuli\Blank.png,0,0,0,137,137,137,,,,,,,,,,,,,91.83259980000003,0.03259980000002827,None,150.32548580000002,150.32548580000002,150.32548580000002,150.32548580000002,150.32548580000002,150.32548580000002,150.32548580000002,150.32548580000002,,002,P020,2025_May_06_1731,CategoryLocalizer,2021.2.3,59.919563976072,
92.0,92.8,3,0.75,Stimuli\ImageFiles-Set2\Faces\Face_00015.png,0,0,0,138,138,138,,,,,,,,,,,,,92.01398450000124,0.01398450000124285,None,150.52567080000154,150.52567080000154,150.52567080000154,150.52567080000154,150.52567080000154,150.52567080000154,150.52567080000154,150.52567080000154,,002,P020,2025_May_06_1731,CategoryLocalizer,2021.2.3,59.919563976072,
92.8,93.0,5,0.0,Stimuli\Blank.png,0,0,0,139,139,139,,,,,,,,,,,,,92.84741099999519,0.04741099999519349,None,151.32634179999877,151.32634179999877,151.32634179999877,151.32634179999877,151.32634179999877,151.32634179999877,151.32634179999877,151.32634179999877,,002,P020,2025_May_06_1731,CategoryLocalizer,2021.2.3,59.919563976072,
93.0,93.8,3,0.75,Stimuli\ImageFiles-Set2\Faces\Face_00108.png,0,0,0,140,140,140,,,,,,,,,,,,,93.01480779999838,0.014807799998379778,None,151.50985270000092,151.50985270000092,151.50985270000092,151.50985270000092,151.50985270000092,151.50985270000092,151.50985270000092,151.50985270000092,,002,P020,2025_May_06_1731,CategoryLocalizer,2021.2.3,59.919563976072,
93.8,94.0,5,0.0,Stimuli\Blank.png,0,0,0,141,141,141,,,,,,,,,,,,,93.8321203000014,0.03212030000140942,None,152.31056420000095,152.31056420000095,152.31056420000095,152.31056420000095,152.31056420000095,152.31056420000095,152.31056420000095,152.31056420000095,,002,P020,2025_May_06_1731,CategoryLocalizer,2021.2.3,59.919563976072,
94.0,94.8,3,0.75,Stimuli\ImageFiles-Set2\Faces\Face_00052.png,0,0,0,142,142,142,,,,,,,,,,,,,94.01577520000137,0.01577520000137156,None,152.52742959999887,152.52742959999887,152.52742959999887,152.52742959999887,152.52742959999887,152.52742959999887,152.52742959999887,152.52742959999887,,002,P020,2025_May_06_1731,CategoryLocalizer,2021.2.3,59.919563976072,
94.8,95.0,5,0.0,Stimuli\Blank.png,0,0,0,143,143,143,,,,,,,,,,,,,94.8324982999984,0.0324982999984087,None,153.3114940000014,153.3114940000014,153.3114940000014,153.3114940000014,153.3114940000014,153.3114940000014,153.3114940000014,153.3114940000014,,002,P020,2025_May_06_1731,CategoryLocalizer,2021.2.3,59.919563976072,
95.0,95.8,3,0.75,Stimuli\ImageFiles-Set2\Faces\Face_00082.png,0,0,0,144,144,144,,,,,,,,,,,,,95.00122310000006,0.0012231000000610948,None,153.49494170000253,153.49494170000253,153.49494170000253,153.49494170000253,153.49494170000253,153.49494170000253,153.49494170000253,153.49494170000253,,002,P020,2025_May_06_1731,CategoryLocalizer,2021.2.3,59.919563976072,
95.8,96.0,5,0.0,Stimuli\Blank.png,0,0,0,145,145,145,,,,,,,,,,,,,95.81742569999915,0.017425699999151334,None,154.29565639999782,154.29565639999782,154.29565639999782,154.29565639999782,154.29565639999782,154.29565639999782,154.29565639999782,154.29565639999782,,002,P020,2025_May_06_1731,CategoryLocalizer,2021.2.3,59.919563976072,
96.0,96.8,3,0.75,Stimuli\ImageFiles-Set2\Faces\Face_00046.png,1,1,0,146,146,146,,,,,,,,,,,,,96.00271770000109,0.002717700001085177,None,154.51251539999794,154.51251539999794,154.51251539999794,154.51251539999794,154.51251539999794,154.51251539999794,154.51251539999794,154.51251539999794,,002,P020,2025_May_06_1731,CategoryLocalizer,2021.2.3,59.919563976072,
96.8,97.0,5,0.0,Stimuli\Blank.png,0,0,0,147,147,147,,,,,,,,,,,,,96.83629759999894,0.036297599998945884,None,155.32990650000283,155.32990650000283,155.32990650000283,155.32990650000283,155.32990650000283,155.32990650000283,155.32990650000283,155.32990650000283,,002,P020,2025_May_06_1731,CategoryLocalizer,2021.2.3,59.919563976072,
97.0,97.8,3,0.75,Stimuli\ImageFiles-Set2\Faces\Face_00044.png,0,0,0,148,148,148,,,,,,,,,,,,,97.01797899999656,0.017978999996557832,None,155.5133962999971,155.5133962999971,155.5133962999971,155.5133962999971,155.5133962999971,155.5133962999971,155.5133962999971,155.5133962999971,,002,P020,2025_May_06_1731,CategoryLocalizer,2021.2.3,59.919563976072,
97.8,98.0,5,0.0,Stimuli\Blank.png,0,0,0,149,149,149,,,,,,,,,,,,,97.82122789999994,0.02122789999994268,None,156.3141065000018,156.3141065000018,156.3141065000018,156.3141065000018,156.3141065000018,156.3141065000018,156.3141065000018,156.3141065000018,,002,P020,2025_May_06_1731,CategoryLocalizer,2021.2.3,59.919563976072,
98.0,98.8,3,0.75,Stimuli\ImageFiles-Set2\Faces\Face_00044.png,0,0,0,150,150,150,,,,,,,,,,,,,98.01869720000104,0.018697200001042802,1,156.4975884000014,156.4975884000014,156.4975884000014,156.4975884000014,156.4975884000014,156.4975884000014,156.4975884000014,156.4975884000014,0.5833062999954564,002,P020,2025_May_06_1731,CategoryLocalizer,2021.2.3,59.919563976072,
98.8,99.0,5,0.0,Stimuli\Blank.png,0,0,0,151,151,151,,,,,,,,,,,,,98.80300419999548,0.003004199995487511,None,157.28161389999877,157.28161389999877,157.28161389999877,157.28161389999877,157.28161389999877,157.28161389999877,157.28161389999877,157.28161389999877,,002,P020,2025_May_06_1731,CategoryLocalizer,2021.2.3,59.919563976072,
99.0,99.8,3,0.75,Stimuli\ImageFiles-Set2\Faces\Face_00019.png,0,0,0,152,152,152,,,,,,,,,,,,,99.00274809999974,0.002748099999735132,None,157.49847169999703,157.49847169999703,157.49847169999703,157.49847169999703,157.49847169999703,157.49847169999703,157.49847169999703,157.49847169999703,,002,P020,2025_May_06_1731,CategoryLocalizer,2021.2.3,59.919563976072,
99.8,100.0,5,0.0,Stimuli\Blank.png,0,0,0,153,153,153,,,,,,,,,,,,,99.82173619999958,0.021736199999580208,None,158.29919949999748,158.29919949999748,158.29919949999748,158.29919949999748,158.29919949999748,158.29919949999748,158.29919949999748,158.29919949999748,,002,P020,2025_May_06_1731,CategoryLocalizer,2021.2.3,59.919563976072,
100.0,100.8,3,0.75,Stimuli\ImageFiles-Set2\Faces\Face_00074.png,0,0,0,154,154,154,,,,,,,,,,,,,100.00623890000134,0.0062389000013354234,None,158.51606300000276,158.51606300000276,158.51606300000276,158.51606300000276,158.51606300000276,158.51606300000276,158.51606300000276,158.51606300000276,,002,P020,2025_May_06_1731,CategoryLocalizer,2021.2.3,59.919563976072,
100.8,101.0,5,0.0,Stimuli\Blank.png,0,0,0,155,155,155,,,,,,,,,,,,,100.83777359999658,0.037773599996583584,None,159.31675859999814,159.31675859999814,159.31675859999814,159.31675859999814,159.31675859999814,159.31675859999814,159.31675859999814,159.31675859999814,,002,P020,2025_May_06_1731,CategoryLocalizer,2021.2.3,59.919563976072,
101.0,101.8,3,0.75,Stimuli\ImageFiles-Set2\Faces\Face_00104.png,0,0,0,156,156,156,,,,,,,,,,,,,101.00522349999665,0.005223499996645842,None,159.51699599999847,159.51699599999847,159.51699599999847,159.51699599999847,159.51699599999847,159.51699599999847,159.51699599999847,159.51699599999847,,002,P020,2025_May_06_1731,CategoryLocalizer,2021.2.3,59.919563976072,
101.8,102.0,5,0.0,Stimuli\Blank.png,0,0,0,157,157,157,,,,,,,,,,,,,101.83904030000122,0.0390403000012185,None,160.31762790000357,160.31762790000357,160.31762790000357,160.31762790000357,160.31762790000357,160.31762790000357,160.31762790000357,160.31762790000357,,002,P020,2025_May_06_1731,CategoryLocalizer,2021.2.3,59.919563976072,
102.0,102.8,3,0.75,Stimuli\ImageFiles-Set2\Faces\Face_00088.png,0,0,0,158,158,158,,,,,,,,,,,,,102.00545889999921,0.005458899999212008,None,160.50112649999937,160.50112649999937,160.50112649999937,160.50112649999937,160.50112649999937,160.50112649999937,160.50112649999937,160.50112649999937,,002,P020,2025_May_06_1731,CategoryLocalizer,2021.2.3,59.919563976072,
102.8,103.0,5,0.0,Stimuli\Blank.png,0,0,0,159,159,159,,,,,,,,,,,,,102.823604600002,0.023604600002002485,None,161.30184749999898,161.30184749999898,161.30184749999898,161.30184749999898,161.30184749999898,161.30184749999898,161.30184749999898,161.30184749999898,,002,P020,2025_May_06_1731,CategoryLocalizer,2021.2.3,59.919563976072,
103.0,103.8,3,0.75,Stimuli\ImageFiles-Set2\Faces\Face_00058.png,0,0,0,160,160,160,,,,,,,,,,,,,103.006945299996,0.0069452999960049056,None,161.51871099999698,161.51871099999698,161.51871099999698,161.51871099999698,161.51871099999698,161.51871099999698,161.51871099999698,161.51871099999698,,002,P020,2025_May_06_1731,CategoryLocalizer,2021.2.3,59.919563976072,
103.8,104.0,5,0.0,Stimuli\Blank.png,0,0,0,161,161,161,,,,,,,,,,,,,103.84076079999795,0.04076079999795468,None,162.31945450000057,162.31945450000057,162.31945450000057,162.31945450000057,162.31945450000057,162.31945450000057,162.31945450000057,162.31945450000057,,002,P020,2025_May_06_1731,CategoryLocalizer,2021.2.3,59.919563976072,
104.0,104.8,1,0.75,Stimuli\ImageFiles-Set2\Objects\Object_Shovel_00001.png,0,0,0,162,162,162,,,,,,,,,,,,,104.00775779999822,0.007757799998216797,None,162.50291950000246,162.50291950000246,162.50291950000246,162.50291950000246,162.50291950000246,162.50291950000246,162.50291950000246,162.50291950000246,,002,P020,2025_May_06_1731,CategoryLocalizer,2021.2.3,59.919563976072,
104.8,105.0,5,0.0,Stimuli\Blank.png,0,0,0,163,163,163,,,,,,,,,,,,,104.82664759999898,0.02664759999898081,None,163.32029930000135,163.32029930000135,163.32029930000135,163.32029930000135,163.32029930000135,163.32029930000135,163.32029930000135,163.32029930000135,,002,P020,2025_May_06_1731,CategoryLocalizer,2021.2.3,59.919563976072,
105.0,105.8,1,0.75,Stimuli\ImageFiles-Set2\Objects\Object_Dumpster_00001.png,0,0,0,164,164,164,,,,,,,,,,,,,105.02650729999732,0.026507299997319933,None,163.52047139999922,163.52047139999922,163.52047139999922,163.52047139999922,163.52047139999922,163.52047139999922,163.52047139999922,163.52047139999922,,002,P020,2025_May_06_1731,CategoryLocalizer,2021.2.3,59.919563976072,
105.8,106.0,5,0.0,Stimuli\Blank.png,0,0,0,165,165,165,,,,,,,,,,,,,105.82608829999663,0.02608829999662987,None,164.30450420000125,164.30450420000125,164.30450420000125,164.30450420000125,164.30450420000125,164.30450420000125,164.30450420000125,164.30450420000125,,002,P020,2025_May_06_1731,CategoryLocalizer,2021.2.3,59.919563976072,
106.0,106.8,1,0.75,Stimuli\ImageFiles-Set2\Objects\Object_Tape_00001.png,0,0,0,166,166,166,,,,,,,,,,,,,106.00979999999981,0.009799999999813735,None,164.48801999999705,164.48801999999705,164.48801999999705,164.48801999999705,164.48801999999705,164.48801999999705,164.48801999999705,164.48801999999705,,002,P020,2025_May_06_1731,CategoryLocalizer,2021.2.3,59.919563976072,
106.8,107.0,5,0.0,Stimuli\Blank.png,0,0,0,167,167,167,,,,,,,,,,,,,106.81154660000175,0.011546600001750562,None,165.30538140000135,165.30538140000135,165.30538140000135,165.30538140000135,165.30538140000135,165.30538140000135,165.30538140000135,165.30538140000135,,002,P020,2025_May_06_1731,CategoryLocalizer,2021.2.3,59.919563976072,
107.0,107.8,1,0.75,Stimuli\ImageFiles-Set2\Objects\Object_Flashlight_00001.png,0,0,0,168,168,168,,,,,,,,,,,,,107.02718920000189,0.027189200001885183,None,165.52227310000308,165.52227310000308,165.52227310000308,165.52227310000308,165.52227310000308,165.52227310000308,165.52227310000308,165.52227310000308,,002,P020,2025_May_06_1731,CategoryLocalizer,2021.2.3,59.919563976072,
107.8,108.0,5,0.0,Stimuli\Blank.png,0,0,0,169,169,169,,,,,,,,,,,,,107.82732240000041,0.02732240000041486,None,166.3062723999974,166.3062723999974,166.3062723999974,166.3062723999974,166.3062723999974,166.3062723999974,166.3062723999974,166.3062723999974,,002,P020,2025_May_06_1731,CategoryLocalizer,2021.2.3,59.919563976072,
108.0,108.8,1,0.75,Stimuli\ImageFiles-Set2\Objects\Object_Lawnmower_00001.png,0,0,0,170,170,170,,,,,,,,,,,,,108.0119532999961,0.011953299996093847,None,166.50645950000035,166.50645950000035,166.50645950000035,166.50645950000035,166.50645950000035,166.50645950000035,166.50645950000035,166.50645950000035,,002,P020,2025_May_06_1731,CategoryLocalizer,2021.2.3,59.919563976072,
108.8,109.0,5,0.0,Stimuli\Blank.png,0,0,0,171,171,171,,,,,,,,,,,,,108.82809909999924,0.02809909999923832,None,167.30715809999674,167.30715809999674,167.30715809999674,167.30715809999674,167.30715809999674,167.30715809999674,167.30715809999674,167.30715809999674,,002,P020,2025_May_06_1731,CategoryLocalizer,2021.2.3,59.919563976072,
109.0,109.8,1,0.75,Stimuli\ImageFiles-Set2\Objects\Object_Lawnmower_00001.png,1,1,0,172,172,172,,,,,,,,,,,,,109.01308789999894,0.013087899998936336,1,167.50733230000333,167.50733230000333,167.50733230000333,167.50733230000333,167.50733230000333,167.50733230000333,167.50733230000333,167.50733230000333,0.4295272000017576,002,P020,2025_May_06_1731,CategoryLocalizer,2021.2.3,59.919563976072,
109.8,110.0,5,0.0,Stimuli\Blank.png,0,0,0,173,173,173,,,,,,,,,,,,,109.83009239999956,0.03009239999956037,None,168.30804830000125,168.30804830000125,168.30804830000125,168.30804830000125,168.30804830000125,168.30804830000125,168.30804830000125,168.30804830000125,,002,P020,2025_May_06_1731,CategoryLocalizer,2021.2.3,59.919563976072,
110.0,110.8,1,0.75,Stimuli\ImageFiles-Set2\Objects\Object_Sponge_00001.png,0,0,0,174,174,174,,,,,,,,,,,,,110.01325029999862,0.013250299998617265,None,168.50821720000386,168.50821720000386,168.50821720000386,168.50821720000386,168.50821720000386,168.50821720000386,168.50821720000386,168.50821720000386,,002,P020,2025_May_06_1731,CategoryLocalizer,2021.2.3,59.919563976072,
110.8,111.0,5,0.0,Stimuli\Blank.png,0,0,0,175,175,175,,,,,,,,,,,,,110.83297609999863,0.03297609999863482,None,169.32562619999953,169.32562619999953,169.32562619999953,169.32562619999953,169.32562619999953,169.32562619999953,169.32562619999953,169.32562619999953,,002,P020,2025_May_06_1731,CategoryLocalizer,2021.2.3,59.919563976072,
111.0,111.8,1,0.75,Stimuli\ImageFiles-Set2\Objects\Object_Ladder_00001.png,0,0,0,176,176,176,,,,,,,,,,,,,111.01651750000019,0.01651750000019092,None,169.50918359999923,169.50918359999923,169.50918359999923,169.50918359999923,169.50918359999923,169.50918359999923,169.50918359999923,169.50918359999923,,002,P020,2025_May_06_1731,CategoryLocalizer,2021.2.3,59.919563976072,
111.8,112.0,5,0.0,Stimuli\Blank.png,0,0,0,177,177,177,,,,,,,,,,,,,111.81542729999637,0.015427299996375154,None,170.2931677000015,170.2931677000015,170.2931677000015,170.2931677000015,170.2931677000015,170.2931677000015,170.2931677000015,170.2931677000015,,002,P020,2025_May_06_1731,CategoryLocalizer,2021.2.3,59.919563976072,
112.0,112.8,1,0.75,Stimuli\ImageFiles-Set2\Objects\Object_WaterCooler_00001.png,0,0,0,178,178,178,,,,,,,,,,,,,112.01519130000088,0.015191300000878982,None,170.49333479999768,170.49333479999768,170.49333479999768,170.49333479999768,170.49333479999768,170.49333479999768,170.49333479999768,170.49333479999768,,002,P020,2025_May_06_1731,CategoryLocalizer,2021.2.3,59.919563976072,
112.8,113.0,5,0.0,Stimuli\Blank.png,0,0,0,179,179,179,,,,,,,,,,,,,112.79878699999972,-0.0012130000002770203,None,171.2773331999997,171.2773331999997,171.2773331999997,171.2773331999997,171.2773331999997,171.2773331999997,171.2773331999997,171.2773331999997,,002,P020,2025_May_06_1731,CategoryLocalizer,2021.2.3,59.919563976072,
113.0,113.8,1,0.75,Stimuli\ImageFiles-Set2\Objects\Object_Walker_00001.png,0,0,0,180,180,180,,,,,,,,,,,,,113.01628489999712,0.016284899997117463,None,171.51089209999918,171.51089209999918,171.51089209999918,171.51089209999918,171.51089209999918,171.51089209999918,171.51089209999918,171.51089209999918,,002,P020,2025_May_06_1731,CategoryLocalizer,2021.2.3,59.919563976072,
113.8,114.0,5,0.0,Stimuli\Blank.png,0,0,0,181,181,181,,,,,,,,,,,,,113.81647749999684,0.016477499996838674,None,172.2949077000012,172.2949077000012,172.2949077000012,172.2949077000012,172.2949077000012,172.2949077000012,172.2949077000012,172.2949077000012,,002,P020,2025_May_06_1731,CategoryLocalizer,2021.2.3,59.919563976072,
114.0,114.8,1,0.75,Stimuli\ImageFiles-Set2\Objects\Object_Truck_00001.png,0,0,0,182,182,182,,,,,,,,,,,,,113.99944509999477,-0.0005549000052269548,None,172.49508719999722,172.49508719999722,172.49508719999722,172.49508719999722,172.49508719999722,172.49508719999722,172.49508719999722,172.49508719999722,,002,P020,2025_May_06_1731,CategoryLocalizer,2021.2.3,59.919563976072,
114.8,115.0,5,0.0,Stimuli\Blank.png,0,0,0,183,183,183,,,,,,,,,,,,,114.8173483999999,0.017348399999903563,None,173.29578239999682,173.29578239999682,173.29578239999682,173.29578239999682,173.29578239999682,173.29578239999682,173.29578239999682,173.29578239999682,,002,P020,2025_May_06_1731,CategoryLocalizer,2021.2.3,59.919563976072,
115.0,115.8,1,0.75,Stimuli\ImageFiles-Set2\Objects\Object_Coffee_00001.png,0,0,0,184,184,184,,,,,,,,,,,,,115.0002239999958,0.00022399999579647556,None,173.47928610000235,173.47928610000235,173.47928610000235,173.47928610000235,173.47928610000235,173.47928610000235,173.47928610000235,173.47928610000235,,002,P020,2025_May_06_1731,CategoryLocalizer,2021.2.3,59.919563976072,
115.8,116.0,5,0.0,Stimuli\Blank.png,0,0,0,185,185,185,,,,,,,,,,,,,115.80175859999872,0.001758599998723298,None,174.27997940000205,174.27997940000205,174.27997940000205,174.27997940000205,174.27997940000205,174.27997940000205,174.27997940000205,174.27997940000205,,002,P020,2025_May_06_1731,CategoryLocalizer,2021.2.3,59.919563976072,
116.0,116.8,1,0.75,Stimuli\ImageFiles-Set2\Objects\Object_Shoe_00001.png,0,0,0,186,186,186,,,,,,,,,,,,,116.00116889999481,0.0011688999948091805,None,174.49687460000132,174.49687460000132,174.49687460000132,174.49687460000132,174.49687460000132,174.49687460000132,174.49687460000132,174.49687460000132,,002,P020,2025_May_06_1731,CategoryLocalizer,2021.2.3,59.919563976072,
116.8,117.0,5,0.0,Stimuli\Blank.png,0,0,0,187,187,187,,,,,,,,,,,,,116.81854369999928,0.018543699999284513,None,175.2975688000006,175.2975688000006,175.2975688000006,175.2975688000006,175.2975688000006,175.2975688000006,175.2975688000006,175.2975688000006,,002,P020,2025_May_06_1731,CategoryLocalizer,2021.2.3,59.919563976072,
117.0,117.8,1,0.75,Stimuli\ImageFiles-Set2\Objects\Object_Bicycle_00001.png,0,0,0,188,188,188,,,,,,,,,,,,,117.00212409999949,0.002124099999491591,None,175.4977601999999,175.4977601999999,175.4977601999999,175.4977601999999,175.4977601999999,175.4977601999999,175.4977601999999,175.4977601999999,,002,P020,2025_May_06_1731,CategoryLocalizer,2021.2.3,59.919563976072,
117.8,118.0,5,0.0,Stimuli\Blank.png,0,0,0,189,189,189,,,,,,,,,,,,,117.8199633999975,0.019963399997507736,None,176.29844589999993,176.29844589999993,176.29844589999993,176.29844589999993,176.29844589999993,176.29844589999993,176.29844589999993,176.29844589999993,,002,P020,2025_May_06_1731,CategoryLocalizer,2021.2.3,59.919563976072,
118.0,118.8,1,0.75,Stimuli\ImageFiles-Set2\Objects\Object_Fork_00001.png,0,0,0,190,190,190,,,,,,,,,,,,,118.00292919999629,0.0029291999962879345,None,176.49860159999662,176.49860159999662,176.49860159999662,176.49860159999662,176.49860159999662,176.49860159999662,176.49860159999662,176.49860159999662,,002,P020,2025_May_06_1731,CategoryLocalizer,2021.2.3,59.919563976072,
118.8,119.0,5,0.0,Stimuli\Blank.png,0,0,0,191,191,191,,,,,,,,,,,,,118.82170499999484,0.02170499999483866,None,177.29934030000004,177.29934030000004,177.29934030000004,177.29934030000004,177.29934030000004,177.29934030000004,177.29934030000004,177.29934030000004,,002,P020,2025_May_06_1731,CategoryLocalizer,2021.2.3,59.919563976072,
119.0,119.8,1,0.75,Stimuli\ImageFiles-Set2\Objects\Object_Dresser_00001.png,0,0,0,192,192,192,,,,,,,,,,,,,119.00479379999888,0.004793799998878967,None,177.49953500000265,177.49953500000265,177.49953500000265,177.49953500000265,177.49953500000265,177.49953500000265,177.49953500000265,177.49953500000265,,002,P020,2025_May_06_1731,CategoryLocalizer,2021.2.3,59.919563976072,
119.8,120.0,5,0.0,Stimuli\Blank.png,0,0,0,193,193,193,,,,,,,,,,,,,119.82118869999977,0.0211886999997688,None,178.3002223000003,178.3002223000003,178.3002223000003,178.3002223000003,178.3002223000003,178.3002223000003,178.3002223000003,178.3002223000003,,002,P020,2025_May_06_1731,CategoryLocalizer,2021.2.3,59.919563976072,
120.0,120.8,4,0.75,Stimuli\ImageFiles-Set2\Scenes\Scenes_094.png,0,0,0,194,194,194,,,,,,,,,,,,,120.00642839999637,0.006428399996366352,None,178.517079199999,178.517079199999,178.517079199999,178.517079199999,178.517079199999,178.517079199999,178.517079199999,178.517079199999,,002,P020,2025_May_06_1731,CategoryLocalizer,2021.2.3,59.919563976072,
120.8,121.0,5,0.0,Stimuli\Blank.png,0,0,0,195,195,195,,,,,,,,,,,,,120.84164469999814,0.041644699998144574,None,179.33449320000364,179.33449320000364,179.33449320000364,179.33449320000364,179.33449320000364,179.33449320000364,179.33449320000364,179.33449320000364,,002,P020,2025_May_06_1731,CategoryLocalizer,2021.2.3,59.919563976072,
121.0,121.8,4,0.75,Stimuli\ImageFiles-Set2\Scenes\Scenes_079.png,0,0,0,196,196,196,,,,,,,,,,,,,121.0223027999964,0.02230279999639606,None,179.53461809999862,179.53461809999862,179.53461809999862,179.53461809999862,179.53461809999862,179.53461809999862,179.53461809999862,179.53461809999862,,002,P020,2025_May_06_1731,CategoryLocalizer,2021.2.3,59.919563976072,
121.8,122.0,5,0.0,Stimuli\Blank.png,0,0,0,197,197,197,,,,,,,,,,,,,121.84014759999991,0.04014759999991213,None,180.3187126999983,180.3187126999983,180.3187126999983,180.3187126999983,180.3187126999983,180.3187126999983,180.3187126999983,180.3187126999983,,002,P020,2025_May_06_1731,CategoryLocalizer,2021.2.3,59.919563976072,
122.0,122.8,4,0.75,Stimuli\ImageFiles-Set2\Scenes\Scenes_079.png,1,1,0,198,198,198,,,,,,,,,,,,,122.00713520000136,0.007135200001357589,1,180.5021854000006,180.5021854000006,180.5021854000006,180.5021854000006,180.5021854000006,180.5021854000006,180.5021854000006,180.5021854000006,0.5726976000005379,002,P020,2025_May_06_1731,CategoryLocalizer,2021.2.3,59.919563976072,
122.8,123.0,5,0.0,Stimuli\Blank.png,0,0,0,199,199,199,,,,,,,,,,,,,122.82672279999679,0.02672279999679006,None,181.31956869999703,181.31956869999703,181.31956869999703,181.31956869999703,181.31956869999703,181.31956869999703,181.31956869999703,181.31956869999703,,002,P020,2025_May_06_1731,CategoryLocalizer,2021.2.3,59.919563976072,
123.0,123.8,4,0.75,Stimuli\ImageFiles-Set2\Scenes\Scenes_119.png,0,0,0,200,200,200,,,,,,,,,,,,,123.02415340000152,0.02415340000152355,None,181.5197229999976,181.5197229999976,181.5197229999976,181.5197229999976,181.5197229999976,181.5197229999976,181.5197229999976,181.5197229999976,,002,P020,2025_May_06_1731,CategoryLocalizer,2021.2.3,59.919563976072,
123.8,124.0,5,0.0,Stimuli\Blank.png,0,0,0,201,201,201,,,,,,,,,,,,,123.82643429999735,0.02643429999734792,None,182.32045389999985,182.32045389999985,182.32045389999985,182.32045389999985,182.32045389999985,182.32045389999985,182.32045389999985,182.32045389999985,,002,P020,2025_May_06_1731,CategoryLocalizer,2021.2.3,59.919563976072,
124.0,124.8,4,0.75,Stimuli\ImageFiles-Set2\Scenes\Scenes_062.png,0,0,0,202,202,202,,,,,,,,,,,,,124.02730049999809,0.027300499998091254,None,182.5206388000006,182.5206388000006,182.5206388000006,182.5206388000006,182.5206388000006,182.5206388000006,182.5206388000006,182.5206388000006,,002,P020,2025_May_06_1731,CategoryLocalizer,2021.2.3,59.919563976072,
124.8,125.0,5,0.0,Stimuli\Blank.png,0,0,0,203,203,203,,,,,,,,,,,,,124.82774519999657,0.027745199996573433,None,183.32132589999674,183.32132589999674,183.32132589999674,183.32132589999674,183.32132589999674,183.32132589999674,183.32132589999674,183.32132589999674,,002,P020,2025_May_06_1731,CategoryLocalizer,2021.2.3,59.919563976072,
125.0,125.8,4,0.75,Stimuli\ImageFiles-Set2\Scenes\Scenes_069.png,0,0,0,204,204,204,,,,,,,,,,,,,125.025827999998,0.02582799999800045,None,183.53821340000286,183.53821340000286,183.53821340000286,183.53821340000286,183.53821340000286,183.53821340000286,183.53821340000286,183.53821340000286,,002,P020,2025_May_06_1731,CategoryLocalizer,2021.2.3,59.919563976072,
125.8,126.0,5,0.0,Stimuli\Blank.png,0,0,0,205,205,205,,,,,,,,,,,,,125.84324629999901,0.043246299999012194,None,184.32221920000302,184.32221920000302,184.32221920000302,184.32221920000302,184.32221920000302,184.32221920000302,184.32221920000302,184.32221920000302,,002,P020,2025_May_06_1731,CategoryLocalizer,2021.2.3,59.919563976072,
126.0,126.8,4,0.75,Stimuli\ImageFiles-Set2\Scenes\Scenes_096.png,0,0,0,206,206,206,,,,,,,,,,,,,126.010463599996,0.010463599996000994,None,184.50571250000212,184.50571250000212,184.50571250000212,184.50571250000212,184.50571250000212,184.50571250000212,184.50571250000212,184.50571250000212,,002,P020,2025_May_06_1731,CategoryLocalizer,2021.2.3,59.919563976072,
126.8,127.0,5,0.0,Stimuli\Blank.png,0,0,0,207,207,207,,,,,,,,,,,,,126.82748580000043,0.027485800000434324,None,185.30641409999953,185.30641409999953,185.30641409999953,185.30641409999953,185.30641409999953,185.30641409999953,185.30641409999953,185.30641409999953,,002,P020,2025_May_06_1731,CategoryLocalizer,2021.2.3,59.919563976072,
127.0,127.8,4,0.75,Stimuli\ImageFiles-Set2\Scenes\Scenes_107.png,0,0,0,208,208,208,,,,,,,,,,,,,127.01163369999995,0.011633699999947567,None,185.5066044999985,185.5066044999985,185.5066044999985,185.5066044999985,185.5066044999985,185.5066044999985,185.5066044999985,185.5066044999985,,002,P020,2025_May_06_1731,CategoryLocalizer,2021.2.3,59.919563976072,
127.8,128.0,5,0.0,Stimuli\Blank.png,0,0,0,209,209,209,,,,,,,,,,,,,127.82893789999798,0.028937899997984573,None,186.30729699999938,186.30729699999938,186.30729699999938,186.30729699999938,186.30729699999938,186.30729699999938,186.30729699999938,186.30729699999938,,002,P020,2025_May_06_1731,CategoryLocalizer,2021.2.3,59.919563976072,
128.0,128.8,4,0.75,Stimuli\ImageFiles-Set2\Scenes\Scenes_097.png,1,1,0,210,210,210,,,,,,,,,,,,,128.01168340000004,0.011683400000038091,None,186.50749319999886,186.50749319999886,186.50749319999886,186.50749319999886,186.50749319999886,186.50749319999886,186.50749319999886,186.50749319999886,,002,P020,2025_May_06_1731,CategoryLocalizer,2021.2.3,59.919563976072,
128.8,129.0,5,0.0,Stimuli\Blank.png,0,0,0,211,211,211,,,,,,,,,,,,,128.8324988999957,0.032498899995687225,None,187.32489139999961,187.32489139999961,187.32489139999961,187.32489139999961,187.32489139999961,187.32489139999961,187.32489139999961,187.32489139999961,,002,P020,2025_May_06_1731,CategoryLocalizer,2021.2.3,59.919563976072,
129.0,129.8,4,0.75,Stimuli\ImageFiles-Set2\Scenes\Scenes_111.png,0,0,0,212,212,212,,,,,,,,,,,,,129.01354659999924,0.01354659999924479,None,187.50835650000226,187.50835650000226,187.50835650000226,187.50835650000226,187.50835650000226,187.50835650000226,187.50835650000226,187.50835650000226,,002,P020,2025_May_06_1731,CategoryLocalizer,2021.2.3,59.919563976072,
129.8,130.0,5,0.0,Stimuli\Blank.png,0,0,0,213,213,213,,,,,,,,,,,,,129.83017709999694,0.03017709999693352,None,188.30907999999908,188.30907999999908,188.30907999999908,188.30907999999908,188.30907999999908,188.30907999999908,188.30907999999908,188.30907999999908,,002,P020,2025_May_06_1731,CategoryLocalizer,2021.2.3,59.919563976072,
130.0,130.8,4,0.75,Stimuli\ImageFiles-Set2\Scenes\Scenes_111.png,0,0,0,214,214,214,,,,,,,,,,,,,130.0140070999987,0.014007099998707417,1,188.50924939999823,188.50924939999823,188.50924939999823,188.50924939999823,188.50924939999823,188.50924939999823,188.50924939999823,188.50924939999823,0.5915917000020272,002,P020,2025_May_06_1731,CategoryLocalizer,2021.2.3,59.919563976072,
130.8,131.0,5,0.0,Stimuli\Blank.png,0,0,0,215,215,215,,,,,,,,,,,,,130.8312272999974,0.03122729999739704,None,189.30995059999987,189.30995059999987,189.30995059999987,189.30995059999987,189.30995059999987,189.30995059999987,189.30995059999987,189.30995059999987,,002,P020,2025_May_06_1731,CategoryLocalizer,2021.2.3,59.919563976072,
131.0,131.8,4,0.75,Stimuli\ImageFiles-Set2\Scenes\Scenes_108.png,0,0,0,216,216,216,,,,,,,,,,,,,131.0148319,0.014831899999990128,None,189.51013989999774,189.51013989999774,189.51013989999774,189.51013989999774,189.51013989999774,189.51013989999774,189.51013989999774,189.51013989999774,,002,P020,2025_May_06_1731,CategoryLocalizer,2021.2.3,59.919563976072,
131.8,132.0,5,0.0,Stimuli\Blank.png,0,0,0,217,217,217,,,,,,,,,,,,,131.83270159999665,0.03270159999664202,None,190.31086669999786,190.31086669999786,190.31086669999786,190.31086669999786,190.31086669999786,190.31086669999786,190.31086669999786,190.31086669999786,,002,P020,2025_May_06_1731,CategoryLocalizer,2021.2.3,59.919563976072,
132.0,132.8,4,0.75,Stimuli\ImageFiles-Set2\Scenes\Scenes_104.png,0,0,0,218,218,218,,,,,,,,,,,,,132.0015218999979,0.0015218999978969805,None,190.511013299998,190.511013299998,190.511013299998,190.511013299998,190.511013299998,190.511013299998,190.511013299998,190.511013299998,,002,P020,2025_May_06_1731,CategoryLocalizer,2021.2.3,59.919563976072,
132.8,133.0,5,0.0,Stimuli\Blank.png,0,0,0,219,219,219,,,,,,,,,,,,,132.83277709999675,0.032777099996735615,None,191.31172469999728,191.31172469999728,191.31172469999728,191.31172469999728,191.31172469999728,191.31172469999728,191.31172469999728,191.31172469999728,,002,P020,2025_May_06_1731,CategoryLocalizer,2021.2.3,59.919563976072,
133.0,133.8,4,0.75,Stimuli\ImageFiles-Set2\Scenes\Scenes_098.png,0,0,0,220,220,220,,,,,,,,,,,,,133.00166080000054,0.0016608000005362555,None,191.5119124999983,191.5119124999983,191.5119124999983,191.5119124999983,191.5119124999983,191.5119124999983,191.5119124999983,191.5119124999983,,002,P020,2025_May_06_1731,CategoryLocalizer,2021.2.3,59.919563976072,
133.8,134.0,5,0.0,Stimuli\Blank.png,0,0,0,221,221,221,,,,,,,,,,,,,133.8337171999956,0.03371719999557854,None,192.31261480000103,192.31261480000103,192.31261480000103,192.31261480000103,192.31261480000103,192.31261480000103,192.31261480000103,192.31261480000103,,002,P020,2025_May_06_1731,CategoryLocalizer,2021.2.3,59.919563976072,
134.0,134.8,4,0.75,Stimuli\ImageFiles-Set2\Scenes\Scenes_087.png,0,0,0,222,222,222,,,,,,,,,,,,,134.00191619999532,0.0019161999953212216,None,192.49611240000377,192.49611240000377,192.49611240000377,192.49611240000377,192.49611240000377,192.49611240000377,192.49611240000377,192.49611240000377,,002,P020,2025_May_06_1731,CategoryLocalizer,2021.2.3,59.919563976072,
134.8,135.0,5,0.0,Stimuli\Blank.png,0,0,0,223,223,223,,,,,,,,,,,,,134.8185192999954,0.018519299995375604,None,193.29683710000245,193.29683710000245,193.29683710000245,193.29683710000245,193.29683710000245,193.29683710000245,193.29683710000245,193.29683710000245,,002,P020,2025_May_06_1731,CategoryLocalizer,2021.2.3,59.919563976072,
135.0,135.8,4,0.75,Stimuli\ImageFiles-Set2\Scenes\Scenes_090.png,0,0,0,224,224,224,,,,,,,,,,,,,135.0019306999966,0.0019306999965920113,None,193.51367749999918,193.51367749999918,193.51367749999918,193.51367749999918,193.51367749999918,193.51367749999918,193.51367749999918,193.51367749999918,,002,P020,2025_May_06_1731,CategoryLocalizer,2021.2.3,59.919563976072,
135.8,136.0,5,0.0,Stimuli\Blank.png,0,0,0,225,225,225,,,,,,,,,,,,,135.83532230000128,0.035322300001269014,None,194.3144248000026,194.3144248000026,194.3144248000026,194.3144248000026,194.3144248000026,194.3144248000026,194.3144248000026,194.3144248000026,,002,P020,2025_May_06_1731,CategoryLocalizer,2021.2.3,59.919563976072,
136.0,136.8,2,0.75,Stimuli\ImageFiles-Set2\Bodies\Bodies_Walking_00005.png,0,0,0,226,226,226,,,,,,,,,,,,,136.0023285999996,0.0023285999996005557,None,194.48119379999844,194.48119379999844,194.48119379999844,194.48119379999844,194.48119379999844,194.48119379999844,194.48119379999844,194.48119379999844,,002,P020,2025_May_06_1731,CategoryLocalizer,2021.2.3,59.919563976072,
136.8,137.0,5,0.0,Stimuli\Blank.png,0,0,0,227,227,227,,,,,,,,,,,,,136.8029521999997,0.0029521999996973136,None,195.28190819999872,195.28190819999872,195.28190819999872,195.28190819999872,195.28190819999872,195.28190819999872,195.28190819999872,195.28190819999872,,002,P020,2025_May_06_1731,CategoryLocalizer,2021.2.3,59.919563976072,
137.0,137.8,2,0.75,Stimuli\ImageFiles-Set2\Bodies\Bodies_Crawling_00004.png,0,0,0,228,228,228,,,,,,,,,,,,,137.00366190000204,0.0036619000020436943,None,195.49881569999707,195.49881569999707,195.49881569999707,195.49881569999707,195.49881569999707,195.49881569999707,195.49881569999707,195.49881569999707,,002,P020,2025_May_06_1731,CategoryLocalizer,2021.2.3,59.919563976072,
137.8,138.0,5,0.0,Stimuli\Blank.png,0,0,0,229,229,229,,,,,,,,,,,,,137.82110809999722,0.021108099997206864,None,196.2994766999982,196.2994766999982,196.2994766999982,196.2994766999982,196.2994766999982,196.2994766999982,196.2994766999982,196.2994766999982,,002,P020,2025_May_06_1731,CategoryLocalizer,2021.2.3,59.919563976072,
138.0,138.8,2,0.75,Stimuli\ImageFiles-Set2\Bodies\Bodies_Walking_00007.png,0,0,0,230,230,230,,,,,,,,,,,,,138.00457050000114,0.004570500001136679,None,196.4996656000003,196.4996656000003,196.4996656000003,196.4996656000003,196.4996656000003,196.4996656000003,196.4996656000003,196.4996656000003,,002,P020,2025_May_06_1731,CategoryLocalizer,2021.2.3,59.919563976072,
138.8,139.0,5,0.0,Stimuli\Blank.png,0,0,0,231,231,231,,,,,,,,,,,,,138.82247839999764,0.02247839999762391,None,197.30050160000246,197.30050160000246,197.30050160000246,197.30050160000246,197.30050160000246,197.30050160000246,197.30050160000246,197.30050160000246,,002,P020,2025_May_06_1731,CategoryLocalizer,2021.2.3,59.919563976072,
139.0,139.8,2,0.75,Stimuli\ImageFiles-Set2\Bodies\Bodies_Punching_00002.png,0,0,0,232,232,232,,,,,,,,,,,,,139.00696130000142,0.006961300001421478,None,197.5005347999977,197.5005347999977,197.5005347999977,197.5005347999977,197.5005347999977,197.5005347999977,197.5005347999977,197.5005347999977,,002,P020,2025_May_06_1731,CategoryLocalizer,2021.2.3,59.919563976072,
139.8,140.0,5,0.0,Stimuli\Blank.png,0,0,0,233,233,233,,,,,,,,,,,,,139.82221109999955,0.022211099999537964,None,198.3012447000001,198.3012447000001,198.3012447000001,198.3012447000001,198.3012447000001,198.3012447000001,198.3012447000001,198.3012447000001,,002,P020,2025_May_06_1731,CategoryLocalizer,2021.2.3,59.919563976072,
140.0,140.8,2,0.75,Stimuli\ImageFiles-Set2\Bodies\Bodies_DownwardDog_00004.png,0,0,0,234,234,234,,,,,,,,,,,,,140.00638649999746,0.006386499997461215,None,198.50144949999958,198.50144949999958,198.50144949999958,198.50144949999958,198.50144949999958,198.50144949999958,198.50144949999958,198.50144949999958,,002,P020,2025_May_06_1731,CategoryLocalizer,2021.2.3,59.919563976072,
140.8,141.0,5,0.0,Stimuli\Blank.png,0,0,0,235,235,235,,,,,,,,,,,,,140.82305639999686,0.02305639999684672,None,199.30213840000215,199.30213840000215,199.30213840000215,199.30213840000215,199.30213840000215,199.30213840000215,199.30213840000215,199.30213840000215,,002,P020,2025_May_06_1731,CategoryLocalizer,2021.2.3,59.919563976072,
141.0,141.8,2,0.75,Stimuli\ImageFiles-Set2\Bodies\Bodies_Jumping_00001.png,0,0,0,236,236,236,,,,,,,,,,,,,141.0073085999975,0.0073085999974864535,None,199.51899660000345,199.51899660000345,199.51899660000345,199.51899660000345,199.51899660000345,199.51899660000345,199.51899660000345,199.51899660000345,,002,P020,2025_May_06_1731,CategoryLocalizer,2021.2.3,59.919563976072,
141.8,142.0,5,0.0,Stimuli\Blank.png,0,0,0,237,237,237,,,,,,,,,,,,,141.84131119999802,0.04131119999800603,None,200.31970130000263,200.31970130000263,200.31970130000263,200.31970130000263,200.31970130000263,200.31970130000263,200.31970130000263,200.31970130000263,,002,P020,2025_May_06_1731,CategoryLocalizer,2021.2.3,59.919563976072,
142.0,142.8,2,0.75,Stimuli\ImageFiles-Set2\Bodies\Bodies_Punching_00007.png,0,0,0,238,238,238,,,,,,,,,,,,,142.00796740000078,0.00796740000077989,None,200.50326179999684,200.50326179999684,200.50326179999684,200.50326179999684,200.50326179999684,200.50326179999684,200.50326179999684,200.50326179999684,,002,P020,2025_May_06_1731,CategoryLocalizer,2021.2.3,59.919563976072,
142.8,143.0,5,0.0,Stimuli\Blank.png,0,0,0,239,239,239,,,,,,,,,,,,,142.82772349999868,0.02772349999867174,None,201.3205885999996,201.3205885999996,201.3205885999996,201.3205885999996,201.3205885999996,201.3205885999996,201.3205885999996,201.3205885999996,,002,P020,2025_May_06_1731,CategoryLocalizer,2021.2.3,59.919563976072,
143.0,143.8,2,0.75,Stimuli\ImageFiles-Set2\Bodies\Bodies_SittingFloor_00001.png,0,0,0,240,240,240,,,,,,,,,,,,,143.02578039999935,0.025780399999348447,None,201.5207803000012,201.5207803000012,201.5207803000012,201.5207803000012,201.5207803000012,201.5207803000012,201.5207803000012,201.5207803000012,,002,P020,2025_May_06_1731,CategoryLocalizer,2021.2.3,59.919563976072,
143.8,144.0,5,0.0,Stimuli\Blank.png,0,0,0,241,241,241,,,,,,,,,,,,,143.82612199999858,0.02612199999856557,None,202.30479670000204,202.30479670000204,202.30479670000204,202.30479670000204,202.30479670000204,202.30479670000204,202.30479670000204,202.30479670000204,,002,P020,2025_May_06_1731,CategoryLocalizer,2021.2.3,59.919563976072,
144.0,144.8,2,0.75,Stimuli\ImageFiles-Set2\Bodies\Bodies_Crawling_00007.png,0,0,0,242,242,242,,,,,,,,,,,,,144.01023939999868,0.01023939999868162,None,202.5050409999967,202.5050409999967,202.5050409999967,202.5050409999967,202.5050409999967,202.5050409999967,202.5050409999967,202.5050409999967,,002,P020,2025_May_06_1731,CategoryLocalizer,2021.2.3,59.919563976072,
144.8,145.0,5,0.0,Stimuli\Blank.png,0,0,0,243,243,243,,,,,,,,,,,,,144.82668649999687,0.026686499996856128,None,203.30568060000223,203.30568060000223,203.30568060000223,203.30568060000223,203.30568060000223,203.30568060000223,203.30568060000223,203.30568060000223,,002,P020,2025_May_06_1731,CategoryLocalizer,2021.2.3,59.919563976072,
145.0,145.8,2,0.75,Stimuli\ImageFiles-Set2\Bodies\Bodies_Kicking_00004.png,0,0,0,244,244,244,,,,,,,,,,,,,145.01155049999943,0.01155049999943003,None,203.50585539999884,203.50585539999884,203.50585539999884,203.50585539999884,203.50585539999884,203.50585539999884,203.50585539999884,203.50585539999884,,002,P020,2025_May_06_1731,CategoryLocalizer,2021.2.3,59.919563976072,
145.8,146.0,5,0.0,Stimuli\Blank.png,0,0,0,245,245,245,,,,,,,,,,,,,145.82834079999884,0.02834079999882988,None,204.3065551000036,204.3065551000036,204.3065551000036,204.3065551000036,204.3065551000036,204.3065551000036,204.3065551000036,204.3065551000036,,002,P020,2025_May_06_1731,CategoryLocalizer,2021.2.3,59.919563976072,
146.0,146.8,2,0.75,Stimuli\ImageFiles-Set2\Bodies\Bodies_Hanging_00005.png,0,0,0,246,246,246,,,,,,,,,,,,,146.01254730000073,0.01254730000073323,None,204.5067493000024,204.5067493000024,204.5067493000024,204.5067493000024,204.5067493000024,204.5067493000024,204.5067493000024,204.5067493000024,,002,P020,2025_May_06_1731,CategoryLocalizer,2021.2.3,59.919563976072,
146.8,147.0,5,0.0,Stimuli\Blank.png,0,0,0,247,247,247,,,,,,,,,,,,,146.82921389999683,0.029213899996818782,None,205.30751880000025,205.30751880000025,205.30751880000025,205.30751880000025,205.30751880000025,205.30751880000025,205.30751880000025,205.30751880000025,,002,P020,2025_May_06_1731,CategoryLocalizer,2021.2.3,59.919563976072,
147.0,147.8,2,0.75,Stimuli\ImageFiles-Set2\Bodies\Bodies_Hanging_00001.png,0,0,0,248,248,248,,,,,,,,,,,,,147.01272700000118,0.012727000001177657,None,205.5076368000009,205.5076368000009,205.5076368000009,205.5076368000009,205.5076368000009,205.5076368000009,205.5076368000009,205.5076368000009,,002,P020,2025_May_06_1731,CategoryLocalizer,2021.2.3,59.919563976072,
147.8,148.0,5,0.0,Stimuli\Blank.png,0,0,0,249,249,249,,,,,,,,,,,,,147.83102700000018,0.031027000000165117,None,206.30834609999874,206.30834609999874,206.30834609999874,206.30834609999874,206.30834609999874,206.30834609999874,206.30834609999874,206.30834609999874,,002,P020,2025_May_06_1731,CategoryLocalizer,2021.2.3,59.919563976072,
148.0,148.8,2,0.75,Stimuli\ImageFiles-Set2\Bodies\Bodies_Hanging_00001.png,1,1,0,250,250,250,,,,,,,,,,,,,148.01331950000167,0.013319500001671258,None,206.49182570000266,206.49182570000266,206.49182570000266,206.49182570000266,206.49182570000266,206.49182570000266,206.49182570000266,206.49182570000266,,002,P020,2025_May_06_1731,CategoryLocalizer,2021.2.3,59.919563976072,
148.8,149.0,5,0.0,Stimuli\Blank.png,0,0,0,251,251,251,,,,,,,,,,,,,148.81356609999784,0.013566099997831316,None,207.29256989999703,207.29256989999703,207.29256989999703,207.29256989999703,207.29256989999703,207.29256989999703,207.29256989999703,207.29256989999703,,002,P020,2025_May_06_1731,CategoryLocalizer,2021.2.3,59.919563976072,
149.0,149.8,2,0.75,Stimuli\ImageFiles-Set2\Bodies\Bodies_Running_00003.png,0,0,0,252,252,252,,,,,,,,,,,,,149.01368640000146,0.013686400001461152,None,207.49270529999922,207.49270529999922,207.49270529999922,207.49270529999922,207.49270529999922,207.49270529999922,207.49270529999922,207.49270529999922,,002,P020,2025_May_06_1731,CategoryLocalizer,2021.2.3,59.919563976072,
149.8,150.0,5,0.0,Stimuli\Blank.png,0,0,0,253,253,253,,,,,,,,,,,,,149.81530599999678,0.015305999996769515,None,208.2934613000034,208.2934613000034,208.2934613000034,208.2934613000034,208.2934613000034,208.2934613000034,208.2934613000034,208.2934613000034,,002,P020,2025_May_06_1731,CategoryLocalizer,2021.2.3,59.919563976072,
150.0,150.8,2,0.75,Stimuli\ImageFiles-Set2\Bodies\Bodies_SittingFloor_00006.png,0,0,0,254,254,254,,,,,,,,,,,,,150.01715619999595,0.017156199995952193,None,208.51028560000123,208.51028560000123,208.51028560000123,208.51028560000123,208.51028560000123,208.51028560000123,208.51028560000123,208.51028560000123,,002,P020,2025_May_06_1731,CategoryLocalizer,2021.2.3,59.919563976072,
150.8,151.0,5,0.0,Stimuli\Blank.png,0,0,0,255,255,255,,,,,,,,,,,,,150.81624659999943,0.016246599999419686,None,209.29431309999927,209.29431309999927,209.29431309999927,209.29431309999927,209.29431309999927,209.29431309999927,209.29431309999927,209.29431309999927,,002,P020,2025_May_06_1731,CategoryLocalizer,2021.2.3,59.919563976072,
151.0,151.8,2,0.75,Stimuli\ImageFiles-Set2\Bodies\Bodies_Running_00001.png,0,0,0,256,256,256,,,,,,,,,,,,,151.00132769999618,0.0013276999961817637,None,209.5111917000031,209.5111917000031,209.5111917000031,209.5111917000031,209.5111917000031,209.5111917000031,209.5111917000031,209.5111917000031,,002,P020,2025_May_06_1731,CategoryLocalizer,2021.2.3,59.919563976072,
151.8,152.0,5,0.0,Stimuli\Blank.png,0,0,0,257,257,257,,,,,,,,,,,,,151.83341780000046,0.033417800000449915,None,210.31188999999722,210.31188999999722,210.31188999999722,210.31188999999722,210.31188999999722,210.31188999999722,210.31188999999722,210.31188999999722,,002,P020,2025_May_06_1731,CategoryLocalizer,2021.2.3,59.919563976072,
152.0,164.0,0,0.0,Stimuli\Blank.png,0,0,0,258,258,258,,,,,,,,,,,,,151.99972569999954,-0.00027430000045569614,None,210.47876350000297,210.47876350000297,210.47876350000297,210.47876350000297,210.47876350000297,210.47876350000297,210.47876350000297,210.47876350000297,,002,P020,2025_May_06_1731,CategoryLocalizer,2021.2.3,59.919563976072,
164.0,164.8,4,0.75,Stimuli\ImageFiles-Set2\Scenes\Scenes_063.png,0,0,0,259,259,259,,,,,,,,,,,,,164.01117910000175,0.011179100001754705,None,222.50599820000207,222.50599820000207,222.50599820000207,222.50599820000207,222.50599820000207,222.50599820000207,222.50599820000207,222.50599820000207,,002,P020,2025_May_06_1731,CategoryLocalizer,2021.2.3,59.919563976072,
164.8,165.0,5,0.0,Stimuli\Blank.png,0,0,0,260,260,260,,,,,,,,,,,,,164.8283991999997,0.028399199999682878,None,223.30669599999965,223.30669599999965,223.30669599999965,223.30669599999965,223.30669599999965,223.30669599999965,223.30669599999965,223.30669599999965,,002,P020,2025_May_06_1731,CategoryLocalizer,2021.2.3,59.919563976072,
165.0,165.8,4,0.75,Stimuli\ImageFiles-Set2\Scenes\Scenes_077.png,0,0,0,261,261,261,,,,,,,,,,,,,165.01169449999725,0.011694499997247476,None,223.5235704000006,223.5235704000006,223.5235704000006,223.5235704000006,223.5235704000006,223.5235704000006,223.5235704000006,223.5235704000006,,002,P020,2025_May_06_1731,CategoryLocalizer,2021.2.3,59.919563976072,
165.8,166.0,5,0.0,Stimuli\Blank.png,0,0,0,262,262,262,,,,,,,,,,,,,165.84596099999908,0.04596099999906755,None,224.32428020000225,224.32428020000225,224.32428020000225,224.32428020000225,224.32428020000225,224.32428020000225,224.32428020000225,224.32428020000225,,002,P020,2025_May_06_1731,CategoryLocalizer,2021.2.3,59.919563976072,
166.0,166.8,4,0.75,Stimuli\ImageFiles-Set2\Scenes\Scenes_103.png,0,0,0,263,263,263,,,,,,,,,,,,,166.01293019999866,0.012930199998663738,None,224.5077667000005,224.5077667000005,224.5077667000005,224.5077667000005,224.5077667000005,224.5077667000005,224.5077667000005,224.5077667000005,,002,P020,2025_May_06_1731,CategoryLocalizer,2021.2.3,59.919563976072,
166.8,167.0,5,0.0,Stimuli\Blank.png,0,0,0,264,264,264,,,,,,,,,,,,,166.83157629999914,0.0315762999991307,None,225.32518400000117,225.32518400000117,225.32518400000117,225.32518400000117,225.32518400000117,225.32518400000117,225.32518400000117,225.32518400000117,,002,P020,2025_May_06_1731,CategoryLocalizer,2021.2.3,59.919563976072,
167.0,167.8,4,0.75,Stimuli\ImageFiles-Set2\Scenes\Scenes_091.png,0,0,0,265,265,265,,,,,,,,,,,,,167.03051340000093,0.030513400000927504,None,225.5253534000003,225.5253534000003,225.5253534000003,225.5253534000003,225.5253534000003,225.5253534000003,225.5253534000003,225.5253534000003,,002,P020,2025_May_06_1731,CategoryLocalizer,2021.2.3,59.919563976072,
167.8,168.0,5,0.0,Stimuli\Blank.png,0,0,0,266,266,266,,,,,,,,,,,,,167.83176059999823,0.031760599998222006,None,226.3093641000014,226.3093641000014,226.3093641000014,226.3093641000014,226.3093641000014,226.3093641000014,226.3093641000014,226.3093641000014,,002,P020,2025_May_06_1731,CategoryLocalizer,2021.2.3,59.919563976072,
168.0,168.8,4,0.75,Stimuli\ImageFiles-Set2\Scenes\Scenes_081.png,0,0,0,267,267,267,,,,,,,,,,,,,168.01686830000108,0.01686830000107875,None,226.52622150000389,226.52622150000389,226.52622150000389,226.52622150000389,226.52622150000389,226.52622150000389,226.52622150000389,226.52622150000389,,002,P020,2025_May_06_1731,CategoryLocalizer,2021.2.3,59.919563976072,
168.8,169.0,5,0.0,Stimuli\Blank.png,0,0,0,268,268,268,,,,,,,,,,,,,168.83250089999638,0.032500899996364296,None,227.31024730000354,227.31024730000354,227.31024730000354,227.31024730000354,227.31024730000354,227.31024730000354,227.31024730000354,227.31024730000354,,002,P020,2025_May_06_1731,CategoryLocalizer,2021.2.3,59.919563976072,
169.0,169.8,4,0.75,Stimuli\ImageFiles-Set2\Scenes\Scenes_112.png,0,0,0,269,269,269,,,,,,,,,,,,,168.9986157999956,-0.0013842000043950975,None,227.4770564999999,227.4770564999999,227.4770564999999,227.4770564999999,227.4770564999999,227.4770564999999,227.4770564999999,227.4770564999999,,002,P020,2025_May_06_1731,CategoryLocalizer,2021.2.3,59.919563976072,
169.8,170.0,5,0.0,Stimuli\Blank.png,0,0,0,270,270,270,,,,,,,,,,,,,169.79880299999786,-0.0011970000021506166,None,228.27777400000195,228.27777400000195,228.27777400000195,228.27777400000195,228.27777400000195,228.27777400000195,228.27777400000195,228.27777400000195,,002,P020,2025_May_06_1731,CategoryLocalizer,2021.2.3,59.919563976072,
170.0,170.8,4,0.75,Stimuli\ImageFiles-Set2\Scenes\Scenes_112.png,1,1,0,271,271,271,,,,,,,,,,,,,170.01634779999586,0.016347799995855894,1,228.51130959999864,228.51130959999864,228.51130959999864,228.51130959999864,228.51130959999864,228.51130959999864,228.51130959999864,228.51130959999864,0.37963160000072094,002,P020,2025_May_06_1731,CategoryLocalizer,2021.2.3,59.919563976072,
170.8,171.0,5,0.0,Stimuli\Blank.png,0,0,0,272,272,272,,,,,,,,,,,,,170.81647240000166,0.016472400001646292,None,229.2953450999994,229.2953450999994,229.2953450999994,229.2953450999994,229.2953450999994,229.2953450999994,229.2953450999994,229.2953450999994,,002,P020,2025_May_06_1731,CategoryLocalizer,2021.2.3,59.919563976072,
171.0,171.8,4,0.75,Stimuli\ImageFiles-Set2\Scenes\Scenes_100.png,0,0,0,273,273,273,,,,,,,,,,,,,171.00311829999555,0.003118299995549023,None,229.49550720000116,229.49550720000116,229.49550720000116,229.49550720000116,229.49550720000116,229.49550720000116,229.49550720000116,229.49550720000116,,002,P020,2025_May_06_1731,CategoryLocalizer,2021.2.3,59.919563976072,
171.8,172.0,5,0.0,Stimuli\Blank.png,0,0,0,274,274,274,,,,,,,,,,,,,171.81770949999918,0.01770949999917093,None,230.296242299999,230.296242299999,230.296242299999,230.296242299999,230.296242299999,230.296242299999,230.296242299999,230.296242299999,,002,P020,2025_May_06_1731,CategoryLocalizer,2021.2.3,59.919563976072,
172.0,172.8,4,0.75,Stimuli\ImageFiles-Set2\Scenes\Scenes_070.png,0,0,0,275,275,275,,,,,,,,,,,,,172.00088449999748,0.0008844999974826351,None,230.5131251999992,230.5131251999992,230.5131251999992,230.5131251999992,230.5131251999992,230.5131251999992,230.5131251999992,230.5131251999992,,002,P020,2025_May_06_1731,CategoryLocalizer,2021.2.3,59.919563976072,
172.8,173.0,5,0.0,Stimuli\Blank.png,0,0,0,276,276,276,,,,,,,,,,,,,172.83483500000148,0.03483500000146478,None,231.31379420000303,231.31379420000303,231.31379420000303,231.31379420000303,231.31379420000303,231.31379420000303,231.31379420000303,231.31379420000303,,002,P020,2025_May_06_1731,CategoryLocalizer,2021.2.3,59.919563976072,
173.0,173.8,4,0.75,Stimuli\ImageFiles-Set2\Scenes\Scenes_065.png,0,0,0,277,277,277,,,,,,,,,,,,,173.00221439999586,0.002214399995864369,None,231.5139771000031,231.5139771000031,231.5139771000031,231.5139771000031,231.5139771000031,231.5139771000031,231.5139771000031,231.5139771000031,,002,P020,2025_May_06_1731,CategoryLocalizer,2021.2.3,59.919563976072,
173.8,174.0,5,0.0,Stimuli\Blank.png,0,0,0,278,278,278,,,,,,,,,,,,,173.83722470000066,0.03722470000064959,None,232.31470750000153,232.31470750000153,232.31470750000153,232.31470750000153,232.31470750000153,232.31470750000153,232.31470750000153,232.31470750000153,,002,P020,2025_May_06_1731,CategoryLocalizer,2021.2.3,59.919563976072,
174.0,174.8,4,0.75,Stimuli\ImageFiles-Set2\Scenes\Scenes_068.png,0,0,0,279,279,279,,,,,,,,,,,,,174.00319930000114,0.0031993000011425465,None,232.49821209999936,232.49821209999936,232.49821209999936,232.49821209999936,232.49821209999936,232.49821209999936,232.49821209999936,232.49821209999936,,002,P020,2025_May_06_1731,CategoryLocalizer,2021.2.3,59.919563976072,
174.8,175.0,5,0.0,Stimuli\Blank.png,0,0,0,280,280,280,,,,,,,,,,,,,174.82232579999982,0.02232579999980544,None,233.3157160999981,233.3157160999981,233.3157160999981,233.3157160999981,233.3157160999981,233.3157160999981,233.3157160999981,233.3157160999981,,002,P020,2025_May_06_1731,CategoryLocalizer,2021.2.3,59.919563976072,
175.0,175.8,4,0.75,Stimuli\ImageFiles-Set2\Scenes\Scenes_067.png,0,0,0,281,281,281,,,,,,,,,,,,,175.02135879999696,0.021358799996960443,None,233.53254469999956,233.53254469999956,233.53254469999956,233.53254469999956,233.53254469999956,233.53254469999956,233.53254469999956,233.53254469999956,,002,P020,2025_May_06_1731,CategoryLocalizer,2021.2.3,59.919563976072,
175.8,176.0,5,0.0,Stimuli\Blank.png,0,0,0,282,282,282,,,,,,,,,,,,,175.8374021999989,0.03740219999889405,None,234.31644110000343,234.31644110000343,234.31644110000343,234.31644110000343,234.31644110000343,234.31644110000343,234.31644110000343,234.31644110000343,,002,P020,2025_May_06_1731,CategoryLocalizer,2021.2.3,59.919563976072,
176.0,176.8,4,0.75,Stimuli\ImageFiles-Set2\Scenes\Scenes_088.png,0,0,0,283,283,283,,,,,,,,,,,,,176.00420270000177,0.004202700001769699,None,234.48325309999927,234.48325309999927,234.48325309999927,234.48325309999927,234.48325309999927,234.48325309999927,234.48325309999927,234.48325309999927,,002,P020,2025_May_06_1731,CategoryLocalizer,2021.2.3,59.919563976072,
176.8,177.0,5,0.0,Stimuli\Blank.png,0,0,0,284,284,284,,,,,,,,,,,,,176.80487749999884,0.004877499998826806,None,235.28396400000202,235.28396400000202,235.28396400000202,235.28396400000202,235.28396400000202,235.28396400000202,235.28396400000202,235.28396400000202,,002,P020,2025_May_06_1731,CategoryLocalizer,2021.2.3,59.919563976072,
177.0,177.8,4,0.75,Stimuli\ImageFiles-Set2\Scenes\Scenes_105.png,0,0,0,285,285,285,,,,,,,,,,,,,177.00521809999918,0.005218099999183323,None,235.50082850000035,235.50082850000035,235.50082850000035,235.50082850000035,235.50082850000035,235.50082850000035,235.50082850000035,235.50082850000035,,002,P020,2025_May_06_1731,CategoryLocalizer,2021.2.3,59.919563976072,
177.8,178.0,5,0.0,Stimuli\Blank.png,0,0,0,286,286,286,,,,,,,,,,,,,177.8236442999987,0.02364429999869344,None,236.30154159999802,236.30154159999802,236.30154159999802,236.30154159999802,236.30154159999802,236.30154159999802,236.30154159999802,236.30154159999802,,002,P020,2025_May_06_1731,CategoryLocalizer,2021.2.3,59.919563976072,
