eventStartTime,eventEndTime,eventCond,imSize,imFile,repeatedImage,responseEvent,Events.thisRepN,Events.thisTrialN,Events.thisN,Events.thisIndex,Instructions.started,Instructions.stopped,participantReadyResponse.keys,participantReadyResponse.rt,participantReadyResponse.started,participantReadyResponse.stopped,startWaitforTrigger,triggerResponse.keys,triggerResponse.rt,triggerResponse.started,triggerResponse.stopped,globalTimer,actualStartTime,startTimingDiff,participantResponse.keys,participantResponse.started,participantResponse.stopped,image.started,image.stopped,fixationOutside.started,fixationOutside.stopped,fixationInside.started,fixationInside.stopped,participantResponse.rt,session,participant,date,expName,psychopyVersion,frameRate,
,,,,,,,,,,,15.16917679999915,None,1,1.2188279000001785,15.16917679999915,None,,,,,,,,,,,,,,,,,,,002,P021,2025_May_08_1225,CategoryLocalizer,2021.2.3,59.930875727906916,
,,,,,,,,,,,,,,,,,16.399012799999582,5,21.061672400000134,16.411303599999883,None,,,,,,,,,,,,,,002,P021,2025_May_08_1225,CategoryLocalizer,2021.2.3,59.930875727906916,
0.0,12.0,0,0.0,Stimuli\Blank.png,0,0,0,0,0,0,,,,,,,,,,,,37.483707699999286,0.04283510000004753,0.04283510000004753,None,37.5465949999998,None,37.5465949999998,None,37.5465949999998,None,37.5465949999998,None,,002,P021,2025_May_08_1225,CategoryLocalizer,2021.2.3,59.930875727906916,
12.0,12.8,1,0.75,Stimuli\ImageFiles-Set2\Objects\Object_Bowl_00001.png,0,0,0,1,1,1,,,,,,,,,,,,,12.009877200000119,0.009877200000119046,None,49.54055959999914,49.54055959999914,49.54055959999914,49.54055959999914,49.54055959999914,49.54055959999914,49.54055959999914,49.54055959999914,,002,P021,2025_May_08_1225,CategoryLocalizer,2021.2.3,59.930875727906916,
12.8,13.0,5,0.0,Stimuli\Blank.png,0,0,0,2,2,2,,,,,,,,,,,,,12.843929200000275,0.04392920000027445,None,50.341262599999936,50.341262599999936,50.341262599999936,50.341262599999936,50.341262599999936,50.341262599999936,50.341262599999936,50.341262599999936,,002,P021,2025_May_08_1225,CategoryLocalizer,2021.2.3,59.930875727906916,
13.0,13.8,1,0.75,Stimuli\ImageFiles-Set2\Objects\Object_ArmChair_00001.png,0,0,0,3,3,3,,,,,,,,,,,,,13.011309299999994,0.011309299999993527,None,50.524782099999356,50.524782099999356,50.524782099999356,50.524782099999356,50.524782099999356,50.524782099999356,50.524782099999356,50.524782099999356,,002,P021,2025_May_08_1225,CategoryLocalizer,2021.2.3,59.930875727906916,
13.8,14.0,5,0.0,Stimuli\Blank.png,0,0,0,4,4,4,,,,,,,,,,,,,13.828915900000538,0.028915900000537675,None,51.342147499999555,51.342147499999555,51.342147499999555,51.342147499999555,51.342147499999555,51.342147499999555,51.342147499999555,51.342147499999555,,002,P021,2025_May_08_1225,CategoryLocalizer,2021.2.3,59.930875727906916,
14.0,14.8,1,0.75,Stimuli\ImageFiles-Set2\Objects\Object_Pin_00001.png,0,0,0,5,5,5,,,,,,,,,,,,,14.029271100000187,0.02927110000018729,None,51.559012199999415,51.559012199999415,51.559012199999415,51.559012199999415,51.559012199999415,51.559012199999415,51.559012199999415,51.559012199999415,,002,P021,2025_May_08_1225,CategoryLocalizer,2021.2.3,59.930875727906916,
14.8,15.0,5,0.0,Stimuli\Blank.png,0,0,0,6,6,6,,,,,,,,,,,,,14.845116899999994,0.04511689999999291,None,52.34302429999934,52.34302429999934,52.34302429999934,52.34302429999934,52.34302429999934,52.34302429999934,52.34302429999934,52.34302429999934,,002,P021,2025_May_08_1225,CategoryLocalizer,2021.2.3,59.930875727906916,
15.0,15.8,1,0.75,Stimuli\ImageFiles-Set2\Objects\Object_Wheelchair_00001.png,0,0,0,7,7,7,,,,,,,,,,,,,15.012077000000318,0.01207700000031764,None,52.526524699999754,52.526524699999754,52.526524699999754,52.526524699999754,52.526524699999754,52.526524699999754,52.526524699999754,52.526524699999754,,002,P021,2025_May_08_1225,CategoryLocalizer,2021.2.3,59.930875727906916,
15.8,16.0,5,0.0,Stimuli\Blank.png,0,0,0,8,8,8,,,,,,,,,,,,,15.828743800000666,0.02874380000066523,None,53.32722969999941,53.32722969999941,53.32722969999941,53.32722969999941,53.32722969999941,53.32722969999941,53.32722969999941,53.32722969999941,,002,P021,2025_May_08_1225,CategoryLocalizer,2021.2.3,59.930875727906916,
16.0,16.8,1,0.75,Stimuli\ImageFiles-Set2\Objects\Object_Lawnmower_00001.png,0,0,0,9,9,9,,,,,,,,,,,,,16.012256900000466,0.012256900000465976,None,53.527416699999776,53.527416699999776,53.527416699999776,53.527416699999776,53.527416699999776,53.527416699999776,53.527416699999776,53.527416699999776,,002,P021,2025_May_08_1225,CategoryLocalizer,2021.2.3,59.930875727906916,
16.8,17.0,5,0.0,Stimuli\Blank.png,0,0,0,10,10,10,,,,,,,,,,,,,16.829815800000688,0.029815800000687176,None,54.32816060000005,54.32816060000005,54.32816060000005,54.32816060000005,54.32816060000005,54.32816060000005,54.32816060000005,54.32816060000005,,002,P021,2025_May_08_1225,CategoryLocalizer,2021.2.3,59.930875727906916,
17.0,17.8,1,0.75,Stimuli\ImageFiles-Set2\Objects\Object_Plate_00001.png,0,0,0,11,11,11,,,,,,,,,,,,,17.013819000000694,0.01381900000069436,None,54.52830359999916,54.52830359999916,54.52830359999916,54.52830359999916,54.52830359999916,54.52830359999916,54.52830359999916,54.52830359999916,,002,P021,2025_May_08_1225,CategoryLocalizer,2021.2.3,59.930875727906916,
17.8,18.0,5,0.0,Stimuli\Blank.png,0,0,0,12,12,12,,,,,,,,,,,,,17.830597600000146,0.030597600000145775,None,55.328996299999744,55.328996299999744,55.328996299999744,55.328996299999744,55.328996299999744,55.328996299999744,55.328996299999744,55.328996299999744,,002,P021,2025_May_08_1225,CategoryLocalizer,2021.2.3,59.930875727906916,
18.0,18.8,1,0.75,Stimuli\ImageFiles-Set2\Objects\Object_Strawberry_00001.png,0,0,0,13,13,13,,,,,,,,,,,,,18.01523630000065,0.015236300000651681,None,55.529168899999604,55.529168899999604,55.529168899999604,55.529168899999604,55.529168899999604,55.529168899999604,55.529168899999604,55.529168899999604,,002,P021,2025_May_08_1225,CategoryLocalizer,2021.2.3,59.930875727906916,
18.8,19.0,5,0.0,Stimuli\Blank.png,0,0,0,14,14,14,,,,,,,,,,,,,18.815444500000012,0.01544450000001163,None,56.313192899999194,56.313192899999194,56.313192899999194,56.313192899999194,56.313192899999194,56.313192899999194,56.313192899999194,56.313192899999194,,002,P021,2025_May_08_1225,CategoryLocalizer,2021.2.3,59.930875727906916,
19.0,19.8,1,0.75,Stimuli\ImageFiles-Set2\Objects\Object_Grill_00001.png,0,0,0,15,15,15,,,,,,,,,,,,,19.000973900000645,0.0009739000006447895,None,56.53005639999992,56.53005639999992,56.53005639999992,56.53005639999992,56.53005639999992,56.53005639999992,56.53005639999992,56.53005639999992,,002,P021,2025_May_08_1225,CategoryLocalizer,2021.2.3,59.930875727906916,
19.8,20.0,5,0.0,Stimuli\Blank.png,0,0,0,16,16,16,,,,,,,,,,,,,19.83353570000054,0.03353570000053807,None,57.330785999999534,57.330785999999534,57.330785999999534,57.330785999999534,57.330785999999534,57.330785999999534,57.330785999999534,57.330785999999534,,002,P021,2025_May_08_1225,CategoryLocalizer,2021.2.3,59.930875727906916,
20.0,20.8,1,0.75,Stimuli\ImageFiles-Set2\Objects\Object_Jar_00001.png,0,0,0,17,17,17,,,,,,,,,,,,,19.999252399999932,-0.0007476000000679051,None,57.530942099999265,57.530942099999265,57.530942099999265,57.530942099999265,57.530942099999265,57.530942099999265,57.530942099999265,57.530942099999265,,002,P021,2025_May_08_1225,CategoryLocalizer,2021.2.3,59.930875727906916,
20.8,21.0,5,0.0,Stimuli\Blank.png,0,0,0,18,18,18,,,,,,,,,,,,,20.833929100000205,0.033929100000204215,None,58.33165839999947,58.33165839999947,58.33165839999947,58.33165839999947,58.33165839999947,58.33165839999947,58.33165839999947,58.33165839999947,,002,P021,2025_May_08_1225,CategoryLocalizer,2021.2.3,59.930875727906916,
21.0,21.8,1,0.75,Stimuli\ImageFiles-Set2\Objects\Object_Dishwasher_00001.png,0,0,0,19,19,19,,,,,,,,,,,,,21.00067930000023,0.0006793000002289773,None,58.515128000000004,58.515128000000004,58.515128000000004,58.515128000000004,58.515128000000004,58.515128000000004,58.515128000000004,58.515128000000004,,002,P021,2025_May_08_1225,CategoryLocalizer,2021.2.3,59.930875727906916,
21.8,22.0,5,0.0,Stimuli\Blank.png,0,0,0,20,20,20,,,,,,,,,,,,,21.817681500000617,0.017681500000616523,None,59.315855799999554,59.315855799999554,59.315855799999554,59.315855799999554,59.315855799999554,59.315855799999554,59.315855799999554,59.315855799999554,,002,P021,2025_May_08_1225,CategoryLocalizer,2021.2.3,59.930875727906916,
22.0,22.8,1,0.75,Stimuli\ImageFiles-Set2\Objects\Object_Mailbox_00001.png,0,0,0,21,21,21,,,,,,,,,,,,,22.00167810000039,0.001678100000390259,None,59.49934479999956,59.49934479999956,59.49934479999956,59.49934479999956,59.49934479999956,59.49934479999956,59.49934479999956,59.49934479999956,,002,P021,2025_May_08_1225,CategoryLocalizer,2021.2.3,59.930875727906916,
22.8,23.0,5,0.0,Stimuli\Blank.png,0,0,0,22,22,22,,,,,,,,,,,,,22.803924700000607,0.003924700000606407,None,60.31677199999922,60.31677199999922,60.31677199999922,60.31677199999922,60.31677199999922,60.31677199999922,60.31677199999922,60.31677199999922,,002,P021,2025_May_08_1225,CategoryLocalizer,2021.2.3,59.930875727906916,
23.0,23.8,1,0.75,Stimuli\ImageFiles-Set2\Objects\Object_Mailbox_00001.png,1,1,0,23,23,23,,,,,,,,,,,,,23.019365900000594,0.019365900000593683,1,60.51692209999965,60.51692209999965,60.51692209999965,60.51692209999965,60.51692209999965,60.51692209999965,60.51692209999965,60.51692209999965,0.42788889999974344,002,P021,2025_May_08_1225,CategoryLocalizer,2021.2.3,59.930875727906916,
23.8,24.0,5,0.0,Stimuli\Blank.png,0,0,0,24,24,24,,,,,,,,,,,,,23.805597300000045,0.005597300000044214,None,61.31764009999915,61.31764009999915,61.31764009999915,61.31764009999915,61.31764009999915,61.31764009999915,61.31764009999915,61.31764009999915,,002,P021,2025_May_08_1225,CategoryLocalizer,2021.2.3,59.930875727906916,
24.0,24.8,1,0.75,Stimuli\ImageFiles-Set2\Objects\Object_Ladder_00001.png,0,0,0,25,25,25,,,,,,,,,,,,,24.01968190000025,0.019681900000250607,None,61.55117659999996,61.55117659999996,61.55117659999996,61.55117659999996,61.55117659999996,61.55117659999996,61.55117659999996,61.55117659999996,,002,P021,2025_May_08_1225,CategoryLocalizer,2021.2.3,59.930875727906916,
24.8,25.0,5,0.0,Stimuli\Blank.png,0,0,0,26,26,26,,,,,,,,,,,,,24.83897060000072,0.03897060000072017,None,62.35190089999924,62.35190089999924,62.35190089999924,62.35190089999924,62.35190089999924,62.35190089999924,62.35190089999924,62.35190089999924,,002,P021,2025_May_08_1225,CategoryLocalizer,2021.2.3,59.930875727906916,
25.0,25.8,1,0.75,Stimuli\ImageFiles-Set2\Objects\Object_Glass_00001.png,0,0,0,27,27,27,,,,,,,,,,,,,25.02096000000074,0.020960000000741275,None,62.552065500000026,62.552065500000026,62.552065500000026,62.552065500000026,62.552065500000026,62.552065500000026,62.552065500000026,62.552065500000026,,002,P021,2025_May_08_1225,CategoryLocalizer,2021.2.3,59.930875727906916,
25.8,26.0,5,0.0,Stimuli\Blank.png,0,0,0,28,28,28,,,,,,,,,,,,,25.83850110000003,0.03850110000002971,None,63.33608079999976,63.33608079999976,63.33608079999976,63.33608079999976,63.33608079999976,63.33608079999976,63.33608079999976,63.33608079999976,,002,P021,2025_May_08_1225,CategoryLocalizer,2021.2.3,59.930875727906916,
26.0,26.8,1,0.75,Stimuli\ImageFiles-Set2\Objects\Object_Hamburger_00001.png,0,0,0,29,29,29,,,,,,,,,,,,,26.004510600000685,0.004510600000685372,None,63.536252899999454,63.536252899999454,63.536252899999454,63.536252899999454,63.536252899999454,63.536252899999454,63.536252899999454,63.536252899999454,,002,P021,2025_May_08_1225,CategoryLocalizer,2021.2.3,59.930875727906916,
26.8,27.0,5,0.0,Stimuli\Blank.png,0,0,0,30,30,30,,,,,,,,,,,,,26.83917250000013,0.03917250000013084,None,64.33696899999995,64.33696899999995,64.33696899999995,64.33696899999995,64.33696899999995,64.33696899999995,64.33696899999995,64.33696899999995,,002,P021,2025_May_08_1225,CategoryLocalizer,2021.2.3,59.930875727906916,
27.0,27.8,1,0.75,Stimuli\ImageFiles-Set2\Objects\Object_Fork_00001.png,0,0,0,31,31,31,,,,,,,,,,,,,27.00602450000042,0.00602450000042154,None,64.52047009999933,64.52047009999933,64.52047009999933,64.52047009999933,64.52047009999933,64.52047009999933,64.52047009999933,64.52047009999933,,002,P021,2025_May_08_1225,CategoryLocalizer,2021.2.3,59.930875727906916,
27.8,28.0,5,0.0,Stimuli\Blank.png,0,0,0,32,32,32,,,,,,,,,,,,,27.825275600000168,0.025275600000167486,None,65.33791789999941,65.33791789999941,65.33791789999941,65.33791789999941,65.33791789999941,65.33791789999941,65.33791789999941,65.33791789999941,,002,P021,2025_May_08_1225,CategoryLocalizer,2021.2.3,59.930875727906916,
28.0,28.8,2,0.75,Stimuli\ImageFiles-Set2\Bodies\Bodies_SittingChair_00006.png,0,0,0,33,33,33,,,,,,,,,,,,,28.023751400000037,0.023751400000037393,None,65.5380800999992,65.5380800999992,65.5380800999992,65.5380800999992,65.5380800999992,65.5380800999992,65.5380800999992,65.5380800999992,,002,P021,2025_May_08_1225,CategoryLocalizer,2021.2.3,59.930875727906916,
28.8,29.0,5,0.0,Stimuli\Blank.png,0,0,0,34,34,34,,,,,,,,,,,,,28.82478600000013,0.024786000000130315,None,66.32205949999934,66.32205949999934,66.32205949999934,66.32205949999934,66.32205949999934,66.32205949999934,66.32205949999934,66.32205949999934,,002,P021,2025_May_08_1225,CategoryLocalizer,2021.2.3,59.930875727906916,
29.0,29.8,2,0.75,Stimuli\ImageFiles-Set2\Bodies\Bodies_Punching_00005.png,0,0,0,35,35,35,,,,,,,,,,,,,29.00889720000032,0.008897200000319572,None,66.5222206999997,66.5222206999997,66.5222206999997,66.5222206999997,66.5222206999997,66.5222206999997,66.5222206999997,66.5222206999997,,002,P021,2025_May_08_1225,CategoryLocalizer,2021.2.3,59.930875727906916,
29.8,30.0,5,0.0,Stimuli\Blank.png,0,0,0,36,36,36,,,,,,,,,,,,,29.8252949000007,0.02529490000069856,None,67.3229339999998,67.3229339999998,67.3229339999998,67.3229339999998,67.3229339999998,67.3229339999998,67.3229339999998,67.3229339999998,,002,P021,2025_May_08_1225,CategoryLocalizer,2021.2.3,59.930875727906916,
30.0,30.8,2,0.75,Stimuli\ImageFiles-Set2\Bodies\Bodies_Waving_00006.png,0,0,0,37,37,37,,,,,,,,,,,,,30.00811860000067,0.008118600000670995,None,67.523099,67.523099,67.523099,67.523099,67.523099,67.523099,67.523099,67.523099,,002,P021,2025_May_08_1225,CategoryLocalizer,2021.2.3,59.930875727906916,
30.8,31.0,5,0.0,Stimuli\Blank.png,0,0,0,38,38,38,,,,,,,,,,,,,30.825453800000105,0.02545380000010411,None,68.32381279999936,68.32381279999936,68.32381279999936,68.32381279999936,68.32381279999936,68.32381279999936,68.32381279999936,68.32381279999936,,002,P021,2025_May_08_1225,CategoryLocalizer,2021.2.3,59.930875727906916,
31.0,31.8,2,0.75,Stimuli\ImageFiles-Set2\Bodies\Bodies_Waving_00006.png,1,1,0,39,39,39,,,,,,,,,,,,,31.01008350000029,0.010083500000291679,1,68.50732040000003,68.50732040000003,68.50732040000003,68.50732040000003,68.50732040000003,68.50732040000003,68.50732040000003,68.50732040000003,0.49654129999998986,002,P021,2025_May_08_1225,CategoryLocalizer,2021.2.3,59.930875727906916,
31.8,32.0,5,0.0,Stimuli\Blank.png,0,0,0,40,40,40,,,,,,,,,,,,,31.80974409999999,0.009744099999988265,None,69.30801959999917,69.30801959999917,69.30801959999917,69.30801959999917,69.30801959999917,69.30801959999917,69.30801959999917,69.30801959999917,,002,P021,2025_May_08_1225,CategoryLocalizer,2021.2.3,59.930875727906916,
32.0,32.8,2,0.75,Stimuli\ImageFiles-Set2\Bodies\Bodies_Kneeling_00006.png,0,0,0,41,41,41,,,,,,,,,,,,,32.00972490000004,0.00972490000003745,None,69.54155649999939,69.54155649999939,69.54155649999939,69.54155649999939,69.54155649999939,69.54155649999939,69.54155649999939,69.54155649999939,,002,P021,2025_May_08_1225,CategoryLocalizer,2021.2.3,59.930875727906916,
32.8,33.0,5,0.0,Stimuli\Blank.png,0,0,0,42,42,42,,,,,,,,,,,,,32.845066300000326,0.04506630000032885,None,70.34226619999936,70.34226619999936,70.34226619999936,70.34226619999936,70.34226619999936,70.34226619999936,70.34226619999936,70.34226619999936,,002,P021,2025_May_08_1225,CategoryLocalizer,2021.2.3,59.930875727906916,
33.0,33.8,2,0.75,Stimuli\ImageFiles-Set2\Bodies\Bodies_Running_00007.png,0,0,0,43,43,43,,,,,,,,,,,,,33.01084390000051,0.010843900000509166,None,70.52584619999925,70.52584619999925,70.52584619999925,70.52584619999925,70.52584619999925,70.52584619999925,70.52584619999925,70.52584619999925,,002,P021,2025_May_08_1225,CategoryLocalizer,2021.2.3,59.930875727906916,
33.8,34.0,5,0.0,Stimuli\Blank.png,0,0,0,44,44,44,,,,,,,,,,,,,33.82801080000081,0.02801080000081413,None,71.3265277999999,71.3265277999999,71.3265277999999,71.3265277999999,71.3265277999999,71.3265277999999,71.3265277999999,71.3265277999999,,002,P021,2025_May_08_1225,CategoryLocalizer,2021.2.3,59.930875727906916,
34.0,34.8,2,0.75,Stimuli\ImageFiles-Set2\Bodies\Bodies_Running_00005.png,0,0,0,45,45,45,,,,,,,,,,,,,34.01156030000038,0.011560300000382995,None,71.5433865999994,71.5433865999994,71.5433865999994,71.5433865999994,71.5433865999994,71.5433865999994,71.5433865999994,71.5433865999994,,002,P021,2025_May_08_1225,CategoryLocalizer,2021.2.3,59.930875727906916,
34.8,35.0,5,0.0,Stimuli\Blank.png,0,0,0,46,46,46,,,,,,,,,,,,,34.84636490000048,0.046364900000483544,None,72.34402769999997,72.34402769999997,72.34402769999997,72.34402769999997,72.34402769999997,72.34402769999997,72.34402769999997,72.34402769999997,,002,P021,2025_May_08_1225,CategoryLocalizer,2021.2.3,59.930875727906916,
35.0,35.8,2,0.75,Stimuli\ImageFiles-Set2\Bodies\Bodies_SittingFloor_00006.png,0,0,0,47,47,47,,,,,,,,,,,,,35.0141777000008,0.014177700000800542,None,72.54421789999924,72.54421789999924,72.54421789999924,72.54421789999924,72.54421789999924,72.54421789999924,72.54421789999924,72.54421789999924,,002,P021,2025_May_08_1225,CategoryLocalizer,2021.2.3,59.930875727906916,
35.8,36.0,5,0.0,Stimuli\Blank.png,0,0,0,48,48,48,,,,,,,,,,,,,35.84648090000064,0.04648090000064542,None,73.34491039999921,73.34491039999921,73.34491039999921,73.34491039999921,73.34491039999921,73.34491039999921,73.34491039999921,73.34491039999921,,002,P021,2025_May_08_1225,CategoryLocalizer,2021.2.3,59.930875727906916,
36.0,36.8,2,0.75,Stimuli\ImageFiles-Set2\Bodies\Bodies_Running_00002.png,0,0,0,49,49,49,,,,,,,,,,,,,36.01362560000052,0.013625600000523264,None,73.51172559999941,73.51172559999941,73.51172559999941,73.51172559999941,73.51172559999941,73.51172559999941,73.51172559999941,73.51172559999941,,002,P021,2025_May_08_1225,CategoryLocalizer,2021.2.3,59.930875727906916,
36.8,37.0,5,0.0,Stimuli\Blank.png,0,0,0,50,50,50,,,,,,,,,,,,,36.814914400000816,0.014914400000819228,None,74.31244949999927,74.31244949999927,74.31244949999927,74.31244949999927,74.31244949999927,74.31244949999927,74.31244949999927,74.31244949999927,,002,P021,2025_May_08_1225,CategoryLocalizer,2021.2.3,59.930875727906916,
37.0,37.8,2,0.75,Stimuli\ImageFiles-Set2\Bodies\Bodies_SittingStretch_00006.png,0,0,0,51,51,51,,,,,,,,,,,,,37.01425290000043,0.014252900000428781,None,74.51261579999937,74.51261579999937,74.51261579999937,74.51261579999937,74.51261579999937,74.51261579999937,74.51261579999937,74.51261579999937,,002,P021,2025_May_08_1225,CategoryLocalizer,2021.2.3,59.930875727906916,
37.8,38.0,5,0.0,Stimuli\Blank.png,0,0,0,52,52,52,,,,,,,,,,,,,37.81534280000051,0.015342800000510692,None,75.31332899999961,75.31332899999961,75.31332899999961,75.31332899999961,75.31332899999961,75.31332899999961,75.31332899999961,75.31332899999961,,002,P021,2025_May_08_1225,CategoryLocalizer,2021.2.3,59.930875727906916,
38.0,38.8,2,0.75,Stimuli\ImageFiles-Set2\Bodies\Bodies_Pushing_00002.png,1,1,0,53,53,53,,,,,,,,,,,,,38.015545200000815,0.015545200000815385,None,75.53019159999985,75.53019159999985,75.53019159999985,75.53019159999985,75.53019159999985,75.53019159999985,75.53019159999985,75.53019159999985,,002,P021,2025_May_08_1225,CategoryLocalizer,2021.2.3,59.930875727906916,
38.8,39.0,5,0.0,Stimuli\Blank.png,0,0,0,54,54,54,,,,,,,,,,,,,38.81641949999994,0.016419499999940967,None,76.31420049999997,76.31420049999997,76.31420049999997,76.31420049999997,76.31420049999997,76.31420049999997,76.31420049999997,76.31420049999997,,002,P021,2025_May_08_1225,CategoryLocalizer,2021.2.3,59.930875727906916,
39.0,39.8,2,0.75,Stimuli\ImageFiles-Set2\Bodies\Bodies_Jumping_00007.png,0,0,0,55,55,55,,,,,,,,,,,,,39.0004426000005,0.0004426000004968955,None,76.51444379999975,76.51444379999975,76.51444379999975,76.51444379999975,76.51444379999975,76.51444379999975,76.51444379999975,76.51444379999975,,002,P021,2025_May_08_1225,CategoryLocalizer,2021.2.3,59.930875727906916,
39.8,40.0,5,0.0,Stimuli\Blank.png,0,0,0,56,56,56,,,,,,,,,,,,,39.81659000000036,0.016590000000363148,None,77.3150571999995,77.3150571999995,77.3150571999995,77.3150571999995,77.3150571999995,77.3150571999995,77.3150571999995,77.3150571999995,,002,P021,2025_May_08_1225,CategoryLocalizer,2021.2.3,59.930875727906916,
40.0,40.8,2,0.75,Stimuli\ImageFiles-Set2\Bodies\Bodies_Jumping_00007.png,0,0,0,57,57,57,,,,,,,,,,,,,40.00019690000045,0.00019690000044647604,1,77.49858379999932,77.49858379999932,77.49858379999932,77.49858379999932,77.49858379999932,77.49858379999932,77.49858379999932,77.49858379999932,0.5262437000001228,002,P021,2025_May_08_1225,CategoryLocalizer,2021.2.3,59.930875727906916,
40.8,41.0,5,0.0,Stimuli\Blank.png,0,0,0,58,58,58,,,,,,,,,,,,,40.80198139999993,0.001981399999934297,None,78.29929329999959,78.29929329999959,78.29929329999959,78.29929329999959,78.29929329999959,78.29929329999959,78.29929329999959,78.29929329999959,,002,P021,2025_May_08_1225,CategoryLocalizer,2021.2.3,59.930875727906916,
41.0,41.8,2,0.75,Stimuli\ImageFiles-Set2\Bodies\Bodies_Kneeling_00001.png,0,0,0,59,59,59,,,,,,,,,,,,,41.00182190000032,0.0018219000003227848,None,78.51615259999926,78.51615259999926,78.51615259999926,78.51615259999926,78.51615259999926,78.51615259999926,78.51615259999926,78.51615259999926,,002,P021,2025_May_08_1225,CategoryLocalizer,2021.2.3,59.930875727906916,
41.8,42.0,5,0.0,Stimuli\Blank.png,0,0,0,60,60,60,,,,,,,,,,,,,41.818378400000256,0.01837840000025892,None,79.31690309999976,79.31690309999976,79.31690309999976,79.31690309999976,79.31690309999976,79.31690309999976,79.31690309999976,79.31690309999976,,002,P021,2025_May_08_1225,CategoryLocalizer,2021.2.3,59.930875727906916,
42.0,42.8,2,0.75,Stimuli\ImageFiles-Set2\Bodies\Bodies_Kicking_00004.png,0,0,0,61,61,61,,,,,,,,,,,,,42.00200060000043,0.002000600000428676,None,79.51703569999972,79.51703569999972,79.51703569999972,79.51703569999972,79.51703569999972,79.51703569999972,79.51703569999972,79.51703569999972,,002,P021,2025_May_08_1225,CategoryLocalizer,2021.2.3,59.930875727906916,
42.8,43.0,5,0.0,Stimuli\Blank.png,0,0,0,62,62,62,,,,,,,,,,,,,42.81993110000076,0.01993110000076115,None,80.3177483999998,80.3177483999998,80.3177483999998,80.3177483999998,80.3177483999998,80.3177483999998,80.3177483999998,80.3177483999998,,002,P021,2025_May_08_1225,CategoryLocalizer,2021.2.3,59.930875727906916,
43.0,43.8,2,0.75,Stimuli\ImageFiles-Set2\Bodies\Bodies_Falling_00005.png,0,0,0,63,63,63,,,,,,,,,,,,,43.00318850000076,0.0031885000007605413,None,80.50124109999979,80.50124109999979,80.50124109999979,80.50124109999979,80.50124109999979,80.50124109999979,80.50124109999979,80.50124109999979,,002,P021,2025_May_08_1225,CategoryLocalizer,2021.2.3,59.930875727906916,
43.8,44.0,5,0.0,Stimuli\Blank.png,0,0,0,64,64,64,,,,,,,,,,,,,43.80364660000032,0.0036466000003230192,None,81.30194349999965,81.30194349999965,81.30194349999965,81.30194349999965,81.30194349999965,81.30194349999965,81.30194349999965,81.30194349999965,,002,P021,2025_May_08_1225,CategoryLocalizer,2021.2.3,59.930875727906916,
44.0,44.8,3,0.75,Stimuli\ImageFiles-Set2\Faces\Face_00080.png,0,0,0,65,65,65,,,,,,,,,,,,,44.004413900000145,0.004413900000145077,None,81.53551299999981,81.53551299999981,81.53551299999981,81.53551299999981,81.53551299999981,81.53551299999981,81.53551299999981,81.53551299999981,,002,P021,2025_May_08_1225,CategoryLocalizer,2021.2.3,59.930875727906916,
44.8,45.0,5,0.0,Stimuli\Blank.png,0,0,0,66,66,66,,,,,,,,,,,,,44.83878260000074,0.03878260000074363,None,82.33621389999917,82.33621389999917,82.33621389999917,82.33621389999917,82.33621389999917,82.33621389999917,82.33621389999917,82.33621389999917,,002,P021,2025_May_08_1225,CategoryLocalizer,2021.2.3,59.930875727906916,
45.0,45.8,3,0.75,Stimuli\ImageFiles-Set2\Faces\Face_00096.png,0,0,0,67,67,67,,,,,,,,,,,,,45.005435100000796,0.005435100000795501,None,82.51970879999953,82.51970879999953,82.51970879999953,82.51970879999953,82.51970879999953,82.51970879999953,82.51970879999953,82.51970879999953,,002,P021,2025_May_08_1225,CategoryLocalizer,2021.2.3,59.930875727906916,
45.8,46.0,5,0.0,Stimuli\Blank.png,0,0,0,68,68,68,,,,,,,,,,,,,45.82414510000035,0.024145100000353636,None,83.33708389999993,83.33708389999993,83.33708389999993,83.33708389999993,83.33708389999993,83.33708389999993,83.33708389999993,83.33708389999993,,002,P021,2025_May_08_1225,CategoryLocalizer,2021.2.3,59.930875727906916,
46.0,46.8,3,0.75,Stimuli\ImageFiles-Set2\Faces\Face_00038.png,0,0,0,69,69,69,,,,,,,,,,,,,46.02432709999994,0.024327099999936763,None,83.55394439999964,83.55394439999964,83.55394439999964,83.55394439999964,83.55394439999964,83.55394439999964,83.55394439999964,83.55394439999964,,002,P021,2025_May_08_1225,CategoryLocalizer,2021.2.3,59.930875727906916,
46.8,47.0,5,0.0,Stimuli\Blank.png,0,0,0,70,70,70,,,,,,,,,,,,,46.839734500000304,0.039734500000307094,None,84.3380604999993,84.3380604999993,84.3380604999993,84.3380604999993,84.3380604999993,84.3380604999993,84.3380604999993,84.3380604999993,,002,P021,2025_May_08_1225,CategoryLocalizer,2021.2.3,59.930875727906916,
47.0,47.8,3,0.75,Stimuli\ImageFiles-Set2\Faces\Face_00034.png,0,0,0,71,71,71,,,,,,,,,,,,,47.00629500000014,0.006295000000136497,None,84.5214606999998,84.5214606999998,84.5214606999998,84.5214606999998,84.5214606999998,84.5214606999998,84.5214606999998,84.5214606999998,,002,P021,2025_May_08_1225,CategoryLocalizer,2021.2.3,59.930875727906916,
47.8,48.0,5,0.0,Stimuli\Blank.png,0,0,0,72,72,72,,,,,,,,,,,,,47.824349299999994,0.024349299999997243,None,85.32217889999993,85.32217889999993,85.32217889999993,85.32217889999993,85.32217889999993,85.32217889999993,85.32217889999993,85.32217889999993,,002,P021,2025_May_08_1225,CategoryLocalizer,2021.2.3,59.930875727906916,
48.0,48.8,3,0.75,Stimuli\ImageFiles-Set2\Faces\Face_00032.png,0,0,0,73,73,73,,,,,,,,,,,,,48.007281300000614,0.007281300000613555,None,85.52234559999943,85.52234559999943,85.52234559999943,85.52234559999943,85.52234559999943,85.52234559999943,85.52234559999943,85.52234559999943,,002,P021,2025_May_08_1225,CategoryLocalizer,2021.2.3,59.930875727906916,
48.8,49.0,5,0.0,Stimuli\Blank.png,0,0,0,74,74,74,,,,,,,,,,,,,48.825208700000076,0.025208700000078466,None,86.33976139999959,86.33976139999959,86.33976139999959,86.33976139999959,86.33976139999959,86.33976139999959,86.33976139999959,86.33976139999959,,002,P021,2025_May_08_1225,CategoryLocalizer,2021.2.3,59.930875727906916,
49.0,49.8,3,0.75,Stimuli\ImageFiles-Set2\Faces\Face_00032.png,1,1,0,75,75,75,,,,,,,,,,,,,49.02518980000059,0.025189800000589457,1,86.52322800000002,86.52322800000002,86.52322800000002,86.52322800000002,86.52322800000002,86.52322800000002,86.52322800000002,86.52322800000002,0.4058844000001045,002,P021,2025_May_08_1225,CategoryLocalizer,2021.2.3,59.930875727906916,
49.8,50.0,5,0.0,Stimuli\Blank.png,0,0,0,76,76,76,,,,,,,,,,,,,49.809022400000686,0.009022400000688435,None,87.30725449999954,87.30725449999954,87.30725449999954,87.30725449999954,87.30725449999954,87.30725449999954,87.30725449999954,87.30725449999954,,002,P021,2025_May_08_1225,CategoryLocalizer,2021.2.3,59.930875727906916,
50.0,50.8,3,0.75,Stimuli\ImageFiles-Set2\Faces\Face_00040.png,0,0,0,77,77,77,,,,,,,,,,,,,50.009000500000184,0.00900050000018382,None,87.54076929999974,87.54076929999974,87.54076929999974,87.54076929999974,87.54076929999974,87.54076929999974,87.54076929999974,87.54076929999974,,002,P021,2025_May_08_1225,CategoryLocalizer,2021.2.3,59.930875727906916,
50.8,51.0,5,0.0,Stimuli\Blank.png,0,0,0,78,78,78,,,,,,,,,,,,,50.84378480000032,0.04378480000032425,None,88.34150549999958,88.34150549999958,88.34150549999958,88.34150549999958,88.34150549999958,88.34150549999958,88.34150549999958,88.34150549999958,,002,P021,2025_May_08_1225,CategoryLocalizer,2021.2.3,59.930875727906916,
51.0,51.8,3,0.75,Stimuli\ImageFiles-Set2\Faces\Face_00042.png,0,0,0,79,79,79,,,,,,,,,,,,,51.00992760000008,0.009927600000082748,None,88.52496679999967,88.52496679999967,88.52496679999967,88.52496679999967,88.52496679999967,88.52496679999967,88.52496679999967,88.52496679999967,,002,P021,2025_May_08_1225,CategoryLocalizer,2021.2.3,59.930875727906916,
51.8,52.0,5,0.0,Stimuli\Blank.png,0,0,0,80,80,80,,,,,,,,,,,,,51.829328100000566,0.02932810000056918,None,89.34241769999971,89.34241769999971,89.34241769999971,89.34241769999971,89.34241769999971,89.34241769999971,89.34241769999971,89.34241769999971,,002,P021,2025_May_08_1225,CategoryLocalizer,2021.2.3,59.930875727906916,
52.0,52.8,3,0.75,Stimuli\ImageFiles-Set2\Faces\Face_00019.png,0,0,0,81,81,81,,,,,,,,,,,,,52.028568700000505,0.028568700000505487,None,89.55926049999925,89.55926049999925,89.55926049999925,89.55926049999925,89.55926049999925,89.55926049999925,89.55926049999925,89.55926049999925,,002,P021,2025_May_08_1225,CategoryLocalizer,2021.2.3,59.930875727906916,
52.8,53.0,5,0.0,Stimuli\Blank.png,0,0,0,82,82,82,,,,,,,,,,,,,52.84535380000034,0.04535380000034195,None,90.34327039999971,90.34327039999971,90.34327039999971,90.34327039999971,90.34327039999971,90.34327039999971,90.34327039999971,90.34327039999971,,002,P021,2025_May_08_1225,CategoryLocalizer,2021.2.3,59.930875727906916,
53.0,53.8,3,0.75,Stimuli\ImageFiles-Set2\Faces\Face_00058.png,1,1,0,83,83,83,,,,,,,,,,,,,53.011651200000415,0.011651200000414974,None,90.54345869999997,90.54345869999997,90.54345869999997,90.54345869999997,90.54345869999997,90.54345869999997,90.54345869999997,90.54345869999997,,002,P021,2025_May_08_1225,CategoryLocalizer,2021.2.3,59.930875727906916,
53.8,54.0,5,0.0,Stimuli\Blank.png,0,0,0,84,84,84,,,,,,,,,,,,,53.846587800000634,0.046587800000637,None,91.34412699999939,91.34412699999939,91.34412699999939,91.34412699999939,91.34412699999939,91.34412699999939,91.34412699999939,91.34412699999939,,002,P021,2025_May_08_1225,CategoryLocalizer,2021.2.3,59.930875727906916,
54.0,54.8,3,0.75,Stimuli\ImageFiles-Set2\Faces\Face_00048.png,0,0,0,85,85,85,,,,,,,,,,,,,54.0140523,0.014052300000003015,None,91.52765279999949,91.52765279999949,91.52765279999949,91.52765279999949,91.52765279999949,91.52765279999949,91.52765279999949,91.52765279999949,,002,P021,2025_May_08_1225,CategoryLocalizer,2021.2.3,59.930875727906916,
54.8,55.0,5,0.0,Stimuli\Blank.png,0,0,0,86,86,86,,,,,,,,,,,,,54.830104000000574,0.030104000000577003,None,92.3283709999996,92.3283709999996,92.3283709999996,92.3283709999996,92.3283709999996,92.3283709999996,92.3283709999996,92.3283709999996,,002,P021,2025_May_08_1225,CategoryLocalizer,2021.2.3,59.930875727906916,
55.0,55.8,3,0.75,Stimuli\ImageFiles-Set2\Faces\Face_00048.png,0,0,0,87,87,87,,,,,,,,,,,,,55.013558900000135,0.0135589000001346,1,92.51184769999963,92.51184769999963,92.51184769999963,92.51184769999963,92.51184769999963,92.51184769999963,92.51184769999963,92.51184769999963,0.4390075999999681,002,P021,2025_May_08_1225,CategoryLocalizer,2021.2.3,59.930875727906916,
55.8,56.0,5,0.0,Stimuli\Blank.png,0,0,0,88,88,88,,,,,,,,,,,,,55.81559610000022,0.0155961000002236,None,93.31256459999986,93.31256459999986,93.31256459999986,93.31256459999986,93.31256459999986,93.31256459999986,93.31256459999986,93.31256459999986,,002,P021,2025_May_08_1225,CategoryLocalizer,2021.2.3,59.930875727906916,
56.0,56.8,3,0.75,Stimuli\ImageFiles-Set2\Faces\Face_00100.png,0,0,0,89,89,89,,,,,,,,,,,,,56.000108100000034,0.0001081000000340282,None,93.5127407,93.5127407,93.5127407,93.5127407,93.5127407,93.5127407,93.5127407,93.5127407,,002,P021,2025_May_08_1225,CategoryLocalizer,2021.2.3,59.930875727906916,
56.8,57.0,5,0.0,Stimuli\Blank.png,0,0,0,90,90,90,,,,,,,,,,,,,56.815193100000215,0.015193100000217896,None,94.31344379999973,94.31344379999973,94.31344379999973,94.31344379999973,94.31344379999973,94.31344379999973,94.31344379999973,94.31344379999973,,002,P021,2025_May_08_1225,CategoryLocalizer,2021.2.3,59.930875727906916,
57.0,57.8,3,0.75,Stimuli\ImageFiles-Set2\Faces\Face_00086.png,0,0,0,91,91,91,,,,,,,,,,,,,57.01631950000046,0.01631950000046345,None,94.54700779999985,94.54700779999985,94.54700779999985,94.54700779999985,94.54700779999985,94.54700779999985,94.54700779999985,94.54700779999985,,002,P021,2025_May_08_1225,CategoryLocalizer,2021.2.3,59.930875727906916,
57.8,58.0,5,0.0,Stimuli\Blank.png,0,0,0,92,92,92,,,,,,,,,,,,,57.83453140000074,0.03453140000074484,None,95.3477269999994,95.3477269999994,95.3477269999994,95.3477269999994,95.3477269999994,95.3477269999994,95.3477269999994,95.3477269999994,,002,P021,2025_May_08_1225,CategoryLocalizer,2021.2.3,59.930875727906916,
58.0,58.8,3,0.75,Stimuli\ImageFiles-Set2\Faces\Face_00102.png,0,0,0,93,93,93,,,,,,,,,,,,,58.0170891000007,0.017089100000703183,None,95.53115539999999,95.53115539999999,95.53115539999999,95.53115539999999,95.53115539999999,95.53115539999999,95.53115539999999,95.53115539999999,,002,P021,2025_May_08_1225,CategoryLocalizer,2021.2.3,59.930875727906916,
58.8,59.0,5,0.0,Stimuli\Blank.png,0,0,0,94,94,94,,,,,,,,,,,,,58.81740710000031,0.017407100000312425,None,96.31522159999986,96.31522159999986,96.31522159999986,96.31522159999986,96.31522159999986,96.31522159999986,96.31522159999986,96.31522159999986,,002,P021,2025_May_08_1225,CategoryLocalizer,2021.2.3,59.930875727906916,
59.0,59.8,3,0.75,Stimuli\ImageFiles-Set2\Faces\Face_00060.png,0,0,0,95,95,95,,,,,,,,,,,,,59.000290800000585,0.0002908000005845679,None,96.51541759999964,96.51541759999964,96.51541759999964,96.51541759999964,96.51541759999964,96.51541759999964,96.51541759999964,96.51541759999964,,002,P021,2025_May_08_1225,CategoryLocalizer,2021.2.3,59.930875727906916,
59.8,60.0,5,0.0,Stimuli\Blank.png,0,0,0,96,96,96,,,,,,,,,,,,,59.82041130000016,0.02041130000016267,None,97.33279689999927,97.33279689999927,97.33279689999927,97.33279689999927,97.33279689999927,97.33279689999927,97.33279689999927,97.33279689999927,,002,P021,2025_May_08_1225,CategoryLocalizer,2021.2.3,59.930875727906916,
60.0,60.8,4,0.75,Stimuli\ImageFiles-Set2\Scenes\Scenes_120.png,0,0,0,97,97,97,,,,,,,,,,,,,60.0182833000008,0.018283300000803138,None,97.54960279999978,97.54960279999978,97.54960279999978,97.54960279999978,97.54960279999978,97.54960279999978,97.54960279999978,97.54960279999978,,002,P021,2025_May_08_1225,CategoryLocalizer,2021.2.3,59.930875727906916,
60.8,61.0,5,0.0,Stimuli\Blank.png,0,0,0,98,98,98,,,,,,,,,,,,,60.83654700000079,0.03654700000079458,None,98.33374860000004,98.33374860000004,98.33374860000004,98.33374860000004,98.33374860000004,98.33374860000004,98.33374860000004,98.33374860000004,,002,P021,2025_May_08_1225,CategoryLocalizer,2021.2.3,59.930875727906916,
61.0,61.8,4,0.75,Stimuli\ImageFiles-Set2\Scenes\Scenes_101.png,0,0,0,99,99,99,,,,,,,,,,,,,61.004315600000155,0.004315600000154518,None,98.51715739999963,98.51715739999963,98.51715739999963,98.51715739999963,98.51715739999963,98.51715739999963,98.51715739999963,98.51715739999963,,002,P021,2025_May_08_1225,CategoryLocalizer,2021.2.3,59.930875727906916,
61.8,62.0,5,0.0,Stimuli\Blank.png,0,0,0,100,100,100,,,,,,,,,,,,,61.81949050000003,0.01949050000003183,None,99.31785539999964,99.31785539999964,99.31785539999964,99.31785539999964,99.31785539999964,99.31785539999964,99.31785539999964,99.31785539999964,,002,P021,2025_May_08_1225,CategoryLocalizer,2021.2.3,59.930875727906916,
62.0,62.8,4,0.75,Stimuli\ImageFiles-Set2\Scenes\Scenes_086.png,0,0,0,101,101,101,,,,,,,,,,,,,62.00328979999995,0.003289799999947718,None,99.53472939999938,99.53472939999938,99.53472939999938,99.53472939999938,99.53472939999938,99.53472939999938,99.53472939999938,99.53472939999938,,002,P021,2025_May_08_1225,CategoryLocalizer,2021.2.3,59.930875727906916,
62.8,63.0,5,0.0,Stimuli\Blank.png,0,0,0,102,102,102,,,,,,,,,,,,,62.8376588000001,0.03765880000010213,None,100.33543159999954,100.33543159999954,100.33543159999954,100.33543159999954,100.33543159999954,100.33543159999954,100.33543159999954,100.33543159999954,,002,P021,2025_May_08_1225,CategoryLocalizer,2021.2.3,59.930875727906916,
63.0,63.8,4,0.75,Stimuli\ImageFiles-Set2\Scenes\Scenes_099.png,0,0,0,103,103,103,,,,,,,,,,,,,63.00452050000058,0.004520500000580796,None,100.51892869999938,100.51892869999938,100.51892869999938,100.51892869999938,100.51892869999938,100.51892869999938,100.51892869999938,100.51892869999938,,002,P021,2025_May_08_1225,CategoryLocalizer,2021.2.3,59.930875727906916,
63.8,64.0,5,0.0,Stimuli\Blank.png,0,0,0,104,104,104,,,,,,,,,,,,,63.82148430000052,0.02148430000052315,None,101.31963029999952,101.31963029999952,101.31963029999952,101.31963029999952,101.31963029999952,101.31963029999952,101.31963029999952,101.31963029999952,,002,P021,2025_May_08_1225,CategoryLocalizer,2021.2.3,59.930875727906916,
64.0,64.8,4,0.75,Stimuli\ImageFiles-Set2\Scenes\Scenes_092.png,0,0,0,105,105,105,,,,,,,,,,,,,64.00538330000018,0.00538330000017595,None,101.51981949999936,101.51981949999936,101.51981949999936,101.51981949999936,101.51981949999936,101.51981949999936,101.51981949999936,101.51981949999936,,002,P021,2025_May_08_1225,CategoryLocalizer,2021.2.3,59.930875727906916,
64.8,65.0,5,0.0,Stimuli\Blank.png,0,0,0,106,106,106,,,,,,,,,,,,,64.82534730000043,0.025347300000433393,None,102.3373345,102.3373345,102.3373345,102.3373345,102.3373345,102.3373345,102.3373345,102.3373345,,002,P021,2025_May_08_1225,CategoryLocalizer,2021.2.3,59.930875727906916,
65.0,65.8,4,0.75,Stimuli\ImageFiles-Set2\Scenes\Scenes_092.png,1,1,0,107,107,107,,,,,,,,,,,,,65.02375680000023,0.023756800000228395,1,102.5374071999995,102.5374071999995,102.5374071999995,102.5374071999995,102.5374071999995,102.5374071999995,102.5374071999995,102.5374071999995,0.5695374999995693,002,P021,2025_May_08_1225,CategoryLocalizer,2021.2.3,59.930875727906916,
65.8,66.0,5,0.0,Stimuli\Blank.png,0,0,0,108,108,108,,,,,,,,,,,,,65.82394879999993,0.023948799999928383,None,103.32141460000003,103.32141460000003,103.32141460000003,103.32141460000003,103.32141460000003,103.32141460000003,103.32141460000003,103.32141460000003,,002,P021,2025_May_08_1225,CategoryLocalizer,2021.2.3,59.930875727906916,
66.0,66.8,4,0.75,Stimuli\ImageFiles-Set2\Scenes\Scenes_106.png,0,0,0,109,109,109,,,,,,,,,,,,,66.00651310000012,0.0065131000001201755,None,103.5215948999994,103.5215948999994,103.5215948999994,103.5215948999994,103.5215948999994,103.5215948999994,103.5215948999994,103.5215948999994,,002,P021,2025_May_08_1225,CategoryLocalizer,2021.2.3,59.930875727906916,
66.8,67.0,5,0.0,Stimuli\Blank.png,0,0,0,110,110,110,,,,,,,,,,,,,66.82531259999996,0.025312599999963936,None,104.32231379999939,104.32231379999939,104.32231379999939,104.32231379999939,104.32231379999939,104.32231379999939,104.32231379999939,104.32231379999939,,002,P021,2025_May_08_1225,CategoryLocalizer,2021.2.3,59.930875727906916,
67.0,67.8,4,0.75,Stimuli\ImageFiles-Set2\Scenes\Scenes_096.png,0,0,0,111,111,111,,,,,,,,,,,,,67.01035480000064,0.010354800000641262,None,104.53916649999974,104.53916649999974,104.53916649999974,104.53916649999974,104.53916649999974,104.53916649999974,104.53916649999974,104.53916649999974,,002,P021,2025_May_08_1225,CategoryLocalizer,2021.2.3,59.930875727906916,
67.8,68.0,5,0.0,Stimuli\Blank.png,0,0,0,112,112,112,,,,,,,,,,,,,67.84393350000028,0.043933500000278514,None,105.3565596999997,105.3565596999997,105.3565596999997,105.3565596999997,105.3565596999997,105.3565596999997,105.3565596999997,105.3565596999997,,002,P021,2025_May_08_1225,CategoryLocalizer,2021.2.3,59.930875727906916,
68.0,68.8,4,0.75,Stimuli\ImageFiles-Set2\Scenes\Scenes_078.png,0,0,0,113,113,113,,,,,,,,,,,,,68.02561360000072,0.025613600000724546,None,105.5566958999998,105.5566958999998,105.5566958999998,105.5566958999998,105.5566958999998,105.5566958999998,105.5566958999998,105.5566958999998,,002,P021,2025_May_08_1225,CategoryLocalizer,2021.2.3,59.930875727906916,
68.8,69.0,5,0.0,Stimuli\Blank.png,0,0,0,114,114,114,,,,,,,,,,,,,68.84403310000016,0.04403310000016347,None,106.35743459999958,106.35743459999958,106.35743459999958,106.35743459999958,106.35743459999958,106.35743459999958,106.35743459999958,106.35743459999958,,002,P021,2025_May_08_1225,CategoryLocalizer,2021.2.3,59.930875727906916,
69.0,69.8,4,0.75,Stimuli\ImageFiles-Set2\Scenes\Scenes_064.png,0,0,0,115,115,115,,,,,,,,,,,,,69.02678240000023,0.026782400000229245,None,106.54092779999974,106.54092779999974,106.54092779999974,106.54092779999974,106.54092779999974,106.54092779999974,106.54092779999974,106.54092779999974,,002,P021,2025_May_08_1225,CategoryLocalizer,2021.2.3,59.930875727906916,
69.8,70.0,5,0.0,Stimuli\Blank.png,0,0,0,116,116,116,,,,,,,,,,,,,69.82762030000049,0.027620300000492648,None,107.32494329999918,107.32494329999918,107.32494329999918,107.32494329999918,107.32494329999918,107.32494329999918,107.32494329999918,107.32494329999918,,002,P021,2025_May_08_1225,CategoryLocalizer,2021.2.3,59.930875727906916,
70.0,70.8,4,0.75,Stimuli\ImageFiles-Set2\Scenes\Scenes_105.png,0,0,0,117,117,117,,,,,,,,,,,,,70.01109770000039,0.011097700000391342,None,107.5418024999999,107.5418024999999,107.5418024999999,107.5418024999999,107.5418024999999,107.5418024999999,107.5418024999999,107.5418024999999,,002,P021,2025_May_08_1225,CategoryLocalizer,2021.2.3,59.930875727906916,
70.8,71.0,5,0.0,Stimuli\Blank.png,0,0,0,118,118,118,,,,,,,,,,,,,70.8447098000006,0.04470980000060365,None,108.3425072,108.3425072,108.3425072,108.3425072,108.3425072,108.3425072,108.3425072,108.3425072,,002,P021,2025_May_08_1225,CategoryLocalizer,2021.2.3,59.930875727906916,
71.0,71.8,4,0.75,Stimuli\ImageFiles-Set2\Scenes\Scenes_061.png,1,1,0,119,119,119,,,,,,,,,,,,,71.01096790000065,0.010967900000650843,None,108.50931700000001,108.50931700000001,108.50931700000001,108.50931700000001,108.50931700000001,108.50931700000001,108.50931700000001,108.50931700000001,,002,P021,2025_May_08_1225,CategoryLocalizer,2021.2.3,59.930875727906916,
71.8,72.0,5,0.0,Stimuli\Blank.png,0,0,0,120,120,120,,,,,,,,,,,,,71.81268739999996,0.012687399999961713,None,109.31004379999922,109.31004379999922,109.31004379999922,109.31004379999922,109.31004379999922,109.31004379999922,109.31004379999922,109.31004379999922,,002,P021,2025_May_08_1225,CategoryLocalizer,2021.2.3,59.930875727906916,
72.0,72.8,4,0.75,Stimuli\ImageFiles-Set2\Scenes\Scenes_077.png,0,0,0,121,121,121,,,,,,,,,,,,,72.01335999999992,0.013359999999920547,None,109.54357149999942,109.54357149999942,109.54357149999942,109.54357149999942,109.54357149999942,109.54357149999942,109.54357149999942,109.54357149999942,,002,P021,2025_May_08_1225,CategoryLocalizer,2021.2.3,59.930875727906916,
72.8,73.0,5,0.0,Stimuli\Blank.png,0,0,0,122,122,122,,,,,,,,,,,,,72.84593880000011,0.04593880000011552,None,110.34428819999994,110.34428819999994,110.34428819999994,110.34428819999994,110.34428819999994,110.34428819999994,110.34428819999994,110.34428819999994,,002,P021,2025_May_08_1225,CategoryLocalizer,2021.2.3,59.930875727906916,
73.0,73.8,4,0.75,Stimuli\ImageFiles-Set2\Scenes\Scenes_077.png,0,0,0,123,123,123,,,,,,,,,,,,,73.01307500000075,0.01307500000075379,1,110.5110838999999,110.5110838999999,110.5110838999999,110.5110838999999,110.5110838999999,110.5110838999999,110.5110838999999,110.5110838999999,0.5617394000000786,002,P021,2025_May_08_1225,CategoryLocalizer,2021.2.3,59.930875727906916,
73.8,74.0,5,0.0,Stimuli\Blank.png,0,0,0,124,124,124,,,,,,,,,,,,,73.81350650000059,0.013506500000588062,None,111.31186059999982,111.31186059999982,111.31186059999982,111.31186059999982,111.31186059999982,111.31186059999982,111.31186059999982,111.31186059999982,,002,P021,2025_May_08_1225,CategoryLocalizer,2021.2.3,59.930875727906916,
74.0,74.8,4,0.75,Stimuli\ImageFiles-Set2\Scenes\Scenes_067.png,0,0,0,125,125,125,,,,,,,,,,,,,74.01472490000015,0.01472490000014659,None,111.54538909999974,111.54538909999974,111.54538909999974,111.54538909999974,111.54538909999974,111.54538909999974,111.54538909999974,111.54538909999974,,002,P021,2025_May_08_1225,CategoryLocalizer,2021.2.3,59.930875727906916,
74.8,75.0,5,0.0,Stimuli\Blank.png,0,0,0,126,126,126,,,,,,,,,,,,,74.84951570000067,0.04951570000066852,None,112.36273129999972,112.36273129999972,112.36273129999972,112.36273129999972,112.36273129999972,112.36273129999972,112.36273129999972,112.36273129999972,,002,P021,2025_May_08_1225,CategoryLocalizer,2021.2.3,59.930875727906916,
75.0,75.8,4,0.75,Stimuli\ImageFiles-Set2\Scenes\Scenes_068.png,0,0,0,127,127,127,,,,,,,,,,,,,75.01516080000056,0.015160800000558083,None,112.54622999999992,112.54622999999992,112.54622999999992,112.54622999999992,112.54622999999992,112.54622999999992,112.54622999999992,112.54622999999992,,002,P021,2025_May_08_1225,CategoryLocalizer,2021.2.3,59.930875727906916,
75.8,76.0,5,0.0,Stimuli\Blank.png,0,0,0,128,128,128,,,,,,,,,,,,,75.83183439999993,0.03183439999993709,None,113.33025579999958,113.33025579999958,113.33025579999958,113.33025579999958,113.33025579999958,113.33025579999958,113.33025579999958,113.33025579999958,,002,P021,2025_May_08_1225,CategoryLocalizer,2021.2.3,59.930875727906916,
76.0,88.0,0,0.0,Stimuli\Blank.png,0,0,0,129,129,129,,,,,,,,,,,,,76.01541090000046,0.01541090000046097,None,113.51375209999969,113.51375209999969,113.51375209999969,113.51375209999969,113.51375209999969,113.51375209999969,113.51375209999969,113.51375209999969,,002,P021,2025_May_08_1225,CategoryLocalizer,2021.2.3,59.930875727906916,
88.0,88.8,3,0.75,Stimuli\ImageFiles-Set2\Faces\Face_00082.png,0,0,0,130,130,130,,,,,,,,,,,,,88.00985540000056,0.009855400000560621,None,125.54103869999926,125.54103869999926,125.54103869999926,125.54103869999926,125.54103869999926,125.54103869999926,125.54103869999926,125.54103869999926,,002,P021,2025_May_08_1225,CategoryLocalizer,2021.2.3,59.930875727906916,
88.8,89.0,5,0.0,Stimuli\Blank.png,0,0,0,131,131,131,,,,,,,,,,,,,88.84404230000018,0.04404230000018572,None,126.3417473999998,126.3417473999998,126.3417473999998,126.3417473999998,126.3417473999998,126.3417473999998,126.3417473999998,126.3417473999998,,002,P021,2025_May_08_1225,CategoryLocalizer,2021.2.3,59.930875727906916,
89.0,89.8,3,0.75,Stimuli\ImageFiles-Set2\Faces\Face_00002.png,0,0,0,132,132,132,,,,,,,,,,,,,89.0100607000004,0.010060700000394718,None,126.52524749999975,126.52524749999975,126.52524749999975,126.52524749999975,126.52524749999975,126.52524749999975,126.52524749999975,126.52524749999975,,002,P021,2025_May_08_1225,CategoryLocalizer,2021.2.3,59.930875727906916,
89.8,90.0,5,0.0,Stimuli\Blank.png,0,0,0,133,133,133,,,,,,,,,,,,,89.8293947000002,0.029394700000196394,None,127.34263229999942,127.34263229999942,127.34263229999942,127.34263229999942,127.34263229999942,127.34263229999942,127.34263229999942,127.34263229999942,,002,P021,2025_May_08_1225,CategoryLocalizer,2021.2.3,59.930875727906916,
90.0,90.8,3,0.75,Stimuli\ImageFiles-Set2\Faces\Face_00052.png,0,0,0,134,134,134,,,,,,,,,,,,,90.03016260000004,0.030162600000039674,None,127.55949539999983,127.55949539999983,127.55949539999983,127.55949539999983,127.55949539999983,127.55949539999983,127.55949539999983,127.55949539999983,,002,P021,2025_May_08_1225,CategoryLocalizer,2021.2.3,59.930875727906916,
90.8,91.0,5,0.0,Stimuli\Blank.png,0,0,0,135,135,135,,,,,,,,,,,,,90.84579730000041,0.04579730000041593,None,128.3435153999999,128.3435153999999,128.3435153999999,128.3435153999999,128.3435153999999,128.3435153999999,128.3435153999999,128.3435153999999,,002,P021,2025_May_08_1225,CategoryLocalizer,2021.2.3,59.930875727906916,
91.0,91.8,3,0.75,Stimuli\ImageFiles-Set2\Faces\Face_00074.png,0,0,0,136,136,136,,,,,,,,,,,,,91.01444080000056,0.01444080000055692,None,128.5270206999994,128.5270206999994,128.5270206999994,128.5270206999994,128.5270206999994,128.5270206999994,128.5270206999994,128.5270206999994,,002,P021,2025_May_08_1225,CategoryLocalizer,2021.2.3,59.930875727906916,
91.8,92.0,5,0.0,Stimuli\Blank.png,0,0,0,137,137,137,,,,,,,,,,,,,91.82985600000029,0.029856000000293648,None,129.3277193999993,129.3277193999993,129.3277193999993,129.3277193999993,129.3277193999993,129.3277193999993,129.3277193999993,129.3277193999993,,002,P021,2025_May_08_1225,CategoryLocalizer,2021.2.3,59.930875727906916,
92.0,92.8,3,0.75,Stimuli\ImageFiles-Set2\Faces\Face_00046.png,0,0,0,138,138,138,,,,,,,,,,,,,92.01334970000062,0.013349700000617304,None,129.54461379999975,129.54461379999975,129.54461379999975,129.54461379999975,129.54461379999975,129.54461379999975,129.54461379999975,129.54461379999975,,002,P021,2025_May_08_1225,CategoryLocalizer,2021.2.3,59.930875727906916,
92.8,93.0,5,0.0,Stimuli\Blank.png,0,0,0,139,139,139,,,,,,,,,,,,,92.84687380000014,0.046873800000142296,None,130.34525179999946,130.34525179999946,130.34525179999946,130.34525179999946,130.34525179999946,130.34525179999946,130.34525179999946,130.34525179999946,,002,P021,2025_May_08_1225,CategoryLocalizer,2021.2.3,59.930875727906916,
93.0,93.8,3,0.75,Stimuli\ImageFiles-Set2\Faces\Face_00062.png,0,0,0,140,140,140,,,,,,,,,,,,,93.01426390000051,0.014263900000514695,None,130.52880939999977,130.52880939999977,130.52880939999977,130.52880939999977,130.52880939999977,130.52880939999977,130.52880939999977,130.52880939999977,,002,P021,2025_May_08_1225,CategoryLocalizer,2021.2.3,59.930875727906916,
93.8,94.0,5,0.0,Stimuli\Blank.png,0,0,0,141,141,141,,,,,,,,,,,,,93.8320162,0.03201620000000105,None,131.32948829999987,131.32948829999987,131.32948829999987,131.32948829999987,131.32948829999987,131.32948829999987,131.32948829999987,131.32948829999987,,002,P021,2025_May_08_1225,CategoryLocalizer,2021.2.3,59.930875727906916,
94.0,94.8,3,0.75,Stimuli\ImageFiles-Set2\Faces\Face_00072.png,0,0,0,142,142,142,,,,,,,,,,,,,94.01484230000005,0.01484230000005482,None,131.54637829999956,131.54637829999956,131.54637829999956,131.54637829999956,131.54637829999956,131.54637829999956,131.54637829999956,131.54637829999956,,002,P021,2025_May_08_1225,CategoryLocalizer,2021.2.3,59.930875727906916,
94.8,95.0,5,0.0,Stimuli\Blank.png,0,0,0,143,143,143,,,,,,,,,,,,,94.84920240000065,0.04920240000065235,None,132.34705289999965,132.34705289999965,132.34705289999965,132.34705289999965,132.34705289999965,132.34705289999965,132.34705289999965,132.34705289999965,,002,P021,2025_May_08_1225,CategoryLocalizer,2021.2.3,59.930875727906916,
95.0,95.8,3,0.75,Stimuli\ImageFiles-Set2\Faces\Face_00078.png,0,0,0,144,144,144,,,,,,,,,,,,,94.9995886000006,-0.00041139999939332483,None,132.51388959999986,132.51388959999986,132.51388959999986,132.51388959999986,132.51388959999986,132.51388959999986,132.51388959999986,132.51388959999986,,002,P021,2025_May_08_1225,CategoryLocalizer,2021.2.3,59.930875727906916,
95.8,96.0,5,0.0,Stimuli\Blank.png,0,0,0,145,145,145,,,,,,,,,,,,,95.81614210000043,0.0161421000004367,None,133.31457449999925,133.31457449999925,133.31457449999925,133.31457449999925,133.31457449999925,133.31457449999925,133.31457449999925,133.31457449999925,,002,P021,2025_May_08_1225,CategoryLocalizer,2021.2.3,59.930875727906916,
96.0,96.8,3,0.75,Stimuli\ImageFiles-Set2\Faces\Face_00078.png,1,1,0,146,146,146,,,,,,,,,,,,,95.99979430000076,-0.00020569999924191507,1,133.4980704999998,133.4980704999998,133.4980704999998,133.4980704999998,133.4980704999998,133.4980704999998,133.4980704999998,133.4980704999998,0.5090158000002702,002,P021,2025_May_08_1225,CategoryLocalizer,2021.2.3,59.930875727906916,
96.8,97.0,5,0.0,Stimuli\Blank.png,0,0,0,147,147,147,,,,,,,,,,,,,96.80058940000072,0.0005894000007202749,None,134.29877829999987,134.29877829999987,134.29877829999987,134.29877829999987,134.29877829999987,134.29877829999987,134.29877829999987,134.29877829999987,,002,P021,2025_May_08_1225,CategoryLocalizer,2021.2.3,59.930875727906916,
97.0,97.8,3,0.75,Stimuli\ImageFiles-Set2\Faces\Face_00068.png,0,0,0,148,148,148,,,,,,,,,,,,,97.00103370000033,0.0010337000003346475,None,134.53234789999988,134.53234789999988,134.53234789999988,134.53234789999988,134.53234789999988,134.53234789999988,134.53234789999988,134.53234789999988,,002,P021,2025_May_08_1225,CategoryLocalizer,2021.2.3,59.930875727906916,
97.8,98.0,5,0.0,Stimuli\Blank.png,0,0,0,149,149,149,,,,,,,,,,,,,97.8355401000008,0.035540100000801544,None,135.3330165999996,135.3330165999996,135.3330165999996,135.3330165999996,135.3330165999996,135.3330165999996,135.3330165999996,135.3330165999996,,002,P021,2025_May_08_1225,CategoryLocalizer,2021.2.3,59.930875727906916,
98.0,98.8,3,0.75,Stimuli\ImageFiles-Set2\Faces\Face_00110.png,0,0,0,150,150,150,,,,,,,,,,,,,98.00194900000042,0.0019490000004225294,None,135.53322949999983,135.53322949999983,135.53322949999983,135.53322949999983,135.53322949999983,135.53322949999983,135.53322949999983,135.53322949999983,,002,P021,2025_May_08_1225,CategoryLocalizer,2021.2.3,59.930875727906916,
98.8,99.0,5,0.0,Stimuli\Blank.png,0,0,0,151,151,151,,,,,,,,,,,,,98.83558880000055,0.03558880000055353,None,136.3339019999994,136.3339019999994,136.3339019999994,136.3339019999994,136.3339019999994,136.3339019999994,136.3339019999994,136.3339019999994,,002,P021,2025_May_08_1225,CategoryLocalizer,2021.2.3,59.930875727906916,
99.0,99.8,3,0.75,Stimuli\ImageFiles-Set2\Faces\Face_00094.png,0,0,0,152,152,152,,,,,,,,,,,,,99.00405670000055,0.004056700000546698,None,136.5341043999997,136.5341043999997,136.5341043999997,136.5341043999997,136.5341043999997,136.5341043999997,136.5341043999997,136.5341043999997,,002,P021,2025_May_08_1225,CategoryLocalizer,2021.2.3,59.930875727906916,
99.8,100.0,5,0.0,Stimuli\Blank.png,0,0,0,153,153,153,,,,,,,,,,,,,99.83917450000081,0.03917450000081146,None,137.3514744999993,137.3514744999993,137.3514744999993,137.3514744999993,137.3514744999993,137.3514744999993,137.3514744999993,137.3514744999993,,002,P021,2025_May_08_1225,CategoryLocalizer,2021.2.3,59.930875727906916,
100.0,100.8,3,0.75,Stimuli\ImageFiles-Set2\Faces\Face_00118.png,0,0,0,154,154,154,,,,,,,,,,,,,100.02058920000036,0.020589200000358687,None,137.51829169999928,137.51829169999928,137.51829169999928,137.51829169999928,137.51829169999928,137.51829169999928,137.51829169999928,137.51829169999928,,002,P021,2025_May_08_1225,CategoryLocalizer,2021.2.3,59.930875727906916,
100.8,101.0,5,0.0,Stimuli\Blank.png,0,0,0,155,155,155,,,,,,,,,,,,,100.80443340000056,0.004433400000564802,None,138.30232869999963,138.30232869999963,138.30232869999963,138.30232869999963,138.30232869999963,138.30232869999963,138.30232869999963,138.30232869999963,,002,P021,2025_May_08_1225,CategoryLocalizer,2021.2.3,59.930875727906916,
101.0,101.8,3,0.75,Stimuli\ImageFiles-Set2\Faces\Face_00023.png,0,0,0,156,156,156,,,,,,,,,,,,,101.00608319999992,0.006083199999920907,None,138.5197632999998,138.5197632999998,138.5197632999998,138.5197632999998,138.5197632999998,138.5197632999998,138.5197632999998,138.5197632999998,,002,P021,2025_May_08_1225,CategoryLocalizer,2021.2.3,59.930875727906916,
101.8,102.0,5,0.0,Stimuli\Blank.png,0,0,0,157,157,157,,,,,,,,,,,,,101.8221996000002,0.022199600000206487,None,139.3198825999998,139.3198825999998,139.3198825999998,139.3198825999998,139.3198825999998,139.3198825999998,139.3198825999998,139.3198825999998,,002,P021,2025_May_08_1225,CategoryLocalizer,2021.2.3,59.930875727906916,
102.0,102.8,3,0.75,Stimuli\ImageFiles-Set2\Faces\Face_00092.png,0,0,0,158,158,158,,,,,,,,,,,,,102.00499570000011,0.004995700000108627,None,139.53672779999943,139.53672779999943,139.53672779999943,139.53672779999943,139.53672779999943,139.53672779999943,139.53672779999943,139.53672779999943,,002,P021,2025_May_08_1225,CategoryLocalizer,2021.2.3,59.930875727906916,
102.8,103.0,5,0.0,Stimuli\Blank.png,0,0,0,159,159,159,,,,,,,,,,,,,102.84023650000017,0.040236500000176534,None,140.35412929999984,140.35412929999984,140.35412929999984,140.35412929999984,140.35412929999984,140.35412929999984,140.35412929999984,140.35412929999984,,002,P021,2025_May_08_1225,CategoryLocalizer,2021.2.3,59.930875727906916,
103.0,103.8,3,0.75,Stimuli\ImageFiles-Set2\Faces\Face_00084.png,0,0,0,160,160,160,,,,,,,,,,,,,103.02427250000073,0.024272500000734,None,140.55431939999926,140.55431939999926,140.55431939999926,140.55431939999926,140.55431939999926,140.55431939999926,140.55431939999926,140.55431939999926,,002,P021,2025_May_08_1225,CategoryLocalizer,2021.2.3,59.930875727906916,
103.8,104.0,5,0.0,Stimuli\Blank.png,0,0,0,161,161,161,,,,,,,,,,,,,103.84050819999993,0.040508199999933936,None,141.33832799999982,141.33832799999982,141.33832799999982,141.33832799999982,141.33832799999982,141.33832799999982,141.33832799999982,141.33832799999982,,002,P021,2025_May_08_1225,CategoryLocalizer,2021.2.3,59.930875727906916,
104.0,104.8,1,0.75,Stimuli\ImageFiles-Set2\Objects\Object_Desk_00001.png,0,0,0,162,162,162,,,,,,,,,,,,,104.00717950000035,0.007179500000347616,None,141.5217931999996,141.5217931999996,141.5217931999996,141.5217931999996,141.5217931999996,141.5217931999996,141.5217931999996,141.5217931999996,,002,P021,2025_May_08_1225,CategoryLocalizer,2021.2.3,59.930875727906916,
104.8,105.0,5,0.0,Stimuli\Blank.png,0,0,0,163,163,163,,,,,,,,,,,,,104.82474619999994,0.024746199999938767,None,142.32253619999938,142.32253619999938,142.32253619999938,142.32253619999938,142.32253619999938,142.32253619999938,142.32253619999938,142.32253619999938,,002,P021,2025_May_08_1225,CategoryLocalizer,2021.2.3,59.930875727906916,
105.0,105.8,1,0.75,Stimuli\ImageFiles-Set2\Objects\Object_Ambulance_00001.png,0,0,0,164,164,164,,,,,,,,,,,,,105.00872479999998,0.00872479999998177,None,142.53940189999958,142.53940189999958,142.53940189999958,142.53940189999958,142.53940189999958,142.53940189999958,142.53940189999958,142.53940189999958,,002,P021,2025_May_08_1225,CategoryLocalizer,2021.2.3,59.930875727906916,
105.8,106.0,5,0.0,Stimuli\Blank.png,0,0,0,165,165,165,,,,,,,,,,,,,105.84184690000075,0.04184690000074909,None,143.34009329999935,143.34009329999935,143.34009329999935,143.34009329999935,143.34009329999935,143.34009329999935,143.34009329999935,143.34009329999935,,002,P021,2025_May_08_1225,CategoryLocalizer,2021.2.3,59.930875727906916,
106.0,106.8,1,0.75,Stimuli\ImageFiles-Set2\Objects\Object_Button1_00001.png,0,0,0,166,166,166,,,,,,,,,,,,,106.00965320000068,0.009653200000684592,None,143.52359009999964,143.52359009999964,143.52359009999964,143.52359009999964,143.52359009999964,143.52359009999964,143.52359009999964,143.52359009999964,,002,P021,2025_May_08_1225,CategoryLocalizer,2021.2.3,59.930875727906916,
106.8,107.0,5,0.0,Stimuli\Blank.png,0,0,0,167,167,167,,,,,,,,,,,,,106.82623660000081,0.026236600000814292,None,144.32430249999925,144.32430249999925,144.32430249999925,144.32430249999925,144.32430249999925,144.32430249999925,144.32430249999925,144.32430249999925,,002,P021,2025_May_08_1225,CategoryLocalizer,2021.2.3,59.930875727906916,
107.0,107.8,1,0.75,Stimuli\ImageFiles-Set2\Objects\Object_Paper_00001.png,0,0,0,168,168,168,,,,,,,,,,,,,107.01018750000003,0.010187500000029104,1,144.52444560000004,144.52444560000004,144.52444560000004,144.52444560000004,144.52444560000004,144.52444560000004,144.52444560000004,144.52444560000004,0.4084413999999015,002,P021,2025_May_08_1225,CategoryLocalizer,2021.2.3,59.930875727906916,
107.8,108.0,5,0.0,Stimuli\Blank.png,0,0,0,169,169,169,,,,,,,,,,,,,107.82750870000018,0.02750870000018324,None,145.32519729999967,145.32519729999967,145.32519729999967,145.32519729999967,145.32519729999967,145.32519729999967,145.32519729999967,145.32519729999967,,002,P021,2025_May_08_1225,CategoryLocalizer,2021.2.3,59.930875727906916,
108.0,108.8,1,0.75,Stimuli\ImageFiles-Set2\Objects\Object_Noodle_00001.png,0,0,0,170,170,170,,,,,,,,,,,,,108.0102908000008,0.010290800000802847,None,145.52538829999958,145.52538829999958,145.52538829999958,145.52538829999958,145.52538829999958,145.52538829999958,145.52538829999958,145.52538829999958,,002,P021,2025_May_08_1225,CategoryLocalizer,2021.2.3,59.930875727906916,
108.8,109.0,5,0.0,Stimuli\Blank.png,0,0,0,171,171,171,,,,,,,,,,,,,108.82843440000033,0.028434400000335813,None,146.3260737999999,146.3260737999999,146.3260737999999,146.3260737999999,146.3260737999999,146.3260737999999,146.3260737999999,146.3260737999999,,002,P021,2025_May_08_1225,CategoryLocalizer,2021.2.3,59.930875727906916,
109.0,109.8,1,0.75,Stimuli\ImageFiles-Set2\Objects\Object_Razor_00001.png,0,0,0,172,172,172,,,,,,,,,,,,,109.01191880000079,0.011918800000785268,None,146.50953299999946,146.50953299999946,146.50953299999946,146.50953299999946,146.50953299999946,146.50953299999946,146.50953299999946,146.50953299999946,,002,P021,2025_May_08_1225,CategoryLocalizer,2021.2.3,59.930875727906916,
109.8,110.0,5,0.0,Stimuli\Blank.png,0,0,0,173,173,173,,,,,,,,,,,,,109.81250100000034,0.012501000000341378,None,147.31027399999948,147.31027399999948,147.31027399999948,147.31027399999948,147.31027399999948,147.31027399999948,147.31027399999948,147.31027399999948,,002,P021,2025_May_08_1225,CategoryLocalizer,2021.2.3,59.930875727906916,
110.0,110.8,1,0.75,Stimuli\ImageFiles-Set2\Objects\Object_Razor_00001.png,1,1,0,174,174,174,,,,,,,,,,,,,110.01216019999993,0.01216019999992568,1,147.51044490000004,147.51044490000004,147.51044490000004,147.51044490000004,147.51044490000004,147.51044490000004,147.51044490000004,147.51044490000004,0.4994440000000395,002,P021,2025_May_08_1225,CategoryLocalizer,2021.2.3,59.930875727906916,
110.8,111.0,5,0.0,Stimuli\Blank.png,0,0,0,175,175,175,,,,,,,,,,,,,110.81293069999992,0.012930699999927242,None,148.31115689999933,148.31115689999933,148.31115689999933,148.31115689999933,148.31115689999933,148.31115689999933,148.31115689999933,148.31115689999933,,002,P021,2025_May_08_1225,CategoryLocalizer,2021.2.3,59.930875727906916,
111.0,111.8,1,0.75,Stimuli\ImageFiles-Set2\Objects\Object_Coffee_00001.png,0,0,0,176,176,176,,,,,,,,,,,,,111.01367430000028,0.013674300000275252,None,148.5113257999992,148.5113257999992,148.5113257999992,148.5113257999992,148.5113257999992,148.5113257999992,148.5113257999992,148.5113257999992,,002,P021,2025_May_08_1225,CategoryLocalizer,2021.2.3,59.930875727906916,
111.8,112.0,5,0.0,Stimuli\Blank.png,0,0,0,177,177,177,,,,,,,,,,,,,111.81398890000037,0.013988900000370563,None,149.31204499999967,149.31204499999967,149.31204499999967,149.31204499999967,149.31204499999967,149.31204499999967,149.31204499999967,149.31204499999967,,002,P021,2025_May_08_1225,CategoryLocalizer,2021.2.3,59.930875727906916,
112.0,112.8,1,0.75,Stimuli\ImageFiles-Set2\Objects\Object_Switch_00001.png,0,0,0,178,178,178,,,,,,,,,,,,,112.0137448000005,0.013744800000495161,None,149.52891849999924,149.52891849999924,149.52891849999924,149.52891849999924,149.52891849999924,149.52891849999924,149.52891849999924,149.52891849999924,,002,P021,2025_May_08_1225,CategoryLocalizer,2021.2.3,59.930875727906916,
112.8,113.0,5,0.0,Stimuli\Blank.png,0,0,0,179,179,179,,,,,,,,,,,,,112.83120580000013,0.031205800000137174,None,150.32961439999963,150.32961439999963,150.32961439999963,150.32961439999963,150.32961439999963,150.32961439999963,150.32961439999963,150.32961439999963,,002,P021,2025_May_08_1225,CategoryLocalizer,2021.2.3,59.930875727906916,
113.0,113.8,1,0.75,Stimuli\ImageFiles-Set2\Objects\Object_Scissors_00001.png,0,0,0,180,180,180,,,,,,,,,,,,,113.01489170000059,0.01489170000058948,None,150.54647729999942,150.54647729999942,150.54647729999942,150.54647729999942,150.54647729999942,150.54647729999942,150.54647729999942,150.54647729999942,,002,P021,2025_May_08_1225,CategoryLocalizer,2021.2.3,59.930875727906916,
113.8,114.0,5,0.0,Stimuli\Blank.png,0,0,0,181,181,181,,,,,,,,,,,,,113.85004270000081,0.0500427000008159,None,151.36388669999997,151.36388669999997,151.36388669999997,151.36388669999997,151.36388669999997,151.36388669999997,151.36388669999997,151.36388669999997,,002,P021,2025_May_08_1225,CategoryLocalizer,2021.2.3,59.930875727906916,
114.0,114.8,1,0.75,Stimuli\ImageFiles-Set2\Objects\Object_Shovel_00001.png,0,0,0,182,182,182,,,,,,,,,,,,,114.01556690000052,0.015566900000521855,None,151.53067119999923,151.53067119999923,151.53067119999923,151.53067119999923,151.53067119999923,151.53067119999923,151.53067119999923,151.53067119999923,,002,P021,2025_May_08_1225,CategoryLocalizer,2021.2.3,59.930875727906916,
114.8,115.0,5,0.0,Stimuli\Blank.png,0,0,0,183,183,183,,,,,,,,,,,,,114.8162439000007,0.016243900000702638,None,152.31468979999954,152.31468979999954,152.31468979999954,152.31468979999954,152.31468979999954,152.31468979999954,152.31468979999954,152.31468979999954,,002,P021,2025_May_08_1225,CategoryLocalizer,2021.2.3,59.930875727906916,
115.0,115.8,1,0.75,Stimuli\ImageFiles-Set2\Objects\Object_Walker_00001.png,1,1,0,184,184,184,,,,,,,,,,,,,114.99982679999994,-0.00017320000006293412,None,152.53156949999993,152.53156949999993,152.53156949999993,152.53156949999993,152.53156949999993,152.53156949999993,152.53156949999993,152.53156949999993,,002,P021,2025_May_08_1225,CategoryLocalizer,2021.2.3,59.930875727906916,
115.8,116.0,5,0.0,Stimuli\Blank.png,0,0,0,185,185,185,,,,,,,,,,,,,115.83492079999996,0.034920799999966334,None,153.33226019999984,153.33226019999984,153.33226019999984,153.33226019999984,153.33226019999984,153.33226019999984,153.33226019999984,153.33226019999984,,002,P021,2025_May_08_1225,CategoryLocalizer,2021.2.3,59.930875727906916,
116.0,116.8,1,0.75,Stimuli\ImageFiles-Set2\Objects\Object_Sandal_00001.png,0,0,0,186,186,186,,,,,,,,,,,,,116.00155440000071,0.0015544000007139402,None,153.51577049999923,153.51577049999923,153.51577049999923,153.51577049999923,153.51577049999923,153.51577049999923,153.51577049999923,153.51577049999923,,002,P021,2025_May_08_1225,CategoryLocalizer,2021.2.3,59.930875727906916,
116.8,117.0,5,0.0,Stimuli\Blank.png,0,0,0,187,187,187,,,,,,,,,,,,,116.8180581000006,0.018058100000601485,None,154.31651689999944,154.31651689999944,154.31651689999944,154.31651689999944,154.31651689999944,154.31651689999944,154.31651689999944,154.31651689999944,,002,P021,2025_May_08_1225,CategoryLocalizer,2021.2.3,59.930875727906916,
117.0,117.8,1,0.75,Stimuli\ImageFiles-Set2\Objects\Object_Sandal_00001.png,0,0,0,188,188,188,,,,,,,,,,,,,117.00419560000046,0.004195600000457489,1,154.51664059999985,154.51664059999985,154.51664059999985,154.51664059999985,154.51664059999985,154.51664059999985,154.51664059999985,154.51664059999985,0.5081531999994695,002,P021,2025_May_08_1225,CategoryLocalizer,2021.2.3,59.930875727906916,
117.8,118.0,5,0.0,Stimuli\Blank.png,0,0,0,189,189,189,,,,,,,,,,,,,117.8195925,0.019592500000001678,None,155.31735229999958,155.31735229999958,155.31735229999958,155.31735229999958,155.31735229999958,155.31735229999958,155.31735229999958,155.31735229999958,,002,P021,2025_May_08_1225,CategoryLocalizer,2021.2.3,59.930875727906916,
118.0,118.8,1,0.75,Stimuli\ImageFiles-Set2\Objects\Object_Barrel_00001.png,0,0,0,190,190,190,,,,,,,,,,,,,118.00295460000052,0.002954600000521168,None,155.53422839999985,155.53422839999985,155.53422839999985,155.53422839999985,155.53422839999985,155.53422839999985,155.53422839999985,155.53422839999985,,002,P021,2025_May_08_1225,CategoryLocalizer,2021.2.3,59.930875727906916,
118.8,119.0,5,0.0,Stimuli\Blank.png,0,0,0,191,191,191,,,,,,,,,,,,,118.8370859000006,0.037085900000604965,None,156.33488679999937,156.33488679999937,156.33488679999937,156.33488679999937,156.33488679999937,156.33488679999937,156.33488679999937,156.33488679999937,,002,P021,2025_May_08_1225,CategoryLocalizer,2021.2.3,59.930875727906916,
119.0,119.8,1,0.75,Stimuli\ImageFiles-Set2\Objects\Object_Tomato_00001.png,0,0,0,192,192,192,,,,,,,,,,,,,119.00475140000071,0.004751400000714057,None,156.5351413999997,156.5351413999997,156.5351413999997,156.5351413999997,156.5351413999997,156.5351413999997,156.5351413999997,156.5351413999997,,002,P021,2025_May_08_1225,CategoryLocalizer,2021.2.3,59.930875727906916,
119.8,120.0,5,0.0,Stimuli\Blank.png,0,0,0,193,193,193,,,,,,,,,,,,,119.83775110000079,0.03775110000078996,None,157.3358537999993,157.3358537999993,157.3358537999993,157.3358537999993,157.3358537999993,157.3358537999993,157.3358537999993,157.3358537999993,,002,P021,2025_May_08_1225,CategoryLocalizer,2021.2.3,59.930875727906916,
120.0,120.8,4,0.75,Stimuli\ImageFiles-Set2\Scenes\Scenes_118.png,0,0,0,194,194,194,,,,,,,,,,,,,120.00433010000052,0.004330100000515813,None,157.51928969999972,157.51928969999972,157.51928969999972,157.51928969999972,157.51928969999972,157.51928969999972,157.51928969999972,157.51928969999972,,002,P021,2025_May_08_1225,CategoryLocalizer,2021.2.3,59.930875727906916,
120.8,121.0,5,0.0,Stimuli\Blank.png,0,0,0,195,195,195,,,,,,,,,,,,,120.82229850000022,0.02229850000021827,None,158.3200055999996,158.3200055999996,158.3200055999996,158.3200055999996,158.3200055999996,158.3200055999996,158.3200055999996,158.3200055999996,,002,P021,2025_May_08_1225,CategoryLocalizer,2021.2.3,59.930875727906916,
121.0,121.8,4,0.75,Stimuli\ImageFiles-Set2\Scenes\Scenes_090.png,0,0,0,196,196,196,,,,,,,,,,,,,121.00528780000059,0.005287800000587595,None,158.53686359999938,158.53686359999938,158.53686359999938,158.53686359999938,158.53686359999938,158.53686359999938,158.53686359999938,158.53686359999938,,002,P021,2025_May_08_1225,CategoryLocalizer,2021.2.3,59.930875727906916,
121.8,122.0,5,0.0,Stimuli\Blank.png,0,0,0,197,197,197,,,,,,,,,,,,,121.83978990000014,0.039789900000144485,None,159.3375718999996,159.3375718999996,159.3375718999996,159.3375718999996,159.3375718999996,159.3375718999996,159.3375718999996,159.3375718999996,,002,P021,2025_May_08_1225,CategoryLocalizer,2021.2.3,59.930875727906916,
122.0,122.8,4,0.75,Stimuli\ImageFiles-Set2\Scenes\Scenes_074.png,0,0,0,198,198,198,,,,,,,,,,,,,122.00594480000018,0.005944800000179384,None,159.53775369999948,159.53775369999948,159.53775369999948,159.53775369999948,159.53775369999948,159.53775369999948,159.53775369999948,159.53775369999948,,002,P021,2025_May_08_1225,CategoryLocalizer,2021.2.3,59.930875727906916,
122.8,123.0,5,0.0,Stimuli\Blank.png,0,0,0,199,199,199,,,,,,,,,,,,,122.8403358000005,0.04033580000050563,None,160.33844399999998,160.33844399999998,160.33844399999998,160.33844399999998,160.33844399999998,160.33844399999998,160.33844399999998,160.33844399999998,,002,P021,2025_May_08_1225,CategoryLocalizer,2021.2.3,59.930875727906916,
123.0,123.8,4,0.75,Stimuli\ImageFiles-Set2\Scenes\Scenes_069.png,0,0,0,200,200,200,,,,,,,,,,,,,123.00749910000013,0.007499100000131875,None,160.53862169999957,160.53862169999957,160.53862169999957,160.53862169999957,160.53862169999957,160.53862169999957,160.53862169999957,160.53862169999957,,002,P021,2025_May_08_1225,CategoryLocalizer,2021.2.3,59.930875727906916,
123.8,124.0,5,0.0,Stimuli\Blank.png,0,0,0,201,201,201,,,,,,,,,,,,,123.84173400000054,0.04173400000054528,None,161.3393344999995,161.3393344999995,161.3393344999995,161.3393344999995,161.3393344999995,161.3393344999995,161.3393344999995,161.3393344999995,,002,P021,2025_May_08_1225,CategoryLocalizer,2021.2.3,59.930875727906916,
124.0,124.8,4,0.75,Stimuli\ImageFiles-Set2\Scenes\Scenes_116.png,0,0,0,202,202,202,,,,,,,,,,,,,124.01020670000071,0.010206700000708224,None,161.53961469999922,161.53961469999922,161.53961469999922,161.53961469999922,161.53961469999922,161.53961469999922,161.53961469999922,161.53961469999922,,002,P021,2025_May_08_1225,CategoryLocalizer,2021.2.3,59.930875727906916,
124.8,125.0,5,0.0,Stimuli\Blank.png,0,0,0,203,203,203,,,,,,,,,,,,,124.8441655000006,0.044165500000602265,None,162.3569097999998,162.3569097999998,162.3569097999998,162.3569097999998,162.3569097999998,162.3569097999998,162.3569097999998,162.3569097999998,,002,P021,2025_May_08_1225,CategoryLocalizer,2021.2.3,59.930875727906916,
125.0,125.8,4,0.75,Stimuli\ImageFiles-Set2\Scenes\Scenes_080.png,0,0,0,204,204,204,,,,,,,,,,,,,125.02538200000072,0.025382000000718108,None,162.55708819999927,162.55708819999927,162.55708819999927,162.55708819999927,162.55708819999927,162.55708819999927,162.55708819999927,162.55708819999927,,002,P021,2025_May_08_1225,CategoryLocalizer,2021.2.3,59.930875727906916,
125.8,126.0,5,0.0,Stimuli\Blank.png,0,0,0,205,205,205,,,,,,,,,,,,,125.8451812000003,0.04518120000030024,None,163.35778889999983,163.35778889999983,163.35778889999983,163.35778889999983,163.35778889999983,163.35778889999983,163.35778889999983,163.35778889999983,,002,P021,2025_May_08_1225,CategoryLocalizer,2021.2.3,59.930875727906916,
126.0,126.8,4,0.75,Stimuli\ImageFiles-Set2\Scenes\Scenes_097.png,0,0,0,206,206,206,,,,,,,,,,,,,126.02619990000039,0.026199900000392518,None,163.54127209999933,163.54127209999933,163.54127209999933,163.54127209999933,163.54127209999933,163.54127209999933,163.54127209999933,163.54127209999933,,002,P021,2025_May_08_1225,CategoryLocalizer,2021.2.3,59.930875727906916,
126.8,127.0,5,0.0,Stimuli\Blank.png,0,0,0,207,207,207,,,,,,,,,,,,,126.82700990000012,0.02700990000012382,None,164.32538979999936,164.32538979999936,164.32538979999936,164.32538979999936,164.32538979999936,164.32538979999936,164.32538979999936,164.32538979999936,,002,P021,2025_May_08_1225,CategoryLocalizer,2021.2.3,59.930875727906916,
127.0,127.8,4,0.75,Stimuli\ImageFiles-Set2\Scenes\Scenes_097.png,1,1,0,208,208,208,,,,,,,,,,,,,127.01113680000071,0.011136800000713265,1,164.50879839999925,164.50879839999925,164.50879839999925,164.50879839999925,164.50879839999925,164.50879839999925,164.50879839999925,164.50879839999925,0.598106800000096,002,P021,2025_May_08_1225,CategoryLocalizer,2021.2.3,59.930875727906916,
127.8,128.0,5,0.0,Stimuli\Blank.png,0,0,0,209,209,209,,,,,,,,,,,,,127.81179900000006,0.011799000000067394,None,165.30949769999916,165.30949769999916,165.30949769999916,165.30949769999916,165.30949769999916,165.30949769999916,165.30949769999916,165.30949769999916,,002,P021,2025_May_08_1225,CategoryLocalizer,2021.2.3,59.930875727906916,
128.0,128.8,4,0.75,Stimuli\ImageFiles-Set2\Scenes\Scenes_095.png,0,0,0,210,210,210,,,,,,,,,,,,,128.01171800000066,0.011718000000655593,None,165.5430437999994,165.5430437999994,165.5430437999994,165.5430437999994,165.5430437999994,165.5430437999994,165.5430437999994,165.5430437999994,,002,P021,2025_May_08_1225,CategoryLocalizer,2021.2.3,59.930875727906916,
128.8,129.0,5,0.0,Stimuli\Blank.png,0,0,0,211,211,211,,,,,,,,,,,,,128.84561530000065,0.04561530000063385,None,166.34376249999968,166.34376249999968,166.34376249999968,166.34376249999968,166.34376249999968,166.34376249999968,166.34376249999968,166.34376249999968,,002,P021,2025_May_08_1225,CategoryLocalizer,2021.2.3,59.930875727906916,
129.0,129.8,4,0.75,Stimuli\ImageFiles-Set2\Scenes\Scenes_093.png,0,0,0,212,212,212,,,,,,,,,,,,,129.0142353000001,0.014235300000109419,None,166.54393009999967,166.54393009999967,166.54393009999967,166.54393009999967,166.54393009999967,166.54393009999967,166.54393009999967,166.54393009999967,,002,P021,2025_May_08_1225,CategoryLocalizer,2021.2.3,59.930875727906916,
129.8,130.0,5,0.0,Stimuli\Blank.png,0,0,0,213,213,213,,,,,,,,,,,,,129.84673050000038,0.04673050000036483,None,167.34465339999952,167.34465339999952,167.34465339999952,167.34465339999952,167.34465339999952,167.34465339999952,167.34465339999952,167.34465339999952,,002,P021,2025_May_08_1225,CategoryLocalizer,2021.2.3,59.930875727906916,
130.0,130.8,4,0.75,Stimuli\ImageFiles-Set2\Scenes\Scenes_087.png,0,0,0,214,214,214,,,,,,,,,,,,,130.01383690000057,0.013836900000569585,None,167.54487359999985,167.54487359999985,167.54487359999985,167.54487359999985,167.54487359999985,167.54487359999985,167.54487359999985,167.54487359999985,,002,P021,2025_May_08_1225,CategoryLocalizer,2021.2.3,59.930875727906916,
130.8,131.0,5,0.0,Stimuli\Blank.png,0,0,0,215,215,215,,,,,,,,,,,,,130.84856750000017,0.048567500000160635,None,168.3455282999994,168.3455282999994,168.3455282999994,168.3455282999994,168.3455282999994,168.3455282999994,168.3455282999994,168.3455282999994,,002,P021,2025_May_08_1225,CategoryLocalizer,2021.2.3,59.930875727906916,
131.0,131.8,4,0.75,Stimuli\ImageFiles-Set2\Scenes\Scenes_111.png,0,0,0,216,216,216,,,,,,,,,,,,,131.0144734000005,0.01447340000049735,None,168.52905669999927,168.52905669999927,168.52905669999927,168.52905669999927,168.52905669999927,168.52905669999927,168.52905669999927,168.52905669999927,,002,P021,2025_May_08_1225,CategoryLocalizer,2021.2.3,59.930875727906916,
131.8,132.0,5,0.0,Stimuli\Blank.png,0,0,0,217,217,217,,,,,,,,,,,,,131.83261390000007,0.03261390000005804,None,169.3298150999999,169.3298150999999,169.3298150999999,169.3298150999999,169.3298150999999,169.3298150999999,169.3298150999999,169.3298150999999,,002,P021,2025_May_08_1225,CategoryLocalizer,2021.2.3,59.930875727906916,
132.0,132.8,4,0.75,Stimuli\ImageFiles-Set2\Scenes\Scenes_072.png,0,0,0,218,218,218,,,,,,,,,,,,,131.99874960000034,-0.001250399999662477,None,169.5132608999993,169.5132608999993,169.5132608999993,169.5132608999993,169.5132608999993,169.5132608999993,169.5132608999993,169.5132608999993,,002,P021,2025_May_08_1225,CategoryLocalizer,2021.2.3,59.930875727906916,
132.8,133.0,5,0.0,Stimuli\Blank.png,0,0,0,219,219,219,,,,,,,,,,,,,132.81555500000013,0.01555500000011989,None,170.31390549999924,170.31390549999924,170.31390549999924,170.31390549999924,170.31390549999924,170.31390549999924,170.31390549999924,170.31390549999924,,002,P021,2025_May_08_1225,CategoryLocalizer,2021.2.3,59.930875727906916,
133.0,133.8,4,0.75,Stimuli\ImageFiles-Set2\Scenes\Scenes_065.png,0,0,0,220,220,220,,,,,,,,,,,,,133.00002980000045,2.9800000447721686e-05,None,170.51411069999995,170.51411069999995,170.51411069999995,170.51411069999995,170.51411069999995,170.51411069999995,170.51411069999995,170.51411069999995,,002,P021,2025_May_08_1225,CategoryLocalizer,2021.2.3,59.930875727906916,
133.8,134.0,5,0.0,Stimuli\Blank.png,0,0,0,221,221,221,,,,,,,,,,,,,133.81640220000008,0.016402200000072753,None,171.3148128999992,171.3148128999992,171.3148128999992,171.3148128999992,171.3148128999992,171.3148128999992,171.3148128999992,171.3148128999992,,002,P021,2025_May_08_1225,CategoryLocalizer,2021.2.3,59.930875727906916,
134.0,134.8,4,0.75,Stimuli\ImageFiles-Set2\Scenes\Scenes_102.png,0,0,0,222,222,222,,,,,,,,,,,,,134.00069800000074,0.0006980000007388298,None,171.51497779999954,171.51497779999954,171.51497779999954,171.51497779999954,171.51497779999954,171.51497779999954,171.51497779999954,171.51497779999954,,002,P021,2025_May_08_1225,CategoryLocalizer,2021.2.3,59.930875727906916,
134.8,135.0,5,0.0,Stimuli\Blank.png,0,0,0,223,223,223,,,,,,,,,,,,,134.8200198000004,0.020019800000397936,None,172.3323959999998,172.3323959999998,172.3323959999998,172.3323959999998,172.3323959999998,172.3323959999998,172.3323959999998,172.3323959999998,,002,P021,2025_May_08_1225,CategoryLocalizer,2021.2.3,59.930875727906916,
135.0,135.8,4,0.75,Stimuli\ImageFiles-Set2\Scenes\Scenes_066.png,0,0,0,224,224,224,,,,,,,,,,,,,135.01924670000062,0.019246700000621786,None,172.54922989999977,172.54922989999977,172.54922989999977,172.54922989999977,172.54922989999977,172.54922989999977,172.54922989999977,172.54922989999977,,002,P021,2025_May_08_1225,CategoryLocalizer,2021.2.3,59.930875727906916,
135.8,136.0,5,0.0,Stimuli\Blank.png,0,0,0,225,225,225,,,,,,,,,,,,,135.83560530000068,0.035605300000668194,None,173.33326169999964,173.33326169999964,173.33326169999964,173.33326169999964,173.33326169999964,173.33326169999964,173.33326169999964,173.33326169999964,,002,P021,2025_May_08_1225,CategoryLocalizer,2021.2.3,59.930875727906916,
136.0,136.8,2,0.75,Stimuli\ImageFiles-Set2\Bodies\Bodies_SittingChair_00004.png,0,0,0,226,226,226,,,,,,,,,,,,,136.0016359000001,0.0016359000001102686,None,173.50007559999995,173.50007559999995,173.50007559999995,173.50007559999995,173.50007559999995,173.50007559999995,173.50007559999995,173.50007559999995,,002,P021,2025_May_08_1225,CategoryLocalizer,2021.2.3,59.930875727906916,
136.8,137.0,5,0.0,Stimuli\Blank.png,0,0,0,227,227,227,,,,,,,,,,,,,136.80522760000076,0.005227600000750954,None,174.31745579999915,174.31745579999915,174.31745579999915,174.31745579999915,174.31745579999915,174.31745579999915,174.31745579999915,174.31745579999915,,002,P021,2025_May_08_1225,CategoryLocalizer,2021.2.3,59.930875727906916,
137.0,137.8,2,0.75,Stimuli\ImageFiles-Set2\Bodies\Bodies_DownwardDog_00004.png,0,0,0,228,228,228,,,,,,,,,,,,,137.02003310000055,0.020033100000546256,None,174.53431269999965,174.53431269999965,174.53431269999965,174.53431269999965,174.53431269999965,174.53431269999965,174.53431269999965,174.53431269999965,,002,P021,2025_May_08_1225,CategoryLocalizer,2021.2.3,59.930875727906916,
137.8,138.0,5,0.0,Stimuli\Blank.png,0,0,0,229,229,229,,,,,,,,,,,,,137.82086980000076,0.020869800000753003,None,175.31838229999994,175.31838229999994,175.31838229999994,175.31838229999994,175.31838229999994,175.31838229999994,175.31838229999994,175.31838229999994,,002,P021,2025_May_08_1225,CategoryLocalizer,2021.2.3,59.930875727906916,
138.0,138.8,2,0.75,Stimuli\ImageFiles-Set2\Bodies\Bodies_Standing_00004.png,0,0,0,230,230,230,,,,,,,,,,,,,138.0040613000001,0.004061300000103074,None,175.51848869999958,175.51848869999958,175.51848869999958,175.51848869999958,175.51848869999958,175.51848869999958,175.51848869999958,175.51848869999958,,002,P021,2025_May_08_1225,CategoryLocalizer,2021.2.3,59.930875727906916,
138.8,139.0,5,0.0,Stimuli\Blank.png,0,0,0,231,231,231,,,,,,,,,,,,,138.82094000000052,0.020940000000507553,None,176.31923519999964,176.31923519999964,176.31923519999964,176.31923519999964,176.31923519999964,176.31923519999964,176.31923519999964,176.31923519999964,,002,P021,2025_May_08_1225,CategoryLocalizer,2021.2.3,59.930875727906916,
139.0,139.8,2,0.75,Stimuli\ImageFiles-Set2\Bodies\Bodies_Lunging_00006.png,0,0,0,232,232,232,,,,,,,,,,,,,139.00642760000028,0.006427600000279199,None,176.5194503999992,176.5194503999992,176.5194503999992,176.5194503999992,176.5194503999992,176.5194503999992,176.5194503999992,176.5194503999992,,002,P021,2025_May_08_1225,CategoryLocalizer,2021.2.3,59.930875727906916,
139.8,140.0,5,0.0,Stimuli\Blank.png,0,0,0,233,233,233,,,,,,,,,,,,,139.82390360000045,0.023903600000437564,None,177.33682419999968,177.33682419999968,177.33682419999968,177.33682419999968,177.33682419999968,177.33682419999968,177.33682419999968,177.33682419999968,,002,P021,2025_May_08_1225,CategoryLocalizer,2021.2.3,59.930875727906916,
140.0,140.8,2,0.75,Stimuli\ImageFiles-Set2\Bodies\Bodies_Hanging_00001.png,0,0,0,234,234,234,,,,,,,,,,,,,140.0234934,0.02349340000000666,None,177.5369996999998,177.5369996999998,177.5369996999998,177.5369996999998,177.5369996999998,177.5369996999998,177.5369996999998,177.5369996999998,,002,P021,2025_May_08_1225,CategoryLocalizer,2021.2.3,59.930875727906916,
140.8,141.0,5,0.0,Stimuli\Blank.png,0,0,0,235,235,235,,,,,,,,,,,,,140.8243338000002,0.024333800000192696,None,178.33773159999964,178.33773159999964,178.33773159999964,178.33773159999964,178.33773159999964,178.33773159999964,178.33773159999964,178.33773159999964,,002,P021,2025_May_08_1225,CategoryLocalizer,2021.2.3,59.930875727906916,
141.0,141.8,2,0.75,Stimuli\ImageFiles-Set2\Bodies\Bodies_SittingFloor_00004.png,0,0,0,236,236,236,,,,,,,,,,,,,141.02527960000043,0.025279600000430946,None,178.5545706999992,178.5545706999992,178.5545706999992,178.5545706999992,178.5545706999992,178.5545706999992,178.5545706999992,178.5545706999992,,002,P021,2025_May_08_1225,CategoryLocalizer,2021.2.3,59.930875727906916,
141.8,142.0,5,0.0,Stimuli\Blank.png,0,0,0,237,237,237,,,,,,,,,,,,,141.84018510000078,0.04018510000076958,None,179.33856809999997,179.33856809999997,179.33856809999997,179.33856809999997,179.33856809999997,179.33856809999997,179.33856809999997,179.33856809999997,,002,P021,2025_May_08_1225,CategoryLocalizer,2021.2.3,59.930875727906916,
142.0,142.8,2,0.75,Stimuli\ImageFiles-Set2\Bodies\Bodies_Running_00001.png,0,0,0,238,238,238,,,,,,,,,,,,,142.0069050000002,0.006905000000188011,None,179.50538189999952,179.50538189999952,179.50538189999952,179.50538189999952,179.50538189999952,179.50538189999952,179.50538189999952,179.50538189999952,,002,P021,2025_May_08_1225,CategoryLocalizer,2021.2.3,59.930875727906916,
142.8,143.0,5,0.0,Stimuli\Blank.png,0,0,0,239,239,239,,,,,,,,,,,,,142.81012900000042,0.010129000000404176,None,180.32280659999924,180.32280659999924,180.32280659999924,180.32280659999924,180.32280659999924,180.32280659999924,180.32280659999924,180.32280659999924,,002,P021,2025_May_08_1225,CategoryLocalizer,2021.2.3,59.930875727906916,
143.0,143.8,2,0.75,Stimuli\ImageFiles-Set2\Bodies\Bodies_Running_00001.png,1,1,0,240,240,240,,,,,,,,,,,,,143.02508790000047,0.025087900000471564,1,180.5229448,180.5229448,180.5229448,180.5229448,180.5229448,180.5229448,180.5229448,180.5229448,0.6327901000004204,002,P021,2025_May_08_1225,CategoryLocalizer,2021.2.3,59.930875727906916,
143.8,144.0,5,0.0,Stimuli\Blank.png,0,0,0,241,241,241,,,,,,,,,,,,,143.8099445000007,0.009944500000699463,None,181.3069872999995,181.3069872999995,181.3069872999995,181.3069872999995,181.3069872999995,181.3069872999995,181.3069872999995,181.3069872999995,,002,P021,2025_May_08_1225,CategoryLocalizer,2021.2.3,59.930875727906916,
144.0,144.8,2,0.75,Stimuli\ImageFiles-Set2\Bodies\Bodies_Jumping_00001.png,0,0,0,242,242,242,,,,,,,,,,,,,144.00928879999992,0.009288799999922048,None,181.50715259999924,181.50715259999924,181.50715259999924,181.50715259999924,181.50715259999924,181.50715259999924,181.50715259999924,181.50715259999924,,002,P021,2025_May_08_1225,CategoryLocalizer,2021.2.3,59.930875727906916,
144.8,145.0,5,0.0,Stimuli\Blank.png,0,0,0,243,243,243,,,,,,,,,,,,,144.81022550000034,0.010225500000331067,None,182.30784499999936,182.30784499999936,182.30784499999936,182.30784499999936,182.30784499999936,182.30784499999936,182.30784499999936,182.30784499999936,,002,P021,2025_May_08_1225,CategoryLocalizer,2021.2.3,59.930875727906916,
145.0,145.8,2,0.75,Stimuli\ImageFiles-Set2\Bodies\Bodies_Waving_00002.png,0,0,0,244,244,244,,,,,,,,,,,,,145.01061300000038,0.010613000000375905,None,182.52472079999916,182.52472079999916,182.52472079999916,182.52472079999916,182.52472079999916,182.52472079999916,182.52472079999916,182.52472079999916,,002,P021,2025_May_08_1225,CategoryLocalizer,2021.2.3,59.930875727906916,
145.8,146.0,5,0.0,Stimuli\Blank.png,0,0,0,245,245,245,,,,,,,,,,,,,145.82942340000045,0.029423400000439415,None,183.3421217999994,183.3421217999994,183.3421217999994,183.3421217999994,183.3421217999994,183.3421217999994,183.3421217999994,183.3421217999994,,002,P021,2025_May_08_1225,CategoryLocalizer,2021.2.3,59.930875727906916,
146.0,146.8,2,0.75,Stimuli\ImageFiles-Set2\Bodies\Bodies_Crawling_00002.png,0,0,0,246,246,246,,,,,,,,,,,,,146.02910300000076,0.029103000000759494,None,183.5423037999999,183.5423037999999,183.5423037999999,183.5423037999999,183.5423037999999,183.5423037999999,183.5423037999999,183.5423037999999,,002,P021,2025_May_08_1225,CategoryLocalizer,2021.2.3,59.930875727906916,
146.8,147.0,5,0.0,Stimuli\Blank.png,0,0,0,247,247,247,,,,,,,,,,,,,146.82797400000072,0.02797400000071093,None,184.32631989999936,184.32631989999936,184.32631989999936,184.32631989999936,184.32631989999936,184.32631989999936,184.32631989999936,184.32631989999936,,002,P021,2025_May_08_1225,CategoryLocalizer,2021.2.3,59.930875727906916,
147.0,147.8,2,0.75,Stimuli\ImageFiles-Set2\Bodies\Bodies_PushUp_00003.png,0,0,0,248,248,248,,,,,,,,,,,,,147.01174620000074,0.011746200000743556,None,184.52648469999986,184.52648469999986,184.52648469999986,184.52648469999986,184.52648469999986,184.52648469999986,184.52648469999986,184.52648469999986,,002,P021,2025_May_08_1225,CategoryLocalizer,2021.2.3,59.930875727906916,
147.8,148.0,5,0.0,Stimuli\Blank.png,0,0,0,249,249,249,,,,,,,,,,,,,147.82971180000004,0.029711800000029598,None,185.32719889999953,185.32719889999953,185.32719889999953,185.32719889999953,185.32719889999953,185.32719889999953,185.32719889999953,185.32719889999953,,002,P021,2025_May_08_1225,CategoryLocalizer,2021.2.3,59.930875727906916,
148.0,148.8,2,0.75,Stimuli\ImageFiles-Set2\Bodies\Bodies_Walking_00007.png,0,0,0,250,250,250,,,,,,,,,,,,,148.01294660000076,0.012946600000759645,None,185.52736769999956,185.52736769999956,185.52736769999956,185.52736769999956,185.52736769999956,185.52736769999956,185.52736769999956,185.52736769999956,,002,P021,2025_May_08_1225,CategoryLocalizer,2021.2.3,59.930875727906916,
148.8,149.0,5,0.0,Stimuli\Blank.png,0,0,0,251,251,251,,,,,,,,,,,,,148.8305390000005,0.030539000000487704,None,186.34477040000002,186.34477040000002,186.34477040000002,186.34477040000002,186.34477040000002,186.34477040000002,186.34477040000002,186.34477040000002,,002,P021,2025_May_08_1225,CategoryLocalizer,2021.2.3,59.930875727906916,
149.0,149.8,2,0.75,Stimuli\ImageFiles-Set2\Bodies\Bodies_Falling_00001.png,0,0,0,252,252,252,,,,,,,,,,,,,149.02994690000014,0.029946900000140886,None,186.54493329999968,186.54493329999968,186.54493329999968,186.54493329999968,186.54493329999968,186.54493329999968,186.54493329999968,186.54493329999968,,002,P021,2025_May_08_1225,CategoryLocalizer,2021.2.3,59.930875727906916,
149.8,150.0,5,0.0,Stimuli\Blank.png,0,0,0,253,253,253,,,,,,,,,,,,,149.83064600000034,0.03064600000033124,None,187.3289632999995,187.3289632999995,187.3289632999995,187.3289632999995,187.3289632999995,187.3289632999995,187.3289632999995,187.3289632999995,,002,P021,2025_May_08_1225,CategoryLocalizer,2021.2.3,59.930875727906916,
150.0,150.8,2,0.75,Stimuli\ImageFiles-Set2\Bodies\Bodies_PushUp_00006.png,0,0,0,254,254,254,,,,,,,,,,,,,150.01466720000008,0.014667200000076264,None,187.52913649999937,187.52913649999937,187.52913649999937,187.52913649999937,187.52913649999937,187.52913649999937,187.52913649999937,187.52913649999937,,002,P021,2025_May_08_1225,CategoryLocalizer,2021.2.3,59.930875727906916,
150.8,151.0,5,0.0,Stimuli\Blank.png,0,0,0,255,255,255,,,,,,,,,,,,,150.83186340000066,0.03186340000064547,None,188.32985199999985,188.32985199999985,188.32985199999985,188.32985199999985,188.32985199999985,188.32985199999985,188.32985199999985,188.32985199999985,,002,P021,2025_May_08_1225,CategoryLocalizer,2021.2.3,59.930875727906916,
151.0,151.8,2,0.75,Stimuli\ImageFiles-Set2\Bodies\Bodies_QuadStretch_00006.png,0,0,0,256,256,256,,,,,,,,,,,,,151.01500110000052,0.015001100000517908,None,188.5133393999995,188.5133393999995,188.5133393999995,188.5133393999995,188.5133393999995,188.5133393999995,188.5133393999995,188.5133393999995,,002,P021,2025_May_08_1225,CategoryLocalizer,2021.2.3,59.930875727906916,
151.8,152.0,5,0.0,Stimuli\Blank.png,0,0,0,257,257,257,,,,,,,,,,,,,151.79891880000014,-0.001081199999873661,None,189.2973620999992,189.2973620999992,189.2973620999992,189.2973620999992,189.2973620999992,189.2973620999992,189.2973620999992,189.2973620999992,,002,P021,2025_May_08_1225,CategoryLocalizer,2021.2.3,59.930875727906916,
152.0,164.0,0,0.0,Stimuli\Blank.png,0,0,0,258,258,258,,,,,,,,,,,,,151.99972870000056,-0.00027129999944008887,None,189.49753799999962,189.49753799999962,189.49753799999962,189.49753799999962,189.49753799999962,189.49753799999962,189.49753799999962,189.49753799999962,,002,P021,2025_May_08_1225,CategoryLocalizer,2021.2.3,59.930875727906916,
164.0,164.8,4,0.75,Stimuli\ImageFiles-Set2\Scenes\Scenes_082.png,0,0,0,259,259,259,,,,,,,,,,,,,164.01027820000036,0.010278200000357174,None,201.52482819999932,201.52482819999932,201.52482819999932,201.52482819999932,201.52482819999932,201.52482819999932,201.52482819999932,201.52482819999932,,002,P021,2025_May_08_1225,CategoryLocalizer,2021.2.3,59.930875727906916,
164.8,165.0,5,0.0,Stimuli\Blank.png,0,0,0,260,260,260,,,,,,,,,,,,,164.8289220000006,0.028922000000591197,None,202.3422413999997,202.3422413999997,202.3422413999997,202.3422413999997,202.3422413999997,202.3422413999997,202.3422413999997,202.3422413999997,,002,P021,2025_May_08_1225,CategoryLocalizer,2021.2.3,59.930875727906916,
165.0,165.8,4,0.75,Stimuli\ImageFiles-Set2\Scenes\Scenes_115.png,0,0,0,261,261,261,,,,,,,,,,,,,165.02913870000066,0.02913870000065799,None,202.5590889999994,202.5590889999994,202.5590889999994,202.5590889999994,202.5590889999994,202.5590889999994,202.5590889999994,202.5590889999994,,002,P021,2025_May_08_1225,CategoryLocalizer,2021.2.3,59.930875727906916,
165.8,166.0,5,0.0,Stimuli\Blank.png,0,0,0,262,262,262,,,,,,,,,,,,,165.84536430000026,0.045364300000244384,None,203.34310519999963,203.34310519999963,203.34310519999963,203.34310519999963,203.34310519999963,203.34310519999963,203.34310519999963,203.34310519999963,,002,P021,2025_May_08_1225,CategoryLocalizer,2021.2.3,59.930875727906916,
166.0,166.8,4,0.75,Stimuli\ImageFiles-Set2\Scenes\Scenes_108.png,0,0,0,263,263,263,,,,,,,,,,,,,166.0145850000008,0.014585000000806758,None,203.5433680999995,203.5433680999995,203.5433680999995,203.5433680999995,203.5433680999995,203.5433680999995,203.5433680999995,203.5433680999995,,002,P021,2025_May_08_1225,CategoryLocalizer,2021.2.3,59.930875727906916,
166.8,167.0,5,0.0,Stimuli\Blank.png,0,0,0,264,264,264,,,,,,,,,,,,,166.8456956,0.045695599999987735,None,204.34399659999963,204.34399659999963,204.34399659999963,204.34399659999963,204.34399659999963,204.34399659999963,204.34399659999963,204.34399659999963,,002,P021,2025_May_08_1225,CategoryLocalizer,2021.2.3,59.930875727906916,
167.0,167.8,4,0.75,Stimuli\ImageFiles-Set2\Scenes\Scenes_088.png,0,0,0,265,265,265,,,,,,,,,,,,,167.01295200000004,0.012952000000041153,None,204.5274901999992,204.5274901999992,204.5274901999992,204.5274901999992,204.5274901999992,204.5274901999992,204.5274901999992,204.5274901999992,,002,P021,2025_May_08_1225,CategoryLocalizer,2021.2.3,59.930875727906916,
167.8,168.0,5,0.0,Stimuli\Blank.png,0,0,0,266,266,266,,,,,,,,,,,,,167.82974970000032,0.029749700000309076,None,205.32819779999954,205.32819779999954,205.32819779999954,205.32819779999954,205.32819779999954,205.32819779999954,205.32819779999954,205.32819779999954,,002,P021,2025_May_08_1225,CategoryLocalizer,2021.2.3,59.930875727906916,
168.0,168.8,4,0.75,Stimuli\ImageFiles-Set2\Scenes\Scenes_071.png,0,0,0,267,267,267,,,,,,,,,,,,,168.01418260000082,0.014182600000822276,None,205.54506700000002,205.54506700000002,205.54506700000002,205.54506700000002,205.54506700000002,205.54506700000002,205.54506700000002,205.54506700000002,,002,P021,2025_May_08_1225,CategoryLocalizer,2021.2.3,59.930875727906916,
168.8,169.0,5,0.0,Stimuli\Blank.png,0,0,0,268,268,268,,,,,,,,,,,,,168.84920950000014,0.049209500000131357,None,206.36245749999944,206.36245749999944,206.36245749999944,206.36245749999944,206.36245749999944,206.36245749999944,206.36245749999944,206.36245749999944,,002,P021,2025_May_08_1225,CategoryLocalizer,2021.2.3,59.930875727906916,
169.0,169.8,4,0.75,Stimuli\ImageFiles-Set2\Scenes\Scenes_094.png,0,0,0,269,269,269,,,,,,,,,,,,,169.01585990000058,0.01585990000057791,None,206.54612759999964,206.54612759999964,206.54612759999964,206.54612759999964,206.54612759999964,206.54612759999964,206.54612759999964,206.54612759999964,,002,P021,2025_May_08_1225,CategoryLocalizer,2021.2.3,59.930875727906916,
169.8,170.0,5,0.0,Stimuli\Blank.png,0,0,0,270,270,270,,,,,,,,,,,,,169.8343304,0.03433039999998755,None,207.3466570999999,207.3466570999999,207.3466570999999,207.3466570999999,207.3466570999999,207.3466570999999,207.3466570999999,207.3466570999999,,002,P021,2025_May_08_1225,CategoryLocalizer,2021.2.3,59.930875727906916,
170.0,170.8,4,0.75,Stimuli\ImageFiles-Set2\Scenes\Scenes_094.png,1,1,0,271,271,271,,,,,,,,,,,,,170.0161676000007,0.016167600000699167,None,207.5134651999997,207.5134651999997,207.5134651999997,207.5134651999997,207.5134651999997,207.5134651999997,207.5134651999997,207.5134651999997,,002,P021,2025_May_08_1225,CategoryLocalizer,2021.2.3,59.930875727906916,
170.8,171.0,5,0.0,Stimuli\Blank.png,0,0,0,272,272,272,,,,,,,,,,,,,170.79993110000032,-6.889999968962002e-05,None,208.2975325999996,208.2975325999996,208.2975325999996,208.2975325999996,208.2975325999996,208.2975325999996,208.2975325999996,208.2975325999996,,002,P021,2025_May_08_1225,CategoryLocalizer,2021.2.3,59.930875727906916,
171.0,171.8,4,0.75,Stimuli\ImageFiles-Set2\Scenes\Scenes_103.png,0,0,0,273,273,273,,,,,,,,,,,,,170.99935390000064,-0.0006460999993578298,None,208.51434040000004,208.51434040000004,208.51434040000004,208.51434040000004,208.51434040000004,208.51434040000004,208.51434040000004,208.51434040000004,,002,P021,2025_May_08_1225,CategoryLocalizer,2021.2.3,59.930875727906916,
171.8,172.0,5,0.0,Stimuli\Blank.png,0,0,0,274,274,274,,,,,,,,,,,,,171.81648930000028,0.016489300000273488,None,209.31505349999952,209.31505349999952,209.31505349999952,209.31505349999952,209.31505349999952,209.31505349999952,209.31505349999952,209.31505349999952,,002,P021,2025_May_08_1225,CategoryLocalizer,2021.2.3,59.930875727906916,
172.0,172.8,4,0.75,Stimuli\ImageFiles-Set2\Scenes\Scenes_070.png,0,0,0,275,275,275,,,,,,,,,,,,,172.00114750000012,0.0011475000001155422,None,209.53192579999995,209.53192579999995,209.53192579999995,209.53192579999995,209.53192579999995,209.53192579999995,209.53192579999995,209.53192579999995,,002,P021,2025_May_08_1225,CategoryLocalizer,2021.2.3,59.930875727906916,
172.8,173.0,5,0.0,Stimuli\Blank.png,0,0,0,276,276,276,,,,,,,,,,,,,172.8355775,0.03557749999998805,None,210.3326373,210.3326373,210.3326373,210.3326373,210.3326373,210.3326373,210.3326373,210.3326373,,002,P021,2025_May_08_1225,CategoryLocalizer,2021.2.3,59.930875727906916,
173.0,173.8,4,0.75,Stimuli\ImageFiles-Set2\Scenes\Scenes_063.png,0,0,0,277,277,277,,,,,,,,,,,,,173.00182530000075,0.0018253000007462106,None,210.51613689999976,210.51613689999976,210.51613689999976,210.51613689999976,210.51613689999976,210.51613689999976,210.51613689999976,210.51613689999976,,002,P021,2025_May_08_1225,CategoryLocalizer,2021.2.3,59.930875727906916,
173.8,174.0,5,0.0,Stimuli\Blank.png,0,0,0,278,278,278,,,,,,,,,,,,,173.81856450000032,0.01856450000030918,None,211.31688649999978,211.31688649999978,211.31688649999978,211.31688649999978,211.31688649999978,211.31688649999978,211.31688649999978,211.31688649999978,,002,P021,2025_May_08_1225,CategoryLocalizer,2021.2.3,59.930875727906916,
174.0,174.8,4,0.75,Stimuli\ImageFiles-Set2\Scenes\Scenes_110.png,0,0,0,279,279,279,,,,,,,,,,,,,174.00446420000026,0.004464200000256824,None,211.53367679999974,211.53367679999974,211.53367679999974,211.53367679999974,211.53367679999974,211.53367679999974,211.53367679999974,211.53367679999974,,002,P021,2025_May_08_1225,CategoryLocalizer,2021.2.3,59.930875727906916,
174.8,175.0,5,0.0,Stimuli\Blank.png,0,0,0,280,280,280,,,,,,,,,,,,,174.83675360000052,0.03675360000050887,None,212.3343922999993,212.3343922999993,212.3343922999993,212.3343922999993,212.3343922999993,212.3343922999993,212.3343922999993,212.3343922999993,,002,P021,2025_May_08_1225,CategoryLocalizer,2021.2.3,59.930875727906916,
175.0,175.8,4,0.75,Stimuli\ImageFiles-Set2\Scenes\Scenes_073.png,0,0,0,281,281,281,,,,,,,,,,,,,175.00402360000044,0.004023600000437,None,212.51793519999956,212.51793519999956,212.51793519999956,212.51793519999956,212.51793519999956,212.51793519999956,212.51793519999956,212.51793519999956,,002,P021,2025_May_08_1225,CategoryLocalizer,2021.2.3,59.930875727906916,
175.8,176.0,5,0.0,Stimuli\Blank.png,0,0,0,282,282,282,,,,,,,,,,,,,175.82092940000075,0.02092940000073895,None,213.31858739999916,213.31858739999916,213.31858739999916,213.31858739999916,213.31858739999916,213.31858739999916,213.31858739999916,213.31858739999916,,002,P021,2025_May_08_1225,CategoryLocalizer,2021.2.3,59.930875727906916,
176.0,176.8,4,0.75,Stimuli\ImageFiles-Set2\Scenes\Scenes_107.png,0,0,0,283,283,283,,,,,,,,,,,,,176.0052413000003,0.005241300000307092,None,213.51876439999978,213.51876439999978,213.51876439999978,213.51876439999978,213.51876439999978,213.51876439999978,213.51876439999978,213.51876439999978,,002,P021,2025_May_08_1225,CategoryLocalizer,2021.2.3,59.930875727906916,
176.8,177.0,5,0.0,Stimuli\Blank.png,0,0,0,284,284,284,,,,,,,,,,,,,176.8222207000008,0.02222070000078702,None,214.31950619999952,214.31950619999952,214.31950619999952,214.31950619999952,214.31950619999952,214.31950619999952,214.31950619999952,214.31950619999952,,002,P021,2025_May_08_1225,CategoryLocalizer,2021.2.3,59.930875727906916,
177.0,177.8,4,0.75,Stimuli\ImageFiles-Set2\Scenes\Scenes_119.png,0,0,0,285,285,285,,,,,,,,,,,,,177.00541900000007,0.005419000000074448,None,214.53632779999953,214.53632779999953,214.53632779999953,214.53632779999953,214.53632779999953,214.53632779999953,214.53632779999953,214.53632779999953,,002,P021,2025_May_08_1225,CategoryLocalizer,2021.2.3,59.930875727906916,
