eventStartTime,eventEndTime,eventCond,imSize,imFile,repeatedImage,responseEvent,Events.thisRepN,Events.thisTrialN,Events.thisN,Events.thisIndex,Instructions.started,Instructions.stopped,participantReadyResponse.keys,participantReadyResponse.rt,participantReadyResponse.started,participantReadyResponse.stopped,startWaitforTrigger,triggerResponse.keys,triggerResponse.rt,triggerResponse.started,triggerResponse.stopped,globalTimer,actualStartTime,startTimingDiff,participantResponse.keys,participantResponse.started,participantResponse.stopped,image.started,image.stopped,fixationOutside.started,fixationOutside.stopped,fixationInside.started,fixationInside.stopped,participantResponse.rt,session,participant,date,expName,psychopyVersion,frameRate,
,,,,,,,,,,,9.905761099999836,None,1,13.415831500000422,9.905761099999836,None,,,,,,,,,,,,,,,,,,,001,P021,2025_May_08_1157,CategoryLocalizer,2021.2.3,59.95020535953909,
,,,,,,,,,,,,,,,,,23.327322699999968,5,13.910064699999566,23.341605800000252,None,,,,,,,,,,,,,,001,P021,2025_May_08_1157,CategoryLocalizer,2021.2.3,59.95020535953909,
0.0,12.0,0,0.0,Stimuli\Blank.png,0,0,0,0,0,0,,,,,,,,,,,,37.258468600000015,0.029029600000285427,0.029029600000285427,None,37.30405680000058,None,37.30405680000058,None,37.30405680000058,None,37.30405680000058,None,,001,P021,2025_May_08_1157,CategoryLocalizer,2021.2.3,59.95020535953909,
12.0,12.8,1,0.75,Stimuli\ImageFiles-Set1\Objects\Object_FileFolder_00001.png,0,0,0,1,1,1,,,,,,,,,,,,,12.010767099999612,0.010767099999611673,None,49.29814290000013,49.29814290000013,49.29814290000013,49.29814290000013,49.29814290000013,49.29814290000013,49.29814290000013,49.29814290000013,,001,P021,2025_May_08_1157,CategoryLocalizer,2021.2.3,59.95020535953909,
12.8,13.0,5,0.0,Stimuli\Blank.png,0,0,0,2,2,2,,,,,,,,,,,,,12.82563670000036,0.02563670000035856,None,50.098827300000266,50.098827300000266,50.098827300000266,50.098827300000266,50.098827300000266,50.098827300000266,50.098827300000266,50.098827300000266,,001,P021,2025_May_08_1157,CategoryLocalizer,2021.2.3,59.95020535953909,
13.0,13.8,1,0.75,Stimuli\ImageFiles-Set1\Objects\Object_TeaBag_00001.png,0,0,0,3,3,3,,,,,,,,,,,,,13.01075149999997,0.010751499999969383,None,50.2989991000004,50.2989991000004,50.2989991000004,50.2989991000004,50.2989991000004,50.2989991000004,50.2989991000004,50.2989991000004,,001,P021,2025_May_08_1157,CategoryLocalizer,2021.2.3,59.95020535953909,
13.8,14.0,5,0.0,Stimuli\Blank.png,0,0,0,4,4,4,,,,,,,,,,,,,13.829071699999986,0.029071699999985157,None,51.11641700000018,51.11641700000018,51.11641700000018,51.11641700000018,51.11641700000018,51.11641700000018,51.11641700000018,51.11641700000018,,001,P021,2025_May_08_1157,CategoryLocalizer,2021.2.3,59.95020535953909,
14.0,14.8,1,0.75,Stimuli\ImageFiles-Set1\Objects\Object_Recliner_00001.png,0,0,0,5,5,5,,,,,,,,,,,,,14.027722900000299,0.027722900000298978,None,51.31655260000025,51.31655260000025,51.31655260000025,51.31655260000025,51.31655260000025,51.31655260000025,51.31655260000025,51.31655260000025,,001,P021,2025_May_08_1157,CategoryLocalizer,2021.2.3,59.95020535953909,
14.8,15.0,5,0.0,Stimuli\Blank.png,0,0,0,6,6,6,,,,,,,,,,,,,14.830243100000189,0.03024310000018815,None,52.11728829999993,52.11728829999993,52.11728829999993,52.11728829999993,52.11728829999993,52.11728829999993,52.11728829999993,52.11728829999993,,001,P021,2025_May_08_1157,CategoryLocalizer,2021.2.3,59.95020535953909,
15.0,15.8,1,0.75,Stimuli\ImageFiles-Set1\Objects\Object_Gun_00001.png,0,0,0,7,7,7,,,,,,,,,,,,,15.030072700000346,0.03007270000034623,None,52.31747290000021,52.31747290000021,52.31747290000021,52.31747290000021,52.31747290000021,52.31747290000021,52.31747290000021,52.31747290000021,,001,P021,2025_May_08_1157,CategoryLocalizer,2021.2.3,59.95020535953909,
15.8,16.0,5,0.0,Stimuli\Blank.png,0,0,0,8,8,8,,,,,,,,,,,,,15.829009099999894,0.029009099999893095,None,53.10149150000052,53.10149150000052,53.10149150000052,53.10149150000052,53.10149150000052,53.10149150000052,53.10149150000052,53.10149150000052,,001,P021,2025_May_08_1157,CategoryLocalizer,2021.2.3,59.95020535953909,
16.0,16.8,1,0.75,Stimuli\ImageFiles-Set1\Objects\Object_Ring_00001.png,0,0,0,9,9,9,,,,,,,,,,,,,16.014108000000306,0.014108000000305765,None,53.30162120000023,53.30162120000023,53.30162120000023,53.30162120000023,53.30162120000023,53.30162120000023,53.30162120000023,53.30162120000023,,001,P021,2025_May_08_1157,CategoryLocalizer,2021.2.3,59.95020535953909,
16.8,17.0,5,0.0,Stimuli\Blank.png,0,0,0,10,10,10,,,,,,,,,,,,,16.830671800000346,0.030671800000344973,None,54.102381000000605,54.102381000000605,54.102381000000605,54.102381000000605,54.102381000000605,54.102381000000605,54.102381000000605,54.102381000000605,,001,P021,2025_May_08_1157,CategoryLocalizer,2021.2.3,59.95020535953909,
17.0,17.8,1,0.75,Stimuli\ImageFiles-Set1\Objects\Object_Banana_00001.png,0,0,0,11,11,11,,,,,,,,,,,,,17.01556150000033,0.015561500000330852,None,54.30256610000015,54.30256610000015,54.30256610000015,54.30256610000015,54.30256610000015,54.30256610000015,54.30256610000015,54.30256610000015,,001,P021,2025_May_08_1157,CategoryLocalizer,2021.2.3,59.95020535953909,
17.8,18.0,5,0.0,Stimuli\Blank.png,0,0,0,12,12,12,,,,,,,,,,,,,17.813509100000374,0.013509100000373309,None,55.08656390000033,55.08656390000033,55.08656390000033,55.08656390000033,55.08656390000033,55.08656390000033,55.08656390000033,55.08656390000033,,001,P021,2025_May_08_1157,CategoryLocalizer,2021.2.3,59.95020535953909,
18.0,18.8,1,0.75,Stimuli\ImageFiles-Set1\Objects\Object_Key_00001.png,0,0,0,13,13,13,,,,,,,,,,,,,18.014157200000227,0.014157200000227022,None,55.28674070000034,55.28674070000034,55.28674070000034,55.28674070000034,55.28674070000034,55.28674070000034,55.28674070000034,55.28674070000034,,001,P021,2025_May_08_1157,CategoryLocalizer,2021.2.3,59.95020535953909,
18.8,19.0,5,0.0,Stimuli\Blank.png,0,0,0,14,14,14,,,,,,,,,,,,,18.814469300000383,0.014469300000381935,None,56.087450900000476,56.087450900000476,56.087450900000476,56.087450900000476,56.087450900000476,56.087450900000476,56.087450900000476,56.087450900000476,,001,P021,2025_May_08_1157,CategoryLocalizer,2021.2.3,59.95020535953909,
19.0,19.8,1,0.75,Stimuli\ImageFiles-Set1\Objects\Object_Scale_00001.png,0,0,0,15,15,15,,,,,,,,,,,,,19.015436700000464,0.015436700000464043,None,56.287623500000336,56.287623500000336,56.287623500000336,56.287623500000336,56.287623500000336,56.287623500000336,56.287623500000336,56.287623500000336,,001,P021,2025_May_08_1157,CategoryLocalizer,2021.2.3,59.95020535953909,
19.8,20.0,5,0.0,Stimuli\Blank.png,0,0,0,16,16,16,,,,,,,,,,,,,19.799518400000125,-0.0004815999998761811,None,57.07166000000052,57.07166000000052,57.07166000000052,57.07166000000052,57.07166000000052,57.07166000000052,57.07166000000052,57.07166000000052,,001,P021,2025_May_08_1157,CategoryLocalizer,2021.2.3,59.95020535953909,
20.0,20.8,1,0.75,Stimuli\ImageFiles-Set1\Objects\Object_Lamp_00001.png,0,0,0,17,17,17,,,,,,,,,,,,,19.998879699999634,-0.0011203000003661145,None,57.27188240000032,57.27188240000032,57.27188240000032,57.27188240000032,57.27188240000032,57.27188240000032,57.27188240000032,57.27188240000032,,001,P021,2025_May_08_1157,CategoryLocalizer,2021.2.3,59.95020535953909,
20.8,21.0,5,0.0,Stimuli\Blank.png,0,0,0,18,18,18,,,,,,,,,,,,,20.799509499999658,-0.0004905000003425641,None,58.07253709999986,58.07253709999986,58.07253709999986,58.07253709999986,58.07253709999986,58.07253709999986,58.07253709999986,58.07253709999986,,001,P021,2025_May_08_1157,CategoryLocalizer,2021.2.3,59.95020535953909,
21.0,21.8,1,0.75,Stimuli\ImageFiles-Set1\Objects\Object_Apple_00001.png,0,0,0,19,19,19,,,,,,,,,,,,,21.000350199999957,0.0003501999999571126,None,58.27271759999985,58.27271759999985,58.27271759999985,58.27271759999985,58.27271759999985,58.27271759999985,58.27271759999985,58.27271759999985,,001,P021,2025_May_08_1157,CategoryLocalizer,2021.2.3,59.95020535953909,
21.8,22.0,5,0.0,Stimuli\Blank.png,0,0,0,20,20,20,,,,,,,,,,,,,21.80091790000006,0.0009179000000578696,None,59.0734252000002,59.0734252000002,59.0734252000002,59.0734252000002,59.0734252000002,59.0734252000002,59.0734252000002,59.0734252000002,,001,P021,2025_May_08_1157,CategoryLocalizer,2021.2.3,59.95020535953909,
22.0,22.8,1,0.75,Stimuli\ImageFiles-Set1\Objects\Object_Apple_00001.png,1,1,0,21,21,21,,,,,,,,,,,,,22.001168800000414,0.001168800000414194,1,59.27360190000036,59.27360190000036,59.27360190000036,59.27360190000036,59.27360190000036,59.27360190000036,59.27360190000036,59.27360190000036,0.7330238000004101,001,P021,2025_May_08_1157,CategoryLocalizer,2021.2.3,59.95020535953909,
22.8,23.0,5,0.0,Stimuli\Blank.png,0,0,0,22,22,22,,,,,,,,,,,,,22.801743500000157,0.0017435000001562173,None,60.07430199999999,60.07430199999999,60.07430199999999,60.07430199999999,60.07430199999999,60.07430199999999,60.07430199999999,60.07430199999999,,001,P021,2025_May_08_1157,CategoryLocalizer,2021.2.3,59.95020535953909,
23.0,23.8,1,0.75,Stimuli\ImageFiles-Set1\Objects\Object_GarbageCan_00001.png,0,0,0,23,23,23,,,,,,,,,,,,,23.00197079999998,0.0019707999999809545,None,60.291196400000445,60.291196400000445,60.291196400000445,60.291196400000445,60.291196400000445,60.291196400000445,60.291196400000445,60.291196400000445,,001,P021,2025_May_08_1157,CategoryLocalizer,2021.2.3,59.95020535953909,
23.8,24.0,5,0.0,Stimuli\Blank.png,0,0,0,24,24,24,,,,,,,,,,,,,23.819632800000363,0.019632800000362494,None,61.09187170000041,61.09187170000041,61.09187170000041,61.09187170000041,61.09187170000041,61.09187170000041,61.09187170000041,61.09187170000041,,001,P021,2025_May_08_1157,CategoryLocalizer,2021.2.3,59.95020535953909,
24.0,24.8,1,0.75,Stimuli\ImageFiles-Set1\Objects\Object_Canoe_00001.png,0,0,0,25,25,25,,,,,,,,,,,,,24.004095700000107,0.004095700000107172,None,61.2920565000004,61.2920565000004,61.2920565000004,61.2920565000004,61.2920565000004,61.2920565000004,61.2920565000004,61.2920565000004,,001,P021,2025_May_08_1157,CategoryLocalizer,2021.2.3,59.95020535953909,
24.8,25.0,5,0.0,Stimuli\Blank.png,0,0,0,26,26,26,,,,,,,,,,,,,24.81964270000026,0.019642700000257918,None,62.092767500000264,62.092767500000264,62.092767500000264,62.092767500000264,62.092767500000264,62.092767500000264,62.092767500000264,62.092767500000264,,001,P021,2025_May_08_1157,CategoryLocalizer,2021.2.3,59.95020535953909,
25.0,25.8,1,0.75,Stimuli\ImageFiles-Set1\Objects\Object_Shirt_00001.png,0,0,0,27,27,27,,,,,,,,,,,,,25.003625500000453,0.0036255000004530302,None,62.2929393000004,62.2929393000004,62.2929393000004,62.2929393000004,62.2929393000004,62.2929393000004,62.2929393000004,62.2929393000004,,001,P021,2025_May_08_1157,CategoryLocalizer,2021.2.3,59.95020535953909,
25.8,26.0,5,0.0,Stimuli\Blank.png,0,0,0,28,28,28,,,,,,,,,,,,,25.820455000000038,0.020455000000037415,None,63.09365220000018,63.09365220000018,63.09365220000018,63.09365220000018,63.09365220000018,63.09365220000018,63.09365220000018,63.09365220000018,,001,P021,2025_May_08_1157,CategoryLocalizer,2021.2.3,59.95020535953909,
26.0,26.8,1,0.75,Stimuli\ImageFiles-Set1\Objects\Object_Book_00001.png,0,0,0,29,29,29,,,,,,,,,,,,,26.004280199999812,0.0042801999998118845,None,63.31051960000059,63.31051960000059,63.31051960000059,63.31051960000059,63.31051960000059,63.31051960000059,63.31051960000059,63.31051960000059,,001,P021,2025_May_08_1157,CategoryLocalizer,2021.2.3,59.95020535953909,
26.8,27.0,5,0.0,Stimuli\Blank.png,0,0,0,30,30,30,,,,,,,,,,,,,26.838797299999896,0.038797299999895785,None,64.11122049999994,64.11122049999994,64.11122049999994,64.11122049999994,64.11122049999994,64.11122049999994,64.11122049999994,64.11122049999994,,001,P021,2025_May_08_1157,CategoryLocalizer,2021.2.3,59.95020535953909,
27.0,27.8,1,0.75,Stimuli\ImageFiles-Set1\Objects\Object_Football_00001.png,0,0,0,31,31,31,,,,,,,,,,,,,27.005795500000204,0.0057955000002039014,None,64.29473020000023,64.29473020000023,64.29473020000023,64.29473020000023,64.29473020000023,64.29473020000023,64.29473020000023,64.29473020000023,,001,P021,2025_May_08_1157,CategoryLocalizer,2021.2.3,59.95020535953909,
27.8,28.0,5,0.0,Stimuli\Blank.png,0,0,0,32,32,32,,,,,,,,,,,,,27.822853499999837,0.022853499999836657,None,65.09547519999978,65.09547519999978,65.09547519999978,65.09547519999978,65.09547519999978,65.09547519999978,65.09547519999978,65.09547519999978,,001,P021,2025_May_08_1157,CategoryLocalizer,2021.2.3,59.95020535953909,
28.0,28.8,2,0.75,Stimuli\ImageFiles-Set1\Bodies\Bodies_Kicking_00007.png,0,0,0,33,33,33,,,,,,,,,,,,,28.005842599999596,0.005842599999596132,None,65.27891880000061,65.27891880000061,65.27891880000061,65.27891880000061,65.27891880000061,65.27891880000061,65.27891880000061,65.27891880000061,,001,P021,2025_May_08_1157,CategoryLocalizer,2021.2.3,59.95020535953909,
28.8,29.0,5,0.0,Stimuli\Blank.png,0,0,0,34,34,34,,,,,,,,,,,,,28.807130500000312,0.007130500000311457,None,66.08043960000032,66.08043960000032,66.08043960000032,66.08043960000032,66.08043960000032,66.08043960000032,66.08043960000032,66.08043960000032,,001,P021,2025_May_08_1157,CategoryLocalizer,2021.2.3,59.95020535953909,
29.0,29.8,2,0.75,Stimuli\ImageFiles-Set1\Bodies\Bodies_Waving_00005.png,0,0,0,35,35,35,,,,,,,,,,,,,29.009139400000095,0.00913940000009461,None,66.31322300000011,66.31322300000011,66.31322300000011,66.31322300000011,66.31322300000011,66.31322300000011,66.31322300000011,66.31322300000011,,001,P021,2025_May_08_1157,CategoryLocalizer,2021.2.3,59.95020535953909,
29.8,30.0,5,0.0,Stimuli\Blank.png,0,0,0,36,36,36,,,,,,,,,,,,,29.841527900000074,0.041527900000073004,None,67.11386500000026,67.11386500000026,67.11386500000026,67.11386500000026,67.11386500000026,67.11386500000026,67.11386500000026,67.11386500000026,,001,P021,2025_May_08_1157,CategoryLocalizer,2021.2.3,59.95020535953909,
30.0,30.8,2,0.75,Stimuli\ImageFiles-Set1\Bodies\Bodies_Kicking_00005.png,0,0,0,37,37,37,,,,,,,,,,,,,30.009154000000308,0.00915400000030786,None,67.29735940000046,67.29735940000046,67.29735940000046,67.29735940000046,67.29735940000046,67.29735940000046,67.29735940000046,67.29735940000046,,001,P021,2025_May_08_1157,CategoryLocalizer,2021.2.3,59.95020535953909,
30.8,31.0,5,0.0,Stimuli\Blank.png,0,0,0,38,38,38,,,,,,,,,,,,,30.824863099999675,0.024863099999674176,None,68.09806620000018,68.09806620000018,68.09806620000018,68.09806620000018,68.09806620000018,68.09806620000018,68.09806620000018,68.09806620000018,,001,P021,2025_May_08_1157,CategoryLocalizer,2021.2.3,59.95020535953909,
31.0,31.8,2,0.75,Stimuli\ImageFiles-Set1\Bodies\Bodies_Standing_00001.png,0,0,0,39,39,39,,,,,,,,,,,,,31.00955410000006,0.009554100000059407,None,68.3149570000005,68.3149570000005,68.3149570000005,68.3149570000005,68.3149570000005,68.3149570000005,68.3149570000005,68.3149570000005,,001,P021,2025_May_08_1157,CategoryLocalizer,2021.2.3,59.95020535953909,
31.8,32.0,5,0.0,Stimuli\Blank.png,0,0,0,40,40,40,,,,,,,,,,,,,31.843797800000175,0.04379780000017419,None,69.11563480000041,69.11563480000041,69.11563480000041,69.11563480000041,69.11563480000041,69.11563480000041,69.11563480000041,69.11563480000041,,001,P021,2025_May_08_1157,CategoryLocalizer,2021.2.3,59.95020535953909,
32.0,32.8,2,0.75,Stimuli\ImageFiles-Set1\Bodies\Bodies_Crawling_00001.png,0,0,0,41,41,41,,,,,,,,,,,,,32.009839100000136,0.009839100000135659,None,69.2991363000001,69.2991363000001,69.2991363000001,69.2991363000001,69.2991363000001,69.2991363000001,69.2991363000001,69.2991363000001,,001,P021,2025_May_08_1157,CategoryLocalizer,2021.2.3,59.95020535953909,
32.8,33.0,5,0.0,Stimuli\Blank.png,0,0,0,42,42,42,,,,,,,,,,,,,32.826598300000114,0.026598300000117092,None,70.09983680000005,70.09983680000005,70.09983680000005,70.09983680000005,70.09983680000005,70.09983680000005,70.09983680000005,70.09983680000005,,001,P021,2025_May_08_1157,CategoryLocalizer,2021.2.3,59.95020535953909,
33.0,33.8,2,0.75,Stimuli\ImageFiles-Set1\Bodies\Bodies_DownwardDog_00005.png,0,0,0,43,43,43,,,,,,,,,,,,,33.01016100000015,0.010161000000152853,None,70.30003889999989,70.30003889999989,70.30003889999989,70.30003889999989,70.30003889999989,70.30003889999989,70.30003889999989,70.30003889999989,,001,P021,2025_May_08_1157,CategoryLocalizer,2021.2.3,59.95020535953909,
33.8,34.0,5,0.0,Stimuli\Blank.png,0,0,0,44,44,44,,,,,,,,,,,,,33.82924600000024,0.029246000000242134,None,71.11741359999996,71.11741359999996,71.11741359999996,71.11741359999996,71.11741359999996,71.11741359999996,71.11741359999996,71.11741359999996,,001,P021,2025_May_08_1157,CategoryLocalizer,2021.2.3,59.95020535953909,
34.0,34.8,2,0.75,Stimuli\ImageFiles-Set1\Bodies\Bodies_Walking_00006.png,0,0,0,45,45,45,,,,,,,,,,,,,34.02895400000034,0.028954000000339875,None,71.31757759999982,71.31757759999982,71.31757759999982,71.31757759999982,71.31757759999982,71.31757759999982,71.31757759999982,71.31757759999982,,001,P021,2025_May_08_1157,CategoryLocalizer,2021.2.3,59.95020535953909,
34.8,35.0,5,0.0,Stimuli\Blank.png,0,0,0,46,46,46,,,,,,,,,,,,,34.82924060000005,0.02924060000005113,None,72.10160309999992,72.10160309999992,72.10160309999992,72.10160309999992,72.10160309999992,72.10160309999992,72.10160309999992,72.10160309999992,,001,P021,2025_May_08_1157,CategoryLocalizer,2021.2.3,59.95020535953909,
35.0,35.8,2,0.75,Stimuli\ImageFiles-Set1\Bodies\Bodies_Kneeling_00007.png,0,0,0,47,47,47,,,,,,,,,,,,,35.01438469999994,0.014384699999936856,None,72.3184781,72.3184781,72.3184781,72.3184781,72.3184781,72.3184781,72.3184781,72.3184781,,001,P021,2025_May_08_1157,CategoryLocalizer,2021.2.3,59.95020535953909,
35.8,36.0,5,0.0,Stimuli\Blank.png,0,0,0,48,48,48,,,,,,,,,,,,,35.84605339999962,0.04605339999962155,None,73.11917280000034,73.11917280000034,73.11917280000034,73.11917280000034,73.11917280000034,73.11917280000034,73.11917280000034,73.11917280000034,,001,P021,2025_May_08_1157,CategoryLocalizer,2021.2.3,59.95020535953909,
36.0,36.8,2,0.75,Stimuli\ImageFiles-Set1\Bodies\Bodies_CobraPose_00003.png,0,0,0,49,49,49,,,,,,,,,,,,,36.01301030000013,0.013010300000132702,None,73.30266810000012,73.30266810000012,73.30266810000012,73.30266810000012,73.30266810000012,73.30266810000012,73.30266810000012,73.30266810000012,,001,P021,2025_May_08_1157,CategoryLocalizer,2021.2.3,59.95020535953909,
36.8,37.0,5,0.0,Stimuli\Blank.png,0,0,0,50,50,50,,,,,,,,,,,,,36.830770599999596,0.030770599999598858,None,74.10337710000022,74.10337710000022,74.10337710000022,74.10337710000022,74.10337710000022,74.10337710000022,74.10337710000022,74.10337710000022,,001,P021,2025_May_08_1157,CategoryLocalizer,2021.2.3,59.95020535953909,
37.0,37.8,2,0.75,Stimuli\ImageFiles-Set1\Bodies\Bodies_CobraPose_00003.png,1,1,0,51,51,51,,,,,,,,,,,,,37.014318399999866,0.014318399999865505,1,74.30356920000031,74.30356920000031,74.30356920000031,74.30356920000031,74.30356920000031,74.30356920000031,74.30356920000031,74.30356920000031,0.4361539999999877,001,P021,2025_May_08_1157,CategoryLocalizer,2021.2.3,59.95020535953909,
37.8,38.0,5,0.0,Stimuli\Blank.png,0,0,0,52,52,52,,,,,,,,,,,,,37.831873899999664,0.03187389999966683,None,75.10425850000047,75.10425850000047,75.10425850000047,75.10425850000047,75.10425850000047,75.10425850000047,75.10425850000047,75.10425850000047,,001,P021,2025_May_08_1157,CategoryLocalizer,2021.2.3,59.95020535953909,
38.0,38.8,2,0.75,Stimuli\ImageFiles-Set1\Bodies\Bodies_DownwardDog_00001.png,0,0,0,53,53,53,,,,,,,,,,,,,38.01449479999974,0.014494799999738461,None,75.28776749999997,75.28776749999997,75.28776749999997,75.28776749999997,75.28776749999997,75.28776749999997,75.28776749999997,75.28776749999997,,001,P021,2025_May_08_1157,CategoryLocalizer,2021.2.3,59.95020535953909,
38.8,39.0,5,0.0,Stimuli\Blank.png,0,0,0,54,54,54,,,,,,,,,,,,,38.815251300000455,0.01525130000045749,None,76.08846880000056,76.08846880000056,76.08846880000056,76.08846880000056,76.08846880000056,76.08846880000056,76.08846880000056,76.08846880000056,,001,P021,2025_May_08_1157,CategoryLocalizer,2021.2.3,59.95020535953909,
39.0,39.8,2,0.75,Stimuli\ImageFiles-Set1\Bodies\Bodies_Pushing_00003.png,0,0,0,55,55,55,,,,,,,,,,,,,39.01544279999962,0.015442799999618728,None,76.28863770000044,76.28863770000044,76.28863770000044,76.28863770000044,76.28863770000044,76.28863770000044,76.28863770000044,76.28863770000044,,001,P021,2025_May_08_1157,CategoryLocalizer,2021.2.3,59.95020535953909,
39.8,40.0,5,0.0,Stimuli\Blank.png,0,0,0,56,56,56,,,,,,,,,,,,,39.800129399999605,0.00012939999960792647,None,77.07268110000041,77.07268110000041,77.07268110000041,77.07268110000041,77.07268110000041,77.07268110000041,77.07268110000041,77.07268110000041,,001,P021,2025_May_08_1157,CategoryLocalizer,2021.2.3,59.95020535953909,
40.0,40.8,2,0.75,Stimuli\ImageFiles-Set1\Bodies\Bodies_CobraPose_00005.png,0,0,0,57,57,57,,,,,,,,,,,,,40.00057639999977,0.0005763999997725477,None,77.28953420000016,77.28953420000016,77.28953420000016,77.28953420000016,77.28953420000016,77.28953420000016,77.28953420000016,77.28953420000016,,001,P021,2025_May_08_1157,CategoryLocalizer,2021.2.3,59.95020535953909,
40.8,41.0,5,0.0,Stimuli\Blank.png,0,0,0,58,58,58,,,,,,,,,,,,,40.817041999999674,0.017041999999676705,None,78.09023030000026,78.09023030000026,78.09023030000026,78.09023030000026,78.09023030000026,78.09023030000026,78.09023030000026,78.09023030000026,,001,P021,2025_May_08_1157,CategoryLocalizer,2021.2.3,59.95020535953909,
41.0,41.8,2,0.75,Stimuli\ImageFiles-Set1\Bodies\Bodies_Lunging_00003.png,0,0,0,59,59,59,,,,,,,,,,,,,41.00071660000049,0.000716600000487233,None,78.29042500000014,78.29042500000014,78.29042500000014,78.29042500000014,78.29042500000014,78.29042500000014,78.29042500000014,78.29042500000014,,001,P021,2025_May_08_1157,CategoryLocalizer,2021.2.3,59.95020535953909,
41.8,42.0,5,0.0,Stimuli\Blank.png,0,0,0,60,60,60,,,,,,,,,,,,,41.819387200000165,0.01938720000016758,None,79.09113100000013,79.09113100000013,79.09113100000013,79.09113100000013,79.09113100000013,79.09113100000013,79.09113100000013,79.09113100000013,,001,P021,2025_May_08_1157,CategoryLocalizer,2021.2.3,59.95020535953909,
42.0,42.8,2,0.75,Stimuli\ImageFiles-Set1\Bodies\Bodies_Waving_00007.png,0,0,0,61,61,61,,,,,,,,,,,,,42.004875900000116,0.004875900000115507,None,79.3080246999998,79.3080246999998,79.3080246999998,79.3080246999998,79.3080246999998,79.3080246999998,79.3080246999998,79.3080246999998,,001,P021,2025_May_08_1157,CategoryLocalizer,2021.2.3,59.95020535953909,
42.8,43.0,5,0.0,Stimuli\Blank.png,0,0,0,62,62,62,,,,,,,,,,,,,42.83578409999973,0.035784099999730756,None,80.10868759999994,80.10868759999994,80.10868759999994,80.10868759999994,80.10868759999994,80.10868759999994,80.10868759999994,80.10868759999994,,001,P021,2025_May_08_1157,CategoryLocalizer,2021.2.3,59.95020535953909,
43.0,43.8,2,0.75,Stimuli\ImageFiles-Set1\Bodies\Bodies_DownwardDog_00003.png,0,0,0,63,63,63,,,,,,,,,,,,,43.004129300000386,0.004129300000386138,None,80.29220919999989,80.29220919999989,80.29220919999989,80.29220919999989,80.29220919999989,80.29220919999989,80.29220919999989,80.29220919999989,,001,P021,2025_May_08_1157,CategoryLocalizer,2021.2.3,59.95020535953909,
43.8,44.0,5,0.0,Stimuli\Blank.png,0,0,0,64,64,64,,,,,,,,,,,,,43.820400399999926,0.02040039999992871,None,81.09289009999975,81.09289009999975,81.09289009999975,81.09289009999975,81.09289009999975,81.09289009999975,81.09289009999975,81.09289009999975,,001,P021,2025_May_08_1157,CategoryLocalizer,2021.2.3,59.95020535953909,
44.0,44.8,3,0.75,Stimuli\ImageFiles-Set1\Faces\Face_00039.png,0,0,0,65,65,65,,,,,,,,,,,,,44.00399010000001,0.0039901000000099884,None,81.30974810000043,81.30974810000043,81.30974810000043,81.30974810000043,81.30974810000043,81.30974810000043,81.30974810000043,81.30974810000043,,001,P021,2025_May_08_1157,CategoryLocalizer,2021.2.3,59.95020535953909,
44.8,45.0,5,0.0,Stimuli\Blank.png,0,0,0,66,66,66,,,,,,,,,,,,,44.838392399999975,0.03839239999997801,None,82.1104793000004,82.1104793000004,82.1104793000004,82.1104793000004,82.1104793000004,82.1104793000004,82.1104793000004,82.1104793000004,,001,P021,2025_May_08_1157,CategoryLocalizer,2021.2.3,59.95020535953909,
45.0,45.8,3,0.75,Stimuli\ImageFiles-Set1\Faces\Face_00051.png,0,0,0,67,67,67,,,,,,,,,,,,,45.00555609999992,0.005556099999921571,None,82.29395280000062,82.29395280000062,82.29395280000062,82.29395280000062,82.29395280000062,82.29395280000062,82.29395280000062,82.29395280000062,,001,P021,2025_May_08_1157,CategoryLocalizer,2021.2.3,59.95020535953909,
45.8,46.0,5,0.0,Stimuli\Blank.png,0,0,0,68,68,68,,,,,,,,,,,,,45.82146869999997,0.021468699999971363,None,83.09467060000043,83.09467060000043,83.09467060000043,83.09467060000043,83.09467060000043,83.09467060000043,83.09467060000043,83.09467060000043,,001,P021,2025_May_08_1157,CategoryLocalizer,2021.2.3,59.95020535953909,
46.0,46.8,3,0.75,Stimuli\ImageFiles-Set1\Faces\Face_00031.png,0,0,0,69,69,69,,,,,,,,,,,,,46.00533919999998,0.0053391999999803375,None,83.29484769999999,83.29484769999999,83.29484769999999,83.29484769999999,83.29484769999999,83.29484769999999,83.29484769999999,83.29484769999999,,001,P021,2025_May_08_1157,CategoryLocalizer,2021.2.3,59.95020535953909,
46.8,47.0,5,0.0,Stimuli\Blank.png,0,0,0,70,70,70,,,,,,,,,,,,,46.82481900000039,0.02481900000039161,None,84.09556620000058,84.09556620000058,84.09556620000058,84.09556620000058,84.09556620000058,84.09556620000058,84.09556620000058,84.09556620000058,,001,P021,2025_May_08_1157,CategoryLocalizer,2021.2.3,59.95020535953909,
47.0,47.8,3,0.75,Stimuli\ImageFiles-Set1\Faces\Face_00065.png,0,0,0,71,71,71,,,,,,,,,,,,,47.00631189999967,0.006311899999673187,None,84.2958247000006,84.2958247000006,84.2958247000006,84.2958247000006,84.2958247000006,84.2958247000006,84.2958247000006,84.2958247000006,,001,P021,2025_May_08_1157,CategoryLocalizer,2021.2.3,59.95020535953909,
47.8,48.0,5,0.0,Stimuli\Blank.png,0,0,0,72,72,72,,,,,,,,,,,,,47.823994100000164,0.02399410000016644,None,85.0964340999999,85.0964340999999,85.0964340999999,85.0964340999999,85.0964340999999,85.0964340999999,85.0964340999999,85.0964340999999,,001,P021,2025_May_08_1157,CategoryLocalizer,2021.2.3,59.95020535953909,
48.0,48.8,3,0.75,Stimuli\ImageFiles-Set1\Faces\Face_00053.png,0,0,0,73,73,73,,,,,,,,,,,,,48.00670439999976,0.006704399999762245,None,85.29661310000029,85.29661310000029,85.29661310000029,85.29661310000029,85.29661310000029,85.29661310000029,85.29661310000029,85.29661310000029,,001,P021,2025_May_08_1157,CategoryLocalizer,2021.2.3,59.95020535953909,
48.8,49.0,5,0.0,Stimuli\Blank.png,0,0,0,74,74,74,,,,,,,,,,,,,48.82466250000016,0.024662500000161458,None,86.09731190000002,86.09731190000002,86.09731190000002,86.09731190000002,86.09731190000002,86.09731190000002,86.09731190000002,86.09731190000002,,001,P021,2025_May_08_1157,CategoryLocalizer,2021.2.3,59.95020535953909,
49.0,49.8,3,0.75,Stimuli\ImageFiles-Set1\Faces\Face_00053.png,1,1,0,75,75,75,,,,,,,,,,,,,49.007735400000456,0.0077354000004561385,1,86.2808044000003,86.2808044000003,86.2808044000003,86.2808044000003,86.2808044000003,86.2808044000003,86.2808044000003,86.2808044000003,0.4038862999996127,001,P021,2025_May_08_1157,CategoryLocalizer,2021.2.3,59.95020535953909,
49.8,50.0,5,0.0,Stimuli\Blank.png,0,0,0,76,76,76,,,,,,,,,,,,,49.80828889999975,0.008288899999755017,None,87.0815588000005,87.0815588000005,87.0815588000005,87.0815588000005,87.0815588000005,87.0815588000005,87.0815588000005,87.0815588000005,,001,P021,2025_May_08_1157,CategoryLocalizer,2021.2.3,59.95020535953909,
50.0,50.8,3,0.75,Stimuli\ImageFiles-Set1\Faces\Face_00111.png,0,0,0,77,77,77,,,,,,,,,,,,,50.008484699999826,0.008484699999826262,None,87.31508060000033,87.31508060000033,87.31508060000033,87.31508060000033,87.31508060000033,87.31508060000033,87.31508060000033,87.31508060000033,,001,P021,2025_May_08_1157,CategoryLocalizer,2021.2.3,59.95020535953909,
50.8,51.0,5,0.0,Stimuli\Blank.png,0,0,0,78,78,78,,,,,,,,,,,,,50.84431200000017,0.044312000000175544,None,88.13246270000036,88.13246270000036,88.13246270000036,88.13246270000036,88.13246270000036,88.13246270000036,88.13246270000036,88.13246270000036,,001,P021,2025_May_08_1157,CategoryLocalizer,2021.2.3,59.95020535953909,
51.0,51.8,3,0.75,Stimuli\ImageFiles-Set1\Faces\Face_00027.png,0,0,0,79,79,79,,,,,,,,,,,,,51.026053100000354,0.02605310000035388,None,88.31594550000045,88.31594550000045,88.31594550000045,88.31594550000045,88.31594550000045,88.31594550000045,88.31594550000045,88.31594550000045,,001,P021,2025_May_08_1157,CategoryLocalizer,2021.2.3,59.95020535953909,
51.8,52.0,5,0.0,Stimuli\Blank.png,0,0,0,80,80,80,,,,,,,,,,,,,51.8295121000001,0.029512100000104624,None,89.11665520000042,89.11665520000042,89.11665520000042,89.11665520000042,89.11665520000042,89.11665520000042,89.11665520000042,89.11665520000042,,001,P021,2025_May_08_1157,CategoryLocalizer,2021.2.3,59.95020535953909,
52.0,52.8,3,0.75,Stimuli\ImageFiles-Set1\Faces\Face_00029.png,0,0,0,81,81,81,,,,,,,,,,,,,52.02749370000038,0.02749370000037743,None,89.31679859999986,89.31679859999986,89.31679859999986,89.31679859999986,89.31679859999986,89.31679859999986,89.31679859999986,89.31679859999986,,001,P021,2025_May_08_1157,CategoryLocalizer,2021.2.3,59.95020535953909,
52.8,53.0,5,0.0,Stimuli\Blank.png,0,0,0,82,82,82,,,,,,,,,,,,,52.830397200000334,0.030397200000336966,None,90.11753959999987,90.11753959999987,90.11753959999987,90.11753959999987,90.11753959999987,90.11753959999987,90.11753959999987,90.11753959999987,,001,P021,2025_May_08_1157,CategoryLocalizer,2021.2.3,59.95020535953909,
53.0,53.8,3,0.75,Stimuli\ImageFiles-Set1\Faces\Face_00073.png,0,0,0,83,83,83,,,,,,,,,,,,,53.029332899999645,0.029332899999644724,None,90.3177024000006,90.3177024000006,90.3177024000006,90.3177024000006,90.3177024000006,90.3177024000006,90.3177024000006,90.3177024000006,,001,P021,2025_May_08_1157,CategoryLocalizer,2021.2.3,59.95020535953909,
53.8,54.0,5,0.0,Stimuli\Blank.png,0,0,0,84,84,84,,,,,,,,,,,,,53.82992120000017,0.029921200000174508,None,91.10174060000008,91.10174060000008,91.10174060000008,91.10174060000008,91.10174060000008,91.10174060000008,91.10174060000008,91.10174060000008,,001,P021,2025_May_08_1157,CategoryLocalizer,2021.2.3,59.95020535953909,
54.0,54.8,3,0.75,Stimuli\ImageFiles-Set1\Faces\Face_00045.png,0,0,0,85,85,85,,,,,,,,,,,,,54.01221540000006,0.012215400000059162,None,91.3019318000006,91.3019318000006,91.3019318000006,91.3019318000006,91.3019318000006,91.3019318000006,91.3019318000006,91.3019318000006,,001,P021,2025_May_08_1157,CategoryLocalizer,2021.2.3,59.95020535953909,
54.8,55.0,5,0.0,Stimuli\Blank.png,0,0,0,86,86,86,,,,,,,,,,,,,54.829829500000415,0.029829500000417397,None,92.10263080000004,92.10263080000004,92.10263080000004,92.10263080000004,92.10263080000004,92.10263080000004,92.10263080000004,92.10263080000004,,001,P021,2025_May_08_1157,CategoryLocalizer,2021.2.3,59.95020535953909,
55.0,55.8,3,0.75,Stimuli\ImageFiles-Set1\Faces\Face_00083.png,0,0,0,87,87,87,,,,,,,,,,,,,55.015152599999965,0.015152599999964877,None,92.3028076999999,92.3028076999999,92.3028076999999,92.3028076999999,92.3028076999999,92.3028076999999,92.3028076999999,92.3028076999999,,001,P021,2025_May_08_1157,CategoryLocalizer,2021.2.3,59.95020535953909,
55.8,56.0,5,0.0,Stimuli\Blank.png,0,0,0,88,88,88,,,,,,,,,,,,,55.814292600000044,0.014292600000047173,None,93.08682540000063,93.08682540000063,93.08682540000063,93.08682540000063,93.08682540000063,93.08682540000063,93.08682540000063,93.08682540000063,,001,P021,2025_May_08_1157,CategoryLocalizer,2021.2.3,59.95020535953909,
56.0,56.8,3,0.75,Stimuli\ImageFiles-Set1\Faces\Face_00105.png,0,0,0,89,89,89,,,,,,,,,,,,,56.01432300000033,0.014323000000331376,None,93.32036640000024,93.32036640000024,93.32036640000024,93.32036640000024,93.32036640000024,93.32036640000024,93.32036640000024,93.32036640000024,,001,P021,2025_May_08_1157,CategoryLocalizer,2021.2.3,59.95020535953909,
56.8,57.0,5,0.0,Stimuli\Blank.png,0,0,0,90,90,90,,,,,,,,,,,,,56.848059300000386,0.04805930000038927,None,94.12112419999994,94.12112419999994,94.12112419999994,94.12112419999994,94.12112419999994,94.12112419999994,94.12112419999994,94.12112419999994,,001,P021,2025_May_08_1157,CategoryLocalizer,2021.2.3,59.95020535953909,
57.0,57.8,3,0.75,Stimuli\ImageFiles-Set1\Faces\Face_00012.png,0,0,0,91,91,91,,,,,,,,,,,,,57.014701899999636,0.014701899999636225,None,94.28788239999994,94.28788239999994,94.28788239999994,94.28788239999994,94.28788239999994,94.28788239999994,94.28788239999994,94.28788239999994,,001,P021,2025_May_08_1157,CategoryLocalizer,2021.2.3,59.95020535953909,
57.8,58.0,5,0.0,Stimuli\Blank.png,0,0,0,92,92,92,,,,,,,,,,,,,57.81551880000006,0.015518800000066335,None,95.08858630000032,95.08858630000032,95.08858630000032,95.08858630000032,95.08858630000032,95.08858630000032,95.08858630000032,95.08858630000032,,001,P021,2025_May_08_1157,CategoryLocalizer,2021.2.3,59.95020535953909,
58.0,58.8,3,0.75,Stimuli\ImageFiles-Set1\Faces\Face_00049.png,0,0,0,93,93,93,,,,,,,,,,,,,58.00001189999966,1.1899999663000926e-05,None,95.28877120000016,95.28877120000016,95.28877120000016,95.28877120000016,95.28877120000016,95.28877120000016,95.28877120000016,95.28877120000016,,001,P021,2025_May_08_1157,CategoryLocalizer,2021.2.3,59.95020535953909,
58.8,59.0,5,0.0,Stimuli\Blank.png,0,0,0,94,94,94,,,,,,,,,,,,,58.81707720000031,0.01707720000031543,None,96.08955160000005,96.08955160000005,96.08955160000005,96.08955160000005,96.08955160000005,96.08955160000005,96.08955160000005,96.08955160000005,,001,P021,2025_May_08_1157,CategoryLocalizer,2021.2.3,59.95020535953909,
59.0,59.8,3,0.75,Stimuli\ImageFiles-Set1\Faces\Face_00025.png,0,0,0,95,95,95,,,,,,,,,,,,,59.00038440000026,0.00038440000025730114,None,96.30630610000026,96.30630610000026,96.30630610000026,96.30630610000026,96.30630610000026,96.30630610000026,96.30630610000026,96.30630610000026,,001,P021,2025_May_08_1157,CategoryLocalizer,2021.2.3,59.95020535953909,
59.8,60.0,5,0.0,Stimuli\Blank.png,0,0,0,96,96,96,,,,,,,,,,,,,59.83404940000037,0.034049400000370156,None,97.10704170000008,97.10704170000008,97.10704170000008,97.10704170000008,97.10704170000008,97.10704170000008,97.10704170000008,97.10704170000008,,001,P021,2025_May_08_1157,CategoryLocalizer,2021.2.3,59.95020535953909,
60.0,60.8,4,0.75,Stimuli\ImageFiles-Set1\Scenes\Scenes_031.png,0,0,0,97,97,97,,,,,,,,,,,,,60.000650699999824,0.0006506999998237006,None,97.30723080000007,97.30723080000007,97.30723080000007,97.30723080000007,97.30723080000007,97.30723080000007,97.30723080000007,97.30723080000007,,001,P021,2025_May_08_1157,CategoryLocalizer,2021.2.3,59.95020535953909,
60.8,61.0,5,0.0,Stimuli\Blank.png,0,0,0,98,98,98,,,,,,,,,,,,,60.83486999999968,0.03486999999968532,None,98.1079322000005,98.1079322000005,98.1079322000005,98.1079322000005,98.1079322000005,98.1079322000005,98.1079322000005,98.1079322000005,,001,P021,2025_May_08_1157,CategoryLocalizer,2021.2.3,59.95020535953909,
61.0,61.8,4,0.75,Stimuli\ImageFiles-Set1\Scenes\Scenes_050.png,0,0,0,99,99,99,,,,,,,,,,,,,61.00166650000028,0.001666500000283122,None,98.29142570000022,98.29142570000022,98.29142570000022,98.29142570000022,98.29142570000022,98.29142570000022,98.29142570000022,98.29142570000022,,001,P021,2025_May_08_1157,CategoryLocalizer,2021.2.3,59.95020535953909,
61.8,62.0,5,0.0,Stimuli\Blank.png,0,0,0,100,100,100,,,,,,,,,,,,,61.82046199999968,0.020461999999682234,None,99.09215740000036,99.09215740000036,99.09215740000036,99.09215740000036,99.09215740000036,99.09215740000036,99.09215740000036,99.09215740000036,,001,P021,2025_May_08_1157,CategoryLocalizer,2021.2.3,59.95020535953909,
62.0,62.8,4,0.75,Stimuli\ImageFiles-Set1\Scenes\Scenes_023.png,0,0,0,101,101,101,,,,,,,,,,,,,62.00318460000017,0.0031846000001678476,None,99.27562709999984,99.27562709999984,99.27562709999984,99.27562709999984,99.27562709999984,99.27562709999984,99.27562709999984,99.27562709999984,,001,P021,2025_May_08_1157,CategoryLocalizer,2021.2.3,59.95020535953909,
62.8,63.0,5,0.0,Stimuli\Blank.png,0,0,0,102,102,102,,,,,,,,,,,,,62.80444729999999,0.00444729999999538,None,100.07634510000025,100.07634510000025,100.07634510000025,100.07634510000025,100.07634510000025,100.07634510000025,100.07634510000025,100.07634510000025,,001,P021,2025_May_08_1157,CategoryLocalizer,2021.2.3,59.95020535953909,
63.0,63.8,4,0.75,Stimuli\ImageFiles-Set1\Scenes\Scenes_018.png,0,0,0,103,103,103,,,,,,,,,,,,,63.00343799999973,0.0034379999997327104,None,100.30988680000064,100.30988680000064,100.30988680000064,100.30988680000064,100.30988680000064,100.30988680000064,100.30988680000064,100.30988680000064,,001,P021,2025_May_08_1157,CategoryLocalizer,2021.2.3,59.95020535953909,
63.8,64.0,5,0.0,Stimuli\Blank.png,0,0,0,104,104,104,,,,,,,,,,,,,63.83921569999984,0.03921569999984342,None,101.12728359999983,101.12728359999983,101.12728359999983,101.12728359999983,101.12728359999983,101.12728359999983,101.12728359999983,101.12728359999983,,001,P021,2025_May_08_1157,CategoryLocalizer,2021.2.3,59.95020535953909,
64.0,64.8,4,0.75,Stimuli\ImageFiles-Set1\Scenes\Scenes_038.png,0,0,0,105,105,105,,,,,,,,,,,,,64.02129369999966,0.02129369999966002,None,101.31076120000034,101.31076120000034,101.31076120000034,101.31076120000034,101.31076120000034,101.31076120000034,101.31076120000034,101.31076120000034,,001,P021,2025_May_08_1157,CategoryLocalizer,2021.2.3,59.95020535953909,
64.8,65.0,5,0.0,Stimuli\Blank.png,0,0,0,106,106,106,,,,,,,,,,,,,64.82173030000013,0.021730300000129432,None,102.09476040000027,102.09476040000027,102.09476040000027,102.09476040000027,102.09476040000027,102.09476040000027,102.09476040000027,102.09476040000027,,001,P021,2025_May_08_1157,CategoryLocalizer,2021.2.3,59.95020535953909,
65.0,65.8,4,0.75,Stimuli\ImageFiles-Set1\Scenes\Scenes_056.png,0,0,0,107,107,107,,,,,,,,,,,,,65.0052224000001,0.00522240000009333,None,102.31171530000029,102.31171530000029,102.31171530000029,102.31171530000029,102.31171530000029,102.31171530000029,102.31171530000029,102.31171530000029,,001,P021,2025_May_08_1157,CategoryLocalizer,2021.2.3,59.95020535953909,
65.8,66.0,5,0.0,Stimuli\Blank.png,0,0,0,108,108,108,,,,,,,,,,,,,65.84004060000007,0.040040600000068594,None,103.11234830000012,103.11234830000012,103.11234830000012,103.11234830000012,103.11234830000012,103.11234830000012,103.11234830000012,103.11234830000012,,001,P021,2025_May_08_1157,CategoryLocalizer,2021.2.3,59.95020535953909,
66.0,66.8,4,0.75,Stimuli\ImageFiles-Set1\Scenes\Scenes_012.png,0,0,0,109,109,109,,,,,,,,,,,,,66.0066925000001,0.006692500000099244,None,103.31252889999996,103.31252889999996,103.31252889999996,103.31252889999996,103.31252889999996,103.31252889999996,103.31252889999996,103.31252889999996,,001,P021,2025_May_08_1157,CategoryLocalizer,2021.2.3,59.95020535953909,
66.8,67.0,5,0.0,Stimuli\Blank.png,0,0,0,110,110,110,,,,,,,,,,,,,66.84060190000037,0.04060190000036812,None,104.1132505000005,104.1132505000005,104.1132505000005,104.1132505000005,104.1132505000005,104.1132505000005,104.1132505000005,104.1132505000005,,001,P021,2025_May_08_1157,CategoryLocalizer,2021.2.3,59.95020535953909,
67.0,67.8,4,0.75,Stimuli\ImageFiles-Set1\Scenes\Scenes_039.png,0,0,0,111,111,111,,,,,,,,,,,,,67.0092222000003,0.009222200000294833,None,104.31341770000017,104.31341770000017,104.31341770000017,104.31341770000017,104.31341770000017,104.31341770000017,104.31341770000017,104.31341770000017,,001,P021,2025_May_08_1157,CategoryLocalizer,2021.2.3,59.95020535953909,
67.8,68.0,5,0.0,Stimuli\Blank.png,0,0,0,112,112,112,,,,,,,,,,,,,67.84125120000044,0.041251200000445465,None,105.11412019999989,105.11412019999989,105.11412019999989,105.11412019999989,105.11412019999989,105.11412019999989,105.11412019999989,105.11412019999989,,001,P021,2025_May_08_1157,CategoryLocalizer,2021.2.3,59.95020535953909,
68.0,68.8,4,0.75,Stimuli\ImageFiles-Set1\Scenes\Scenes_048.png,0,0,0,113,113,113,,,,,,,,,,,,,68.01037150000047,0.010371500000474043,None,105.3143170000003,105.3143170000003,105.3143170000003,105.3143170000003,105.3143170000003,105.3143170000003,105.3143170000003,105.3143170000003,,001,P021,2025_May_08_1157,CategoryLocalizer,2021.2.3,59.95020535953909,
68.8,69.0,5,0.0,Stimuli\Blank.png,0,0,0,114,114,114,,,,,,,,,,,,,68.84386739999991,0.04386739999991107,None,106.13173139999981,106.13173139999981,106.13173139999981,106.13173139999981,106.13173139999981,106.13173139999981,106.13173139999981,106.13173139999981,,001,P021,2025_May_08_1157,CategoryLocalizer,2021.2.3,59.95020535953909,
69.0,69.8,4,0.75,Stimuli\ImageFiles-Set1\Scenes\Scenes_045.png,0,0,0,115,115,115,,,,,,,,,,,,,69.02542489999996,0.02542489999996178,None,106.3318661000003,106.3318661000003,106.3318661000003,106.3318661000003,106.3318661000003,106.3318661000003,106.3318661000003,106.3318661000003,,001,P021,2025_May_08_1157,CategoryLocalizer,2021.2.3,59.95020535953909,
69.8,70.0,5,0.0,Stimuli\Blank.png,0,0,0,116,116,116,,,,,,,,,,,,,69.8451312999996,0.04513129999959631,None,107.1326108000003,107.1326108000003,107.1326108000003,107.1326108000003,107.1326108000003,107.1326108000003,107.1326108000003,107.1326108000003,,001,P021,2025_May_08_1157,CategoryLocalizer,2021.2.3,59.95020535953909,
70.0,70.8,4,0.75,Stimuli\ImageFiles-Set1\Scenes\Scenes_022.png,0,0,0,117,117,117,,,,,,,,,,,,,70.0261873999998,0.0261873999997988,None,107.31606830000055,107.31606830000055,107.31606830000055,107.31606830000055,107.31606830000055,107.31606830000055,107.31606830000055,107.31606830000055,,001,P021,2025_May_08_1157,CategoryLocalizer,2021.2.3,59.95020535953909,
70.8,71.0,5,0.0,Stimuli\Blank.png,0,0,0,118,118,118,,,,,,,,,,,,,70.82762379999986,0.027623799999858534,None,108.10009940000054,108.10009940000054,108.10009940000054,108.10009940000054,108.10009940000054,108.10009940000054,108.10009940000054,108.10009940000054,,001,P021,2025_May_08_1157,CategoryLocalizer,2021.2.3,59.95020535953909,
71.0,71.8,4,0.75,Stimuli\ImageFiles-Set1\Scenes\Scenes_022.png,1,1,0,119,119,119,,,,,,,,,,,,,71.01052280000022,0.010522800000217103,1,108.28358800000024,108.28358800000024,108.28358800000024,108.28358800000024,108.28358800000024,108.28358800000024,108.28358800000024,108.28358800000024,0.5211326999997254,001,P021,2025_May_08_1157,CategoryLocalizer,2021.2.3,59.95020535953909,
71.8,72.0,5,0.0,Stimuli\Blank.png,0,0,0,120,120,120,,,,,,,,,,,,,71.8112815000004,0.011281500000407618,None,109.08430279999993,109.08430279999993,109.08430279999993,109.08430279999993,109.08430279999993,109.08430279999993,109.08430279999993,109.08430279999993,,001,P021,2025_May_08_1157,CategoryLocalizer,2021.2.3,59.95020535953909,
72.0,72.8,4,0.75,Stimuli\ImageFiles-Set1\Scenes\Scenes_019.png,0,0,0,121,121,121,,,,,,,,,,,,,72.01192689999971,0.01192689999970753,None,109.31784190000053,109.31784190000053,109.31784190000053,109.31784190000053,109.31784190000053,109.31784190000053,109.31784190000053,109.31784190000053,,001,P021,2025_May_08_1157,CategoryLocalizer,2021.2.3,59.95020535953909,
72.8,73.0,5,0.0,Stimuli\Blank.png,0,0,0,122,122,122,,,,,,,,,,,,,72.84603249999964,0.04603249999964021,None,110.11853750000046,110.11853750000046,110.11853750000046,110.11853750000046,110.11853750000046,110.11853750000046,110.11853750000046,110.11853750000046,,001,P021,2025_May_08_1157,CategoryLocalizer,2021.2.3,59.95020535953909,
73.0,73.8,4,0.75,Stimuli\ImageFiles-Set1\Scenes\Scenes_004.png,0,0,0,123,123,123,,,,,,,,,,,,,73.01405479999994,0.01405479999993986,None,110.31873760000053,110.31873760000053,110.31873760000053,110.31873760000053,110.31873760000053,110.31873760000053,110.31873760000053,110.31873760000053,,001,P021,2025_May_08_1157,CategoryLocalizer,2021.2.3,59.95020535953909,
73.8,74.0,5,0.0,Stimuli\Blank.png,0,0,0,124,124,124,,,,,,,,,,,,,73.84634879999976,0.04634879999976249,None,111.11943400000018,111.11943400000018,111.11943400000018,111.11943400000018,111.11943400000018,111.11943400000018,111.11943400000018,111.11943400000018,,001,P021,2025_May_08_1157,CategoryLocalizer,2021.2.3,59.95020535953909,
74.0,74.8,4,0.75,Stimuli\ImageFiles-Set1\Scenes\Scenes_026.png,0,0,0,125,125,125,,,,,,,,,,,,,74.01336129999981,0.013361299999814946,None,111.30292300000019,111.30292300000019,111.30292300000019,111.30292300000019,111.30292300000019,111.30292300000019,111.30292300000019,111.30292300000019,,001,P021,2025_May_08_1157,CategoryLocalizer,2021.2.3,59.95020535953909,
74.8,75.0,5,0.0,Stimuli\Blank.png,0,0,0,126,126,126,,,,,,,,,,,,,74.83042920000025,0.030429200000256174,None,112.10363400000006,112.10363400000006,112.10363400000006,112.10363400000006,112.10363400000006,112.10363400000006,112.10363400000006,112.10363400000006,,001,P021,2025_May_08_1157,CategoryLocalizer,2021.2.3,59.95020535953909,
75.0,75.8,4,0.75,Stimuli\ImageFiles-Set1\Scenes\Scenes_051.png,0,0,0,127,127,127,,,,,,,,,,,,,75.01457519999985,0.014575199999853794,None,112.32050840000011,112.32050840000011,112.32050840000011,112.32050840000011,112.32050840000011,112.32050840000011,112.32050840000011,112.32050840000011,,001,P021,2025_May_08_1157,CategoryLocalizer,2021.2.3,59.95020535953909,
75.8,76.0,5,0.0,Stimuli\Blank.png,0,0,0,128,128,128,,,,,,,,,,,,,75.85049460000027,0.0504946000002775,None,113.13789050000014,113.13789050000014,113.13789050000014,113.13789050000014,113.13789050000014,113.13789050000014,113.13789050000014,113.13789050000014,,001,P021,2025_May_08_1157,CategoryLocalizer,2021.2.3,59.95020535953909,
76.0,88.0,0,0.0,Stimuli\Blank.png,0,0,0,129,129,129,,,,,,,,,,,,,76.01555449999978,0.015554499999780091,None,113.28801170000042,113.28801170000042,113.28801170000042,113.28801170000042,113.28801170000042,113.28801170000042,113.28801170000042,113.28801170000042,,001,P021,2025_May_08_1157,CategoryLocalizer,2021.2.3,59.95020535953909,
88.0,88.8,3,0.75,Stimuli\ImageFiles-Set1\Faces\Face_00041.png,0,0,0,130,130,130,,,,,,,,,,,,,88.00945200000024,0.009452000000237604,None,125.29864319999979,125.29864319999979,125.29864319999979,125.29864319999979,125.29864319999979,125.29864319999979,125.29864319999979,125.29864319999979,,001,P021,2025_May_08_1157,CategoryLocalizer,2021.2.3,59.95020535953909,
88.8,89.0,5,0.0,Stimuli\Blank.png,0,0,0,131,131,131,,,,,,,,,,,,,88.82626040000014,0.026260400000140294,None,126.09933460000047,126.09933460000047,126.09933460000047,126.09933460000047,126.09933460000047,126.09933460000047,126.09933460000047,126.09933460000047,,001,P021,2025_May_08_1157,CategoryLocalizer,2021.2.3,59.95020535953909,
89.0,89.8,3,0.75,Stimuli\ImageFiles-Set1\Faces\Face_00033.png,0,0,0,132,132,132,,,,,,,,,,,,,89.00971699999991,0.009716999999909604,None,126.29962880000039,126.29962880000039,126.29962880000039,126.29962880000039,126.29962880000039,126.29962880000039,126.29962880000039,126.29962880000039,,001,P021,2025_May_08_1157,CategoryLocalizer,2021.2.3,59.95020535953909,
89.8,90.0,5,0.0,Stimuli\Blank.png,0,0,0,133,133,133,,,,,,,,,,,,,89.82768969999961,0.02768969999961257,None,127.1002339000006,127.1002339000006,127.1002339000006,127.1002339000006,127.1002339000006,127.1002339000006,127.1002339000006,127.1002339000006,,001,P021,2025_May_08_1157,CategoryLocalizer,2021.2.3,59.95020535953909,
90.0,90.8,3,0.75,Stimuli\ImageFiles-Set1\Faces\Face_00107.png,0,0,0,134,134,134,,,,,,,,,,,,,90.01065920000019,0.01065920000019105,None,127.31705490000058,127.31705490000058,127.31705490000058,127.31705490000058,127.31705490000058,127.31705490000058,127.31705490000058,127.31705490000058,,001,P021,2025_May_08_1157,CategoryLocalizer,2021.2.3,59.95020535953909,
90.8,91.0,5,0.0,Stimuli\Blank.png,0,0,0,135,135,135,,,,,,,,,,,,,90.84525940000003,0.04525940000003459,None,128.11778890000005,128.11778890000005,128.11778890000005,128.11778890000005,128.11778890000005,128.11778890000005,128.11778890000005,128.11778890000005,,001,P021,2025_May_08_1157,CategoryLocalizer,2021.2.3,59.95020535953909,
91.0,91.8,3,0.75,Stimuli\ImageFiles-Set1\Faces\Face_00107.png,1,1,0,136,136,136,,,,,,,,,,,,,91.01142880000043,0.011428800000430783,None,128.2846014000006,128.2846014000006,128.2846014000006,128.2846014000006,128.2846014000006,128.2846014000006,128.2846014000006,128.2846014000006,,001,P021,2025_May_08_1157,CategoryLocalizer,2021.2.3,59.95020535953909,
91.8,92.0,5,0.0,Stimuli\Blank.png,0,0,0,137,137,137,,,,,,,,,,,,,91.81438880000042,0.0143888000004182,None,129.10202650000065,129.10202650000065,129.10202650000065,129.10202650000065,129.10202650000065,129.10202650000065,129.10202650000065,129.10202650000065,,001,P021,2025_May_08_1157,CategoryLocalizer,2021.2.3,59.95020535953909,
92.0,92.8,3,0.75,Stimuli\ImageFiles-Set1\Faces\Face_00113.png,0,0,0,138,138,138,,,,,,,,,,,,,92.02903539999988,0.029035399999884248,None,129.31885839999995,129.31885839999995,129.31885839999995,129.31885839999995,129.31885839999995,129.31885839999995,129.31885839999995,129.31885839999995,,001,P021,2025_May_08_1157,CategoryLocalizer,2021.2.3,59.95020535953909,
92.8,93.0,5,0.0,Stimuli\Blank.png,0,0,0,139,139,139,,,,,,,,,,,,,92.83077049999974,0.030770499999746903,None,130.10287609999978,130.10287609999978,130.10287609999978,130.10287609999978,130.10287609999978,130.10287609999978,130.10287609999978,130.10287609999978,,001,P021,2025_May_08_1157,CategoryLocalizer,2021.2.3,59.95020535953909,
93.0,93.8,3,0.75,Stimuli\ImageFiles-Set1\Faces\Face_00077.png,0,0,0,140,140,140,,,,,,,,,,,,,93.01326690000042,0.013266900000417081,None,130.3030806000006,130.3030806000006,130.3030806000006,130.3030806000006,130.3030806000006,130.3030806000006,130.3030806000006,130.3030806000006,,001,P021,2025_May_08_1157,CategoryLocalizer,2021.2.3,59.95020535953909,
93.8,94.0,5,0.0,Stimuli\Blank.png,0,0,0,141,141,141,,,,,,,,,,,,,93.83122029999959,0.031220299999588974,None,131.10376700000052,131.10376700000052,131.10376700000052,131.10376700000052,131.10376700000052,131.10376700000052,131.10376700000052,131.10376700000052,,001,P021,2025_May_08_1157,CategoryLocalizer,2021.2.3,59.95020535953909,
94.0,94.8,3,0.75,Stimuli\ImageFiles-Set1\Faces\Face_00009.png,0,0,0,142,142,142,,,,,,,,,,,,,94.0143121000001,0.014312100000097416,None,131.3206196000001,131.3206196000001,131.3206196000001,131.3206196000001,131.3206196000001,131.3206196000001,131.3206196000001,131.3206196000001,,001,P021,2025_May_08_1157,CategoryLocalizer,2021.2.3,59.95020535953909,
94.8,95.0,5,0.0,Stimuli\Blank.png,0,0,0,143,143,143,,,,,,,,,,,,,94.84806839999965,0.04806839999965007,None,132.1213742,132.1213742,132.1213742,132.1213742,132.1213742,132.1213742,132.1213742,132.1213742,,001,P021,2025_May_08_1157,CategoryLocalizer,2021.2.3,59.95020535953909,
95.0,95.8,3,0.75,Stimuli\ImageFiles-Set1\Faces\Face_00115.png,0,0,0,144,144,144,,,,,,,,,,,,,95.01531030000024,0.015310300000237476,None,132.32150610000008,132.32150610000008,132.32150610000008,132.32150610000008,132.32150610000008,132.32150610000008,132.32150610000008,132.32150610000008,,001,P021,2025_May_08_1157,CategoryLocalizer,2021.2.3,59.95020535953909,
95.8,96.0,5,0.0,Stimuli\Blank.png,0,0,0,145,145,145,,,,,,,,,,,,,95.83304520000002,0.03304520000001787,None,133.10553440000058,133.10553440000058,133.10553440000058,133.10553440000058,133.10553440000058,133.10553440000058,133.10553440000058,133.10553440000058,,001,P021,2025_May_08_1157,CategoryLocalizer,2021.2.3,59.95020535953909,
96.0,96.8,3,0.75,Stimuli\ImageFiles-Set1\Faces\Face_00035.png,0,0,0,146,146,146,,,,,,,,,,,,,95.99987890000011,-0.00012109999988751952,None,133.28899379999984,133.28899379999984,133.28899379999984,133.28899379999984,133.28899379999984,133.28899379999984,133.28899379999984,133.28899379999984,,001,P021,2025_May_08_1157,CategoryLocalizer,2021.2.3,59.95020535953909,
96.8,97.0,5,0.0,Stimuli\Blank.png,0,0,0,147,147,147,,,,,,,,,,,,,96.81649389999984,0.016493899999844075,None,134.08973100000003,134.08973100000003,134.08973100000003,134.08973100000003,134.08973100000003,134.08973100000003,134.08973100000003,134.08973100000003,,001,P021,2025_May_08_1157,CategoryLocalizer,2021.2.3,59.95020535953909,
97.0,97.8,3,0.75,Stimuli\ImageFiles-Set1\Faces\Face_00103.png,1,1,0,148,148,148,,,,,,,,,,,,,97.00033689999964,0.00033689999963826267,None,134.28996689999985,134.28996689999985,134.28996689999985,134.28996689999985,134.28996689999985,134.28996689999985,134.28996689999985,134.28996689999985,,001,P021,2025_May_08_1157,CategoryLocalizer,2021.2.3,59.95020535953909,
97.8,98.0,5,0.0,Stimuli\Blank.png,0,0,0,149,149,149,,,,,,,,,,,,,97.81788030000007,0.01788030000007268,None,135.09066040000016,135.09066040000016,135.09066040000016,135.09066040000016,135.09066040000016,135.09066040000016,135.09066040000016,135.09066040000016,,001,P021,2025_May_08_1157,CategoryLocalizer,2021.2.3,59.95020535953909,
98.0,98.8,3,0.75,Stimuli\ImageFiles-Set1\Faces\Face_00081.png,0,0,0,150,150,150,,,,,,,,,,,,,98.0017498999996,0.0017498999995950726,None,135.30748519999997,135.30748519999997,135.30748519999997,135.30748519999997,135.30748519999997,135.30748519999997,135.30748519999997,135.30748519999997,,001,P021,2025_May_08_1157,CategoryLocalizer,2021.2.3,59.95020535953909,
98.8,99.0,5,0.0,Stimuli\Blank.png,0,0,0,151,151,151,,,,,,,,,,,,,98.83495820000007,0.034958200000076545,None,136.10819280000032,136.10819280000032,136.10819280000032,136.10819280000032,136.10819280000032,136.10819280000032,136.10819280000032,136.10819280000032,,001,P021,2025_May_08_1157,CategoryLocalizer,2021.2.3,59.95020535953909,
99.0,99.8,3,0.75,Stimuli\ImageFiles-Set1\Faces\Face_00081.png,0,0,0,152,152,152,,,,,,,,,,,,,99.00249590000021,0.002495900000212714,1,136.29167479999978,136.29167479999978,136.29167479999978,136.29167479999978,136.29167479999978,136.29167479999978,136.29167479999978,136.29167479999978,0.5279067000001305,001,P021,2025_May_08_1157,CategoryLocalizer,2021.2.3,59.95020535953909,
99.8,100.0,5,0.0,Stimuli\Blank.png,0,0,0,153,153,153,,,,,,,,,,,,,99.81916960000035,0.01916960000035317,None,137.09238660000028,137.09238660000028,137.09238660000028,137.09238660000028,137.09238660000028,137.09238660000028,137.09238660000028,137.09238660000028,,001,P021,2025_May_08_1157,CategoryLocalizer,2021.2.3,59.95020535953909,
100.0,100.8,3,0.75,Stimuli\ImageFiles-Set1\Faces\Face_00022.png,0,0,0,154,154,154,,,,,,,,,,,,,100.00326060000043,0.0032606000004307134,None,137.30932010000015,137.30932010000015,137.30932010000015,137.30932010000015,137.30932010000015,137.30932010000015,137.30932010000015,137.30932010000015,,001,P021,2025_May_08_1157,CategoryLocalizer,2021.2.3,59.95020535953909,
100.8,101.0,5,0.0,Stimuli\Blank.png,0,0,0,155,155,155,,,,,,,,,,,,,100.8377375,0.03773750000000575,None,138.1099337000005,138.1099337000005,138.1099337000005,138.1099337000005,138.1099337000005,138.1099337000005,138.1099337000005,138.1099337000005,,001,P021,2025_May_08_1157,CategoryLocalizer,2021.2.3,59.95020535953909,
101.0,101.8,3,0.75,Stimuli\ImageFiles-Set1\Faces\Face_00085.png,0,0,0,156,156,156,,,,,,,,,,,,,101.00415969999995,0.0041596999999455875,None,138.31014630000027,138.31014630000027,138.31014630000027,138.31014630000027,138.31014630000027,138.31014630000027,138.31014630000027,138.31014630000027,,001,P021,2025_May_08_1157,CategoryLocalizer,2021.2.3,59.95020535953909,
101.8,102.0,5,0.0,Stimuli\Blank.png,0,0,0,157,157,157,,,,,,,,,,,,,101.83864360000007,0.03864360000007139,None,139.11083580000013,139.11083580000013,139.11083580000013,139.11083580000013,139.11083580000013,139.11083580000013,139.11083580000013,139.11083580000013,,001,P021,2025_May_08_1157,CategoryLocalizer,2021.2.3,59.95020535953909,
102.0,102.8,3,0.75,Stimuli\ImageFiles-Set1\Faces\Face_00093.png,0,0,0,158,158,158,,,,,,,,,,,,,102.00450920000003,0.004509200000029523,None,139.29433460000018,139.29433460000018,139.29433460000018,139.29433460000018,139.29433460000018,139.29433460000018,139.29433460000018,139.29433460000018,,001,P021,2025_May_08_1157,CategoryLocalizer,2021.2.3,59.95020535953909,
102.8,103.0,5,0.0,Stimuli\Blank.png,0,0,0,159,159,159,,,,,,,,,,,,,102.82275600000048,0.022756000000484278,None,140.09505700000045,140.09505700000045,140.09505700000045,140.09505700000045,140.09505700000045,140.09505700000045,140.09505700000045,140.09505700000045,,001,P021,2025_May_08_1157,CategoryLocalizer,2021.2.3,59.95020535953909,
103.0,103.8,3,0.75,Stimuli\ImageFiles-Set1\Faces\Face_00069.png,0,0,0,160,160,160,,,,,,,,,,,,,103.00605580000047,0.0060558000004675705,None,140.27852789999997,140.27852789999997,140.27852789999997,140.27852789999997,140.27852789999997,140.27852789999997,140.27852789999997,140.27852789999997,,001,P021,2025_May_08_1157,CategoryLocalizer,2021.2.3,59.95020535953909,
103.8,104.0,5,0.0,Stimuli\Blank.png,0,0,0,161,161,161,,,,,,,,,,,,,103.80604760000006,0.006047600000059106,None,141.07924730000013,141.07924730000013,141.07924730000013,141.07924730000013,141.07924730000013,141.07924730000013,141.07924730000013,141.07924730000013,,001,P021,2025_May_08_1157,CategoryLocalizer,2021.2.3,59.95020535953909,
104.0,104.8,1,0.75,Stimuli\ImageFiles-Set1\Objects\Object_Door_00001.png,0,0,0,162,162,162,,,,,,,,,,,,,104.00728739999977,0.00728739999976824,None,141.2961081000003,141.2961081000003,141.2961081000003,141.2961081000003,141.2961081000003,141.2961081000003,141.2961081000003,141.2961081000003,,001,P021,2025_May_08_1157,CategoryLocalizer,2021.2.3,59.95020535953909,
104.8,105.0,5,0.0,Stimuli\Blank.png,0,0,0,163,163,163,,,,,,,,,,,,,104.82423440000002,0.024234400000025857,None,142.0968155999999,142.0968155999999,142.0968155999999,142.0968155999999,142.0968155999999,142.0968155999999,142.0968155999999,142.0968155999999,,001,P021,2025_May_08_1157,CategoryLocalizer,2021.2.3,59.95020535953909,
105.0,105.8,1,0.75,Stimuli\ImageFiles-Set1\Objects\Object_Bed_00001.png,0,0,0,164,164,164,,,,,,,,,,,,,105.00991290000002,0.009912900000017544,None,142.29704740000034,142.29704740000034,142.29704740000034,142.29704740000034,142.29704740000034,142.29704740000034,142.29704740000034,142.29704740000034,,001,P021,2025_May_08_1157,CategoryLocalizer,2021.2.3,59.95020535953909,
105.8,106.0,5,0.0,Stimuli\Blank.png,0,0,0,165,165,165,,,,,,,,,,,,,105.82486140000037,0.02486140000037551,None,143.09775200000058,143.09775200000058,143.09775200000058,143.09775200000058,143.09775200000058,143.09775200000058,143.09775200000058,143.09775200000058,,001,P021,2025_May_08_1157,CategoryLocalizer,2021.2.3,59.95020535953909,
106.0,106.8,1,0.75,Stimuli\ImageFiles-Set1\Objects\Object_Bed_00001.png,1,1,0,166,166,166,,,,,,,,,,,,,106.00901220000014,0.009012200000142911,1,143.28119289999995,143.28119289999995,143.28119289999995,143.28119289999995,143.28119289999995,143.28119289999995,143.28119289999995,143.28119289999995,0.5815513999996256,001,P021,2025_May_08_1157,CategoryLocalizer,2021.2.3,59.95020535953909,
106.8,107.0,5,0.0,Stimuli\Blank.png,0,0,0,167,167,167,,,,,,,,,,,,,106.8089256000003,0.008925600000296185,None,144.08189610000045,144.08189610000045,144.08189610000045,144.08189610000045,144.08189610000045,144.08189610000045,144.08189610000045,144.08189610000045,,001,P021,2025_May_08_1157,CategoryLocalizer,2021.2.3,59.95020535953909,
107.0,107.8,1,0.75,Stimuli\ImageFiles-Set1\Objects\Object_Dryer_00001.png,0,0,0,168,168,168,,,,,,,,,,,,,107.00999630000024,0.009996300000238989,None,144.31546940000044,144.31546940000044,144.31546940000044,144.31546940000044,144.31546940000044,144.31546940000044,144.31546940000044,144.31546940000044,,001,P021,2025_May_08_1157,CategoryLocalizer,2021.2.3,59.95020535953909,
107.8,108.0,5,0.0,Stimuli\Blank.png,0,0,0,169,169,169,,,,,,,,,,,,,107.8437199,0.04371989999999926,None,145.1161505,145.1161505,145.1161505,145.1161505,145.1161505,145.1161505,145.1161505,145.1161505,,001,P021,2025_May_08_1157,CategoryLocalizer,2021.2.3,59.95020535953909,
108.0,108.8,1,0.75,Stimuli\ImageFiles-Set1\Objects\Object_ComputerMouse_00001.png,0,0,0,170,170,170,,,,,,,,,,,,,108.0097609000004,0.009760900000401307,None,145.2996406000002,145.2996406000002,145.2996406000002,145.2996406000002,145.2996406000002,145.2996406000002,145.2996406000002,145.2996406000002,,001,P021,2025_May_08_1157,CategoryLocalizer,2021.2.3,59.95020535953909,
108.8,109.0,5,0.0,Stimuli\Blank.png,0,0,0,171,171,171,,,,,,,,,,,,,108.82969860000048,0.029698600000486408,None,146.11703840000064,146.11703840000064,146.11703840000064,146.11703840000064,146.11703840000064,146.11703840000064,146.11703840000064,146.11703840000064,,001,P021,2025_May_08_1157,CategoryLocalizer,2021.2.3,59.95020535953909,
109.0,109.8,1,0.75,Stimuli\ImageFiles-Set1\Objects\Object_Boat_00001.png,0,0,0,172,172,172,,,,,,,,,,,,,109.02892020000036,0.028920200000357,None,146.33393429999978,146.33393429999978,146.33393429999978,146.33393429999978,146.33393429999978,146.33393429999978,146.33393429999978,146.33393429999978,,001,P021,2025_May_08_1157,CategoryLocalizer,2021.2.3,59.95020535953909,
109.8,110.0,5,0.0,Stimuli\Blank.png,0,0,0,173,173,173,,,,,,,,,,,,,109.84533610000017,0.04533610000017063,None,147.11792419999983,147.11792419999983,147.11792419999983,147.11792419999983,147.11792419999983,147.11792419999983,147.11792419999983,147.11792419999983,,001,P021,2025_May_08_1157,CategoryLocalizer,2021.2.3,59.95020535953909,
110.0,110.8,1,0.75,Stimuli\ImageFiles-Set1\Objects\Object_Oven_00001.png,0,0,0,174,174,174,,,,,,,,,,,,,110.0116108000002,0.011610800000198651,None,147.30141439999989,147.30141439999989,147.30141439999989,147.30141439999989,147.30141439999989,147.30141439999989,147.30141439999989,147.30141439999989,,001,P021,2025_May_08_1157,CategoryLocalizer,2021.2.3,59.95020535953909,
110.8,111.0,5,0.0,Stimuli\Blank.png,0,0,0,175,175,175,,,,,,,,,,,,,110.8302948999999,0.03029489999990176,None,148.10214129999986,148.10214129999986,148.10214129999986,148.10214129999986,148.10214129999986,148.10214129999986,148.10214129999986,148.10214129999986,,001,P021,2025_May_08_1157,CategoryLocalizer,2021.2.3,59.95020535953909,
111.0,111.8,1,0.75,Stimuli\ImageFiles-Set1\Objects\Object_Chest_00001.png,0,0,0,176,176,176,,,,,,,,,,,,,111.0143208999998,0.01432089999980235,None,148.3189914000004,148.3189914000004,148.3189914000004,148.3189914000004,148.3189914000004,148.3189914000004,148.3189914000004,148.3189914000004,,001,P021,2025_May_08_1157,CategoryLocalizer,2021.2.3,59.95020535953909,
111.8,112.0,5,0.0,Stimuli\Blank.png,0,0,0,177,177,177,,,,,,,,,,,,,111.84722460000012,0.04722460000012063,None,149.11970079999992,149.11970079999992,149.11970079999992,149.11970079999992,149.11970079999992,149.11970079999992,149.11970079999992,149.11970079999992,,001,P021,2025_May_08_1157,CategoryLocalizer,2021.2.3,59.95020535953909,
112.0,112.8,1,0.75,Stimuli\ImageFiles-Set1\Objects\Object_Pipe_00001.png,0,0,0,178,178,178,,,,,,,,,,,,,112.01388640000005,0.013886400000046706,None,149.30317710000054,149.30317710000054,149.30317710000054,149.30317710000054,149.30317710000054,149.30317710000054,149.30317710000054,149.30317710000054,,001,P021,2025_May_08_1157,CategoryLocalizer,2021.2.3,59.95020535953909,
112.8,113.0,5,0.0,Stimuli\Blank.png,0,0,0,179,179,179,,,,,,,,,,,,,112.83082540000032,0.03082540000032452,None,150.1038819000005,150.1038819000005,150.1038819000005,150.1038819000005,150.1038819000005,150.1038819000005,150.1038819000005,150.1038819000005,,001,P021,2025_May_08_1157,CategoryLocalizer,2021.2.3,59.95020535953909,
113.0,113.8,1,0.75,Stimuli\ImageFiles-Set1\Objects\Object_Tool_00001.png,0,0,0,180,180,180,,,,,,,,,,,,,113.01495590000013,0.014955900000131805,None,150.28736260000005,150.28736260000005,150.28736260000005,150.28736260000005,150.28736260000005,150.28736260000005,150.28736260000005,150.28736260000005,,001,P021,2025_May_08_1157,CategoryLocalizer,2021.2.3,59.95020535953909,
113.8,114.0,5,0.0,Stimuli\Blank.png,0,0,0,181,181,181,,,,,,,,,,,,,113.79946990000008,-0.0005300999999207079,None,151.07141480000064,151.07141480000064,151.07141480000064,151.07141480000064,151.07141480000064,151.07141480000064,151.07141480000064,151.07141480000064,,001,P021,2025_May_08_1157,CategoryLocalizer,2021.2.3,59.95020535953909,
114.0,114.8,1,0.75,Stimuli\ImageFiles-Set1\Objects\Object_Matches_00001.png,0,0,0,182,182,182,,,,,,,,,,,,,113.99913730000026,-0.0008626999997431994,None,151.28827749999982,151.28827749999982,151.28827749999982,151.28827749999982,151.28827749999982,151.28827749999982,151.28827749999982,151.28827749999982,,001,P021,2025_May_08_1157,CategoryLocalizer,2021.2.3,59.95020535953909,
114.8,115.0,5,0.0,Stimuli\Blank.png,0,0,0,183,183,183,,,,,,,,,,,,,114.81571170000007,0.015711700000068163,None,152.08897390000038,152.08897390000038,152.08897390000038,152.08897390000038,152.08897390000038,152.08897390000038,152.08897390000038,152.08897390000038,,001,P021,2025_May_08_1157,CategoryLocalizer,2021.2.3,59.95020535953909,
115.0,115.8,1,0.75,Stimuli\ImageFiles-Set1\Objects\Object_Pillow_00001.png,0,0,0,184,184,184,,,,,,,,,,,,,114.99920219999967,-0.0007978000003276975,None,152.28915959999995,152.28915959999995,152.28915959999995,152.28915959999995,152.28915959999995,152.28915959999995,152.28915959999995,152.28915959999995,,001,P021,2025_May_08_1157,CategoryLocalizer,2021.2.3,59.95020535953909,
115.8,116.0,5,0.0,Stimuli\Blank.png,0,0,0,185,185,185,,,,,,,,,,,,,115.81927499999983,0.01927499999983695,None,153.10655860000043,153.10655860000043,153.10655860000043,153.10655860000043,153.10655860000043,153.10655860000043,153.10655860000043,153.10655860000043,,001,P021,2025_May_08_1157,CategoryLocalizer,2021.2.3,59.95020535953909,
116.0,116.8,1,0.75,Stimuli\ImageFiles-Set1\Objects\Object_Box_00001.png,0,0,0,186,186,186,,,,,,,,,,,,,116.01692650000041,0.01692650000040885,None,153.3067146000003,153.3067146000003,153.3067146000003,153.3067146000003,153.3067146000003,153.3067146000003,153.3067146000003,153.3067146000003,,001,P021,2025_May_08_1157,CategoryLocalizer,2021.2.3,59.95020535953909,
116.8,117.0,5,0.0,Stimuli\Blank.png,0,0,0,187,187,187,,,,,,,,,,,,,116.82010249999985,0.02010249999985092,None,154.10743129999992,154.10743129999992,154.10743129999992,154.10743129999992,154.10743129999992,154.10743129999992,154.10743129999992,154.10743129999992,,001,P021,2025_May_08_1157,CategoryLocalizer,2021.2.3,59.95020535953909,
117.0,117.8,1,0.75,Stimuli\ImageFiles-Set1\Objects\Object_Lipstick_00001.png,1,1,0,188,188,188,,,,,,,,,,,,,117.01854660000026,0.018546600000263425,None,154.30760850000024,154.30760850000024,154.30760850000024,154.30760850000024,154.30760850000024,154.30760850000024,154.30760850000024,154.30760850000024,,001,P021,2025_May_08_1157,CategoryLocalizer,2021.2.3,59.95020535953909,
117.8,118.0,5,0.0,Stimuli\Blank.png,0,0,0,189,189,189,,,,,,,,,,,,,117.82010799999989,0.020107999999893877,None,155.09163640000043,155.09163640000043,155.09163640000043,155.09163640000043,155.09163640000043,155.09163640000043,155.09163640000043,155.09163640000043,,001,P021,2025_May_08_1157,CategoryLocalizer,2021.2.3,59.95020535953909,
118.0,118.8,1,0.75,Stimuli\ImageFiles-Set1\Objects\Object_Pot_00001.png,0,0,0,190,190,190,,,,,,,,,,,,,118.00491090000014,0.004910900000140828,None,155.30852240000058,155.30852240000058,155.30852240000058,155.30852240000058,155.30852240000058,155.30852240000058,155.30852240000058,155.30852240000058,,001,P021,2025_May_08_1157,CategoryLocalizer,2021.2.3,59.95020535953909,
118.8,119.0,5,0.0,Stimuli\Blank.png,0,0,0,191,191,191,,,,,,,,,,,,,118.83718359999966,0.03718359999966481,None,156.1091924000002,156.1091924000002,156.1091924000002,156.1091924000002,156.1091924000002,156.1091924000002,156.1091924000002,156.1091924000002,,001,P021,2025_May_08_1157,CategoryLocalizer,2021.2.3,59.95020535953909,
119.0,119.8,1,0.75,Stimuli\ImageFiles-Set1\Objects\Object_Pot_00001.png,0,0,0,192,192,192,,,,,,,,,,,,,119.00422479999997,0.004224799999974493,1,156.29271979999976,156.29271979999976,156.29271979999976,156.29271979999976,156.29271979999976,156.29271979999976,156.29271979999976,156.29271979999976,0.4680009000003338,001,P021,2025_May_08_1157,CategoryLocalizer,2021.2.3,59.95020535953909,
119.8,120.0,5,0.0,Stimuli\Blank.png,0,0,0,193,193,193,,,,,,,,,,,,,119.82111110000005,0.02111110000005567,None,157.0933945000006,157.0933945000006,157.0933945000006,157.0933945000006,157.0933945000006,157.0933945000006,157.0933945000006,157.0933945000006,,001,P021,2025_May_08_1157,CategoryLocalizer,2021.2.3,59.95020535953909,
120.0,120.8,4,0.75,Stimuli\ImageFiles-Set1\Scenes\Scenes_002.png,0,0,0,194,194,194,,,,,,,,,,,,,120.0042970000004,0.004297000000406115,None,157.29357359999995,157.29357359999995,157.29357359999995,157.29357359999995,157.29357359999995,157.29357359999995,157.29357359999995,157.29357359999995,,001,P021,2025_May_08_1157,CategoryLocalizer,2021.2.3,59.95020535953909,
120.8,121.0,5,0.0,Stimuli\Blank.png,0,0,0,195,195,195,,,,,,,,,,,,,120.82117949999974,0.021179499999746554,None,158.09428200000002,158.09428200000002,158.09428200000002,158.09428200000002,158.09428200000002,158.09428200000002,158.09428200000002,158.09428200000002,,001,P021,2025_May_08_1157,CategoryLocalizer,2021.2.3,59.95020535953909,
121.0,121.8,4,0.75,Stimuli\ImageFiles-Set1\Scenes\Scenes_027.png,0,0,0,196,196,196,,,,,,,,,,,,,121.0047083999998,0.00470839999979944,None,158.29445620000024,158.29445620000024,158.29445620000024,158.29445620000024,158.29445620000024,158.29445620000024,158.29445620000024,158.29445620000024,,001,P021,2025_May_08_1157,CategoryLocalizer,2021.2.3,59.95020535953909,
121.8,122.0,5,0.0,Stimuli\Blank.png,0,0,0,197,197,197,,,,,,,,,,,,,121.82274169999982,0.022741699999826892,None,159.09516580000036,159.09516580000036,159.09516580000036,159.09516580000036,159.09516580000036,159.09516580000036,159.09516580000036,159.09516580000036,,001,P021,2025_May_08_1157,CategoryLocalizer,2021.2.3,59.95020535953909,
122.0,122.8,4,0.75,Stimuli\ImageFiles-Set1\Scenes\Scenes_027.png,1,1,0,198,198,198,,,,,,,,,,,,,122.00643300000047,0.0064330000004702015,1,159.2786556000001,159.2786556000001,159.2786556000001,159.2786556000001,159.2786556000001,159.2786556000001,159.2786556000001,159.2786556000001,0.6574032999997144,001,P021,2025_May_08_1157,CategoryLocalizer,2021.2.3,59.95020535953909,
122.8,123.0,5,0.0,Stimuli\Blank.png,0,0,0,199,199,199,,,,,,,,,,,,,122.80633860000034,0.006338600000347583,None,160.07936830000017,160.07936830000017,160.07936830000017,160.07936830000017,160.07936830000017,160.07936830000017,160.07936830000017,160.07936830000017,,001,P021,2025_May_08_1157,CategoryLocalizer,2021.2.3,59.95020535953909,
123.0,123.8,4,0.75,Stimuli\ImageFiles-Set1\Scenes\Scenes_011.png,0,0,0,200,200,200,,,,,,,,,,,,,123.0067296999996,0.0067296999995960505,None,160.31297280000035,160.31297280000035,160.31297280000035,160.31297280000035,160.31297280000035,160.31297280000035,160.31297280000035,160.31297280000035,,001,P021,2025_May_08_1157,CategoryLocalizer,2021.2.3,59.95020535953909,
123.8,124.0,5,0.0,Stimuli\Blank.png,0,0,0,201,201,201,,,,,,,,,,,,,123.84117830000014,0.041178300000140666,None,161.11362370000006,161.11362370000006,161.11362370000006,161.11362370000006,161.11362370000006,161.11362370000006,161.11362370000006,161.11362370000006,,001,P021,2025_May_08_1157,CategoryLocalizer,2021.2.3,59.95020535953909,
124.0,124.8,4,0.75,Stimuli\ImageFiles-Set1\Scenes\Scenes_035.png,0,0,0,202,202,202,,,,,,,,,,,,,124.00742009999976,0.007420099999762897,None,161.29711029999999,161.29711029999999,161.29711029999999,161.29711029999999,161.29711029999999,161.29711029999999,161.29711029999999,161.29711029999999,,001,P021,2025_May_08_1157,CategoryLocalizer,2021.2.3,59.95020535953909,
124.8,125.0,5,0.0,Stimuli\Blank.png,0,0,0,203,203,203,,,,,,,,,,,,,124.82499420000022,0.024994200000222122,None,162.0978171000006,162.0978171000006,162.0978171000006,162.0978171000006,162.0978171000006,162.0978171000006,162.0978171000006,162.0978171000006,,001,P021,2025_May_08_1157,CategoryLocalizer,2021.2.3,59.95020535953909,
125.0,125.8,4,0.75,Stimuli\ImageFiles-Set1\Scenes\Scenes_033.png,0,0,0,204,204,204,,,,,,,,,,,,,125.0089525000003,0.008952500000305008,None,162.3146886000004,162.3146886000004,162.3146886000004,162.3146886000004,162.3146886000004,162.3146886000004,162.3146886000004,162.3146886000004,,001,P021,2025_May_08_1157,CategoryLocalizer,2021.2.3,59.95020535953909,
125.8,126.0,5,0.0,Stimuli\Blank.png,0,0,0,205,205,205,,,,,,,,,,,,,125.84408989999974,0.04408989999974722,None,163.13210100000015,163.13210100000015,163.13210100000015,163.13210100000015,163.13210100000015,163.13210100000015,163.13210100000015,163.13210100000015,,001,P021,2025_May_08_1157,CategoryLocalizer,2021.2.3,59.95020535953909,
126.0,126.8,4,0.75,Stimuli\ImageFiles-Set1\Scenes\Scenes_025.png,0,0,0,206,206,206,,,,,,,,,,,,,126.02569620000031,0.025696200000311364,None,163.33225690000017,163.33225690000017,163.33225690000017,163.33225690000017,163.33225690000017,163.33225690000017,163.33225690000017,163.33225690000017,,001,P021,2025_May_08_1157,CategoryLocalizer,2021.2.3,59.95020535953909,
126.8,127.0,5,0.0,Stimuli\Blank.png,0,0,0,207,207,207,,,,,,,,,,,,,126.84373370000048,0.043733700000487374,None,164.11627339999995,164.11627339999995,164.11627339999995,164.11627339999995,164.11627339999995,164.11627339999995,164.11627339999995,164.11627339999995,,001,P021,2025_May_08_1157,CategoryLocalizer,2021.2.3,59.95020535953909,
127.0,127.8,4,0.75,Stimuli\ImageFiles-Set1\Scenes\Scenes_049.png,0,0,0,208,208,208,,,,,,,,,,,,,127.01077410000016,0.010774100000162434,None,164.29976480000005,164.29976480000005,164.29976480000005,164.29976480000005,164.29976480000005,164.29976480000005,164.29976480000005,164.29976480000005,,001,P021,2025_May_08_1157,CategoryLocalizer,2021.2.3,59.95020535953909,
127.8,128.0,5,0.0,Stimuli\Blank.png,0,0,0,209,209,209,,,,,,,,,,,,,127.82793260000017,0.027932600000170282,None,165.10044460000063,165.10044460000063,165.10044460000063,165.10044460000063,165.10044460000063,165.10044460000063,165.10044460000063,165.10044460000063,,001,P021,2025_May_08_1157,CategoryLocalizer,2021.2.3,59.95020535953909,
128.0,128.8,4,0.75,Stimuli\ImageFiles-Set1\Scenes\Scenes_007.png,0,0,0,210,210,210,,,,,,,,,,,,,128.01143750000028,0.011437500000283762,None,165.30064200000015,165.30064200000015,165.30064200000015,165.30064200000015,165.30064200000015,165.30064200000015,165.30064200000015,165.30064200000015,,001,P021,2025_May_08_1157,CategoryLocalizer,2021.2.3,59.95020535953909,
128.8,129.0,5,0.0,Stimuli\Blank.png,0,0,0,211,211,211,,,,,,,,,,,,,128.82886510000026,0.028865100000246002,None,166.10137050000048,166.10137050000048,166.10137050000048,166.10137050000048,166.10137050000048,166.10137050000048,166.10137050000048,166.10137050000048,,001,P021,2025_May_08_1157,CategoryLocalizer,2021.2.3,59.95020535953909,
129.0,129.8,4,0.75,Stimuli\ImageFiles-Set1\Scenes\Scenes_054.png,0,0,0,212,212,212,,,,,,,,,,,,,129.01437439999972,0.014374399999724119,None,166.3182151000001,166.3182151000001,166.3182151000001,166.3182151000001,166.3182151000001,166.3182151000001,166.3182151000001,166.3182151000001,,001,P021,2025_May_08_1157,CategoryLocalizer,2021.2.3,59.95020535953909,
129.8,130.0,5,0.0,Stimuli\Blank.png,0,0,0,213,213,213,,,,,,,,,,,,,129.84629140000015,0.04629140000014331,None,167.1189328999999,167.1189328999999,167.1189328999999,167.1189328999999,167.1189328999999,167.1189328999999,167.1189328999999,167.1189328999999,,001,P021,2025_May_08_1157,CategoryLocalizer,2021.2.3,59.95020535953909,
130.0,130.8,4,0.75,Stimuli\ImageFiles-Set1\Scenes\Scenes_053.png,0,0,0,214,214,214,,,,,,,,,,,,,130.01500320000014,0.01500320000013744,None,167.3191367999998,167.3191367999998,167.3191367999998,167.3191367999998,167.3191367999998,167.3191367999998,167.3191367999998,167.3191367999998,,001,P021,2025_May_08_1157,CategoryLocalizer,2021.2.3,59.95020535953909,
130.8,131.0,5,0.0,Stimuli\Blank.png,0,0,0,215,215,215,,,,,,,,,,,,,130.84803790000024,0.048037900000224454,None,168.1198101,168.1198101,168.1198101,168.1198101,168.1198101,168.1198101,168.1198101,168.1198101,,001,P021,2025_May_08_1157,CategoryLocalizer,2021.2.3,59.95020535953909,
131.0,131.8,4,0.75,Stimuli\ImageFiles-Set1\Scenes\Scenes_005.png,0,0,0,216,216,216,,,,,,,,,,,,,131.01355020000028,0.01355020000028162,None,168.32000549999975,168.32000549999975,168.32000549999975,168.32000549999975,168.32000549999975,168.32000549999975,168.32000549999975,168.32000549999975,,001,P021,2025_May_08_1157,CategoryLocalizer,2021.2.3,59.95020535953909,
131.8,132.0,5,0.0,Stimuli\Blank.png,0,0,0,217,217,217,,,,,,,,,,,,,131.84929490000013,0.04929490000012038,None,169.13739720000012,169.13739720000012,169.13739720000012,169.13739720000012,169.13739720000012,169.13739720000012,169.13739720000012,169.13739720000012,,001,P021,2025_May_08_1157,CategoryLocalizer,2021.2.3,59.95020535953909,
132.0,132.8,4,0.75,Stimuli\ImageFiles-Set1\Scenes\Scenes_052.png,0,0,0,218,218,218,,,,,,,,,,,,,132.01532810000026,0.015328100000260747,None,169.3041892000001,169.3041892000001,169.3041892000001,169.3041892000001,169.3041892000001,169.3041892000001,169.3041892000001,169.3041892000001,,001,P021,2025_May_08_1157,CategoryLocalizer,2021.2.3,59.95020535953909,
132.8,133.0,5,0.0,Stimuli\Blank.png,0,0,0,219,219,219,,,,,,,,,,,,,132.81497039999977,0.014970399999754136,None,170.08822280000004,170.08822280000004,170.08822280000004,170.08822280000004,170.08822280000004,170.08822280000004,170.08822280000004,170.08822280000004,,001,P021,2025_May_08_1157,CategoryLocalizer,2021.2.3,59.95020535953909,
133.0,133.8,4,0.75,Stimuli\ImageFiles-Set1\Scenes\Scenes_030.png,0,0,0,220,220,220,,,,,,,,,,,,,133.01607609999974,0.01607609999973647,1,170.3217592000001,170.3217592000001,170.3217592000001,170.3217592000001,170.3217592000001,170.3217592000001,170.3217592000001,170.3217592000001,0.5360051999996358,001,P021,2025_May_08_1157,CategoryLocalizer,2021.2.3,59.95020535953909,
133.8,134.0,5,0.0,Stimuli\Blank.png,0,0,0,221,221,221,,,,,,,,,,,,,133.83538669999962,0.03538669999960575,None,171.1224675000003,171.1224675000003,171.1224675000003,171.1224675000003,171.1224675000003,171.1224675000003,171.1224675000003,171.1224675000003,,001,P021,2025_May_08_1157,CategoryLocalizer,2021.2.3,59.95020535953909,
134.0,134.8,4,0.75,Stimuli\ImageFiles-Set1\Scenes\Scenes_016.png,0,0,0,222,222,222,,,,,,,,,,,,,134.01611680000042,0.016116800000418152,None,171.32266299999992,171.32266299999992,171.32266299999992,171.32266299999992,171.32266299999992,171.32266299999992,171.32266299999992,171.32266299999992,,001,P021,2025_May_08_1157,CategoryLocalizer,2021.2.3,59.95020535953909,
134.8,135.0,5,0.0,Stimuli\Blank.png,0,0,0,223,223,223,,,,,,,,,,,,,134.83366879999994,0.03366879999992989,None,172.1067552000004,172.1067552000004,172.1067552000004,172.1067552000004,172.1067552000004,172.1067552000004,172.1067552000004,172.1067552000004,,001,P021,2025_May_08_1157,CategoryLocalizer,2021.2.3,59.95020535953909,
135.0,135.8,4,0.75,Stimuli\ImageFiles-Set1\Scenes\Scenes_032.png,0,0,0,224,224,224,,,,,,,,,,,,,135.00034950000008,0.00034950000008393545,None,172.29015600000002,172.29015600000002,172.29015600000002,172.29015600000002,172.29015600000002,172.29015600000002,172.29015600000002,172.29015600000002,,001,P021,2025_May_08_1157,CategoryLocalizer,2021.2.3,59.95020535953909,
135.8,136.0,5,0.0,Stimuli\Blank.png,0,0,0,225,225,225,,,,,,,,,,,,,135.8194610999999,0.01946109999988721,None,173.10755419999987,173.10755419999987,173.10755419999987,173.10755419999987,173.10755419999987,173.10755419999987,173.10755419999987,173.10755419999987,,001,P021,2025_May_08_1157,CategoryLocalizer,2021.2.3,59.95020535953909,
136.0,136.8,2,0.75,Stimuli\ImageFiles-Set1\Bodies\Bodies_Walking_00004.png,0,0,0,226,226,226,,,,,,,,,,,,,136.02127910000036,0.021279100000356266,None,173.3244676000004,173.3244676000004,173.3244676000004,173.3244676000004,173.3244676000004,173.3244676000004,173.3244676000004,173.3244676000004,,001,P021,2025_May_08_1157,CategoryLocalizer,2021.2.3,59.95020535953909,
136.8,137.0,5,0.0,Stimuli\Blank.png,0,0,0,227,227,227,,,,,,,,,,,,,136.8360462999999,0.03604629999989584,None,174.1084595000002,174.1084595000002,174.1084595000002,174.1084595000002,174.1084595000002,174.1084595000002,174.1084595000002,174.1084595000002,,001,P021,2025_May_08_1157,CategoryLocalizer,2021.2.3,59.95020535953909,
137.0,137.8,2,0.75,Stimuli\ImageFiles-Set1\Bodies\Bodies_Lunging_00001.png,0,0,0,228,228,228,,,,,,,,,,,,,137.0028787000001,0.002878700000110257,None,174.2919522000002,174.2919522000002,174.2919522000002,174.2919522000002,174.2919522000002,174.2919522000002,174.2919522000002,174.2919522000002,,001,P021,2025_May_08_1157,CategoryLocalizer,2021.2.3,59.95020535953909,
137.8,138.0,5,0.0,Stimuli\Blank.png,0,0,0,229,229,229,,,,,,,,,,,,,137.82024269999965,0.0202426999996419,None,175.09272770000007,175.09272770000007,175.09272770000007,175.09272770000007,175.09272770000007,175.09272770000007,175.09272770000007,175.09272770000007,,001,P021,2025_May_08_1157,CategoryLocalizer,2021.2.3,59.95020535953909,
138.0,138.8,2,0.75,Stimuli\ImageFiles-Set1\Bodies\Bodies_Lunging_00001.png,1,1,0,230,230,230,,,,,,,,,,,,,138.00407150000046,0.004071500000463857,1,175.29281439999977,175.29281439999977,175.29281439999977,175.29281439999977,175.29281439999977,175.29281439999977,175.29281439999977,175.29281439999977,0.46393259999967995,001,P021,2025_May_08_1157,CategoryLocalizer,2021.2.3,59.95020535953909,
138.8,139.0,5,0.0,Stimuli\Blank.png,0,0,0,231,231,231,,,,,,,,,,,,,138.82066599999962,0.02066599999960772,None,176.09353139999985,176.09353139999985,176.09353139999985,176.09353139999985,176.09353139999985,176.09353139999985,176.09353139999985,176.09353139999985,,001,P021,2025_May_08_1157,CategoryLocalizer,2021.2.3,59.95020535953909,
139.0,139.8,2,0.75,Stimuli\ImageFiles-Set1\Bodies\Bodies_Falling_00006.png,0,0,0,232,232,232,,,,,,,,,,,,,139.0040286000003,0.004028600000310689,None,176.29369750000023,176.29369750000023,176.29369750000023,176.29369750000023,176.29369750000023,176.29369750000023,176.29369750000023,176.29369750000023,,001,P021,2025_May_08_1157,CategoryLocalizer,2021.2.3,59.95020535953909,
139.8,140.0,5,0.0,Stimuli\Blank.png,0,0,0,233,233,233,,,,,,,,,,,,,139.8240340000002,0.024034000000199285,None,177.1111031999999,177.1111031999999,177.1111031999999,177.1111031999999,177.1111031999999,177.1111031999999,177.1111031999999,177.1111031999999,,001,P021,2025_May_08_1157,CategoryLocalizer,2021.2.3,59.95020535953909,
140.0,140.8,2,0.75,Stimuli\ImageFiles-Set1\Bodies\Bodies_Jumping_00006.png,0,0,0,234,234,234,,,,,,,,,,,,,140.02202750000015,0.022027500000149303,None,177.31129820000024,177.31129820000024,177.31129820000024,177.31129820000024,177.31129820000024,177.31129820000024,177.31129820000024,177.31129820000024,,001,P021,2025_May_08_1157,CategoryLocalizer,2021.2.3,59.95020535953909,
140.8,141.0,5,0.0,Stimuli\Blank.png,0,0,0,235,235,235,,,,,,,,,,,,,140.82209760000023,0.022097600000222428,None,178.0952855000005,178.0952855000005,178.0952855000005,178.0952855000005,178.0952855000005,178.0952855000005,178.0952855000005,178.0952855000005,,001,P021,2025_May_08_1157,CategoryLocalizer,2021.2.3,59.95020535953909,
141.0,141.8,2,0.75,Stimuli\ImageFiles-Set1\Bodies\Bodies_SittingFloor_00005.png,0,0,0,236,236,236,,,,,,,,,,,,,141.0064239000003,0.006423900000299909,None,178.29544220000025,178.29544220000025,178.29544220000025,178.29544220000025,178.29544220000025,178.29544220000025,178.29544220000025,178.29544220000025,,001,P021,2025_May_08_1157,CategoryLocalizer,2021.2.3,59.95020535953909,
141.8,142.0,5,0.0,Stimuli\Blank.png,0,0,0,237,237,237,,,,,,,,,,,,,141.8237036999999,0.023703699999884975,None,179.09617609999987,179.09617609999987,179.09617609999987,179.09617609999987,179.09617609999987,179.09617609999987,179.09617609999987,179.09617609999987,,001,P021,2025_May_08_1157,CategoryLocalizer,2021.2.3,59.95020535953909,
142.0,142.8,2,0.75,Stimuli\ImageFiles-Set1\Bodies\Bodies_Kneeling_00003.png,0,0,0,238,238,238,,,,,,,,,,,,,142.0065093000003,0.006509300000288931,None,179.29635120000057,179.29635120000057,179.29635120000057,179.29635120000057,179.29635120000057,179.29635120000057,179.29635120000057,179.29635120000057,,001,P021,2025_May_08_1157,CategoryLocalizer,2021.2.3,59.95020535953909,
142.8,143.0,5,0.0,Stimuli\Blank.png,0,0,0,239,239,239,,,,,,,,,,,,,142.8247965999999,0.024796599999888258,None,180.09707720000006,180.09707720000006,180.09707720000006,180.09707720000006,180.09707720000006,180.09707720000006,180.09707720000006,180.09707720000006,,001,P021,2025_May_08_1157,CategoryLocalizer,2021.2.3,59.95020535953909,
143.0,143.8,2,0.75,Stimuli\ImageFiles-Set1\Bodies\Bodies_SittingStretch_00005.png,0,0,0,240,240,240,,,,,,,,,,,,,143.00811239999985,0.008112399999845366,None,180.28055519999998,180.28055519999998,180.28055519999998,180.28055519999998,180.28055519999998,180.28055519999998,180.28055519999998,180.28055519999998,,001,P021,2025_May_08_1157,CategoryLocalizer,2021.2.3,59.95020535953909,
143.8,144.0,5,0.0,Stimuli\Blank.png,0,0,0,241,241,241,,,,,,,,,,,,,143.80808590000015,0.008085900000139645,None,181.08130750000055,181.08130750000055,181.08130750000055,181.08130750000055,181.08130750000055,181.08130750000055,181.08130750000055,181.08130750000055,,001,P021,2025_May_08_1157,CategoryLocalizer,2021.2.3,59.95020535953909,
144.0,144.8,2,0.75,Stimuli\ImageFiles-Set1\Bodies\Bodies_Crawling_00006.png,0,0,0,242,242,242,,,,,,,,,,,,,144.00987460000033,0.009874600000330247,None,181.29811169999994,181.29811169999994,181.29811169999994,181.29811169999994,181.29811169999994,181.29811169999994,181.29811169999994,181.29811169999994,,001,P021,2025_May_08_1157,CategoryLocalizer,2021.2.3,59.95020535953909,
144.8,145.0,5,0.0,Stimuli\Blank.png,0,0,0,243,243,243,,,,,,,,,,,,,144.82648590000008,0.02648590000006834,None,182.09880650000014,182.09880650000014,182.09880650000014,182.09880650000014,182.09880650000014,182.09880650000014,182.09880650000014,182.09880650000014,,001,P021,2025_May_08_1157,CategoryLocalizer,2021.2.3,59.95020535953909,
145.0,145.8,2,0.75,Stimuli\ImageFiles-Set1\Bodies\Bodies_SittingChair_00001.png,1,1,0,244,244,244,,,,,,,,,,,,,145.00958939999964,0.009589399999640591,None,182.29902589999983,182.29902589999983,182.29902589999983,182.29902589999983,182.29902589999983,182.29902589999983,182.29902589999983,182.29902589999983,,001,P021,2025_May_08_1157,CategoryLocalizer,2021.2.3,59.95020535953909,
145.8,146.0,5,0.0,Stimuli\Blank.png,0,0,0,245,245,245,,,,,,,,,,,,,145.82650230000036,0.026502300000345258,None,183.0997164999999,183.0997164999999,183.0997164999999,183.0997164999999,183.0997164999999,183.0997164999999,183.0997164999999,183.0997164999999,,001,P021,2025_May_08_1157,CategoryLocalizer,2021.2.3,59.95020535953909,
146.0,146.8,2,0.75,Stimuli\ImageFiles-Set1\Bodies\Bodies_Hanging_00006.png,0,0,0,246,246,246,,,,,,,,,,,,,146.0102710000001,0.010271000000102504,None,183.30067969999982,183.30067969999982,183.30067969999982,183.30067969999982,183.30067969999982,183.30067969999982,183.30067969999982,183.30067969999982,,001,P021,2025_May_08_1157,CategoryLocalizer,2021.2.3,59.95020535953909,
146.8,147.0,5,0.0,Stimuli\Blank.png,0,0,0,247,247,247,,,,,,,,,,,,,146.82912550000037,0.029125500000361626,None,184.11732110000048,184.11732110000048,184.11732110000048,184.11732110000048,184.11732110000048,184.11732110000048,184.11732110000048,184.11732110000048,,001,P021,2025_May_08_1157,CategoryLocalizer,2021.2.3,59.95020535953909,
147.0,147.8,2,0.75,Stimuli\ImageFiles-Set1\Bodies\Bodies_Hanging_00006.png,0,0,0,248,248,248,,,,,,,,,,,,,147.02933819999998,0.02933819999998377,1,184.3174700999998,184.3174700999998,184.3174700999998,184.3174700999998,184.3174700999998,184.3174700999998,184.3174700999998,184.3174700999998,0.4925036000004184,001,P021,2025_May_08_1157,CategoryLocalizer,2021.2.3,59.95020535953909,
147.8,148.0,5,0.0,Stimuli\Blank.png,0,0,0,249,249,249,,,,,,,,,,,,,147.82958729999973,0.029587299999718653,None,185.10149040000033,185.10149040000033,185.10149040000033,185.10149040000033,185.10149040000033,185.10149040000033,185.10149040000033,185.10149040000033,,001,P021,2025_May_08_1157,CategoryLocalizer,2021.2.3,59.95020535953909,
148.0,148.8,2,0.75,Stimuli\ImageFiles-Set1\Bodies\Bodies_QuadStretch_00001.png,0,0,0,250,250,250,,,,,,,,,,,,,148.0130575000003,0.013057500000286382,None,185.30170980000003,185.30170980000003,185.30170980000003,185.30170980000003,185.30170980000003,185.30170980000003,185.30170980000003,185.30170980000003,,001,P021,2025_May_08_1157,CategoryLocalizer,2021.2.3,59.95020535953909,
148.8,149.0,5,0.0,Stimuli\Blank.png,0,0,0,251,251,251,,,,,,,,,,,,,148.8291220000001,0.029122000000086246,None,186.10237570000027,186.10237570000027,186.10237570000027,186.10237570000027,186.10237570000027,186.10237570000027,186.10237570000027,186.10237570000027,,001,P021,2025_May_08_1157,CategoryLocalizer,2021.2.3,59.95020535953909,
149.0,149.8,2,0.75,Stimuli\ImageFiles-Set1\Bodies\Bodies_Punching_00006.png,0,0,0,252,252,252,,,,,,,,,,,,,149.0131922999999,0.01319229999990057,None,186.30254560000049,186.30254560000049,186.30254560000049,186.30254560000049,186.30254560000049,186.30254560000049,186.30254560000049,186.30254560000049,,001,P021,2025_May_08_1157,CategoryLocalizer,2021.2.3,59.95020535953909,
149.8,150.0,5,0.0,Stimuli\Blank.png,0,0,0,253,253,253,,,,,,,,,,,,,149.83030710000003,0.030307100000015907,None,187.10324880000007,187.10324880000007,187.10324880000007,187.10324880000007,187.10324880000007,187.10324880000007,187.10324880000007,187.10324880000007,,001,P021,2025_May_08_1157,CategoryLocalizer,2021.2.3,59.95020535953909,
150.0,150.8,2,0.75,Stimuli\ImageFiles-Set1\Bodies\Bodies_Waving_00003.png,0,0,0,254,254,254,,,,,,,,,,,,,150.01379720000023,0.01379720000022644,None,187.30343830000038,187.30343830000038,187.30343830000038,187.30343830000038,187.30343830000038,187.30343830000038,187.30343830000038,187.30343830000038,,001,P021,2025_May_08_1157,CategoryLocalizer,2021.2.3,59.95020535953909,
150.8,151.0,5,0.0,Stimuli\Blank.png,0,0,0,255,255,255,,,,,,,,,,,,,150.83104989999993,0.031049899999914032,None,188.1041412000004,188.1041412000004,188.1041412000004,188.1041412000004,188.1041412000004,188.1041412000004,188.1041412000004,188.1041412000004,,001,P021,2025_May_08_1157,CategoryLocalizer,2021.2.3,59.95020535953909,
151.0,151.8,2,0.75,Stimuli\ImageFiles-Set1\Bodies\Bodies_Hanging_00002.png,0,0,0,256,256,256,,,,,,,,,,,,,151.01496179999958,0.014961799999582581,None,188.3210211000005,188.3210211000005,188.3210211000005,188.3210211000005,188.3210211000005,188.3210211000005,188.3210211000005,188.3210211000005,,001,P021,2025_May_08_1157,CategoryLocalizer,2021.2.3,59.95020535953909,
151.8,152.0,5,0.0,Stimuli\Blank.png,0,0,0,257,257,257,,,,,,,,,,,,,151.84938160000002,0.0493816000000038,None,189.12170010000045,189.12170010000045,189.12170010000045,189.12170010000045,189.12170010000045,189.12170010000045,189.12170010000045,189.12170010000045,,001,P021,2025_May_08_1157,CategoryLocalizer,2021.2.3,59.95020535953909,
152.0,164.0,0,0.0,Stimuli\Blank.png,0,0,0,258,258,258,,,,,,,,,,,,,151.99879930000043,-0.0012006999995719525,None,189.2719033000003,189.2719033000003,189.2719033000003,189.2719033000003,189.2719033000003,189.2719033000003,189.2719033000003,189.2719033000003,,001,P021,2025_May_08_1157,CategoryLocalizer,2021.2.3,59.95020535953909,
164.0,164.8,4,0.75,Stimuli\ImageFiles-Set1\Scenes\Scenes_059.png,0,0,0,259,259,259,,,,,,,,,,,,,164.00949169999967,0.009491699999671255,None,201.2991264000002,201.2991264000002,201.2991264000002,201.2991264000002,201.2991264000002,201.2991264000002,201.2991264000002,201.2991264000002,,001,P021,2025_May_08_1157,CategoryLocalizer,2021.2.3,59.95020535953909,
164.8,165.0,5,0.0,Stimuli\Blank.png,0,0,0,260,260,260,,,,,,,,,,,,,164.8293606999996,0.029360699999585904,None,202.11655900000005,202.11655900000005,202.11655900000005,202.11655900000005,202.11655900000005,202.11655900000005,202.11655900000005,202.11655900000005,,001,P021,2025_May_08_1157,CategoryLocalizer,2021.2.3,59.95020535953909,
165.0,165.8,4,0.75,Stimuli\ImageFiles-Set1\Scenes\Scenes_059.png,1,1,0,261,261,261,,,,,,,,,,,,,165.02681389999998,0.026813899999979185,None,202.30000999999993,202.30000999999993,202.30000999999993,202.30000999999993,202.30000999999993,202.30000999999993,202.30000999999993,202.30000999999993,,001,P021,2025_May_08_1157,CategoryLocalizer,2021.2.3,59.95020535953909,
165.8,166.0,5,0.0,Stimuli\Blank.png,0,0,0,262,262,262,,,,,,,,,,,,,165.81149819999973,0.011498199999721237,None,203.08405110000058,203.08405110000058,203.08405110000058,203.08405110000058,203.08405110000058,203.08405110000058,203.08405110000058,203.08405110000058,,001,P021,2025_May_08_1157,CategoryLocalizer,2021.2.3,59.95020535953909,
166.0,166.8,4,0.75,Stimuli\ImageFiles-Set1\Scenes\Scenes_029.png,0,0,0,263,263,263,,,,,,,,,,,,,166.01209560000007,0.012095600000066042,None,203.3175836999999,203.3175836999999,203.3175836999999,203.3175836999999,203.3175836999999,203.3175836999999,203.3175836999999,203.3175836999999,,001,P021,2025_May_08_1157,CategoryLocalizer,2021.2.3,59.95020535953909,
166.8,167.0,5,0.0,Stimuli\Blank.png,0,0,0,264,264,264,,,,,,,,,,,,,166.84517700000015,0.04517700000013747,None,204.11829269999998,204.11829269999998,204.11829269999998,204.11829269999998,204.11829269999998,204.11829269999998,204.11829269999998,204.11829269999998,,001,P021,2025_May_08_1157,CategoryLocalizer,2021.2.3,59.95020535953909,
167.0,167.8,4,0.75,Stimuli\ImageFiles-Set1\Scenes\Scenes_040.png,0,0,0,265,265,265,,,,,,,,,,,,,167.01279419999992,0.0127941999999166,None,204.3184664999999,204.3184664999999,204.3184664999999,204.3184664999999,204.3184664999999,204.3184664999999,204.3184664999999,204.3184664999999,,001,P021,2025_May_08_1157,CategoryLocalizer,2021.2.3,59.95020535953909,
167.8,168.0,5,0.0,Stimuli\Blank.png,0,0,0,266,266,266,,,,,,,,,,,,,167.84689630000048,0.04689630000046918,None,205.11917830000039,205.11917830000039,205.11917830000039,205.11917830000039,205.11917830000039,205.11917830000039,205.11917830000039,205.11917830000039,,001,P021,2025_May_08_1157,CategoryLocalizer,2021.2.3,59.95020535953909,
168.0,168.8,4,0.75,Stimuli\ImageFiles-Set1\Scenes\Scenes_009.png,0,0,0,267,267,267,,,,,,,,,,,,,168.0140577000002,0.014057700000194018,None,205.3193454000002,205.3193454000002,205.3193454000002,205.3193454000002,205.3193454000002,205.3193454000002,205.3193454000002,205.3193454000002,,001,P021,2025_May_08_1157,CategoryLocalizer,2021.2.3,59.95020535953909,
168.8,169.0,5,0.0,Stimuli\Blank.png,0,0,0,268,268,268,,,,,,,,,,,,,168.84687570000006,0.04687570000004371,None,206.12005150000005,206.12005150000005,206.12005150000005,206.12005150000005,206.12005150000005,206.12005150000005,206.12005150000005,206.12005150000005,,001,P021,2025_May_08_1157,CategoryLocalizer,2021.2.3,59.95020535953909,
169.0,169.8,4,0.75,Stimuli\ImageFiles-Set1\Scenes\Scenes_036.png,0,0,0,269,269,269,,,,,,,,,,,,,169.0149081999998,0.014908199999808858,None,206.32023329999993,206.32023329999993,206.32023329999993,206.32023329999993,206.32023329999993,206.32023329999993,206.32023329999993,206.32023329999993,,001,P021,2025_May_08_1157,CategoryLocalizer,2021.2.3,59.95020535953909,
169.8,170.0,5,0.0,Stimuli\Blank.png,0,0,0,270,270,270,,,,,,,,,,,,,169.8504671999999,0.05046719999990046,None,207.13763070000005,207.13763070000005,207.13763070000005,207.13763070000005,207.13763070000005,207.13763070000005,207.13763070000005,207.13763070000005,,001,P021,2025_May_08_1157,CategoryLocalizer,2021.2.3,59.95020535953909,
170.0,170.8,4,0.75,Stimuli\ImageFiles-Set1\Scenes\Scenes_058.png,0,0,0,271,271,271,,,,,,,,,,,,,170.01474270000017,0.014742700000169862,None,207.30444270000044,207.30444270000044,207.30444270000044,207.30444270000044,207.30444270000044,207.30444270000044,207.30444270000044,207.30444270000044,,001,P021,2025_May_08_1157,CategoryLocalizer,2021.2.3,59.95020535953909,
170.8,171.0,5,0.0,Stimuli\Blank.png,0,0,0,272,272,272,,,,,,,,,,,,,170.8328346999997,0.03283469999968247,None,208.10515980000037,208.10515980000037,208.10515980000037,208.10515980000037,208.10515980000037,208.10515980000037,208.10515980000037,208.10515980000037,,001,P021,2025_May_08_1157,CategoryLocalizer,2021.2.3,59.95020535953909,
171.0,171.8,4,0.75,Stimuli\ImageFiles-Set1\Scenes\Scenes_015.png,0,0,0,273,273,273,,,,,,,,,,,,,170.9993903000004,-0.0006096999995861552,None,208.28860989999976,208.28860989999976,208.28860989999976,208.28860989999976,208.28860989999976,208.28860989999976,208.28860989999976,208.28860989999976,,001,P021,2025_May_08_1157,CategoryLocalizer,2021.2.3,59.95020535953909,
171.8,172.0,5,0.0,Stimuli\Blank.png,0,0,0,274,274,274,,,,,,,,,,,,,171.81719220000014,0.017192200000124558,None,209.08935329999986,209.08935329999986,209.08935329999986,209.08935329999986,209.08935329999986,209.08935329999986,209.08935329999986,209.08935329999986,,001,P021,2025_May_08_1157,CategoryLocalizer,2021.2.3,59.95020535953909,
172.0,172.8,4,0.75,Stimuli\ImageFiles-Set1\Scenes\Scenes_001.png,1,1,0,275,275,275,,,,,,,,,,,,,171.99974589999965,-0.00025410000034753466,None,209.28952040000058,209.28952040000058,209.28952040000058,209.28952040000058,209.28952040000058,209.28952040000058,209.28952040000058,209.28952040000058,,001,P021,2025_May_08_1157,CategoryLocalizer,2021.2.3,59.95020535953909,
172.8,173.0,5,0.0,Stimuli\Blank.png,0,0,0,276,276,276,,,,,,,,,,,,,172.81899710000016,0.018997100000149203,None,210.10693700000047,210.10693700000047,210.10693700000047,210.10693700000047,210.10693700000047,210.10693700000047,210.10693700000047,210.10693700000047,,001,P021,2025_May_08_1157,CategoryLocalizer,2021.2.3,59.95020535953909,
173.0,173.8,4,0.75,Stimuli\ImageFiles-Set1\Scenes\Scenes_020.png,0,0,0,277,277,277,,,,,,,,,,,,,173.01778879999983,0.017788799999834737,None,210.30714910000006,210.30714910000006,210.30714910000006,210.30714910000006,210.30714910000006,210.30714910000006,210.30714910000006,210.30714910000006,,001,P021,2025_May_08_1157,CategoryLocalizer,2021.2.3,59.95020535953909,
173.8,174.0,5,0.0,Stimuli\Blank.png,0,0,0,278,278,278,,,,,,,,,,,,,173.81966749999992,0.019667499999911797,None,211.09200370000053,211.09200370000053,211.09200370000053,211.09200370000053,211.09200370000053,211.09200370000053,211.09200370000053,211.09200370000053,,001,P021,2025_May_08_1157,CategoryLocalizer,2021.2.3,59.95020535953909,
174.0,174.8,4,0.75,Stimuli\ImageFiles-Set1\Scenes\Scenes_020.png,0,0,0,279,279,279,,,,,,,,,,,,,174.00158269999974,0.0015826999997443636,1,211.27478280000014,211.27478280000014,211.27478280000014,211.27478280000014,211.27478280000014,211.27478280000014,211.27478280000014,211.27478280000014,0.4278708000001643,001,P021,2025_May_08_1157,CategoryLocalizer,2021.2.3,59.95020535953909,
174.8,175.0,5,0.0,Stimuli\Blank.png,0,0,0,280,280,280,,,,,,,,,,,,,174.80365809999967,0.003658099999654496,None,212.07532489999994,212.07532489999994,212.07532489999994,212.07532489999994,212.07532489999994,212.07532489999994,212.07532489999994,212.07532489999994,,001,P021,2025_May_08_1157,CategoryLocalizer,2021.2.3,59.95020535953909,
175.0,175.8,4,0.75,Stimuli\ImageFiles-Set1\Scenes\Scenes_060.png,0,0,0,281,281,281,,,,,,,,,,,,,175.0050672999996,0.005067299999609531,None,212.30888090000008,212.30888090000008,212.30888090000008,212.30888090000008,212.30888090000008,212.30888090000008,212.30888090000008,212.30888090000008,,001,P021,2025_May_08_1157,CategoryLocalizer,2021.2.3,59.95020535953909,
175.8,176.0,5,0.0,Stimuli\Blank.png,0,0,0,282,282,282,,,,,,,,,,,,,175.83910399999968,0.03910399999966785,None,213.12625160000061,213.12625160000061,213.12625160000061,213.12625160000061,213.12625160000061,213.12625160000061,213.12625160000061,213.12625160000061,,001,P021,2025_May_08_1157,CategoryLocalizer,2021.2.3,59.95020535953909,
176.0,176.8,4,0.75,Stimuli\ImageFiles-Set1\Scenes\Scenes_013.png,0,0,0,283,283,283,,,,,,,,,,,,,176.02073840000048,0.020738400000482216,None,213.32644249999976,213.32644249999976,213.32644249999976,213.32644249999976,213.32644249999976,213.32644249999976,213.32644249999976,213.32644249999976,,001,P021,2025_May_08_1157,CategoryLocalizer,2021.2.3,59.95020535953909,
176.8,177.0,5,0.0,Stimuli\Blank.png,0,0,0,284,284,284,,,,,,,,,,,,,176.83952210000007,0.03952210000005607,None,214.12711639999998,214.12711639999998,214.12711639999998,214.12711639999998,214.12711639999998,214.12711639999998,214.12711639999998,214.12711639999998,,001,P021,2025_May_08_1157,CategoryLocalizer,2021.2.3,59.95020535953909,
177.0,177.8,4,0.75,Stimuli\ImageFiles-Set1\Scenes\Scenes_003.png,0,0,0,285,285,285,,,,,,,,,,,,,177.0213574999998,0.021357499999794527,None,214.31064510000033,214.31064510000033,214.31064510000033,214.31064510000033,214.31064510000033,214.31064510000033,214.31064510000033,214.31064510000033,,001,P021,2025_May_08_1157,CategoryLocalizer,2021.2.3,59.95020535953909,
