eventStartTime,eventEndTime,eventCond,imSize,imFile,repeatedImage,responseEvent,Events.thisRepN,Events.thisTrialN,Events.thisN,Events.thisIndex,Instructions.started,Instructions.stopped,participantReadyResponse.keys,participantReadyResponse.rt,participantReadyResponse.started,participantReadyResponse.stopped,startWaitforTrigger,triggerResponse.keys,triggerResponse.rt,triggerResponse.started,triggerResponse.stopped,globalTimer,actualStartTime,startTimingDiff,participantResponse.keys,participantResponse.started,participantResponse.stopped,image.started,image.stopped,fixationOutside.started,fixationOutside.stopped,fixationInside.started,fixationInside.stopped,participantResponse.rt,session,participant,date,expName,psychopyVersion,frameRate,
,,,,,,,,,,,11.10946530000001,None,2,13.571243100001084,11.10946530000001,None,,,,,,,,,,,,,,,,,,,003,P021,2025_May_08_1255,CategoryLocalizer,2021.2.3,59.9440961359471,
,,,,,,,,,,,,,,,,,24.685176899998623,5,13.866827099998773,24.69789039999887,None,,,,,,,,,,,,,,003,P021,2025_May_08_1255,CategoryLocalizer,2021.2.3,59.9440961359471,
0.0,12.0,0,0.0,Stimuli\Blank.png,0,0,0,0,0,0,,,,,,,,,,,,38.58101759999954,0.043554500000027474,0.043554500000027474,None,38.64382189999924,None,38.64382189999924,None,38.64382189999924,None,38.64382189999924,None,,003,P021,2025_May_08_1255,CategoryLocalizer,2021.2.3,59.9440961359471,
12.0,12.8,1,0.75,Stimuli\ImageFiles-Set1\Objects\Object_Pizza_00001.png,0,0,0,1,1,1,,,,,,,,,,,,,12.009653099999923,0.009653099999923143,None,50.60443870000017,50.60443870000017,50.60443870000017,50.60443870000017,50.60443870000017,50.60443870000017,50.60443870000017,50.60443870000017,,003,P021,2025_May_08_1255,CategoryLocalizer,2021.2.3,59.9440961359471,
12.8,13.0,5,0.0,Stimuli\Blank.png,0,0,0,2,2,2,,,,,,,,,,,,,12.810487700000522,0.010487700000521016,None,51.405140899998514,51.405140899998514,51.405140899998514,51.405140899998514,51.405140899998514,51.405140899998514,51.405140899998514,51.405140899998514,,003,P021,2025_May_08_1255,CategoryLocalizer,2021.2.3,59.9440961359471,
13.0,13.8,1,0.75,Stimuli\ImageFiles-Set1\Objects\Object_Whistle_00001.png,0,0,0,3,3,3,,,,,,,,,,,,,13.00952210000105,0.009522100001049694,None,51.6052794999996,51.6052794999996,51.6052794999996,51.6052794999996,51.6052794999996,51.6052794999996,51.6052794999996,51.6052794999996,,003,P021,2025_May_08_1255,CategoryLocalizer,2021.2.3,59.9440961359471,
13.8,14.0,5,0.0,Stimuli\Blank.png,0,0,0,4,4,4,,,,,,,,,,,,,13.811617299999853,0.011617299999851838,None,52.40601229999993,52.40601229999993,52.40601229999993,52.40601229999993,52.40601229999993,52.40601229999993,52.40601229999993,52.40601229999993,,003,P021,2025_May_08_1255,CategoryLocalizer,2021.2.3,59.9440961359471,
14.0,14.8,1,0.75,Stimuli\ImageFiles-Set1\Objects\Object_Lipstick_00001.png,0,0,0,5,5,5,,,,,,,,,,,,,14.011338700000124,0.011338700000123936,None,52.606169699998645,52.606169699998645,52.606169699998645,52.606169699998645,52.606169699998645,52.606169699998645,52.606169699998645,52.606169699998645,,003,P021,2025_May_08_1255,CategoryLocalizer,2021.2.3,59.9440961359471,
14.8,15.0,5,0.0,Stimuli\Blank.png,0,0,0,6,6,6,,,,,,,,,,,,,14.812611400000605,0.012611400000604789,None,53.406882100000075,53.406882100000075,53.406882100000075,53.406882100000075,53.406882100000075,53.406882100000075,53.406882100000075,53.406882100000075,,003,P021,2025_May_08_1255,CategoryLocalizer,2021.2.3,59.9440961359471,
15.0,15.8,1,0.75,Stimuli\ImageFiles-Set1\Objects\Object_Matches_00001.png,0,0,0,7,7,7,,,,,,,,,,,,,15.012301799999477,0.012301799999477225,None,53.60705269999926,53.60705269999926,53.60705269999926,53.60705269999926,53.60705269999926,53.60705269999926,53.60705269999926,53.60705269999926,,003,P021,2025_May_08_1255,CategoryLocalizer,2021.2.3,59.9440961359471,
15.8,16.0,5,0.0,Stimuli\Blank.png,0,0,0,8,8,8,,,,,,,,,,,,,15.814865300000747,0.014865300000746373,None,54.424450499998784,54.424450499998784,54.424450499998784,54.424450499998784,54.424450499998784,54.424450499998784,54.424450499998784,54.424450499998784,,003,P021,2025_May_08_1255,CategoryLocalizer,2021.2.3,59.9440961359471,
16.0,16.8,1,0.75,Stimuli\ImageFiles-Set1\Objects\Object_Stroller_00001.png,0,0,0,9,9,9,,,,,,,,,,,,,16.028897199999847,0.028897199999846634,None,54.641322199999195,54.641322199999195,54.641322199999195,54.641322199999195,54.641322199999195,54.641322199999195,54.641322199999195,54.641322199999195,,003,P021,2025_May_08_1255,CategoryLocalizer,2021.2.3,59.9440961359471,
16.8,17.0,5,0.0,Stimuli\Blank.png,0,0,0,10,10,10,,,,,,,,,,,,,16.830774300000485,0.03077430000048409,None,55.425341999998636,55.425341999998636,55.425341999998636,55.425341999998636,55.425341999998636,55.425341999998636,55.425341999998636,55.425341999998636,,003,P021,2025_May_08_1255,CategoryLocalizer,2021.2.3,59.9440961359471,
17.0,17.8,1,0.75,Stimuli\ImageFiles-Set1\Objects\Object_Pencil_00001.png,0,0,0,11,11,11,,,,,,,,,,,,,17.01488590000008,0.014885900000081165,None,55.62550469999951,55.62550469999951,55.62550469999951,55.62550469999951,55.62550469999951,55.62550469999951,55.62550469999951,55.62550469999951,,003,P021,2025_May_08_1255,CategoryLocalizer,2021.2.3,59.9440961359471,
17.8,18.0,5,0.0,Stimuli\Blank.png,0,0,0,12,12,12,,,,,,,,,,,,,17.830506300000707,0.030506300000705977,None,56.42620999999963,56.42620999999963,56.42620999999963,56.42620999999963,56.42620999999963,56.42620999999963,56.42620999999963,56.42620999999963,,003,P021,2025_May_08_1255,CategoryLocalizer,2021.2.3,59.9440961359471,
18.0,18.8,1,0.75,Stimuli\ImageFiles-Set1\Objects\Object_Chest_00001.png,0,0,0,13,13,13,,,,,,,,,,,,,18.014411199999813,0.014411199999813107,None,56.609706899998855,56.609706899998855,56.609706899998855,56.609706899998855,56.609706899998855,56.609706899998855,56.609706899998855,56.609706899998855,,003,P021,2025_May_08_1255,CategoryLocalizer,2021.2.3,59.9440961359471,
18.8,19.0,5,0.0,Stimuli\Blank.png,0,0,0,14,14,14,,,,,,,,,,,,,18.814601800000673,0.014601800000672682,None,57.41041839999889,57.41041839999889,57.41041839999889,57.41041839999889,57.41041839999889,57.41041839999889,57.41041839999889,57.41041839999889,,003,P021,2025_May_08_1255,CategoryLocalizer,2021.2.3,59.9440961359471,
19.0,19.8,1,0.75,Stimuli\ImageFiles-Set1\Objects\Object_Screw_00001.png,0,0,0,15,15,15,,,,,,,,,,,,,19.01485330000105,0.01485330000105023,None,57.61058739999862,57.61058739999862,57.61058739999862,57.61058739999862,57.61058739999862,57.61058739999862,57.61058739999862,57.61058739999862,,003,P021,2025_May_08_1255,CategoryLocalizer,2021.2.3,59.9440961359471,
19.8,20.0,5,0.0,Stimuli\Blank.png,0,0,0,16,16,16,,,,,,,,,,,,,19.816347100000712,0.01634710000071138,None,58.41130220000014,58.41130220000014,58.41130220000014,58.41130220000014,58.41130220000014,58.41130220000014,58.41130220000014,58.41130220000014,,003,P021,2025_May_08_1255,CategoryLocalizer,2021.2.3,59.9440961359471,
20.0,20.8,1,0.75,Stimuli\ImageFiles-Set1\Objects\Object_Screw_00001.png,1,1,0,17,17,17,,,,,,,,,,,,,19.999622700001055,-0.0003772999989450909,2,58.59478979999949,58.59478979999949,58.59478979999949,58.59478979999949,58.59478979999949,58.59478979999949,58.59478979999949,58.59478979999949,0.711921699999948,003,P021,2025_May_08_1255,CategoryLocalizer,2021.2.3,59.9440961359471,
20.8,21.0,5,0.0,Stimuli\Blank.png,0,0,0,18,18,18,,,,,,,,,,,,,20.801349900000787,0.001349900000786164,None,59.39552039999944,59.39552039999944,59.39552039999944,59.39552039999944,59.39552039999944,59.39552039999944,59.39552039999944,59.39552039999944,,003,P021,2025_May_08_1255,CategoryLocalizer,2021.2.3,59.9440961359471,
21.0,21.8,1,0.75,Stimuli\ImageFiles-Set1\Objects\Object_Box_00001.png,0,0,0,19,19,19,,,,,,,,,,,,,20.99999729999945,-2.70000055024866e-06,None,59.595678799998495,59.595678799998495,59.595678799998495,59.595678799998495,59.595678799998495,59.595678799998495,59.595678799998495,59.595678799998495,,003,P021,2025_May_08_1255,CategoryLocalizer,2021.2.3,59.9440961359471,
21.8,22.0,5,0.0,Stimuli\Blank.png,0,0,0,20,20,20,,,,,,,,,,,,,21.800785100000212,0.0007851000002112585,None,60.39638119999836,60.39638119999836,60.39638119999836,60.39638119999836,60.39638119999836,60.39638119999836,60.39638119999836,60.39638119999836,,003,P021,2025_May_08_1255,CategoryLocalizer,2021.2.3,59.9440961359471,
22.0,22.8,1,0.75,Stimuli\ImageFiles-Set1\Objects\Object_Book_00001.png,0,0,0,21,21,21,,,,,,,,,,,,,22.001400500001182,0.0014005000011820812,None,60.61327840000013,60.61327840000013,60.61327840000013,60.61327840000013,60.61327840000013,60.61327840000013,60.61327840000013,60.61327840000013,,003,P021,2025_May_08_1255,CategoryLocalizer,2021.2.3,59.9440961359471,
22.8,23.0,5,0.0,Stimuli\Blank.png,0,0,0,22,22,22,,,,,,,,,,,,,22.820454400000017,0.020454400000016193,None,61.430639499998506,61.430639499998506,61.430639499998506,61.430639499998506,61.430639499998506,61.430639499998506,61.430639499998506,61.430639499998506,,003,P021,2025_May_08_1255,CategoryLocalizer,2021.2.3,59.9440961359471,
23.0,23.8,1,0.75,Stimuli\ImageFiles-Set1\Objects\Object_Motorcycle_00001.png,0,0,0,23,23,23,,,,,,,,,,,,,23.018957500000397,0.018957500000396976,None,61.61413189999985,61.61413189999985,61.61413189999985,61.61413189999985,61.61413189999985,61.61413189999985,61.61413189999985,61.61413189999985,,003,P021,2025_May_08_1255,CategoryLocalizer,2021.2.3,59.9440961359471,
23.8,24.0,5,0.0,Stimuli\Blank.png,0,0,0,24,24,24,,,,,,,,,,,,,23.804759300001024,0.004759300001023092,None,62.4148443999984,62.4148443999984,62.4148443999984,62.4148443999984,62.4148443999984,62.4148443999984,62.4148443999984,62.4148443999984,,003,P021,2025_May_08_1255,CategoryLocalizer,2021.2.3,59.9440961359471,
24.0,24.8,1,0.75,Stimuli\ImageFiles-Set1\Objects\Object_Shirt_00001.png,0,0,0,25,25,25,,,,,,,,,,,,,24.019877500000803,0.019877500000802684,None,62.615012999998726,62.615012999998726,62.615012999998726,62.615012999998726,62.615012999998726,62.615012999998726,62.615012999998726,62.615012999998726,,003,P021,2025_May_08_1255,CategoryLocalizer,2021.2.3,59.9440961359471,
24.8,25.0,5,0.0,Stimuli\Blank.png,0,0,0,26,26,26,,,,,,,,,,,,,24.80616420000115,0.006164200001148146,None,63.41574629999923,63.41574629999923,63.41574629999923,63.41574629999923,63.41574629999923,63.41574629999923,63.41574629999923,63.41574629999923,,003,P021,2025_May_08_1255,CategoryLocalizer,2021.2.3,59.9440961359471,
25.0,25.8,1,0.75,Stimuli\ImageFiles-Set1\Objects\Object_FileFolder_00001.png,0,0,0,27,27,27,,,,,,,,,,,,,25.02134130000013,0.021341300000131014,None,63.615901199998916,63.615901199998916,63.615901199998916,63.615901199998916,63.615901199998916,63.615901199998916,63.615901199998916,63.615901199998916,,003,P021,2025_May_08_1255,CategoryLocalizer,2021.2.3,59.9440961359471,
25.8,26.0,5,0.0,Stimuli\Blank.png,0,0,0,28,28,28,,,,,,,,,,,,,25.80428910000046,0.004289100000459456,None,64.39993139999933,64.39993139999933,64.39993139999933,64.39993139999933,64.39993139999933,64.39993139999933,64.39993139999933,64.39993139999933,,003,P021,2025_May_08_1255,CategoryLocalizer,2021.2.3,59.9440961359471,
26.0,26.8,1,0.75,Stimuli\ImageFiles-Set1\Objects\Object_Bench_00001.png,0,0,0,29,29,29,,,,,,,,,,,,,26.00529749999987,0.005297499999869615,None,64.60010289999991,64.60010289999991,64.60010289999991,64.60010289999991,64.60010289999991,64.60010289999991,64.60010289999991,64.60010289999991,,003,P021,2025_May_08_1255,CategoryLocalizer,2021.2.3,59.9440961359471,
26.8,27.0,5,0.0,Stimuli\Blank.png,0,0,0,30,30,30,,,,,,,,,,,,,26.805179200000566,0.005179200000565487,None,65.40081409999948,65.40081409999948,65.40081409999948,65.40081409999948,65.40081409999948,65.40081409999948,65.40081409999948,65.40081409999948,,003,P021,2025_May_08_1255,CategoryLocalizer,2021.2.3,59.9440961359471,
27.0,27.8,1,0.75,Stimuli\ImageFiles-Set1\Objects\Object_PepperShaker_00001.png,0,0,0,31,31,31,,,,,,,,,,,,,27.005824300000313,0.005824300000313087,None,65.60099189999892,65.60099189999892,65.60099189999892,65.60099189999892,65.60099189999892,65.60099189999892,65.60099189999892,65.60099189999892,,003,P021,2025_May_08_1255,CategoryLocalizer,2021.2.3,59.9440961359471,
27.8,28.0,5,0.0,Stimuli\Blank.png,0,0,0,32,32,32,,,,,,,,,,,,,27.806558600001154,0.006558600001152826,None,66.40169929999865,66.40169929999865,66.40169929999865,66.40169929999865,66.40169929999865,66.40169929999865,66.40169929999865,66.40169929999865,,003,P021,2025_May_08_1255,CategoryLocalizer,2021.2.3,59.9440961359471,
28.0,28.8,2,0.75,Stimuli\ImageFiles-Set1\Bodies\Bodies_Standing_00001.png,0,0,0,33,33,33,,,,,,,,,,,,,28.006384300000718,0.006384300000718213,None,66.61856119999902,66.61856119999902,66.61856119999902,66.61856119999902,66.61856119999902,66.61856119999902,66.61856119999902,66.61856119999902,,003,P021,2025_May_08_1255,CategoryLocalizer,2021.2.3,59.9440961359471,
28.8,29.0,5,0.0,Stimuli\Blank.png,0,0,0,34,34,34,,,,,,,,,,,,,28.824558800000887,0.02455880000088584,None,67.41926789999889,67.41926789999889,67.41926789999889,67.41926789999889,67.41926789999889,67.41926789999889,67.41926789999889,67.41926789999889,,003,P021,2025_May_08_1255,CategoryLocalizer,2021.2.3,59.9440961359471,
29.0,29.8,2,0.75,Stimuli\ImageFiles-Set1\Bodies\Bodies_Punching_00003.png,0,0,0,35,35,35,,,,,,,,,,,,,29.009812800000873,0.009812800000872812,None,67.61946119999993,67.61946119999993,67.61946119999993,67.61946119999993,67.61946119999993,67.61946119999993,67.61946119999993,67.61946119999993,,003,P021,2025_May_08_1255,CategoryLocalizer,2021.2.3,59.9440961359471,
29.8,30.0,5,0.0,Stimuli\Blank.png,0,0,0,36,36,36,,,,,,,,,,,,,29.825128100001166,0.025128100001165166,None,68.42016729999887,68.42016729999887,68.42016729999887,68.42016729999887,68.42016729999887,68.42016729999887,68.42016729999887,68.42016729999887,,003,P021,2025_May_08_1255,CategoryLocalizer,2021.2.3,59.9440961359471,
30.0,30.8,2,0.75,Stimuli\ImageFiles-Set1\Bodies\Bodies_CobraPose_00003.png,0,0,0,37,37,37,,,,,,,,,,,,,30.00896029999967,0.008960299999671406,2,68.60364809999919,68.60364809999919,68.60364809999919,68.60364809999919,68.60364809999919,68.60364809999919,68.60364809999919,68.60364809999919,0.6941057999993063,003,P021,2025_May_08_1255,CategoryLocalizer,2021.2.3,59.9440961359471,
30.8,31.0,5,0.0,Stimuli\Blank.png,0,0,0,38,38,38,,,,,,,,,,,,,30.810288599999694,0.01028859999969356,None,69.40451810000013,69.40451810000013,69.40451810000013,69.40451810000013,69.40451810000013,69.40451810000013,69.40451810000013,69.40451810000013,,003,P021,2025_May_08_1255,CategoryLocalizer,2021.2.3,59.9440961359471,
31.0,31.8,2,0.75,Stimuli\ImageFiles-Set1\Bodies\Bodies_SittingFloor_00007.png,0,0,0,39,39,39,,,,,,,,,,,,,31.00988640000105,0.009886400001050788,None,69.62124029999904,69.62124029999904,69.62124029999904,69.62124029999904,69.62124029999904,69.62124029999904,69.62124029999904,69.62124029999904,,003,P021,2025_May_08_1255,CategoryLocalizer,2021.2.3,59.9440961359471,
31.8,32.0,5,0.0,Stimuli\Blank.png,0,0,0,40,40,40,,,,,,,,,,,,,31.82632670000021,0.026326700000208092,None,70.42192029999933,70.42192029999933,70.42192029999933,70.42192029999933,70.42192029999933,70.42192029999933,70.42192029999933,70.42192029999933,,003,P021,2025_May_08_1255,CategoryLocalizer,2021.2.3,59.9440961359471,
32.0,32.8,2,0.75,Stimuli\ImageFiles-Set1\Bodies\Bodies_Walking_00006.png,0,0,0,41,41,41,,,,,,,,,,,,,32.01076590000048,0.010765900000478723,None,70.60541249999915,70.60541249999915,70.60541249999915,70.60541249999915,70.60541249999915,70.60541249999915,70.60541249999915,70.60541249999915,,003,P021,2025_May_08_1255,CategoryLocalizer,2021.2.3,59.9440961359471,
32.8,33.0,5,0.0,Stimuli\Blank.png,0,0,0,42,42,42,,,,,,,,,,,,,32.8106786999997,0.01067869999970128,None,71.40613179999855,71.40613179999855,71.40613179999855,71.40613179999855,71.40613179999855,71.40613179999855,71.40613179999855,71.40613179999855,,003,P021,2025_May_08_1255,CategoryLocalizer,2021.2.3,59.9440961359471,
33.0,33.8,2,0.75,Stimuli\ImageFiles-Set1\Bodies\Bodies_Walking_00006.png,1,1,0,43,43,43,,,,,,,,,,,,,33.01115390000086,0.01115390000086336,None,71.60627469999963,71.60627469999963,71.60627469999963,71.60627469999963,71.60627469999963,71.60627469999963,71.60627469999963,71.60627469999963,,003,P021,2025_May_08_1255,CategoryLocalizer,2021.2.3,59.9440961359471,
33.8,34.0,5,0.0,Stimuli\Blank.png,0,0,0,44,44,44,,,,,,,,,,,,,33.81199430000015,0.011994300000154112,None,72.40702599999895,72.40702599999895,72.40702599999895,72.40702599999895,72.40702599999895,72.40702599999895,72.40702599999895,72.40702599999895,,003,P021,2025_May_08_1255,CategoryLocalizer,2021.2.3,59.9440961359471,
34.0,34.8,2,0.75,Stimuli\ImageFiles-Set1\Bodies\Bodies_QuadStretch_00001.png,0,0,0,45,45,45,,,,,,,,,,,,,34.01155070000095,0.01155070000095293,2,72.60718540000016,72.60718540000016,72.60718540000016,72.60718540000016,72.60718540000016,72.60718540000016,72.60718540000016,72.60718540000016,0.01957369999945513,003,P021,2025_May_08_1255,CategoryLocalizer,2021.2.3,59.9440961359471,
34.8,35.0,5,0.0,Stimuli\Blank.png,0,0,0,46,46,46,,,,,,,,,,,,,34.812239599999884,0.012239599999887218,None,73.40789129999939,73.40789129999939,73.40789129999939,73.40789129999939,73.40789129999939,73.40789129999939,73.40789129999939,73.40789129999939,,003,P021,2025_May_08_1255,CategoryLocalizer,2021.2.3,59.9440961359471,
35.0,35.8,2,0.75,Stimuli\ImageFiles-Set1\Bodies\Bodies_Crawling_00006.png,0,0,0,47,47,47,,,,,,,,,,,,,35.01447089999965,0.01447089999965101,None,73.62476869999955,73.62476869999955,73.62476869999955,73.62476869999955,73.62476869999955,73.62476869999955,73.62476869999955,73.62476869999955,,003,P021,2025_May_08_1255,CategoryLocalizer,2021.2.3,59.9440961359471,
35.8,36.0,5,0.0,Stimuli\Blank.png,0,0,0,48,48,48,,,,,,,,,,,,,35.830305299999964,0.03030529999996645,None,74.4254764999987,74.4254764999987,74.4254764999987,74.4254764999987,74.4254764999987,74.4254764999987,74.4254764999987,74.4254764999987,,003,P021,2025_May_08_1255,CategoryLocalizer,2021.2.3,59.9440961359471,
36.0,36.8,2,0.75,Stimuli\ImageFiles-Set1\Bodies\Bodies_Running_00006.png,0,0,0,49,49,49,,,,,,,,,,,,,36.01369739999973,0.013697399999728077,None,74.60895909999999,74.60895909999999,74.60895909999999,74.60895909999999,74.60895909999999,74.60895909999999,74.60895909999999,74.60895909999999,,003,P021,2025_May_08_1255,CategoryLocalizer,2021.2.3,59.9440961359471,
36.8,37.0,5,0.0,Stimuli\Blank.png,0,0,0,50,50,50,,,,,,,,,,,,,36.81461459999991,0.014614599999916322,None,75.40966689999914,75.40966689999914,75.40966689999914,75.40966689999914,75.40966689999914,75.40966689999914,75.40966689999914,75.40966689999914,,003,P021,2025_May_08_1255,CategoryLocalizer,2021.2.3,59.9440961359471,
37.0,37.8,2,0.75,Stimuli\ImageFiles-Set1\Bodies\Bodies_Waving_00005.png,0,0,0,51,51,51,,,,,,,,,,,,,37.01557710000088,0.015577100000882638,None,75.6098484999984,75.6098484999984,75.6098484999984,75.6098484999984,75.6098484999984,75.6098484999984,75.6098484999984,75.6098484999984,,003,P021,2025_May_08_1255,CategoryLocalizer,2021.2.3,59.9440961359471,
37.8,38.0,5,0.0,Stimuli\Blank.png,0,0,0,52,52,52,,,,,,,,,,,,,37.799930700000914,-6.92999990832277e-05,None,76.41056579999895,76.41056579999895,76.41056579999895,76.41056579999895,76.41056579999895,76.41056579999895,76.41056579999895,76.41056579999895,,003,P021,2025_May_08_1255,CategoryLocalizer,2021.2.3,59.9440961359471,
38.0,38.8,2,0.75,Stimuli\ImageFiles-Set1\Bodies\Bodies_Waving_00003.png,0,0,0,53,53,53,,,,,,,,,,,,,38.01652060000015,0.01652060000014899,None,76.61072899999999,76.61072899999999,76.61072899999999,76.61072899999999,76.61072899999999,76.61072899999999,76.61072899999999,76.61072899999999,,003,P021,2025_May_08_1255,CategoryLocalizer,2021.2.3,59.9440961359471,
38.8,39.0,5,0.0,Stimuli\Blank.png,0,0,0,54,54,54,,,,,,,,,,,,,38.79963080000016,-0.00036919999983808793,None,77.3947750999996,77.3947750999996,77.3947750999996,77.3947750999996,77.3947750999996,77.3947750999996,77.3947750999996,77.3947750999996,,003,P021,2025_May_08_1255,CategoryLocalizer,2021.2.3,59.9440961359471,
39.0,39.8,2,0.75,Stimuli\ImageFiles-Set1\Bodies\Bodies_Hanging_00006.png,1,1,0,55,55,55,,,,,,,,,,,,,39.000126900000396,0.00012690000039583538,None,77.61158309999882,77.61158309999882,77.61158309999882,77.61158309999882,77.61158309999882,77.61158309999882,77.61158309999882,77.61158309999882,,003,P021,2025_May_08_1255,CategoryLocalizer,2021.2.3,59.9440961359471,
39.8,40.0,5,0.0,Stimuli\Blank.png,0,0,0,56,56,56,,,,,,,,,,,,,39.816510099999505,0.016510099999507588,None,78.41232669999954,78.41232669999954,78.41232669999954,78.41232669999954,78.41232669999954,78.41232669999954,78.41232669999954,78.41232669999954,,003,P021,2025_May_08_1255,CategoryLocalizer,2021.2.3,59.9440961359471,
40.0,40.8,2,0.75,Stimuli\ImageFiles-Set1\Bodies\Bodies_DownwardDog_00003.png,0,0,0,57,57,57,,,,,,,,,,,,,40.00021209999977,0.00021209999977145344,None,78.59585419999894,78.59585419999894,78.59585419999894,78.59585419999894,78.59585419999894,78.59585419999894,78.59585419999894,78.59585419999894,,003,P021,2025_May_08_1255,CategoryLocalizer,2021.2.3,59.9440961359471,
40.8,41.0,5,0.0,Stimuli\Blank.png,0,0,0,58,58,58,,,,,,,,,,,,,40.801374900000155,0.0013749000001581635,None,79.39652579999893,79.39652579999893,79.39652579999893,79.39652579999893,79.39652579999893,79.39652579999893,79.39652579999893,79.39652579999893,,003,P021,2025_May_08_1255,CategoryLocalizer,2021.2.3,59.9440961359471,
41.0,41.8,2,0.75,Stimuli\ImageFiles-Set1\Bodies\Bodies_DownwardDog_00003.png,0,0,0,59,59,59,,,,,,,,,,,,,41.001103200000216,0.0011032000002160203,2,79.59669929999836,79.59669929999836,79.59669929999836,79.59669929999836,79.59669929999836,79.59669929999836,79.59669929999836,79.59669929999836,0.6819973999990907,003,P021,2025_May_08_1255,CategoryLocalizer,2021.2.3,59.9440961359471,
41.8,42.0,5,0.0,Stimuli\Blank.png,0,0,0,60,60,60,,,,,,,,,,,,,41.802224099999876,0.0022240999998786037,None,80.39741369999865,80.39741369999865,80.39741369999865,80.39741369999865,80.39741369999865,80.39741369999865,80.39741369999865,80.39741369999865,,003,P021,2025_May_08_1255,CategoryLocalizer,2021.2.3,59.9440961359471,
42.0,42.8,2,0.75,Stimuli\ImageFiles-Set1\Bodies\Bodies_Lunging_00003.png,0,0,0,61,61,61,,,,,,,,,,,,,42.00269490000028,0.0026949000002787216,None,80.61429679999856,80.61429679999856,80.61429679999856,80.61429679999856,80.61429679999856,80.61429679999856,80.61429679999856,80.61429679999856,,003,P021,2025_May_08_1255,CategoryLocalizer,2021.2.3,59.9440961359471,
42.8,43.0,5,0.0,Stimuli\Blank.png,0,0,0,62,62,62,,,,,,,,,,,,,42.81964549999975,0.01964549999975418,None,81.41500319999977,81.41500319999977,81.41500319999977,81.41500319999977,81.41500319999977,81.41500319999977,81.41500319999977,81.41500319999977,,003,P021,2025_May_08_1255,CategoryLocalizer,2021.2.3,59.9440961359471,
43.0,43.8,2,0.75,Stimuli\ImageFiles-Set1\Bodies\Bodies_Hanging_00002.png,0,0,0,63,63,63,,,,,,,,,,,,,43.00469610000073,0.00469610000072862,None,81.61516099999972,81.61516099999972,81.61516099999972,81.61516099999972,81.61516099999972,81.61516099999972,81.61516099999972,81.61516099999972,,003,P021,2025_May_08_1255,CategoryLocalizer,2021.2.3,59.9440961359471,
43.8,44.0,5,0.0,Stimuli\Blank.png,0,0,0,64,64,64,,,,,,,,,,,,,43.82010420000006,0.020104200000062633,None,82.41586769999958,82.41586769999958,82.41586769999958,82.41586769999958,82.41586769999958,82.41586769999958,82.41586769999958,82.41586769999958,,003,P021,2025_May_08_1255,CategoryLocalizer,2021.2.3,59.9440961359471,
44.0,44.8,3,0.75,Stimuli\ImageFiles-Set1\Faces\Face_00119.png,0,0,0,65,65,65,,,,,,,,,,,,,44.00500749999992,0.005007499999919673,None,82.61603749999995,82.61603749999995,82.61603749999995,82.61603749999995,82.61603749999995,82.61603749999995,82.61603749999995,82.61603749999995,,003,P021,2025_May_08_1255,CategoryLocalizer,2021.2.3,59.9440961359471,
44.8,45.0,5,0.0,Stimuli\Blank.png,0,0,0,66,66,66,,,,,,,,,,,,,44.821037499999875,0.021037499999877696,None,83.41675159999977,83.41675159999977,83.41675159999977,83.41675159999977,83.41675159999977,83.41675159999977,83.41675159999977,83.41675159999977,,003,P021,2025_May_08_1255,CategoryLocalizer,2021.2.3,59.9440961359471,
45.0,45.8,3,0.75,Stimuli\ImageFiles-Set1\Faces\Face_00119.png,1,1,0,67,67,67,,,,,,,,,,,,,45.00458179999987,0.004581799999868963,2,83.60024739999972,83.60024739999972,83.60024739999972,83.60024739999972,83.60024739999972,83.60024739999972,83.60024739999972,83.60024739999972,0.44050290000086534,003,P021,2025_May_08_1255,CategoryLocalizer,2021.2.3,59.9440961359471,
45.8,46.0,5,0.0,Stimuli\Blank.png,0,0,0,68,68,68,,,,,,,,,,,,,45.8052559000007,0.005255900000705083,None,84.40094489999865,84.40094489999865,84.40094489999865,84.40094489999865,84.40094489999865,84.40094489999865,84.40094489999865,84.40094489999865,,003,P021,2025_May_08_1255,CategoryLocalizer,2021.2.3,59.9440961359471,
46.0,46.8,3,0.75,Stimuli\ImageFiles-Set1\Faces\Face_00043.png,0,0,0,69,69,69,,,,,,,,,,,,,46.00597349999953,0.005973499999527121,None,84.60112879999906,84.60112879999906,84.60112879999906,84.60112879999906,84.60112879999906,84.60112879999906,84.60112879999906,84.60112879999906,,003,P021,2025_May_08_1255,CategoryLocalizer,2021.2.3,59.9440961359471,
46.8,47.0,5,0.0,Stimuli\Blank.png,0,0,0,70,70,70,,,,,,,,,,,,,46.807053300000916,0.007053300000919194,None,85.40183359999901,85.40183359999901,85.40183359999901,85.40183359999901,85.40183359999901,85.40183359999901,85.40183359999901,85.40183359999901,,003,P021,2025_May_08_1255,CategoryLocalizer,2021.2.3,59.9440961359471,
47.0,47.8,3,0.75,Stimuli\ImageFiles-Set1\Faces\Face_00035.png,0,0,0,71,71,71,,,,,,,,,,,,,47.00627400000121,0.006274000001212698,None,85.61870509999972,85.61870509999972,85.61870509999972,85.61870509999972,85.61870509999972,85.61870509999972,85.61870509999972,85.61870509999972,,003,P021,2025_May_08_1255,CategoryLocalizer,2021.2.3,59.9440961359471,
47.8,48.0,5,0.0,Stimuli\Blank.png,0,0,0,72,72,72,,,,,,,,,,,,,47.82415240000046,0.02415240000046026,None,86.41938200000004,86.41938200000004,86.41938200000004,86.41938200000004,86.41938200000004,86.41938200000004,86.41938200000004,86.41938200000004,,003,P021,2025_May_08_1255,CategoryLocalizer,2021.2.3,59.9440961359471,
48.0,48.8,3,0.75,Stimuli\ImageFiles-Set1\Faces\Face_00115.png,0,0,0,73,73,73,,,,,,,,,,,,,48.00792510000065,0.007925100000647944,None,86.61960799999906,86.61960799999906,86.61960799999906,86.61960799999906,86.61960799999906,86.61960799999906,86.61960799999906,86.61960799999906,,003,P021,2025_May_08_1255,CategoryLocalizer,2021.2.3,59.9440961359471,
48.8,49.0,5,0.0,Stimuli\Blank.png,0,0,0,74,74,74,,,,,,,,,,,,,48.82542620000095,0.025426200000950416,None,87.42044600000008,87.42044600000008,87.42044600000008,87.42044600000008,87.42044600000008,87.42044600000008,87.42044600000008,87.42044600000008,,003,P021,2025_May_08_1255,CategoryLocalizer,2021.2.3,59.9440961359471,
49.0,49.8,3,0.75,Stimuli\ImageFiles-Set1\Faces\Face_00053.png,0,0,0,75,75,75,,,,,,,,,,,,,49.01062160000038,0.01062160000037693,None,87.62056739999935,87.62056739999935,87.62056739999935,87.62056739999935,87.62056739999935,87.62056739999935,87.62056739999935,87.62056739999935,,003,P021,2025_May_08_1255,CategoryLocalizer,2021.2.3,59.9440961359471,
49.8,50.0,5,0.0,Stimuli\Blank.png,0,0,0,76,76,76,,,,,,,,,,,,,49.825950000000375,0.02595000000037828,None,88.42120160000013,88.42120160000013,88.42120160000013,88.42120160000013,88.42120160000013,88.42120160000013,88.42120160000013,88.42120160000013,,003,P021,2025_May_08_1255,CategoryLocalizer,2021.2.3,59.9440961359471,
50.0,50.8,3,0.75,Stimuli\ImageFiles-Set1\Faces\Face_00093.png,0,0,0,77,77,77,,,,,,,,,,,,,50.009629700000005,0.00962970000000496,None,88.60466879999876,88.60466879999876,88.60466879999876,88.60466879999876,88.60466879999876,88.60466879999876,88.60466879999876,88.60466879999876,,003,P021,2025_May_08_1255,CategoryLocalizer,2021.2.3,59.9440961359471,
50.8,51.0,5,0.0,Stimuli\Blank.png,0,0,0,78,78,78,,,,,,,,,,,,,50.80992540000079,0.009925400000796003,None,89.40537399999994,89.40537399999994,89.40537399999994,89.40537399999994,89.40537399999994,89.40537399999994,89.40537399999994,89.40537399999994,,003,P021,2025_May_08_1255,CategoryLocalizer,2021.2.3,59.9440961359471,
51.0,51.8,3,0.75,Stimuli\ImageFiles-Set1\Faces\Face_00049.png,0,0,0,79,79,79,,,,,,,,,,,,,51.00996920000034,0.009969200000341516,None,89.60552619999908,89.60552619999908,89.60552619999908,89.60552619999908,89.60552619999908,89.60552619999908,89.60552619999908,89.60552619999908,,003,P021,2025_May_08_1255,CategoryLocalizer,2021.2.3,59.9440961359471,
51.8,52.0,5,0.0,Stimuli\Blank.png,0,0,0,80,80,80,,,,,,,,,,,,,51.81127200000083,0.011272000000829507,None,90.40626299999894,90.40626299999894,90.40626299999894,90.40626299999894,90.40626299999894,90.40626299999894,90.40626299999894,90.40626299999894,,003,P021,2025_May_08_1255,CategoryLocalizer,2021.2.3,59.9440961359471,
52.0,52.8,3,0.75,Stimuli\ImageFiles-Set1\Faces\Face_00055.png,0,0,0,81,81,81,,,,,,,,,,,,,52.010875699999815,0.01087569999981497,None,90.62313839999842,90.62313839999842,90.62313839999842,90.62313839999842,90.62313839999842,90.62313839999842,90.62313839999842,90.62313839999842,,003,P021,2025_May_08_1255,CategoryLocalizer,2021.2.3,59.9440961359471,
52.8,53.0,5,0.0,Stimuli\Blank.png,0,0,0,82,82,82,,,,,,,,,,,,,52.828163800000766,0.0281638000007689,None,91.42383859999973,91.42383859999973,91.42383859999973,91.42383859999973,91.42383859999973,91.42383859999973,91.42383859999973,91.42383859999973,,003,P021,2025_May_08_1255,CategoryLocalizer,2021.2.3,59.9440961359471,
53.0,53.8,3,0.75,Stimuli\ImageFiles-Set1\Faces\Face_00005.png,0,0,0,83,83,83,,,,,,,,,,,,,53.01170660000025,0.011706600000252365,None,91.60732539999844,91.60732539999844,91.60732539999844,91.60732539999844,91.60732539999844,91.60732539999844,91.60732539999844,91.60732539999844,,003,P021,2025_May_08_1255,CategoryLocalizer,2021.2.3,59.9440961359471,
53.8,54.0,5,0.0,Stimuli\Blank.png,0,0,0,84,84,84,,,,,,,,,,,,,53.81454430000122,0.014544300001219312,None,92.42471589999877,92.42471589999877,92.42471589999877,92.42471589999877,92.42471589999877,92.42471589999877,92.42471589999877,92.42471589999877,,003,P021,2025_May_08_1255,CategoryLocalizer,2021.2.3,59.9440961359471,
54.0,54.8,3,0.75,Stimuli\ImageFiles-Set1\Faces\Face_00016.png,1,1,0,85,85,85,,,,,,,,,,,,,54.02982460000021,0.02982460000021092,None,92.62488569999914,92.62488569999914,92.62488569999914,92.62488569999914,92.62488569999914,92.62488569999914,92.62488569999914,92.62488569999914,,003,P021,2025_May_08_1255,CategoryLocalizer,2021.2.3,59.9440961359471,
54.8,55.0,5,0.0,Stimuli\Blank.png,0,0,0,86,86,86,,,,,,,,,,,,,54.81496359999983,0.01496359999983099,None,93.42560019999837,93.42560019999837,93.42560019999837,93.42560019999837,93.42560019999837,93.42560019999837,93.42560019999837,93.42560019999837,,003,P021,2025_May_08_1255,CategoryLocalizer,2021.2.3,59.9440961359471,
55.0,55.8,3,0.75,Stimuli\ImageFiles-Set1\Faces\Face_00047.png,0,0,0,87,87,87,,,,,,,,,,,,,55.03134069999942,0.031340699999418575,None,93.64246509999975,93.64246509999975,93.64246509999975,93.64246509999975,93.64246509999975,93.64246509999975,93.64246509999975,93.64246509999975,,003,P021,2025_May_08_1255,CategoryLocalizer,2021.2.3,59.9440961359471,
55.8,56.0,5,0.0,Stimuli\Blank.png,0,0,0,88,88,88,,,,,,,,,,,,,55.83120980000058,0.031209800000581822,None,94.42648809999991,94.42648809999991,94.42648809999991,94.42648809999991,94.42648809999991,94.42648809999991,94.42648809999991,94.42648809999991,,003,P021,2025_May_08_1255,CategoryLocalizer,2021.2.3,59.9440961359471,
56.0,56.8,3,0.75,Stimuli\ImageFiles-Set1\Faces\Face_00047.png,0,0,0,89,89,89,,,,,,,,,,,,,56.01428510000005,0.014285100000051898,2,94.6099766999996,94.6099766999996,94.6099766999996,94.6099766999996,94.6099766999996,94.6099766999996,94.6099766999996,94.6099766999996,0.5599223999997776,003,P021,2025_May_08_1255,CategoryLocalizer,2021.2.3,59.9440961359471,
56.8,57.0,5,0.0,Stimuli\Blank.png,0,0,0,90,90,90,,,,,,,,,,,,,56.81569800000034,0.015698000000341494,None,95.4106928000001,95.4106928000001,95.4106928000001,95.4106928000001,95.4106928000001,95.4106928000001,95.4106928000001,95.4106928000001,,003,P021,2025_May_08_1255,CategoryLocalizer,2021.2.3,59.9440961359471,
57.0,57.8,3,0.75,Stimuli\ImageFiles-Set1\Faces\Face_00051.png,0,0,0,91,91,91,,,,,,,,,,,,,56.99921259999974,-0.0007874000002630055,None,95.6108723999987,95.6108723999987,95.6108723999987,95.6108723999987,95.6108723999987,95.6108723999987,95.6108723999987,95.6108723999987,,003,P021,2025_May_08_1255,CategoryLocalizer,2021.2.3,59.9440961359471,
57.8,58.0,5,0.0,Stimuli\Blank.png,0,0,0,92,92,92,,,,,,,,,,,,,57.815933800000494,0.01593380000049649,None,96.41161439999996,96.41161439999996,96.41161439999996,96.41161439999996,96.41161439999996,96.41161439999996,96.41161439999996,96.41161439999996,,003,P021,2025_May_08_1255,CategoryLocalizer,2021.2.3,59.9440961359471,
58.0,58.8,3,0.75,Stimuli\ImageFiles-Set1\Faces\Face_00107.png,0,0,0,93,93,93,,,,,,,,,,,,,58.000199500000235,0.00019950000023527537,None,96.61180639999839,96.61180639999839,96.61180639999839,96.61180639999839,96.61180639999839,96.61180639999839,96.61180639999839,96.61180639999839,,003,P021,2025_May_08_1255,CategoryLocalizer,2021.2.3,59.9440961359471,
58.8,59.0,5,0.0,Stimuli\Blank.png,0,0,0,94,94,94,,,,,,,,,,,,,58.816798600000766,0.016798600000768715,None,97.4124611999996,97.4124611999996,97.4124611999996,97.4124611999996,97.4124611999996,97.4124611999996,97.4124611999996,97.4124611999996,,003,P021,2025_May_08_1255,CategoryLocalizer,2021.2.3,59.9440961359471,
59.0,59.8,3,0.75,Stimuli\ImageFiles-Set1\Faces\Face_00101.png,0,0,0,95,95,95,,,,,,,,,,,,,59.000430800000686,0.0004308000006858492,None,97.59595789999912,97.59595789999912,97.59595789999912,97.59595789999912,97.59595789999912,97.59595789999912,97.59595789999912,97.59595789999912,,003,P021,2025_May_08_1255,CategoryLocalizer,2021.2.3,59.9440961359471,
59.8,60.0,5,0.0,Stimuli\Blank.png,0,0,0,96,96,96,,,,,,,,,,,,,59.80153849999988,0.0015384999998815374,None,98.3966806999997,98.3966806999997,98.3966806999997,98.3966806999997,98.3966806999997,98.3966806999997,98.3966806999997,98.3966806999997,,003,P021,2025_May_08_1255,CategoryLocalizer,2021.2.3,59.9440961359471,
60.0,60.8,4,0.75,Stimuli\ImageFiles-Set1\Scenes\Scenes_021.png,0,0,0,97,97,97,,,,,,,,,,,,,60.00172080000084,0.0017208000008395175,None,98.59684349999952,98.59684349999952,98.59684349999952,98.59684349999952,98.59684349999952,98.59684349999952,98.59684349999952,98.59684349999952,,003,P021,2025_May_08_1255,CategoryLocalizer,2021.2.3,59.9440961359471,
60.8,61.0,5,0.0,Stimuli\Blank.png,0,0,0,98,98,98,,,,,,,,,,,,,60.803047100000185,0.003047100000188152,None,99.39756179999858,99.39756179999858,99.39756179999858,99.39756179999858,99.39756179999858,99.39756179999858,99.39756179999858,99.39756179999858,,003,P021,2025_May_08_1255,CategoryLocalizer,2021.2.3,59.9440961359471,
61.0,61.8,4,0.75,Stimuli\ImageFiles-Set1\Scenes\Scenes_008.png,0,0,0,99,99,99,,,,,,,,,,,,,61.00199000000066,0.001990000000660075,None,99.5977211999998,99.5977211999998,99.5977211999998,99.5977211999998,99.5977211999998,99.5977211999998,99.5977211999998,99.5977211999998,,003,P021,2025_May_08_1255,CategoryLocalizer,2021.2.3,59.9440961359471,
61.8,62.0,5,0.0,Stimuli\Blank.png,0,0,0,100,100,100,,,,,,,,,,,,,61.80461380000088,0.0046138000008824065,None,100.41511409999839,100.41511409999839,100.41511409999839,100.41511409999839,100.41511409999839,100.41511409999839,100.41511409999839,100.41511409999839,,003,P021,2025_May_08_1255,CategoryLocalizer,2021.2.3,59.9440961359471,
62.0,62.8,4,0.75,Stimuli\ImageFiles-Set1\Scenes\Scenes_004.png,0,0,0,101,101,101,,,,,,,,,,,,,62.02043559999947,0.020435599999473197,None,100.63199499999973,100.63199499999973,100.63199499999973,100.63199499999973,100.63199499999973,100.63199499999973,100.63199499999973,100.63199499999973,,003,P021,2025_May_08_1255,CategoryLocalizer,2021.2.3,59.9440961359471,
62.8,63.0,5,0.0,Stimuli\Blank.png,0,0,0,102,102,102,,,,,,,,,,,,,62.821326400000544,0.02132640000054664,None,101.41597430000002,101.41597430000002,101.41597430000002,101.41597430000002,101.41597430000002,101.41597430000002,101.41597430000002,101.41597430000002,,003,P021,2025_May_08_1255,CategoryLocalizer,2021.2.3,59.9440961359471,
63.0,63.8,4,0.75,Stimuli\ImageFiles-Set1\Scenes\Scenes_010.png,0,0,0,103,103,103,,,,,,,,,,,,,63.00526220000029,0.005262200000288431,None,101.61618109999836,101.61618109999836,101.61618109999836,101.61618109999836,101.61618109999836,101.61618109999836,101.61618109999836,101.61618109999836,,003,P021,2025_May_08_1255,CategoryLocalizer,2021.2.3,59.9440961359471,
63.8,64.0,5,0.0,Stimuli\Blank.png,0,0,0,104,104,104,,,,,,,,,,,,,63.821138999999675,0.021138999999678276,None,102.41688599999907,102.41688599999907,102.41688599999907,102.41688599999907,102.41688599999907,102.41688599999907,102.41688599999907,102.41688599999907,,003,P021,2025_May_08_1255,CategoryLocalizer,2021.2.3,59.9440961359471,
64.0,64.8,4,0.75,Stimuli\ImageFiles-Set1\Scenes\Scenes_027.png,0,0,0,105,105,105,,,,,,,,,,,,,64.00614380000115,0.0061438000011548866,None,102.61706529999901,102.61706529999901,102.61706529999901,102.61706529999901,102.61706529999901,102.61706529999901,102.61706529999901,102.61706529999901,,003,P021,2025_May_08_1255,CategoryLocalizer,2021.2.3,59.9440961359471,
64.8,65.0,5,0.0,Stimuli\Blank.png,0,0,0,106,106,106,,,,,,,,,,,,,64.82240339999953,0.02240339999953278,None,103.41776729999947,103.41776729999947,103.41776729999947,103.41776729999947,103.41776729999947,103.41776729999947,103.41776729999947,103.41776729999947,,003,P021,2025_May_08_1255,CategoryLocalizer,2021.2.3,59.9440961359471,
65.0,65.8,4,0.75,Stimuli\ImageFiles-Set1\Scenes\Scenes_027.png,1,1,0,107,107,107,,,,,,,,,,,,,65.00636900000063,0.006369000000631786,2,103.60127569999895,103.60127569999895,103.60127569999895,103.60127569999895,103.60127569999895,103.60127569999895,103.60127569999895,103.60127569999895,0.5155250000007072,003,P021,2025_May_08_1255,CategoryLocalizer,2021.2.3,59.9440961359471,
65.8,66.0,5,0.0,Stimuli\Blank.png,0,0,0,108,108,108,,,,,,,,,,,,,65.80667360000007,0.006673600000070223,None,104.40195109999877,104.40195109999877,104.40195109999877,104.40195109999877,104.40195109999877,104.40195109999877,104.40195109999877,104.40195109999877,,003,P021,2025_May_08_1255,CategoryLocalizer,2021.2.3,59.9440961359471,
66.0,66.8,4,0.75,Stimuli\ImageFiles-Set1\Scenes\Scenes_017.png,0,0,0,109,109,109,,,,,,,,,,,,,66.00640060000114,0.006400600001143175,None,104.60215419999986,104.60215419999986,104.60215419999986,104.60215419999986,104.60215419999986,104.60215419999986,104.60215419999986,104.60215419999986,,003,P021,2025_May_08_1255,CategoryLocalizer,2021.2.3,59.9440961359471,
66.8,67.0,5,0.0,Stimuli\Blank.png,0,0,0,110,110,110,,,,,,,,,,,,,66.80822360000093,0.008223600000931697,None,105.40288949999922,105.40288949999922,105.40288949999922,105.40288949999922,105.40288949999922,105.40288949999922,105.40288949999922,105.40288949999922,,003,P021,2025_May_08_1255,CategoryLocalizer,2021.2.3,59.9440961359471,
67.0,67.8,4,0.75,Stimuli\ImageFiles-Set1\Scenes\Scenes_037.png,0,0,0,111,111,111,,,,,,,,,,,,,67.01091269999961,0.010912699999607867,None,105.61985370000002,105.61985370000002,105.61985370000002,105.61985370000002,105.61985370000002,105.61985370000002,105.61985370000002,105.61985370000002,,003,P021,2025_May_08_1255,CategoryLocalizer,2021.2.3,59.9440961359471,
67.8,68.0,5,0.0,Stimuli\Blank.png,0,0,0,112,112,112,,,,,,,,,,,,,67.82560379999995,0.025603799999956323,None,106.42043259999991,106.42043259999991,106.42043259999991,106.42043259999991,106.42043259999991,106.42043259999991,106.42043259999991,106.42043259999991,,003,P021,2025_May_08_1255,CategoryLocalizer,2021.2.3,59.9440961359471,
68.0,68.8,4,0.75,Stimuli\ImageFiles-Set1\Scenes\Scenes_033.png,1,1,0,113,113,113,,,,,,,,,,,,,68.00911760000054,0.009117600000536186,None,106.60392319999846,106.60392319999846,106.60392319999846,106.60392319999846,106.60392319999846,106.60392319999846,106.60392319999846,106.60392319999846,,003,P021,2025_May_08_1255,CategoryLocalizer,2021.2.3,59.9440961359471,
68.8,69.0,5,0.0,Stimuli\Blank.png,0,0,0,114,114,114,,,,,,,,,,,,,68.80952369999977,0.009523699999775204,None,107.40463429999909,107.40463429999909,107.40463429999909,107.40463429999909,107.40463429999909,107.40463429999909,107.40463429999909,107.40463429999909,,003,P021,2025_May_08_1255,CategoryLocalizer,2021.2.3,59.9440961359471,
69.0,69.8,4,0.75,Stimuli\ImageFiles-Set1\Scenes\Scenes_053.png,0,0,0,115,115,115,,,,,,,,,,,,,69.01010850000057,0.01010850000056962,None,107.62148569999954,107.62148569999954,107.62148569999954,107.62148569999954,107.62148569999954,107.62148569999954,107.62148569999954,107.62148569999954,,003,P021,2025_May_08_1255,CategoryLocalizer,2021.2.3,59.9440961359471,
69.8,70.0,5,0.0,Stimuli\Blank.png,0,0,0,116,116,116,,,,,,,,,,,,,69.82652539999981,0.026525399999812294,None,108.42221579999932,108.42221579999932,108.42221579999932,108.42221579999932,108.42221579999932,108.42221579999932,108.42221579999932,108.42221579999932,,003,P021,2025_May_08_1255,CategoryLocalizer,2021.2.3,59.9440961359471,
70.0,70.8,4,0.75,Stimuli\ImageFiles-Set1\Scenes\Scenes_053.png,0,0,0,117,117,117,,,,,,,,,,,,,70.01100030000089,0.011000300000887364,None,108.62237599999935,108.62237599999935,108.62237599999935,108.62237599999935,108.62237599999935,108.62237599999935,108.62237599999935,108.62237599999935,,003,P021,2025_May_08_1255,CategoryLocalizer,2021.2.3,59.9440961359471,
70.8,71.0,5,0.0,Stimuli\Blank.png,0,0,0,118,118,118,,,,,,,,,,,,,70.8272649999999,0.027264999999900397,None,109.42308019999837,109.42308019999837,109.42308019999837,109.42308019999837,109.42308019999837,109.42308019999837,109.42308019999837,109.42308019999837,,003,P021,2025_May_08_1255,CategoryLocalizer,2021.2.3,59.9440961359471,
71.0,71.8,4,0.75,Stimuli\ImageFiles-Set1\Scenes\Scenes_044.png,0,0,0,119,119,119,,,,,,,,,,,,,71.01096970000071,0.01096970000071451,None,109.62326369999937,109.62326369999937,109.62326369999937,109.62326369999937,109.62326369999937,109.62326369999937,109.62326369999937,109.62326369999937,,003,P021,2025_May_08_1255,CategoryLocalizer,2021.2.3,59.9440961359471,
71.8,72.0,5,0.0,Stimuli\Blank.png,0,0,0,120,120,120,,,,,,,,,,,,,71.8301360000005,0.03013600000049621,None,110.44067149999864,110.44067149999864,110.44067149999864,110.44067149999864,110.44067149999864,110.44067149999864,110.44067149999864,110.44067149999864,,003,P021,2025_May_08_1255,CategoryLocalizer,2021.2.3,59.9440961359471,
72.0,72.8,4,0.75,Stimuli\ImageFiles-Set1\Scenes\Scenes_015.png,0,0,0,121,121,121,,,,,,,,,,,,,72.03020049999941,0.030200499999409658,None,110.64082569999846,110.64082569999846,110.64082569999846,110.64082569999846,110.64082569999846,110.64082569999846,110.64082569999846,110.64082569999846,,003,P021,2025_May_08_1255,CategoryLocalizer,2021.2.3,59.9440961359471,
72.8,73.0,5,0.0,Stimuli\Blank.png,0,0,0,122,122,122,,,,,,,,,,,,,72.829447600001,0.029447600001006435,None,111.42485549999947,111.42485549999947,111.42485549999947,111.42485549999947,111.42485549999947,111.42485549999947,111.42485549999947,111.42485549999947,,003,P021,2025_May_08_1255,CategoryLocalizer,2021.2.3,59.9440961359471,
73.0,73.8,4,0.75,Stimuli\ImageFiles-Set1\Scenes\Scenes_055.png,0,0,0,123,123,123,,,,,,,,,,,,,73.01466230000005,0.014662300000054529,None,111.62502999999924,111.62502999999924,111.62502999999924,111.62502999999924,111.62502999999924,111.62502999999924,111.62502999999924,111.62502999999924,,003,P021,2025_May_08_1255,CategoryLocalizer,2021.2.3,59.9440961359471,
73.8,74.0,5,0.0,Stimuli\Blank.png,0,0,0,124,124,124,,,,,,,,,,,,,73.83051540000088,0.030515400000879822,None,112.42573469999843,112.42573469999843,112.42573469999843,112.42573469999843,112.42573469999843,112.42573469999843,112.42573469999843,112.42573469999843,,003,P021,2025_May_08_1255,CategoryLocalizer,2021.2.3,59.9440961359471,
74.0,74.8,4,0.75,Stimuli\ImageFiles-Set1\Scenes\Scenes_040.png,0,0,0,125,125,125,,,,,,,,,,,,,74.01407160000053,0.01407160000053409,None,112.60922709999977,112.60922709999977,112.60922709999977,112.60922709999977,112.60922709999977,112.60922709999977,112.60922709999977,112.60922709999977,,003,P021,2025_May_08_1255,CategoryLocalizer,2021.2.3,59.9440961359471,
74.8,75.0,5,0.0,Stimuli\Blank.png,0,0,0,126,126,126,,,,,,,,,,,,,74.8149826000008,0.014982600000806201,None,113.40994249999858,113.40994249999858,113.40994249999858,113.40994249999858,113.40994249999858,113.40994249999858,113.40994249999858,113.40994249999858,,003,P021,2025_May_08_1255,CategoryLocalizer,2021.2.3,59.9440961359471,
75.0,75.8,4,0.75,Stimuli\ImageFiles-Set1\Scenes\Scenes_059.png,0,0,0,127,127,127,,,,,,,,,,,,,75.01506270000027,0.015062700000271434,None,113.61011669999971,113.61011669999971,113.61011669999971,113.61011669999971,113.61011669999971,113.61011669999971,113.61011669999971,113.61011669999971,,003,P021,2025_May_08_1255,CategoryLocalizer,2021.2.3,59.9440961359471,
75.8,76.0,5,0.0,Stimuli\Blank.png,0,0,0,128,128,128,,,,,,,,,,,,,75.79986790000112,-0.0001320999988791982,None,114.39415670000017,114.39415670000017,114.39415670000017,114.39415670000017,114.39415670000017,114.39415670000017,114.39415670000017,114.39415670000017,,003,P021,2025_May_08_1255,CategoryLocalizer,2021.2.3,59.9440961359471,
76.0,88.0,0,0.0,Stimuli\Blank.png,0,0,0,129,129,129,,,,,,,,,,,,,75.99925040000016,-0.0007495999998354819,None,114.59438129999944,114.59438129999944,114.59438129999944,114.59438129999944,114.59438129999944,114.59438129999944,114.59438129999944,114.59438129999944,,003,P021,2025_May_08_1255,CategoryLocalizer,2021.2.3,59.9440961359471,
88.0,88.8,3,0.75,Stimuli\ImageFiles-Set1\Faces\Face_00045.png,0,0,0,130,130,130,,,,,,,,,,,,,88.00972390000061,0.00972390000060841,None,126.60494010000002,126.60494010000002,126.60494010000002,126.60494010000002,126.60494010000002,126.60494010000002,126.60494010000002,126.60494010000002,,003,P021,2025_May_08_1255,CategoryLocalizer,2021.2.3,59.9440961359471,
88.8,89.0,5,0.0,Stimuli\Blank.png,0,0,0,131,131,131,,,,,,,,,,,,,88.81056060000083,0.010560600000829368,None,127.40565359999891,127.40565359999891,127.40565359999891,127.40565359999891,127.40565359999891,127.40565359999891,127.40565359999891,127.40565359999891,,003,P021,2025_May_08_1255,CategoryLocalizer,2021.2.3,59.9440961359471,
89.0,89.8,3,0.75,Stimuli\ImageFiles-Set1\Faces\Face_00117.png,0,0,0,132,132,132,,,,,,,,,,,,,89.0112466999999,0.011246699999901466,None,127.6058223,127.6058223,127.6058223,127.6058223,127.6058223,127.6058223,127.6058223,127.6058223,,003,P021,2025_May_08_1255,CategoryLocalizer,2021.2.3,59.9440961359471,
89.8,90.0,5,0.0,Stimuli\Blank.png,0,0,0,133,133,133,,,,,,,,,,,,,89.81151570000111,0.01151570000111235,None,128.4065412,128.4065412,128.4065412,128.4065412,128.4065412,128.4065412,128.4065412,128.4065412,,003,P021,2025_May_08_1255,CategoryLocalizer,2021.2.3,59.9440961359471,
90.0,90.8,3,0.75,Stimuli\ImageFiles-Set1\Faces\Face_00117.png,1,1,0,134,134,134,,,,,,,,,,,,,90.01113199999963,0.01113199999963399,2,128.6233969999994,128.6233969999994,128.6233969999994,128.6233969999994,128.6233969999994,128.6233969999994,128.6233969999994,128.6233969999994,0.5153239000010217,003,P021,2025_May_08_1255,CategoryLocalizer,2021.2.3,59.9440961359471,
90.8,91.0,5,0.0,Stimuli\Blank.png,0,0,0,135,135,135,,,,,,,,,,,,,90.82987909999974,0.029879099999746472,None,129.42411209999955,129.42411209999955,129.42411209999955,129.42411209999955,129.42411209999955,129.42411209999955,129.42411209999955,129.42411209999955,,003,P021,2025_May_08_1255,CategoryLocalizer,2021.2.3,59.9440961359471,
91.0,91.8,3,0.75,Stimuli\ImageFiles-Set1\Faces\Face_00025.png,0,0,0,136,136,136,,,,,,,,,,,,,91.01254280000103,0.012542800001028809,None,129.6075951999992,129.6075951999992,129.6075951999992,129.6075951999992,129.6075951999992,129.6075951999992,129.6075951999992,129.6075951999992,,003,P021,2025_May_08_1255,CategoryLocalizer,2021.2.3,59.9440961359471,
91.8,92.0,5,0.0,Stimuli\Blank.png,0,0,0,137,137,137,,,,,,,,,,,,,91.81446499999947,0.01446499999947548,None,130.4249921999999,130.4249921999999,130.4249921999999,130.4249921999999,130.4249921999999,130.4249921999999,130.4249921999999,130.4249921999999,,003,P021,2025_May_08_1255,CategoryLocalizer,2021.2.3,59.9440961359471,
92.0,92.8,3,0.75,Stimuli\ImageFiles-Set1\Faces\Face_00029.png,0,0,0,138,138,138,,,,,,,,,,,,,92.03035889999956,0.030358899999555433,None,130.62515809999968,130.62515809999968,130.62515809999968,130.62515809999968,130.62515809999968,130.62515809999968,130.62515809999968,130.62515809999968,,003,P021,2025_May_08_1255,CategoryLocalizer,2021.2.3,59.9440961359471,
92.8,93.0,5,0.0,Stimuli\Blank.png,0,0,0,139,139,139,,,,,,,,,,,,,92.81431110000085,0.014311100000853116,None,131.40919419999955,131.40919419999955,131.40919419999955,131.40919419999955,131.40919419999955,131.40919419999955,131.40919419999955,131.40919419999955,,003,P021,2025_May_08_1255,CategoryLocalizer,2021.2.3,59.9440961359471,
93.0,93.8,3,0.75,Stimuli\ImageFiles-Set1\Faces\Face_00087.png,0,0,0,140,140,140,,,,,,,,,,,,,93.01481270000113,0.014812700001129997,2,131.6093650999992,131.6093650999992,131.6093650999992,131.6093650999992,131.6093650999992,131.6093650999992,131.6093650999992,131.6093650999992,0.45730860000003304,003,P021,2025_May_08_1255,CategoryLocalizer,2021.2.3,59.9440961359471,
93.8,94.0,5,0.0,Stimuli\Blank.png,0,0,0,141,141,141,,,,,,,,,,,,,93.8154943999998,0.015494399999809616,None,132.41008659999898,132.41008659999898,132.41008659999898,132.41008659999898,132.41008659999898,132.41008659999898,132.41008659999898,132.41008659999898,,003,P021,2025_May_08_1255,CategoryLocalizer,2021.2.3,59.9440961359471,
94.0,94.8,3,0.75,Stimuli\ImageFiles-Set1\Faces\Face_00007.png,0,0,0,142,142,142,,,,,,,,,,,,,94.01456020000114,0.01456020000114222,None,132.61025449999943,132.61025449999943,132.61025449999943,132.61025449999943,132.61025449999943,132.61025449999943,132.61025449999943,132.61025449999943,,003,P021,2025_May_08_1255,CategoryLocalizer,2021.2.3,59.9440961359471,
94.8,95.0,5,0.0,Stimuli\Blank.png,0,0,0,143,143,143,,,,,,,,,,,,,94.81590330000108,0.015903300001085086,None,133.41095829999904,133.41095829999904,133.41095829999904,133.41095829999904,133.41095829999904,133.41095829999904,133.41095829999904,133.41095829999904,,003,P021,2025_May_08_1255,CategoryLocalizer,2021.2.3,59.9440961359471,
95.0,95.8,3,0.75,Stimuli\ImageFiles-Set1\Faces\Face_00077.png,0,0,0,144,144,144,,,,,,,,,,,,,94.99940270000116,-0.0005972999988443917,None,133.6111368999991,133.6111368999991,133.6111368999991,133.6111368999991,133.6111368999991,133.6111368999991,133.6111368999991,133.6111368999991,,003,P021,2025_May_08_1255,CategoryLocalizer,2021.2.3,59.9440961359471,
95.8,96.0,5,0.0,Stimuli\Blank.png,0,0,0,145,145,145,,,,,,,,,,,,,95.8163698999997,0.016369899999702398,None,134.41183529999944,134.41183529999944,134.41183529999944,134.41183529999944,134.41183529999944,134.41183529999944,134.41183529999944,134.41183529999944,,003,P021,2025_May_08_1255,CategoryLocalizer,2021.2.3,59.9440961359471,
96.0,96.8,3,0.75,Stimuli\ImageFiles-Set1\Faces\Face_00027.png,0,0,0,146,146,146,,,,,,,,,,,,,96.00034740000046,0.000347400000464404,None,134.61202109999977,134.61202109999977,134.61202109999977,134.61202109999977,134.61202109999977,134.61202109999977,134.61202109999977,134.61202109999977,,003,P021,2025_May_08_1255,CategoryLocalizer,2021.2.3,59.9440961359471,
96.8,97.0,5,0.0,Stimuli\Blank.png,0,0,0,147,147,147,,,,,,,,,,,,,96.81758769999942,0.017587699999424444,None,135.41272909999861,135.41272909999861,135.41272909999861,135.41272909999861,135.41272909999861,135.41272909999861,135.41272909999861,135.41272909999861,,003,P021,2025_May_08_1255,CategoryLocalizer,2021.2.3,59.9440961359471,
97.0,97.8,3,0.75,Stimuli\ImageFiles-Set1\Faces\Face_00012.png,0,0,0,148,148,148,,,,,,,,,,,,,97.0013498999997,0.0013498999996954808,None,135.59623029999966,135.59623029999966,135.59623029999966,135.59623029999966,135.59623029999966,135.59623029999966,135.59623029999966,135.59623029999966,,003,P021,2025_May_08_1255,CategoryLocalizer,2021.2.3,59.9440961359471,
97.8,98.0,5,0.0,Stimuli\Blank.png,0,0,0,149,149,149,,,,,,,,,,,,,97.8012961000004,0.001296100000402589,None,136.39690569999948,136.39690569999948,136.39690569999948,136.39690569999948,136.39690569999948,136.39690569999948,136.39690569999948,136.39690569999948,,003,P021,2025_May_08_1255,CategoryLocalizer,2021.2.3,59.9440961359471,
98.0,98.8,3,0.75,Stimuli\ImageFiles-Set1\Faces\Face_00001.png,0,0,0,150,150,150,,,,,,,,,,,,,98.00240040000062,0.0024004000006243587,None,136.5971085000001,136.5971085000001,136.5971085000001,136.5971085000001,136.5971085000001,136.5971085000001,136.5971085000001,136.5971085000001,,003,P021,2025_May_08_1255,CategoryLocalizer,2021.2.3,59.9440961359471,
98.8,99.0,5,0.0,Stimuli\Blank.png,0,0,0,151,151,151,,,,,,,,,,,,,98.80221320000055,0.0022132000005541386,None,137.3978195999989,137.3978195999989,137.3978195999989,137.3978195999989,137.3978195999989,137.3978195999989,137.3978195999989,137.3978195999989,,003,P021,2025_May_08_1255,CategoryLocalizer,2021.2.3,59.9440961359471,
99.0,99.8,3,0.75,Stimuli\ImageFiles-Set1\Faces\Face_00089.png,0,0,0,152,152,152,,,,,,,,,,,,,99.00452030000088,0.004520300000876887,None,137.61467999999877,137.61467999999877,137.61467999999877,137.61467999999877,137.61467999999877,137.61467999999877,137.61467999999877,137.61467999999877,,003,P021,2025_May_08_1255,CategoryLocalizer,2021.2.3,59.9440961359471,
99.8,100.0,5,0.0,Stimuli\Blank.png,0,0,0,153,153,153,,,,,,,,,,,,,99.8216766000005,0.021676600000503754,None,138.43207149999944,138.43207149999944,138.43207149999944,138.43207149999944,138.43207149999944,138.43207149999944,138.43207149999944,138.43207149999944,,003,P021,2025_May_08_1255,CategoryLocalizer,2021.2.3,59.9440961359471,
100.0,100.8,3,0.75,Stimuli\ImageFiles-Set1\Faces\Face_00083.png,1,1,0,154,154,154,,,,,,,,,,,,,100.01995940000052,0.019959400000516325,None,138.61556569999993,138.61556569999993,138.61556569999993,138.61556569999993,138.61556569999993,138.61556569999993,138.61556569999993,138.61556569999993,,003,P021,2025_May_08_1255,CategoryLocalizer,2021.2.3,59.9440961359471,
100.8,101.0,5,0.0,Stimuli\Blank.png,0,0,0,155,155,155,,,,,,,,,,,,,100.80390480000096,0.003904800000967157,None,139.3996363999995,139.3996363999995,139.3996363999995,139.3996363999995,139.3996363999995,139.3996363999995,139.3996363999995,139.3996363999995,,003,P021,2025_May_08_1255,CategoryLocalizer,2021.2.3,59.9440961359471,
101.0,101.8,3,0.75,Stimuli\ImageFiles-Set1\Faces\Face_00057.png,0,0,0,156,156,156,,,,,,,,,,,,,101.00416109999969,0.004161099999691942,None,139.63312349999978,139.63312349999978,139.63312349999978,139.63312349999978,139.63312349999978,139.63312349999978,139.63312349999978,139.63312349999978,,003,P021,2025_May_08_1255,CategoryLocalizer,2021.2.3,59.9440961359471,
101.8,102.0,5,0.0,Stimuli\Blank.png,0,0,0,157,157,157,,,,,,,,,,,,,101.83870120000029,0.03870120000028976,None,140.43390069999987,140.43390069999987,140.43390069999987,140.43390069999987,140.43390069999987,140.43390069999987,140.43390069999987,140.43390069999987,,003,P021,2025_May_08_1255,CategoryLocalizer,2021.2.3,59.9440961359471,
102.0,102.8,3,0.75,Stimuli\ImageFiles-Set1\Faces\Face_00057.png,0,0,0,158,158,158,,,,,,,,,,,,,102.00604220000059,0.006042200000592857,2,140.60064710000006,140.60064710000006,140.60064710000006,140.60064710000006,140.60064710000006,140.60064710000006,140.60064710000006,140.60064710000006,0.38620300000002317,003,P021,2025_May_08_1255,CategoryLocalizer,2021.2.3,59.9440961359471,
102.8,103.0,5,0.0,Stimuli\Blank.png,0,0,0,159,159,159,,,,,,,,,,,,,102.80659449999985,0.00659449999984929,None,141.40131029999975,141.40131029999975,141.40131029999975,141.40131029999975,141.40131029999975,141.40131029999975,141.40131029999975,141.40131029999975,,003,P021,2025_May_08_1255,CategoryLocalizer,2021.2.3,59.9440961359471,
103.0,103.8,3,0.75,Stimuli\ImageFiles-Set1\Faces\Face_00014.png,0,0,0,160,160,160,,,,,,,,,,,,,103.00575370000115,0.005753700001150719,None,141.61821739999868,141.61821739999868,141.61821739999868,141.61821739999868,141.61821739999868,141.61821739999868,141.61821739999868,141.61821739999868,,003,P021,2025_May_08_1255,CategoryLocalizer,2021.2.3,59.9440961359471,
103.8,104.0,5,0.0,Stimuli\Blank.png,0,0,0,161,161,161,,,,,,,,,,,,,103.82596039999953,0.02596039999953348,None,142.43562969999948,142.43562969999948,142.43562969999948,142.43562969999948,142.43562969999948,142.43562969999948,142.43562969999948,142.43562969999948,,003,P021,2025_May_08_1255,CategoryLocalizer,2021.2.3,59.9440961359471,
104.0,104.8,1,0.75,Stimuli\ImageFiles-Set1\Objects\Object_Key_00001.png,0,0,0,162,162,162,,,,,,,,,,,,,104.02430020000065,0.024300200000652694,None,142.6191146000001,142.6191146000001,142.6191146000001,142.6191146000001,142.6191146000001,142.6191146000001,142.6191146000001,142.6191146000001,,003,P021,2025_May_08_1255,CategoryLocalizer,2021.2.3,59.9440961359471,
104.8,105.0,5,0.0,Stimuli\Blank.png,0,0,0,163,163,163,,,,,,,,,,,,,104.80998,0.009979999999998768,None,143.41983489999984,143.41983489999984,143.41983489999984,143.41983489999984,143.41983489999984,143.41983489999984,143.41983489999984,143.41983489999984,,003,P021,2025_May_08_1255,CategoryLocalizer,2021.2.3,59.9440961359471,
105.0,105.8,1,0.75,Stimuli\ImageFiles-Set1\Objects\Object_Toilet_00001.png,0,0,0,164,164,164,,,,,,,,,,,,,105.02427410000018,0.024274100000184262,None,143.61997829999927,143.61997829999927,143.61997829999927,143.61997829999927,143.61997829999927,143.61997829999927,143.61997829999927,143.61997829999927,,003,P021,2025_May_08_1255,CategoryLocalizer,2021.2.3,59.9440961359471,
105.8,106.0,5,0.0,Stimuli\Blank.png,0,0,0,165,165,165,,,,,,,,,,,,,105.8105742000007,0.010574200000704082,None,144.42069989999982,144.42069989999982,144.42069989999982,144.42069989999982,144.42069989999982,144.42069989999982,144.42069989999982,144.42069989999982,,003,P021,2025_May_08_1255,CategoryLocalizer,2021.2.3,59.9440961359471,
106.0,106.8,1,0.75,Stimuli\ImageFiles-Set1\Objects\Object_TeaBag_00001.png,0,0,0,166,166,166,,,,,,,,,,,,,106.02585240000008,0.02585240000007616,None,144.620870499999,144.620870499999,144.620870499999,144.620870499999,144.620870499999,144.620870499999,144.620870499999,144.620870499999,,003,P021,2025_May_08_1255,CategoryLocalizer,2021.2.3,59.9440961359471,
106.8,107.0,5,0.0,Stimuli\Blank.png,0,0,0,167,167,167,,,,,,,,,,,,,106.81029529999978,0.010295299999782515,None,145.40490529999988,145.40490529999988,145.40490529999988,145.40490529999988,145.40490529999988,145.40490529999988,145.40490529999988,145.40490529999988,,003,P021,2025_May_08_1255,CategoryLocalizer,2021.2.3,59.9440961359471,
107.0,107.8,1,0.75,Stimuli\ImageFiles-Set1\Objects\Object_Stool_00001.png,0,0,0,168,168,168,,,,,,,,,,,,,107.01004330000069,0.01004330000068876,None,145.62177389999852,145.62177389999852,145.62177389999852,145.62177389999852,145.62177389999852,145.62177389999852,145.62177389999852,145.62177389999852,,003,P021,2025_May_08_1255,CategoryLocalizer,2021.2.3,59.9440961359471,
107.8,108.0,5,0.0,Stimuli\Blank.png,0,0,0,169,169,169,,,,,,,,,,,,,107.82716790000086,0.027167900000861778,None,146.4224691999989,146.4224691999989,146.4224691999989,146.4224691999989,146.4224691999989,146.4224691999989,146.4224691999989,146.4224691999989,,003,P021,2025_May_08_1255,CategoryLocalizer,2021.2.3,59.9440961359471,
108.0,108.8,1,0.75,Stimuli\ImageFiles-Set1\Objects\Object_Scale_00001.png,0,0,0,170,170,170,,,,,,,,,,,,,108.0102863000011,0.010286300001098425,None,146.62264239999968,146.62264239999968,146.62264239999968,146.62264239999968,146.62264239999968,146.62264239999968,146.62264239999968,146.62264239999968,,003,P021,2025_May_08_1255,CategoryLocalizer,2021.2.3,59.9440961359471,
108.8,109.0,5,0.0,Stimuli\Blank.png,0,0,0,171,171,171,,,,,,,,,,,,,108.829725900001,0.029725900000997285,None,147.44003189999967,147.44003189999967,147.44003189999967,147.44003189999967,147.44003189999967,147.44003189999967,147.44003189999967,147.44003189999967,,003,P021,2025_May_08_1255,CategoryLocalizer,2021.2.3,59.9440961359471,
109.0,109.8,1,0.75,Stimuli\ImageFiles-Set1\Objects\Object_ComputerMouse_00001.png,0,0,0,172,172,172,,,,,,,,,,,,,109.02790699999969,0.027906999999686377,None,147.62358339999992,147.62358339999992,147.62358339999992,147.62358339999992,147.62358339999992,147.62358339999992,147.62358339999992,147.62358339999992,,003,P021,2025_May_08_1255,CategoryLocalizer,2021.2.3,59.9440961359471,
109.8,110.0,5,0.0,Stimuli\Blank.png,0,0,0,173,173,173,,,,,,,,,,,,,109.81182869999975,0.011828699999753667,None,148.40755089999948,148.40755089999948,148.40755089999948,148.40755089999948,148.40755089999948,148.40755089999948,148.40755089999948,148.40755089999948,,003,P021,2025_May_08_1255,CategoryLocalizer,2021.2.3,59.9440961359471,
110.0,110.8,1,0.75,Stimuli\ImageFiles-Set1\Objects\Object_Lamp_00001.png,0,0,0,174,174,174,,,,,,,,,,,,,110.01225800000066,0.012258000000656466,2,148.60772050000014,148.60772050000014,148.60772050000014,148.60772050000014,148.60772050000014,148.60772050000014,148.60772050000014,148.60772050000014,0.49909029999980703,003,P021,2025_May_08_1255,CategoryLocalizer,2021.2.3,59.9440961359471,
110.8,111.0,5,0.0,Stimuli\Blank.png,0,0,0,175,175,175,,,,,,,,,,,,,110.81495259999974,0.014952599999745075,None,149.425116299999,149.425116299999,149.425116299999,149.425116299999,149.425116299999,149.425116299999,149.425116299999,149.425116299999,,003,P021,2025_May_08_1255,CategoryLocalizer,2021.2.3,59.9440961359471,
111.0,111.8,1,0.75,Stimuli\ImageFiles-Set1\Objects\Object_Ring_00001.png,0,0,0,176,176,176,,,,,,,,,,,,,111.02979910000067,0.029799100000673207,None,149.62529619999987,149.62529619999987,149.62529619999987,149.62529619999987,149.62529619999987,149.62529619999987,149.62529619999987,149.62529619999987,,003,P021,2025_May_08_1255,CategoryLocalizer,2021.2.3,59.9440961359471,
111.8,112.0,5,0.0,Stimuli\Blank.png,0,0,0,177,177,177,,,,,,,,,,,,,111.81419330000062,0.014193300000627573,None,150.40933649999897,150.40933649999897,150.40933649999897,150.40933649999897,150.40933649999897,150.40933649999897,150.40933649999897,150.40933649999897,,003,P021,2025_May_08_1255,CategoryLocalizer,2021.2.3,59.9440961359471,
112.0,112.8,1,0.75,Stimuli\ImageFiles-Set1\Objects\Object_Peanut_00001.png,0,0,0,178,178,178,,,,,,,,,,,,,112.01487799999995,0.014877999999953317,None,150.60949900000014,150.60949900000014,150.60949900000014,150.60949900000014,150.60949900000014,150.60949900000014,150.60949900000014,150.60949900000014,,003,P021,2025_May_08_1255,CategoryLocalizer,2021.2.3,59.9440961359471,
112.8,113.0,5,0.0,Stimuli\Blank.png,0,0,0,179,179,179,,,,,,,,,,,,,112.81533099999979,0.015330999999790151,None,151.4102344999992,151.4102344999992,151.4102344999992,151.4102344999992,151.4102344999992,151.4102344999992,151.4102344999992,151.4102344999992,,003,P021,2025_May_08_1255,CategoryLocalizer,2021.2.3,59.9440961359471,
113.0,113.8,1,0.75,Stimuli\ImageFiles-Set1\Objects\Object_ShoppingCart_00001.png,0,0,0,180,180,180,,,,,,,,,,,,,113.01530140000068,0.015301400000680587,None,151.61037659999965,151.61037659999965,151.61037659999965,151.61037659999965,151.61037659999965,151.61037659999965,151.61037659999965,151.61037659999965,,003,P021,2025_May_08_1255,CategoryLocalizer,2021.2.3,59.9440961359471,
113.8,114.0,5,0.0,Stimuli\Blank.png,0,0,0,181,181,181,,,,,,,,,,,,,113.79951910000091,-0.0004808999990899565,None,152.3944088999997,152.3944088999997,152.3944088999997,152.3944088999997,152.3944088999997,152.3944088999997,152.3944088999997,152.3944088999997,,003,P021,2025_May_08_1255,CategoryLocalizer,2021.2.3,59.9440961359471,
114.0,114.8,1,0.75,Stimuli\ImageFiles-Set1\Objects\Object_Crib_00001.png,0,0,0,182,182,182,,,,,,,,,,,,,113.99902750000001,-0.0009724999999889405,None,152.5945871999993,152.5945871999993,152.5945871999993,152.5945871999993,152.5945871999993,152.5945871999993,152.5945871999993,152.5945871999993,,003,P021,2025_May_08_1255,CategoryLocalizer,2021.2.3,59.9440961359471,
114.8,115.0,5,0.0,Stimuli\Blank.png,0,0,0,183,183,183,,,,,,,,,,,,,114.80024729999968,0.00024729999968542415,None,153.3953036999992,153.3953036999992,153.3953036999992,153.3953036999992,153.3953036999992,153.3953036999992,153.3953036999992,153.3953036999992,,003,P021,2025_May_08_1255,CategoryLocalizer,2021.2.3,59.9440961359471,
115.0,115.8,1,0.75,Stimuli\ImageFiles-Set1\Objects\Object_Walnut_00001.png,0,0,0,184,184,184,,,,,,,,,,,,,115.0008515999998,0.0008515999998053303,None,153.61212319999868,153.61212319999868,153.61212319999868,153.61212319999868,153.61212319999868,153.61212319999868,153.61212319999868,153.61212319999868,,003,P021,2025_May_08_1255,CategoryLocalizer,2021.2.3,59.9440961359471,
115.8,116.0,5,0.0,Stimuli\Blank.png,0,0,0,185,185,185,,,,,,,,,,,,,115.8194997999999,0.01949979999990603,None,154.42955839999922,154.42955839999922,154.42955839999922,154.42955839999922,154.42955839999922,154.42955839999922,154.42955839999922,154.42955839999922,,003,P021,2025_May_08_1255,CategoryLocalizer,2021.2.3,59.9440961359471,
116.0,116.8,1,0.75,Stimuli\ImageFiles-Set1\Objects\Object_Canoe_00001.png,0,0,0,186,186,186,,,,,,,,,,,,,116.01996020000115,0.01996020000115095,None,154.62972249999984,154.62972249999984,154.62972249999984,154.62972249999984,154.62972249999984,154.62972249999984,154.62972249999984,154.62972249999984,,003,P021,2025_May_08_1255,CategoryLocalizer,2021.2.3,59.9440961359471,
116.8,117.0,5,0.0,Stimuli\Blank.png,0,0,0,187,187,187,,,,,,,,,,,,,116.82069620000038,0.020696200000386966,None,155.43043749999924,155.43043749999924,155.43043749999924,155.43043749999924,155.43043749999924,155.43043749999924,155.43043749999924,155.43043749999924,,003,P021,2025_May_08_1255,CategoryLocalizer,2021.2.3,59.9440961359471,
117.0,117.8,1,0.75,Stimuli\ImageFiles-Set1\Objects\Object_Canoe_00001.png,1,1,0,188,188,188,,,,,,,,,,,,,117.02075950000108,0.020759500001076958,2,155.63062059999902,155.63062059999902,155.63062059999902,155.63062059999902,155.63062059999902,155.63062059999902,155.63062059999902,155.63062059999902,0.6800507999996626,003,P021,2025_May_08_1255,CategoryLocalizer,2021.2.3,59.9440961359471,
117.8,118.0,5,0.0,Stimuli\Blank.png,0,0,0,189,189,189,,,,,,,,,,,,,117.82003220000115,0.02003220000115391,None,156.41463939999994,156.41463939999994,156.41463939999994,156.41463939999994,156.41463939999994,156.41463939999994,156.41463939999994,156.41463939999994,,003,P021,2025_May_08_1255,CategoryLocalizer,2021.2.3,59.9440961359471,
118.0,118.8,1,0.75,Stimuli\ImageFiles-Set1\Objects\Object_Nightstand_00001.png,0,0,0,190,190,190,,,,,,,,,,,,,118.00584290000006,0.005842900000061491,None,156.61485159999938,156.61485159999938,156.61485159999938,156.61485159999938,156.61485159999938,156.61485159999938,156.61485159999938,156.61485159999938,,003,P021,2025_May_08_1255,CategoryLocalizer,2021.2.3,59.9440961359471,
118.8,119.0,5,0.0,Stimuli\Blank.png,0,0,0,191,191,191,,,,,,,,,,,,,118.82021900000109,0.020219000001091558,None,157.4155181999995,157.4155181999995,157.4155181999995,157.4155181999995,157.4155181999995,157.4155181999995,157.4155181999995,157.4155181999995,,003,P021,2025_May_08_1255,CategoryLocalizer,2021.2.3,59.9440961359471,
119.0,119.8,1,0.75,Stimuli\ImageFiles-Set1\Objects\Object_Recliner_00001.png,0,0,0,192,192,192,,,,,,,,,,,,,119.00527800000054,0.005278000000544125,None,157.61572009999873,157.61572009999873,157.61572009999873,157.61572009999873,157.61572009999873,157.61572009999873,157.61572009999873,157.61572009999873,,003,P021,2025_May_08_1255,CategoryLocalizer,2021.2.3,59.9440961359471,
119.8,120.0,5,0.0,Stimuli\Blank.png,0,0,0,193,193,193,,,,,,,,,,,,,119.82161480000104,0.02161480000104632,None,158.41639749999922,158.41639749999922,158.41639749999922,158.41639749999922,158.41639749999922,158.41639749999922,158.41639749999922,158.41639749999922,,003,P021,2025_May_08_1255,CategoryLocalizer,2021.2.3,59.9440961359471,
120.0,120.8,4,0.75,Stimuli\ImageFiles-Set1\Scenes\Scenes_022.png,0,0,0,194,194,194,,,,,,,,,,,,,120.00474329999997,0.004743299999972805,None,158.61660049999955,158.61660049999955,158.61660049999955,158.61660049999955,158.61660049999955,158.61660049999955,158.61660049999955,158.61660049999955,,003,P021,2025_May_08_1255,CategoryLocalizer,2021.2.3,59.9440961359471,
120.8,121.0,5,0.0,Stimuli\Blank.png,0,0,0,195,195,195,,,,,,,,,,,,,120.82180879999942,0.021808799999419648,None,159.4172996999987,159.4172996999987,159.4172996999987,159.4172996999987,159.4172996999987,159.4172996999987,159.4172996999987,159.4172996999987,,003,P021,2025_May_08_1255,CategoryLocalizer,2021.2.3,59.9440961359471,
121.0,121.8,4,0.75,Stimuli\ImageFiles-Set1\Scenes\Scenes_026.png,0,0,0,196,196,196,,,,,,,,,,,,,121.00498379999954,0.0049837999995361315,None,159.60077679999995,159.60077679999995,159.60077679999995,159.60077679999995,159.60077679999995,159.60077679999995,159.60077679999995,159.60077679999995,,003,P021,2025_May_08_1255,CategoryLocalizer,2021.2.3,59.9440961359471,
121.8,122.0,5,0.0,Stimuli\Blank.png,0,0,0,197,197,197,,,,,,,,,,,,,121.80645390000063,0.006453900000636281,None,160.40148699999918,160.40148699999918,160.40148699999918,160.40148699999918,160.40148699999918,160.40148699999918,160.40148699999918,160.40148699999918,,003,P021,2025_May_08_1255,CategoryLocalizer,2021.2.3,59.9440961359471,
122.0,122.8,4,0.75,Stimuli\ImageFiles-Set1\Scenes\Scenes_019.png,0,0,0,198,198,198,,,,,,,,,,,,,122.00675109999975,0.006751099999746657,None,160.61834999999883,160.61834999999883,160.61834999999883,160.61834999999883,160.61834999999883,160.61834999999883,160.61834999999883,160.61834999999883,,003,P021,2025_May_08_1255,CategoryLocalizer,2021.2.3,59.9440961359471,
122.8,123.0,5,0.0,Stimuli\Blank.png,0,0,0,199,199,199,,,,,,,,,,,,,122.82596300000114,0.025963000001141268,None,161.4357841000001,161.4357841000001,161.4357841000001,161.4357841000001,161.4357841000001,161.4357841000001,161.4357841000001,161.4357841000001,,003,P021,2025_May_08_1255,CategoryLocalizer,2021.2.3,59.9440961359471,
123.0,123.8,4,0.75,Stimuli\ImageFiles-Set1\Scenes\Scenes_019.png,1,1,0,200,200,200,,,,,,,,,,,,,123.02431480000087,0.024314800000865944,2,161.63591149999957,161.63591149999957,161.63591149999957,161.63591149999957,161.63591149999957,161.63591149999957,161.63591149999957,161.63591149999957,0.6108260999990307,003,P021,2025_May_08_1255,CategoryLocalizer,2021.2.3,59.9440961359471,
123.8,124.0,5,0.0,Stimuli\Blank.png,0,0,0,201,201,201,,,,,,,,,,,,,123.82423019999987,0.0242301999998773,None,162.41993649999858,162.41993649999858,162.41993649999858,162.41993649999858,162.41993649999858,162.41993649999858,162.41993649999858,162.41993649999858,,003,P021,2025_May_08_1255,CategoryLocalizer,2021.2.3,59.9440961359471,
124.0,124.8,4,0.75,Stimuli\ImageFiles-Set1\Scenes\Scenes_031.png,0,0,0,202,202,202,,,,,,,,,,,,,124.00847869999961,0.008478699999614037,None,162.60343189999912,162.60343189999912,162.60343189999912,162.60343189999912,162.60343189999912,162.60343189999912,162.60343189999912,162.60343189999912,,003,P021,2025_May_08_1255,CategoryLocalizer,2021.2.3,59.9440961359471,
124.8,125.0,5,0.0,Stimuli\Blank.png,0,0,0,203,203,203,,,,,,,,,,,,,124.81086119999964,0.010861199999638416,None,163.4208381999997,163.4208381999997,163.4208381999997,163.4208381999997,163.4208381999997,163.4208381999997,163.4208381999997,163.4208381999997,,003,P021,2025_May_08_1255,CategoryLocalizer,2021.2.3,59.9440961359471,
125.0,125.8,4,0.75,Stimuli\ImageFiles-Set1\Scenes\Scenes_009.png,0,0,0,204,204,204,,,,,,,,,,,,,125.02549340000041,0.025493400000414113,None,163.63767899999948,163.63767899999948,163.63767899999948,163.63767899999948,163.63767899999948,163.63767899999948,163.63767899999948,163.63767899999948,,003,P021,2025_May_08_1255,CategoryLocalizer,2021.2.3,59.9440961359471,
125.8,126.0,5,0.0,Stimuli\Blank.png,0,0,0,205,205,205,,,,,,,,,,,,,125.82595589999983,0.025955899999829057,None,164.4217134999999,164.4217134999999,164.4217134999999,164.4217134999999,164.4217134999999,164.4217134999999,164.4217134999999,164.4217134999999,,003,P021,2025_May_08_1255,CategoryLocalizer,2021.2.3,59.9440961359471,
126.0,126.8,4,0.75,Stimuli\ImageFiles-Set1\Scenes\Scenes_013.png,0,0,0,206,206,206,,,,,,,,,,,,,126.00936390000061,0.009363900000607828,None,164.60519439999916,164.60519439999916,164.60519439999916,164.60519439999916,164.60519439999916,164.60519439999916,164.60519439999916,164.60519439999916,,003,P021,2025_May_08_1255,CategoryLocalizer,2021.2.3,59.9440961359471,
126.8,127.0,5,0.0,Stimuli\Blank.png,0,0,0,207,207,207,,,,,,,,,,,,,126.81118760000027,0.011187600000269526,None,165.40591569999924,165.40591569999924,165.40591569999924,165.40591569999924,165.40591569999924,165.40591569999924,165.40591569999924,165.40591569999924,,003,P021,2025_May_08_1255,CategoryLocalizer,2021.2.3,59.9440961359471,
127.0,127.8,4,0.75,Stimuli\ImageFiles-Set1\Scenes\Scenes_025.png,0,0,0,208,208,208,,,,,,,,,,,,,127.0113835000011,0.01138350000110222,None,165.62277299999914,165.62277299999914,165.62277299999914,165.62277299999914,165.62277299999914,165.62277299999914,165.62277299999914,165.62277299999914,,003,P021,2025_May_08_1255,CategoryLocalizer,2021.2.3,59.9440961359471,
127.8,128.0,5,0.0,Stimuli\Blank.png,0,0,0,209,209,209,,,,,,,,,,,,,127.82927000000018,0.02927000000018154,None,166.42348159999892,166.42348159999892,166.42348159999892,166.42348159999892,166.42348159999892,166.42348159999892,166.42348159999892,166.42348159999892,,003,P021,2025_May_08_1255,CategoryLocalizer,2021.2.3,59.9440961359471,
128.0,128.8,4,0.75,Stimuli\ImageFiles-Set1\Scenes\Scenes_034.png,0,0,0,210,210,210,,,,,,,,,,,,,128.01211160000094,0.012111600000935141,None,166.60697319999963,166.60697319999963,166.60697319999963,166.60697319999963,166.60697319999963,166.60697319999963,166.60697319999963,166.60697319999963,,003,P021,2025_May_08_1255,CategoryLocalizer,2021.2.3,59.9440961359471,
128.8,129.0,5,0.0,Stimuli\Blank.png,0,0,0,211,211,211,,,,,,,,,,,,,128.81264300000112,0.01264300000110552,None,167.40768729999945,167.40768729999945,167.40768729999945,167.40768729999945,167.40768729999945,167.40768729999945,167.40768729999945,167.40768729999945,,003,P021,2025_May_08_1255,CategoryLocalizer,2021.2.3,59.9440961359471,
129.0,129.8,4,0.75,Stimuli\ImageFiles-Set1\Scenes\Scenes_020.png,0,0,0,212,212,212,,,,,,,,,,,,,129.01284579999992,0.012845799999922747,None,167.62454689999868,167.62454689999868,167.62454689999868,167.62454689999868,167.62454689999868,167.62454689999868,167.62454689999868,167.62454689999868,,003,P021,2025_May_08_1255,CategoryLocalizer,2021.2.3,59.9440961359471,
129.8,130.0,5,0.0,Stimuli\Blank.png,0,0,0,213,213,213,,,,,,,,,,,,,129.8307291000001,0.030729100000087328,None,168.42525569999998,168.42525569999998,168.42525569999998,168.42525569999998,168.42525569999998,168.42525569999998,168.42525569999998,168.42525569999998,,003,P021,2025_May_08_1255,CategoryLocalizer,2021.2.3,59.9440961359471,
130.0,130.8,4,0.75,Stimuli\ImageFiles-Set1\Scenes\Scenes_029.png,0,0,0,214,214,214,,,,,,,,,,,,,130.01345410000067,0.013454100000672042,None,168.60874589999912,168.60874589999912,168.60874589999912,168.60874589999912,168.60874589999912,168.60874589999912,168.60874589999912,168.60874589999912,,003,P021,2025_May_08_1255,CategoryLocalizer,2021.2.3,59.9440961359471,
130.8,131.0,5,0.0,Stimuli\Blank.png,0,0,0,215,215,215,,,,,,,,,,,,,130.81443489999947,0.014434899999457684,None,169.40946489999988,169.40946489999988,169.40946489999988,169.40946489999988,169.40946489999988,169.40946489999988,169.40946489999988,169.40946489999988,,003,P021,2025_May_08_1255,CategoryLocalizer,2021.2.3,59.9440961359471,
131.0,131.8,4,0.75,Stimuli\ImageFiles-Set1\Scenes\Scenes_038.png,0,0,0,216,216,216,,,,,,,,,,,,,131.0145881999997,0.014588199999707285,None,169.62630929999978,169.62630929999978,169.62630929999978,169.62630929999978,169.62630929999978,169.62630929999978,169.62630929999978,169.62630929999978,,003,P021,2025_May_08_1255,CategoryLocalizer,2021.2.3,59.9440961359471,
131.8,132.0,5,0.0,Stimuli\Blank.png,0,0,0,217,217,217,,,,,,,,,,,,,131.8320971000012,0.032097100001180934,None,170.42701339999985,170.42701339999985,170.42701339999985,170.42701339999985,170.42701339999985,170.42701339999985,170.42701339999985,170.42701339999985,,003,P021,2025_May_08_1255,CategoryLocalizer,2021.2.3,59.9440961359471,
132.0,132.8,4,0.75,Stimuli\ImageFiles-Set1\Scenes\Scenes_051.png,0,0,0,218,218,218,,,,,,,,,,,,,132.01545369999985,0.015453699999852688,None,170.62719169999946,170.62719169999946,170.62719169999946,170.62719169999946,170.62719169999946,170.62719169999946,170.62719169999946,170.62719169999946,,003,P021,2025_May_08_1255,CategoryLocalizer,2021.2.3,59.9440961359471,
132.8,133.0,5,0.0,Stimuli\Blank.png,0,0,0,219,219,219,,,,,,,,,,,,,132.8155845000001,0.015584500000102253,None,171.41121489999932,171.41121489999932,171.41121489999932,171.41121489999932,171.41121489999932,171.41121489999932,171.41121489999932,171.41121489999932,,003,P021,2025_May_08_1255,CategoryLocalizer,2021.2.3,59.9440961359471,
133.0,133.8,4,0.75,Stimuli\ImageFiles-Set1\Scenes\Scenes_057.png,0,0,0,220,220,220,,,,,,,,,,,,,132.99957750000067,-0.000422499999331194,None,171.62810119999995,171.62810119999995,171.62810119999995,171.62810119999995,171.62810119999995,171.62810119999995,171.62810119999995,171.62810119999995,,003,P021,2025_May_08_1255,CategoryLocalizer,2021.2.3,59.9440961359471,
133.8,134.0,5,0.0,Stimuli\Blank.png,0,0,0,221,221,221,,,,,,,,,,,,,133.83483870000055,0.03483870000053457,None,172.44549089999964,172.44549089999964,172.44549089999964,172.44549089999964,172.44549089999964,172.44549089999964,172.44549089999964,172.44549089999964,,003,P021,2025_May_08_1255,CategoryLocalizer,2021.2.3,59.9440961359471,
134.0,134.8,4,0.75,Stimuli\ImageFiles-Set1\Scenes\Scenes_056.png,0,0,0,222,222,222,,,,,,,,,,,,,134.0165565999996,0.01655659999960335,None,172.6122824999984,172.6122824999984,172.6122824999984,172.6122824999984,172.6122824999984,172.6122824999984,172.6122824999984,172.6122824999984,,003,P021,2025_May_08_1255,CategoryLocalizer,2021.2.3,59.9440961359471,
134.8,135.0,5,0.0,Stimuli\Blank.png,0,0,0,223,223,223,,,,,,,,,,,,,134.80052400000022,0.0005240000002117995,None,173.3963101999998,173.3963101999998,173.3963101999998,173.3963101999998,173.3963101999998,173.3963101999998,173.3963101999998,173.3963101999998,,003,P021,2025_May_08_1255,CategoryLocalizer,2021.2.3,59.9440961359471,
135.0,135.8,4,0.75,Stimuli\ImageFiles-Set1\Scenes\Scenes_016.png,0,0,0,224,224,224,,,,,,,,,,,,,135.00150550000035,0.0015055000003485475,None,173.5964815999996,173.5964815999996,173.5964815999996,173.5964815999996,173.5964815999996,173.5964815999996,173.5964815999996,173.5964815999996,,003,P021,2025_May_08_1255,CategoryLocalizer,2021.2.3,59.9440961359471,
135.8,136.0,5,0.0,Stimuli\Blank.png,0,0,0,225,225,225,,,,,,,,,,,,,135.80230160000065,0.0023016000006350623,None,174.3971948999988,174.3971948999988,174.3971948999988,174.3971948999988,174.3971948999988,174.3971948999988,174.3971948999988,174.3971948999988,,003,P021,2025_May_08_1255,CategoryLocalizer,2021.2.3,59.9440961359471,
136.0,136.8,2,0.75,Stimuli\ImageFiles-Set1\Bodies\Bodies_Pushing_00005.png,0,0,0,226,226,226,,,,,,,,,,,,,136.00159730000087,0.0015973000008671079,None,174.59736779999912,174.59736779999912,174.59736779999912,174.59736779999912,174.59736779999912,174.59736779999912,174.59736779999912,174.59736779999912,,003,P021,2025_May_08_1255,CategoryLocalizer,2021.2.3,59.9440961359471,
136.8,137.0,5,0.0,Stimuli\Blank.png,0,0,0,227,227,227,,,,,,,,,,,,,136.80573750000076,0.005737500000748241,None,175.4147727999989,175.4147727999989,175.4147727999989,175.4147727999989,175.4147727999989,175.4147727999989,175.4147727999989,175.4147727999989,,003,P021,2025_May_08_1255,CategoryLocalizer,2021.2.3,59.9440961359471,
137.0,137.8,2,0.75,Stimuli\ImageFiles-Set1\Bodies\Bodies_Standing_00003.png,0,0,0,228,228,228,,,,,,,,,,,,,137.02042860000074,0.020428600000741426,None,175.6149510999985,175.6149510999985,175.6149510999985,175.6149510999985,175.6149510999985,175.6149510999985,175.6149510999985,175.6149510999985,,003,P021,2025_May_08_1255,CategoryLocalizer,2021.2.3,59.9440961359471,
137.8,138.0,5,0.0,Stimuli\Blank.png,0,0,0,229,229,229,,,,,,,,,,,,,137.80575230000068,0.0057523000006654,None,176.4156650999994,176.4156650999994,176.4156650999994,176.4156650999994,176.4156650999994,176.4156650999994,176.4156650999994,176.4156650999994,,003,P021,2025_May_08_1255,CategoryLocalizer,2021.2.3,59.9440961359471,
138.0,138.8,2,0.75,Stimuli\ImageFiles-Set1\Bodies\Bodies_PushUp_00004.png,0,0,0,230,230,230,,,,,,,,,,,,,138.0200390000009,0.020039000000906526,None,176.61582839999937,176.61582839999937,176.61582839999937,176.61582839999937,176.61582839999937,176.61582839999937,176.61582839999937,176.61582839999937,,003,P021,2025_May_08_1255,CategoryLocalizer,2021.2.3,59.9440961359471,
138.8,139.0,5,0.0,Stimuli\Blank.png,0,0,0,231,231,231,,,,,,,,,,,,,138.80538530000013,0.005385300000114057,None,177.39986589999899,177.39986589999899,177.39986589999899,177.39986589999899,177.39986589999899,177.39986589999899,177.39986589999899,177.39986589999899,,003,P021,2025_May_08_1255,CategoryLocalizer,2021.2.3,59.9440961359471,
139.0,139.8,2,0.75,Stimuli\ImageFiles-Set1\Bodies\Bodies_Waving_00007.png,0,0,0,232,232,232,,,,,,,,,,,,,139.00429629999962,0.004296299999623443,None,177.60001179999927,177.60001179999927,177.60001179999927,177.60001179999927,177.60001179999927,177.60001179999927,177.60001179999927,177.60001179999927,,003,P021,2025_May_08_1255,CategoryLocalizer,2021.2.3,59.9440961359471,
139.8,140.0,5,0.0,Stimuli\Blank.png,0,0,0,233,233,233,,,,,,,,,,,,,139.80560700000024,0.005607000000225071,None,178.40073669999947,178.40073669999947,178.40073669999947,178.40073669999947,178.40073669999947,178.40073669999947,178.40073669999947,178.40073669999947,,003,P021,2025_May_08_1255,CategoryLocalizer,2021.2.3,59.9440961359471,
140.0,140.8,2,0.75,Stimuli\ImageFiles-Set1\Bodies\Bodies_Waving_00007.png,1,1,0,234,234,234,,,,,,,,,,,,,140.00623219999943,0.006232199999431032,2,178.60090089999903,178.60090089999903,178.60090089999903,178.60090089999903,178.60090089999903,178.60090089999903,178.60090089999903,178.60090089999903,0.443798299998889,003,P021,2025_May_08_1255,CategoryLocalizer,2021.2.3,59.9440961359471,
140.8,141.0,5,0.0,Stimuli\Blank.png,0,0,0,235,235,235,,,,,,,,,,,,,140.80589800000052,0.005898000000513548,None,179.40161549999902,179.40161549999902,179.40161549999902,179.40161549999902,179.40161549999902,179.40161549999902,179.40161549999902,179.40161549999902,,003,P021,2025_May_08_1255,CategoryLocalizer,2021.2.3,59.9440961359471,
141.0,141.8,2,0.75,Stimuli\ImageFiles-Set1\Bodies\Bodies_DownwardDog_00006.png,0,0,0,236,236,236,,,,,,,,,,,,,141.0067094999995,0.006709499999487889,None,179.6185263999996,179.6185263999996,179.6185263999996,179.6185263999996,179.6185263999996,179.6185263999996,179.6185263999996,179.6185263999996,,003,P021,2025_May_08_1255,CategoryLocalizer,2021.2.3,59.9440961359471,
141.8,142.0,5,0.0,Stimuli\Blank.png,0,0,0,237,237,237,,,,,,,,,,,,,141.82451489999949,0.024514899999473982,None,180.41919659999985,180.41919659999985,180.41919659999985,180.41919659999985,180.41919659999985,180.41919659999985,180.41919659999985,180.41919659999985,,003,P021,2025_May_08_1255,CategoryLocalizer,2021.2.3,59.9440961359471,
142.0,142.8,2,0.75,Stimuli\ImageFiles-Set1\Bodies\Bodies_Standing_00007.png,0,0,0,238,238,238,,,,,,,,,,,,,142.00829460000023,0.008294600000226637,None,180.6026800999989,180.6026800999989,180.6026800999989,180.6026800999989,180.6026800999989,180.6026800999989,180.6026800999989,180.6026800999989,,003,P021,2025_May_08_1255,CategoryLocalizer,2021.2.3,59.9440961359471,
142.8,143.0,5,0.0,Stimuli\Blank.png,0,0,0,239,239,239,,,,,,,,,,,,,142.80967559999954,0.009675599999525275,None,181.42003509999995,181.42003509999995,181.42003509999995,181.42003509999995,181.42003509999995,181.42003509999995,181.42003509999995,181.42003509999995,,003,P021,2025_May_08_1255,CategoryLocalizer,2021.2.3,59.9440961359471,
143.0,143.8,2,0.75,Stimuli\ImageFiles-Set1\Bodies\Bodies_Kicking_00003.png,0,0,0,240,240,240,,,,,,,,,,,,,143.02502749999985,0.02502749999985099,None,181.63695039999948,181.63695039999948,181.63695039999948,181.63695039999948,181.63695039999948,181.63695039999948,181.63695039999948,181.63695039999948,,003,P021,2025_May_08_1255,CategoryLocalizer,2021.2.3,59.9440961359471,
143.8,144.0,5,0.0,Stimuli\Blank.png,0,0,0,241,241,241,,,,,,,,,,,,,143.82583580000028,0.025835800000265863,None,182.42094999999972,182.42094999999972,182.42094999999972,182.42094999999972,182.42094999999972,182.42094999999972,182.42094999999972,182.42094999999972,,003,P021,2025_May_08_1255,CategoryLocalizer,2021.2.3,59.9440961359471,
144.0,144.8,2,0.75,Stimuli\ImageFiles-Set1\Bodies\Bodies_CobraPose_00001.png,0,0,0,242,242,242,,,,,,,,,,,,,144.00936270000057,0.009362700000565383,None,182.60445359999903,182.60445359999903,182.60445359999903,182.60445359999903,182.60445359999903,182.60445359999903,182.60445359999903,182.60445359999903,,003,P021,2025_May_08_1255,CategoryLocalizer,2021.2.3,59.9440961359471,
144.8,145.0,5,0.0,Stimuli\Blank.png,0,0,0,243,243,243,,,,,,,,,,,,,144.80950160000066,0.009501600000646704,None,183.40516070000012,183.40516070000012,183.40516070000012,183.40516070000012,183.40516070000012,183.40516070000012,183.40516070000012,183.40516070000012,,003,P021,2025_May_08_1255,CategoryLocalizer,2021.2.3,59.9440961359471,
145.0,145.8,2,0.75,Stimuli\ImageFiles-Set1\Bodies\Bodies_Kicking_00005.png,0,0,0,244,244,244,,,,,,,,,,,,,145.0107793999996,0.010779399999591988,None,183.62201279999863,183.62201279999863,183.62201279999863,183.62201279999863,183.62201279999863,183.62201279999863,183.62201279999863,183.62201279999863,,003,P021,2025_May_08_1255,CategoryLocalizer,2021.2.3,59.9440961359471,
145.8,146.0,5,0.0,Stimuli\Blank.png,0,0,0,245,245,245,,,,,,,,,,,,,145.82696829999986,0.026968299999850842,None,184.42271099999925,184.42271099999925,184.42271099999925,184.42271099999925,184.42271099999925,184.42271099999925,184.42271099999925,184.42271099999925,,003,P021,2025_May_08_1255,CategoryLocalizer,2021.2.3,59.9440961359471,
146.0,146.8,2,0.75,Stimuli\ImageFiles-Set1\Bodies\Bodies_Lunging_00001.png,0,0,0,246,246,246,,,,,,,,,,,,,146.0104666999996,0.01046669999959704,None,184.62293399999908,184.62293399999908,184.62293399999908,184.62293399999908,184.62293399999908,184.62293399999908,184.62293399999908,184.62293399999908,,003,P021,2025_May_08_1255,CategoryLocalizer,2021.2.3,59.9440961359471,
146.8,147.0,5,0.0,Stimuli\Blank.png,0,0,0,247,247,247,,,,,,,,,,,,,146.8297874,0.02978739999997515,None,185.44029779999983,185.44029779999983,185.44029779999983,185.44029779999983,185.44029779999983,185.44029779999983,185.44029779999983,185.44029779999983,,003,P021,2025_May_08_1255,CategoryLocalizer,2021.2.3,59.9440961359471,
147.0,147.8,2,0.75,Stimuli\ImageFiles-Set1\Bodies\Bodies_QuadStretch_00005.png,0,0,0,248,248,248,,,,,,,,,,,,,147.0299242000001,0.02992420000009588,None,185.64046619999863,185.64046619999863,185.64046619999863,185.64046619999863,185.64046619999863,185.64046619999863,185.64046619999863,185.64046619999863,,003,P021,2025_May_08_1255,CategoryLocalizer,2021.2.3,59.9440961359471,
147.8,148.0,5,0.0,Stimuli\Blank.png,0,0,0,249,249,249,,,,,,,,,,,,,147.82962129999942,0.029621299999405437,None,186.4245168999987,186.4245168999987,186.4245168999987,186.4245168999987,186.4245168999987,186.4245168999987,186.4245168999987,186.4245168999987,,003,P021,2025_May_08_1255,CategoryLocalizer,2021.2.3,59.9440961359471,
148.0,148.8,2,0.75,Stimuli\ImageFiles-Set1\Bodies\Bodies_DownwardDog_00007.png,0,0,0,250,250,250,,,,,,,,,,,,,148.0146151000008,0.014615100000810344,None,186.62467259999903,186.62467259999903,186.62467259999903,186.62467259999903,186.62467259999903,186.62467259999903,186.62467259999903,186.62467259999903,,003,P021,2025_May_08_1255,CategoryLocalizer,2021.2.3,59.9440961359471,
148.8,149.0,5,0.0,Stimuli\Blank.png,0,0,0,251,251,251,,,,,,,,,,,,,148.83154409999952,0.03154409999950758,None,187.44208230000004,187.44208230000004,187.44208230000004,187.44208230000004,187.44208230000004,187.44208230000004,187.44208230000004,187.44208230000004,,003,P021,2025_May_08_1255,CategoryLocalizer,2021.2.3,59.9440961359471,
149.0,149.8,2,0.75,Stimuli\ImageFiles-Set1\Bodies\Bodies_Punching_00006.png,0,0,0,252,252,252,,,,,,,,,,,,,149.03041020000092,0.03041020000091521,None,187.64223599999968,187.64223599999968,187.64223599999968,187.64223599999968,187.64223599999968,187.64223599999968,187.64223599999968,187.64223599999968,,003,P021,2025_May_08_1255,CategoryLocalizer,2021.2.3,59.9440961359471,
149.8,150.0,5,0.0,Stimuli\Blank.png,0,0,0,253,253,253,,,,,,,,,,,,,149.8312829000006,0.03128290000057632,None,188.42625829999997,188.42625829999997,188.42625829999997,188.42625829999997,188.42625829999997,188.42625829999997,188.42625829999997,188.42625829999997,,003,P021,2025_May_08_1255,CategoryLocalizer,2021.2.3,59.9440961359471,
150.0,150.8,2,0.75,Stimuli\ImageFiles-Set1\Bodies\Bodies_Kneeling_00005.png,0,0,0,254,254,254,,,,,,,,,,,,,150.01416729999983,0.014167299999826355,None,188.60979059999954,188.60979059999954,188.60979059999954,188.60979059999954,188.60979059999954,188.60979059999954,188.60979059999954,188.60979059999954,,003,P021,2025_May_08_1255,CategoryLocalizer,2021.2.3,59.9440961359471,
150.8,151.0,5,0.0,Stimuli\Blank.png,0,0,0,255,255,255,,,,,,,,,,,,,150.8147116,0.01471159999999827,None,189.4104609999995,189.4104609999995,189.4104609999995,189.4104609999995,189.4104609999995,189.4104609999995,189.4104609999995,189.4104609999995,,003,P021,2025_May_08_1255,CategoryLocalizer,2021.2.3,59.9440961359471,
151.0,151.8,2,0.75,Stimuli\ImageFiles-Set1\Bodies\Bodies_Crawling_00001.png,0,0,0,256,256,256,,,,,,,,,,,,,151.01549820000037,0.015498200000365614,None,189.6106338999998,189.6106338999998,189.6106338999998,189.6106338999998,189.6106338999998,189.6106338999998,189.6106338999998,189.6106338999998,,003,P021,2025_May_08_1255,CategoryLocalizer,2021.2.3,59.9440961359471,
151.8,152.0,5,0.0,Stimuli\Blank.png,0,0,0,257,257,257,,,,,,,,,,,,,151.79895960000067,-0.0010403999993400248,None,190.39466529999845,190.39466529999845,190.39466529999845,190.39466529999845,190.39466529999845,190.39466529999845,190.39466529999845,190.39466529999845,,003,P021,2025_May_08_1255,CategoryLocalizer,2021.2.3,59.9440961359471,
152.0,164.0,0,0.0,Stimuli\Blank.png,0,0,0,258,258,258,,,,,,,,,,,,,151.99950910000007,-0.0004908999999315711,None,190.59483999999975,190.59483999999975,190.59483999999975,190.59483999999975,190.59483999999975,190.59483999999975,190.59483999999975,190.59483999999975,,003,P021,2025_May_08_1255,CategoryLocalizer,2021.2.3,59.9440961359471,
164.0,164.8,4,0.75,Stimuli\ImageFiles-Set1\Scenes\Scenes_023.png,0,0,0,259,259,259,,,,,,,,,,,,,164.01043190000019,0.010431900000185124,None,202.6221379999988,202.6221379999988,202.6221379999988,202.6221379999988,202.6221379999988,202.6221379999988,202.6221379999988,202.6221379999988,,003,P021,2025_May_08_1255,CategoryLocalizer,2021.2.3,59.9440961359471,
164.8,165.0,5,0.0,Stimuli\Blank.png,0,0,0,260,260,260,,,,,,,,,,,,,164.83002880000095,0.030028800000934552,None,203.4395597999992,203.4395597999992,203.4395597999992,203.4395597999992,203.4395597999992,203.4395597999992,203.4395597999992,203.4395597999992,,003,P021,2025_May_08_1255,CategoryLocalizer,2021.2.3,59.9440961359471,
165.0,165.8,4,0.75,Stimuli\ImageFiles-Set1\Scenes\Scenes_023.png,1,1,0,261,261,261,,,,,,,,,,,,,165.02743010000086,0.027430100000856328,None,203.62302709999858,203.62302709999858,203.62302709999858,203.62302709999858,203.62302709999858,203.62302709999858,203.62302709999858,203.62302709999858,,003,P021,2025_May_08_1255,CategoryLocalizer,2021.2.3,59.9440961359471,
165.8,166.0,5,0.0,Stimuli\Blank.png,0,0,0,262,262,262,,,,,,,,,,,,,165.81206490000113,0.01206490000112126,None,204.4070585999998,204.4070585999998,204.4070585999998,204.4070585999998,204.4070585999998,204.4070585999998,204.4070585999998,204.4070585999998,,003,P021,2025_May_08_1255,CategoryLocalizer,2021.2.3,59.9440961359471,
166.0,166.8,4,0.75,Stimuli\ImageFiles-Set1\Scenes\Scenes_046.png,0,0,0,263,263,263,,,,,,,,,,,,,166.01154359999964,0.011543599999640719,2,204.60723549999966,204.60723549999966,204.60723549999966,204.60723549999966,204.60723549999966,204.60723549999966,204.60723549999966,204.60723549999966,0.16053219999957946,003,P021,2025_May_08_1255,CategoryLocalizer,2021.2.3,59.9440961359471,
166.8,167.0,5,0.0,Stimuli\Blank.png,0,0,0,264,264,264,,,,,,,,,,,,,166.81236270000045,0.012362700000437599,None,205.40793689999919,205.40793689999919,205.40793689999919,205.40793689999919,205.40793689999919,205.40793689999919,205.40793689999919,205.40793689999919,,003,P021,2025_May_08_1255,CategoryLocalizer,2021.2.3,59.9440961359471,
167.0,167.8,4,0.75,Stimuli\ImageFiles-Set1\Scenes\Scenes_043.png,0,0,0,265,265,265,,,,,,,,,,,,,167.01372579999952,0.01372579999951995,None,205.62480629999845,205.62480629999845,205.62480629999845,205.62480629999845,205.62480629999845,205.62480629999845,205.62480629999845,205.62480629999845,,003,P021,2025_May_08_1255,CategoryLocalizer,2021.2.3,59.9440961359471,
167.8,168.0,5,0.0,Stimuli\Blank.png,0,0,0,266,266,266,,,,,,,,,,,,,167.8304423999998,0.030442399999799363,None,206.4255123999992,206.4255123999992,206.4255123999992,206.4255123999992,206.4255123999992,206.4255123999992,206.4255123999992,206.4255123999992,,003,P021,2025_May_08_1255,CategoryLocalizer,2021.2.3,59.9440961359471,
168.0,168.8,4,0.75,Stimuli\ImageFiles-Set1\Scenes\Scenes_014.png,0,0,0,267,267,267,,,,,,,,,,,,,168.01570390000052,0.015703900000517024,None,206.62568389999979,206.62568389999979,206.62568389999979,206.62568389999979,206.62568389999979,206.62568389999979,206.62568389999979,206.62568389999979,,003,P021,2025_May_08_1255,CategoryLocalizer,2021.2.3,59.9440961359471,
168.8,169.0,5,0.0,Stimuli\Blank.png,0,0,0,268,268,268,,,,,,,,,,,,,168.81524650000028,0.0152465000002735,None,207.40971419999914,207.40971419999914,207.40971419999914,207.40971419999914,207.40971419999914,207.40971419999914,207.40971419999914,207.40971419999914,,003,P021,2025_May_08_1255,CategoryLocalizer,2021.2.3,59.9440961359471,
169.0,169.8,4,0.75,Stimuli\ImageFiles-Set1\Scenes\Scenes_049.png,0,0,0,269,269,269,,,,,,,,,,,,,169.01428289999967,0.014282899999670917,None,207.62653499999942,207.62653499999942,207.62653499999942,207.62653499999942,207.62653499999942,207.62653499999942,207.62653499999942,207.62653499999942,,003,P021,2025_May_08_1255,CategoryLocalizer,2021.2.3,59.9440961359471,
169.8,170.0,5,0.0,Stimuli\Blank.png,0,0,0,270,270,270,,,,,,,,,,,,,169.8320764,0.03207639999999401,None,208.4272646999998,208.4272646999998,208.4272646999998,208.4272646999998,208.4272646999998,208.4272646999998,208.4272646999998,208.4272646999998,,003,P021,2025_May_08_1255,CategoryLocalizer,2021.2.3,59.9440961359471,
170.0,170.8,4,0.75,Stimuli\ImageFiles-Set1\Scenes\Scenes_039.png,0,0,0,271,271,271,,,,,,,,,,,,,170.01583519999986,0.01583519999985583,None,208.62745099999847,208.62745099999847,208.62745099999847,208.62745099999847,208.62745099999847,208.62745099999847,208.62745099999847,208.62745099999847,,003,P021,2025_May_08_1255,CategoryLocalizer,2021.2.3,59.9440961359471,
170.8,171.0,5,0.0,Stimuli\Blank.png,0,0,0,272,272,272,,,,,,,,,,,,,170.8157809000004,0.01578090000037946,None,209.4115015999996,209.4115015999996,209.4115015999996,209.4115015999996,209.4115015999996,209.4115015999996,209.4115015999996,209.4115015999996,,003,P021,2025_May_08_1255,CategoryLocalizer,2021.2.3,59.9440961359471,
171.0,171.8,4,0.75,Stimuli\ImageFiles-Set1\Scenes\Scenes_035.png,0,0,0,273,273,273,,,,,,,,,,,,,170.99944630000027,-0.0005536999997275416,None,209.61164999999892,209.61164999999892,209.61164999999892,209.61164999999892,209.61164999999892,209.61164999999892,209.61164999999892,209.61164999999892,,003,P021,2025_May_08_1255,CategoryLocalizer,2021.2.3,59.9440961359471,
171.8,172.0,5,0.0,Stimuli\Blank.png,0,0,0,274,274,274,,,,,,,,,,,,,171.8166108000005,0.01661080000047832,None,210.41235909999887,210.41235909999887,210.41235909999887,210.41235909999887,210.41235909999887,210.41235909999887,210.41235909999887,210.41235909999887,,003,P021,2025_May_08_1255,CategoryLocalizer,2021.2.3,59.9440961359471,
172.0,172.8,4,0.75,Stimuli\ImageFiles-Set1\Scenes\Scenes_002.png,0,0,0,275,275,275,,,,,,,,,,,,,172.00026389999948,0.00026389999948150944,None,210.6125639999991,210.6125639999991,210.6125639999991,210.6125639999991,210.6125639999991,210.6125639999991,210.6125639999991,210.6125639999991,,003,P021,2025_May_08_1255,CategoryLocalizer,2021.2.3,59.9440961359471,
172.8,173.0,5,0.0,Stimuli\Blank.png,0,0,0,276,276,276,,,,,,,,,,,,,172.81955290000042,0.01955290000040577,None,211.42995029999838,211.42995029999838,211.42995029999838,211.42995029999838,211.42995029999838,211.42995029999838,211.42995029999838,211.42995029999838,,003,P021,2025_May_08_1255,CategoryLocalizer,2021.2.3,59.9440961359471,
173.0,173.8,4,0.75,Stimuli\ImageFiles-Set1\Scenes\Scenes_011.png,0,0,0,277,277,277,,,,,,,,,,,,,173.01910400000088,0.01910400000087975,None,211.6301072999995,211.6301072999995,211.6301072999995,211.6301072999995,211.6301072999995,211.6301072999995,211.6301072999995,211.6301072999995,,003,P021,2025_May_08_1255,CategoryLocalizer,2021.2.3,59.9440961359471,
173.8,174.0,5,0.0,Stimuli\Blank.png,0,0,0,278,278,278,,,,,,,,,,,,,173.81848170000012,0.018481700000108958,None,212.41419899999892,212.41419899999892,212.41419899999892,212.41419899999892,212.41419899999892,212.41419899999892,212.41419899999892,212.41419899999892,,003,P021,2025_May_08_1255,CategoryLocalizer,2021.2.3,59.9440961359471,
174.0,174.8,4,0.75,Stimuli\ImageFiles-Set1\Scenes\Scenes_018.png,0,0,0,279,279,279,,,,,,,,,,,,,174.00178830000004,0.0017883000000438187,None,212.5976241999997,212.5976241999997,212.5976241999997,212.5976241999997,212.5976241999997,212.5976241999997,212.5976241999997,212.5976241999997,,003,P021,2025_May_08_1255,CategoryLocalizer,2021.2.3,59.9440961359471,
174.8,175.0,5,0.0,Stimuli\Blank.png,0,0,0,280,280,280,,,,,,,,,,,,,174.80485190000036,0.004851900000346632,None,213.41503469999952,213.41503469999952,213.41503469999952,213.41503469999952,213.41503469999952,213.41503469999952,213.41503469999952,213.41503469999952,,003,P021,2025_May_08_1255,CategoryLocalizer,2021.2.3,59.9440961359471,
175.0,175.8,4,0.75,Stimuli\ImageFiles-Set1\Scenes\Scenes_024.png,0,0,0,281,281,281,,,,,,,,,,,,,175.02023820000068,0.020238200000676443,None,213.6318881999996,213.6318881999996,213.6318881999996,213.6318881999996,213.6318881999996,213.6318881999996,213.6318881999996,213.6318881999996,,003,P021,2025_May_08_1255,CategoryLocalizer,2021.2.3,59.9440961359471,
175.8,176.0,5,0.0,Stimuli\Blank.png,0,0,0,282,282,282,,,,,,,,,,,,,175.82035780000115,0.020357800001136184,None,214.41614200000004,214.41614200000004,214.41614200000004,214.41614200000004,214.41614200000004,214.41614200000004,214.41614200000004,214.41614200000004,,003,P021,2025_May_08_1255,CategoryLocalizer,2021.2.3,59.9440961359471,
176.0,176.8,4,0.75,Stimuli\ImageFiles-Set1\Scenes\Scenes_052.png,1,1,0,283,283,283,,,,,,,,,,,,,176.00381580000067,0.0038158000006660586,None,214.59944989999894,214.59944989999894,214.59944989999894,214.59944989999894,214.59944989999894,214.59944989999894,214.59944989999894,214.59944989999894,,003,P021,2025_May_08_1255,CategoryLocalizer,2021.2.3,59.9440961359471,
176.8,177.0,5,0.0,Stimuli\Blank.png,0,0,0,284,284,284,,,,,,,,,,,,,176.80539359999966,0.005393599999649723,None,215.40011119999872,215.40011119999872,215.40011119999872,215.40011119999872,215.40011119999872,215.40011119999872,215.40011119999872,215.40011119999872,,003,P021,2025_May_08_1255,CategoryLocalizer,2021.2.3,59.9440961359471,
177.0,177.8,4,0.75,Stimuli\ImageFiles-Set1\Scenes\Scenes_050.png,0,0,0,285,285,285,,,,,,,,,,,,,177.0054350999999,0.005435099999886006,None,215.61718010000004,215.61718010000004,215.61718010000004,215.61718010000004,215.61718010000004,215.61718010000004,215.61718010000004,215.61718010000004,,003,P021,2025_May_08_1255,CategoryLocalizer,2021.2.3,59.9440961359471,
