eventStartTime,eventEndTime,eventCond,imSize,imFile,repeatedImage,responseEvent,Events.thisRepN,Events.thisTrialN,Events.thisN,Events.thisIndex,Instructions.started,Instructions.stopped,participantReadyResponse.keys,participantReadyResponse.rt,participantReadyResponse.started,participantReadyResponse.stopped,startWaitforTrigger,triggerResponse.keys,triggerResponse.rt,triggerResponse.started,triggerResponse.stopped,globalTimer,actualStartTime,startTimingDiff,participantResponse.keys,participantResponse.started,participantResponse.stopped,image.started,image.stopped,fixationOutside.started,fixationOutside.stopped,fixationInside.started,fixationInside.stopped,participantResponse.rt,session,participant,date,expName,psychopyVersion,frameRate,
,,,,,,,,,,,13.64358209999773,None,1,7.301741600000241,13.64358209999773,None,,,,,,,,,,,,,,,,,,,003,P022,2025_May_13_1817,CategoryLocalizer,2021.2.3,59.9428025783916,
,,,,,,,,,,,,,,,,,20.949662400002126,5,14.170828200003598,20.962738499998522,None,,,,,,,,,,,,,,003,P022,2025_May_13_1817,CategoryLocalizer,2021.2.3,59.9428025783916,
0.0,12.0,0,0.0,Stimuli\Blank.png,0,0,0,0,0,0,,,,,,,,,,,,35.145734199999424,0.04545900000084657,0.04545900000084657,None,35.208488500000385,None,35.208488500000385,None,35.208488500000385,None,35.208488500000385,None,,003,P022,2025_May_13_1817,CategoryLocalizer,2021.2.3,59.9428025783916,
12.0,12.8,1,0.75,Stimuli\ImageFiles-Set1\Objects\Object_Pipe_00001.png,0,0,0,1,1,1,,,,,,,,,,,,,12.009642400000303,0.009642400000302587,None,47.16905810000026,47.16905810000026,47.16905810000026,47.16905810000026,47.16905810000026,47.16905810000026,47.16905810000026,47.16905810000026,,003,P022,2025_May_13_1817,CategoryLocalizer,2021.2.3,59.9428025783916,
12.8,13.0,5,0.0,Stimuli\Blank.png,0,0,0,2,2,2,,,,,,,,,,,,,12.809597899999062,0.009597899999061354,None,47.969811499999196,47.969811499999196,47.969811499999196,47.969811499999196,47.969811499999196,47.969811499999196,47.969811499999196,47.969811499999196,,003,P022,2025_May_13_1817,CategoryLocalizer,2021.2.3,59.9428025783916,
13.0,13.8,1,0.75,Stimuli\ImageFiles-Set1\Objects\Object_Dice_00001.png,0,0,0,3,3,3,,,,,,,,,,,,,13.010336699997424,0.010336699997424148,None,48.18662570000015,48.18662570000015,48.18662570000015,48.18662570000015,48.18662570000015,48.18662570000015,48.18662570000015,48.18662570000015,,003,P022,2025_May_13_1817,CategoryLocalizer,2021.2.3,59.9428025783916,
13.8,14.0,5,0.0,Stimuli\Blank.png,0,0,0,4,4,4,,,,,,,,,,,,,13.826860100001795,0.026860100001794507,None,48.9873316000012,48.9873316000012,48.9873316000012,48.9873316000012,48.9873316000012,48.9873316000012,48.9873316000012,48.9873316000012,,003,P022,2025_May_13_1817,CategoryLocalizer,2021.2.3,59.9428025783916,
14.0,14.8,1,0.75,Stimuli\ImageFiles-Set1\Objects\Object_Bench_00001.png,0,0,0,5,5,5,,,,,,,,,,,,,14.01098490000004,0.010984900000039488,None,49.17083629999979,49.17083629999979,49.17083629999979,49.17083629999979,49.17083629999979,49.17083629999979,49.17083629999979,49.17083629999979,,003,P022,2025_May_13_1817,CategoryLocalizer,2021.2.3,59.9428025783916,
14.8,15.0,5,0.0,Stimuli\Blank.png,0,0,0,6,6,6,,,,,,,,,,,,,14.811767899998813,0.011767899998812226,None,49.971540699996694,49.971540699996694,49.971540699996694,49.971540699996694,49.971540699996694,49.971540699996694,49.971540699996694,49.971540699996694,,003,P022,2025_May_13_1817,CategoryLocalizer,2021.2.3,59.9428025783916,
15.0,15.8,1,0.75,Stimuli\ImageFiles-Set1\Objects\Object_Gun_00001.png,0,0,0,7,7,7,,,,,,,,,,,,,15.011414299995522,0.011414299995522015,None,50.17171049999888,50.17171049999888,50.17171049999888,50.17171049999888,50.17171049999888,50.17171049999888,50.17171049999888,50.17171049999888,,003,P022,2025_May_13_1817,CategoryLocalizer,2021.2.3,59.9428025783916,
15.8,16.0,5,0.0,Stimuli\Blank.png,0,0,0,8,8,8,,,,,,,,,,,,,15.812743700000283,0.012743700000282132,None,50.972497900002054,50.972497900002054,50.972497900002054,50.972497900002054,50.972497900002054,50.972497900002054,50.972497900002054,50.972497900002054,,003,P022,2025_May_13_1817,CategoryLocalizer,2021.2.3,59.9428025783916,
16.0,16.8,1,0.75,Stimuli\ImageFiles-Set1\Objects\Object_Door_00001.png,0,0,0,9,9,9,,,,,,,,,,,,,16.012543500000902,0.012543500000901986,None,51.18929599999683,51.18929599999683,51.18929599999683,51.18929599999683,51.18929599999683,51.18929599999683,51.18929599999683,51.18929599999683,,003,P022,2025_May_13_1817,CategoryLocalizer,2021.2.3,59.9428025783916,
16.8,17.0,5,0.0,Stimuli\Blank.png,0,0,0,10,10,10,,,,,,,,,,,,,16.830287799995858,0.03028779999585751,None,51.98999090000143,51.98999090000143,51.98999090000143,51.98999090000143,51.98999090000143,51.98999090000143,51.98999090000143,51.98999090000143,,003,P022,2025_May_13_1817,CategoryLocalizer,2021.2.3,59.9428025783916,
17.0,17.8,1,0.75,Stimuli\ImageFiles-Set1\Objects\Object_Card_00001.png,0,0,0,11,11,11,,,,,,,,,,,,,17.014842899996438,0.014842899996438064,None,52.19019699999626,52.19019699999626,52.19019699999626,52.19019699999626,52.19019699999626,52.19019699999626,52.19019699999626,52.19019699999626,,003,P022,2025_May_13_1817,CategoryLocalizer,2021.2.3,59.9428025783916,
17.8,18.0,5,0.0,Stimuli\Blank.png,0,0,0,12,12,12,,,,,,,,,,,,,17.831113899999764,0.031113899999763106,None,52.99086890000035,52.99086890000035,52.99086890000035,52.99086890000035,52.99086890000035,52.99086890000035,52.99086890000035,52.99086890000035,,003,P022,2025_May_13_1817,CategoryLocalizer,2021.2.3,59.9428025783916,
18.0,18.8,1,0.75,Stimuli\ImageFiles-Set1\Objects\Object_Scale_00001.png,0,0,0,13,13,13,,,,,,,,,,,,,18.013975599998957,0.013975599998957478,None,53.17436350000207,53.17436350000207,53.17436350000207,53.17436350000207,53.17436350000207,53.17436350000207,53.17436350000207,53.17436350000207,,003,P022,2025_May_13_1817,CategoryLocalizer,2021.2.3,59.9428025783916,
18.8,19.0,5,0.0,Stimuli\Blank.png,0,0,0,14,14,14,,,,,,,,,,,,,18.815447299995867,0.01544729999586636,None,53.97508029999881,53.97508029999881,53.97508029999881,53.97508029999881,53.97508029999881,53.97508029999881,53.97508029999881,53.97508029999881,,003,P022,2025_May_13_1817,CategoryLocalizer,2021.2.3,59.9428025783916,
19.0,19.8,1,0.75,Stimuli\ImageFiles-Set1\Objects\Object_Toilet_00001.png,0,0,0,15,15,15,,,,,,,,,,,,,19.015097800001968,0.015097800001967698,None,54.17525359999854,54.17525359999854,54.17525359999854,54.17525359999854,54.17525359999854,54.17525359999854,54.17525359999854,54.17525359999854,,003,P022,2025_May_13_1817,CategoryLocalizer,2021.2.3,59.9428025783916,
19.8,20.0,5,0.0,Stimuli\Blank.png,0,0,0,16,16,16,,,,,,,,,,,,,19.800784699997166,0.0007846999971654611,None,54.975977000001876,54.975977000001876,54.975977000001876,54.975977000001876,54.975977000001876,54.975977000001876,54.975977000001876,54.975977000001876,,003,P022,2025_May_13_1817,CategoryLocalizer,2021.2.3,59.9428025783916,
20.0,20.8,1,0.75,Stimuli\ImageFiles-Set1\Objects\Object_Peanut_00001.png,0,0,0,17,17,17,,,,,,,,,,,,,20.016627099998004,0.01662709999800427,None,55.192836900001566,55.192836900001566,55.192836900001566,55.192836900001566,55.192836900001566,55.192836900001566,55.192836900001566,55.192836900001566,,003,P022,2025_May_13_1817,CategoryLocalizer,2021.2.3,59.9428025783916,
20.8,21.0,5,0.0,Stimuli\Blank.png,0,0,0,18,18,18,,,,,,,,,,,,,20.81696839999495,0.016968399994947703,None,55.97684399999707,55.97684399999707,55.97684399999707,55.97684399999707,55.97684399999707,55.97684399999707,55.97684399999707,55.97684399999707,,003,P022,2025_May_13_1817,CategoryLocalizer,2021.2.3,59.9428025783916,
21.0,21.8,1,0.75,Stimuli\ImageFiles-Set1\Objects\Object_Peanut_00001.png,1,1,0,19,19,19,,,,,,,,,,,,,21.000759099995776,0.0007590999957756139,1,56.160345700001926,56.160345700001926,56.160345700001926,56.160345700001926,56.160345700001926,56.160345700001926,56.160345700001926,56.160345700001926,0.34801560000050813,003,P022,2025_May_13_1817,CategoryLocalizer,2021.2.3,59.9428025783916,
21.8,22.0,5,0.0,Stimuli\Blank.png,0,0,0,20,20,20,,,,,,,,,,,,,21.8010185000021,0.0010185000021003532,None,56.96105109999917,56.96105109999917,56.96105109999917,56.96105109999917,56.96105109999917,56.96105109999917,56.96105109999917,56.96105109999917,,003,P022,2025_May_13_1817,CategoryLocalizer,2021.2.3,59.9428025783916,
22.0,22.8,1,0.75,Stimuli\ImageFiles-Set1\Objects\Object_TeaBag_00001.png,0,0,0,21,21,21,,,,,,,,,,,,,22.00179979999666,0.0017997999966610223,None,57.161233699996956,57.161233699996956,57.161233699996956,57.161233699996956,57.161233699996956,57.161233699996956,57.161233699996956,57.161233699996956,,003,P022,2025_May_13_1817,CategoryLocalizer,2021.2.3,59.9428025783916,
22.8,23.0,5,0.0,Stimuli\Blank.png,0,0,0,22,22,22,,,,,,,,,,,,,22.802498500001093,0.0024985000010921965,None,57.961936399995466,57.961936399995466,57.961936399995466,57.961936399995466,57.961936399995466,57.961936399995466,57.961936399995466,57.961936399995466,,003,P022,2025_May_13_1817,CategoryLocalizer,2021.2.3,59.9428025783916,
23.0,23.8,1,0.75,Stimuli\ImageFiles-Set1\Objects\Object_Nightstand_00001.png,0,0,0,23,23,23,,,,,,,,,,,,,23.00189909999608,0.001899099996080622,None,58.162118699998246,58.162118699998246,58.162118699998246,58.162118699998246,58.162118699998246,58.162118699998246,58.162118699998246,58.162118699998246,,003,P022,2025_May_13_1817,CategoryLocalizer,2021.2.3,59.9428025783916,
23.8,24.0,5,0.0,Stimuli\Blank.png,0,0,0,24,24,24,,,,,,,,,,,,,23.80476899999485,0.004768999994848144,None,58.97951230000035,58.97951230000035,58.97951230000035,58.97951230000035,58.97951230000035,58.97951230000035,58.97951230000035,58.97951230000035,,003,P022,2025_May_13_1817,CategoryLocalizer,2021.2.3,59.9428025783916,
24.0,24.8,1,0.75,Stimuli\ImageFiles-Set1\Objects\Object_Apple_00001.png,0,0,0,25,25,25,,,,,,,,,,,,,24.01987669999653,0.01987669999653008,None,59.1796800000011,59.1796800000011,59.1796800000011,59.1796800000011,59.1796800000011,59.1796800000011,59.1796800000011,59.1796800000011,,003,P022,2025_May_13_1817,CategoryLocalizer,2021.2.3,59.9428025783916,
24.8,25.0,5,0.0,Stimuli\Blank.png,0,0,0,26,26,26,,,,,,,,,,,,,24.80596549999609,0.005965499996090529,None,59.98039179999614,59.98039179999614,59.98039179999614,59.98039179999614,59.98039179999614,59.98039179999614,59.98039179999614,59.98039179999614,,003,P022,2025_May_13_1817,CategoryLocalizer,2021.2.3,59.9428025783916,
25.0,25.8,1,0.75,Stimuli\ImageFiles-Set1\Objects\Object_Pillow_00001.png,0,0,0,27,27,27,,,,,,,,,,,,,25.02148540000053,0.021485400000528898,None,60.18057640000188,60.18057640000188,60.18057640000188,60.18057640000188,60.18057640000188,60.18057640000188,60.18057640000188,60.18057640000188,,003,P022,2025_May_13_1817,CategoryLocalizer,2021.2.3,59.9428025783916,
25.8,26.0,5,0.0,Stimuli\Blank.png,0,0,0,28,28,28,,,,,,,,,,,,,25.804328699996404,0.004328699996403174,None,60.96458949999942,60.96458949999942,60.96458949999942,60.96458949999942,60.96458949999942,60.96458949999942,60.96458949999942,60.96458949999942,,003,P022,2025_May_13_1817,CategoryLocalizer,2021.2.3,59.9428025783916,
26.0,26.8,1,0.75,Stimuli\ImageFiles-Set1\Objects\Object_Pizza_00001.png,0,0,0,29,29,29,,,,,,,,,,,,,26.00476609999896,0.0047660999989602715,None,61.164767099995515,61.164767099995515,61.164767099995515,61.164767099995515,61.164767099995515,61.164767099995515,61.164767099995515,61.164767099995515,,003,P022,2025_May_13_1817,CategoryLocalizer,2021.2.3,59.9428025783916,
26.8,27.0,5,0.0,Stimuli\Blank.png,0,0,0,30,30,30,,,,,,,,,,,,,26.806470399998943,0.006470399998942611,None,61.96548359999724,61.96548359999724,61.96548359999724,61.96548359999724,61.96548359999724,61.96548359999724,61.96548359999724,61.96548359999724,,003,P022,2025_May_13_1817,CategoryLocalizer,2021.2.3,59.9428025783916,
27.0,27.8,1,0.75,Stimuli\ImageFiles-Set1\Objects\Object_ComputerMouse_00001.png,0,0,0,31,31,31,,,,,,,,,,,,,27.005998399996315,0.005998399996315129,None,62.16565850000188,62.16565850000188,62.16565850000188,62.16565850000188,62.16565850000188,62.16565850000188,62.16565850000188,62.16565850000188,,003,P022,2025_May_13_1817,CategoryLocalizer,2021.2.3,59.9428025783916,
27.8,28.0,5,0.0,Stimuli\Blank.png,0,0,0,32,32,32,,,,,,,,,,,,,27.80629300000146,0.006293000001459603,None,62.966359199999715,62.966359199999715,62.966359199999715,62.966359199999715,62.966359199999715,62.966359199999715,62.966359199999715,62.966359199999715,,003,P022,2025_May_13_1817,CategoryLocalizer,2021.2.3,59.9428025783916,
28.0,28.8,2,0.75,Stimuli\ImageFiles-Set1\Bodies\Bodies_Lunging_00001.png,0,0,0,33,33,33,,,,,,,,,,,,,28.006515599998238,0.006515599998238031,None,63.18324500000017,63.18324500000017,63.18324500000017,63.18324500000017,63.18324500000017,63.18324500000017,63.18324500000017,63.18324500000017,,003,P022,2025_May_13_1817,CategoryLocalizer,2021.2.3,59.9428025783916,
28.8,29.0,5,0.0,Stimuli\Blank.png,0,0,0,34,34,34,,,,,,,,,,,,,28.824688000000606,0.024688000000605115,None,63.983977299998514,63.983977299998514,63.983977299998514,63.983977299998514,63.983977299998514,63.983977299998514,63.983977299998514,63.983977299998514,,003,P022,2025_May_13_1817,CategoryLocalizer,2021.2.3,59.9428025783916,
29.0,29.8,2,0.75,Stimuli\ImageFiles-Set1\Bodies\Bodies_Lunging_00001.png,1,1,0,35,35,35,,,,,,,,,,,,,29.00710809999873,0.007108099998731632,1,64.16819759999635,64.16819759999635,64.16819759999635,64.16819759999635,64.16819759999635,64.16819759999635,64.16819759999635,64.16819759999635,0.44622740000340855,003,P022,2025_May_13_1817,CategoryLocalizer,2021.2.3,59.9428025783916,
29.8,30.0,5,0.0,Stimuli\Blank.png,0,0,0,36,36,36,,,,,,,,,,,,,29.809777499998745,0.009777499998744332,None,64.98482079999667,64.98482079999667,64.98482079999667,64.98482079999667,64.98482079999667,64.98482079999667,64.98482079999667,64.98482079999667,,003,P022,2025_May_13_1817,CategoryLocalizer,2021.2.3,59.9428025783916,
30.0,30.8,2,0.75,Stimuli\ImageFiles-Set1\Bodies\Bodies_Kneeling_00003.png,0,0,0,37,37,37,,,,,,,,,,,,,30.024977299995953,0.024977299995953217,None,65.18498530000215,65.18498530000215,65.18498530000215,65.18498530000215,65.18498530000215,65.18498530000215,65.18498530000215,65.18498530000215,,003,P022,2025_May_13_1817,CategoryLocalizer,2021.2.3,59.9428025783916,
30.8,31.0,5,0.0,Stimuli\Blank.png,0,0,0,38,38,38,,,,,,,,,,,,,30.809337400001823,0.00933740000182226,None,65.96902269999555,65.96902269999555,65.96902269999555,65.96902269999555,65.96902269999555,65.96902269999555,65.96902269999555,65.96902269999555,,003,P022,2025_May_13_1817,CategoryLocalizer,2021.2.3,59.9428025783916,
31.0,31.8,2,0.75,Stimuli\ImageFiles-Set1\Bodies\Bodies_Kicking_00007.png,0,0,0,39,39,39,,,,,,,,,,,,,31.009502100001555,0.009502100001554936,None,66.18590169999516,66.18590169999516,66.18590169999516,66.18590169999516,66.18590169999516,66.18590169999516,66.18590169999516,66.18590169999516,,003,P022,2025_May_13_1817,CategoryLocalizer,2021.2.3,59.9428025783916,
31.8,32.0,5,0.0,Stimuli\Blank.png,0,0,0,40,40,40,,,,,,,,,,,,,31.826603100002103,0.02660310000210231,None,66.9865903999962,66.9865903999962,66.9865903999962,66.9865903999962,66.9865903999962,66.9865903999962,66.9865903999962,66.9865903999962,,003,P022,2025_May_13_1817,CategoryLocalizer,2021.2.3,59.9428025783916,
32.0,32.8,2,0.75,Stimuli\ImageFiles-Set1\Bodies\Bodies_Standing_00001.png,0,0,0,41,41,41,,,,,,,,,,,,,32.01041499999701,0.010414999997010455,None,67.1867820999978,67.1867820999978,67.1867820999978,67.1867820999978,67.1867820999978,67.1867820999978,67.1867820999978,67.1867820999978,,003,P022,2025_May_13_1817,CategoryLocalizer,2021.2.3,59.9428025783916,
32.8,33.0,5,0.0,Stimuli\Blank.png,0,0,0,42,42,42,,,,,,,,,,,,,32.82700520000071,0.02700520000071549,None,67.98746830000164,67.98746830000164,67.98746830000164,67.98746830000164,67.98746830000164,67.98746830000164,67.98746830000164,67.98746830000164,,003,P022,2025_May_13_1817,CategoryLocalizer,2021.2.3,59.9428025783916,
33.0,33.8,2,0.75,Stimuli\ImageFiles-Set1\Bodies\Bodies_SittingFloor_00003.png,0,0,0,43,43,43,,,,,,,,,,,,,33.01070349999645,0.010703499996452592,None,68.17096270000184,68.17096270000184,68.17096270000184,68.17096270000184,68.17096270000184,68.17096270000184,68.17096270000184,68.17096270000184,,003,P022,2025_May_13_1817,CategoryLocalizer,2021.2.3,59.9428025783916,
33.8,34.0,5,0.0,Stimuli\Blank.png,0,0,0,44,44,44,,,,,,,,,,,,,33.81145000000106,0.011450000001062222,None,68.97166160000052,68.97166160000052,68.97166160000052,68.97166160000052,68.97166160000052,68.97166160000052,68.97166160000052,68.97166160000052,,003,P022,2025_May_13_1817,CategoryLocalizer,2021.2.3,59.9428025783916,
34.0,34.8,2,0.75,Stimuli\ImageFiles-Set1\Bodies\Bodies_Pushing_00001.png,0,0,0,45,45,45,,,,,,,,,,,,,34.01198529999965,0.011985299999651033,None,69.17184099999577,69.17184099999577,69.17184099999577,69.17184099999577,69.17184099999577,69.17184099999577,69.17184099999577,69.17184099999577,,003,P022,2025_May_13_1817,CategoryLocalizer,2021.2.3,59.9428025783916,
34.8,35.0,5,0.0,Stimuli\Blank.png,0,0,0,46,46,46,,,,,,,,,,,,,34.812108599995554,0.012108599995556801,None,69.9725552000018,69.9725552000018,69.9725552000018,69.9725552000018,69.9725552000018,69.9725552000018,69.9725552000018,69.9725552000018,,003,P022,2025_May_13_1817,CategoryLocalizer,2021.2.3,59.9428025783916,
35.0,35.8,2,0.75,Stimuli\ImageFiles-Set1\Bodies\Bodies_Standing_00003.png,0,0,0,47,47,47,,,,,,,,,,,,,35.013036700001976,0.013036700001975987,None,70.1727316999968,70.1727316999968,70.1727316999968,70.1727316999968,70.1727316999968,70.1727316999968,70.1727316999968,70.1727316999968,,003,P022,2025_May_13_1817,CategoryLocalizer,2021.2.3,59.9428025783916,
35.8,36.0,5,0.0,Stimuli\Blank.png,0,0,0,48,48,48,,,,,,,,,,,,,35.815705799999705,0.015705799999707892,None,70.99012299999595,70.99012299999595,70.99012299999595,70.99012299999595,70.99012299999595,70.99012299999595,70.99012299999595,70.99012299999595,,003,P022,2025_May_13_1817,CategoryLocalizer,2021.2.3,59.9428025783916,
36.0,36.8,2,0.75,Stimuli\ImageFiles-Set1\Bodies\Bodies_Waving_00001.png,0,0,0,49,49,49,,,,,,,,,,,,,36.01506189999782,0.015061899997817818,None,71.1902998000005,71.1902998000005,71.1902998000005,71.1902998000005,71.1902998000005,71.1902998000005,71.1902998000005,71.1902998000005,,003,P022,2025_May_13_1817,CategoryLocalizer,2021.2.3,59.9428025783916,
36.8,37.0,5,0.0,Stimuli\Blank.png,0,0,0,50,50,50,,,,,,,,,,,,,36.81527970000025,0.015279700000249363,None,71.97433009999804,71.97433009999804,71.97433009999804,71.97433009999804,71.97433009999804,71.97433009999804,71.97433009999804,71.97433009999804,,003,P022,2025_May_13_1817,CategoryLocalizer,2021.2.3,59.9428025783916,
37.0,37.8,2,0.75,Stimuli\ImageFiles-Set1\Bodies\Bodies_Pushing_00003.png,0,0,0,51,51,51,,,,,,,,,,,,,37.01459489999979,0.014594899999792688,None,72.17452200000116,72.17452200000116,72.17452200000116,72.17452200000116,72.17452200000116,72.17452200000116,72.17452200000116,72.17452200000116,,003,P022,2025_May_13_1817,CategoryLocalizer,2021.2.3,59.9428025783916,
37.8,38.0,5,0.0,Stimuli\Blank.png,0,0,0,52,52,52,,,,,,,,,,,,,37.815352199999325,0.015352199999327354,None,72.97521530000085,72.97521530000085,72.97521530000085,72.97521530000085,72.97521530000085,72.97521530000085,72.97521530000085,72.97521530000085,,003,P022,2025_May_13_1817,CategoryLocalizer,2021.2.3,59.9428025783916,
38.0,38.8,2,0.75,Stimuli\ImageFiles-Set1\Bodies\Bodies_QuadStretch_00003.png,1,1,0,53,53,53,,,,,,,,,,,,,38.01493759999721,0.014937599997210782,None,73.17537820000143,73.17537820000143,73.17537820000143,73.17537820000143,73.17537820000143,73.17537820000143,73.17537820000143,73.17537820000143,,003,P022,2025_May_13_1817,CategoryLocalizer,2021.2.3,59.9428025783916,
38.8,39.0,5,0.0,Stimuli\Blank.png,0,0,0,54,54,54,,,,,,,,,,,,,38.816161900002044,0.016161900002046536,None,73.97608889999537,73.97608889999537,73.97608889999537,73.97608889999537,73.97608889999537,73.97608889999537,73.97608889999537,73.97608889999537,,003,P022,2025_May_13_1817,CategoryLocalizer,2021.2.3,59.9428025783916,
39.0,39.8,2,0.75,Stimuli\ImageFiles-Set1\Bodies\Bodies_Kicking_00003.png,0,0,0,55,55,55,,,,,,,,,,,,,38.999495500000194,-0.0005044999998062849,None,74.15958939999837,74.15958939999837,74.15958939999837,74.15958939999837,74.15958939999837,74.15958939999837,74.15958939999837,74.15958939999837,,003,P022,2025_May_13_1817,CategoryLocalizer,2021.2.3,59.9428025783916,
39.8,40.0,5,0.0,Stimuli\Blank.png,0,0,0,56,56,56,,,,,,,,,,,,,39.800491499998316,0.0004914999983185453,None,74.96032019999984,74.96032019999984,74.96032019999984,74.96032019999984,74.96032019999984,74.96032019999984,74.96032019999984,74.96032019999984,,003,P022,2025_May_13_1817,CategoryLocalizer,2021.2.3,59.9428025783916,
40.0,40.8,2,0.75,Stimuli\ImageFiles-Set1\Bodies\Bodies_Kicking_00003.png,0,0,0,57,57,57,,,,,,,,,,,,,40.00062510000134,0.000625100001343526,1,75.17717209999682,75.17717209999682,75.17717209999682,75.17717209999682,75.17717209999682,75.17717209999682,75.17717209999682,75.17717209999682,0.5022640000024694,003,P022,2025_May_13_1817,CategoryLocalizer,2021.2.3,59.9428025783916,
40.8,41.0,5,0.0,Stimuli\Blank.png,0,0,0,58,58,58,,,,,,,,,,,,,40.82050499999605,0.020504999996049378,None,75.99456169999758,75.99456169999758,75.99456169999758,75.99456169999758,75.99456169999758,75.99456169999758,75.99456169999758,75.99456169999758,,003,P022,2025_May_13_1817,CategoryLocalizer,2021.2.3,59.9428025783916,
41.0,41.8,2,0.75,Stimuli\ImageFiles-Set1\Bodies\Bodies_QuadStretch_00005.png,0,0,0,59,59,59,,,,,,,,,,,,,41.02004279999528,0.020042799995280802,None,76.19468570000026,76.19468570000026,76.19468570000026,76.19468570000026,76.19468570000026,76.19468570000026,76.19468570000026,76.19468570000026,,003,P022,2025_May_13_1817,CategoryLocalizer,2021.2.3,59.9428025783916,
41.8,42.0,5,0.0,Stimuli\Blank.png,0,0,0,60,60,60,,,,,,,,,,,,,41.82012699999905,0.0201269999990501,None,76.99544739999692,76.99544739999692,76.99544739999692,76.99544739999692,76.99544739999692,76.99544739999692,76.99544739999692,76.99544739999692,,003,P022,2025_May_13_1817,CategoryLocalizer,2021.2.3,59.9428025783916,
42.0,42.8,2,0.75,Stimuli\ImageFiles-Set1\Bodies\Bodies_Hanging_00002.png,0,0,0,61,61,61,,,,,,,,,,,,,42.01975939999829,0.019759399998292793,None,77.19560619999538,77.19560619999538,77.19560619999538,77.19560619999538,77.19560619999538,77.19560619999538,77.19560619999538,77.19560619999538,,003,P022,2025_May_13_1817,CategoryLocalizer,2021.2.3,59.9428025783916,
42.8,43.0,5,0.0,Stimuli\Blank.png,0,0,0,62,62,62,,,,,,,,,,,,,42.819892899999104,0.019892899999106817,None,77.97961460000079,77.97961460000079,77.97961460000079,77.97961460000079,77.97961460000079,77.97961460000079,77.97961460000079,77.97961460000079,,003,P022,2025_May_13_1817,CategoryLocalizer,2021.2.3,59.9428025783916,
43.0,43.8,2,0.75,Stimuli\ImageFiles-Set1\Bodies\Bodies_Falling_00002.png,0,0,0,63,63,63,,,,,,,,,,,,,43.00611049999861,0.006110499998612795,None,78.19653879999532,78.19653879999532,78.19653879999532,78.19653879999532,78.19653879999532,78.19653879999532,78.19653879999532,78.19653879999532,,003,P022,2025_May_13_1817,CategoryLocalizer,2021.2.3,59.9428025783916,
43.8,44.0,5,0.0,Stimuli\Blank.png,0,0,0,64,64,64,,,,,,,,,,,,,43.837276499994914,0.03727649999491689,None,78.99719919999916,78.99719919999916,78.99719919999916,78.99719919999916,78.99719919999916,78.99719919999916,78.99719919999916,78.99719919999916,,003,P022,2025_May_13_1817,CategoryLocalizer,2021.2.3,59.9428025783916,
44.0,44.8,3,0.75,Stimuli\ImageFiles-Set1\Faces\Face_00105.png,0,0,0,65,65,65,,,,,,,,,,,,,44.00440969999909,0.0044096999990870245,None,79.16400849999627,79.16400849999627,79.16400849999627,79.16400849999627,79.16400849999627,79.16400849999627,79.16400849999627,79.16400849999627,,003,P022,2025_May_13_1817,CategoryLocalizer,2021.2.3,59.9428025783916,
44.8,45.0,5,0.0,Stimuli\Blank.png,0,0,0,66,66,66,,,,,,,,,,,,,44.80495869999868,0.004958699998681482,None,79.96472260000155,79.96472260000155,79.96472260000155,79.96472260000155,79.96472260000155,79.96472260000155,79.96472260000155,79.96472260000155,,003,P022,2025_May_13_1817,CategoryLocalizer,2021.2.3,59.9428025783916,
45.0,45.8,3,0.75,Stimuli\ImageFiles-Set1\Faces\Face_00093.png,0,0,0,67,67,67,,,,,,,,,,,,,45.00541269999667,0.00541269999666838,None,80.18157960000099,80.18157960000099,80.18157960000099,80.18157960000099,80.18157960000099,80.18157960000099,80.18157960000099,80.18157960000099,,003,P022,2025_May_13_1817,CategoryLocalizer,2021.2.3,59.9428025783916,
45.8,46.0,5,0.0,Stimuli\Blank.png,0,0,0,68,68,68,,,,,,,,,,,,,45.82198369999969,0.021983699999694295,None,80.98228839999501,80.98228839999501,80.98228839999501,80.98228839999501,80.98228839999501,80.98228839999501,80.98228839999501,80.98228839999501,,003,P022,2025_May_13_1817,CategoryLocalizer,2021.2.3,59.9428025783916,
46.0,46.8,3,0.75,Stimuli\ImageFiles-Set1\Faces\Face_00039.png,0,0,0,69,69,69,,,,,,,,,,,,,46.00604200000089,0.006042000000888947,None,81.16578119999758,81.16578119999758,81.16578119999758,81.16578119999758,81.16578119999758,81.16578119999758,81.16578119999758,81.16578119999758,,003,P022,2025_May_13_1817,CategoryLocalizer,2021.2.3,59.9428025783916,
46.8,47.0,5,0.0,Stimuli\Blank.png,0,0,0,70,70,70,,,,,,,,,,,,,46.806865300000936,0.006865300000939101,None,81.96648730000015,81.96648730000015,81.96648730000015,81.96648730000015,81.96648730000015,81.96648730000015,81.96648730000015,81.96648730000015,,003,P022,2025_May_13_1817,CategoryLocalizer,2021.2.3,59.9428025783916,
47.0,47.8,3,0.75,Stimuli\ImageFiles-Set1\Faces\Face_00079.png,0,0,0,71,71,71,,,,,,,,,,,,,47.00736170000164,0.007361700001638383,None,82.18334740000137,82.18334740000137,82.18334740000137,82.18334740000137,82.18334740000137,82.18334740000137,82.18334740000137,82.18334740000137,,003,P022,2025_May_13_1817,CategoryLocalizer,2021.2.3,59.9428025783916,
47.8,48.0,5,0.0,Stimuli\Blank.png,0,0,0,72,72,72,,,,,,,,,,,,,47.824408599997696,0.024408599997698843,None,82.9840566999992,82.9840566999992,82.9840566999992,82.9840566999992,82.9840566999992,82.9840566999992,82.9840566999992,82.9840566999992,,003,P022,2025_May_13_1817,CategoryLocalizer,2021.2.3,59.9428025783916,
48.0,48.8,3,0.75,Stimuli\ImageFiles-Set1\Faces\Face_00014.png,0,0,0,73,73,73,,,,,,,,,,,,,48.00853199999983,0.008531999999831896,None,83.18426069999987,83.18426069999987,83.18426069999987,83.18426069999987,83.18426069999987,83.18426069999987,83.18426069999987,83.18426069999987,,003,P022,2025_May_13_1817,CategoryLocalizer,2021.2.3,59.9428025783916,
48.8,49.0,5,0.0,Stimuli\Blank.png,0,0,0,74,74,74,,,,,,,,,,,,,48.825161599997955,0.02516159999795775,None,83.98493690000032,83.98493690000032,83.98493690000032,83.98493690000032,83.98493690000032,83.98493690000032,83.98493690000032,83.98493690000032,,003,P022,2025_May_13_1817,CategoryLocalizer,2021.2.3,59.9428025783916,
49.0,49.8,3,0.75,Stimuli\ImageFiles-Set1\Faces\Face_00027.png,0,0,0,75,75,75,,,,,,,,,,,,,49.01028419999784,0.010284199997840915,None,84.18520039999567,84.18520039999567,84.18520039999567,84.18520039999567,84.18520039999567,84.18520039999567,84.18520039999567,84.18520039999567,,003,P022,2025_May_13_1817,CategoryLocalizer,2021.2.3,59.9428025783916,
49.8,50.0,5,0.0,Stimuli\Blank.png,0,0,0,76,76,76,,,,,,,,,,,,,49.826196800000616,0.02619680000061919,None,84.98582280000119,84.98582280000119,84.98582280000119,84.98582280000119,84.98582280000119,84.98582280000119,84.98582280000119,84.98582280000119,,003,P022,2025_May_13_1817,CategoryLocalizer,2021.2.3,59.9428025783916,
50.0,50.8,3,0.75,Stimuli\ImageFiles-Set1\Faces\Face_00037.png,0,0,0,77,77,77,,,,,,,,,,,,,50.00928130000102,0.009281300001021009,None,85.16931340000156,85.16931340000156,85.16931340000156,85.16931340000156,85.16931340000156,85.16931340000156,85.16931340000156,85.16931340000156,,003,P022,2025_May_13_1817,CategoryLocalizer,2021.2.3,59.9428025783916,
50.8,51.0,5,0.0,Stimuli\Blank.png,0,0,0,78,78,78,,,,,,,,,,,,,50.810332000000926,0.010332000000929042,None,85.97003640000185,85.97003640000185,85.97003640000185,85.97003640000185,85.97003640000185,85.97003640000185,85.97003640000185,85.97003640000185,,003,P022,2025_May_13_1817,CategoryLocalizer,2021.2.3,59.9428025783916,
51.0,51.8,3,0.75,Stimuli\ImageFiles-Set1\Faces\Face_00069.png,0,0,0,79,79,79,,,,,,,,,,,,,51.01075259999925,0.010752599999250378,None,86.18688660000043,86.18688660000043,86.18688660000043,86.18688660000043,86.18688660000043,86.18688660000043,86.18688660000043,86.18688660000043,,003,P022,2025_May_13_1817,CategoryLocalizer,2021.2.3,59.9428025783916,
51.8,52.0,5,0.0,Stimuli\Blank.png,0,0,0,80,80,80,,,,,,,,,,,,,51.82714639999904,0.027146399999040227,None,86.987589999997,86.987589999997,86.987589999997,86.987589999997,86.987589999997,86.987589999997,86.987589999997,86.987589999997,,003,P022,2025_May_13_1817,CategoryLocalizer,2021.2.3,59.9428025783916,
52.0,52.8,3,0.75,Stimuli\ImageFiles-Set1\Faces\Face_00091.png,0,0,0,81,81,81,,,,,,,,,,,,,52.01145330000145,0.011453300001448952,None,87.17108609999559,87.17108609999559,87.17108609999559,87.17108609999559,87.17108609999559,87.17108609999559,87.17108609999559,87.17108609999559,,003,P022,2025_May_13_1817,CategoryLocalizer,2021.2.3,59.9428025783916,
52.8,53.0,5,0.0,Stimuli\Blank.png,0,0,0,82,82,82,,,,,,,,,,,,,52.81147939999937,0.01147939999937364,None,87.97180980000121,87.97180980000121,87.97180980000121,87.97180980000121,87.97180980000121,87.97180980000121,87.97180980000121,87.97180980000121,,003,P022,2025_May_13_1817,CategoryLocalizer,2021.2.3,59.9428025783916,
53.0,53.8,3,0.75,Stimuli\ImageFiles-Set1\Faces\Face_00031.png,0,0,0,83,83,83,,,,,,,,,,,,,53.0116354999991,0.01163549999910174,None,88.1719690999962,88.1719690999962,88.1719690999962,88.1719690999962,88.1719690999962,88.1719690999962,88.1719690999962,88.1719690999962,,003,P022,2025_May_13_1817,CategoryLocalizer,2021.2.3,59.9428025783916,
53.8,54.0,5,0.0,Stimuli\Blank.png,0,0,0,84,84,84,,,,,,,,,,,,,53.81237079999846,0.012370799998464577,None,88.97268329999497,88.97268329999497,88.97268329999497,88.97268329999497,88.97268329999497,88.97268329999497,88.97268329999497,88.97268329999497,,003,P022,2025_May_13_1817,CategoryLocalizer,2021.2.3,59.9428025783916,
54.0,54.8,3,0.75,Stimuli\ImageFiles-Set1\Faces\Face_00031.png,1,1,0,85,85,85,,,,,,,,,,,,,54.013597400000435,0.0135974000004353,1,89.18956890000118,89.18956890000118,89.18956890000118,89.18956890000118,89.18956890000118,89.18956890000118,89.18956890000118,89.18956890000118,0.4938155000054394,003,P022,2025_May_13_1817,CategoryLocalizer,2021.2.3,59.9428025783916,
54.8,55.0,5,0.0,Stimuli\Blank.png,0,0,0,86,86,86,,,,,,,,,,,,,54.831006200001866,0.031006200001868933,None,89.99026140000205,89.99026140000205,89.99026140000205,89.99026140000205,89.99026140000205,89.99026140000205,89.99026140000205,89.99026140000205,,003,P022,2025_May_13_1817,CategoryLocalizer,2021.2.3,59.9428025783916,
55.0,55.8,3,0.75,Stimuli\ImageFiles-Set1\Faces\Face_00051.png,0,0,0,87,87,87,,,,,,,,,,,,,55.01508449999528,0.015084499995282385,None,90.19043280000187,90.19043280000187,90.19043280000187,90.19043280000187,90.19043280000187,90.19043280000187,90.19043280000187,90.19043280000187,,003,P022,2025_May_13_1817,CategoryLocalizer,2021.2.3,59.9428025783916,
55.8,56.0,5,0.0,Stimuli\Blank.png,0,0,0,88,88,88,,,,,,,,,,,,,55.814637700001185,0.014637700001188136,None,90.97448319999967,90.97448319999967,90.97448319999967,90.97448319999967,90.97448319999967,90.97448319999967,90.97448319999967,90.97448319999967,,003,P022,2025_May_13_1817,CategoryLocalizer,2021.2.3,59.9428025783916,
56.0,56.8,3,0.75,Stimuli\ImageFiles-Set1\Faces\Face_00081.png,0,0,0,89,89,89,,,,,,,,,,,,,56.01450389999809,0.014503899998089764,None,91.19133869999496,91.19133869999496,91.19133869999496,91.19133869999496,91.19133869999496,91.19133869999496,91.19133869999496,91.19133869999496,,003,P022,2025_May_13_1817,CategoryLocalizer,2021.2.3,59.9428025783916,
56.8,57.0,5,0.0,Stimuli\Blank.png,0,0,0,90,90,90,,,,,,,,,,,,,56.83222119999846,0.03222119999846029,None,91.9920215999955,91.9920215999955,91.9920215999955,91.9920215999955,91.9920215999955,91.9920215999955,91.9920215999955,91.9920215999955,,003,P022,2025_May_13_1817,CategoryLocalizer,2021.2.3,59.9428025783916,
57.0,57.8,3,0.75,Stimuli\ImageFiles-Set1\Faces\Face_00018.png,0,0,0,91,91,91,,,,,,,,,,,,,56.99924520000059,-0.0007547999994130805,None,92.17551609999646,92.17551609999646,92.17551609999646,92.17551609999646,92.17551609999646,92.17551609999646,92.17551609999646,92.17551609999646,,003,P022,2025_May_13_1817,CategoryLocalizer,2021.2.3,59.9428025783916,
57.8,58.0,5,0.0,Stimuli\Blank.png,0,0,0,92,92,92,,,,,,,,,,,,,57.81572569999844,0.0157256999984412,None,92.97623310000199,92.97623310000199,92.97623310000199,92.97623310000199,92.97623310000199,92.97623310000199,92.97623310000199,92.97623310000199,,003,P022,2025_May_13_1817,CategoryLocalizer,2021.2.3,59.9428025783916,
58.0,58.8,3,0.75,Stimuli\ImageFiles-Set1\Faces\Face_00071.png,0,0,0,93,93,93,,,,,,,,,,,,,57.999432500000694,-0.0005674999993061647,None,93.15967699999601,93.15967699999601,93.15967699999601,93.15967699999601,93.15967699999601,93.15967699999601,93.15967699999601,93.15967699999601,,003,P022,2025_May_13_1817,CategoryLocalizer,2021.2.3,59.9428025783916,
58.8,59.0,5,0.0,Stimuli\Blank.png,0,0,0,94,94,94,,,,,,,,,,,,,58.801139199997124,0.0011391999971266387,None,93.96042940000189,93.96042940000189,93.96042940000189,93.96042940000189,93.96042940000189,93.96042940000189,93.96042940000189,93.96042940000189,,003,P022,2025_May_13_1817,CategoryLocalizer,2021.2.3,59.9428025783916,
59.0,59.8,3,0.75,Stimuli\ImageFiles-Set1\Faces\Face_00033.png,0,0,0,95,95,95,,,,,,,,,,,,,59.000251599994954,0.00025159999495372176,None,94.16060640000069,94.16060640000069,94.16060640000069,94.16060640000069,94.16060640000069,94.16060640000069,94.16060640000069,94.16060640000069,,003,P022,2025_May_13_1817,CategoryLocalizer,2021.2.3,59.9428025783916,
59.8,60.0,5,0.0,Stimuli\Blank.png,0,0,0,96,96,96,,,,,,,,,,,,,59.8009705000004,0.0009705000004061048,None,94.96130619999894,94.96130619999894,94.96130619999894,94.96130619999894,94.96130619999894,94.96130619999894,94.96130619999894,94.96130619999894,,003,P022,2025_May_13_1817,CategoryLocalizer,2021.2.3,59.9428025783916,
60.0,60.8,4,0.75,Stimuli\ImageFiles-Set1\Scenes\Scenes_008.png,0,0,0,97,97,97,,,,,,,,,,,,,60.00159509999503,0.0015950999950291589,None,95.17819549999695,95.17819549999695,95.17819549999695,95.17819549999695,95.17819549999695,95.17819549999695,95.17819549999695,95.17819549999695,,003,P022,2025_May_13_1817,CategoryLocalizer,2021.2.3,59.9428025783916,
60.8,61.0,5,0.0,Stimuli\Blank.png,0,0,0,98,98,98,,,,,,,,,,,,,60.82123739999952,0.02123739999952079,None,95.99557189999905,95.99557189999905,95.99557189999905,95.99557189999905,95.99557189999905,95.99557189999905,95.99557189999905,95.99557189999905,,003,P022,2025_May_13_1817,CategoryLocalizer,2021.2.3,59.9428025783916,
61.0,61.8,4,0.75,Stimuli\ImageFiles-Set1\Scenes\Scenes_026.png,0,0,0,99,99,99,,,,,,,,,,,,,61.019013500001165,0.019013500001165085,None,96.17905679999967,96.17905679999967,96.17905679999967,96.17905679999967,96.17905679999967,96.17905679999967,96.17905679999967,96.17905679999967,,003,P022,2025_May_13_1817,CategoryLocalizer,2021.2.3,59.9428025783916,
61.8,62.0,5,0.0,Stimuli\Blank.png,0,0,0,100,100,100,,,,,,,,,,,,,61.80511889999616,0.00511889999616244,None,96.97980409999582,96.97980409999582,96.97980409999582,96.97980409999582,96.97980409999582,96.97980409999582,96.97980409999582,96.97980409999582,,003,P022,2025_May_13_1817,CategoryLocalizer,2021.2.3,59.9428025783916,
62.0,62.8,4,0.75,Stimuli\ImageFiles-Set1\Scenes\Scenes_053.png,0,0,0,101,101,101,,,,,,,,,,,,,62.02039859999786,0.02039859999786131,None,97.19661980000092,97.19661980000092,97.19661980000092,97.19661980000092,97.19661980000092,97.19661980000092,97.19661980000092,97.19661980000092,,003,P022,2025_May_13_1817,CategoryLocalizer,2021.2.3,59.9428025783916,
62.8,63.0,5,0.0,Stimuli\Blank.png,0,0,0,102,102,102,,,,,,,,,,,,,62.82032159999653,0.020321599996535156,None,97.9806494000004,97.9806494000004,97.9806494000004,97.9806494000004,97.9806494000004,97.9806494000004,97.9806494000004,97.9806494000004,,003,P022,2025_May_13_1817,CategoryLocalizer,2021.2.3,59.9428025783916,
63.0,63.8,4,0.75,Stimuli\ImageFiles-Set1\Scenes\Scenes_041.png,0,0,0,103,103,103,,,,,,,,,,,,,63.00372960000095,0.003729600000951905,None,98.16413240000111,98.16413240000111,98.16413240000111,98.16413240000111,98.16413240000111,98.16413240000111,98.16413240000111,98.16413240000111,,003,P022,2025_May_13_1817,CategoryLocalizer,2021.2.3,59.9428025783916,
63.8,64.0,5,0.0,Stimuli\Blank.png,0,0,0,104,104,104,,,,,,,,,,,,,63.804760799997894,0.00476079999789647,None,98.96485479999683,98.96485479999683,98.96485479999683,98.96485479999683,98.96485479999683,98.96485479999683,98.96485479999683,98.96485479999683,,003,P022,2025_May_13_1817,CategoryLocalizer,2021.2.3,59.9428025783916,
64.0,64.8,4,0.75,Stimuli\ImageFiles-Set1\Scenes\Scenes_060.png,0,0,0,105,105,105,,,,,,,,,,,,,64.00500730000203,0.0050073000020347536,None,99.18172929999855,99.18172929999855,99.18172929999855,99.18172929999855,99.18172929999855,99.18172929999855,99.18172929999855,99.18172929999855,,003,P022,2025_May_13_1817,CategoryLocalizer,2021.2.3,59.9428025783916,
64.8,65.0,5,0.0,Stimuli\Blank.png,0,0,0,106,106,106,,,,,,,,,,,,,64.82196989999647,0.021969899996477693,None,99.98242480000044,99.98242480000044,99.98242480000044,99.98242480000044,99.98242480000044,99.98242480000044,99.98242480000044,99.98242480000044,,003,P022,2025_May_13_1817,CategoryLocalizer,2021.2.3,59.9428025783916,
65.0,65.8,4,0.75,Stimuli\ImageFiles-Set1\Scenes\Scenes_052.png,0,0,0,107,107,107,,,,,,,,,,,,,65.00608619999548,0.0060861999954795465,None,100.1659010000003,100.1659010000003,100.1659010000003,100.1659010000003,100.1659010000003,100.1659010000003,100.1659010000003,100.1659010000003,,003,P022,2025_May_13_1817,CategoryLocalizer,2021.2.3,59.9428025783916,
65.8,66.0,5,0.0,Stimuli\Blank.png,0,0,0,108,108,108,,,,,,,,,,,,,65.80675379999593,0.006753799995934173,None,100.96661640000093,100.96661640000093,100.96661640000093,100.96661640000093,100.96661640000093,100.96661640000093,100.96661640000093,100.96661640000093,,003,P022,2025_May_13_1817,CategoryLocalizer,2021.2.3,59.9428025783916,
66.0,66.8,4,0.75,Stimuli\ImageFiles-Set1\Scenes\Scenes_005.png,0,0,0,109,109,109,,,,,,,,,,,,,66.00712509999721,0.007125099997210782,None,101.16678669999965,101.16678669999965,101.16678669999965,101.16678669999965,101.16678669999965,101.16678669999965,101.16678669999965,101.16678669999965,,003,P022,2025_May_13_1817,CategoryLocalizer,2021.2.3,59.9428025783916,
66.8,67.0,5,0.0,Stimuli\Blank.png,0,0,0,110,110,110,,,,,,,,,,,,,66.80954609999753,0.009546099997535862,None,101.98422379999829,101.98422379999829,101.98422379999829,101.98422379999829,101.98422379999829,101.98422379999829,101.98422379999829,101.98422379999829,,003,P022,2025_May_13_1817,CategoryLocalizer,2021.2.3,59.9428025783916,
67.0,67.8,4,0.75,Stimuli\ImageFiles-Set1\Scenes\Scenes_019.png,0,0,0,111,111,111,,,,,,,,,,,,,67.02407909999602,0.02407909999601543,None,102.18435289999616,102.18435289999616,102.18435289999616,102.18435289999616,102.18435289999616,102.18435289999616,102.18435289999616,102.18435289999616,,003,P022,2025_May_13_1817,CategoryLocalizer,2021.2.3,59.9428025783916,
67.8,68.0,5,0.0,Stimuli\Blank.png,0,0,0,112,112,112,,,,,,,,,,,,,67.80987520000053,0.00987520000053621,None,102.98507889999746,102.98507889999746,102.98507889999746,102.98507889999746,102.98507889999746,102.98507889999746,102.98507889999746,102.98507889999746,,003,P022,2025_May_13_1817,CategoryLocalizer,2021.2.3,59.9428025783916,
68.0,68.8,4,0.75,Stimuli\ImageFiles-Set1\Scenes\Scenes_016.png,0,0,0,113,113,113,,,,,,,,,,,,,68.02503140000044,0.025031400000443682,None,103.18524069999694,103.18524069999694,103.18524069999694,103.18524069999694,103.18524069999694,103.18524069999694,103.18524069999694,103.18524069999694,,003,P022,2025_May_13_1817,CategoryLocalizer,2021.2.3,59.9428025783916,
68.8,69.0,5,0.0,Stimuli\Blank.png,0,0,0,114,114,114,,,,,,,,,,,,,68.80948160000116,0.009481600001166157,None,103.96924330000184,103.96924330000184,103.96924330000184,103.96924330000184,103.96924330000184,103.96924330000184,103.96924330000184,103.96924330000184,,003,P022,2025_May_13_1817,CategoryLocalizer,2021.2.3,59.9428025783916,
69.0,69.8,4,0.75,Stimuli\ImageFiles-Set1\Scenes\Scenes_038.png,0,0,0,115,115,115,,,,,,,,,,,,,69.00978349999787,0.009783499997865874,None,104.18612710000161,104.18612710000161,104.18612710000161,104.18612710000161,104.18612710000161,104.18612710000161,104.18612710000161,104.18612710000161,,003,P022,2025_May_13_1817,CategoryLocalizer,2021.2.3,59.9428025783916,
69.8,70.0,5,0.0,Stimuli\Blank.png,0,0,0,116,116,116,,,,,,,,,,,,,69.82749139999942,0.02749139999941974,None,104.98683789999632,104.98683789999632,104.98683789999632,104.98683789999632,104.98683789999632,104.98683789999632,104.98683789999632,104.98683789999632,,003,P022,2025_May_13_1817,CategoryLocalizer,2021.2.3,59.9428025783916,
70.0,70.8,4,0.75,Stimuli\ImageFiles-Set1\Scenes\Scenes_030.png,0,0,0,117,117,117,,,,,,,,,,,,,70.01094319999538,0.010943199995381292,None,105.2036941999977,105.2036941999977,105.2036941999977,105.2036941999977,105.2036941999977,105.2036941999977,105.2036941999977,105.2036941999977,,003,P022,2025_May_13_1817,CategoryLocalizer,2021.2.3,59.9428025783916,
70.8,71.0,5,0.0,Stimuli\Blank.png,0,0,0,118,118,118,,,,,,,,,,,,,70.84504310000193,0.04504310000193357,None,106.00440949999756,106.00440949999756,106.00440949999756,106.00440949999756,106.00440949999756,106.00440949999756,106.00440949999756,106.00440949999756,,003,P022,2025_May_13_1817,CategoryLocalizer,2021.2.3,59.9428025783916,
71.0,71.8,4,0.75,Stimuli\ImageFiles-Set1\Scenes\Scenes_030.png,1,1,0,119,119,119,,,,,,,,,,,,,71.01077780000196,0.010777800001960713,1,106.17123059999722,106.17123059999722,106.17123059999722,106.17123059999722,106.17123059999722,106.17123059999722,106.17123059999722,106.17123059999722,0.4762151000031736,003,P022,2025_May_13_1817,CategoryLocalizer,2021.2.3,59.9428025783916,
71.8,72.0,5,0.0,Stimuli\Blank.png,0,0,0,120,120,120,,,,,,,,,,,,,71.81232749999617,0.012327499996175106,None,106.97192319999886,106.97192319999886,106.97192319999886,106.97192319999886,106.97192319999886,106.97192319999886,106.97192319999886,106.97192319999886,,003,P022,2025_May_13_1817,CategoryLocalizer,2021.2.3,59.9428025783916,
72.0,72.8,4,0.75,Stimuli\ImageFiles-Set1\Scenes\Scenes_022.png,0,0,0,121,121,121,,,,,,,,,,,,,72.0125990000015,0.012599000001500826,None,107.18879169999855,107.18879169999855,107.18879169999855,107.18879169999855,107.18879169999855,107.18879169999855,107.18879169999855,107.18879169999855,,003,P022,2025_May_13_1817,CategoryLocalizer,2021.2.3,59.9428025783916,
72.8,73.0,5,0.0,Stimuli\Blank.png,0,0,0,122,122,122,,,,,,,,,,,,,72.82947219999915,0.029472199999148074,None,107.98949059999723,107.98949059999723,107.98949059999723,107.98949059999723,107.98949059999723,107.98949059999723,107.98949059999723,107.98949059999723,,003,P022,2025_May_13_1817,CategoryLocalizer,2021.2.3,59.9428025783916,
73.0,73.8,4,0.75,Stimuli\ImageFiles-Set1\Scenes\Scenes_057.png,0,0,0,123,123,123,,,,,,,,,,,,,73.01490059999924,0.014900599999236874,None,108.18967970000085,108.18967970000085,108.18967970000085,108.18967970000085,108.18967970000085,108.18967970000085,108.18967970000085,108.18967970000085,,003,P022,2025_May_13_1817,CategoryLocalizer,2021.2.3,59.9428025783916,
73.8,74.0,5,0.0,Stimuli\Blank.png,0,0,0,124,124,124,,,,,,,,,,,,,73.83049339999707,0.030493399997070014,None,108.990383999997,108.990383999997,108.990383999997,108.990383999997,108.990383999997,108.990383999997,108.990383999997,108.990383999997,,003,P022,2025_May_13_1817,CategoryLocalizer,2021.2.3,59.9428025783916,
74.0,74.8,4,0.75,Stimuli\ImageFiles-Set1\Scenes\Scenes_021.png,0,0,0,125,125,125,,,,,,,,,,,,,74.01379350000207,0.013793500002066139,None,109.17387120000058,109.17387120000058,109.17387120000058,109.17387120000058,109.17387120000058,109.17387120000058,109.17387120000058,109.17387120000058,,003,P022,2025_May_13_1817,CategoryLocalizer,2021.2.3,59.9428025783916,
74.8,75.0,5,0.0,Stimuli\Blank.png,0,0,0,126,126,126,,,,,,,,,,,,,74.81479730000137,0.014797300001376357,None,109.97458789999655,109.97458789999655,109.97458789999655,109.97458789999655,109.97458789999655,109.97458789999655,109.97458789999655,109.97458789999655,,003,P022,2025_May_13_1817,CategoryLocalizer,2021.2.3,59.9428025783916,
75.0,75.8,4,0.75,Stimuli\ImageFiles-Set1\Scenes\Scenes_013.png,0,0,0,127,127,127,,,,,,,,,,,,,75.01437889999943,0.01437889999942854,None,110.17475249999552,110.17475249999552,110.17475249999552,110.17475249999552,110.17475249999552,110.17475249999552,110.17475249999552,110.17475249999552,,003,P022,2025_May_13_1817,CategoryLocalizer,2021.2.3,59.9428025783916,
75.8,76.0,5,0.0,Stimuli\Blank.png,0,0,0,128,128,128,,,,,,,,,,,,,75.81648029999633,0.016480299996331382,None,110.9754740999997,110.9754740999997,110.9754740999997,110.9754740999997,110.9754740999997,110.9754740999997,110.9754740999997,110.9754740999997,,003,P022,2025_May_13_1817,CategoryLocalizer,2021.2.3,59.9428025783916,
76.0,88.0,0,0.0,Stimuli\Blank.png,0,0,0,129,129,129,,,,,,,,,,,,,75.99928079999518,-0.0007192000048235059,None,111.15892259999964,111.15892259999964,111.15892259999964,111.15892259999964,111.15892259999964,111.15892259999964,111.15892259999964,111.15892259999964,,003,P022,2025_May_13_1817,CategoryLocalizer,2021.2.3,59.9428025783916,
88.0,88.8,3,0.75,Stimuli\ImageFiles-Set1\Faces\Face_00083.png,0,0,0,130,130,130,,,,,,,,,,,,,88.00981630000024,0.009816300000238698,None,123.20294399999693,123.20294399999693,123.20294399999693,123.20294399999693,123.20294399999693,123.20294399999693,123.20294399999693,123.20294399999693,,003,P022,2025_May_13_1817,CategoryLocalizer,2021.2.3,59.9428025783916,
88.8,89.0,5,0.0,Stimuli\Blank.png,0,0,0,131,131,131,,,,,,,,,,,,,88.84688849999657,0.04688849999656952,None,124.02035339999566,124.02035339999566,124.02035339999566,124.02035339999566,124.02035339999566,124.02035339999566,124.02035339999566,124.02035339999566,,003,P022,2025_May_13_1817,CategoryLocalizer,2021.2.3,59.9428025783916,
89.0,89.8,3,0.75,Stimuli\ImageFiles-Set1\Faces\Face_00111.png,0,0,0,132,132,132,,,,,,,,,,,,,89.02682669999922,0.026826699999219272,None,124.18714660000114,124.18714660000114,124.18714660000114,124.18714660000114,124.18714660000114,124.18714660000114,124.18714660000114,124.18714660000114,,003,P022,2025_May_13_1817,CategoryLocalizer,2021.2.3,59.9428025783916,
89.8,90.0,5,0.0,Stimuli\Blank.png,0,0,0,133,133,133,,,,,,,,,,,,,89.81237419999525,0.012374199995250024,None,124.97116780000215,124.97116780000215,124.97116780000215,124.97116780000215,124.97116780000215,124.97116780000215,124.97116780000215,124.97116780000215,,003,P022,2025_May_13_1817,CategoryLocalizer,2021.2.3,59.9428025783916,
90.0,90.8,3,0.75,Stimuli\ImageFiles-Set1\Faces\Face_00035.png,0,0,0,134,134,134,,,,,,,,,,,,,90.01106029999937,0.011060299999371637,None,125.18807119999838,125.18807119999838,125.18807119999838,125.18807119999838,125.18807119999838,125.18807119999838,125.18807119999838,125.18807119999838,,003,P022,2025_May_13_1817,CategoryLocalizer,2021.2.3,59.9428025783916,
90.8,91.0,5,0.0,Stimuli\Blank.png,0,0,0,135,135,135,,,,,,,,,,,,,90.83024830000068,0.030248300000678796,None,126.00545440000133,126.00545440000133,126.00545440000133,126.00545440000133,126.00545440000133,126.00545440000133,126.00545440000133,126.00545440000133,,003,P022,2025_May_13_1817,CategoryLocalizer,2021.2.3,59.9428025783916,
91.0,91.8,3,0.75,Stimuli\ImageFiles-Set1\Faces\Face_00067.png,0,0,0,136,136,136,,,,,,,,,,,,,91.02957629999582,0.02957629999582423,None,126.20559359999606,126.20559359999606,126.20559359999606,126.20559359999606,126.20559359999606,126.20559359999606,126.20559359999606,126.20559359999606,,003,P022,2025_May_13_1817,CategoryLocalizer,2021.2.3,59.9428025783916,
91.8,92.0,5,0.0,Stimuli\Blank.png,0,0,0,137,137,137,,,,,,,,,,,,,91.82952549999754,0.029525499997546945,None,126.98962069999834,126.98962069999834,126.98962069999834,126.98962069999834,126.98962069999834,126.98962069999834,126.98962069999834,126.98962069999834,,003,P022,2025_May_13_1817,CategoryLocalizer,2021.2.3,59.9428025783916,
92.0,92.8,3,0.75,Stimuli\ImageFiles-Set1\Faces\Face_00022.png,0,0,0,138,138,138,,,,,,,,,,,,,92.0128132999962,0.012813299996196292,None,127.17320659999677,127.17320659999677,127.17320659999677,127.17320659999677,127.17320659999677,127.17320659999677,127.17320659999677,127.17320659999677,,003,P022,2025_May_13_1817,CategoryLocalizer,2021.2.3,59.9428025783916,
92.8,93.0,5,0.0,Stimuli\Blank.png,0,0,0,139,139,139,,,,,,,,,,,,,92.81525079999847,0.015250799998469233,None,127.99054009999963,127.99054009999963,127.99054009999963,127.99054009999963,127.99054009999963,127.99054009999963,127.99054009999963,127.99054009999963,,003,P022,2025_May_13_1817,CategoryLocalizer,2021.2.3,59.9428025783916,
93.0,93.8,3,0.75,Stimuli\ImageFiles-Set1\Faces\Face_00016.png,0,0,0,140,140,140,,,,,,,,,,,,,93.03049369999644,0.030493699996441137,None,128.20736390000093,128.20736390000093,128.20736390000093,128.20736390000093,128.20736390000093,128.20736390000093,128.20736390000093,128.20736390000093,,003,P022,2025_May_13_1817,CategoryLocalizer,2021.2.3,59.9428025783916,
93.8,94.0,5,0.0,Stimuli\Blank.png,0,0,0,141,141,141,,,,,,,,,,,,,93.83105699999578,0.031056999995783485,None,128.99139199999627,128.99139199999627,128.99139199999627,128.99139199999627,128.99139199999627,128.99139199999627,128.99139199999627,128.99139199999627,,003,P022,2025_May_13_1817,CategoryLocalizer,2021.2.3,59.9428025783916,
94.0,94.8,3,0.75,Stimuli\ImageFiles-Set1\Faces\Face_00065.png,0,0,0,142,142,142,,,,,,,,,,,,,94.01606409999658,0.016064099996583536,None,129.19156300000031,129.19156300000031,129.19156300000031,129.19156300000031,129.19156300000031,129.19156300000031,129.19156300000031,129.19156300000031,,003,P022,2025_May_13_1817,CategoryLocalizer,2021.2.3,59.9428025783916,
94.8,95.0,5,0.0,Stimuli\Blank.png,0,0,0,143,143,143,,,,,,,,,,,,,94.8160773999989,0.016077399998906117,None,129.97560099999828,129.97560099999828,129.97560099999828,129.97560099999828,129.97560099999828,129.97560099999828,129.97560099999828,129.97560099999828,,003,P022,2025_May_13_1817,CategoryLocalizer,2021.2.3,59.9428025783916,
95.0,95.8,3,0.75,Stimuli\ImageFiles-Set1\Faces\Face_00012.png,0,0,0,144,144,144,,,,,,,,,,,,,94.99926859999687,-0.000731400003132876,None,130.17577660000097,130.17577660000097,130.17577660000097,130.17577660000097,130.17577660000097,130.17577660000097,130.17577660000097,130.17577660000097,,003,P022,2025_May_13_1817,CategoryLocalizer,2021.2.3,59.9428025783916,
95.8,96.0,5,0.0,Stimuli\Blank.png,0,0,0,145,145,145,,,,,,,,,,,,,95.81608530000085,0.016085300000852953,None,130.97649860000092,130.97649860000092,130.97649860000092,130.97649860000092,130.97649860000092,130.97649860000092,130.97649860000092,130.97649860000092,,003,P022,2025_May_13_1817,CategoryLocalizer,2021.2.3,59.9428025783916,
96.0,96.8,3,0.75,Stimuli\ImageFiles-Set1\Faces\Face_00089.png,0,0,0,146,146,146,,,,,,,,,,,,,96.00028149999707,0.0002814999970723875,None,131.17662559999735,131.17662559999735,131.17662559999735,131.17662559999735,131.17662559999735,131.17662559999735,131.17662559999735,131.17662559999735,,003,P022,2025_May_13_1817,CategoryLocalizer,2021.2.3,59.9428025783916,
96.8,97.0,5,0.0,Stimuli\Blank.png,0,0,0,147,147,147,,,,,,,,,,,,,96.81696409999859,0.016964099998588722,None,131.97736599999917,131.97736599999917,131.97736599999917,131.97736599999917,131.97736599999917,131.97736599999917,131.97736599999917,131.97736599999917,,003,P022,2025_May_13_1817,CategoryLocalizer,2021.2.3,59.9428025783916,
97.0,97.8,3,0.75,Stimuli\ImageFiles-Set1\Faces\Face_00024.png,0,0,0,148,148,148,,,,,,,,,,,,,97.00051800000074,0.0005180000007385388,None,132.1775759000011,132.1775759000011,132.1775759000011,132.1775759000011,132.1775759000011,132.1775759000011,132.1775759000011,132.1775759000011,,003,P022,2025_May_13_1817,CategoryLocalizer,2021.2.3,59.9428025783916,
97.8,98.0,5,0.0,Stimuli\Blank.png,0,0,0,149,149,149,,,,,,,,,,,,,97.81770020000113,0.01770020000112993,None,132.97830429999885,132.97830429999885,132.97830429999885,132.97830429999885,132.97830429999885,132.97830429999885,132.97830429999885,132.97830429999885,,003,P022,2025_May_13_1817,CategoryLocalizer,2021.2.3,59.9428025783916,
98.0,98.8,3,0.75,Stimuli\ImageFiles-Set1\Faces\Face_00097.png,0,0,0,150,150,150,,,,,,,,,,,,,98.00201039999956,0.002010399999562651,None,133.1617180999965,133.1617180999965,133.1617180999965,133.1617180999965,133.1617180999965,133.1617180999965,133.1617180999965,133.1617180999965,,003,P022,2025_May_13_1817,CategoryLocalizer,2021.2.3,59.9428025783916,
98.8,99.0,5,0.0,Stimuli\Blank.png,0,0,0,151,151,151,,,,,,,,,,,,,98.80320850000135,0.0032085000013495346,None,133.96246809999866,133.96246809999866,133.96246809999866,133.96246809999866,133.96246809999866,133.96246809999866,133.96246809999866,133.96246809999866,,003,P022,2025_May_13_1817,CategoryLocalizer,2021.2.3,59.9428025783916,
99.0,99.8,3,0.75,Stimuli\ImageFiles-Set1\Faces\Face_00097.png,1,1,0,152,152,152,,,,,,,,,,,,,99.00291920000018,0.0029192000001785345,1,134.17934029999742,134.17934029999742,134.17934029999742,134.17934029999742,134.17934029999742,134.17934029999742,134.17934029999742,134.17934029999742,0.40804909999860683,003,P022,2025_May_13_1817,CategoryLocalizer,2021.2.3,59.9428025783916,
99.8,100.0,5,0.0,Stimuli\Blank.png,0,0,0,153,153,153,,,,,,,,,,,,,99.81963019999966,0.019630199999667752,None,134.98002409999754,134.98002409999754,134.98002409999754,134.98002409999754,134.98002409999754,134.98002409999754,134.98002409999754,134.98002409999754,,003,P022,2025_May_13_1817,CategoryLocalizer,2021.2.3,59.9428025783916,
100.0,100.8,3,0.75,Stimuli\ImageFiles-Set1\Faces\Face_00043.png,0,0,0,154,154,154,,,,,,,,,,,,,100.00303110000095,0.003031100000953302,None,135.16348170000128,135.16348170000128,135.16348170000128,135.16348170000128,135.16348170000128,135.16348170000128,135.16348170000128,135.16348170000128,,003,P022,2025_May_13_1817,CategoryLocalizer,2021.2.3,59.9428025783916,
100.8,101.0,5,0.0,Stimuli\Blank.png,0,0,0,155,155,155,,,,,,,,,,,,,100.80441799999971,0.004417999999716926,None,135.9642324000015,135.9642324000015,135.9642324000015,135.9642324000015,135.9642324000015,135.9642324000015,135.9642324000015,135.9642324000015,,003,P022,2025_May_13_1817,CategoryLocalizer,2021.2.3,59.9428025783916,
101.0,101.8,3,0.75,Stimuli\ImageFiles-Set1\Faces\Face_00057.png,0,0,0,156,156,156,,,,,,,,,,,,,101.00449269999808,0.004492699998081662,None,136.1644101999991,136.1644101999991,136.1644101999991,136.1644101999991,136.1644101999991,136.1644101999991,136.1644101999991,136.1644101999991,,003,P022,2025_May_13_1817,CategoryLocalizer,2021.2.3,59.9428025783916,
101.8,102.0,5,0.0,Stimuli\Blank.png,0,0,0,157,157,157,,,,,,,,,,,,,101.80622369999764,0.006223699997647714,None,136.96519709999848,136.96519709999848,136.96519709999848,136.96519709999848,136.96519709999848,136.96519709999848,136.96519709999848,136.96519709999848,,003,P022,2025_May_13_1817,CategoryLocalizer,2021.2.3,59.9428025783916,
102.0,102.8,3,0.75,Stimuli\ImageFiles-Set1\Faces\Face_00009.png,0,0,0,158,158,158,,,,,,,,,,,,,102.00500559999637,0.0050055999963660724,None,137.16528680000192,137.16528680000192,137.16528680000192,137.16528680000192,137.16528680000192,137.16528680000192,137.16528680000192,137.16528680000192,,003,P022,2025_May_13_1817,CategoryLocalizer,2021.2.3,59.9428025783916,
102.8,103.0,5,0.0,Stimuli\Blank.png,0,0,0,159,159,159,,,,,,,,,,,,,102.80557929999486,0.005579299994863618,None,137.96596190000128,137.96596190000128,137.96596190000128,137.96596190000128,137.96596190000128,137.96596190000128,137.96596190000128,137.96596190000128,,003,P022,2025_May_13_1817,CategoryLocalizer,2021.2.3,59.9428025783916,
103.0,103.8,3,0.75,Stimuli\ImageFiles-Set1\Faces\Face_00077.png,0,0,0,160,160,160,,,,,,,,,,,,,103.0059792999964,0.005979299996397458,None,138.1661402999962,138.1661402999962,138.1661402999962,138.1661402999962,138.1661402999962,138.1661402999962,138.1661402999962,138.1661402999962,,003,P022,2025_May_13_1817,CategoryLocalizer,2021.2.3,59.9428025783916,
103.8,104.0,5,0.0,Stimuli\Blank.png,0,0,0,161,161,161,,,,,,,,,,,,,103.80747519999568,0.007475199995681692,None,138.96687119999842,138.96687119999842,138.96687119999842,138.96687119999842,138.96687119999842,138.96687119999842,138.96687119999842,138.96687119999842,,003,P022,2025_May_13_1817,CategoryLocalizer,2021.2.3,59.9428025783916,
104.0,104.8,1,0.75,Stimuli\ImageFiles-Set1\Objects\Object_Glasses_00001.png,0,0,0,162,162,162,,,,,,,,,,,,,104.00697249999939,0.006972499999392312,None,139.16706749999867,139.16706749999867,139.16706749999867,139.16706749999867,139.16706749999867,139.16706749999867,139.16706749999867,139.16706749999867,,003,P022,2025_May_13_1817,CategoryLocalizer,2021.2.3,59.9428025783916,
104.8,105.0,5,0.0,Stimuli\Blank.png,0,0,0,163,163,163,,,,,,,,,,,,,104.80954629999906,0.00954629999905876,None,139.9844832999952,139.9844832999952,139.9844832999952,139.9844832999952,139.9844832999952,139.9844832999952,139.9844832999952,139.9844832999952,,003,P022,2025_May_13_1817,CategoryLocalizer,2021.2.3,59.9428025783916,
105.0,105.8,1,0.75,Stimuli\ImageFiles-Set1\Objects\Object_Box_00001.png,0,0,0,164,164,164,,,,,,,,,,,,,105.02515219999623,0.025152199996227864,None,140.1846205999973,140.1846205999973,140.1846205999973,140.1846205999973,140.1846205999973,140.1846205999973,140.1846205999973,140.1846205999973,,003,P022,2025_May_13_1817,CategoryLocalizer,2021.2.3,59.9428025783916,
105.8,106.0,5,0.0,Stimuli\Blank.png,0,0,0,165,165,165,,,,,,,,,,,,,105.81073099999776,0.010730999997761614,None,140.98535969999648,140.98535969999648,140.98535969999648,140.98535969999648,140.98535969999648,140.98535969999648,140.98535969999648,140.98535969999648,,003,P022,2025_May_13_1817,CategoryLocalizer,2021.2.3,59.9428025783916,
106.0,106.8,1,0.75,Stimuli\ImageFiles-Set1\Objects\Object_Key_00001.png,0,0,0,166,166,166,,,,,,,,,,,,,106.02517919999809,0.025179199998092372,None,141.1855022000018,141.1855022000018,141.1855022000018,141.1855022000018,141.1855022000018,141.1855022000018,141.1855022000018,141.1855022000018,,003,P022,2025_May_13_1817,CategoryLocalizer,2021.2.3,59.9428025783916,
106.8,107.0,5,0.0,Stimuli\Blank.png,0,0,0,167,167,167,,,,,,,,,,,,,106.80974050000077,0.009740500000773977,None,141.96953769999527,141.96953769999527,141.96953769999527,141.96953769999527,141.96953769999527,141.96953769999527,141.96953769999527,141.96953769999527,,003,P022,2025_May_13_1817,CategoryLocalizer,2021.2.3,59.9428025783916,
107.0,107.8,1,0.75,Stimuli\ImageFiles-Set1\Objects\Object_Highchair_00001.png,0,0,0,168,168,168,,,,,,,,,,,,,107.00946000000113,0.0094600000011269,None,142.1697048999995,142.1697048999995,142.1697048999995,142.1697048999995,142.1697048999995,142.1697048999995,142.1697048999995,142.1697048999995,,003,P022,2025_May_13_1817,CategoryLocalizer,2021.2.3,59.9428025783916,
107.8,108.0,5,0.0,Stimuli\Blank.png,0,0,0,169,169,169,,,,,,,,,,,,,107.81085639999947,0.010856399999468636,None,142.97041609999724,142.97041609999724,142.97041609999724,142.97041609999724,142.97041609999724,142.97041609999724,142.97041609999724,142.97041609999724,,003,P022,2025_May_13_1817,CategoryLocalizer,2021.2.3,59.9428025783916,
108.0,108.8,1,0.75,Stimuli\ImageFiles-Set1\Objects\Object_Banana_00001.png,0,0,0,170,170,170,,,,,,,,,,,,,108.01020810000045,0.010208100000454579,None,143.17059560000052,143.17059560000052,143.17059560000052,143.17059560000052,143.17059560000052,143.17059560000052,143.17059560000052,143.17059560000052,,003,P022,2025_May_13_1817,CategoryLocalizer,2021.2.3,59.9428025783916,
108.8,109.0,5,0.0,Stimuli\Blank.png,0,0,0,171,171,171,,,,,,,,,,,,,108.81084559999726,0.010845599997267641,None,143.97130019999895,143.97130019999895,143.97130019999895,143.97130019999895,143.97130019999895,143.97130019999895,143.97130019999895,143.97130019999895,,003,P022,2025_May_13_1817,CategoryLocalizer,2021.2.3,59.9428025783916,
109.0,109.8,1,0.75,Stimuli\ImageFiles-Set1\Objects\Object_Airplane_00001.png,0,0,0,172,172,172,,,,,,,,,,,,,109.01171649999742,0.011716499997419305,None,144.17147750000004,144.17147750000004,144.17147750000004,144.17147750000004,144.17147750000004,144.17147750000004,144.17147750000004,144.17147750000004,,003,P022,2025_May_13_1817,CategoryLocalizer,2021.2.3,59.9428025783916,
109.8,110.0,5,0.0,Stimuli\Blank.png,0,0,0,173,173,173,,,,,,,,,,,,,109.81197879999672,0.011978799996725797,None,144.97218799999973,144.97218799999973,144.97218799999973,144.97218799999973,144.97218799999973,144.97218799999973,144.97218799999973,144.97218799999973,,003,P022,2025_May_13_1817,CategoryLocalizer,2021.2.3,59.9428025783916,
110.0,110.8,1,0.75,Stimuli\ImageFiles-Set1\Objects\Object_Airplane_00001.png,1,1,0,174,174,174,,,,,,,,,,,,,110.0123883999986,0.012388399998599198,1,145.18904959999782,145.18904959999782,145.18904959999782,145.18904959999782,145.18904959999782,145.18904959999782,145.18904959999782,145.18904959999782,0.5814669999963371,003,P022,2025_May_13_1817,CategoryLocalizer,2021.2.3,59.9428025783916,
110.8,111.0,5,0.0,Stimuli\Blank.png,0,0,0,175,175,175,,,,,,,,,,,,,110.83006719999685,0.030067199996850036,None,145.9897514999975,145.9897514999975,145.9897514999975,145.9897514999975,145.9897514999975,145.9897514999975,145.9897514999975,145.9897514999975,,003,P022,2025_May_13_1817,CategoryLocalizer,2021.2.3,59.9428025783916,
111.0,111.8,1,0.75,Stimuli\ImageFiles-Set1\Objects\Object_Lipstick_00001.png,0,0,0,176,176,176,,,,,,,,,,,,,111.01465610000014,0.014656100000138395,None,146.18993729999784,146.18993729999784,146.18993729999784,146.18993729999784,146.18993729999784,146.18993729999784,146.18993729999784,146.18993729999784,,003,P022,2025_May_13_1817,CategoryLocalizer,2021.2.3,59.9428025783916,
111.8,112.0,5,0.0,Stimuli\Blank.png,0,0,0,177,177,177,,,,,,,,,,,,,111.83041099999537,0.030410999995368115,None,146.99063989999559,146.99063989999559,146.99063989999559,146.99063989999559,146.99063989999559,146.99063989999559,146.99063989999559,146.99063989999559,,003,P022,2025_May_13_1817,CategoryLocalizer,2021.2.3,59.9428025783916,
112.0,112.8,1,0.75,Stimuli\ImageFiles-Set1\Objects\Object_Watch_00001.png,0,0,0,178,178,178,,,,,,,,,,,,,112.01372540000011,0.013725400000112131,None,147.17414850000205,147.17414850000205,147.17414850000205,147.17414850000205,147.17414850000205,147.17414850000205,147.17414850000205,147.17414850000205,,003,P022,2025_May_13_1817,CategoryLocalizer,2021.2.3,59.9428025783916,
112.8,113.0,5,0.0,Stimuli\Blank.png,0,0,0,179,179,179,,,,,,,,,,,,,112.81577229999675,0.01577229999675467,None,147.9748550000004,147.9748550000004,147.9748550000004,147.9748550000004,147.9748550000004,147.9748550000004,147.9748550000004,147.9748550000004,,003,P022,2025_May_13_1817,CategoryLocalizer,2021.2.3,59.9428025783916,
113.0,113.8,1,0.75,Stimuli\ImageFiles-Set1\Objects\Object_Pencil_00001.png,0,0,0,180,180,180,,,,,,,,,,,,,112.9985416999989,-0.0014583000011043623,None,148.1583083000005,148.1583083000005,148.1583083000005,148.1583083000005,148.1583083000005,148.1583083000005,148.1583083000005,148.1583083000005,,003,P022,2025_May_13_1817,CategoryLocalizer,2021.2.3,59.9428025783916,
113.8,114.0,5,0.0,Stimuli\Blank.png,0,0,0,181,181,181,,,,,,,,,,,,,113.79924909999681,-0.0007509000031831192,None,148.95909050000046,148.95909050000046,148.95909050000046,148.95909050000046,148.95909050000046,148.95909050000046,148.95909050000046,148.95909050000046,,003,P022,2025_May_13_1817,CategoryLocalizer,2021.2.3,59.9428025783916,
114.0,114.8,1,0.75,Stimuli\ImageFiles-Set1\Objects\Object_FileFolder_00001.png,0,0,0,182,182,182,,,,,,,,,,,,,113.99959049999597,-0.00040950000402517617,None,149.17590570000175,149.17590570000175,149.17590570000175,149.17590570000175,149.17590570000175,149.17590570000175,149.17590570000175,149.17590570000175,,003,P022,2025_May_13_1817,CategoryLocalizer,2021.2.3,59.9428025783916,
114.8,115.0,5,0.0,Stimuli\Blank.png,0,0,0,183,183,183,,,,,,,,,,,,,114.8169338000007,0.016933800000700217,None,149.97661649999645,149.97661649999645,149.97661649999645,149.97661649999645,149.97661649999645,149.97661649999645,149.97661649999645,149.97661649999645,,003,P022,2025_May_13_1817,CategoryLocalizer,2021.2.3,59.9428025783916,
115.0,115.8,1,0.75,Stimuli\ImageFiles-Set1\Objects\Object_Baseball_00001.png,0,0,0,184,184,184,,,,,,,,,,,,,115.00038530000165,0.00038530000165337697,None,150.17679739999585,150.17679739999585,150.17679739999585,150.17679739999585,150.17679739999585,150.17679739999585,150.17679739999585,150.17679739999585,,003,P022,2025_May_13_1817,CategoryLocalizer,2021.2.3,59.9428025783916,
115.8,116.0,5,0.0,Stimuli\Blank.png,0,0,0,185,185,185,,,,,,,,,,,,,115.81721649999963,0.01721649999963404,None,150.97750429999724,150.97750429999724,150.97750429999724,150.97750429999724,150.97750429999724,150.97750429999724,150.97750429999724,150.97750429999724,,003,P022,2025_May_13_1817,CategoryLocalizer,2021.2.3,59.9428025783916,
116.0,116.8,1,0.75,Stimuli\ImageFiles-Set1\Objects\Object_Oven_00001.png,0,0,0,186,186,186,,,,,,,,,,,,,116.00072550000186,0.0007255000018631108,None,151.1776505999951,151.1776505999951,151.1776505999951,151.1776505999951,151.1776505999951,151.1776505999951,151.1776505999951,151.1776505999951,,003,P022,2025_May_13_1817,CategoryLocalizer,2021.2.3,59.9428025783916,
116.8,117.0,5,0.0,Stimuli\Blank.png,0,0,0,187,187,187,,,,,,,,,,,,,116.82093629999872,0.020936299998723484,None,151.99506429999747,151.99506429999747,151.99506429999747,151.99506429999747,151.99506429999747,151.99506429999747,151.99506429999747,151.99506429999747,,003,P022,2025_May_13_1817,CategoryLocalizer,2021.2.3,59.9428025783916,
117.0,117.8,1,0.75,Stimuli\ImageFiles-Set1\Objects\Object_Bottle_00001.png,0,0,0,188,188,188,,,,,,,,,,,,,117.02004460000171,0.020044600001710933,None,152.1952603999962,152.1952603999962,152.1952603999962,152.1952603999962,152.1952603999962,152.1952603999962,152.1952603999962,152.1952603999962,,003,P022,2025_May_13_1817,CategoryLocalizer,2021.2.3,59.9428025783916,
117.8,118.0,5,0.0,Stimuli\Blank.png,0,0,0,189,189,189,,,,,,,,,,,,,117.81889289999526,0.01889289999526511,None,152.97931699999754,152.97931699999754,152.97931699999754,152.97931699999754,152.97931699999754,152.97931699999754,152.97931699999754,152.97931699999754,,003,P022,2025_May_13_1817,CategoryLocalizer,2021.2.3,59.9428025783916,
118.0,118.8,1,0.75,Stimuli\ImageFiles-Set1\Objects\Object_Screw_00001.png,0,0,0,190,190,190,,,,,,,,,,,,,118.00226570000086,0.0022657000008621253,None,153.17941699999938,153.17941699999938,153.17941699999938,153.17941699999938,153.17941699999938,153.17941699999938,153.17941699999938,153.17941699999938,,003,P022,2025_May_13_1817,CategoryLocalizer,2021.2.3,59.9428025783916,
118.8,119.0,5,0.0,Stimuli\Blank.png,0,0,0,191,191,191,,,,,,,,,,,,,118.82043749999866,0.020437499998664066,None,153.98016529999586,153.98016529999586,153.98016529999586,153.98016529999586,153.98016529999586,153.98016529999586,153.98016529999586,153.98016529999586,,003,P022,2025_May_13_1817,CategoryLocalizer,2021.2.3,59.9428025783916,
119.0,119.8,1,0.75,Stimuli\ImageFiles-Set1\Objects\Object_Wagon_00001.png,0,0,0,192,192,192,,,,,,,,,,,,,119.00571079999645,0.005710799996450078,None,154.18035599999712,154.18035599999712,154.18035599999712,154.18035599999712,154.18035599999712,154.18035599999712,154.18035599999712,154.18035599999712,,003,P022,2025_May_13_1817,CategoryLocalizer,2021.2.3,59.9428025783916,
119.8,120.0,5,0.0,Stimuli\Blank.png,0,0,0,193,193,193,,,,,,,,,,,,,119.82087450000108,0.02087450000108504,None,154.98115439999674,154.98115439999674,154.98115439999674,154.98115439999674,154.98115439999674,154.98115439999674,154.98115439999674,154.98115439999674,,003,P022,2025_May_13_1817,CategoryLocalizer,2021.2.3,59.9428025783916,
120.0,120.8,4,0.75,Stimuli\ImageFiles-Set1\Scenes\Scenes_044.png,0,0,0,194,194,194,,,,,,,,,,,,,120.00479849999829,0.004798499998287298,None,155.18123009999545,155.18123009999545,155.18123009999545,155.18123009999545,155.18123009999545,155.18123009999545,155.18123009999545,155.18123009999545,,003,P022,2025_May_13_1817,CategoryLocalizer,2021.2.3,59.9428025783916,
120.8,121.0,5,0.0,Stimuli\Blank.png,0,0,0,195,195,195,,,,,,,,,,,,,120.82226979999541,0.022269799995413564,None,155.98192489999929,155.98192489999929,155.98192489999929,155.98192489999929,155.98192489999929,155.98192489999929,155.98192489999929,155.98192489999929,,003,P022,2025_May_13_1817,CategoryLocalizer,2021.2.3,59.9428025783916,
121.0,121.8,4,0.75,Stimuli\ImageFiles-Set1\Scenes\Scenes_001.png,0,0,0,196,196,196,,,,,,,,,,,,,121.00602380000055,0.006023800000548363,None,156.1821029999992,156.1821029999992,156.1821029999992,156.1821029999992,156.1821029999992,156.1821029999992,156.1821029999992,156.1821029999992,,003,P022,2025_May_13_1817,CategoryLocalizer,2021.2.3,59.9428025783916,
121.8,122.0,5,0.0,Stimuli\Blank.png,0,0,0,197,197,197,,,,,,,,,,,,,121.8242986999976,0.024298699997601148,None,156.98284140000032,156.98284140000032,156.98284140000032,156.98284140000032,156.98284140000032,156.98284140000032,156.98284140000032,156.98284140000032,,003,P022,2025_May_13_1817,CategoryLocalizer,2021.2.3,59.9428025783916,
122.0,122.8,4,0.75,Stimuli\ImageFiles-Set1\Scenes\Scenes_001.png,1,1,0,198,198,198,,,,,,,,,,,,,122.00654519999807,0.0065451999980723485,1,157.16630599999917,157.16630599999917,157.16630599999917,157.16630599999917,157.16630599999917,157.16630599999917,157.16630599999917,157.16630599999917,0.6121495999977924,003,P022,2025_May_13_1817,CategoryLocalizer,2021.2.3,59.9428025783916,
122.8,123.0,5,0.0,Stimuli\Blank.png,0,0,0,199,199,199,,,,,,,,,,,,,122.80753430000186,0.007534300001864835,None,157.96708930000023,157.96708930000023,157.96708930000023,157.96708930000023,157.96708930000023,157.96708930000023,157.96708930000023,157.96708930000023,,003,P022,2025_May_13_1817,CategoryLocalizer,2021.2.3,59.9428025783916,
123.0,123.8,4,0.75,Stimuli\ImageFiles-Set1\Scenes\Scenes_046.png,0,0,0,200,200,200,,,,,,,,,,,,,123.0077919999967,0.007791999996697996,None,158.18387760000041,158.18387760000041,158.18387760000041,158.18387760000041,158.18387760000041,158.18387760000041,158.18387760000041,158.18387760000041,,003,P022,2025_May_13_1817,CategoryLocalizer,2021.2.3,59.9428025783916,
123.8,124.0,5,0.0,Stimuli\Blank.png,0,0,0,201,201,201,,,,,,,,,,,,,123.82417069999792,0.024170699997924316,None,158.98461510000197,158.98461510000197,158.98461510000197,158.98461510000197,158.98461510000197,158.98461510000197,158.98461510000197,158.98461510000197,,003,P022,2025_May_13_1817,CategoryLocalizer,2021.2.3,59.9428025783916,
124.0,124.8,4,0.75,Stimuli\ImageFiles-Set1\Scenes\Scenes_036.png,0,0,0,202,202,202,,,,,,,,,,,,,124.00813070000004,0.008130700000037905,None,159.18475670000043,159.18475670000043,159.18475670000043,159.18475670000043,159.18475670000043,159.18475670000043,159.18475670000043,159.18475670000043,,003,P022,2025_May_13_1817,CategoryLocalizer,2021.2.3,59.9428025783916,
124.8,125.0,5,0.0,Stimuli\Blank.png,0,0,0,203,203,203,,,,,,,,,,,,,124.82561699999496,0.02561699999496625,None,159.98547919999692,159.98547919999692,159.98547919999692,159.98547919999692,159.98547919999692,159.98547919999692,159.98547919999692,159.98547919999692,,003,P022,2025_May_13_1817,CategoryLocalizer,2021.2.3,59.9428025783916,
125.0,125.8,4,0.75,Stimuli\ImageFiles-Set1\Scenes\Scenes_049.png,0,0,0,204,204,204,,,,,,,,,,,,,125.00974080000015,0.0097408000001451,None,160.18564250000054,160.18564250000054,160.18564250000054,160.18564250000054,160.18564250000054,160.18564250000054,160.18564250000054,160.18564250000054,,003,P022,2025_May_13_1817,CategoryLocalizer,2021.2.3,59.9428025783916,
125.8,126.0,5,0.0,Stimuli\Blank.png,0,0,0,205,205,205,,,,,,,,,,,,,125.82660609999584,0.02660609999584551,None,160.98641949999728,160.98641949999728,160.98641949999728,160.98641949999728,160.98641949999728,160.98641949999728,160.98641949999728,160.98641949999728,,003,P022,2025_May_13_1817,CategoryLocalizer,2021.2.3,59.9428025783916,
126.0,126.8,4,0.75,Stimuli\ImageFiles-Set1\Scenes\Scenes_027.png,0,0,0,206,206,206,,,,,,,,,,,,,126.00934640000196,0.00934640000195941,None,161.16983659999823,161.16983659999823,161.16983659999823,161.16983659999823,161.16983659999823,161.16983659999823,161.16983659999823,161.16983659999823,,003,P022,2025_May_13_1817,CategoryLocalizer,2021.2.3,59.9428025783916,
126.8,127.0,5,0.0,Stimuli\Blank.png,0,0,0,207,207,207,,,,,,,,,,,,,126.8108071999959,0.0108071999959094,None,161.97055040000123,161.97055040000123,161.97055040000123,161.97055040000123,161.97055040000123,161.97055040000123,161.97055040000123,161.97055040000123,,003,P022,2025_May_13_1817,CategoryLocalizer,2021.2.3,59.9428025783916,
127.0,127.8,4,0.75,Stimuli\ImageFiles-Set1\Scenes\Scenes_048.png,0,0,0,208,208,208,,,,,,,,,,,,,127.01119720000133,0.01119720000133384,None,162.18741189999855,162.18741189999855,162.18741189999855,162.18741189999855,162.18741189999855,162.18741189999855,162.18741189999855,162.18741189999855,,003,P022,2025_May_13_1817,CategoryLocalizer,2021.2.3,59.9428025783916,
127.8,128.0,5,0.0,Stimuli\Blank.png,0,0,0,209,209,209,,,,,,,,,,,,,127.8297143000018,0.029714300001799643,None,163.00480560000142,163.00480560000142,163.00480560000142,163.00480560000142,163.00480560000142,163.00480560000142,163.00480560000142,163.00480560000142,,003,P022,2025_May_13_1817,CategoryLocalizer,2021.2.3,59.9428025783916,
128.0,128.8,4,0.75,Stimuli\ImageFiles-Set1\Scenes\Scenes_029.png,0,0,0,210,210,210,,,,,,,,,,,,,128.029054300001,0.029054300001007505,None,163.2049693000008,163.2049693000008,163.2049693000008,163.2049693000008,163.2049693000008,163.2049693000008,163.2049693000008,163.2049693000008,,003,P022,2025_May_13_1817,CategoryLocalizer,2021.2.3,59.9428025783916,
128.8,129.0,5,0.0,Stimuli\Blank.png,0,0,0,211,211,211,,,,,,,,,,,,,128.83102009999857,0.031020099998556816,None,164.00568689999636,164.00568689999636,164.00568689999636,164.00568689999636,164.00568689999636,164.00568689999636,164.00568689999636,164.00568689999636,,003,P022,2025_May_13_1817,CategoryLocalizer,2021.2.3,59.9428025783916,
129.0,129.8,4,0.75,Stimuli\ImageFiles-Set1\Scenes\Scenes_015.png,0,0,0,212,212,212,,,,,,,,,,,,,129.02954569999565,0.029545699995651376,None,164.20586419999745,164.20586419999745,164.20586419999745,164.20586419999745,164.20586419999745,164.20586419999745,164.20586419999745,164.20586419999745,,003,P022,2025_May_13_1817,CategoryLocalizer,2021.2.3,59.9428025783916,
129.8,130.0,5,0.0,Stimuli\Blank.png,0,0,0,213,213,213,,,,,,,,,,,,,129.83062860000064,0.030628600000625283,None,164.9898852999977,164.9898852999977,164.9898852999977,164.9898852999977,164.9898852999977,164.9898852999977,164.9898852999977,164.9898852999977,,003,P022,2025_May_13_1817,CategoryLocalizer,2021.2.3,59.9428025783916,
130.0,130.8,4,0.75,Stimuli\ImageFiles-Set1\Scenes\Scenes_055.png,0,0,0,214,214,214,,,,,,,,,,,,,130.01351350000186,0.013513500001863576,None,165.17338239999663,165.17338239999663,165.17338239999663,165.17338239999663,165.17338239999663,165.17338239999663,165.17338239999663,165.17338239999663,,003,P022,2025_May_13_1817,CategoryLocalizer,2021.2.3,59.9428025783916,
130.8,131.0,5,0.0,Stimuli\Blank.png,0,0,0,215,215,215,,,,,,,,,,,,,130.81450989999576,0.014509899995744036,None,165.97409499999776,165.97409499999776,165.97409499999776,165.97409499999776,165.97409499999776,165.97409499999776,165.97409499999776,165.97409499999776,,003,P022,2025_May_13_1817,CategoryLocalizer,2021.2.3,59.9428025783916,
131.0,131.8,4,0.75,Stimuli\ImageFiles-Set1\Scenes\Scenes_014.png,0,0,0,216,216,216,,,,,,,,,,,,,131.014714500001,0.014714500000991393,None,166.19094870000117,166.19094870000117,166.19094870000117,166.19094870000117,166.19094870000117,166.19094870000117,166.19094870000117,166.19094870000117,,003,P022,2025_May_13_1817,CategoryLocalizer,2021.2.3,59.9428025783916,
131.8,132.0,5,0.0,Stimuli\Blank.png,0,0,0,217,217,217,,,,,,,,,,,,,131.83126649999758,0.03126649999757092,None,166.9916527999958,166.9916527999958,166.9916527999958,166.9916527999958,166.9916527999958,166.9916527999958,166.9916527999958,166.9916527999958,,003,P022,2025_May_13_1817,CategoryLocalizer,2021.2.3,59.9428025783916,
132.0,132.8,4,0.75,Stimuli\ImageFiles-Set1\Scenes\Scenes_045.png,0,0,0,218,218,218,,,,,,,,,,,,,132.01527630000055,0.015276300000550691,None,167.1919007999968,167.1919007999968,167.1919007999968,167.1919007999968,167.1919007999968,167.1919007999968,167.1919007999968,167.1919007999968,,003,P022,2025_May_13_1817,CategoryLocalizer,2021.2.3,59.9428025783916,
132.8,133.0,5,0.0,Stimuli\Blank.png,0,0,0,219,219,219,,,,,,,,,,,,,132.8157468999998,0.01574689999978318,None,167.97585979999712,167.97585979999712,167.97585979999712,167.97585979999712,167.97585979999712,167.97585979999712,167.97585979999712,167.97585979999712,,003,P022,2025_May_13_1817,CategoryLocalizer,2021.2.3,59.9428025783916,
133.0,133.8,4,0.75,Stimuli\ImageFiles-Set1\Scenes\Scenes_002.png,1,1,0,220,220,220,,,,,,,,,,,,,133.00002320000203,2.3200002033263445e-05,None,168.17604539999593,168.17604539999593,168.17604539999593,168.17604539999593,168.17604539999593,168.17604539999593,168.17604539999593,168.17604539999593,,003,P022,2025_May_13_1817,CategoryLocalizer,2021.2.3,59.9428025783916,
133.8,134.0,5,0.0,Stimuli\Blank.png,0,0,0,221,221,221,,,,,,,,,,,,,133.81622889999562,0.01622889999561039,None,168.97673740000027,168.97673740000027,168.97673740000027,168.97673740000027,168.97673740000027,168.97673740000027,168.97673740000027,168.97673740000027,,003,P022,2025_May_13_1817,CategoryLocalizer,2021.2.3,59.9428025783916,
134.0,134.8,4,0.75,Stimuli\ImageFiles-Set1\Scenes\Scenes_054.png,0,0,0,222,222,222,,,,,,,,,,,,,134.00041809999675,0.000418099996750243,None,169.17692199999874,169.17692199999874,169.17692199999874,169.17692199999874,169.17692199999874,169.17692199999874,169.17692199999874,169.17692199999874,,003,P022,2025_May_13_1817,CategoryLocalizer,2021.2.3,59.9428025783916,
134.8,135.0,5,0.0,Stimuli\Blank.png,0,0,0,223,223,223,,,,,,,,,,,,,134.81726399999752,0.017263999997510382,None,169.9776258999991,169.9776258999991,169.9776258999991,169.9776258999991,169.9776258999991,169.9776258999991,169.9776258999991,169.9776258999991,,003,P022,2025_May_13_1817,CategoryLocalizer,2021.2.3,59.9428025783916,
135.0,135.8,4,0.75,Stimuli\ImageFiles-Set1\Scenes\Scenes_054.png,0,0,0,224,224,224,,,,,,,,,,,,,135.00067860000127,0.0006786000012652948,1,170.16113629999745,170.16113629999745,170.16113629999745,170.16113629999745,170.16113629999745,170.16113629999745,170.16113629999745,170.16113629999745,0.4513185000032536,003,P022,2025_May_13_1817,CategoryLocalizer,2021.2.3,59.9428025783916,
135.8,136.0,5,0.0,Stimuli\Blank.png,0,0,0,225,225,225,,,,,,,,,,,,,135.8021865999981,0.0021865999980832385,None,170.9618279999995,170.9618279999995,170.9618279999995,170.9618279999995,170.9618279999995,170.9618279999995,170.9618279999995,170.9618279999995,,003,P022,2025_May_13_1817,CategoryLocalizer,2021.2.3,59.9428025783916,
136.0,136.8,2,0.75,Stimuli\ImageFiles-Set1\Bodies\Bodies_SittingStretch_00002.png,0,0,0,226,226,226,,,,,,,,,,,,,136.0016820000019,0.0016820000018924475,None,171.17867169999954,171.17867169999954,171.17867169999954,171.17867169999954,171.17867169999954,171.17867169999954,171.17867169999954,171.17867169999954,,003,P022,2025_May_13_1817,CategoryLocalizer,2021.2.3,59.9428025783916,
136.8,137.0,5,0.0,Stimuli\Blank.png,0,0,0,227,227,227,,,,,,,,,,,,,136.8197172,0.019717200000002322,None,171.97941790000186,171.97941790000186,171.97941790000186,171.97941790000186,171.97941790000186,171.97941790000186,171.97941790000186,171.97941790000186,,003,P022,2025_May_13_1817,CategoryLocalizer,2021.2.3,59.9428025783916,
137.0,137.8,2,0.75,Stimuli\ImageFiles-Set1\Bodies\Bodies_Lunging_00004.png,0,0,0,228,228,228,,,,,,,,,,,,,137.00340180000057,0.0034018000005744398,None,172.16289139999571,172.16289139999571,172.16289139999571,172.16289139999571,172.16289139999571,172.16289139999571,172.16289139999571,172.16289139999571,,003,P022,2025_May_13_1817,CategoryLocalizer,2021.2.3,59.9428025783916,
137.8,138.0,5,0.0,Stimuli\Blank.png,0,0,0,229,229,229,,,,,,,,,,,,,137.80503840000165,0.0050384000016379105,None,172.9803247999953,172.9803247999953,172.9803247999953,172.9803247999953,172.9803247999953,172.9803247999953,172.9803247999953,172.9803247999953,,003,P022,2025_May_13_1817,CategoryLocalizer,2021.2.3,59.9428025783916,
138.0,138.8,2,0.75,Stimuli\ImageFiles-Set1\Bodies\Bodies_Kicking_00005.png,0,0,0,230,230,230,,,,,,,,,,,,,138.02146509999875,0.021465099998749793,None,173.19720450000023,173.19720450000023,173.19720450000023,173.19720450000023,173.19720450000023,173.19720450000023,173.19720450000023,173.19720450000023,,003,P022,2025_May_13_1817,CategoryLocalizer,2021.2.3,59.9428025783916,
138.8,139.0,5,0.0,Stimuli\Blank.png,0,0,0,231,231,231,,,,,,,,,,,,,138.82073609999497,0.020736099994962842,None,173.981165899997,173.981165899997,173.981165899997,173.981165899997,173.981165899997,173.981165899997,173.981165899997,173.981165899997,,003,P022,2025_May_13_1817,CategoryLocalizer,2021.2.3,59.9428025783916,
139.0,139.8,2,0.75,Stimuli\ImageFiles-Set1\Bodies\Bodies_Jumping_00002.png,0,0,0,232,232,232,,,,,,,,,,,,,139.00500900000043,0.005009000000427477,None,174.1646569000004,174.1646569000004,174.1646569000004,174.1646569000004,174.1646569000004,174.1646569000004,174.1646569000004,174.1646569000004,,003,P022,2025_May_13_1817,CategoryLocalizer,2021.2.3,59.9428025783916,
139.8,140.0,5,0.0,Stimuli\Blank.png,0,0,0,233,233,233,,,,,,,,,,,,,139.80572119999852,0.005721199998504289,None,174.96537259999604,174.96537259999604,174.96537259999604,174.96537259999604,174.96537259999604,174.96537259999604,174.96537259999604,174.96537259999604,,003,P022,2025_May_13_1817,CategoryLocalizer,2021.2.3,59.9428025783916,
140.0,140.8,2,0.75,Stimuli\ImageFiles-Set1\Bodies\Bodies_Crawling_00003.png,0,0,0,234,234,234,,,,,,,,,,,,,140.0063313999999,0.006331399999908172,None,175.18223629999557,175.18223629999557,175.18223629999557,175.18223629999557,175.18223629999557,175.18223629999557,175.18223629999557,175.18223629999557,,003,P022,2025_May_13_1817,CategoryLocalizer,2021.2.3,59.9428025783916,
140.8,141.0,5,0.0,Stimuli\Blank.png,0,0,0,235,235,235,,,,,,,,,,,,,140.8225816999984,0.022581699998397653,None,175.98294519999763,175.98294519999763,175.98294519999763,175.98294519999763,175.98294519999763,175.98294519999763,175.98294519999763,175.98294519999763,,003,P022,2025_May_13_1817,CategoryLocalizer,2021.2.3,59.9428025783916,
141.0,141.8,2,0.75,Stimuli\ImageFiles-Set1\Bodies\Bodies_Crawling_00003.png,1,1,0,236,236,236,,,,,,,,,,,,,141.0062321000005,0.006232100000488572,1,176.16643099999783,176.16643099999783,176.16643099999783,176.16643099999783,176.16643099999783,176.16643099999783,176.16643099999783,176.16643099999783,0.5469481000036467,003,P022,2025_May_13_1817,CategoryLocalizer,2021.2.3,59.9428025783916,
141.8,142.0,5,0.0,Stimuli\Blank.png,0,0,0,237,237,237,,,,,,,,,,,,,141.80759459999535,0.0075945999953432874,None,176.96720970000024,176.96720970000024,176.96720970000024,176.96720970000024,176.96720970000024,176.96720970000024,176.96720970000024,176.96720970000024,,003,P022,2025_May_13_1817,CategoryLocalizer,2021.2.3,59.9428025783916,
142.0,142.8,2,0.75,Stimuli\ImageFiles-Set1\Bodies\Bodies_DownwardDog_00006.png,0,0,0,238,238,238,,,,,,,,,,,,,142.00713030000043,0.0071303000004263595,None,177.1673140999992,177.1673140999992,177.1673140999992,177.1673140999992,177.1673140999992,177.1673140999992,177.1673140999992,177.1673140999992,,003,P022,2025_May_13_1817,CategoryLocalizer,2021.2.3,59.9428025783916,
142.8,143.0,5,0.0,Stimuli\Blank.png,0,0,0,239,239,239,,,,,,,,,,,,,142.80753819999518,0.007538199995167361,None,177.96809969999595,177.96809969999595,177.96809969999595,177.96809969999595,177.96809969999595,177.96809969999595,177.96809969999595,177.96809969999595,,003,P022,2025_May_13_1817,CategoryLocalizer,2021.2.3,59.9428025783916,
143.0,143.8,2,0.75,Stimuli\ImageFiles-Set1\Bodies\Bodies_QuadStretch_00001.png,0,0,0,240,240,240,,,,,,,,,,,,,143.0084044999967,0.008404499996686354,None,178.16820580000058,178.16820580000058,178.16820580000058,178.16820580000058,178.16820580000058,178.16820580000058,178.16820580000058,178.16820580000058,,003,P022,2025_May_13_1817,CategoryLocalizer,2021.2.3,59.9428025783916,
143.8,144.0,5,0.0,Stimuli\Blank.png,0,0,0,241,241,241,,,,,,,,,,,,,143.8102768999961,0.010276899996085831,None,178.98559679999744,178.98559679999744,178.98559679999744,178.98559679999744,178.98559679999744,178.98559679999744,178.98559679999744,178.98559679999744,,003,P022,2025_May_13_1817,CategoryLocalizer,2021.2.3,59.9428025783916,
144.0,144.8,2,0.75,Stimuli\ImageFiles-Set1\Bodies\Bodies_SittingStretch_00005.png,0,0,0,242,242,242,,,,,,,,,,,,,144.0255668999962,0.02556689999619266,None,179.18576949999988,179.18576949999988,179.18576949999988,179.18576949999988,179.18576949999988,179.18576949999988,179.18576949999988,179.18576949999988,,003,P022,2025_May_13_1817,CategoryLocalizer,2021.2.3,59.9428025783916,
144.8,145.0,5,0.0,Stimuli\Blank.png,0,0,0,243,243,243,,,,,,,,,,,,,144.80949639999744,0.009496399997431126,None,179.96979830000055,179.96979830000055,179.96979830000055,179.96979830000055,179.96979830000055,179.96979830000055,179.96979830000055,179.96979830000055,,003,P022,2025_May_13_1817,CategoryLocalizer,2021.2.3,59.9428025783916,
145.0,145.8,2,0.75,Stimuli\ImageFiles-Set1\Bodies\Bodies_Falling_00006.png,0,0,0,244,244,244,,,,,,,,,,,,,145.01028940000106,0.010289400001056492,None,180.1866521999982,180.1866521999982,180.1866521999982,180.1866521999982,180.1866521999982,180.1866521999982,180.1866521999982,180.1866521999982,,003,P022,2025_May_13_1817,CategoryLocalizer,2021.2.3,59.9428025783916,
145.8,146.0,5,0.0,Stimuli\Blank.png,0,0,0,245,245,245,,,,,,,,,,,,,145.82768509999732,0.0276850999973135,None,180.98743560000003,180.98743560000003,180.98743560000003,180.98743560000003,180.98743560000003,180.98743560000003,180.98743560000003,180.98743560000003,,003,P022,2025_May_13_1817,CategoryLocalizer,2021.2.3,59.9428025783916,
146.0,146.8,2,0.75,Stimuli\ImageFiles-Set1\Bodies\Bodies_Standing_00007.png,0,0,0,246,246,246,,,,,,,,,,,,,146.0106255999999,0.010625599999912083,None,181.17085699999734,181.17085699999734,181.17085699999734,181.17085699999734,181.17085699999734,181.17085699999734,181.17085699999734,181.17085699999734,,003,P022,2025_May_13_1817,CategoryLocalizer,2021.2.3,59.9428025783916,
146.8,147.0,5,0.0,Stimuli\Blank.png,0,0,0,247,247,247,,,,,,,,,,,,,146.81221160000132,0.012211600001307943,None,181.97154030000092,181.97154030000092,181.97154030000092,181.97154030000092,181.97154030000092,181.97154030000092,181.97154030000092,181.97154030000092,,003,P022,2025_May_13_1817,CategoryLocalizer,2021.2.3,59.9428025783916,
147.0,147.8,2,0.75,Stimuli\ImageFiles-Set1\Bodies\Bodies_Lunging_00003.png,0,0,0,248,248,248,,,,,,,,,,,,,147.0117403999975,0.011740399997506756,None,182.17174249999516,182.17174249999516,182.17174249999516,182.17174249999516,182.17174249999516,182.17174249999516,182.17174249999516,182.17174249999516,,003,P022,2025_May_13_1817,CategoryLocalizer,2021.2.3,59.9428025783916,
147.8,148.0,5,0.0,Stimuli\Blank.png,0,0,0,249,249,249,,,,,,,,,,,,,147.81246069999906,0.012460699999053304,None,182.97244630000205,182.97244630000205,182.97244630000205,182.97244630000205,182.97244630000205,182.97244630000205,182.97244630000205,182.97244630000205,,003,P022,2025_May_13_1817,CategoryLocalizer,2021.2.3,59.9428025783916,
148.0,148.8,2,0.75,Stimuli\ImageFiles-Set1\Bodies\Bodies_Pushing_00005.png,0,0,0,250,250,250,,,,,,,,,,,,,148.01493689999916,0.014936899999156594,None,183.18931359999988,183.18931359999988,183.18931359999988,183.18931359999988,183.18931359999988,183.18931359999988,183.18931359999988,183.18931359999988,,003,P022,2025_May_13_1817,CategoryLocalizer,2021.2.3,59.9428025783916,
148.8,149.0,5,0.0,Stimuli\Blank.png,0,0,0,251,251,251,,,,,,,,,,,,,148.829608,0.029607999999996082,None,183.99006309999822,183.99006309999822,183.99006309999822,183.99006309999822,183.99006309999822,183.99006309999822,183.99006309999822,183.99006309999822,,003,P022,2025_May_13_1817,CategoryLocalizer,2021.2.3,59.9428025783916,
149.0,149.8,2,0.75,Stimuli\ImageFiles-Set1\Bodies\Bodies_SittingChair_00001.png,0,0,0,252,252,252,,,,,,,,,,,,,149.01517719999538,0.015177199995378032,None,184.19019819999812,184.19019819999812,184.19019819999812,184.19019819999812,184.19019819999812,184.19019819999812,184.19019819999812,184.19019819999812,,003,P022,2025_May_13_1817,CategoryLocalizer,2021.2.3,59.9428025783916,
149.8,150.0,5,0.0,Stimuli\Blank.png,0,0,0,253,253,253,,,,,,,,,,,,,149.81438399999752,0.014383999997505725,None,184.97422399999778,184.97422399999778,184.97422399999778,184.97422399999778,184.97422399999778,184.97422399999778,184.97422399999778,184.97422399999778,,003,P022,2025_May_13_1817,CategoryLocalizer,2021.2.3,59.9428025783916,
150.0,150.8,2,0.75,Stimuli\ImageFiles-Set1\Bodies\Bodies_CobraPose_00003.png,0,0,0,254,254,254,,,,,,,,,,,,,150.01573359999747,0.015733599997474812,None,185.19108469999628,185.19108469999628,185.19108469999628,185.19108469999628,185.19108469999628,185.19108469999628,185.19108469999628,185.19108469999628,,003,P022,2025_May_13_1817,CategoryLocalizer,2021.2.3,59.9428025783916,
150.8,151.0,5,0.0,Stimuli\Blank.png,0,0,0,255,255,255,,,,,,,,,,,,,150.81572269999742,0.015722699997411382,None,185.97512509999797,185.97512509999797,185.97512509999797,185.97512509999797,185.97512509999797,185.97512509999797,185.97512509999797,185.97512509999797,,003,P022,2025_May_13_1817,CategoryLocalizer,2021.2.3,59.9428025783916,
151.0,151.8,2,0.75,Stimuli\ImageFiles-Set1\Bodies\Bodies_Walking_00002.png,0,0,0,256,256,256,,,,,,,,,,,,,150.99876750000112,-0.0012324999988777563,None,186.15859239999554,186.15859239999554,186.15859239999554,186.15859239999554,186.15859239999554,186.15859239999554,186.15859239999554,186.15859239999554,,003,P022,2025_May_13_1817,CategoryLocalizer,2021.2.3,59.9428025783916,
151.8,152.0,5,0.0,Stimuli\Blank.png,0,0,0,257,257,257,,,,,,,,,,,,,151.79961190000176,-0.0003880999982470712,None,186.95931539999583,186.95931539999583,186.95931539999583,186.95931539999583,186.95931539999583,186.95931539999583,186.95931539999583,186.95931539999583,,003,P022,2025_May_13_1817,CategoryLocalizer,2021.2.3,59.9428025783916,
152.0,164.0,0,0.0,Stimuli\Blank.png,0,0,0,258,258,258,,,,,,,,,,,,,151.9993972000011,-0.0006027999988873489,None,187.15948619999836,187.15948619999836,187.15948619999836,187.15948619999836,187.15948619999836,187.15948619999836,187.15948619999836,187.15948619999836,,003,P022,2025_May_13_1817,CategoryLocalizer,2021.2.3,59.9428025783916,
164.0,164.8,4,0.75,Stimuli\ImageFiles-Set1\Scenes\Scenes_043.png,0,0,0,259,259,259,,,,,,,,,,,,,164.01116699999693,0.011166999996930826,None,199.1867798999956,199.1867798999956,199.1867798999956,199.1867798999956,199.1867798999956,199.1867798999956,199.1867798999956,199.1867798999956,,003,P022,2025_May_13_1817,CategoryLocalizer,2021.2.3,59.9428025783916,
164.8,165.0,5,0.0,Stimuli\Blank.png,0,0,0,260,260,260,,,,,,,,,,,,,164.82703570000012,0.027035700000112683,None,199.9874889999992,199.9874889999992,199.9874889999992,199.9874889999992,199.9874889999992,199.9874889999992,199.9874889999992,199.9874889999992,,003,P022,2025_May_13_1817,CategoryLocalizer,2021.2.3,59.9428025783916,
165.0,165.8,4,0.75,Stimuli\ImageFiles-Set1\Scenes\Scenes_034.png,0,0,0,261,261,261,,,,,,,,,,,,,165.0115289999958,0.01152899999578949,None,200.18771299999935,200.18771299999935,200.18771299999935,200.18771299999935,200.18771299999935,200.18771299999935,200.18771299999935,200.18771299999935,,003,P022,2025_May_13_1817,CategoryLocalizer,2021.2.3,59.9428025783916,
165.8,166.0,5,0.0,Stimuli\Blank.png,0,0,0,262,262,262,,,,,,,,,,,,,165.8300242999976,0.030024299997592152,None,201.00502309999865,201.00502309999865,201.00502309999865,201.00502309999865,201.00502309999865,201.00502309999865,201.00502309999865,201.00502309999865,,003,P022,2025_May_13_1817,CategoryLocalizer,2021.2.3,59.9428025783916,
166.0,166.8,4,0.75,Stimuli\ImageFiles-Set1\Scenes\Scenes_020.png,0,0,0,263,263,263,,,,,,,,,,,,,166.02985619999527,0.029856199995265342,None,201.20524650000152,201.20524650000152,201.20524650000152,201.20524650000152,201.20524650000152,201.20524650000152,201.20524650000152,201.20524650000152,,003,P022,2025_May_13_1817,CategoryLocalizer,2021.2.3,59.9428025783916,
166.8,167.0,5,0.0,Stimuli\Blank.png,0,0,0,264,264,264,,,,,,,,,,,,,166.82893830000103,0.02893830000101616,None,201.98931299999822,201.98931299999822,201.98931299999822,201.98931299999822,201.98931299999822,201.98931299999822,201.98931299999822,201.98931299999822,,003,P022,2025_May_13_1817,CategoryLocalizer,2021.2.3,59.9428025783916,
167.0,167.8,4,0.75,Stimuli\ImageFiles-Set1\Scenes\Scenes_042.png,0,0,0,265,265,265,,,,,,,,,,,,,167.0129070999974,0.012907099997391924,None,202.18944099999499,202.18944099999499,202.18944099999499,202.18944099999499,202.18944099999499,202.18944099999499,202.18944099999499,202.18944099999499,,003,P022,2025_May_13_1817,CategoryLocalizer,2021.2.3,59.9428025783916,
167.8,168.0,5,0.0,Stimuli\Blank.png,0,0,0,266,266,266,,,,,,,,,,,,,167.8298328000019,0.029832800001884152,None,202.99014399999578,202.99014399999578,202.99014399999578,202.99014399999578,202.99014399999578,202.99014399999578,202.99014399999578,202.99014399999578,,003,P022,2025_May_13_1817,CategoryLocalizer,2021.2.3,59.9428025783916,
168.0,168.8,4,0.75,Stimuli\ImageFiles-Set1\Scenes\Scenes_031.png,0,0,0,267,267,267,,,,,,,,,,,,,168.0151532999953,0.015153299995290581,None,203.1903311999995,203.1903311999995,203.1903311999995,203.1903311999995,203.1903311999995,203.1903311999995,203.1903311999995,203.1903311999995,,003,P022,2025_May_13_1817,CategoryLocalizer,2021.2.3,59.9428025783916,
168.8,169.0,5,0.0,Stimuli\Blank.png,0,0,0,268,268,268,,,,,,,,,,,,,168.81442599999718,0.014425999997172312,None,203.97432419999677,203.97432419999677,203.97432419999677,203.97432419999677,203.97432419999677,203.97432419999677,203.97432419999677,203.97432419999677,,003,P022,2025_May_13_1817,CategoryLocalizer,2021.2.3,59.9428025783916,
169.0,169.8,4,0.75,Stimuli\ImageFiles-Set1\Scenes\Scenes_050.png,0,0,0,269,269,269,,,,,,,,,,,,,169.0146853999977,0.014685399997688364,None,204.19117949999782,204.19117949999782,204.19117949999782,204.19117949999782,204.19117949999782,204.19117949999782,204.19117949999782,204.19117949999782,,003,P022,2025_May_13_1817,CategoryLocalizer,2021.2.3,59.9428025783916,
169.8,170.0,5,0.0,Stimuli\Blank.png,0,0,0,270,270,270,,,,,,,,,,,,,169.8336263999954,0.033626399995398515,None,204.99194649999845,204.99194649999845,204.99194649999845,204.99194649999845,204.99194649999845,204.99194649999845,204.99194649999845,204.99194649999845,,003,P022,2025_May_13_1817,CategoryLocalizer,2021.2.3,59.9428025783916,
170.0,170.8,4,0.75,Stimuli\ImageFiles-Set1\Scenes\Scenes_050.png,1,1,0,271,271,271,,,,,,,,,,,,,170.001877900002,0.0018779000020003878,1,205.17541650000203,205.17541650000203,205.17541650000203,205.17541650000203,205.17541650000203,205.17541650000203,205.17541650000203,205.17541650000203,0.561198899995361,003,P022,2025_May_13_1817,CategoryLocalizer,2021.2.3,59.9428025783916,
170.8,171.0,5,0.0,Stimuli\Blank.png,0,0,0,272,272,272,,,,,,,,,,,,,170.81690379999782,0.01690379999780589,None,205.97620689999894,205.97620689999894,205.97620689999894,205.97620689999894,205.97620689999894,205.97620689999894,205.97620689999894,205.97620689999894,,003,P022,2025_May_13_1817,CategoryLocalizer,2021.2.3,59.9428025783916,
171.0,171.8,4,0.75,Stimuli\ImageFiles-Set1\Scenes\Scenes_007.png,0,0,0,273,273,273,,,,,,,,,,,,,171.00039069999912,0.0003906999991158955,None,206.1929938999965,206.1929938999965,206.1929938999965,206.1929938999965,206.1929938999965,206.1929938999965,206.1929938999965,206.1929938999965,,003,P022,2025_May_13_1817,CategoryLocalizer,2021.2.3,59.9428025783916,
171.8,172.0,5,0.0,Stimuli\Blank.png,0,0,0,274,274,274,,,,,,,,,,,,,171.83429279999837,0.03429279999835444,None,206.9936927000017,206.9936927000017,206.9936927000017,206.9936927000017,206.9936927000017,206.9936927000017,206.9936927000017,206.9936927000017,,003,P022,2025_May_13_1817,CategoryLocalizer,2021.2.3,59.9428025783916,
172.0,172.8,4,0.75,Stimuli\ImageFiles-Set1\Scenes\Scenes_018.png,0,0,0,275,275,275,,,,,,,,,,,,,172.00083540000196,0.0008354000019608065,None,207.17723529999785,207.17723529999785,207.17723529999785,207.17723529999785,207.17723529999785,207.17723529999785,207.17723529999785,207.17723529999785,,003,P022,2025_May_13_1817,CategoryLocalizer,2021.2.3,59.9428025783916,
172.8,173.0,5,0.0,Stimuli\Blank.png,0,0,0,276,276,276,,,,,,,,,,,,,172.82027789999847,0.020277899998461635,None,207.99459099999513,207.99459099999513,207.99459099999513,207.99459099999513,207.99459099999513,207.99459099999513,207.99459099999513,207.99459099999513,,003,P022,2025_May_13_1817,CategoryLocalizer,2021.2.3,59.9428025783916,
173.0,173.8,4,0.75,Stimuli\ImageFiles-Set1\Scenes\Scenes_039.png,1,1,0,277,277,277,,,,,,,,,,,,,173.01968099999795,0.019680999997945037,None,208.19475809999858,208.19475809999858,208.19475809999858,208.19475809999858,208.19475809999858,208.19475809999858,208.19475809999858,208.19475809999858,,003,P022,2025_May_13_1817,CategoryLocalizer,2021.2.3,59.9428025783916,
173.8,174.0,5,0.0,Stimuli\Blank.png,0,0,0,278,278,278,,,,,,,,,,,,,173.81870749999507,0.018707499995059607,None,208.97878089999722,208.97878089999722,208.97878089999722,208.97878089999722,208.97878089999722,208.97878089999722,208.97878089999722,208.97878089999722,,003,P022,2025_May_13_1817,CategoryLocalizer,2021.2.3,59.9428025783916,
174.0,174.8,4,0.75,Stimuli\ImageFiles-Set1\Scenes\Scenes_035.png,0,0,0,279,279,279,,,,,,,,,,,,,174.00198649999948,0.0019864999994751997,None,209.1789499000006,209.1789499000006,209.1789499000006,209.1789499000006,209.1789499000006,209.1789499000006,209.1789499000006,209.1789499000006,,003,P022,2025_May_13_1817,CategoryLocalizer,2021.2.3,59.9428025783916,
174.8,175.0,5,0.0,Stimuli\Blank.png,0,0,0,280,280,280,,,,,,,,,,,,,174.8205969999981,0.020596999998076626,None,209.97968409999885,209.97968409999885,209.97968409999885,209.97968409999885,209.97968409999885,209.97968409999885,209.97968409999885,209.97968409999885,,003,P022,2025_May_13_1817,CategoryLocalizer,2021.2.3,59.9428025783916,
175.0,175.8,4,0.75,Stimuli\ImageFiles-Set1\Scenes\Scenes_035.png,0,0,0,281,281,281,,,,,,,,,,,,,175.0049704999983,0.004970499998307787,1,210.17989239999588,210.17989239999588,210.17989239999588,210.17989239999588,210.17989239999588,210.17989239999588,210.17989239999588,210.17989239999588,0.5024948999998742,003,P022,2025_May_13_1817,CategoryLocalizer,2021.2.3,59.9428025783916,
175.8,176.0,5,0.0,Stimuli\Blank.png,0,0,0,282,282,282,,,,,,,,,,,,,175.82157300000108,0.02157300000106943,None,210.98055239999667,210.98055239999667,210.98055239999667,210.98055239999667,210.98055239999667,210.98055239999667,210.98055239999667,210.98055239999667,,003,P022,2025_May_13_1817,CategoryLocalizer,2021.2.3,59.9428025783916,
176.0,176.8,4,0.75,Stimuli\ImageFiles-Set1\Scenes\Scenes_047.png,0,0,0,283,283,283,,,,,,,,,,,,,176.00416389999737,0.004163899997365661,None,211.18071480000071,211.18071480000071,211.18071480000071,211.18071480000071,211.18071480000071,211.18071480000071,211.18071480000071,211.18071480000071,,003,P022,2025_May_13_1817,CategoryLocalizer,2021.2.3,59.9428025783916,
176.8,177.0,5,0.0,Stimuli\Blank.png,0,0,0,284,284,284,,,,,,,,,,,,,176.82181309999578,0.02181309999576797,None,211.98142350000126,211.98142350000126,211.98142350000126,211.98142350000126,211.98142350000126,211.98142350000126,211.98142350000126,211.98142350000126,,003,P022,2025_May_13_1817,CategoryLocalizer,2021.2.3,59.9428025783916,
177.0,177.8,4,0.75,Stimuli\ImageFiles-Set1\Scenes\Scenes_006.png,0,0,0,285,285,285,,,,,,,,,,,,,177.00513689999934,0.005136899999342859,None,212.18163379999896,212.18163379999896,212.18163379999896,212.18163379999896,212.18163379999896,212.18163379999896,212.18163379999896,212.18163379999896,,003,P022,2025_May_13_1817,CategoryLocalizer,2021.2.3,59.9428025783916,
