eventStartTime,eventEndTime,eventCond,imSize,imFile,repeatedImage,responseEvent,Events.thisRepN,Events.thisTrialN,Events.thisN,Events.thisIndex,Instructions.started,Instructions.stopped,participantReadyResponse.keys,participantReadyResponse.rt,participantReadyResponse.started,participantReadyResponse.stopped,startWaitforTrigger,triggerResponse.keys,triggerResponse.rt,triggerResponse.started,triggerResponse.stopped,globalTimer,actualStartTime,startTimingDiff,participantResponse.keys,participantResponse.started,participantResponse.stopped,image.started,image.stopped,fixationOutside.started,fixationOutside.stopped,fixationInside.started,fixationInside.stopped,participantResponse.rt,session,participant,date,expName,psychopyVersion,frameRate,
,,,,,,,,,,,9.786440900003072,None,1,8.370747500004654,9.786440900003072,None,,,,,,,,,,,,,,,,,,,001,P022,2025_May_13_1720,CategoryLocalizer,2021.2.3,59.8986395209237,
,,,,,,,,,,,,,,,,,18.1621890000024,5,13.785090500001388,18.175435600001947,None,,,,,,,,,,,,,,001,P022,2025_May_13_1720,CategoryLocalizer,2021.2.3,59.8986395209237,
0.0,12.0,0,0.0,Stimuli\Blank.png,0,0,0,0,0,0,,,,,,,,,,,,31.973428400000557,0.031345600000349805,0.031345600000349805,None,32.02097679999861,None,32.02097679999861,None,32.02097679999861,None,32.02097679999861,None,,001,P022,2025_May_13_1720,CategoryLocalizer,2021.2.3,59.8986395209237,
12.0,12.8,1,0.75,Stimuli\ImageFiles-Set1\Objects\Object_Pipe_00001.png,0,0,0,1,1,1,,,,,,,,,,,,,12.011341400000674,0.011341400000674184,None,43.99822459999996,43.99822459999996,43.99822459999996,43.99822459999996,43.99822459999996,43.99822459999996,43.99822459999996,43.99822459999996,,001,P022,2025_May_13_1720,CategoryLocalizer,2021.2.3,59.8986395209237,
12.8,13.0,5,0.0,Stimuli\Blank.png,0,0,0,2,2,2,,,,,,,,,,,,,12.81080920000386,0.010809200003858876,None,44.79895110000507,44.79895110000507,44.79895110000507,44.79895110000507,44.79895110000507,44.79895110000507,44.79895110000507,44.79895110000507,,001,P022,2025_May_13_1720,CategoryLocalizer,2021.2.3,59.8986395209237,
13.0,13.8,1,0.75,Stimuli\ImageFiles-Set1\Objects\Object_Peanut_00001.png,0,0,0,3,3,3,,,,,,,,,,,,,13.01123550000193,0.011235500001930632,None,45.01581140000053,45.01581140000053,45.01581140000053,45.01581140000053,45.01581140000053,45.01581140000053,45.01581140000053,45.01581140000053,,001,P022,2025_May_13_1720,CategoryLocalizer,2021.2.3,59.8986395209237,
13.8,14.0,5,0.0,Stimuli\Blank.png,0,0,0,4,4,4,,,,,,,,,,,,,13.830871700003627,0.030871700003626046,None,45.833197600004496,45.833197600004496,45.833197600004496,45.833197600004496,45.833197600004496,45.833197600004496,45.833197600004496,45.833197600004496,,001,P022,2025_May_13_1720,CategoryLocalizer,2021.2.3,59.8986395209237,
14.0,14.8,1,0.75,Stimuli\ImageFiles-Set1\Objects\Object_Peanut_00001.png,1,1,0,5,5,5,,,,,,,,,,,,,14.030360500000825,0.030360500000824686,1,46.03336670000135,46.03336670000135,46.03336670000135,46.03336670000135,46.03336670000135,46.03336670000135,46.03336670000135,46.03336670000135,0.39582900000095833,001,P022,2025_May_13_1720,CategoryLocalizer,2021.2.3,59.8986395209237,
14.8,15.0,5,0.0,Stimuli\Blank.png,0,0,0,6,6,6,,,,,,,,,,,,,14.829320400000142,0.02932040000014169,None,46.817435700002534,46.817435700002534,46.817435700002534,46.817435700002534,46.817435700002534,46.817435700002534,46.817435700002534,46.817435700002534,,001,P022,2025_May_13_1720,CategoryLocalizer,2021.2.3,59.8986395209237,
15.0,15.8,1,0.75,Stimuli\ImageFiles-Set1\Objects\Object_Brush_00001.png,0,0,0,7,7,7,,,,,,,,,,,,,15.014842000004137,0.014842000004136935,None,47.017561900000146,47.017561900000146,47.017561900000146,47.017561900000146,47.017561900000146,47.017561900000146,47.017561900000146,47.017561900000146,,001,P022,2025_May_13_1720,CategoryLocalizer,2021.2.3,59.8986395209237,
15.8,16.0,5,0.0,Stimuli\Blank.png,0,0,0,8,8,8,,,,,,,,,,,,,15.830284200004826,0.030284200004825124,None,47.818307800000184,47.818307800000184,47.818307800000184,47.818307800000184,47.818307800000184,47.818307800000184,47.818307800000184,47.818307800000184,,001,P022,2025_May_13_1720,CategoryLocalizer,2021.2.3,59.8986395209237,
16.0,16.8,1,0.75,Stimuli\ImageFiles-Set1\Objects\Object_Screw_00001.png,0,0,0,9,9,9,,,,,,,,,,,,,16.013781699999527,0.013781699999526609,None,48.00176289999945,48.00176289999945,48.00176289999945,48.00176289999945,48.00176289999945,48.00176289999945,48.00176289999945,48.00176289999945,,001,P022,2025_May_13_1720,CategoryLocalizer,2021.2.3,59.8986395209237,
16.8,17.0,5,0.0,Stimuli\Blank.png,0,0,0,10,10,10,,,,,,,,,,,,,16.814982800002326,0.014982800002325547,None,48.802481999999145,48.802481999999145,48.802481999999145,48.802481999999145,48.802481999999145,48.802481999999145,48.802481999999145,48.802481999999145,,001,P022,2025_May_13_1720,CategoryLocalizer,2021.2.3,59.8986395209237,
17.0,17.8,1,0.75,Stimuli\ImageFiles-Set1\Objects\Object_Door_00001.png,0,0,0,11,11,11,,,,,,,,,,,,,17.01467910000065,0.01467910000064876,None,49.00265850000142,49.00265850000142,49.00265850000142,49.00265850000142,49.00265850000142,49.00265850000142,49.00265850000142,49.00265850000142,,001,P022,2025_May_13_1720,CategoryLocalizer,2021.2.3,59.8986395209237,
17.8,18.0,5,0.0,Stimuli\Blank.png,0,0,0,12,12,12,,,,,,,,,,,,,17.815225600003032,0.015225600003031303,None,49.80337359999976,49.80337359999976,49.80337359999976,49.80337359999976,49.80337359999976,49.80337359999976,49.80337359999976,49.80337359999976,,001,P022,2025_May_13_1720,CategoryLocalizer,2021.2.3,59.8986395209237,
18.0,18.8,1,0.75,Stimuli\ImageFiles-Set1\Objects\Object_Wagon_00001.png,0,0,0,13,13,13,,,,,,,,,,,,,18.015490900004806,0.015490900004806463,None,50.003532599999744,50.003532599999744,50.003532599999744,50.003532599999744,50.003532599999744,50.003532599999744,50.003532599999744,50.003532599999744,,001,P022,2025_May_13_1720,CategoryLocalizer,2021.2.3,59.8986395209237,
18.8,19.0,5,0.0,Stimuli\Blank.png,0,0,0,14,14,14,,,,,,,,,,,,,18.799868600006448,-0.00013139999355260557,None,50.78756430000067,50.78756430000067,50.78756430000067,50.78756430000067,50.78756430000067,50.78756430000067,50.78756430000067,50.78756430000067,,001,P022,2025_May_13_1720,CategoryLocalizer,2021.2.3,59.8986395209237,
19.0,19.8,1,0.75,Stimuli\ImageFiles-Set1\Objects\Object_Whistle_00001.png,0,0,0,15,15,15,,,,,,,,,,,,,18.999593500004266,-0.0004064999957336113,None,50.98773510000319,50.98773510000319,50.98773510000319,50.98773510000319,50.98773510000319,50.98773510000319,50.98773510000319,50.98773510000319,,001,P022,2025_May_13_1720,CategoryLocalizer,2021.2.3,59.8986395209237,
19.8,20.0,5,0.0,Stimuli\Blank.png,0,0,0,16,16,16,,,,,,,,,,,,,19.801148500002455,0.0011485000024542558,None,51.78844730000128,51.78844730000128,51.78844730000128,51.78844730000128,51.78844730000128,51.78844730000128,51.78844730000128,51.78844730000128,,001,P022,2025_May_13_1720,CategoryLocalizer,2021.2.3,59.8986395209237,
20.0,20.8,1,0.75,Stimuli\ImageFiles-Set1\Objects\Object_Pillow_00001.png,0,0,0,17,17,17,,,,,,,,,,,,,20.001326300000073,0.0013263000000733882,None,52.005325700003596,52.005325700003596,52.005325700003596,52.005325700003596,52.005325700003596,52.005325700003596,52.005325700003596,52.005325700003596,,001,P022,2025_May_13_1720,CategoryLocalizer,2021.2.3,59.8986395209237,
20.8,21.0,5,0.0,Stimuli\Blank.png,0,0,0,18,18,18,,,,,,,,,,,,,20.819765899999766,0.01976589999976497,None,52.82270029999927,52.82270029999927,52.82270029999927,52.82270029999927,52.82270029999927,52.82270029999927,52.82270029999927,52.82270029999927,,001,P022,2025_May_13_1720,CategoryLocalizer,2021.2.3,59.8986395209237,
21.0,21.8,1,0.75,Stimuli\ImageFiles-Set1\Objects\Object_PepperShaker_00001.png,0,0,0,19,19,19,,,,,,,,,,,,,21.020010200001707,0.020010200001706835,None,53.02290940000239,53.02290940000239,53.02290940000239,53.02290940000239,53.02290940000239,53.02290940000239,53.02290940000239,53.02290940000239,,001,P022,2025_May_13_1720,CategoryLocalizer,2021.2.3,59.8986395209237,
21.8,22.0,5,0.0,Stimuli\Blank.png,0,0,0,20,20,20,,,,,,,,,,,,,21.81929890000174,0.019298900001739838,None,53.80694520000543,53.80694520000543,53.80694520000543,53.80694520000543,53.80694520000543,53.80694520000543,53.80694520000543,53.80694520000543,,001,P022,2025_May_13_1720,CategoryLocalizer,2021.2.3,59.8986395209237,
22.0,22.8,1,0.75,Stimuli\ImageFiles-Set1\Objects\Object_Dice_00001.png,1,1,0,21,21,21,,,,,,,,,,,,,22.00240230000054,0.002402300000539981,None,53.99039389999962,53.99039389999962,53.99039389999962,53.99039389999962,53.99039389999962,53.99039389999962,53.99039389999962,53.99039389999962,,001,P022,2025_May_13_1720,CategoryLocalizer,2021.2.3,59.8986395209237,
22.8,23.0,5,0.0,Stimuli\Blank.png,0,0,0,22,22,22,,,,,,,,,,,,,22.80434629999945,0.00434629999945102,None,54.79111499999999,54.79111499999999,54.79111499999999,54.79111499999999,54.79111499999999,54.79111499999999,54.79111499999999,54.79111499999999,,001,P022,2025_May_13_1720,CategoryLocalizer,2021.2.3,59.8986395209237,
23.0,23.8,1,0.75,Stimuli\ImageFiles-Set1\Objects\Object_Recliner_00001.png,0,0,0,23,23,23,,,,,,,,,,,,,23.005143000002136,0.005143000002135523,None,55.00797430000239,55.00797430000239,55.00797430000239,55.00797430000239,55.00797430000239,55.00797430000239,55.00797430000239,55.00797430000239,,001,P022,2025_May_13_1720,CategoryLocalizer,2021.2.3,59.8986395209237,
23.8,24.0,5,0.0,Stimuli\Blank.png,0,0,0,24,24,24,,,,,,,,,,,,,23.821518200005812,0.021518200005811394,None,55.80868040000496,55.80868040000496,55.80868040000496,55.80868040000496,55.80868040000496,55.80868040000496,55.80868040000496,55.80868040000496,,001,P022,2025_May_13_1720,CategoryLocalizer,2021.2.3,59.8986395209237,
24.0,24.8,1,0.75,Stimuli\ImageFiles-Set1\Objects\Object_Recliner_00001.png,0,0,0,25,25,25,,,,,,,,,,,,,24.00416540000151,0.004165400001511443,1,55.9921617,55.9921617,55.9921617,55.9921617,55.9921617,55.9921617,55.9921617,55.9921617,0.6742278000019724,001,P022,2025_May_13_1720,CategoryLocalizer,2021.2.3,59.8986395209237,
24.8,25.0,5,0.0,Stimuli\Blank.png,0,0,0,26,26,26,,,,,,,,,,,,,24.80540900000051,0.005409000000508257,None,56.79288060000545,56.79288060000545,56.79288060000545,56.79288060000545,56.79288060000545,56.79288060000545,56.79288060000545,56.79288060000545,,001,P022,2025_May_13_1720,CategoryLocalizer,2021.2.3,59.8986395209237,
25.0,25.8,1,0.75,Stimuli\ImageFiles-Set1\Objects\Object_Motorcycle_00001.png,0,0,0,27,27,27,,,,,,,,,,,,,25.005484400004207,0.005484400004206691,None,56.99304839999968,56.99304839999968,56.99304839999968,56.99304839999968,56.99304839999968,56.99304839999968,56.99304839999968,56.99304839999968,,001,P022,2025_May_13_1720,CategoryLocalizer,2021.2.3,59.8986395209237,
25.8,26.0,5,0.0,Stimuli\Blank.png,0,0,0,28,28,28,,,,,,,,,,,,,25.80569910000486,0.005699100004857627,None,57.79376580000098,57.79376580000098,57.79376580000098,57.79376580000098,57.79376580000098,57.79376580000098,57.79376580000098,57.79376580000098,,001,P022,2025_May_13_1720,CategoryLocalizer,2021.2.3,59.8986395209237,
26.0,26.8,1,0.75,Stimuli\ImageFiles-Set1\Objects\Object_Glasses_00001.png,0,0,0,29,29,29,,,,,,,,,,,,,26.00634560000617,0.006345600006170571,None,57.993942300003255,57.993942300003255,57.993942300003255,57.993942300003255,57.993942300003255,57.993942300003255,57.993942300003255,57.993942300003255,,001,P022,2025_May_13_1720,CategoryLocalizer,2021.2.3,59.8986395209237,
26.8,27.0,5,0.0,Stimuli\Blank.png,0,0,0,30,30,30,,,,,,,,,,,,,26.807275999999547,0.007275999999546201,None,58.7947290000011,58.7947290000011,58.7947290000011,58.7947290000011,58.7947290000011,58.7947290000011,58.7947290000011,58.7947290000011,,001,P022,2025_May_13_1720,CategoryLocalizer,2021.2.3,59.8986395209237,
27.0,27.8,1,0.75,Stimuli\ImageFiles-Set1\Objects\Object_TeaBag_00001.png,0,0,0,31,31,31,,,,,,,,,,,,,27.007043900004646,0.007043900004646275,None,59.01156810000248,59.01156810000248,59.01156810000248,59.01156810000248,59.01156810000248,59.01156810000248,59.01156810000248,59.01156810000248,,001,P022,2025_May_13_1720,CategoryLocalizer,2021.2.3,59.8986395209237,
27.8,28.0,5,0.0,Stimuli\Blank.png,0,0,0,32,32,32,,,,,,,,,,,,,27.824307400005637,0.024307400005636026,None,59.81221670000377,59.81221670000377,59.81221670000377,59.81221670000377,59.81221670000377,59.81221670000377,59.81221670000377,59.81221670000377,,001,P022,2025_May_13_1720,CategoryLocalizer,2021.2.3,59.8986395209237,
28.0,28.8,2,0.75,Stimuli\ImageFiles-Set1\Bodies\Bodies_Hanging_00006.png,0,0,0,33,33,33,,,,,,,,,,,,,28.008123800005706,0.008123800005705561,None,59.99570110000059,59.99570110000059,59.99570110000059,59.99570110000059,59.99570110000059,59.99570110000059,59.99570110000059,59.99570110000059,,001,P022,2025_May_13_1720,CategoryLocalizer,2021.2.3,59.8986395209237,
28.8,29.0,5,0.0,Stimuli\Blank.png,0,0,0,34,34,34,,,,,,,,,,,,,28.810273700000835,0.01027370000083394,None,60.813108599999396,60.813108599999396,60.813108599999396,60.813108599999396,60.813108599999396,60.813108599999396,60.813108599999396,60.813108599999396,,001,P022,2025_May_13_1720,CategoryLocalizer,2021.2.3,59.8986395209237,
29.0,29.8,2,0.75,Stimuli\ImageFiles-Set1\Bodies\Bodies_SittingStretch_00002.png,0,0,0,35,35,35,,,,,,,,,,,,,29.02581380000629,0.025813800006289966,None,61.029955800004245,61.029955800004245,61.029955800004245,61.029955800004245,61.029955800004245,61.029955800004245,61.029955800004245,61.029955800004245,,001,P022,2025_May_13_1720,CategoryLocalizer,2021.2.3,59.8986395209237,
29.8,30.0,5,0.0,Stimuli\Blank.png,0,0,0,36,36,36,,,,,,,,,,,,,29.826600000000326,0.026600000000325252,None,61.81397899999865,61.81397899999865,61.81397899999865,61.81397899999865,61.81397899999865,61.81397899999865,61.81397899999865,61.81397899999865,,001,P022,2025_May_13_1720,CategoryLocalizer,2021.2.3,59.8986395209237,
30.0,30.8,2,0.75,Stimuli\ImageFiles-Set1\Bodies\Bodies_Lunging_00003.png,0,0,0,37,37,37,,,,,,,,,,,,,30.00940320000518,0.009403200005181134,None,62.01416750000499,62.01416750000499,62.01416750000499,62.01416750000499,62.01416750000499,62.01416750000499,62.01416750000499,62.01416750000499,,001,P022,2025_May_13_1720,CategoryLocalizer,2021.2.3,59.8986395209237,
30.8,31.0,5,0.0,Stimuli\Blank.png,0,0,0,38,38,38,,,,,,,,,,,,,30.826711300003808,0.02671130000380728,None,62.814873800001806,62.814873800001806,62.814873800001806,62.814873800001806,62.814873800001806,62.814873800001806,62.814873800001806,62.814873800001806,,001,P022,2025_May_13_1720,CategoryLocalizer,2021.2.3,59.8986395209237,
31.0,31.8,2,0.75,Stimuli\ImageFiles-Set1\Bodies\Bodies_Crawling_00006.png,0,0,0,39,39,39,,,,,,,,,,,,,31.010895999999775,0.010895999999775086,None,63.01512480000383,63.01512480000383,63.01512480000383,63.01512480000383,63.01512480000383,63.01512480000383,63.01512480000383,63.01512480000383,,001,P022,2025_May_13_1720,CategoryLocalizer,2021.2.3,59.8986395209237,
31.8,32.0,5,0.0,Stimuli\Blank.png,0,0,0,40,40,40,,,,,,,,,,,,,31.830121099999815,0.03012109999981405,None,63.83243770000263,63.83243770000263,63.83243770000263,63.83243770000263,63.83243770000263,63.83243770000263,63.83243770000263,63.83243770000263,,001,P022,2025_May_13_1720,CategoryLocalizer,2021.2.3,59.8986395209237,
32.0,32.8,2,0.75,Stimuli\ImageFiles-Set1\Bodies\Bodies_Kneeling_00005.png,0,0,0,41,41,41,,,,,,,,,,,,,32.02988080000068,0.02988080000068294,None,64.04928900000232,64.04928900000232,64.04928900000232,64.04928900000232,64.04928900000232,64.04928900000232,64.04928900000232,64.04928900000232,,001,P022,2025_May_13_1720,CategoryLocalizer,2021.2.3,59.8986395209237,
32.8,33.0,5,0.0,Stimuli\Blank.png,0,0,0,42,42,42,,,,,,,,,,,,,32.84537520000595,0.04537520000594952,None,64.83331180000096,64.83331180000096,64.83331180000096,64.83331180000096,64.83331180000096,64.83331180000096,64.83331180000096,64.83331180000096,,001,P022,2025_May_13_1720,CategoryLocalizer,2021.2.3,59.8986395209237,
33.0,33.8,2,0.75,Stimuli\ImageFiles-Set1\Bodies\Bodies_Kicking_00007.png,0,0,0,43,43,43,,,,,,,,,,,,,33.01266780000151,0.012667800001509022,None,65.00013110000145,65.00013110000145,65.00013110000145,65.00013110000145,65.00013110000145,65.00013110000145,65.00013110000145,65.00013110000145,,001,P022,2025_May_13_1720,CategoryLocalizer,2021.2.3,59.8986395209237,
33.8,34.0,5,0.0,Stimuli\Blank.png,0,0,0,44,44,44,,,,,,,,,,,,,33.8126923000018,0.012692300001802437,None,65.80084630000056,65.80084630000056,65.80084630000056,65.80084630000056,65.80084630000056,65.80084630000056,65.80084630000056,65.80084630000056,,001,P022,2025_May_13_1720,CategoryLocalizer,2021.2.3,59.8986395209237,
34.0,34.8,2,0.75,Stimuli\ImageFiles-Set1\Bodies\Bodies_Hanging_00002.png,0,0,0,45,45,45,,,,,,,,,,,,,34.01368500000535,0.013685000005352776,None,66.01773430000321,66.01773430000321,66.01773430000321,66.01773430000321,66.01773430000321,66.01773430000321,66.01773430000321,66.01773430000321,,001,P022,2025_May_13_1720,CategoryLocalizer,2021.2.3,59.8986395209237,
34.8,35.0,5,0.0,Stimuli\Blank.png,0,0,0,46,46,46,,,,,,,,,,,,,34.83088320000388,0.03088320000388478,None,66.81841300000087,66.81841300000087,66.81841300000087,66.81841300000087,66.81841300000087,66.81841300000087,66.81841300000087,66.81841300000087,,001,P022,2025_May_13_1720,CategoryLocalizer,2021.2.3,59.8986395209237,
35.0,35.8,2,0.75,Stimuli\ImageFiles-Set1\Bodies\Bodies_SittingChair_00001.png,0,0,0,47,47,47,,,,,,,,,,,,,35.014424200002395,0.014424200002395082,None,67.03527920000488,67.03527920000488,67.03527920000488,67.03527920000488,67.03527920000488,67.03527920000488,67.03527920000488,67.03527920000488,,001,P022,2025_May_13_1720,CategoryLocalizer,2021.2.3,59.8986395209237,
35.8,36.0,5,0.0,Stimuli\Blank.png,0,0,0,48,48,48,,,,,,,,,,,,,35.8497822000063,0.04978220000630529,None,67.85263850000047,67.85263850000047,67.85263850000047,67.85263850000047,67.85263850000047,67.85263850000047,67.85263850000047,67.85263850000047,,001,P022,2025_May_13_1720,CategoryLocalizer,2021.2.3,59.8986395209237,
36.0,36.8,2,0.75,Stimuli\ImageFiles-Set1\Bodies\Bodies_Kneeling_00007.png,0,0,0,49,49,49,,,,,,,,,,,,,36.01559880000423,0.015598800004227087,None,68.01945040000282,68.01945040000282,68.01945040000282,68.01945040000282,68.01945040000282,68.01945040000282,68.01945040000282,68.01945040000282,,001,P022,2025_May_13_1720,CategoryLocalizer,2021.2.3,59.8986395209237,
36.8,37.0,5,0.0,Stimuli\Blank.png,0,0,0,50,50,50,,,,,,,,,,,,,36.81548920000205,0.015489200002051007,None,68.80349130000104,68.80349130000104,68.80349130000104,68.80349130000104,68.80349130000104,68.80349130000104,68.80349130000104,68.80349130000104,,001,P022,2025_May_13_1720,CategoryLocalizer,2021.2.3,59.8986395209237,
37.0,37.8,2,0.75,Stimuli\ImageFiles-Set1\Bodies\Bodies_SittingChair_00007.png,0,0,0,51,51,51,,,,,,,,,,,,,37.01613250000082,0.016132500000821892,None,69.03705720000289,69.03705720000289,69.03705720000289,69.03705720000289,69.03705720000289,69.03705720000289,69.03705720000289,69.03705720000289,,001,P022,2025_May_13_1720,CategoryLocalizer,2021.2.3,59.8986395209237,
37.8,38.0,5,0.0,Stimuli\Blank.png,0,0,0,52,52,52,,,,,,,,,,,,,37.83515950000583,0.035159500005832456,None,69.83775810000225,69.83775810000225,69.83775810000225,69.83775810000225,69.83775810000225,69.83775810000225,69.83775810000225,69.83775810000225,,001,P022,2025_May_13_1720,CategoryLocalizer,2021.2.3,59.8986395209237,
38.0,38.8,2,0.75,Stimuli\ImageFiles-Set1\Bodies\Bodies_DownwardDog_00006.png,0,0,0,53,53,53,,,,,,,,,,,,,38.01639690000593,0.016396900005929638,None,70.02125330000126,70.02125330000126,70.02125330000126,70.02125330000126,70.02125330000126,70.02125330000126,70.02125330000126,70.02125330000126,,001,P022,2025_May_13_1720,CategoryLocalizer,2021.2.3,59.8986395209237,
38.8,39.0,5,0.0,Stimuli\Blank.png,0,0,0,54,54,54,,,,,,,,,,,,,38.81828300000052,0.01828300000052252,None,70.80527470000379,70.80527470000379,70.80527470000379,70.80527470000379,70.80527470000379,70.80527470000379,70.80527470000379,70.80527470000379,,001,P022,2025_May_13_1720,CategoryLocalizer,2021.2.3,59.8986395209237,
39.0,39.8,2,0.75,Stimuli\ImageFiles-Set1\Bodies\Bodies_DownwardDog_00006.png,1,1,0,55,55,55,,,,,,,,,,,,,39.00138600000355,0.0013860000035492703,1,70.98875400000543,70.98875400000543,70.98875400000543,70.98875400000543,70.98875400000543,70.98875400000543,70.98875400000543,70.98875400000543,0.35479710000072373,001,P022,2025_May_13_1720,CategoryLocalizer,2021.2.3,59.8986395209237,
39.8,40.0,5,0.0,Stimuli\Blank.png,0,0,0,56,56,56,,,,,,,,,,,,,39.80217300000368,0.0021730000036797037,None,71.78946870000073,71.78946870000073,71.78946870000073,71.78946870000073,71.78946870000073,71.78946870000073,71.78946870000073,71.78946870000073,,001,P022,2025_May_13_1720,CategoryLocalizer,2021.2.3,59.8986395209237,
40.0,40.8,2,0.75,Stimuli\ImageFiles-Set1\Bodies\Bodies_Walking_00002.png,0,0,0,57,57,57,,,,,,,,,,,,,40.00221590000001,0.0022159000000101514,None,72.00632320000295,72.00632320000295,72.00632320000295,72.00632320000295,72.00632320000295,72.00632320000295,72.00632320000295,72.00632320000295,,001,P022,2025_May_13_1720,CategoryLocalizer,2021.2.3,59.8986395209237,
40.8,41.0,5,0.0,Stimuli\Blank.png,0,0,0,58,58,58,,,,,,,,,,,,,40.81976140000188,0.01976140000188309,None,72.80703570000333,72.80703570000333,72.80703570000333,72.80703570000333,72.80703570000333,72.80703570000333,72.80703570000333,72.80703570000333,,001,P022,2025_May_13_1720,CategoryLocalizer,2021.2.3,59.8986395209237,
41.0,41.8,2,0.75,Stimuli\ImageFiles-Set1\Bodies\Bodies_CobraPose_00005.png,0,0,0,59,59,59,,,,,,,,,,,,,41.00487210000574,0.004872100005741231,None,73.0072025000045,73.0072025000045,73.0072025000045,73.0072025000045,73.0072025000045,73.0072025000045,73.0072025000045,73.0072025000045,,001,P022,2025_May_13_1720,CategoryLocalizer,2021.2.3,59.8986395209237,
41.8,42.0,5,0.0,Stimuli\Blank.png,0,0,0,60,60,60,,,,,,,,,,,,,41.82052190000104,0.020521900001043036,None,73.80792859999929,73.80792859999929,73.80792859999929,73.80792859999929,73.80792859999929,73.80792859999929,73.80792859999929,73.80792859999929,,001,P022,2025_May_13_1720,CategoryLocalizer,2021.2.3,59.8986395209237,
42.0,42.8,2,0.75,Stimuli\ImageFiles-Set1\Bodies\Bodies_SittingFloor_00003.png,0,0,0,61,61,61,,,,,,,,,,,,,42.00520170000527,0.005201700005272869,None,74.02481750000152,74.02481750000152,74.02481750000152,74.02481750000152,74.02481750000152,74.02481750000152,74.02481750000152,74.02481750000152,,001,P022,2025_May_13_1720,CategoryLocalizer,2021.2.3,59.8986395209237,
42.8,43.0,5,0.0,Stimuli\Blank.png,0,0,0,62,62,62,,,,,,,,,,,,,42.83728940000583,0.03728940000583236,None,74.82548440000392,74.82548440000392,74.82548440000392,74.82548440000392,74.82548440000392,74.82548440000392,74.82548440000392,74.82548440000392,,001,P022,2025_May_13_1720,CategoryLocalizer,2021.2.3,59.8986395209237,
43.0,43.8,2,0.75,Stimuli\ImageFiles-Set1\Bodies\Bodies_Standing_00003.png,0,0,0,63,63,63,,,,,,,,,,,,,43.00506840000162,0.005068400001619011,None,75.00898030000099,75.00898030000099,75.00898030000099,75.00898030000099,75.00898030000099,75.00898030000099,75.00898030000099,75.00898030000099,,001,P022,2025_May_13_1720,CategoryLocalizer,2021.2.3,59.8986395209237,
43.8,44.0,5,0.0,Stimuli\Blank.png,0,0,0,64,64,64,,,,,,,,,,,,,43.821673800004646,0.021673800004649024,None,75.8097029000055,75.8097029000055,75.8097029000055,75.8097029000055,75.8097029000055,75.8097029000055,75.8097029000055,75.8097029000055,,001,P022,2025_May_13_1720,CategoryLocalizer,2021.2.3,59.8986395209237,
44.0,44.8,3,0.75,Stimuli\ImageFiles-Set1\Faces\Face_00079.png,0,0,0,65,65,65,,,,,,,,,,,,,44.00518020000163,0.005180200001632329,None,76.02655770000274,76.02655770000274,76.02655770000274,76.02655770000274,76.02655770000274,76.02655770000274,76.02655770000274,76.02655770000274,,001,P022,2025_May_13_1720,CategoryLocalizer,2021.2.3,59.8986395209237,
44.8,45.0,5,0.0,Stimuli\Blank.png,0,0,0,66,66,66,,,,,,,,,,,,,44.8405905000036,0.04059050000360287,None,76.82725460000074,76.82725460000074,76.82725460000074,76.82725460000074,76.82725460000074,76.82725460000074,76.82725460000074,76.82725460000074,,001,P022,2025_May_13_1720,CategoryLocalizer,2021.2.3,59.8986395209237,
45.0,45.8,3,0.75,Stimuli\ImageFiles-Set1\Faces\Face_00045.png,0,0,0,67,67,67,,,,,,,,,,,,,45.006688100002066,0.006688100002065767,None,77.02764369999932,77.02764369999932,77.02764369999932,77.02764369999932,77.02764369999932,77.02764369999932,77.02764369999932,77.02764369999932,,001,P022,2025_May_13_1720,CategoryLocalizer,2021.2.3,59.8986395209237,
45.8,46.0,5,0.0,Stimuli\Blank.png,0,0,0,68,68,68,,,,,,,,,,,,,45.8406066000025,0.04060660000250493,None,77.8281455000033,77.8281455000033,77.8281455000033,77.8281455000033,77.8281455000033,77.8281455000033,77.8281455000033,77.8281455000033,,001,P022,2025_May_13_1720,CategoryLocalizer,2021.2.3,59.8986395209237,
46.0,46.8,3,0.75,Stimuli\ImageFiles-Set1\Faces\Face_00077.png,0,0,0,69,69,69,,,,,,,,,,,,,46.00758219999989,0.007582199999887962,None,78.01163890000316,78.01163890000316,78.01163890000316,78.01163890000316,78.01163890000316,78.01163890000316,78.01163890000316,78.01163890000316,,001,P022,2025_May_13_1720,CategoryLocalizer,2021.2.3,59.8986395209237,
46.8,47.0,5,0.0,Stimuli\Blank.png,0,0,0,70,70,70,,,,,,,,,,,,,46.824909100003424,0.024909100003426943,None,78.81234810000024,78.81234810000024,78.81234810000024,78.81234810000024,78.81234810000024,78.81234810000024,78.81234810000024,78.81234810000024,,001,P022,2025_May_13_1720,CategoryLocalizer,2021.2.3,59.8986395209237,
47.0,47.8,3,0.75,Stimuli\ImageFiles-Set1\Faces\Face_00085.png,0,0,0,71,71,71,,,,,,,,,,,,,47.00834610000311,0.008346100003109314,None,79.01252970000496,79.01252970000496,79.01252970000496,79.01252970000496,79.01252970000496,79.01252970000496,79.01252970000496,79.01252970000496,,001,P022,2025_May_13_1720,CategoryLocalizer,2021.2.3,59.8986395209237,
47.8,48.0,5,0.0,Stimuli\Blank.png,0,0,0,72,72,72,,,,,,,,,,,,,47.82599140000093,0.02599140000093314,None,79.81323320000229,79.81323320000229,79.81323320000229,79.81323320000229,79.81323320000229,79.81323320000229,79.81323320000229,79.81323320000229,,001,P022,2025_May_13_1720,CategoryLocalizer,2021.2.3,59.8986395209237,
48.0,48.8,3,0.75,Stimuli\ImageFiles-Set1\Faces\Face_00097.png,0,0,0,73,73,73,,,,,,,,,,,,,48.009167300006084,0.009167300006083678,None,80.0134223999994,80.0134223999994,80.0134223999994,80.0134223999994,80.0134223999994,80.0134223999994,80.0134223999994,80.0134223999994,,001,P022,2025_May_13_1720,CategoryLocalizer,2021.2.3,59.8986395209237,
48.8,49.0,5,0.0,Stimuli\Blank.png,0,0,0,74,74,74,,,,,,,,,,,,,48.82659490000515,0.026594900005150635,None,80.81412909999926,80.81412909999926,80.81412909999926,80.81412909999926,80.81412909999926,80.81412909999926,80.81412909999926,80.81412909999926,,001,P022,2025_May_13_1720,CategoryLocalizer,2021.2.3,59.8986395209237,
49.0,49.8,3,0.75,Stimuli\ImageFiles-Set1\Faces\Face_00097.png,1,1,0,75,75,75,,,,,,,,,,,,,49.009605200000806,0.00960520000080578,1,80.9976078000036,80.9976078000036,80.9976078000036,80.9976078000036,80.9976078000036,80.9976078000036,80.9976078000036,80.9976078000036,0.45956749999459134,001,P022,2025_May_13_1720,CategoryLocalizer,2021.2.3,59.8986395209237,
49.8,50.0,5,0.0,Stimuli\Blank.png,0,0,0,76,76,76,,,,,,,,,,,,,49.81151260000479,0.011512600004792262,None,81.79832410000381,81.79832410000381,81.79832410000381,81.79832410000381,81.79832410000381,81.79832410000381,81.79832410000381,81.79832410000381,,001,P022,2025_May_13_1720,CategoryLocalizer,2021.2.3,59.8986395209237,
50.0,50.8,3,0.75,Stimuli\ImageFiles-Set1\Faces\Face_00053.png,0,0,0,77,77,77,,,,,,,,,,,,,50.01037360000191,0.010373600001912564,None,82.01519170000392,82.01519170000392,82.01519170000392,82.01519170000392,82.01519170000392,82.01519170000392,82.01519170000392,82.01519170000392,,001,P022,2025_May_13_1720,CategoryLocalizer,2021.2.3,59.8986395209237,
50.8,51.0,5,0.0,Stimuli\Blank.png,0,0,0,78,78,78,,,,,,,,,,,,,50.82985510000435,0.02985510000435454,None,82.83258080000087,82.83258080000087,82.83258080000087,82.83258080000087,82.83258080000087,82.83258080000087,82.83258080000087,82.83258080000087,,001,P022,2025_May_13_1720,CategoryLocalizer,2021.2.3,59.8986395209237,
51.0,51.8,3,0.75,Stimuli\ImageFiles-Set1\Faces\Face_00024.png,0,0,0,79,79,79,,,,,,,,,,,,,51.02948390000529,0.029483900005288888,None,83.0327477000028,83.0327477000028,83.0327477000028,83.0327477000028,83.0327477000028,83.0327477000028,83.0327477000028,83.0327477000028,,001,P022,2025_May_13_1720,CategoryLocalizer,2021.2.3,59.8986395209237,
51.8,52.0,5,0.0,Stimuli\Blank.png,0,0,0,80,80,80,,,,,,,,,,,,,51.83132630000182,0.03132630000182246,None,83.83345560000453,83.83345560000453,83.83345560000453,83.83345560000453,83.83345560000453,83.83345560000453,83.83345560000453,83.83345560000453,,001,P022,2025_May_13_1720,CategoryLocalizer,2021.2.3,59.8986395209237,
52.0,52.8,3,0.75,Stimuli\ImageFiles-Set1\Faces\Face_00063.png,1,1,0,81,81,81,,,,,,,,,,,,,52.029246500002046,0.02924650000204565,None,84.03363050000189,84.03363050000189,84.03363050000189,84.03363050000189,84.03363050000189,84.03363050000189,84.03363050000189,84.03363050000189,,001,P022,2025_May_13_1720,CategoryLocalizer,2021.2.3,59.8986395209237,
52.8,53.0,5,0.0,Stimuli\Blank.png,0,0,0,82,82,82,,,,,,,,,,,,,52.830941600004735,0.03094160000473778,None,84.81766100000095,84.81766100000095,84.81766100000095,84.81766100000095,84.81766100000095,84.81766100000095,84.81766100000095,84.81766100000095,,001,P022,2025_May_13_1720,CategoryLocalizer,2021.2.3,59.8986395209237,
53.0,53.8,3,0.75,Stimuli\ImageFiles-Set1\Faces\Face_00035.png,0,0,0,83,83,83,,,,,,,,,,,,,53.014357899999595,0.014357899999595247,None,85.03451730000234,85.03451730000234,85.03451730000234,85.03451730000234,85.03451730000234,85.03451730000234,85.03451730000234,85.03451730000234,,001,P022,2025_May_13_1720,CategoryLocalizer,2021.2.3,59.8986395209237,
53.8,54.0,5,0.0,Stimuli\Blank.png,0,0,0,84,84,84,,,,,,,,,,,,,53.84706560000632,0.047065600006320096,None,85.83521550000296,85.83521550000296,85.83521550000296,85.83521550000296,85.83521550000296,85.83521550000296,85.83521550000296,85.83521550000296,,001,P022,2025_May_13_1720,CategoryLocalizer,2021.2.3,59.8986395209237,
54.0,54.8,3,0.75,Stimuli\ImageFiles-Set1\Faces\Face_00035.png,0,0,0,85,85,85,,,,,,,,,,,,,54.01397700000234,0.01397700000234181,1,86.00202649999846,86.00202649999846,86.00202649999846,86.00202649999846,86.00202649999846,86.00202649999846,86.00202649999846,86.00202649999846,0.524382899995544,001,P022,2025_May_13_1720,CategoryLocalizer,2021.2.3,59.8986395209237,
54.8,55.0,5,0.0,Stimuli\Blank.png,0,0,0,86,86,86,,,,,,,,,,,,,54.815739000005124,0.015739000005126513,None,86.80274579999968,86.80274579999968,86.80274579999968,86.80274579999968,86.80274579999968,86.80274579999968,86.80274579999968,86.80274579999968,,001,P022,2025_May_13_1720,CategoryLocalizer,2021.2.3,59.8986395209237,
55.0,55.8,3,0.75,Stimuli\ImageFiles-Set1\Faces\Face_00051.png,0,0,0,87,87,87,,,,,,,,,,,,,55.00014110000484,0.00014110000483924523,None,87.01960400000098,87.01960400000098,87.01960400000098,87.01960400000098,87.01960400000098,87.01960400000098,87.01960400000098,87.01960400000098,,001,P022,2025_May_13_1720,CategoryLocalizer,2021.2.3,59.8986395209237,
55.8,56.0,5,0.0,Stimuli\Blank.png,0,0,0,88,88,88,,,,,,,,,,,,,55.83339080000587,0.033390800005875576,None,87.82031090000237,87.82031090000237,87.82031090000237,87.82031090000237,87.82031090000237,87.82031090000237,87.82031090000237,87.82031090000237,,001,P022,2025_May_13_1720,CategoryLocalizer,2021.2.3,59.8986395209237,
56.0,56.8,3,0.75,Stimuli\ImageFiles-Set1\Faces\Face_00001.png,0,0,0,89,89,89,,,,,,,,,,,,,55.99984630000108,-0.0001536999989184551,None,88.00376410000172,88.00376410000172,88.00376410000172,88.00376410000172,88.00376410000172,88.00376410000172,88.00376410000172,88.00376410000172,,001,P022,2025_May_13_1720,CategoryLocalizer,2021.2.3,59.8986395209237,
56.8,57.0,5,0.0,Stimuli\Blank.png,0,0,0,90,90,90,,,,,,,,,,,,,56.81744830000389,0.01744830000389186,None,88.80451380000159,88.80451380000159,88.80451380000159,88.80451380000159,88.80451380000159,88.80451380000159,88.80451380000159,88.80451380000159,,001,P022,2025_May_13_1720,CategoryLocalizer,2021.2.3,59.8986395209237,
57.0,57.8,3,0.75,Stimuli\ImageFiles-Set1\Faces\Face_00003.png,0,0,0,91,91,91,,,,,,,,,,,,,57.00068260000262,0.0006826000026194379,None,89.02140320000035,89.02140320000035,89.02140320000035,89.02140320000035,89.02140320000035,89.02140320000035,89.02140320000035,89.02140320000035,,001,P022,2025_May_13_1720,CategoryLocalizer,2021.2.3,59.8986395209237,
57.8,58.0,5,0.0,Stimuli\Blank.png,0,0,0,92,92,92,,,,,,,,,,,,,57.83429250000336,0.03429250000336026,None,89.82209720000537,89.82209720000537,89.82209720000537,89.82209720000537,89.82209720000537,89.82209720000537,89.82209720000537,89.82209720000537,,001,P022,2025_May_13_1720,CategoryLocalizer,2021.2.3,59.8986395209237,
58.0,58.8,3,0.75,Stimuli\ImageFiles-Set1\Faces\Face_00067.png,0,0,0,93,93,93,,,,,,,,,,,,,58.00164940000104,0.0016494000010425225,None,90.0055696000054,90.0055696000054,90.0055696000054,90.0055696000054,90.0055696000054,90.0055696000054,90.0055696000054,90.0055696000054,,001,P022,2025_May_13_1720,CategoryLocalizer,2021.2.3,59.8986395209237,
58.8,59.0,5,0.0,Stimuli\Blank.png,0,0,0,94,94,94,,,,,,,,,,,,,58.82014270000218,0.020142700002182323,None,90.82297100000142,90.82297100000142,90.82297100000142,90.82297100000142,90.82297100000142,90.82297100000142,90.82297100000142,90.82297100000142,,001,P022,2025_May_13_1720,CategoryLocalizer,2021.2.3,59.8986395209237,
59.0,59.8,3,0.75,Stimuli\ImageFiles-Set1\Faces\Face_00043.png,0,0,0,95,95,95,,,,,,,,,,,,,59.0208677000046,0.02086770000460092,None,91.02314170000318,91.02314170000318,91.02314170000318,91.02314170000318,91.02314170000318,91.02314170000318,91.02314170000318,91.02314170000318,,001,P022,2025_May_13_1720,CategoryLocalizer,2021.2.3,59.8986395209237,
59.8,60.0,5,0.0,Stimuli\Blank.png,0,0,0,96,96,96,,,,,,,,,,,,,59.82012370000302,0.0201237000030261,None,91.80716799999936,91.80716799999936,91.80716799999936,91.80716799999936,91.80716799999936,91.80716799999936,91.80716799999936,91.80716799999936,,001,P022,2025_May_13_1720,CategoryLocalizer,2021.2.3,59.8986395209237,
60.0,60.8,4,0.75,Stimuli\ImageFiles-Set1\Scenes\Scenes_008.png,0,0,0,97,97,97,,,,,,,,,,,,,60.00587749999977,0.005877499999769498,None,92.00735759999952,92.00735759999952,92.00735759999952,92.00735759999952,92.00735759999952,92.00735759999952,92.00735759999952,92.00735759999952,,001,P022,2025_May_13_1720,CategoryLocalizer,2021.2.3,59.8986395209237,
60.8,61.0,5,0.0,Stimuli\Blank.png,0,0,0,98,98,98,,,,,,,,,,,,,60.820505200004845,0.020505200004848234,None,92.80805490000057,92.80805490000057,92.80805490000057,92.80805490000057,92.80805490000057,92.80805490000057,92.80805490000057,92.80805490000057,,001,P022,2025_May_13_1720,CategoryLocalizer,2021.2.3,59.8986395209237,
61.0,61.8,4,0.75,Stimuli\ImageFiles-Set1\Scenes\Scenes_033.png,0,0,0,99,99,99,,,,,,,,,,,,,61.00538150000648,0.0053815000064787455,None,93.02490930000204,93.02490930000204,93.02490930000204,93.02490930000204,93.02490930000204,93.02490930000204,93.02490930000204,93.02490930000204,,001,P022,2025_May_13_1720,CategoryLocalizer,2021.2.3,59.8986395209237,
61.8,62.0,5,0.0,Stimuli\Blank.png,0,0,0,100,100,100,,,,,,,,,,,,,61.840282600001956,0.04028260000195871,None,93.84231890000228,93.84231890000228,93.84231890000228,93.84231890000228,93.84231890000228,93.84231890000228,93.84231890000228,93.84231890000228,,001,P022,2025_May_13_1720,CategoryLocalizer,2021.2.3,59.8986395209237,
62.0,62.8,4,0.75,Stimuli\ImageFiles-Set1\Scenes\Scenes_036.png,0,0,0,101,101,101,,,,,,,,,,,,,62.02159160000156,0.0215916000015568,None,94.04249290000007,94.04249290000007,94.04249290000007,94.04249290000007,94.04249290000007,94.04249290000007,94.04249290000007,94.04249290000007,,001,P022,2025_May_13_1720,CategoryLocalizer,2021.2.3,59.8986395209237,
62.8,63.0,5,0.0,Stimuli\Blank.png,0,0,0,102,102,102,,,,,,,,,,,,,62.84020320000127,0.04020320000127242,None,94.84319630000391,94.84319630000391,94.84319630000391,94.84319630000391,94.84319630000391,94.84319630000391,94.84319630000391,94.84319630000391,,001,P022,2025_May_13_1720,CategoryLocalizer,2021.2.3,59.8986395209237,
63.0,63.8,4,0.75,Stimuli\ImageFiles-Set1\Scenes\Scenes_036.png,1,1,0,103,103,103,,,,,,,,,,,,,63.022547700005816,0.022547700005816296,1,95.00997220000136,95.00997220000136,95.00997220000136,95.00997220000136,95.00997220000136,95.00997220000136,95.00997220000136,95.00997220000136,0.3866307999996934,001,P022,2025_May_13_1720,CategoryLocalizer,2021.2.3,59.8986395209237,
63.8,64.0,5,0.0,Stimuli\Blank.png,0,0,0,104,104,104,,,,,,,,,,,,,63.805970200002776,0.00597020000277837,None,95.79403440000169,95.79403440000169,95.79403440000169,95.79403440000169,95.79403440000169,95.79403440000169,95.79403440000169,95.79403440000169,,001,P022,2025_May_13_1720,CategoryLocalizer,2021.2.3,59.8986395209237,
64.0,64.8,4,0.75,Stimuli\ImageFiles-Set1\Scenes\Scenes_037.png,0,0,0,105,105,105,,,,,,,,,,,,,64.0063020000016,0.0063020000015967526,None,96.02756690000388,96.02756690000388,96.02756690000388,96.02756690000388,96.02756690000388,96.02756690000388,96.02756690000388,96.02756690000388,,001,P022,2025_May_13_1720,CategoryLocalizer,2021.2.3,59.8986395209237,
64.8,65.0,5,0.0,Stimuli\Blank.png,0,0,0,106,106,106,,,,,,,,,,,,,64.84072230000311,0.040722300003110945,None,96.82828580000205,96.82828580000205,96.82828580000205,96.82828580000205,96.82828580000205,96.82828580000205,96.82828580000205,96.82828580000205,,001,P022,2025_May_13_1720,CategoryLocalizer,2021.2.3,59.8986395209237,
65.0,65.8,4,0.75,Stimuli\ImageFiles-Set1\Scenes\Scenes_034.png,0,0,0,107,107,107,,,,,,,,,,,,,65.00776900000346,0.007769000003463589,None,97.02844900000491,97.02844900000491,97.02844900000491,97.02844900000491,97.02844900000491,97.02844900000491,97.02844900000491,97.02844900000491,,001,P022,2025_May_13_1720,CategoryLocalizer,2021.2.3,59.8986395209237,
65.8,66.0,5,0.0,Stimuli\Blank.png,0,0,0,108,108,108,,,,,,,,,,,,,65.84100469999976,0.04100469999976042,None,97.82916530000512,97.82916530000512,97.82916530000512,97.82916530000512,97.82916530000512,97.82916530000512,97.82916530000512,97.82916530000512,,001,P022,2025_May_13_1720,CategoryLocalizer,2021.2.3,59.8986395209237,
66.0,66.8,4,0.75,Stimuli\ImageFiles-Set1\Scenes\Scenes_015.png,0,0,0,109,109,109,,,,,,,,,,,,,66.00860110000212,0.00860110000212444,None,98.01269010000397,98.01269010000397,98.01269010000397,98.01269010000397,98.01269010000397,98.01269010000397,98.01269010000397,98.01269010000397,,001,P022,2025_May_13_1720,CategoryLocalizer,2021.2.3,59.8986395209237,
66.8,67.0,5,0.0,Stimuli\Blank.png,0,0,0,110,110,110,,,,,,,,,,,,,66.82587450000574,0.025874500005741652,None,98.81335740000213,98.81335740000213,98.81335740000213,98.81335740000213,98.81335740000213,98.81335740000213,98.81335740000213,98.81335740000213,,001,P022,2025_May_13_1720,CategoryLocalizer,2021.2.3,59.8986395209237,
67.0,67.8,4,0.75,Stimuli\ImageFiles-Set1\Scenes\Scenes_044.png,0,0,0,111,111,111,,,,,,,,,,,,,67.00952640000469,0.009526400004688185,None,99.03024020000157,99.03024020000157,99.03024020000157,99.03024020000157,99.03024020000157,99.03024020000157,99.03024020000157,99.03024020000157,,001,P022,2025_May_13_1720,CategoryLocalizer,2021.2.3,59.8986395209237,
67.8,68.0,5,0.0,Stimuli\Blank.png,0,0,0,112,112,112,,,,,,,,,,,,,67.84486370000377,0.04486370000377349,None,99.84762369999953,99.84762369999953,99.84762369999953,99.84762369999953,99.84762369999953,99.84762369999953,99.84762369999953,99.84762369999953,,001,P022,2025_May_13_1720,CategoryLocalizer,2021.2.3,59.8986395209237,
68.0,68.8,4,0.75,Stimuli\ImageFiles-Set1\Scenes\Scenes_014.png,0,0,0,113,113,113,,,,,,,,,,,,,68.02629900000466,0.02629900000465568,None,100.0477869000024,100.0477869000024,100.0477869000024,100.0477869000024,100.0477869000024,100.0477869000024,100.0477869000024,100.0477869000024,,001,P022,2025_May_13_1720,CategoryLocalizer,2021.2.3,59.8986395209237,
68.8,69.0,5,0.0,Stimuli\Blank.png,0,0,0,114,114,114,,,,,,,,,,,,,68.84442910000507,0.044429100005075384,None,100.83181609999883,100.83181609999883,100.83181609999883,100.83181609999883,100.83181609999883,100.83181609999883,100.83181609999883,100.83181609999883,,001,P022,2025_May_13_1720,CategoryLocalizer,2021.2.3,59.8986395209237,
69.0,69.8,4,0.75,Stimuli\ImageFiles-Set1\Scenes\Scenes_047.png,1,1,0,115,115,115,,,,,,,,,,,,,69.0112009000004,0.011200900000403635,None,101.03200320000178,101.03200320000178,101.03200320000178,101.03200320000178,101.03200320000178,101.03200320000178,101.03200320000178,101.03200320000178,,001,P022,2025_May_13_1720,CategoryLocalizer,2021.2.3,59.8986395209237,
69.8,70.0,5,0.0,Stimuli\Blank.png,0,0,0,116,116,116,,,,,,,,,,,,,69.84569680000277,0.045696800002772875,None,101.83269600000494,101.83269600000494,101.83269600000494,101.83269600000494,101.83269600000494,101.83269600000494,101.83269600000494,101.83269600000494,,001,P022,2025_May_13_1720,CategoryLocalizer,2021.2.3,59.8986395209237,
70.0,70.8,4,0.75,Stimuli\ImageFiles-Set1\Scenes\Scenes_016.png,0,0,0,117,117,117,,,,,,,,,,,,,70.01173220000055,0.01173220000055153,None,102.0328617999985,102.0328617999985,102.0328617999985,102.0328617999985,102.0328617999985,102.0328617999985,102.0328617999985,102.0328617999985,,001,P022,2025_May_13_1720,CategoryLocalizer,2021.2.3,59.8986395209237,
70.8,71.0,5,0.0,Stimuli\Blank.png,0,0,0,118,118,118,,,,,,,,,,,,,70.84566570000607,0.04566570000606873,None,102.83357940000133,102.83357940000133,102.83357940000133,102.83357940000133,102.83357940000133,102.83357940000133,102.83357940000133,102.83357940000133,,001,P022,2025_May_13_1720,CategoryLocalizer,2021.2.3,59.8986395209237,
71.0,71.8,4,0.75,Stimuli\ImageFiles-Set1\Scenes\Scenes_016.png,0,0,0,119,119,119,,,,,,,,,,,,,71.01518150000629,0.015181500006292481,1,103.01707210000313,103.01707210000313,103.01707210000313,103.01707210000313,103.01707210000313,103.01707210000313,103.01707210000313,103.01707210000313,0.5192747000037343,001,P022,2025_May_13_1720,CategoryLocalizer,2021.2.3,59.8986395209237,
71.8,72.0,5,0.0,Stimuli\Blank.png,0,0,0,120,120,120,,,,,,,,,,,,,71.81458840000414,0.01458840000414341,None,103.80110110000533,103.80110110000533,103.80110110000533,103.80110110000533,103.80110110000533,103.80110110000533,103.80110110000533,103.80110110000533,,001,P022,2025_May_13_1720,CategoryLocalizer,2021.2.3,59.8986395209237,
72.0,72.8,4,0.75,Stimuli\ImageFiles-Set1\Scenes\Scenes_027.png,0,0,0,121,121,121,,,,,,,,,,,,,72.01384560000588,0.013845600005879533,None,104.03463220000413,104.03463220000413,104.03463220000413,104.03463220000413,104.03463220000413,104.03463220000413,104.03463220000413,104.03463220000413,,001,P022,2025_May_13_1720,CategoryLocalizer,2021.2.3,59.8986395209237,
72.8,73.0,5,0.0,Stimuli\Blank.png,0,0,0,122,122,122,,,,,,,,,,,,,72.85007790000236,0.05007790000236412,None,104.8520365000004,104.8520365000004,104.8520365000004,104.8520365000004,104.8520365000004,104.8520365000004,104.8520365000004,104.8520365000004,,001,P022,2025_May_13_1720,CategoryLocalizer,2021.2.3,59.8986395209237,
73.0,73.8,4,0.75,Stimuli\ImageFiles-Set1\Scenes\Scenes_011.png,0,0,0,123,123,123,,,,,,,,,,,,,73.01475410000421,0.014754100004211068,None,105.03554670000449,105.03554670000449,105.03554670000449,105.03554670000449,105.03554670000449,105.03554670000449,105.03554670000449,105.03554670000449,,001,P022,2025_May_13_1720,CategoryLocalizer,2021.2.3,59.8986395209237,
73.8,74.0,5,0.0,Stimuli\Blank.png,0,0,0,124,124,124,,,,,,,,,,,,,73.85002430000168,0.0500243000016809,None,105.85292350000236,105.85292350000236,105.85292350000236,105.85292350000236,105.85292350000236,105.85292350000236,105.85292350000236,105.85292350000236,,001,P022,2025_May_13_1720,CategoryLocalizer,2021.2.3,59.8986395209237,
74.0,74.8,4,0.75,Stimuli\ImageFiles-Set1\Scenes\Scenes_021.png,0,0,0,125,125,125,,,,,,,,,,,,,74.01505880000332,0.015058800003316719,None,106.03641079999943,106.03641079999943,106.03641079999943,106.03641079999943,106.03641079999943,106.03641079999943,106.03641079999943,106.03641079999943,,001,P022,2025_May_13_1720,CategoryLocalizer,2021.2.3,59.8986395209237,
74.8,75.0,5,0.0,Stimuli\Blank.png,0,0,0,126,126,126,,,,,,,,,,,,,74.8348330000008,0.03483300000080192,None,106.83714419999887,106.83714419999887,106.83714419999887,106.83714419999887,106.83714419999887,106.83714419999887,106.83714419999887,106.83714419999887,,001,P022,2025_May_13_1720,CategoryLocalizer,2021.2.3,59.8986395209237,
75.0,75.8,4,0.75,Stimuli\ImageFiles-Set1\Scenes\Scenes_006.png,0,0,0,127,127,127,,,,,,,,,,,,,75.01635910000186,0.016359100001864135,None,107.03733540000394,107.03733540000394,107.03733540000394,107.03733540000394,107.03733540000394,107.03733540000394,107.03733540000394,107.03733540000394,,001,P022,2025_May_13_1720,CategoryLocalizer,2021.2.3,59.8986395209237,
75.8,76.0,5,0.0,Stimuli\Blank.png,0,0,0,128,128,128,,,,,,,,,,,,,75.83604890000424,0.03604890000424632,None,107.83876630000304,107.83876630000304,107.83876630000304,107.83876630000304,107.83876630000304,107.83876630000304,107.83876630000304,107.83876630000304,,001,P022,2025_May_13_1720,CategoryLocalizer,2021.2.3,59.8986395209237,
76.0,88.0,0,0.0,Stimuli\Blank.png,0,0,0,129,129,129,,,,,,,,,,,,,76.01672830000462,0.01672830000461545,None,108.00483460000396,108.00483460000396,108.00483460000396,108.00483460000396,108.00483460000396,108.00483460000396,108.00483460000396,108.00483460000396,,001,P022,2025_May_13_1720,CategoryLocalizer,2021.2.3,59.8986395209237,
88.0,88.8,3,0.75,Stimuli\ImageFiles-Set1\Faces\Face_00047.png,0,0,0,130,130,130,,,,,,,,,,,,,88.01121760000387,0.011217600003874395,None,120.01543230000243,120.01543230000243,120.01543230000243,120.01543230000243,120.01543230000243,120.01543230000243,120.01543230000243,120.01543230000243,,001,P022,2025_May_13_1720,CategoryLocalizer,2021.2.3,59.8986395209237,
88.8,89.0,5,0.0,Stimuli\Blank.png,0,0,0,131,131,131,,,,,,,,,,,,,88.82933270000649,0.02933270000649202,None,120.81614950000221,120.81614950000221,120.81614950000221,120.81614950000221,120.81614950000221,120.81614950000221,120.81614950000221,120.81614950000221,,001,P022,2025_May_13_1720,CategoryLocalizer,2021.2.3,59.8986395209237,
89.0,89.8,3,0.75,Stimuli\ImageFiles-Set1\Faces\Face_00029.png,0,0,0,132,132,132,,,,,,,,,,,,,89.01192310000624,0.011923100006242748,None,121.01632970000355,121.01632970000355,121.01632970000355,121.01632970000355,121.01632970000355,121.01632970000355,121.01632970000355,121.01632970000355,,001,P022,2025_May_13_1720,CategoryLocalizer,2021.2.3,59.8986395209237,
89.8,90.0,5,0.0,Stimuli\Blank.png,0,0,0,133,133,133,,,,,,,,,,,,,89.82993690000148,0.029936900001487743,None,121.81702320000477,121.81702320000477,121.81702320000477,121.81702320000477,121.81702320000477,121.81702320000477,121.81702320000477,121.81702320000477,,001,P022,2025_May_13_1720,CategoryLocalizer,2021.2.3,59.8986395209237,
90.0,90.8,3,0.75,Stimuli\ImageFiles-Set1\Faces\Face_00037.png,0,0,0,134,134,134,,,,,,,,,,,,,90.01256149999972,0.012561499999719672,None,122.03390290000243,122.03390290000243,122.03390290000243,122.03390290000243,122.03390290000243,122.03390290000243,122.03390290000243,122.03390290000243,,001,P022,2025_May_13_1720,CategoryLocalizer,2021.2.3,59.8986395209237,
90.8,91.0,5,0.0,Stimuli\Blank.png,0,0,0,135,135,135,,,,,,,,,,,,,90.84663150000415,0.04663150000415328,None,122.83459470000525,122.83459470000525,122.83459470000525,122.83459470000525,122.83459470000525,122.83459470000525,122.83459470000525,122.83459470000525,,001,P022,2025_May_13_1720,CategoryLocalizer,2021.2.3,59.8986395209237,
91.0,91.8,3,0.75,Stimuli\ImageFiles-Set1\Faces\Face_00005.png,0,0,0,136,136,136,,,,,,,,,,,,,91.01525419999962,0.015254199999617413,None,123.03481319999992,123.03481319999992,123.03481319999992,123.03481319999992,123.03481319999992,123.03481319999992,123.03481319999992,123.03481319999992,,001,P022,2025_May_13_1720,CategoryLocalizer,2021.2.3,59.8986395209237,
91.8,92.0,5,0.0,Stimuli\Blank.png,0,0,0,137,137,137,,,,,,,,,,,,,91.83148220000294,0.031482200002940885,None,123.81879879999906,123.81879879999906,123.81879879999906,123.81879879999906,123.81879879999906,123.81879879999906,123.81879879999906,123.81879879999906,,001,P022,2025_May_13_1720,CategoryLocalizer,2021.2.3,59.8986395209237,
92.0,92.8,3,0.75,Stimuli\ImageFiles-Set1\Faces\Face_00005.png,1,1,0,138,138,138,,,,,,,,,,,,,92.01427730000432,0.014277300004323479,1,124.00228950000019,124.00228950000019,124.00228950000019,124.00228950000019,124.00228950000019,124.00228950000019,124.00228950000019,124.00228950000019,0.507285799998499,001,P022,2025_May_13_1720,CategoryLocalizer,2021.2.3,59.8986395209237,
92.8,93.0,5,0.0,Stimuli\Blank.png,0,0,0,139,139,139,,,,,,,,,,,,,92.81567850000283,0.015678500002834994,None,124.80301609999879,124.80301609999879,124.80301609999879,124.80301609999879,124.80301609999879,124.80301609999879,124.80301609999879,124.80301609999879,,001,P022,2025_May_13_1720,CategoryLocalizer,2021.2.3,59.8986395209237,
93.0,93.8,3,0.75,Stimuli\ImageFiles-Set1\Faces\Face_00087.png,0,0,0,140,140,140,,,,,,,,,,,,,93.00019400000019,0.0001940000001923181,None,125.03655209999852,125.03655209999852,125.03655209999852,125.03655209999852,125.03655209999852,125.03655209999852,125.03655209999852,125.03655209999852,,001,P022,2025_May_13_1720,CategoryLocalizer,2021.2.3,59.8986395209237,
93.8,94.0,5,0.0,Stimuli\Blank.png,0,0,0,141,141,141,,,,,,,,,,,,,93.84987120000005,0.04987120000005518,None,125.83724639999855,125.83724639999855,125.83724639999855,125.83724639999855,125.83724639999855,125.83724639999855,125.83724639999855,125.83724639999855,,001,P022,2025_May_13_1720,CategoryLocalizer,2021.2.3,59.8986395209237,
94.0,94.8,3,0.75,Stimuli\ImageFiles-Set1\Faces\Face_00109.png,0,0,0,142,142,142,,,,,,,,,,,,,94.00000370000635,3.7000063457526267e-06,None,126.00407690000429,126.00407690000429,126.00407690000429,126.00407690000429,126.00407690000429,126.00407690000429,126.00407690000429,126.00407690000429,,001,P022,2025_May_13_1720,CategoryLocalizer,2021.2.3,59.8986395209237,
94.8,95.0,5,0.0,Stimuli\Blank.png,0,0,0,143,143,143,,,,,,,,,,,,,94.81736170000659,0.017361700006588876,None,126.80477080000128,126.80477080000128,126.80477080000128,126.80477080000128,126.80477080000128,126.80477080000128,126.80477080000128,126.80477080000128,,001,P022,2025_May_13_1720,CategoryLocalizer,2021.2.3,59.8986395209237,
95.0,95.8,3,0.75,Stimuli\ImageFiles-Set1\Faces\Face_00041.png,0,0,0,144,144,144,,,,,,,,,,,,,95.0009699000002,0.0009699000002001412,None,127.00492769999983,127.00492769999983,127.00492769999983,127.00492769999983,127.00492769999983,127.00492769999983,127.00492769999983,127.00492769999983,,001,P022,2025_May_13_1720,CategoryLocalizer,2021.2.3,59.8986395209237,
95.8,96.0,5,0.0,Stimuli\Blank.png,0,0,0,145,145,145,,,,,,,,,,,,,95.82028759999957,0.020287599999576855,None,127.82235780000337,127.82235780000337,127.82235780000337,127.82235780000337,127.82235780000337,127.82235780000337,127.82235780000337,127.82235780000337,,001,P022,2025_May_13_1720,CategoryLocalizer,2021.2.3,59.8986395209237,
96.0,96.8,3,0.75,Stimuli\ImageFiles-Set1\Faces\Face_00018.png,0,0,0,146,146,146,,,,,,,,,,,,,96.02020790000097,0.020207900000968948,None,128.03920330000255,128.03920330000255,128.03920330000255,128.03920330000255,128.03920330000255,128.03920330000255,128.03920330000255,128.03920330000255,,001,P022,2025_May_13_1720,CategoryLocalizer,2021.2.3,59.8986395209237,
96.8,97.0,5,0.0,Stimuli\Blank.png,0,0,0,147,147,147,,,,,,,,,,,,,96.83568110000488,0.03568110000487934,None,128.82323210000322,128.82323210000322,128.82323210000322,128.82323210000322,128.82323210000322,128.82323210000322,128.82323210000322,128.82323210000322,,001,P022,2025_May_13_1720,CategoryLocalizer,2021.2.3,59.8986395209237,
97.0,97.8,3,0.75,Stimuli\ImageFiles-Set1\Faces\Face_00049.png,0,0,0,148,148,148,,,,,,,,,,,,,97.00270000000455,0.002700000004551839,None,128.99002960000507,128.99002960000507,128.99002960000507,128.99002960000507,128.99002960000507,128.99002960000507,128.99002960000507,128.99002960000507,,001,P022,2025_May_13_1720,CategoryLocalizer,2021.2.3,59.8986395209237,
97.8,98.0,5,0.0,Stimuli\Blank.png,0,0,0,149,149,149,,,,,,,,,,,,,97.80335290000221,0.0033529000022127775,None,129.7907641999991,129.7907641999991,129.7907641999991,129.7907641999991,129.7907641999991,129.7907641999991,129.7907641999991,129.7907641999991,,001,P022,2025_May_13_1720,CategoryLocalizer,2021.2.3,59.8986395209237,
98.0,98.8,3,0.75,Stimuli\ImageFiles-Set1\Faces\Face_00016.png,0,0,0,150,150,150,,,,,,,,,,,,,98.00286770000093,0.002867700000933837,None,130.0076235000015,130.0076235000015,130.0076235000015,130.0076235000015,130.0076235000015,130.0076235000015,130.0076235000015,130.0076235000015,,001,P022,2025_May_13_1720,CategoryLocalizer,2021.2.3,59.8986395209237,
98.8,99.0,5,0.0,Stimuli\Blank.png,0,0,0,151,151,151,,,,,,,,,,,,,98.82146560000547,0.021465600005470264,None,130.82501920000504,130.82501920000504,130.82501920000504,130.82501920000504,130.82501920000504,130.82501920000504,130.82501920000504,130.82501920000504,,001,P022,2025_May_13_1720,CategoryLocalizer,2021.2.3,59.8986395209237,
99.0,99.8,3,0.75,Stimuli\ImageFiles-Set1\Faces\Face_00107.png,0,0,0,152,152,152,,,,,,,,,,,,,99.02150890000485,0.02150890000484651,None,131.02517710000393,131.02517710000393,131.02517710000393,131.02517710000393,131.02517710000393,131.02517710000393,131.02517710000393,131.02517710000393,,001,P022,2025_May_13_1720,CategoryLocalizer,2021.2.3,59.8986395209237,
99.8,100.0,5,0.0,Stimuli\Blank.png,0,0,0,153,153,153,,,,,,,,,,,,,99.821179700004,0.021179700003997937,None,131.8092031999986,131.8092031999986,131.8092031999986,131.8092031999986,131.8092031999986,131.8092031999986,131.8092031999986,131.8092031999986,,001,P022,2025_May_13_1720,CategoryLocalizer,2021.2.3,59.8986395209237,
100.0,100.8,3,0.75,Stimuli\ImageFiles-Set1\Faces\Face_00073.png,0,0,0,154,154,154,,,,,,,,,,,,,100.004588900003,0.0045889000030001625,None,132.0260672000004,132.0260672000004,132.0260672000004,132.0260672000004,132.0260672000004,132.0260672000004,132.0260672000004,132.0260672000004,,001,P022,2025_May_13_1720,CategoryLocalizer,2021.2.3,59.8986395209237,
100.8,101.0,5,0.0,Stimuli\Blank.png,0,0,0,155,155,155,,,,,,,,,,,,,100.84122560000105,0.041225600001055795,None,132.84345620000386,132.84345620000386,132.84345620000386,132.84345620000386,132.84345620000386,132.84345620000386,132.84345620000386,132.84345620000386,,001,P022,2025_May_13_1720,CategoryLocalizer,2021.2.3,59.8986395209237,
101.0,101.8,3,0.75,Stimuli\ImageFiles-Set1\Faces\Face_00093.png,0,0,0,156,156,156,,,,,,,,,,,,,101.0234139000022,0.023413900002196897,None,133.04362100000435,133.04362100000435,133.04362100000435,133.04362100000435,133.04362100000435,133.04362100000435,133.04362100000435,133.04362100000435,,001,P022,2025_May_13_1720,CategoryLocalizer,2021.2.3,59.8986395209237,
101.8,102.0,5,0.0,Stimuli\Blank.png,0,0,0,157,157,157,,,,,,,,,,,,,101.84046610000223,0.040466100002234384,None,133.82764880000468,133.82764880000468,133.82764880000468,133.82764880000468,133.82764880000468,133.82764880000468,133.82764880000468,133.82764880000468,,001,P022,2025_May_13_1720,CategoryLocalizer,2021.2.3,59.8986395209237,
102.0,102.8,3,0.75,Stimuli\ImageFiles-Set1\Faces\Face_00103.png,0,0,0,158,158,158,,,,,,,,,,,,,102.00635400000465,0.006354000004648697,None,133.99445610000112,133.99445610000112,133.99445610000112,133.99445610000112,133.99445610000112,133.99445610000112,133.99445610000112,133.99445610000112,,001,P022,2025_May_13_1720,CategoryLocalizer,2021.2.3,59.8986395209237,
102.8,103.0,5,0.0,Stimuli\Blank.png,0,0,0,159,159,159,,,,,,,,,,,,,102.80829960000119,0.008299600001194563,None,134.79518810000445,134.79518810000445,134.79518810000445,134.79518810000445,134.79518810000445,134.79518810000445,134.79518810000445,134.79518810000445,,001,P022,2025_May_13_1720,CategoryLocalizer,2021.2.3,59.8986395209237,
103.0,103.8,3,0.75,Stimuli\ImageFiles-Set1\Faces\Face_00061.png,0,0,0,160,160,160,,,,,,,,,,,,,103.00722180000594,0.0072218000059365295,None,135.02871969999978,135.02871969999978,135.02871969999978,135.02871969999978,135.02871969999978,135.02871969999978,135.02871969999978,135.02871969999978,,001,P022,2025_May_13_1720,CategoryLocalizer,2021.2.3,59.8986395209237,
103.8,104.0,5,0.0,Stimuli\Blank.png,0,0,0,161,161,161,,,,,,,,,,,,,103.84208810000564,0.04208810000564256,None,135.82942430000548,135.82942430000548,135.82942430000548,135.82942430000548,135.82942430000548,135.82942430000548,135.82942430000548,135.82942430000548,,001,P022,2025_May_13_1720,CategoryLocalizer,2021.2.3,59.8986395209237,
104.0,104.8,1,0.75,Stimuli\ImageFiles-Set1\Objects\Object_Locker_00001.png,0,0,0,162,162,162,,,,,,,,,,,,,104.00934270000289,0.009342700002889615,None,136.01291130000027,136.01291130000027,136.01291130000027,136.01291130000027,136.01291130000027,136.01291130000027,136.01291130000027,136.01291130000027,,001,P022,2025_May_13_1720,CategoryLocalizer,2021.2.3,59.8986395209237,
104.8,105.0,5,0.0,Stimuli\Blank.png,0,0,0,163,163,163,,,,,,,,,,,,,104.82591620000312,0.02591620000312389,None,136.81361460000335,136.81361460000335,136.81361460000335,136.81361460000335,136.81361460000335,136.81361460000335,136.81361460000335,136.81361460000335,,001,P022,2025_May_13_1720,CategoryLocalizer,2021.2.3,59.8986395209237,
105.0,105.8,1,0.75,Stimuli\ImageFiles-Set1\Objects\Object_Football_00001.png,0,0,0,164,164,164,,,,,,,,,,,,,105.01006659999985,0.010066599999845494,None,137.01379970000562,137.01379970000562,137.01379970000562,137.01379970000562,137.01379970000562,137.01379970000562,137.01379970000562,137.01379970000562,,001,P022,2025_May_13_1720,CategoryLocalizer,2021.2.3,59.8986395209237,
105.8,106.0,5,0.0,Stimuli\Blank.png,0,0,0,165,165,165,,,,,,,,,,,,,105.82747530000051,0.027475300000517677,None,137.81457290000253,137.81457290000253,137.81457290000253,137.81457290000253,137.81457290000253,137.81457290000253,137.81457290000253,137.81457290000253,,001,P022,2025_May_13_1720,CategoryLocalizer,2021.2.3,59.8986395209237,
106.0,106.8,1,0.75,Stimuli\ImageFiles-Set1\Objects\Object_Book_00001.png,0,0,0,166,166,166,,,,,,,,,,,,,106.01056460000109,0.010564600001089275,None,138.01469070000167,138.01469070000167,138.01469070000167,138.01469070000167,138.01469070000167,138.01469070000167,138.01469070000167,138.01469070000167,,001,P022,2025_May_13_1720,CategoryLocalizer,2021.2.3,59.8986395209237,
106.8,107.0,5,0.0,Stimuli\Blank.png,0,0,0,167,167,167,,,,,,,,,,,,,106.8298694000041,0.02986940000410243,None,138.8320778000052,138.8320778000052,138.8320778000052,138.8320778000052,138.8320778000052,138.8320778000052,138.8320778000052,138.8320778000052,,001,P022,2025_May_13_1720,CategoryLocalizer,2021.2.3,59.8986395209237,
107.0,107.8,1,0.75,Stimuli\ImageFiles-Set1\Objects\Object_Book_00001.png,1,1,0,168,168,168,,,,,,,,,,,,,107.0281557000053,0.028155700005299877,1,139.0322557000036,139.0322557000036,139.0322557000036,139.0322557000036,139.0322557000036,139.0322557000036,139.0322557000036,139.0322557000036,0.41812019999633776,001,P022,2025_May_13_1720,CategoryLocalizer,2021.2.3,59.8986395209237,
107.8,108.0,5,0.0,Stimuli\Blank.png,0,0,0,169,169,169,,,,,,,,,,,,,107.83029740000347,0.030297400003476582,None,139.83295029999863,139.83295029999863,139.83295029999863,139.83295029999863,139.83295029999863,139.83295029999863,139.83295029999863,139.83295029999863,,001,P022,2025_May_13_1720,CategoryLocalizer,2021.2.3,59.8986395209237,
108.0,108.8,1,0.75,Stimuli\ImageFiles-Set1\Objects\Object_Table_00001.png,0,0,0,170,170,170,,,,,,,,,,,,,108.03095240000403,0.03095240000402555,None,140.0331432000021,140.0331432000021,140.0331432000021,140.0331432000021,140.0331432000021,140.0331432000021,140.0331432000021,140.0331432000021,,001,P022,2025_May_13_1720,CategoryLocalizer,2021.2.3,59.8986395209237,
108.8,109.0,5,0.0,Stimuli\Blank.png,0,0,0,171,171,171,,,,,,,,,,,,,108.82970430000569,0.029704300005690243,None,140.81717480000225,140.81717480000225,140.81717480000225,140.81717480000225,140.81717480000225,140.81717480000225,140.81717480000225,140.81717480000225,,001,P022,2025_May_13_1720,CategoryLocalizer,2021.2.3,59.8986395209237,
109.0,109.8,1,0.75,Stimuli\ImageFiles-Set1\Objects\Object_Knife_00001.png,0,0,0,172,172,172,,,,,,,,,,,,,109.01323570000386,0.013235700003860984,None,141.01740180000343,141.01740180000343,141.01740180000343,141.01740180000343,141.01740180000343,141.01740180000343,141.01740180000343,141.01740180000343,,001,P022,2025_May_13_1720,CategoryLocalizer,2021.2.3,59.8986395209237,
109.8,110.0,5,0.0,Stimuli\Blank.png,0,0,0,173,173,173,,,,,,,,,,,,,109.83072050000192,0.030720500001919504,None,141.81804260000354,141.81804260000354,141.81804260000354,141.81804260000354,141.81804260000354,141.81804260000354,141.81804260000354,141.81804260000354,,001,P022,2025_May_13_1720,CategoryLocalizer,2021.2.3,59.8986395209237,
110.0,110.8,1,0.75,Stimuli\ImageFiles-Set1\Objects\Object_Canoe_00001.png,0,0,0,174,174,174,,,,,,,,,,,,,110.01430940000137,0.014309400001366157,None,142.01825980000285,142.01825980000285,142.01825980000285,142.01825980000285,142.01825980000285,142.01825980000285,142.01825980000285,142.01825980000285,,001,P022,2025_May_13_1720,CategoryLocalizer,2021.2.3,59.8986395209237,
110.8,111.0,5,0.0,Stimuli\Blank.png,0,0,0,175,175,175,,,,,,,,,,,,,110.8316083000027,0.031608300002702094,None,142.81893560000026,142.81893560000026,142.81893560000026,142.81893560000026,142.81893560000026,142.81893560000026,142.81893560000026,142.81893560000026,,001,P022,2025_May_13_1720,CategoryLocalizer,2021.2.3,59.8986395209237,
111.0,111.8,1,0.75,Stimuli\ImageFiles-Set1\Objects\Object_Stool_00001.png,0,0,0,176,176,176,,,,,,,,,,,,,111.01491080000415,0.01491080000414513,None,143.01911680000194,143.01911680000194,143.01911680000194,143.01911680000194,143.01911680000194,143.01911680000194,143.01911680000194,143.01911680000194,,001,P022,2025_May_13_1720,CategoryLocalizer,2021.2.3,59.8986395209237,
111.8,112.0,5,0.0,Stimuli\Blank.png,0,0,0,177,177,177,,,,,,,,,,,,,111.8316757000066,0.031675700006601915,None,143.81982190000417,143.81982190000417,143.81982190000417,143.81982190000417,143.81982190000417,143.81982190000417,143.81982190000417,143.81982190000417,,001,P022,2025_May_13_1720,CategoryLocalizer,2021.2.3,59.8986395209237,
112.0,112.8,1,0.75,Stimuli\ImageFiles-Set1\Objects\Object_Dryer_00001.png,0,0,0,178,178,178,,,,,,,,,,,,,112.01550080000015,0.015500800000154413,None,144.01999250000517,144.01999250000517,144.01999250000517,144.01999250000517,144.01999250000517,144.01999250000517,144.01999250000517,144.01999250000517,,001,P022,2025_May_13_1720,CategoryLocalizer,2021.2.3,59.8986395209237,
112.8,113.0,5,0.0,Stimuli\Blank.png,0,0,0,179,179,179,,,,,,,,,,,,,112.81688430000213,0.01688430000213259,None,144.80401849999907,144.80401849999907,144.80401849999907,144.80401849999907,144.80401849999907,144.80401849999907,144.80401849999907,144.80401849999907,,001,P022,2025_May_13_1720,CategoryLocalizer,2021.2.3,59.8986395209237,
113.0,113.8,1,0.75,Stimuli\ImageFiles-Set1\Objects\Object_Sock_00001.png,0,0,0,180,180,180,,,,,,,,,,,,,113.00065700000414,0.0006570000041392632,None,145.0042126000044,145.0042126000044,145.0042126000044,145.0042126000044,145.0042126000044,145.0042126000044,145.0042126000044,145.0042126000044,,001,P022,2025_May_13_1720,CategoryLocalizer,2021.2.3,59.8986395209237,
113.8,114.0,5,0.0,Stimuli\Blank.png,0,0,0,181,181,181,,,,,,,,,,,,,113.81754230000661,0.01754230000661039,None,145.80490350000036,145.80490350000036,145.80490350000036,145.80490350000036,145.80490350000036,145.80490350000036,145.80490350000036,145.80490350000036,,001,P022,2025_May_13_1720,CategoryLocalizer,2021.2.3,59.8986395209237,
114.0,114.8,1,0.75,Stimuli\ImageFiles-Set1\Objects\Object_Card_00001.png,0,0,0,182,182,182,,,,,,,,,,,,,114.00042850000318,0.0004285000031813979,None,146.00505130000238,146.00505130000238,146.00505130000238,146.00505130000238,146.00505130000238,146.00505130000238,146.00505130000238,146.00505130000238,,001,P022,2025_May_13_1720,CategoryLocalizer,2021.2.3,59.8986395209237,
114.8,115.0,5,0.0,Stimuli\Blank.png,0,0,0,183,183,183,,,,,,,,,,,,,114.8183646000034,0.018364600003408782,None,146.80579800000123,146.80579800000123,146.80579800000123,146.80579800000123,146.80579800000123,146.80579800000123,146.80579800000123,146.80579800000123,,001,P022,2025_May_13_1720,CategoryLocalizer,2021.2.3,59.8986395209237,
115.0,115.8,1,0.75,Stimuli\ImageFiles-Set1\Objects\Object_Crib_00001.png,0,0,0,184,184,184,,,,,,,,,,,,,115.00126140000066,0.0012614000006578863,None,146.98927710000135,146.98927710000135,146.98927710000135,146.98927710000135,146.98927710000135,146.98927710000135,146.98927710000135,146.98927710000135,,001,P022,2025_May_13_1720,CategoryLocalizer,2021.2.3,59.8986395209237,
115.8,116.0,5,0.0,Stimuli\Blank.png,0,0,0,185,185,185,,,,,,,,,,,,,115.80259630000364,0.002596300003645524,None,147.79000150000502,147.79000150000502,147.79000150000502,147.79000150000502,147.79000150000502,147.79000150000502,147.79000150000502,147.79000150000502,,001,P022,2025_May_13_1720,CategoryLocalizer,2021.2.3,59.8986395209237,
116.0,116.8,1,0.75,Stimuli\ImageFiles-Set1\Objects\Object_Bed_00001.png,1,1,0,186,186,186,,,,,,,,,,,,,116.00268590000633,0.0026859000063268468,None,148.00684750000073,148.00684750000073,148.00684750000073,148.00684750000073,148.00684750000073,148.00684750000073,148.00684750000073,148.00684750000073,,001,P022,2025_May_13_1720,CategoryLocalizer,2021.2.3,59.8986395209237,
116.8,117.0,5,0.0,Stimuli\Blank.png,0,0,0,187,187,187,,,,,,,,,,,,,116.81969730000128,0.019697300001283224,None,148.8075577999989,148.8075577999989,148.8075577999989,148.8075577999989,148.8075577999989,148.8075577999989,148.8075577999989,148.8075577999989,,001,P022,2025_May_13_1720,CategoryLocalizer,2021.2.3,59.8986395209237,
117.0,117.8,1,0.75,Stimuli\ImageFiles-Set1\Objects\Object_Boat_00001.png,0,0,0,188,188,188,,,,,,,,,,,,,117.00570240000525,0.00570240000524791,None,149.0077425000054,149.0077425000054,149.0077425000054,149.0077425000054,149.0077425000054,149.0077425000054,149.0077425000054,149.0077425000054,,001,P022,2025_May_13_1720,CategoryLocalizer,2021.2.3,59.8986395209237,
117.8,118.0,5,0.0,Stimuli\Blank.png,0,0,0,189,189,189,,,,,,,,,,,,,117.82087350000074,0.020873500000746503,None,149.80843730000197,149.80843730000197,149.80843730000197,149.80843730000197,149.80843730000197,149.80843730000197,149.80843730000197,149.80843730000197,,001,P022,2025_May_13_1720,CategoryLocalizer,2021.2.3,59.8986395209237,
118.0,118.8,1,0.75,Stimuli\ImageFiles-Set1\Objects\Object_Boat_00001.png,0,0,0,190,190,190,,,,,,,,,,,,,118.00429300000542,0.004293000005418435,1,149.99193519999972,149.99193519999972,149.99193519999972,149.99193519999972,149.99193519999972,149.99193519999972,149.99193519999972,149.99193519999972,0.5243658000035794,001,P022,2025_May_13_1720,CategoryLocalizer,2021.2.3,59.8986395209237,
118.8,119.0,5,0.0,Stimuli\Blank.png,0,0,0,191,191,191,,,,,,,,,,,,,118.80602190000354,0.006021900003545966,None,150.79266830000415,150.79266830000415,150.79266830000415,150.79266830000415,150.79266830000415,150.79266830000415,150.79266830000415,150.79266830000415,,001,P022,2025_May_13_1720,CategoryLocalizer,2021.2.3,59.8986395209237,
119.0,119.8,1,0.75,Stimuli\ImageFiles-Set1\Objects\Object_Box_00001.png,0,0,0,192,192,192,,,,,,,,,,,,,119.00479350000387,0.004793500003870577,None,151.0095147000029,151.0095147000029,151.0095147000029,151.0095147000029,151.0095147000029,151.0095147000029,151.0095147000029,151.0095147000029,,001,P022,2025_May_13_1720,CategoryLocalizer,2021.2.3,59.8986395209237,
119.8,120.0,5,0.0,Stimuli\Blank.png,0,0,0,193,193,193,,,,,,,,,,,,,119.8222281000053,0.022228100005307283,None,151.81021150000015,151.81021150000015,151.81021150000015,151.81021150000015,151.81021150000015,151.81021150000015,151.81021150000015,151.81021150000015,,001,P022,2025_May_13_1720,CategoryLocalizer,2021.2.3,59.8986395209237,
120.0,120.8,4,0.75,Stimuli\ImageFiles-Set1\Scenes\Scenes_012.png,0,0,0,194,194,194,,,,,,,,,,,,,120.00579660000221,0.005796600002213381,None,152.0103883000047,152.0103883000047,152.0103883000047,152.0103883000047,152.0103883000047,152.0103883000047,152.0103883000047,152.0103883000047,,001,P022,2025_May_13_1720,CategoryLocalizer,2021.2.3,59.8986395209237,
120.8,121.0,5,0.0,Stimuli\Blank.png,0,0,0,195,195,195,,,,,,,,,,,,,120.82495400000334,0.024954000003347687,None,152.8278019999998,152.8278019999998,152.8278019999998,152.8278019999998,152.8278019999998,152.8278019999998,152.8278019999998,152.8278019999998,,001,P022,2025_May_13_1720,CategoryLocalizer,2021.2.3,59.8986395209237,
121.0,121.8,4,0.75,Stimuli\ImageFiles-Set1\Scenes\Scenes_046.png,0,0,0,196,196,196,,,,,,,,,,,,,121.02544150000176,0.025441500001761597,None,153.0446751999989,153.0446751999989,153.0446751999989,153.0446751999989,153.0446751999989,153.0446751999989,153.0446751999989,153.0446751999989,,001,P022,2025_May_13_1720,CategoryLocalizer,2021.2.3,59.8986395209237,
121.8,122.0,5,0.0,Stimuli\Blank.png,0,0,0,197,197,197,,,,,,,,,,,,,121.84064790000411,0.04064790000411733,None,153.82865719999972,153.82865719999972,153.82865719999972,153.82865719999972,153.82865719999972,153.82865719999972,153.82865719999972,153.82865719999972,,001,P022,2025_May_13_1720,CategoryLocalizer,2021.2.3,59.8986395209237,
122.0,122.8,4,0.75,Stimuli\ImageFiles-Set1\Scenes\Scenes_004.png,0,0,0,198,198,198,,,,,,,,,,,,,122.00739290000638,0.007392900006379932,None,154.0121627000044,154.0121627000044,154.0121627000044,154.0121627000044,154.0121627000044,154.0121627000044,154.0121627000044,154.0121627000044,,001,P022,2025_May_13_1720,CategoryLocalizer,2021.2.3,59.8986395209237,
122.8,123.0,5,0.0,Stimuli\Blank.png,0,0,0,199,199,199,,,,,,,,,,,,,122.82584300000599,0.025843000005991712,None,154.81286790000013,154.81286790000013,154.81286790000013,154.81286790000013,154.81286790000013,154.81286790000013,154.81286790000013,154.81286790000013,,001,P022,2025_May_13_1720,CategoryLocalizer,2021.2.3,59.8986395209237,
123.0,123.8,4,0.75,Stimuli\ImageFiles-Set1\Scenes\Scenes_004.png,1,1,0,200,200,200,,,,,,,,,,,,,123.01024000000325,0.010240000003250316,1,155.01304820000223,155.01304820000223,155.01304820000223,155.01304820000223,155.01304820000223,155.01304820000223,155.01304820000223,155.01304820000223,0.5133587000018451,001,P022,2025_May_13_1720,CategoryLocalizer,2021.2.3,59.8986395209237,
123.8,124.0,5,0.0,Stimuli\Blank.png,0,0,0,201,201,201,,,,,,,,,,,,,123.82581770000252,0.025817700002519928,None,155.81373220000387,155.81373220000387,155.81373220000387,155.81373220000387,155.81373220000387,155.81373220000387,155.81373220000387,155.81373220000387,,001,P022,2025_May_13_1720,CategoryLocalizer,2021.2.3,59.8986395209237,
124.0,124.8,4,0.75,Stimuli\ImageFiles-Set1\Scenes\Scenes_017.png,0,0,0,202,202,202,,,,,,,,,,,,,124.00944190000155,0.009441900001547765,None,156.03060630000255,156.03060630000255,156.03060630000255,156.03060630000255,156.03060630000255,156.03060630000255,156.03060630000255,156.03060630000255,,001,P022,2025_May_13_1720,CategoryLocalizer,2021.2.3,59.8986395209237,
124.8,125.0,5,0.0,Stimuli\Blank.png,0,0,0,203,203,203,,,,,,,,,,,,,124.84505940000236,0.04505940000235853,None,156.84800800000085,156.84800800000085,156.84800800000085,156.84800800000085,156.84800800000085,156.84800800000085,156.84800800000085,156.84800800000085,,001,P022,2025_May_13_1720,CategoryLocalizer,2021.2.3,59.8986395209237,
125.0,125.8,4,0.75,Stimuli\ImageFiles-Set1\Scenes\Scenes_045.png,0,0,0,204,204,204,,,,,,,,,,,,,125.02762100000109,0.02762100000109058,None,157.0315378000014,157.0315378000014,157.0315378000014,157.0315378000014,157.0315378000014,157.0315378000014,157.0315378000014,157.0315378000014,,001,P022,2025_May_13_1720,CategoryLocalizer,2021.2.3,59.8986395209237,
125.8,126.0,5,0.0,Stimuli\Blank.png,0,0,0,205,205,205,,,,,,,,,,,,,125.82738160000008,0.027381600000083495,None,157.8155224000002,157.8155224000002,157.8155224000002,157.8155224000002,157.8155224000002,157.8155224000002,157.8155224000002,157.8155224000002,,001,P022,2025_May_13_1720,CategoryLocalizer,2021.2.3,59.8986395209237,
126.0,126.8,4,0.75,Stimuli\ImageFiles-Set1\Scenes\Scenes_020.png,0,0,0,206,206,206,,,,,,,,,,,,,126.01153510000586,0.011535100005858112,None,158.01574139999866,158.01574139999866,158.01574139999866,158.01574139999866,158.01574139999866,158.01574139999866,158.01574139999866,158.01574139999866,,001,P022,2025_May_13_1720,CategoryLocalizer,2021.2.3,59.8986395209237,
126.8,127.0,5,0.0,Stimuli\Blank.png,0,0,0,207,207,207,,,,,,,,,,,,,126.83024049999949,0.03024049999949341,None,158.8330896000043,158.8330896000043,158.8330896000043,158.8330896000043,158.8330896000043,158.8330896000043,158.8330896000043,158.8330896000043,,001,P022,2025_May_13_1720,CategoryLocalizer,2021.2.3,59.8986395209237,
127.0,127.8,4,0.75,Stimuli\ImageFiles-Set1\Scenes\Scenes_009.png,0,0,0,208,208,208,,,,,,,,,,,,,127.03091110000241,0.03091110000241315,None,159.03326390000439,159.03326390000439,159.03326390000439,159.03326390000439,159.03326390000439,159.03326390000439,159.03326390000439,159.03326390000439,,001,P022,2025_May_13_1720,CategoryLocalizer,2021.2.3,59.8986395209237,
127.8,128.0,5,0.0,Stimuli\Blank.png,0,0,0,209,209,209,,,,,,,,,,,,,127.83132240000123,0.03132240000122977,None,159.81729640000412,159.81729640000412,159.81729640000412,159.81729640000412,159.81729640000412,159.81729640000412,159.81729640000412,159.81729640000412,,001,P022,2025_May_13_1720,CategoryLocalizer,2021.2.3,59.8986395209237,
128.0,128.8,4,0.75,Stimuli\ImageFiles-Set1\Scenes\Scenes_038.png,0,0,0,210,210,210,,,,,,,,,,,,,128.01447060000646,0.01447060000646161,None,160.0508736000047,160.0508736000047,160.0508736000047,160.0508736000047,160.0508736000047,160.0508736000047,160.0508736000047,160.0508736000047,,001,P022,2025_May_13_1720,CategoryLocalizer,2021.2.3,59.8986395209237,
128.8,129.0,5,0.0,Stimuli\Blank.png,0,0,0,211,211,211,,,,,,,,,,,,,128.86537500000122,0.06537500000121099,None,160.86823020000156,160.86823020000156,160.86823020000156,160.86823020000156,160.86823020000156,160.86823020000156,160.86823020000156,160.86823020000156,,001,P022,2025_May_13_1720,CategoryLocalizer,2021.2.3,59.8986395209237,
129.0,129.8,4,0.75,Stimuli\ImageFiles-Set1\Scenes\Scenes_028.png,0,0,0,212,212,212,,,,,,,,,,,,,129.03111750000244,0.031117500002437737,None,161.05172139999922,161.05172139999922,161.05172139999922,161.05172139999922,161.05172139999922,161.05172139999922,161.05172139999922,161.05172139999922,,001,P022,2025_May_13_1720,CategoryLocalizer,2021.2.3,59.8986395209237,
129.8,130.0,5,0.0,Stimuli\Blank.png,0,0,0,213,213,213,,,,,,,,,,,,,129.84759780000604,0.047597800006030866,None,161.8357421000037,161.8357421000037,161.8357421000037,161.8357421000037,161.8357421000037,161.8357421000037,161.8357421000037,161.8357421000037,,001,P022,2025_May_13_1720,CategoryLocalizer,2021.2.3,59.8986395209237,
130.0,130.8,4,0.75,Stimuli\ImageFiles-Set1\Scenes\Scenes_032.png,0,0,0,214,214,214,,,,,,,,,,,,,130.01520280000113,0.015202800001134165,None,162.035930500002,162.035930500002,162.035930500002,162.035930500002,162.035930500002,162.035930500002,162.035930500002,162.035930500002,,001,P022,2025_May_13_1720,CategoryLocalizer,2021.2.3,59.8986395209237,
130.8,131.0,5,0.0,Stimuli\Blank.png,0,0,0,215,215,215,,,,,,,,,,,,,130.83259830000316,0.03259830000314423,None,162.81996330000402,162.81996330000402,162.81996330000402,162.81996330000402,162.81996330000402,162.81996330000402,162.81996330000402,162.81996330000402,,001,P022,2025_May_13_1720,CategoryLocalizer,2021.2.3,59.8986395209237,
131.0,131.8,4,0.75,Stimuli\ImageFiles-Set1\Scenes\Scenes_051.png,0,0,0,216,216,216,,,,,,,,,,,,,130.9987672000061,-0.0012327999938861467,None,163.02012820000527,163.02012820000527,163.02012820000527,163.02012820000527,163.02012820000527,163.02012820000527,163.02012820000527,163.02012820000527,,001,P022,2025_May_13_1720,CategoryLocalizer,2021.2.3,59.8986395209237,
131.8,132.0,5,0.0,Stimuli\Blank.png,0,0,0,217,217,217,,,,,,,,,,,,,131.83342090000224,0.03342090000222697,None,163.8208550000054,163.8208550000054,163.8208550000054,163.8208550000054,163.8208550000054,163.8208550000054,163.8208550000054,163.8208550000054,,001,P022,2025_May_13_1720,CategoryLocalizer,2021.2.3,59.8986395209237,
132.0,132.8,4,0.75,Stimuli\ImageFiles-Set1\Scenes\Scenes_040.png,0,0,0,218,218,218,,,,,,,,,,,,,131.99998369999958,-1.630000042496249e-05,None,164.02103160000115,164.02103160000115,164.02103160000115,164.02103160000115,164.02103160000115,164.02103160000115,164.02103160000115,164.02103160000115,,001,P022,2025_May_13_1720,CategoryLocalizer,2021.2.3,59.8986395209237,
132.8,133.0,5,0.0,Stimuli\Blank.png,0,0,0,219,219,219,,,,,,,,,,,,,132.8362902000008,0.03629020000079208,None,164.83840639999835,164.83840639999835,164.83840639999835,164.83840639999835,164.83840639999835,164.83840639999835,164.83840639999835,164.83840639999835,,001,P022,2025_May_13_1720,CategoryLocalizer,2021.2.3,59.8986395209237,
133.0,133.8,4,0.75,Stimuli\ImageFiles-Set1\Scenes\Scenes_041.png,0,0,0,220,220,220,,,,,,,,,,,,,133.01771700000245,0.017717000002448913,None,165.02194189999864,165.02194189999864,165.02194189999864,165.02194189999864,165.02194189999864,165.02194189999864,165.02194189999864,165.02194189999864,,001,P022,2025_May_13_1720,CategoryLocalizer,2021.2.3,59.8986395209237,
133.8,134.0,5,0.0,Stimuli\Blank.png,0,0,0,221,221,221,,,,,,,,,,,,,133.8202889000022,0.020288900002185528,None,165.8225980999996,165.8225980999996,165.8225980999996,165.8225980999996,165.8225980999996,165.8225980999996,165.8225980999996,165.8225980999996,,001,P022,2025_May_13_1720,CategoryLocalizer,2021.2.3,59.8986395209237,
134.0,134.8,4,0.75,Stimuli\ImageFiles-Set1\Scenes\Scenes_043.png,0,0,0,222,222,222,,,,,,,,,,,,,134.01988110000093,0.01988110000093002,None,166.0394723999998,166.0394723999998,166.0394723999998,166.0394723999998,166.0394723999998,166.0394723999998,166.0394723999998,166.0394723999998,,001,P022,2025_May_13_1720,CategoryLocalizer,2021.2.3,59.8986395209237,
134.8,135.0,5,0.0,Stimuli\Blank.png,0,0,0,223,223,223,,,,,,,,,,,,,134.8358909000017,0.03589090000167516,None,166.8234991999998,166.8234991999998,166.8234991999998,166.8234991999998,166.8234991999998,166.8234991999998,166.8234991999998,166.8234991999998,,001,P022,2025_May_13_1720,CategoryLocalizer,2021.2.3,59.8986395209237,
135.0,135.8,4,0.75,Stimuli\ImageFiles-Set1\Scenes\Scenes_052.png,0,0,0,224,224,224,,,,,,,,,,,,,135.00227980000636,0.0022798000063630752,None,167.0069857999988,167.0069857999988,167.0069857999988,167.0069857999988,167.0069857999988,167.0069857999988,167.0069857999988,167.0069857999988,,001,P022,2025_May_13_1720,CategoryLocalizer,2021.2.3,59.8986395209237,
135.8,136.0,5,0.0,Stimuli\Blank.png,0,0,0,225,225,225,,,,,,,,,,,,,135.82078380000166,0.020783800001652253,None,167.80779080000502,167.80779080000502,167.80779080000502,167.80779080000502,167.80779080000502,167.80779080000502,167.80779080000502,167.80779080000502,,001,P022,2025_May_13_1720,CategoryLocalizer,2021.2.3,59.8986395209237,
136.0,136.8,2,0.75,Stimuli\ImageFiles-Set1\Bodies\Bodies_Standing_00007.png,0,0,0,226,226,226,,,,,,,,,,,,,136.00379700000485,0.003797000004851725,None,167.99118420000013,167.99118420000013,167.99118420000013,167.99118420000013,167.99118420000013,167.99118420000013,167.99118420000013,167.99118420000013,,001,P022,2025_May_13_1720,CategoryLocalizer,2021.2.3,59.8986395209237,
136.8,137.0,5,0.0,Stimuli\Blank.png,0,0,0,227,227,227,,,,,,,,,,,,,136.80618440000399,0.006184400003974133,None,168.80857939999987,168.80857939999987,168.80857939999987,168.80857939999987,168.80857939999987,168.80857939999987,168.80857939999987,168.80857939999987,,001,P022,2025_May_13_1720,CategoryLocalizer,2021.2.3,59.8986395209237,
137.0,137.8,2,0.75,Stimuli\ImageFiles-Set1\Bodies\Bodies_Waving_00007.png,0,0,0,228,228,228,,,,,,,,,,,,,137.0206415000066,0.020641500006604474,None,169.00874309999926,169.00874309999926,169.00874309999926,169.00874309999926,169.00874309999926,169.00874309999926,169.00874309999926,169.00874309999926,,001,P022,2025_May_13_1720,CategoryLocalizer,2021.2.3,59.8986395209237,
137.8,138.0,5,0.0,Stimuli\Blank.png,0,0,0,229,229,229,,,,,,,,,,,,,137.80571000000054,0.005710000000533455,None,169.7927869999985,169.7927869999985,169.7927869999985,169.7927869999985,169.7927869999985,169.7927869999985,169.7927869999985,169.7927869999985,,001,P022,2025_May_13_1720,CategoryLocalizer,2021.2.3,59.8986395209237,
138.0,138.8,2,0.75,Stimuli\ImageFiles-Set1\Bodies\Bodies_CobraPose_00001.png,0,0,0,230,230,230,,,,,,,,,,,,,138.0051678000018,0.00516780000180006,None,170.0096438000037,170.0096438000037,170.0096438000037,170.0096438000037,170.0096438000037,170.0096438000037,170.0096438000037,170.0096438000037,,001,P022,2025_May_13_1720,CategoryLocalizer,2021.2.3,59.8986395209237,
138.8,139.0,5,0.0,Stimuli\Blank.png,0,0,0,231,231,231,,,,,,,,,,,,,138.82291120000446,0.0229112000044438,None,170.81035469999915,170.81035469999915,170.81035469999915,170.81035469999915,170.81035469999915,170.81035469999915,170.81035469999915,170.81035469999915,,001,P022,2025_May_13_1720,CategoryLocalizer,2021.2.3,59.8986395209237,
139.0,139.8,2,0.75,Stimuli\ImageFiles-Set1\Bodies\Bodies_CobraPose_00001.png,1,1,0,232,232,232,,,,,,,,,,,,,139.006406600005,0.006406600004993379,1,170.99383130000206,170.99383130000206,170.99383130000206,170.99383130000206,170.99383130000206,170.99383130000206,170.99383130000206,170.99383130000206,0.38872179999452783,001,P022,2025_May_13_1720,CategoryLocalizer,2021.2.3,59.8986395209237,
139.8,140.0,5,0.0,Stimuli\Blank.png,0,0,0,233,233,233,,,,,,,,,,,,,139.80720020000444,0.007200200004433555,None,171.79454650000116,171.79454650000116,171.79454650000116,171.79454650000116,171.79454650000116,171.79454650000116,171.79454650000116,171.79454650000116,,001,P022,2025_May_13_1720,CategoryLocalizer,2021.2.3,59.8986395209237,
140.0,140.8,2,0.75,Stimuli\ImageFiles-Set1\Bodies\Bodies_QuadStretch_00003.png,0,0,0,234,234,234,,,,,,,,,,,,,140.00678049999988,0.006780499999877065,None,172.0114087000038,172.0114087000038,172.0114087000038,172.0114087000038,172.0114087000038,172.0114087000038,172.0114087000038,172.0114087000038,,001,P022,2025_May_13_1720,CategoryLocalizer,2021.2.3,59.8986395209237,
140.8,141.0,5,0.0,Stimuli\Blank.png,0,0,0,235,235,235,,,,,,,,,,,,,140.82407200000307,0.024072000003059202,None,172.81216150000546,172.81216150000546,172.81216150000546,172.81216150000546,172.81216150000546,172.81216150000546,172.81216150000546,172.81216150000546,,001,P022,2025_May_13_1720,CategoryLocalizer,2021.2.3,59.8986395209237,
141.0,141.8,2,0.75,Stimuli\ImageFiles-Set1\Bodies\Bodies_DownwardDog_00005.png,0,0,0,236,236,236,,,,,,,,,,,,,141.00993949999975,0.009939499999745749,None,173.01229550000426,173.01229550000426,173.01229550000426,173.01229550000426,173.01229550000426,173.01229550000426,173.01229550000426,173.01229550000426,,001,P022,2025_May_13_1720,CategoryLocalizer,2021.2.3,59.8986395209237,
141.8,142.0,5,0.0,Stimuli\Blank.png,0,0,0,237,237,237,,,,,,,,,,,,,141.82562130000588,0.025621300005866487,None,173.81300539999938,173.81300539999938,173.81300539999938,173.81300539999938,173.81300539999938,173.81300539999938,173.81300539999938,173.81300539999938,,001,P022,2025_May_13_1720,CategoryLocalizer,2021.2.3,59.8986395209237,
142.0,142.8,2,0.75,Stimuli\ImageFiles-Set1\Bodies\Bodies_Waving_00003.png,0,0,0,238,238,238,,,,,,,,,,,,,142.0090771000032,0.009077100003196392,None,174.0131818000009,174.0131818000009,174.0131818000009,174.0131818000009,174.0131818000009,174.0131818000009,174.0131818000009,174.0131818000009,,001,P022,2025_May_13_1720,CategoryLocalizer,2021.2.3,59.8986395209237,
142.8,143.0,5,0.0,Stimuli\Blank.png,0,0,0,239,239,239,,,,,,,,,,,,,142.8257236000063,0.025723600006301695,None,174.81389209999907,174.81389209999907,174.81389209999907,174.81389209999907,174.81389209999907,174.81389209999907,174.81389209999907,174.81389209999907,,001,P022,2025_May_13_1720,CategoryLocalizer,2021.2.3,59.8986395209237,
143.0,143.8,2,0.75,Stimuli\ImageFiles-Set1\Bodies\Bodies_Falling_00002.png,0,0,0,240,240,240,,,,,,,,,,,,,143.00976290000108,0.009762900001078378,None,175.01405960000557,175.01405960000557,175.01405960000557,175.01405960000557,175.01405960000557,175.01405960000557,175.01405960000557,175.01405960000557,,001,P022,2025_May_13_1720,CategoryLocalizer,2021.2.3,59.8986395209237,
143.8,144.0,5,0.0,Stimuli\Blank.png,0,0,0,241,241,241,,,,,,,,,,,,,143.82743210000626,0.027432100006251403,None,175.8147650000028,175.8147650000028,175.8147650000028,175.8147650000028,175.8147650000028,175.8147650000028,175.8147650000028,175.8147650000028,,001,P022,2025_May_13_1720,CategoryLocalizer,2021.2.3,59.8986395209237,
144.0,144.8,2,0.75,Stimuli\ImageFiles-Set1\Bodies\Bodies_Walking_00006.png,0,0,0,242,242,242,,,,,,,,,,,,,144.01026090000232,0.01026090000232216,None,176.01496990000305,176.01496990000305,176.01496990000305,176.01496990000305,176.01496990000305,176.01496990000305,176.01496990000305,176.01496990000305,,001,P022,2025_May_13_1720,CategoryLocalizer,2021.2.3,59.8986395209237,
144.8,145.0,5,0.0,Stimuli\Blank.png,0,0,0,243,243,243,,,,,,,,,,,,,144.82988640000258,0.02988640000256737,None,176.83233689999906,176.83233689999906,176.83233689999906,176.83233689999906,176.83233689999906,176.83233689999906,176.83233689999906,176.83233689999906,,001,P022,2025_May_13_1720,CategoryLocalizer,2021.2.3,59.8986395209237,
145.0,145.8,2,0.75,Stimuli\ImageFiles-Set1\Bodies\Bodies_SittingChair_00003.png,0,0,0,244,244,244,,,,,,,,,,,,,145.02872310000384,0.028723100003844593,None,177.03253640000185,177.03253640000185,177.03253640000185,177.03253640000185,177.03253640000185,177.03253640000185,177.03253640000185,177.03253640000185,,001,P022,2025_May_13_1720,CategoryLocalizer,2021.2.3,59.8986395209237,
145.8,146.0,5,0.0,Stimuli\Blank.png,0,0,0,245,245,245,,,,,,,,,,,,,145.83032580000145,0.030325800001435255,None,177.8332584000018,177.8332584000018,177.8332584000018,177.8332584000018,177.8332584000018,177.8332584000018,177.8332584000018,177.8332584000018,,001,P022,2025_May_13_1720,CategoryLocalizer,2021.2.3,59.8986395209237,
146.0,146.8,2,0.75,Stimuli\ImageFiles-Set1\Bodies\Bodies_DownwardDog_00007.png,0,0,0,246,246,246,,,,,,,,,,,,,146.03148240000155,0.03148240000155056,None,178.0334007000056,178.0334007000056,178.0334007000056,178.0334007000056,178.0334007000056,178.0334007000056,178.0334007000056,178.0334007000056,,001,P022,2025_May_13_1720,CategoryLocalizer,2021.2.3,59.8986395209237,
146.8,147.0,5,0.0,Stimuli\Blank.png,0,0,0,247,247,247,,,,,,,,,,,,,146.82981930000096,0.029819300000951898,None,178.8174227999989,178.8174227999989,178.8174227999989,178.8174227999989,178.8174227999989,178.8174227999989,178.8174227999989,178.8174227999989,,001,P022,2025_May_13_1720,CategoryLocalizer,2021.2.3,59.8986395209237,
147.0,147.8,2,0.75,Stimuli\ImageFiles-Set1\Bodies\Bodies_SittingFloor_00007.png,0,0,0,248,248,248,,,,,,,,,,,,,147.01292220000323,0.01292220000323141,None,179.0176008999988,179.0176008999988,179.0176008999988,179.0176008999988,179.0176008999988,179.0176008999988,179.0176008999988,179.0176008999988,,001,P022,2025_May_13_1720,CategoryLocalizer,2021.2.3,59.8986395209237,
147.8,148.0,5,0.0,Stimuli\Blank.png,0,0,0,249,249,249,,,,,,,,,,,,,147.83069850000174,0.030698500001733464,None,179.81832920000306,179.81832920000306,179.81832920000306,179.81832920000306,179.81832920000306,179.81832920000306,179.81832920000306,179.81832920000306,,001,P022,2025_May_13_1720,CategoryLocalizer,2021.2.3,59.8986395209237,
148.0,148.8,2,0.75,Stimuli\ImageFiles-Set1\Bodies\Bodies_Kicking_00003.png,0,0,0,250,250,250,,,,,,,,,,,,,148.01407130000007,0.014071300000068732,None,180.00180030000047,180.00180030000047,180.00180030000047,180.00180030000047,180.00180030000047,180.00180030000047,180.00180030000047,180.00180030000047,,001,P022,2025_May_13_1720,CategoryLocalizer,2021.2.3,59.8986395209237,
148.8,149.0,5,0.0,Stimuli\Blank.png,0,0,0,251,251,251,,,,,,,,,,,,,148.81505300000572,0.015053000005707418,None,180.8025198000032,180.8025198000032,180.8025198000032,180.8025198000032,180.8025198000032,180.8025198000032,180.8025198000032,180.8025198000032,,001,P022,2025_May_13_1720,CategoryLocalizer,2021.2.3,59.8986395209237,
149.0,149.8,2,0.75,Stimuli\ImageFiles-Set1\Bodies\Bodies_Punching_00006.png,0,0,0,252,252,252,,,,,,,,,,,,,149.01516190000257,0.015161900002567563,None,181.0360645000037,181.0360645000037,181.0360645000037,181.0360645000037,181.0360645000037,181.0360645000037,181.0360645000037,181.0360645000037,,001,P022,2025_May_13_1720,CategoryLocalizer,2021.2.3,59.8986395209237,
149.8,150.0,5,0.0,Stimuli\Blank.png,0,0,0,253,253,253,,,,,,,,,,,,,149.83277390000148,0.032773900001473066,None,181.8201670000053,181.8201670000053,181.8201670000053,181.8201670000053,181.8201670000053,181.8201670000053,181.8201670000053,181.8201670000053,,001,P022,2025_May_13_1720,CategoryLocalizer,2021.2.3,59.8986395209237,
150.0,150.8,2,0.75,Stimuli\ImageFiles-Set1\Bodies\Bodies_Jumping_00002.png,0,0,0,254,254,254,,,,,,,,,,,,,149.9987723000013,-0.0012276999987079762,None,182.00358170000254,182.00358170000254,182.00358170000254,182.00358170000254,182.00358170000254,182.00358170000254,182.00358170000254,182.00358170000254,,001,P022,2025_May_13_1720,CategoryLocalizer,2021.2.3,59.8986395209237,
150.8,151.0,5,0.0,Stimuli\Blank.png,0,0,0,255,255,255,,,,,,,,,,,,,150.81695400000172,0.016954000001703662,None,182.8042862000002,182.8042862000002,182.8042862000002,182.8042862000002,182.8042862000002,182.8042862000002,182.8042862000002,182.8042862000002,,001,P022,2025_May_13_1720,CategoryLocalizer,2021.2.3,59.8986395209237,
151.0,151.8,2,0.75,Stimuli\ImageFiles-Set1\Bodies\Bodies_Punching_00003.png,0,0,0,256,256,256,,,,,,,,,,,,,151.00091629999952,0.000916299999516923,None,183.00445520000358,183.00445520000358,183.00445520000358,183.00445520000358,183.00445520000358,183.00445520000358,183.00445520000358,183.00445520000358,,001,P022,2025_May_13_1720,CategoryLocalizer,2021.2.3,59.8986395209237,
151.8,152.0,5,0.0,Stimuli\Blank.png,0,0,0,257,257,257,,,,,,,,,,,,,151.81765180000366,0.017651800003648077,None,183.80515860000014,183.80515860000014,183.80515860000014,183.80515860000014,183.80515860000014,183.80515860000014,183.80515860000014,183.80515860000014,,001,P022,2025_May_13_1720,CategoryLocalizer,2021.2.3,59.8986395209237,
152.0,164.0,0,0.0,Stimuli\Blank.png,0,0,0,258,258,258,,,,,,,,,,,,,152.0007018000033,0.0007018000032985583,None,183.988691999999,183.988691999999,183.988691999999,183.988691999999,183.988691999999,183.988691999999,183.988691999999,183.988691999999,,001,P022,2025_May_13_1720,CategoryLocalizer,2021.2.3,59.8986395209237,
164.0,164.8,4,0.75,Stimuli\ImageFiles-Set1\Scenes\Scenes_053.png,0,0,0,259,259,259,,,,,,,,,,,,,164.0120281000054,0.012028100005409215,None,196.01596110000537,196.01596110000537,196.01596110000537,196.01596110000537,196.01596110000537,196.01596110000537,196.01596110000537,196.01596110000537,,001,P022,2025_May_13_1720,CategoryLocalizer,2021.2.3,59.8986395209237,
164.8,165.0,5,0.0,Stimuli\Blank.png,0,0,0,260,260,260,,,,,,,,,,,,,164.83039770000323,0.030397700003220507,None,196.8333688999992,196.8333688999992,196.8333688999992,196.8333688999992,196.8333688999992,196.8333688999992,196.8333688999992,196.8333688999992,,001,P022,2025_May_13_1720,CategoryLocalizer,2021.2.3,59.8986395209237,
165.0,165.8,4,0.75,Stimuli\ImageFiles-Set1\Scenes\Scenes_003.png,0,0,0,261,261,261,,,,,,,,,,,,,165.02999280000222,0.029992800002219155,None,197.05021800000395,197.05021800000395,197.05021800000395,197.05021800000395,197.05021800000395,197.05021800000395,197.05021800000395,197.05021800000395,,001,P022,2025_May_13_1720,CategoryLocalizer,2021.2.3,59.8986395209237,
165.8,166.0,5,0.0,Stimuli\Blank.png,0,0,0,262,262,262,,,,,,,,,,,,,165.84615530000156,0.04615530000154422,None,197.83422850000352,197.83422850000352,197.83422850000352,197.83422850000352,197.83422850000352,197.83422850000352,197.83422850000352,197.83422850000352,,001,P022,2025_May_13_1720,CategoryLocalizer,2021.2.3,59.8986395209237,
166.0,166.8,4,0.75,Stimuli\ImageFiles-Set1\Scenes\Scenes_050.png,0,0,0,263,263,263,,,,,,,,,,,,,166.01517340000282,0.015173400002822746,None,198.03443590000097,198.03443590000097,198.03443590000097,198.03443590000097,198.03443590000097,198.03443590000097,198.03443590000097,198.03443590000097,,001,P022,2025_May_13_1720,CategoryLocalizer,2021.2.3,59.8986395209237,
166.8,167.0,5,0.0,Stimuli\Blank.png,0,0,0,264,264,264,,,,,,,,,,,,,166.83188410000002,0.031884100000013404,None,198.81844380000257,198.81844380000257,198.81844380000257,198.81844380000257,198.81844380000257,198.81844380000257,198.81844380000257,198.81844380000257,,001,P022,2025_May_13_1720,CategoryLocalizer,2021.2.3,59.8986395209237,
167.0,167.8,4,0.75,Stimuli\ImageFiles-Set1\Scenes\Scenes_029.png,0,0,0,265,265,265,,,,,,,,,,,,,167.01395270000648,0.01395270000648452,None,199.0186210000029,199.0186210000029,199.0186210000029,199.0186210000029,199.0186210000029,199.0186210000029,199.0186210000029,199.0186210000029,,001,P022,2025_May_13_1720,CategoryLocalizer,2021.2.3,59.8986395209237,
167.8,168.0,5,0.0,Stimuli\Blank.png,0,0,0,266,266,266,,,,,,,,,,,,,167.83199869999953,0.03199869999951943,None,199.81933589999971,199.81933589999971,199.81933589999971,199.81933589999971,199.81933589999971,199.81933589999971,199.81933589999971,199.81933589999971,,001,P022,2025_May_13_1720,CategoryLocalizer,2021.2.3,59.8986395209237,
168.0,168.8,4,0.75,Stimuli\ImageFiles-Set1\Scenes\Scenes_013.png,0,0,0,267,267,267,,,,,,,,,,,,,168.01489280000533,0.014892800005327445,None,200.03619569999864,200.03619569999864,200.03619569999864,200.03619569999864,200.03619569999864,200.03619569999864,200.03619569999864,200.03619569999864,,001,P022,2025_May_13_1720,CategoryLocalizer,2021.2.3,59.8986395209237,
168.8,169.0,5,0.0,Stimuli\Blank.png,0,0,0,268,268,268,,,,,,,,,,,,,168.8506680000064,0.050668000006396596,None,200.85359790000075,200.85359790000075,200.85359790000075,200.85359790000075,200.85359790000075,200.85359790000075,200.85359790000075,200.85359790000075,,001,P022,2025_May_13_1720,CategoryLocalizer,2021.2.3,59.8986395209237,
169.0,169.8,4,0.75,Stimuli\ImageFiles-Set1\Scenes\Scenes_013.png,1,1,0,269,269,269,,,,,,,,,,,,,169.01555820000067,0.015558200000668876,1,201.0204193000027,201.0204193000027,201.0204193000027,201.0204193000027,201.0204193000027,201.0204193000027,201.0204193000027,201.0204193000027,0.38492779999796767,001,P022,2025_May_13_1720,CategoryLocalizer,2021.2.3,59.8986395209237,
169.8,170.0,5,0.0,Stimuli\Blank.png,0,0,0,270,270,270,,,,,,,,,,,,,169.81631090000155,0.01631090000154245,None,201.80442510000285,201.80442510000285,201.80442510000285,201.80442510000285,201.80442510000285,201.80442510000285,201.80442510000285,201.80442510000285,,001,P022,2025_May_13_1720,CategoryLocalizer,2021.2.3,59.8986395209237,
170.0,170.8,4,0.75,Stimuli\ImageFiles-Set1\Scenes\Scenes_039.png,0,0,0,271,271,271,,,,,,,,,,,,,170.00064540000312,0.0006454000031226315,None,202.0212759999995,202.0212759999995,202.0212759999995,202.0212759999995,202.0212759999995,202.0212759999995,202.0212759999995,202.0212759999995,,001,P022,2025_May_13_1720,CategoryLocalizer,2021.2.3,59.8986395209237,
170.8,171.0,5,0.0,Stimuli\Blank.png,0,0,0,272,272,272,,,,,,,,,,,,,170.8344922000033,0.034492200003285234,None,202.82198230000358,202.82198230000358,202.82198230000358,202.82198230000358,202.82198230000358,202.82198230000358,202.82198230000358,202.82198230000358,,001,P022,2025_May_13_1720,CategoryLocalizer,2021.2.3,59.8986395209237,
171.0,171.8,4,0.75,Stimuli\ImageFiles-Set1\Scenes\Scenes_049.png,0,0,0,273,273,273,,,,,,,,,,,,,171.0008564000018,0.0008564000017940998,None,203.00547650000226,203.00547650000226,203.00547650000226,203.00547650000226,203.00547650000226,203.00547650000226,203.00547650000226,203.00547650000226,,001,P022,2025_May_13_1720,CategoryLocalizer,2021.2.3,59.8986395209237,
171.8,172.0,5,0.0,Stimuli\Blank.png,0,0,0,274,274,274,,,,,,,,,,,,,171.8201188000021,0.02011880000208066,None,203.82285789999878,203.82285789999878,203.82285789999878,203.82285789999878,203.82285789999878,203.82285789999878,203.82285789999878,203.82285789999878,,001,P022,2025_May_13_1720,CategoryLocalizer,2021.2.3,59.8986395209237,
172.0,172.8,4,0.75,Stimuli\ImageFiles-Set1\Scenes\Scenes_031.png,0,0,0,275,275,275,,,,,,,,,,,,,172.02142120000644,0.02142120000644354,None,204.02323220000108,204.02323220000108,204.02323220000108,204.02323220000108,204.02323220000108,204.02323220000108,204.02323220000108,204.02323220000108,,001,P022,2025_May_13_1720,CategoryLocalizer,2021.2.3,59.8986395209237,
172.8,173.0,5,0.0,Stimuli\Blank.png,0,0,0,276,276,276,,,,,,,,,,,,,172.81985080000595,0.019850800005940528,None,204.80707610000536,204.80707610000536,204.80707610000536,204.80707610000536,204.80707610000536,204.80707610000536,204.80707610000536,204.80707610000536,,001,P022,2025_May_13_1720,CategoryLocalizer,2021.2.3,59.8986395209237,
173.0,173.8,4,0.75,Stimuli\ImageFiles-Set1\Scenes\Scenes_055.png,0,0,0,277,277,277,,,,,,,,,,,,,173.00502730000153,0.005027300001529511,None,205.02392630000395,205.02392630000395,205.02392630000395,205.02392630000395,205.02392630000395,205.02392630000395,205.02392630000395,205.02392630000395,,001,P022,2025_May_13_1720,CategoryLocalizer,2021.2.3,59.8986395209237,
173.8,174.0,5,0.0,Stimuli\Blank.png,0,0,0,278,278,278,,,,,,,,,,,,,173.8374419000029,0.03744190000287517,None,205.824646699999,205.824646699999,205.824646699999,205.824646699999,205.824646699999,205.824646699999,205.824646699999,205.824646699999,,001,P022,2025_May_13_1720,CategoryLocalizer,2021.2.3,59.8986395209237,
174.0,174.8,4,0.75,Stimuli\ImageFiles-Set1\Scenes\Scenes_023.png,0,0,0,279,279,279,,,,,,,,,,,,,174.0051234000057,0.0051234000056865625,None,206.00814570000512,206.00814570000512,206.00814570000512,206.00814570000512,206.00814570000512,206.00814570000512,206.00814570000512,206.00814570000512,,001,P022,2025_May_13_1720,CategoryLocalizer,2021.2.3,59.8986395209237,
174.8,175.0,5,0.0,Stimuli\Blank.png,0,0,0,280,280,280,,,,,,,,,,,,,174.82115010000416,0.021150100004149408,None,206.80883190000168,206.80883190000168,206.80883190000168,206.80883190000168,206.80883190000168,206.80883190000168,206.80883190000168,206.80883190000168,,001,P022,2025_May_13_1720,CategoryLocalizer,2021.2.3,59.8986395209237,
175.0,175.8,4,0.75,Stimuli\ImageFiles-Set1\Scenes\Scenes_048.png,0,0,0,281,281,281,,,,,,,,,,,,,175.00497400000313,0.004974000003130641,None,207.00910190000286,207.00910190000286,207.00910190000286,207.00910190000286,207.00910190000286,207.00910190000286,207.00910190000286,207.00910190000286,,001,P022,2025_May_13_1720,CategoryLocalizer,2021.2.3,59.8986395209237,
175.8,176.0,5,0.0,Stimuli\Blank.png,0,0,0,282,282,282,,,,,,,,,,,,,175.82235670000227,0.02235670000226264,None,207.80973440000525,207.80973440000525,207.80973440000525,207.80973440000525,207.80973440000525,207.80973440000525,207.80973440000525,207.80973440000525,,001,P022,2025_May_13_1720,CategoryLocalizer,2021.2.3,59.8986395209237,
176.0,176.8,4,0.75,Stimuli\ImageFiles-Set1\Scenes\Scenes_056.png,0,0,0,283,283,283,,,,,,,,,,,,,176.0057999000055,0.0057999000055133365,None,208.0265819000051,208.0265819000051,208.0265819000051,208.0265819000051,208.0265819000051,208.0265819000051,208.0265819000051,208.0265819000051,,001,P022,2025_May_13_1720,CategoryLocalizer,2021.2.3,59.8986395209237,
176.8,177.0,5,0.0,Stimuli\Blank.png,0,0,0,284,284,284,,,,,,,,,,,,,176.83946690000448,0.03946690000447006,None,208.8272821999999,208.8272821999999,208.8272821999999,208.8272821999999,208.8272821999999,208.8272821999999,208.8272821999999,208.8272821999999,,001,P022,2025_May_13_1720,CategoryLocalizer,2021.2.3,59.8986395209237,
177.0,177.8,4,0.75,Stimuli\ImageFiles-Set1\Scenes\Scenes_059.png,0,0,0,285,285,285,,,,,,,,,,,,,177.00607400000445,0.006074000004446134,None,209.01081640000484,209.01081640000484,209.01081640000484,209.01081640000484,209.01081640000484,209.01081640000484,209.01081640000484,209.01081640000484,,001,P022,2025_May_13_1720,CategoryLocalizer,2021.2.3,59.8986395209237,
177.8,178.0,5,0.0,Stimuli\Blank.png,0,0,0,286,286,286,,,,,,,,,,,,,177.8258899000066,0.025889900006575317,None,209.82817340000474,209.82817340000474,209.82817340000474,209.82817340000474,209.82817340000474,209.82817340000474,209.82817340000474,209.82817340000474,,001,P022,2025_May_13_1720,CategoryLocalizer,2021.2.3,59.8986395209237,
