eventStartTime,eventEndTime,eventCond,imSize,imFile,repeatedImage,responseEvent,Events.thisRepN,Events.thisTrialN,Events.thisN,Events.thisIndex,Instructions.started,Instructions.stopped,participantReadyResponse.keys,participantReadyResponse.rt,participantReadyResponse.started,participantReadyResponse.stopped,startWaitforTrigger,triggerResponse.keys,triggerResponse.rt,triggerResponse.started,triggerResponse.stopped,globalTimer,actualStartTime,startTimingDiff,participantResponse.keys,participantResponse.started,participantResponse.stopped,image.started,image.stopped,fixationOutside.started,fixationOutside.stopped,fixationInside.started,fixationInside.stopped,participantResponse.rt,session,participant,date,expName,psychopyVersion,frameRate,
,,,,,,,,,,,12.414013800000248,None,1,2.2981395999959204,12.414013800000248,None,,,,,,,,,,,,,,,,,,,002,P022,2025_May_13_1748,CategoryLocalizer,2021.2.3,59.92433952745364,
,,,,,,,,,,,,,,,,,14.72663879999891,5,13.879144799997448,14.739755399998103,None,,,,,,,,,,,,,,002,P022,2025_May_13_1748,CategoryLocalizer,2021.2.3,59.92433952745364,
0.0,12.0,0,0.0,Stimuli\Blank.png,0,0,0,0,0,0,,,,,,,,,,,,28.62119150000217,0.026738799999293406,0.026738799999293406,None,28.668753899997682,None,28.668753899997682,None,28.668753899997682,None,28.668753899997682,None,,002,P022,2025_May_13_1748,CategoryLocalizer,2021.2.3,59.92433952745364,
12.0,12.8,1,0.75,Stimuli\ImageFiles-Set2\Objects\Object_Pepper_00001.png,0,0,0,1,1,1,,,,,,,,,,,,,12.011638799995126,0.011638799995125737,None,40.662648999998055,40.662648999998055,40.662648999998055,40.662648999998055,40.662648999998055,40.662648999998055,40.662648999998055,40.662648999998055,,002,P022,2025_May_13_1748,CategoryLocalizer,2021.2.3,59.92433952745364,
12.8,13.0,5,0.0,Stimuli\Blank.png,0,0,0,2,2,2,,,,,,,,,,,,,12.827563699996972,0.02756369999697128,None,41.46339219999936,41.46339219999936,41.46339219999936,41.46339219999936,41.46339219999936,41.46339219999936,41.46339219999936,41.46339219999936,,002,P022,2025_May_13_1748,CategoryLocalizer,2021.2.3,59.92433952745364,
13.0,13.8,1,0.75,Stimuli\ImageFiles-Set2\Objects\Object_Glass_00001.png,0,0,0,3,3,3,,,,,,,,,,,,,13.011330699999235,0.011330699999234639,None,41.663574700003664,41.663574700003664,41.663574700003664,41.663574700003664,41.663574700003664,41.663574700003664,41.663574700003664,41.663574700003664,,002,P022,2025_May_13_1748,CategoryLocalizer,2021.2.3,59.92433952745364,
13.8,14.0,5,0.0,Stimuli\Blank.png,0,0,0,4,4,4,,,,,,,,,,,,,13.828358999999182,0.028358999999181123,None,42.464277400002175,42.464277400002175,42.464277400002175,42.464277400002175,42.464277400002175,42.464277400002175,42.464277400002175,42.464277400002175,,002,P022,2025_May_13_1748,CategoryLocalizer,2021.2.3,59.92433952745364,
14.0,14.8,1,0.75,Stimuli\ImageFiles-Set2\Objects\Object_Lawnmower_00001.png,0,0,0,5,5,5,,,,,,,,,,,,,14.011847899993882,0.011847899993881583,None,42.66448450000462,42.66448450000462,42.66448450000462,42.66448450000462,42.66448450000462,42.66448450000462,42.66448450000462,42.66448450000462,,002,P022,2025_May_13_1748,CategoryLocalizer,2021.2.3,59.92433952745364,
14.8,15.0,5,0.0,Stimuli\Blank.png,0,0,0,6,6,6,,,,,,,,,,,,,14.829299799996079,0.029299799996078235,None,43.46517490000406,43.46517490000406,43.46517490000406,43.46517490000406,43.46517490000406,43.46517490000406,43.46517490000406,43.46517490000406,,002,P022,2025_May_13_1748,CategoryLocalizer,2021.2.3,59.92433952745364,
15.0,15.8,1,0.75,Stimuli\ImageFiles-Set2\Objects\Object_Boot_00001.png,0,0,0,7,7,7,,,,,,,,,,,,,15.012787399995432,0.01278739999543177,None,43.6820063999985,43.6820063999985,43.6820063999985,43.6820063999985,43.6820063999985,43.6820063999985,43.6820063999985,43.6820063999985,,002,P022,2025_May_13_1748,CategoryLocalizer,2021.2.3,59.92433952745364,
15.8,16.0,5,0.0,Stimuli\Blank.png,0,0,0,8,8,8,,,,,,,,,,,,,15.846871599998849,0.04687159999884827,None,44.482733999997436,44.482733999997436,44.482733999997436,44.482733999997436,44.482733999997436,44.482733999997436,44.482733999997436,44.482733999997436,,002,P022,2025_May_13_1748,CategoryLocalizer,2021.2.3,59.92433952745364,
16.0,16.8,1,0.75,Stimuli\ImageFiles-Set2\Objects\Object_Hook_00001.png,0,0,0,9,9,9,,,,,,,,,,,,,16.013599799996882,0.013599799996882211,None,44.6662340000039,44.6662340000039,44.6662340000039,44.6662340000039,44.6662340000039,44.6662340000039,44.6662340000039,44.6662340000039,,002,P022,2025_May_13_1748,CategoryLocalizer,2021.2.3,59.92433952745364,
16.8,17.0,5,0.0,Stimuli\Blank.png,0,0,0,10,10,10,,,,,,,,,,,,,16.832299899993814,0.032299899993812886,None,45.4670122000025,45.4670122000025,45.4670122000025,45.4670122000025,45.4670122000025,45.4670122000025,45.4670122000025,45.4670122000025,,002,P022,2025_May_13_1748,CategoryLocalizer,2021.2.3,59.92433952745364,
17.0,17.8,1,0.75,Stimuli\ImageFiles-Set2\Objects\Object_Button1_00001.png,0,0,0,11,11,11,,,,,,,,,,,,,16.998036699995282,-0.001963300004717894,None,45.65044370000396,45.65044370000396,45.65044370000396,45.65044370000396,45.65044370000396,45.65044370000396,45.65044370000396,45.65044370000396,,002,P022,2025_May_13_1748,CategoryLocalizer,2021.2.3,59.92433952745364,
17.8,18.0,5,0.0,Stimuli\Blank.png,0,0,0,12,12,12,,,,,,,,,,,,,17.831877299999178,0.03187729999917721,None,46.46782600000006,46.46782600000006,46.46782600000006,46.46782600000006,46.46782600000006,46.46782600000006,46.46782600000006,46.46782600000006,,002,P022,2025_May_13_1748,CategoryLocalizer,2021.2.3,59.92433952745364,
18.0,18.8,1,0.75,Stimuli\ImageFiles-Set2\Objects\Object_Wheelchair_00001.png,0,0,0,13,13,13,,,,,,,,,,,,,18.017957399999432,0.0179573999994318,None,46.668041700002505,46.668041700002505,46.668041700002505,46.668041700002505,46.668041700002505,46.668041700002505,46.668041700002505,46.668041700002505,,002,P022,2025_May_13_1748,CategoryLocalizer,2021.2.3,59.92433952745364,
18.8,19.0,5,0.0,Stimuli\Blank.png,0,0,0,14,14,14,,,,,,,,,,,,,18.816782599998987,0.01678259999898657,None,47.45202299999801,47.45202299999801,47.45202299999801,47.45202299999801,47.45202299999801,47.45202299999801,47.45202299999801,47.45202299999801,,002,P022,2025_May_13_1748,CategoryLocalizer,2021.2.3,59.92433952745364,
19.0,19.8,1,0.75,Stimuli\ImageFiles-Set2\Objects\Object_Wheelchair_00001.png,1,1,0,15,15,15,,,,,,,,,,,,,19.001855499998783,0.0018554999987827614,1,47.65220450000197,47.65220450000197,47.65220450000197,47.65220450000197,47.65220450000197,47.65220450000197,47.65220450000197,47.65220450000197,0.36483050000242656,002,P022,2025_May_13_1748,CategoryLocalizer,2021.2.3,59.92433952745364,
19.8,20.0,5,0.0,Stimuli\Blank.png,0,0,0,16,16,16,,,,,,,,,,,,,19.817841899995983,0.017841899995982402,None,48.452833200004534,48.452833200004534,48.452833200004534,48.452833200004534,48.452833200004534,48.452833200004534,48.452833200004534,48.452833200004534,,002,P022,2025_May_13_1748,CategoryLocalizer,2021.2.3,59.92433952745364,
20.0,20.8,1,0.75,Stimuli\ImageFiles-Set2\Objects\Object_Grill_00001.png,0,0,0,17,17,17,,,,,,,,,,,,,20.00313269999606,0.0031326999960583635,None,48.65306509999937,48.65306509999937,48.65306509999937,48.65306509999937,48.65306509999937,48.65306509999937,48.65306509999937,48.65306509999937,,002,P022,2025_May_13_1748,CategoryLocalizer,2021.2.3,59.92433952745364,
20.8,21.0,5,0.0,Stimuli\Blank.png,0,0,0,18,18,18,,,,,,,,,,,,,20.81810179999593,0.018101799995928758,None,49.45379530000355,49.45379530000355,49.45379530000355,49.45379530000355,49.45379530000355,49.45379530000355,49.45379530000355,49.45379530000355,,002,P022,2025_May_13_1748,CategoryLocalizer,2021.2.3,59.92433952745364,
21.0,21.8,1,0.75,Stimuli\ImageFiles-Set2\Objects\Object_Shelves_00001.png,0,0,0,19,19,19,,,,,,,,,,,,,21.002291299999342,0.0022912999993423,None,49.65396150000015,49.65396150000015,49.65396150000015,49.65396150000015,49.65396150000015,49.65396150000015,49.65396150000015,49.65396150000015,,002,P022,2025_May_13_1748,CategoryLocalizer,2021.2.3,59.92433952745364,
21.8,22.0,5,0.0,Stimuli\Blank.png,0,0,0,20,20,20,,,,,,,,,,,,,21.81953099999373,0.01953099999373009,None,50.45464760000323,50.45464760000323,50.45464760000323,50.45464760000323,50.45464760000323,50.45464760000323,50.45464760000323,50.45464760000323,,002,P022,2025_May_13_1748,CategoryLocalizer,2021.2.3,59.92433952745364,
22.0,22.8,1,0.75,Stimuli\ImageFiles-Set2\Objects\Object_Bicycle_00001.png,0,0,0,21,21,21,,,,,,,,,,,,,22.002539699999033,0.0025396999990334734,None,50.65481929999805,50.65481929999805,50.65481929999805,50.65481929999805,50.65481929999805,50.65481929999805,50.65481929999805,50.65481929999805,,002,P022,2025_May_13_1748,CategoryLocalizer,2021.2.3,59.92433952745364,
22.8,23.0,5,0.0,Stimuli\Blank.png,0,0,0,22,22,22,,,,,,,,,,,,,22.821650499994576,0.0216504999945748,None,51.47226149999915,51.47226149999915,51.47226149999915,51.47226149999915,51.47226149999915,51.47226149999915,51.47226149999915,51.47226149999915,,002,P022,2025_May_13_1748,CategoryLocalizer,2021.2.3,59.92433952745364,
23.0,23.8,1,0.75,Stimuli\ImageFiles-Set2\Objects\Object_Keyboard_00001.png,0,0,0,23,23,23,,,,,,,,,,,,,23.021754099994723,0.02175409999472322,None,51.67242740000074,51.67242740000074,51.67242740000074,51.67242740000074,51.67242740000074,51.67242740000074,51.67242740000074,51.67242740000074,,002,P022,2025_May_13_1748,CategoryLocalizer,2021.2.3,59.92433952745364,
23.8,24.0,5,0.0,Stimuli\Blank.png,0,0,0,24,24,24,,,,,,,,,,,,,23.821134199999506,0.021134199999504943,None,52.45644800000446,52.45644800000446,52.45644800000446,52.45644800000446,52.45644800000446,52.45644800000446,52.45644800000446,52.45644800000446,,002,P022,2025_May_13_1748,CategoryLocalizer,2021.2.3,59.92433952745364,
24.0,24.8,1,0.75,Stimuli\ImageFiles-Set2\Objects\Object_Ladder_00001.png,0,0,0,25,25,25,,,,,,,,,,,,,24.004050199997437,0.004050199997436721,None,52.65660030000436,52.65660030000436,52.65660030000436,52.65660030000436,52.65660030000436,52.65660030000436,52.65660030000436,52.65660030000436,,002,P022,2025_May_13_1748,CategoryLocalizer,2021.2.3,59.92433952745364,
24.8,25.0,5,0.0,Stimuli\Blank.png,0,0,0,26,26,26,,,,,,,,,,,,,24.82188199999655,0.021881999996548274,None,53.45732760000101,53.45732760000101,53.45732760000101,53.45732760000101,53.45732760000101,53.45732760000101,53.45732760000101,53.45732760000101,,002,P022,2025_May_13_1748,CategoryLocalizer,2021.2.3,59.92433952745364,
25.0,25.8,1,0.75,Stimuli\ImageFiles-Set2\Objects\Object_Walker_00001.png,0,0,0,27,27,27,,,,,,,,,,,,,25.006980999998632,0.006980999998631887,None,53.65752860000066,53.65752860000066,53.65752860000066,53.65752860000066,53.65752860000066,53.65752860000066,53.65752860000066,53.65752860000066,,002,P022,2025_May_13_1748,CategoryLocalizer,2021.2.3,59.92433952745364,
25.8,26.0,5,0.0,Stimuli\Blank.png,0,0,0,28,28,28,,,,,,,,,,,,,25.822548899996036,0.022548899996035487,None,54.45821520000027,54.45821520000027,54.45821520000027,54.45821520000027,54.45821520000027,54.45821520000027,54.45821520000027,54.45821520000027,,002,P022,2025_May_13_1748,CategoryLocalizer,2021.2.3,59.92433952745364,
26.0,26.8,1,0.75,Stimuli\ImageFiles-Set2\Objects\Object_Dresser_00001.png,0,0,0,29,29,29,,,,,,,,,,,,,26.006580499997654,0.006580499997653533,None,54.641700500003935,54.641700500003935,54.641700500003935,54.641700500003935,54.641700500003935,54.641700500003935,54.641700500003935,54.641700500003935,,002,P022,2025_May_13_1748,CategoryLocalizer,2021.2.3,59.92433952745364,
26.8,27.0,5,0.0,Stimuli\Blank.png,0,0,0,30,30,30,,,,,,,,,,,,,26.80662669999583,0.006626699995830876,None,55.44241979999788,55.44241979999788,55.44241979999788,55.44241979999788,55.44241979999788,55.44241979999788,55.44241979999788,55.44241979999788,,002,P022,2025_May_13_1748,CategoryLocalizer,2021.2.3,59.92433952745364,
27.0,27.8,1,0.75,Stimuli\ImageFiles-Set2\Objects\Object_Belt_00001.png,0,0,0,31,31,31,,,,,,,,,,,,,27.006826299999375,0.006826299999374896,None,55.67596860000049,55.67596860000049,55.67596860000049,55.67596860000049,55.67596860000049,55.67596860000049,55.67596860000049,55.67596860000049,,002,P022,2025_May_13_1748,CategoryLocalizer,2021.2.3,59.92433952745364,
27.8,28.0,5,0.0,Stimuli\Blank.png,0,0,0,32,32,32,,,,,,,,,,,,,27.841401300000143,0.04140130000014253,None,56.47665830000187,56.47665830000187,56.47665830000187,56.47665830000187,56.47665830000187,56.47665830000187,56.47665830000187,56.47665830000187,,002,P022,2025_May_13_1748,CategoryLocalizer,2021.2.3,59.92433952745364,
28.0,28.8,2,0.75,Stimuli\ImageFiles-Set2\Bodies\Bodies_Kneeling_00006.png,0,0,0,33,33,33,,,,,,,,,,,,,28.008396400000493,0.008396400000492577,None,56.6435122000039,56.6435122000039,56.6435122000039,56.6435122000039,56.6435122000039,56.6435122000039,56.6435122000039,56.6435122000039,,002,P022,2025_May_13_1748,CategoryLocalizer,2021.2.3,59.92433952745364,
28.8,29.0,5,0.0,Stimuli\Blank.png,0,0,0,34,34,34,,,,,,,,,,,,,28.808354900000268,0.008354900000266952,None,57.44419200000266,57.44419200000266,57.44419200000266,57.44419200000266,57.44419200000266,57.44419200000266,57.44419200000266,57.44419200000266,,002,P022,2025_May_13_1748,CategoryLocalizer,2021.2.3,59.92433952745364,
29.0,29.8,2,0.75,Stimuli\ImageFiles-Set2\Bodies\Bodies_Falling_00001.png,0,0,0,35,35,35,,,,,,,,,,,,,29.00919459999568,0.009194599995680619,None,57.661068300003535,57.661068300003535,57.661068300003535,57.661068300003535,57.661068300003535,57.661068300003535,57.661068300003535,57.661068300003535,,002,P022,2025_May_13_1748,CategoryLocalizer,2021.2.3,59.92433952745364,
29.8,30.0,5,0.0,Stimuli\Blank.png,0,0,0,36,36,36,,,,,,,,,,,,,29.826031199998397,0.026031199998396204,None,58.46175840000069,58.46175840000069,58.46175840000069,58.46175840000069,58.46175840000069,58.46175840000069,58.46175840000069,58.46175840000069,,002,P022,2025_May_13_1748,CategoryLocalizer,2021.2.3,59.92433952745364,
30.0,30.8,2,0.75,Stimuli\ImageFiles-Set2\Bodies\Bodies_Running_00007.png,0,0,0,37,37,37,,,,,,,,,,,,,30.010424099993543,0.010424099993542768,None,58.66193100000237,58.66193100000237,58.66193100000237,58.66193100000237,58.66193100000237,58.66193100000237,58.66193100000237,58.66193100000237,,002,P022,2025_May_13_1748,CategoryLocalizer,2021.2.3,59.92433952745364,
30.8,31.0,5,0.0,Stimuli\Blank.png,0,0,0,38,38,38,,,,,,,,,,,,,30.827930199993716,0.027930199993715377,None,59.462642600003164,59.462642600003164,59.462642600003164,59.462642600003164,59.462642600003164,59.462642600003164,59.462642600003164,59.462642600003164,,002,P022,2025_May_13_1748,CategoryLocalizer,2021.2.3,59.92433952745364,
31.0,31.8,2,0.75,Stimuli\ImageFiles-Set2\Bodies\Bodies_Running_00007.png,1,1,0,39,39,39,,,,,,,,,,,,,31.010708299996622,0.010708299996622372,1,59.64613349999854,59.64613349999854,59.64613349999854,59.64613349999854,59.64613349999854,59.64613349999854,59.64613349999854,59.64613349999854,0.4917559000023175,002,P022,2025_May_13_1748,CategoryLocalizer,2021.2.3,59.92433952745364,
31.8,32.0,5,0.0,Stimuli\Blank.png,0,0,0,40,40,40,,,,,,,,,,,,,31.81177849999949,0.011778499999490322,None,60.446851000000606,60.446851000000606,60.446851000000606,60.446851000000606,60.446851000000606,60.446851000000606,60.446851000000606,60.446851000000606,,002,P022,2025_May_13_1748,CategoryLocalizer,2021.2.3,59.92433952745364,
32.0,32.8,2,0.75,Stimuli\ImageFiles-Set2\Bodies\Bodies_SittingChair_00002.png,0,0,0,41,41,41,,,,,,,,,,,,,32.01133979999577,0.011339799995766953,None,60.66370150000148,60.66370150000148,60.66370150000148,60.66370150000148,60.66370150000148,60.66370150000148,60.66370150000148,60.66370150000148,,002,P022,2025_May_13_1748,CategoryLocalizer,2021.2.3,59.92433952745364,
32.8,33.0,5,0.0,Stimuli\Blank.png,0,0,0,42,42,42,,,,,,,,,,,,,32.82853459999751,0.02853459999751351,None,61.46443060000456,61.46443060000456,61.46443060000456,61.46443060000456,61.46443060000456,61.46443060000456,61.46443060000456,61.46443060000456,,002,P022,2025_May_13_1748,CategoryLocalizer,2021.2.3,59.92433952745364,
33.0,33.8,2,0.75,Stimuli\ImageFiles-Set2\Bodies\Bodies_SittingStretch_00006.png,0,0,0,43,43,43,,,,,,,,,,,,,33.01201509999373,0.012015099993732292,None,61.647906400001375,61.647906400001375,61.647906400001375,61.647906400001375,61.647906400001375,61.647906400001375,61.647906400001375,61.647906400001375,,002,P022,2025_May_13_1748,CategoryLocalizer,2021.2.3,59.92433952745364,
33.8,34.0,5,0.0,Stimuli\Blank.png,0,0,0,44,44,44,,,,,,,,,,,,,33.812814199998684,0.012814199998686604,None,62.44861450000462,62.44861450000462,62.44861450000462,62.44861450000462,62.44861450000462,62.44861450000462,62.44861450000462,62.44861450000462,,002,P022,2025_May_13_1748,CategoryLocalizer,2021.2.3,59.92433952745364,
34.0,34.8,2,0.75,Stimuli\ImageFiles-Set2\Bodies\Bodies_Walking_00007.png,0,0,0,45,45,45,,,,,,,,,,,,,34.01318409999658,0.01318409999657888,None,62.665541599999415,62.665541599999415,62.665541599999415,62.665541599999415,62.665541599999415,62.665541599999415,62.665541599999415,62.665541599999415,,002,P022,2025_May_13_1748,CategoryLocalizer,2021.2.3,59.92433952745364,
34.8,35.0,5,0.0,Stimuli\Blank.png,0,0,0,46,46,46,,,,,,,,,,,,,34.83220779999829,0.03220779999828949,None,63.48290120000456,63.48290120000456,63.48290120000456,63.48290120000456,63.48290120000456,63.48290120000456,63.48290120000456,63.48290120000456,,002,P022,2025_May_13_1748,CategoryLocalizer,2021.2.3,59.92433952745364,
35.0,35.8,2,0.75,Stimuli\ImageFiles-Set2\Bodies\Bodies_Running_00004.png,0,0,0,47,47,47,,,,,,,,,,,,,35.03285049999977,0.032850499999767635,None,63.68303870000091,63.68303870000091,63.68303870000091,63.68303870000091,63.68303870000091,63.68303870000091,63.68303870000091,63.68303870000091,,002,P022,2025_May_13_1748,CategoryLocalizer,2021.2.3,59.92433952745364,
35.8,36.0,5,0.0,Stimuli\Blank.png,0,0,0,48,48,48,,,,,,,,,,,,,35.81673549999687,0.016735499996869407,None,64.4670855000004,64.4670855000004,64.4670855000004,64.4670855000004,64.4670855000004,64.4670855000004,64.4670855000004,64.4670855000004,,002,P022,2025_May_13_1748,CategoryLocalizer,2021.2.3,59.92433952745364,
36.0,36.8,2,0.75,Stimuli\ImageFiles-Set2\Bodies\Bodies_Falling_00003.png,0,0,0,49,49,49,,,,,,,,,,,,,36.01562869999907,0.015628699999069795,None,64.68395769999916,64.68395769999916,64.68395769999916,64.68395769999916,64.68395769999916,64.68395769999916,64.68395769999916,64.68395769999916,,002,P022,2025_May_13_1748,CategoryLocalizer,2021.2.3,59.92433952745364,
36.8,37.0,5,0.0,Stimuli\Blank.png,0,0,0,50,50,50,,,,,,,,,,,,,36.832869999998366,0.03286999999836837,None,65.46795920000295,65.46795920000295,65.46795920000295,65.46795920000295,65.46795920000295,65.46795920000295,65.46795920000295,65.46795920000295,,002,P022,2025_May_13_1748,CategoryLocalizer,2021.2.3,59.92433952745364,
37.0,37.8,2,0.75,Stimuli\ImageFiles-Set2\Bodies\Bodies_Walking_00003.png,0,0,0,51,51,51,,,,,,,,,,,,,36.99952449999546,-0.0004755000045406632,None,65.6347672999982,65.6347672999982,65.6347672999982,65.6347672999982,65.6347672999982,65.6347672999982,65.6347672999982,65.6347672999982,,002,P022,2025_May_13_1748,CategoryLocalizer,2021.2.3,59.92433952745364,
37.8,38.0,5,0.0,Stimuli\Blank.png,0,0,0,52,52,52,,,,,,,,,,,,,37.79963229999703,-0.0003677000029682631,None,66.43548449999798,66.43548449999798,66.43548449999798,66.43548449999798,66.43548449999798,66.43548449999798,66.43548449999798,66.43548449999798,,002,P022,2025_May_13_1748,CategoryLocalizer,2021.2.3,59.92433952745364,
38.0,38.8,2,0.75,Stimuli\ImageFiles-Set2\Bodies\Bodies_Waving_00002.png,0,0,0,53,53,53,,,,,,,,,,,,,38.002776299996185,0.0027762999961851165,None,66.65234919999784,66.65234919999784,66.65234919999784,66.65234919999784,66.65234919999784,66.65234919999784,66.65234919999784,66.65234919999784,,002,P022,2025_May_13_1748,CategoryLocalizer,2021.2.3,59.92433952745364,
38.8,39.0,5,0.0,Stimuli\Blank.png,0,0,0,54,54,54,,,,,,,,,,,,,38.817567499994766,0.01756749999476881,None,67.45304860000033,67.45304860000033,67.45304860000033,67.45304860000033,67.45304860000033,67.45304860000033,67.45304860000033,67.45304860000033,,002,P022,2025_May_13_1748,CategoryLocalizer,2021.2.3,59.92433952745364,
39.0,39.8,2,0.75,Stimuli\ImageFiles-Set2\Bodies\Bodies_Standing_00002.png,0,0,0,55,55,55,,,,,,,,,,,,,39.001214199997776,0.0012141999977757223,None,67.6532378999982,67.6532378999982,67.6532378999982,67.6532378999982,67.6532378999982,67.6532378999982,67.6532378999982,67.6532378999982,,002,P022,2025_May_13_1748,CategoryLocalizer,2021.2.3,59.92433952745364,
39.8,40.0,5,0.0,Stimuli\Blank.png,0,0,0,56,56,56,,,,,,,,,,,,,39.81873319999431,0.01873319999431544,None,68.45391640000162,68.45391640000162,68.45391640000162,68.45391640000162,68.45391640000162,68.45391640000162,68.45391640000162,68.45391640000162,,002,P022,2025_May_13_1748,CategoryLocalizer,2021.2.3,59.92433952745364,
40.0,40.8,2,0.75,Stimuli\ImageFiles-Set2\Bodies\Bodies_Hanging_00001.png,1,1,0,57,57,57,,,,,,,,,,,,,40.00257819999388,0.002578199993877206,None,68.6540548999983,68.6540548999983,68.6540548999983,68.6540548999983,68.6540548999983,68.6540548999983,68.6540548999983,68.6540548999983,,002,P022,2025_May_13_1748,CategoryLocalizer,2021.2.3,59.92433952745364,
40.8,41.0,5,0.0,Stimuli\Blank.png,0,0,0,58,58,58,,,,,,,,,,,,,40.81946489999973,0.019464899999732665,None,69.45480890000181,69.45480890000181,69.45480890000181,69.45480890000181,69.45480890000181,69.45480890000181,69.45480890000181,69.45480890000181,,002,P022,2025_May_13_1748,CategoryLocalizer,2021.2.3,59.92433952745364,
41.0,41.8,2,0.75,Stimuli\ImageFiles-Set2\Bodies\Bodies_Kicking_00006.png,0,0,0,59,59,59,,,,,,,,,,,,,41.00257330000022,0.002573300000221934,None,69.65500040000188,69.65500040000188,69.65500040000188,69.65500040000188,69.65500040000188,69.65500040000188,69.65500040000188,69.65500040000188,,002,P022,2025_May_13_1748,CategoryLocalizer,2021.2.3,59.92433952745364,
41.8,42.0,5,0.0,Stimuli\Blank.png,0,0,0,60,60,60,,,,,,,,,,,,,41.82022959999449,0.020229599994493697,None,70.45569989999785,70.45569989999785,70.45569989999785,70.45569989999785,70.45569989999785,70.45569989999785,70.45569989999785,70.45569989999785,,002,P022,2025_May_13_1748,CategoryLocalizer,2021.2.3,59.92433952745364,
42.0,42.8,2,0.75,Stimuli\ImageFiles-Set2\Bodies\Bodies_Kicking_00006.png,0,0,0,61,61,61,,,,,,,,,,,,,42.003496400000586,0.0034964000005857088,1,70.63919750000059,70.63919750000059,70.63919750000059,70.63919750000059,70.63919750000059,70.63919750000059,70.63919750000059,70.63919750000059,0.5729333999988739,002,P022,2025_May_13_1748,CategoryLocalizer,2021.2.3,59.92433952745364,
42.8,43.0,5,0.0,Stimuli\Blank.png,0,0,0,62,62,62,,,,,,,,,,,,,42.80481219999638,0.004812199996379718,None,71.43997959999979,71.43997959999979,71.43997959999979,71.43997959999979,71.43997959999979,71.43997959999979,71.43997959999979,71.43997959999979,,002,P022,2025_May_13_1748,CategoryLocalizer,2021.2.3,59.92433952745364,
43.0,43.8,2,0.75,Stimuli\ImageFiles-Set2\Bodies\Bodies_Running_00003.png,0,0,0,63,63,63,,,,,,,,,,,,,43.0046313999992,0.004631399999198038,None,71.64006920000247,71.64006920000247,71.64006920000247,71.64006920000247,71.64006920000247,71.64006920000247,71.64006920000247,71.64006920000247,,002,P022,2025_May_13_1748,CategoryLocalizer,2021.2.3,59.92433952745364,
43.8,44.0,5,0.0,Stimuli\Blank.png,0,0,0,64,64,64,,,,,,,,,,,,,43.80671829999483,0.00671829999483009,None,72.45748040000035,72.45748040000035,72.45748040000035,72.45748040000035,72.45748040000035,72.45748040000035,72.45748040000035,72.45748040000035,,002,P022,2025_May_13_1748,CategoryLocalizer,2021.2.3,59.92433952745364,
44.0,44.8,3,0.75,Stimuli\ImageFiles-Set2\Faces\Face_00070.png,0,0,0,65,65,65,,,,,,,,,,,,,44.02258969999821,0.022589699998206925,None,72.6743284999975,72.6743284999975,72.6743284999975,72.6743284999975,72.6743284999975,72.6743284999975,72.6743284999975,72.6743284999975,,002,P022,2025_May_13_1748,CategoryLocalizer,2021.2.3,59.92433952745364,
44.8,45.0,5,0.0,Stimuli\Blank.png,0,0,0,66,66,66,,,,,,,,,,,,,44.822553599995445,0.02255359999544737,None,73.45833890000358,73.45833890000358,73.45833890000358,73.45833890000358,73.45833890000358,73.45833890000358,73.45833890000358,73.45833890000358,,002,P022,2025_May_13_1748,CategoryLocalizer,2021.2.3,59.92433952745364,
45.0,45.8,3,0.75,Stimuli\ImageFiles-Set2\Faces\Face_00034.png,0,0,0,67,67,67,,,,,,,,,,,,,45.0070956999989,0.007095699998899363,None,73.65853549999883,73.65853549999883,73.65853549999883,73.65853549999883,73.65853549999883,73.65853549999883,73.65853549999883,73.65853549999883,,002,P022,2025_May_13_1748,CategoryLocalizer,2021.2.3,59.92433952745364,
45.8,46.0,5,0.0,Stimuli\Blank.png,0,0,0,68,68,68,,,,,,,,,,,,,45.82350259999657,0.023502599996575668,None,74.45920530000149,74.45920530000149,74.45920530000149,74.45920530000149,74.45920530000149,74.45920530000149,74.45920530000149,74.45920530000149,,002,P022,2025_May_13_1748,CategoryLocalizer,2021.2.3,59.92433952745364,
46.0,46.8,3,0.75,Stimuli\ImageFiles-Set2\Faces\Face_00032.png,0,0,0,69,69,69,,,,,,,,,,,,,46.00714629999857,0.007146299998566974,None,74.64267649999965,74.64267649999965,74.64267649999965,74.64267649999965,74.64267649999965,74.64267649999965,74.64267649999965,74.64267649999965,,002,P022,2025_May_13_1748,CategoryLocalizer,2021.2.3,59.92433952745364,
46.8,47.0,5,0.0,Stimuli\Blank.png,0,0,0,70,70,70,,,,,,,,,,,,,46.80762649999815,0.0076264999981532355,None,75.44342989999859,75.44342989999859,75.44342989999859,75.44342989999859,75.44342989999859,75.44342989999859,75.44342989999859,75.44342989999859,,002,P022,2025_May_13_1748,CategoryLocalizer,2021.2.3,59.92433952745364,
47.0,47.8,3,0.75,Stimuli\ImageFiles-Set2\Faces\Face_00013.png,0,0,0,71,71,71,,,,,,,,,,,,,47.00782619999518,0.007826199995179195,None,75.6603230000037,75.6603230000037,75.6603230000037,75.6603230000037,75.6603230000037,75.6603230000037,75.6603230000037,75.6603230000037,,002,P022,2025_May_13_1748,CategoryLocalizer,2021.2.3,59.92433952745364,
47.8,48.0,5,0.0,Stimuli\Blank.png,0,0,0,72,72,72,,,,,,,,,,,,,47.82737429999543,0.027374299995429396,None,76.47768630000064,76.47768630000064,76.47768630000064,76.47768630000064,76.47768630000064,76.47768630000064,76.47768630000064,76.47768630000064,,002,P022,2025_May_13_1748,CategoryLocalizer,2021.2.3,59.92433952745364,
48.0,48.8,3,0.75,Stimuli\ImageFiles-Set2\Faces\Face_00082.png,0,0,0,73,73,73,,,,,,,,,,,,,48.02566279999883,0.025662799998826813,None,76.66118180000194,76.66118180000194,76.66118180000194,76.66118180000194,76.66118180000194,76.66118180000194,76.66118180000194,76.66118180000194,,002,P022,2025_May_13_1748,CategoryLocalizer,2021.2.3,59.92433952745364,
48.8,49.0,5,0.0,Stimuli\Blank.png,0,0,0,74,74,74,,,,,,,,,,,,,48.81200749999698,0.012007499996983029,None,77.46188880000409,77.46188880000409,77.46188880000409,77.46188880000409,77.46188880000409,77.46188880000409,77.46188880000409,77.46188880000409,,002,P022,2025_May_13_1748,CategoryLocalizer,2021.2.3,59.92433952745364,
49.0,49.8,3,0.75,Stimuli\ImageFiles-Set2\Faces\Face_00010.png,0,0,0,75,75,75,,,,,,,,,,,,,49.02773409999645,0.027734099996450823,None,77.695429899999,77.695429899999,77.695429899999,77.695429899999,77.695429899999,77.695429899999,77.695429899999,77.695429899999,,002,P022,2025_May_13_1748,CategoryLocalizer,2021.2.3,59.92433952745364,
49.8,50.0,5,0.0,Stimuli\Blank.png,0,0,0,76,76,76,,,,,,,,,,,,,49.845071999996435,0.04507199999643774,None,78.47947199999908,78.47947199999908,78.47947199999908,78.47947199999908,78.47947199999908,78.47947199999908,78.47947199999908,78.47947199999908,,002,P022,2025_May_13_1748,CategoryLocalizer,2021.2.3,59.92433952745364,
50.0,50.8,3,0.75,Stimuli\ImageFiles-Set2\Faces\Face_00021.png,0,0,0,77,77,77,,,,,,,,,,,,,50.01085299999977,0.010852999999769963,None,78.67962480000278,78.67962480000278,78.67962480000278,78.67962480000278,78.67962480000278,78.67962480000278,78.67962480000278,78.67962480000278,,002,P022,2025_May_13_1748,CategoryLocalizer,2021.2.3,59.92433952745364,
50.8,51.0,5,0.0,Stimuli\Blank.png,0,0,0,78,78,78,,,,,,,,,,,,,50.84543929999927,0.04543929999927343,None,79.48035750000417,79.48035750000417,79.48035750000417,79.48035750000417,79.48035750000417,79.48035750000417,79.48035750000417,79.48035750000417,,002,P022,2025_May_13_1748,CategoryLocalizer,2021.2.3,59.92433952745364,
51.0,51.8,3,0.75,Stimuli\ImageFiles-Set2\Faces\Face_00056.png,0,0,0,79,79,79,,,,,,,,,,,,,51.01182019999396,0.011820199993962888,None,79.6638460000031,79.6638460000031,79.6638460000031,79.6638460000031,79.6638460000031,79.6638460000031,79.6638460000031,79.6638460000031,,002,P022,2025_May_13_1748,CategoryLocalizer,2021.2.3,59.92433952745364,
51.8,52.0,5,0.0,Stimuli\Blank.png,0,0,0,80,80,80,,,,,,,,,,,,,51.82934299999761,0.02934299999760981,None,80.46454010000161,80.46454010000161,80.46454010000161,80.46454010000161,80.46454010000161,80.46454010000161,80.46454010000161,80.46454010000161,,002,P022,2025_May_13_1748,CategoryLocalizer,2021.2.3,59.92433952745364,
52.0,52.8,3,0.75,Stimuli\ImageFiles-Set2\Faces\Face_00004.png,0,0,0,81,81,81,,,,,,,,,,,,,52.01282749999518,0.012827499995182734,None,80.66471769999771,80.66471769999771,80.66471769999771,80.66471769999771,80.66471769999771,80.66471769999771,80.66471769999771,80.66471769999771,,002,P022,2025_May_13_1748,CategoryLocalizer,2021.2.3,59.92433952745364,
52.8,53.0,5,0.0,Stimuli\Blank.png,0,0,0,82,82,82,,,,,,,,,,,,,52.831874499999685,0.031874499999688055,None,81.48211399999855,81.48211399999855,81.48211399999855,81.48211399999855,81.48211399999855,81.48211399999855,81.48211399999855,81.48211399999855,,002,P022,2025_May_13_1748,CategoryLocalizer,2021.2.3,59.92433952745364,
53.0,53.8,3,0.75,Stimuli\ImageFiles-Set2\Faces\Face_00017.png,0,0,0,83,83,83,,,,,,,,,,,,,53.03160149999894,0.03160149999894202,None,81.68228939999972,81.68228939999972,81.68228939999972,81.68228939999972,81.68228939999972,81.68228939999972,81.68228939999972,81.68228939999972,,002,P022,2025_May_13_1748,CategoryLocalizer,2021.2.3,59.92433952745364,
53.8,54.0,5,0.0,Stimuli\Blank.png,0,0,0,84,84,84,,,,,,,,,,,,,53.832316699998046,0.03231669999804865,None,82.48299609999958,82.48299609999958,82.48299609999958,82.48299609999958,82.48299609999958,82.48299609999958,82.48299609999958,82.48299609999958,,002,P022,2025_May_13_1748,CategoryLocalizer,2021.2.3,59.92433952745364,
54.0,54.8,3,0.75,Stimuli\ImageFiles-Set2\Faces\Face_00102.png,0,0,0,85,85,85,,,,,,,,,,,,,54.01446410000062,0.014464100000623148,None,82.68319290000363,82.68319290000363,82.68319290000363,82.68319290000363,82.68319290000363,82.68319290000363,82.68319290000363,82.68319290000363,,002,P022,2025_May_13_1748,CategoryLocalizer,2021.2.3,59.92433952745364,
54.8,55.0,5,0.0,Stimuli\Blank.png,0,0,0,86,86,86,,,,,,,,,,,,,54.8480064999967,0.0480064999967027,None,83.48387609999918,83.48387609999918,83.48387609999918,83.48387609999918,83.48387609999918,83.48387609999918,83.48387609999918,83.48387609999918,,002,P022,2025_May_13_1748,CategoryLocalizer,2021.2.3,59.92433952745364,
55.0,55.8,3,0.75,Stimuli\ImageFiles-Set2\Faces\Face_00088.png,0,0,0,87,87,87,,,,,,,,,,,,,55.017054399999324,0.017054399999324232,None,83.68405119999807,83.68405119999807,83.68405119999807,83.68405119999807,83.68405119999807,83.68405119999807,83.68405119999807,83.68405119999807,,002,P022,2025_May_13_1748,CategoryLocalizer,2021.2.3,59.92433952745364,
55.8,56.0,5,0.0,Stimuli\Blank.png,0,0,0,88,88,88,,,,,,,,,,,,,55.83229779999965,0.032297799999653876,None,84.46805280000262,84.46805280000262,84.46805280000262,84.46805280000262,84.46805280000262,84.46805280000262,84.46805280000262,84.46805280000262,,002,P022,2025_May_13_1748,CategoryLocalizer,2021.2.3,59.92433952745364,
56.0,56.8,3,0.75,Stimuli\ImageFiles-Set2\Faces\Face_00088.png,1,1,0,89,89,89,,,,,,,,,,,,,56.00198609999643,0.0019860999964294024,1,84.65155159999995,84.65155159999995,84.65155159999995,84.65155159999995,84.65155159999995,84.65155159999995,84.65155159999995,84.65155159999995,0.3654017000008025,002,P022,2025_May_13_1748,CategoryLocalizer,2021.2.3,59.92433952745364,
56.8,57.0,5,0.0,Stimuli\Blank.png,0,0,0,90,90,90,,,,,,,,,,,,,56.81702399999631,0.017023999996311545,None,85.4523143999977,85.4523143999977,85.4523143999977,85.4523143999977,85.4523143999977,85.4523143999977,85.4523143999977,85.4523143999977,,002,P022,2025_May_13_1748,CategoryLocalizer,2021.2.3,59.92433952745364,
57.0,57.8,3,0.75,Stimuli\ImageFiles-Set2\Faces\Face_00092.png,0,0,0,91,91,91,,,,,,,,,,,,,57.00215429999662,0.002154299996618647,None,85.6691484000039,85.6691484000039,85.6691484000039,85.6691484000039,85.6691484000039,85.6691484000039,85.6691484000039,85.6691484000039,,002,P022,2025_May_13_1748,CategoryLocalizer,2021.2.3,59.92433952745364,
57.8,58.0,5,0.0,Stimuli\Blank.png,0,0,0,92,92,92,,,,,,,,,,,,,57.836801299999934,0.03680129999993653,None,86.48653550000017,86.48653550000017,86.48653550000017,86.48653550000017,86.48653550000017,86.48653550000017,86.48653550000017,86.48653550000017,,002,P022,2025_May_13_1748,CategoryLocalizer,2021.2.3,59.92433952745364,
58.0,58.8,3,0.75,Stimuli\ImageFiles-Set2\Faces\Face_00038.png,0,0,0,93,93,93,,,,,,,,,,,,,58.0179363999996,0.017936399999598507,None,86.65334409999923,86.65334409999923,86.65334409999923,86.65334409999923,86.65334409999923,86.65334409999923,86.65334409999923,86.65334409999923,,002,P022,2025_May_13_1748,CategoryLocalizer,2021.2.3,59.92433952745364,
58.8,59.0,5,0.0,Stimuli\Blank.png,0,0,0,94,94,94,,,,,,,,,,,,,58.80269079999562,0.002690799995619386,None,87.43737710000278,87.43737710000278,87.43737710000278,87.43737710000278,87.43737710000278,87.43737710000278,87.43737710000278,87.43737710000278,,002,P022,2025_May_13_1748,CategoryLocalizer,2021.2.3,59.92433952745364,
59.0,59.8,3,0.75,Stimuli\ImageFiles-Set2\Faces\Face_00050.png,0,0,0,95,95,95,,,,,,,,,,,,,59.00219349999679,0.002193499996792525,None,87.67091770000116,87.67091770000116,87.67091770000116,87.67091770000116,87.67091770000116,87.67091770000116,87.67091770000116,87.67091770000116,,002,P022,2025_May_13_1748,CategoryLocalizer,2021.2.3,59.92433952745364,
59.8,60.0,5,0.0,Stimuli\Blank.png,0,0,0,96,96,96,,,,,,,,,,,,,59.83672089999891,0.036720899998911705,None,88.47161649999907,88.47161649999907,88.47161649999907,88.47161649999907,88.47161649999907,88.47161649999907,88.47161649999907,88.47161649999907,,002,P022,2025_May_13_1748,CategoryLocalizer,2021.2.3,59.92433952745364,
60.0,60.8,4,0.75,Stimuli\ImageFiles-Set2\Scenes\Scenes_113.png,0,0,0,97,97,97,,,,,,,,,,,,,60.00278979999712,0.0027897999971173704,None,88.6550944000046,88.6550944000046,88.6550944000046,88.6550944000046,88.6550944000046,88.6550944000046,88.6550944000046,88.6550944000046,,002,P022,2025_May_13_1748,CategoryLocalizer,2021.2.3,59.92433952745364,
60.8,61.0,5,0.0,Stimuli\Blank.png,0,0,0,98,98,98,,,,,,,,,,,,,60.821874900000694,0.021874900000696584,None,89.4725075000024,89.4725075000024,89.4725075000024,89.4725075000024,89.4725075000024,89.4725075000024,89.4725075000024,89.4725075000024,,002,P022,2025_May_13_1748,CategoryLocalizer,2021.2.3,59.92433952745364,
61.0,61.8,4,0.75,Stimuli\ImageFiles-Set2\Scenes\Scenes_073.png,0,0,0,99,99,99,,,,,,,,,,,,,61.0220147,0.02201469999999972,None,89.68936200000462,89.68936200000462,89.68936200000462,89.68936200000462,89.68936200000462,89.68936200000462,89.68936200000462,89.68936200000462,,002,P022,2025_May_13_1748,CategoryLocalizer,2021.2.3,59.92433952745364,
61.8,62.0,5,0.0,Stimuli\Blank.png,0,0,0,100,100,100,,,,,,,,,,,,,61.837609799993515,0.03760979999351832,None,90.47337949999928,90.47337949999928,90.47337949999928,90.47337949999928,90.47337949999928,90.47337949999928,90.47337949999928,90.47337949999928,,002,P022,2025_May_13_1748,CategoryLocalizer,2021.2.3,59.92433952745364,
62.0,62.8,4,0.75,Stimuli\ImageFiles-Set2\Scenes\Scenes_067.png,0,0,0,101,101,101,,,,,,,,,,,,,62.00594139999885,0.005941399998846464,None,90.65688200000295,90.65688200000295,90.65688200000295,90.65688200000295,90.65688200000295,90.65688200000295,90.65688200000295,90.65688200000295,,002,P022,2025_May_13_1748,CategoryLocalizer,2021.2.3,59.92433952745364,
62.8,63.0,5,0.0,Stimuli\Blank.png,0,0,0,102,102,102,,,,,,,,,,,,,62.82227899999998,0.022278999999983284,None,91.457593799998,91.457593799998,91.457593799998,91.457593799998,91.457593799998,91.457593799998,91.457593799998,91.457593799998,,002,P022,2025_May_13_1748,CategoryLocalizer,2021.2.3,59.92433952745364,
63.0,63.8,4,0.75,Stimuli\ImageFiles-Set2\Scenes\Scenes_112.png,0,0,0,103,103,103,,,,,,,,,,,,,63.00702319999982,0.007023199999821372,None,91.65777710000111,91.65777710000111,91.65777710000111,91.65777710000111,91.65777710000111,91.65777710000111,91.65777710000111,91.65777710000111,,002,P022,2025_May_13_1748,CategoryLocalizer,2021.2.3,59.92433952745364,
63.8,64.0,5,0.0,Stimuli\Blank.png,0,0,0,104,104,104,,,,,,,,,,,,,63.82252719999815,0.02252719999815156,None,92.45847299999878,92.45847299999878,92.45847299999878,92.45847299999878,92.45847299999878,92.45847299999878,92.45847299999878,92.45847299999878,,002,P022,2025_May_13_1748,CategoryLocalizer,2021.2.3,59.92433952745364,
64.0,64.8,4,0.75,Stimuli\ImageFiles-Set2\Scenes\Scenes_075.png,0,0,0,105,105,105,,,,,,,,,,,,,64.00721019999764,0.00721019999764394,None,92.67534100000194,92.67534100000194,92.67534100000194,92.67534100000194,92.67534100000194,92.67534100000194,92.67534100000194,92.67534100000194,,002,P022,2025_May_13_1748,CategoryLocalizer,2021.2.3,59.92433952745364,
64.8,65.0,5,0.0,Stimuli\Blank.png,0,0,0,106,106,106,,,,,,,,,,,,,64.84203960000013,0.04203960000013751,None,93.49274670000159,93.49274670000159,93.49274670000159,93.49274670000159,93.49274670000159,93.49274670000159,93.49274670000159,93.49274670000159,,002,P022,2025_May_13_1748,CategoryLocalizer,2021.2.3,59.92433952745364,
65.0,65.8,4,0.75,Stimuli\ImageFiles-Set2\Scenes\Scenes_099.png,0,0,0,107,107,107,,,,,,,,,,,,,65.02437279999867,0.024372799998673145,None,93.69289830000343,93.69289830000343,93.69289830000343,93.69289830000343,93.69289830000343,93.69289830000343,93.69289830000343,93.69289830000343,,002,P022,2025_May_13_1748,CategoryLocalizer,2021.2.3,59.92433952745364,
65.8,66.0,5,0.0,Stimuli\Blank.png,0,0,0,108,108,108,,,,,,,,,,,,,65.84123539999564,0.0412353999956423,None,94.47698549999768,94.47698549999768,94.47698549999768,94.47698549999768,94.47698549999768,94.47698549999768,94.47698549999768,94.47698549999768,,002,P022,2025_May_13_1748,CategoryLocalizer,2021.2.3,59.92433952745364,
66.0,66.8,4,0.75,Stimuli\ImageFiles-Set2\Scenes\Scenes_074.png,0,0,0,109,109,109,,,,,,,,,,,,,66.00796809999883,0.007968099998834077,None,94.677111099998,94.677111099998,94.677111099998,94.677111099998,94.677111099998,94.677111099998,94.677111099998,94.677111099998,,002,P022,2025_May_13_1748,CategoryLocalizer,2021.2.3,59.92433952745364,
66.8,67.0,5,0.0,Stimuli\Blank.png,0,0,0,110,110,110,,,,,,,,,,,,,66.84258079999563,0.042580799995633356,None,95.47781029999896,95.47781029999896,95.47781029999896,95.47781029999896,95.47781029999896,95.47781029999896,95.47781029999896,95.47781029999896,,002,P022,2025_May_13_1748,CategoryLocalizer,2021.2.3,59.92433952745364,
67.0,67.8,4,0.75,Stimuli\ImageFiles-Set2\Scenes\Scenes_097.png,0,0,0,111,111,111,,,,,,,,,,,,,67.00953229999868,0.009532299998681992,None,95.66130400000111,95.66130400000111,95.66130400000111,95.66130400000111,95.66130400000111,95.66130400000111,95.66130400000111,95.66130400000111,,002,P022,2025_May_13_1748,CategoryLocalizer,2021.2.3,59.92433952745364,
67.8,68.0,5,0.0,Stimuli\Blank.png,0,0,0,112,112,112,,,,,,,,,,,,,67.82758839999588,0.02758839999587792,None,96.46202780000021,96.46202780000021,96.46202780000021,96.46202780000021,96.46202780000021,96.46202780000021,96.46202780000021,96.46202780000021,,002,P022,2025_May_13_1748,CategoryLocalizer,2021.2.3,59.92433952745364,
68.0,68.8,4,0.75,Stimuli\ImageFiles-Set2\Scenes\Scenes_106.png,0,0,0,113,113,113,,,,,,,,,,,,,68.0120592999956,0.012059299995598849,None,96.66226530000131,96.66226530000131,96.66226530000131,96.66226530000131,96.66226530000131,96.66226530000131,96.66226530000131,96.66226530000131,,002,P022,2025_May_13_1748,CategoryLocalizer,2021.2.3,59.92433952745364,
68.8,69.0,5,0.0,Stimuli\Blank.png,0,0,0,114,114,114,,,,,,,,,,,,,68.82767719999538,0.027677199995380874,None,97.4629058999999,97.4629058999999,97.4629058999999,97.4629058999999,97.4629058999999,97.4629058999999,97.4629058999999,97.4629058999999,,002,P022,2025_May_13_1748,CategoryLocalizer,2021.2.3,59.92433952745364,
69.0,69.8,4,0.75,Stimuli\ImageFiles-Set2\Scenes\Scenes_109.png,0,0,0,115,115,115,,,,,,,,,,,,,69.0106181999945,0.010618199994496536,None,97.66310130000056,97.66310130000056,97.66310130000056,97.66310130000056,97.66310130000056,97.66310130000056,97.66310130000056,97.66310130000056,,002,P022,2025_May_13_1748,CategoryLocalizer,2021.2.3,59.92433952745364,
69.8,70.0,5,0.0,Stimuli\Blank.png,0,0,0,116,116,116,,,,,,,,,,,,,69.82888119999552,0.028881199995524298,None,98.46378489999915,98.46378489999915,98.46378489999915,98.46378489999915,98.46378489999915,98.46378489999915,98.46378489999915,98.46378489999915,,002,P022,2025_May_13_1748,CategoryLocalizer,2021.2.3,59.92433952745364,
70.0,70.8,4,0.75,Stimuli\ImageFiles-Set2\Scenes\Scenes_071.png,0,0,0,117,117,117,,,,,,,,,,,,,70.0117035000003,0.011703500000294298,None,98.68064620000223,98.68064620000223,98.68064620000223,98.68064620000223,98.68064620000223,98.68064620000223,98.68064620000223,98.68064620000223,,002,P022,2025_May_13_1748,CategoryLocalizer,2021.2.3,59.92433952745364,
70.8,71.0,5,0.0,Stimuli\Blank.png,0,0,0,118,118,118,,,,,,,,,,,,,70.84811609999451,0.04811609999451605,None,99.4980366000018,99.4980366000018,99.4980366000018,99.4980366000018,99.4980366000018,99.4980366000018,99.4980366000018,99.4980366000018,,002,P022,2025_May_13_1748,CategoryLocalizer,2021.2.3,59.92433952745364,
71.0,71.8,4,0.75,Stimuli\ImageFiles-Set2\Scenes\Scenes_081.png,0,0,0,119,119,119,,,,,,,,,,,,,71.03031379999447,0.03031379999447381,None,99.6982158000028,99.6982158000028,99.6982158000028,99.6982158000028,99.6982158000028,99.6982158000028,99.6982158000028,99.6982158000028,,002,P022,2025_May_13_1748,CategoryLocalizer,2021.2.3,59.92433952745364,
71.8,72.0,5,0.0,Stimuli\Blank.png,0,0,0,120,120,120,,,,,,,,,,,,,71.84734399999434,0.04734399999433947,None,100.48224760000448,100.48224760000448,100.48224760000448,100.48224760000448,100.48224760000448,100.48224760000448,100.48224760000448,100.48224760000448,,002,P022,2025_May_13_1748,CategoryLocalizer,2021.2.3,59.92433952745364,
72.0,72.8,4,0.75,Stimuli\ImageFiles-Set2\Scenes\Scenes_061.png,0,0,0,121,121,121,,,,,,,,,,,,,72.01356870000018,0.013568700000178069,None,100.66573300000164,100.66573300000164,100.66573300000164,100.66573300000164,100.66573300000164,100.66573300000164,100.66573300000164,100.66573300000164,,002,P022,2025_May_13_1748,CategoryLocalizer,2021.2.3,59.92433952745364,
72.8,73.0,5,0.0,Stimuli\Blank.png,0,0,0,122,122,122,,,,,,,,,,,,,72.83151469999575,0.031514699995753404,None,101.46646119999787,101.46646119999787,101.46646119999787,101.46646119999787,101.46646119999787,101.46646119999787,101.46646119999787,101.46646119999787,,002,P022,2025_May_13_1748,CategoryLocalizer,2021.2.3,59.92433952745364,
73.0,73.8,4,0.75,Stimuli\ImageFiles-Set2\Scenes\Scenes_115.png,0,0,0,123,123,123,,,,,,,,,,,,,73.01677039999777,0.016770399997767527,None,101.6666652999993,101.6666652999993,101.6666652999993,101.6666652999993,101.6666652999993,101.6666652999993,101.6666652999993,101.6666652999993,,002,P022,2025_May_13_1748,CategoryLocalizer,2021.2.3,59.92433952745364,
73.8,74.0,5,0.0,Stimuli\Blank.png,0,0,0,124,124,124,,,,,,,,,,,,,73.81704779999563,0.017047799995637547,None,102.46733990000212,102.46733990000212,102.46733990000212,102.46733990000212,102.46733990000212,102.46733990000212,102.46733990000212,102.46733990000212,,002,P022,2025_May_13_1748,CategoryLocalizer,2021.2.3,59.92433952745364,
74.0,74.8,4,0.75,Stimuli\ImageFiles-Set2\Scenes\Scenes_115.png,1,1,0,125,125,125,,,,,,,,,,,,,74.01578219999647,0.01578219999646535,1,102.65087130000029,102.65087130000029,102.65087130000029,102.65087130000029,102.65087130000029,102.65087130000029,102.65087130000029,102.65087130000029,0.40597469999920577,002,P022,2025_May_13_1748,CategoryLocalizer,2021.2.3,59.92433952745364,
74.8,75.0,5,0.0,Stimuli\Blank.png,0,0,0,126,126,126,,,,,,,,,,,,,74.79967219999526,-0.00032780000474019744,None,103.4349796000024,103.4349796000024,103.4349796000024,103.4349796000024,103.4349796000024,103.4349796000024,103.4349796000024,103.4349796000024,,002,P022,2025_May_13_1748,CategoryLocalizer,2021.2.3,59.92433952745364,
75.0,75.8,4,0.75,Stimuli\ImageFiles-Set2\Scenes\Scenes_120.png,0,0,0,127,127,127,,,,,,,,,,,,,74.9997757999954,-0.00022420000459533185,None,103.66838300000381,103.66838300000381,103.66838300000381,103.66838300000381,103.66838300000381,103.66838300000381,103.66838300000381,103.66838300000381,,002,P022,2025_May_13_1748,CategoryLocalizer,2021.2.3,59.92433952745364,
75.8,76.0,5,0.0,Stimuli\Blank.png,0,0,0,128,128,128,,,,,,,,,,,,,75.83391499999561,0.03391499999561631,None,104.46909030000097,104.46909030000097,104.46909030000097,104.46909030000097,104.46909030000097,104.46909030000097,104.46909030000097,104.46909030000097,,002,P022,2025_May_13_1748,CategoryLocalizer,2021.2.3,59.92433952745364,
76.0,88.0,0,0.0,Stimuli\Blank.png,0,0,0,129,129,129,,,,,,,,,,,,,76.00018540000019,0.00018540000019129366,None,104.6359048000013,104.6359048000013,104.6359048000013,104.6359048000013,104.6359048000013,104.6359048000013,104.6359048000013,104.6359048000013,,002,P022,2025_May_13_1748,CategoryLocalizer,2021.2.3,59.92433952745364,
88.0,88.8,3,0.75,Stimuli\ImageFiles-Set2\Faces\Face_00104.png,0,0,0,130,130,130,,,,,,,,,,,,,88.01129369999398,0.011293699993984774,None,116.66320390000328,116.66320390000328,116.66320390000328,116.66320390000328,116.66320390000328,116.66320390000328,116.66320390000328,116.66320390000328,,002,P022,2025_May_13_1748,CategoryLocalizer,2021.2.3,59.92433952745364,
88.8,89.0,5,0.0,Stimuli\Blank.png,0,0,0,131,131,131,,,,,,,,,,,,,88.82819899999595,0.028198999995950658,None,117.46391310000035,117.46391310000035,117.46391310000035,117.46391310000035,117.46391310000035,117.46391310000035,117.46391310000035,117.46391310000035,,002,P022,2025_May_13_1748,CategoryLocalizer,2021.2.3,59.92433952745364,
89.0,89.8,3,0.75,Stimuli\ImageFiles-Set2\Faces\Face_00052.png,0,0,0,132,132,132,,,,,,,,,,,,,89.01154689999385,0.011546899993845727,None,117.66410270000051,117.66410270000051,117.66410270000051,117.66410270000051,117.66410270000051,117.66410270000051,117.66410270000051,117.66410270000051,,002,P022,2025_May_13_1748,CategoryLocalizer,2021.2.3,59.92433952745364,
89.8,90.0,5,0.0,Stimuli\Blank.png,0,0,0,133,133,133,,,,,,,,,,,,,89.82972569999401,0.029725699994017418,None,118.46488359999785,118.46488359999785,118.46488359999785,118.46488359999785,118.46488359999785,118.46488359999785,118.46488359999785,118.46488359999785,,002,P022,2025_May_13_1748,CategoryLocalizer,2021.2.3,59.92433952745364,
90.0,90.8,3,0.75,Stimuli\ImageFiles-Set2\Faces\Face_00072.png,0,0,0,134,134,134,,,,,,,,,,,,,90.01304679999885,0.013046799998846836,None,118.66499560000375,118.66499560000375,118.66499560000375,118.66499560000375,118.66499560000375,118.66499560000375,118.66499560000375,118.66499560000375,,002,P022,2025_May_13_1748,CategoryLocalizer,2021.2.3,59.92433952745364,
90.8,91.0,5,0.0,Stimuli\Blank.png,0,0,0,135,135,135,,,,,,,,,,,,,90.83035439999367,0.03035439999366929,None,119.46568539999862,119.46568539999862,119.46568539999862,119.46568539999862,119.46568539999862,119.46568539999862,119.46568539999862,119.46568539999862,,002,P022,2025_May_13_1748,CategoryLocalizer,2021.2.3,59.92433952745364,
91.0,91.8,3,0.75,Stimuli\ImageFiles-Set2\Faces\Face_00072.png,1,1,0,136,136,136,,,,,,,,,,,,,91.013981899996,0.013981899995997082,1,119.64918050000415,119.64918050000415,119.64918050000415,119.64918050000415,119.64918050000415,119.64918050000415,119.64918050000415,119.64918050000415,0.5587390000000596,002,P022,2025_May_13_1748,CategoryLocalizer,2021.2.3,59.92433952745364,
91.8,92.0,5,0.0,Stimuli\Blank.png,0,0,0,137,137,137,,,,,,,,,,,,,91.81427629999962,0.01427629999962221,None,120.44988790000207,120.44988790000207,120.44988790000207,120.44988790000207,120.44988790000207,120.44988790000207,120.44988790000207,120.44988790000207,,002,P022,2025_May_13_1748,CategoryLocalizer,2021.2.3,59.92433952745364,
92.0,92.8,3,0.75,Stimuli\ImageFiles-Set2\Faces\Face_00054.png,0,0,0,138,138,138,,,,,,,,,,,,,92.0152769999986,0.015276999998604879,None,120.66675889999897,120.66675889999897,120.66675889999897,120.66675889999897,120.66675889999897,120.66675889999897,120.66675889999897,120.66675889999897,,002,P022,2025_May_13_1748,CategoryLocalizer,2021.2.3,59.92433952745364,
92.8,93.0,5,0.0,Stimuli\Blank.png,0,0,0,139,139,139,,,,,,,,,,,,,92.81786920000013,0.01786920000013481,None,121.4675911000013,121.4675911000013,121.4675911000013,121.4675911000013,121.4675911000013,121.4675911000013,121.4675911000013,121.4675911000013,,002,P022,2025_May_13_1748,CategoryLocalizer,2021.2.3,59.92433952745364,
93.0,93.8,3,0.75,Stimuli\ImageFiles-Set2\Faces\Face_00112.png,0,0,0,140,140,140,,,,,,,,,,,,,93.01694399999542,0.01694399999541929,None,121.68434949999937,121.68434949999937,121.68434949999937,121.68434949999937,121.68434949999937,121.68434949999937,121.68434949999937,121.68434949999937,,002,P022,2025_May_13_1748,CategoryLocalizer,2021.2.3,59.92433952745364,
93.8,94.0,5,0.0,Stimuli\Blank.png,0,0,0,141,141,141,,,,,,,,,,,,,93.83313449999696,0.03313449999696161,None,122.46833250000054,122.46833250000054,122.46833250000054,122.46833250000054,122.46833250000054,122.46833250000054,122.46833250000054,122.46833250000054,,002,P022,2025_May_13_1748,CategoryLocalizer,2021.2.3,59.92433952745364,
94.0,94.8,3,0.75,Stimuli\ImageFiles-Set2\Faces\Face_00076.png,0,0,0,142,142,142,,,,,,,,,,,,,94.00092059999588,0.0009205999958794564,None,122.66851599999791,122.66851599999791,122.66851599999791,122.66851599999791,122.66851599999791,122.66851599999791,122.66851599999791,122.66851599999791,,002,P022,2025_May_13_1748,CategoryLocalizer,2021.2.3,59.92433952745364,
94.8,95.0,5,0.0,Stimuli\Blank.png,0,0,0,143,143,143,,,,,,,,,,,,,94.83343619999505,0.03343619999505165,None,123.46918659999938,123.46918659999938,123.46918659999938,123.46918659999938,123.46918659999938,123.46918659999938,123.46918659999938,123.46918659999938,,002,P022,2025_May_13_1748,CategoryLocalizer,2021.2.3,59.92433952745364,
95.0,95.8,3,0.75,Stimuli\ImageFiles-Set2\Faces\Face_00118.png,0,0,0,144,144,144,,,,,,,,,,,,,95.00074809999933,0.0007480999993276782,None,123.63602990000072,123.63602990000072,123.63602990000072,123.63602990000072,123.63602990000072,123.63602990000072,123.63602990000072,123.63602990000072,,002,P022,2025_May_13_1748,CategoryLocalizer,2021.2.3,59.92433952745364,
95.8,96.0,5,0.0,Stimuli\Blank.png,0,0,0,145,145,145,,,,,,,,,,,,,95.80148799999733,0.001487999997337397,None,124.43674689999898,124.43674689999898,124.43674689999898,124.43674689999898,124.43674689999898,124.43674689999898,124.43674689999898,124.43674689999898,,002,P022,2025_May_13_1748,CategoryLocalizer,2021.2.3,59.92433952745364,
96.0,96.8,3,0.75,Stimuli\ImageFiles-Set2\Faces\Face_00064.png,0,0,0,146,146,146,,,,,,,,,,,,,96.00110750000022,0.0011075000002165325,None,124.67028620000201,124.67028620000201,124.67028620000201,124.67028620000201,124.67028620000201,124.67028620000201,124.67028620000201,124.67028620000201,,002,P022,2025_May_13_1748,CategoryLocalizer,2021.2.3,59.92433952745364,
96.8,97.0,5,0.0,Stimuli\Blank.png,0,0,0,147,147,147,,,,,,,,,,,,,96.83711819999735,0.03711819999735155,None,125.48771200000192,125.48771200000192,125.48771200000192,125.48771200000192,125.48771200000192,125.48771200000192,125.48771200000192,125.48771200000192,,002,P022,2025_May_13_1748,CategoryLocalizer,2021.2.3,59.92433952745364,
97.0,97.8,3,0.75,Stimuli\ImageFiles-Set2\Faces\Face_00036.png,0,0,0,148,148,148,,,,,,,,,,,,,97.01855660000001,0.018556600000010803,None,125.65448019999894,125.65448019999894,125.65448019999894,125.65448019999894,125.65448019999894,125.65448019999894,125.65448019999894,125.65448019999894,,002,P022,2025_May_13_1748,CategoryLocalizer,2021.2.3,59.92433952745364,
97.8,98.0,5,0.0,Stimuli\Blank.png,0,0,0,149,149,149,,,,,,,,,,,,,97.8027551999985,0.002755199998503599,None,126.43850950000342,126.43850950000342,126.43850950000342,126.43850950000342,126.43850950000342,126.43850950000342,126.43850950000342,126.43850950000342,,002,P022,2025_May_13_1748,CategoryLocalizer,2021.2.3,59.92433952745364,
98.0,98.8,3,0.75,Stimuli\ImageFiles-Set2\Faces\Face_00090.png,0,0,0,150,150,150,,,,,,,,,,,,,98.00350989999424,0.003509899994242005,None,126.65538850000303,126.65538850000303,126.65538850000303,126.65538850000303,126.65538850000303,126.65538850000303,126.65538850000303,126.65538850000303,,002,P022,2025_May_13_1748,CategoryLocalizer,2021.2.3,59.92433952745364,
98.8,99.0,5,0.0,Stimuli\Blank.png,0,0,0,151,151,151,,,,,,,,,,,,,98.82301739999821,0.023017399998209953,None,127.47277069999836,127.47277069999836,127.47277069999836,127.47277069999836,127.47277069999836,127.47277069999836,127.47277069999836,127.47277069999836,,002,P022,2025_May_13_1748,CategoryLocalizer,2021.2.3,59.92433952745364,
99.0,99.8,3,0.75,Stimuli\ImageFiles-Set2\Faces\Face_00116.png,0,0,0,152,152,152,,,,,,,,,,,,,99.02349599999434,0.02349599999433849,None,127.68964419999975,127.68964419999975,127.68964419999975,127.68964419999975,127.68964419999975,127.68964419999975,127.68964419999975,127.68964419999975,,002,P022,2025_May_13_1748,CategoryLocalizer,2021.2.3,59.92433952745364,
99.8,100.0,5,0.0,Stimuli\Blank.png,0,0,0,153,153,153,,,,,,,,,,,,,99.83876579999924,0.0387657999992399,None,128.47364670000388,128.47364670000388,128.47364670000388,128.47364670000388,128.47364670000388,128.47364670000388,128.47364670000388,128.47364670000388,,002,P022,2025_May_13_1748,CategoryLocalizer,2021.2.3,59.92433952745364,
100.0,100.8,3,0.75,Stimuli\ImageFiles-Set2\Faces\Face_00026.png,0,0,0,154,154,154,,,,,,,,,,,,,100.00462089999928,0.0046208999992813915,None,128.65716059999977,128.65716059999977,128.65716059999977,128.65716059999977,128.65716059999977,128.65716059999977,128.65716059999977,128.65716059999977,,002,P022,2025_May_13_1748,CategoryLocalizer,2021.2.3,59.92433952745364,
100.8,101.0,5,0.0,Stimuli\Blank.png,0,0,0,155,155,155,,,,,,,,,,,,,100.82270240000071,0.022702400000710554,None,129.4578474000009,129.4578474000009,129.4578474000009,129.4578474000009,129.4578474000009,129.4578474000009,129.4578474000009,129.4578474000009,,002,P022,2025_May_13_1748,CategoryLocalizer,2021.2.3,59.92433952745364,
101.0,101.8,3,0.75,Stimuli\ImageFiles-Set2\Faces\Face_00040.png,0,0,0,156,156,156,,,,,,,,,,,,,101.0072610999996,0.007261099999595899,None,129.67470830000093,129.67470830000093,129.67470830000093,129.67470830000093,129.67470830000093,129.67470830000093,129.67470830000093,129.67470830000093,,002,P022,2025_May_13_1748,CategoryLocalizer,2021.2.3,59.92433952745364,
101.8,102.0,5,0.0,Stimuli\Blank.png,0,0,0,157,157,157,,,,,,,,,,,,,101.8403446999946,0.04034469999460555,None,130.4754310999997,130.4754310999997,130.4754310999997,130.4754310999997,130.4754310999997,130.4754310999997,130.4754310999997,130.4754310999997,,002,P022,2025_May_13_1748,CategoryLocalizer,2021.2.3,59.92433952745364,
102.0,102.8,3,0.75,Stimuli\ImageFiles-Set2\Faces\Face_00114.png,0,0,0,158,158,158,,,,,,,,,,,,,102.00842120000016,0.008421200000157114,None,130.65886780000437,130.65886780000437,130.65886780000437,130.65886780000437,130.65886780000437,130.65886780000437,130.65886780000437,130.65886780000437,,002,P022,2025_May_13_1748,CategoryLocalizer,2021.2.3,59.92433952745364,
102.8,103.0,5,0.0,Stimuli\Blank.png,0,0,0,159,159,159,,,,,,,,,,,,,102.82440459999634,0.0244045999963447,None,131.45962359999976,131.45962359999976,131.45962359999976,131.45962359999976,131.45962359999976,131.45962359999976,131.45962359999976,131.45962359999976,,002,P022,2025_May_13_1748,CategoryLocalizer,2021.2.3,59.92433952745364,
103.0,103.8,3,0.75,Stimuli\ImageFiles-Set2\Faces\Face_00019.png,0,0,0,160,160,160,,,,,,,,,,,,,103.00732219999918,0.007322199999180157,None,131.67647800000123,131.67647800000123,131.67647800000123,131.67647800000123,131.67647800000123,131.67647800000123,131.67647800000123,131.67647800000123,,002,P022,2025_May_13_1748,CategoryLocalizer,2021.2.3,59.92433952745364,
103.8,104.0,5,0.0,Stimuli\Blank.png,0,0,0,161,161,161,,,,,,,,,,,,,103.84162099999958,0.04162099999958002,None,132.47717920000287,132.47717920000287,132.47717920000287,132.47717920000287,132.47717920000287,132.47717920000287,132.47717920000287,132.47717920000287,,002,P022,2025_May_13_1748,CategoryLocalizer,2021.2.3,59.92433952745364,
104.0,104.8,1,0.75,Stimuli\ImageFiles-Set2\Objects\Object_Scissors_00001.png,0,0,0,162,162,162,,,,,,,,,,,,,104.0081671999942,0.008167199994204566,None,132.66068510000332,132.66068510000332,132.66068510000332,132.66068510000332,132.66068510000332,132.66068510000332,132.66068510000332,132.66068510000332,,002,P022,2025_May_13_1748,CategoryLocalizer,2021.2.3,59.92433952745364,
104.8,105.0,5,0.0,Stimuli\Blank.png,0,0,0,163,163,163,,,,,,,,,,,,,104.82800439999846,0.0280043999984656,None,133.47808259999874,133.47808259999874,133.47808259999874,133.47808259999874,133.47808259999874,133.47808259999874,133.47808259999874,133.47808259999874,,002,P022,2025_May_13_1748,CategoryLocalizer,2021.2.3,59.92433952745364,
105.0,105.8,1,0.75,Stimuli\ImageFiles-Set2\Objects\Object_Hamburger_00001.png,0,0,0,164,164,164,,,,,,,,,,,,,105.02632429999358,0.02632429999357555,None,133.69495520000055,133.69495520000055,133.69495520000055,133.69495520000055,133.69495520000055,133.69495520000055,133.69495520000055,133.69495520000055,,002,P022,2025_May_13_1748,CategoryLocalizer,2021.2.3,59.92433952745364,
105.8,106.0,5,0.0,Stimuli\Blank.png,0,0,0,165,165,165,,,,,,,,,,,,,105.84366059999593,0.04366059999593119,None,134.4789516000019,134.4789516000019,134.4789516000019,134.4789516000019,134.4789516000019,134.4789516000019,134.4789516000019,134.4789516000019,,002,P022,2025_May_13_1748,CategoryLocalizer,2021.2.3,59.92433952745364,
106.0,106.8,1,0.75,Stimuli\ImageFiles-Set2\Objects\Object_Coffee_00001.png,0,0,0,166,166,166,,,,,,,,,,,,,106.01032519999717,0.010325199997168966,None,134.66246659999888,134.66246659999888,134.66246659999888,134.66246659999888,134.66246659999888,134.66246659999888,134.66246659999888,134.66246659999888,,002,P022,2025_May_13_1748,CategoryLocalizer,2021.2.3,59.92433952745364,
106.8,107.0,5,0.0,Stimuli\Blank.png,0,0,0,167,167,167,,,,,,,,,,,,,106.82798039999761,0.0279803999976167,None,135.46318430000247,135.46318430000247,135.46318430000247,135.46318430000247,135.46318430000247,135.46318430000247,135.46318430000247,135.46318430000247,,002,P022,2025_May_13_1748,CategoryLocalizer,2021.2.3,59.92433952745364,
107.0,107.8,1,0.75,Stimuli\ImageFiles-Set2\Objects\Object_Sandal_00001.png,0,0,0,168,168,168,,,,,,,,,,,,,107.01138209999772,0.011382099997717887,None,135.66335750000144,135.66335750000144,135.66335750000144,135.66335750000144,135.66335750000144,135.66335750000144,135.66335750000144,135.66335750000144,,002,P022,2025_May_13_1748,CategoryLocalizer,2021.2.3,59.92433952745364,
107.8,108.0,5,0.0,Stimuli\Blank.png,0,0,0,169,169,169,,,,,,,,,,,,,107.82905290000053,0.029052900000536397,None,136.4640459000002,136.4640459000002,136.4640459000002,136.4640459000002,136.4640459000002,136.4640459000002,136.4640459000002,136.4640459000002,,002,P022,2025_May_13_1748,CategoryLocalizer,2021.2.3,59.92433952745364,
108.0,108.8,1,0.75,Stimuli\ImageFiles-Set2\Objects\Object_Ambulance_00001.png,0,0,0,170,170,170,,,,,,,,,,,,,108.01268019999407,0.012680199994065333,None,136.6642176000023,136.6642176000023,136.6642176000023,136.6642176000023,136.6642176000023,136.6642176000023,136.6642176000023,136.6642176000023,,002,P022,2025_May_13_1748,CategoryLocalizer,2021.2.3,59.92433952745364,
108.8,109.0,5,0.0,Stimuli\Blank.png,0,0,0,171,171,171,,,,,,,,,,,,,108.8305343999964,0.030534399996398065,None,137.46493590000318,137.46493590000318,137.46493590000318,137.46493590000318,137.46493590000318,137.46493590000318,137.46493590000318,137.46493590000318,,002,P022,2025_May_13_1748,CategoryLocalizer,2021.2.3,59.92433952745364,
109.0,109.8,1,0.75,Stimuli\ImageFiles-Set2\Objects\Object_Ambulance_00001.png,1,1,0,172,172,172,,,,,,,,,,,,,109.01267469999584,0.012674699995841365,1,137.6651303000035,137.6651303000035,137.6651303000035,137.6651303000035,137.6651303000035,137.6651303000035,137.6651303000035,137.6651303000035,0.5117660000032629,002,P022,2025_May_13_1748,CategoryLocalizer,2021.2.3,59.92433952745364,
109.8,110.0,5,0.0,Stimuli\Blank.png,0,0,0,173,173,173,,,,,,,,,,,,,109.83241469999484,0.032414699994845364,None,138.48249770000257,138.48249770000257,138.48249770000257,138.48249770000257,138.48249770000257,138.48249770000257,138.48249770000257,138.48249770000257,,002,P022,2025_May_13_1748,CategoryLocalizer,2021.2.3,59.92433952745364,
110.0,110.8,1,0.75,Stimuli\ImageFiles-Set2\Objects\Object_Toast_00001.png,0,0,0,174,174,174,,,,,,,,,,,,,110.01355859999603,0.013558599996031262,None,138.66600769999786,138.66600769999786,138.66600769999786,138.66600769999786,138.66600769999786,138.66600769999786,138.66600769999786,138.66600769999786,,002,P022,2025_May_13_1748,CategoryLocalizer,2021.2.3,59.92433952745364,
110.8,111.0,5,0.0,Stimuli\Blank.png,0,0,0,175,175,175,,,,,,,,,,,,,110.83171319999383,0.031713199993831154,None,139.46671069999866,139.46671069999866,139.46671069999866,139.46671069999866,139.46671069999866,139.46671069999866,139.46671069999866,139.46671069999866,,002,P022,2025_May_13_1748,CategoryLocalizer,2021.2.3,59.92433952745364,
111.0,111.8,1,0.75,Stimuli\ImageFiles-Set2\Objects\Object_Plate_00001.png,0,0,0,176,176,176,,,,,,,,,,,,,111.01436509999621,0.014365099996211939,None,139.650381200001,139.650381200001,139.650381200001,139.650381200001,139.650381200001,139.650381200001,139.650381200001,139.650381200001,,002,P022,2025_May_13_1748,CategoryLocalizer,2021.2.3,59.92433952745364,
111.8,112.0,5,0.0,Stimuli\Blank.png,0,0,0,177,177,177,,,,,,,,,,,,,111.81787529999565,0.017875299995651517,None,140.46759349999775,140.46759349999775,140.46759349999775,140.46759349999775,140.46759349999775,140.46759349999775,140.46759349999775,140.46759349999775,,002,P022,2025_May_13_1748,CategoryLocalizer,2021.2.3,59.92433952745364,
112.0,112.8,1,0.75,Stimuli\ImageFiles-Set2\Objects\Object_Mug_00001.png,0,0,0,178,178,178,,,,,,,,,,,,,112.01588479999918,0.015884799999184906,None,140.66776039999968,140.66776039999968,140.66776039999968,140.66776039999968,140.66776039999968,140.66776039999968,140.66776039999968,140.66776039999968,,002,P022,2025_May_13_1748,CategoryLocalizer,2021.2.3,59.92433952745364,
112.8,113.0,5,0.0,Stimuli\Blank.png,0,0,0,179,179,179,,,,,,,,,,,,,112.81713709999894,0.017137099998947747,None,141.45180889999756,141.45180889999756,141.45180889999756,141.45180889999756,141.45180889999756,141.45180889999756,141.45180889999756,141.45180889999756,,002,P022,2025_May_13_1748,CategoryLocalizer,2021.2.3,59.92433952745364,
113.0,113.8,1,0.75,Stimuli\ImageFiles-Set2\Objects\Object_Dishwasher_00001.png,0,0,0,180,180,180,,,,,,,,,,,,,112.99941629999375,-0.0005837000062456354,None,141.6352784999981,141.6352784999981,141.6352784999981,141.6352784999981,141.6352784999981,141.6352784999981,141.6352784999981,141.6352784999981,,002,P022,2025_May_13_1748,CategoryLocalizer,2021.2.3,59.92433952745364,
113.8,114.0,5,0.0,Stimuli\Blank.png,0,0,0,181,181,181,,,,,,,,,,,,,113.80208319999656,0.002083199996562257,None,142.4526932000008,142.4526932000008,142.4526932000008,142.4526932000008,142.4526932000008,142.4526932000008,142.4526932000008,142.4526932000008,,002,P022,2025_May_13_1748,CategoryLocalizer,2021.2.3,59.92433952745364,
114.0,114.8,1,0.75,Stimuli\ImageFiles-Set2\Objects\Object_ArmChair_00001.png,0,0,0,182,182,182,,,,,,,,,,,,,114.01693559999694,0.016935599996941164,None,142.66954960000294,142.66954960000294,142.66954960000294,142.66954960000294,142.66954960000294,142.66954960000294,142.66954960000294,142.66954960000294,,002,P022,2025_May_13_1748,CategoryLocalizer,2021.2.3,59.92433952745364,
114.8,115.0,5,0.0,Stimuli\Blank.png,0,0,0,183,183,183,,,,,,,,,,,,,114.81773260000045,0.017732600000456955,None,143.45355089999794,143.45355089999794,143.45355089999794,143.45355089999794,143.45355089999794,143.45355089999794,143.45355089999794,143.45355089999794,,002,P022,2025_May_13_1748,CategoryLocalizer,2021.2.3,59.92433952745364,
115.0,115.8,1,0.75,Stimuli\ImageFiles-Set2\Objects\Object_Mailbox_00001.png,1,1,0,184,184,184,,,,,,,,,,,,,115.0011566999965,0.0011566999964998104,None,143.65375569999742,143.65375569999742,143.65375569999742,143.65375569999742,143.65375569999742,143.65375569999742,143.65375569999742,143.65375569999742,,002,P022,2025_May_13_1748,CategoryLocalizer,2021.2.3,59.92433952745364,
115.8,116.0,5,0.0,Stimuli\Blank.png,0,0,0,185,185,185,,,,,,,,,,,,,115.81910269999935,0.019102699999351103,None,144.45444280000083,144.45444280000083,144.45444280000083,144.45444280000083,144.45444280000083,144.45444280000083,144.45444280000083,144.45444280000083,,002,P022,2025_May_13_1748,CategoryLocalizer,2021.2.3,59.92433952745364,
116.0,116.8,1,0.75,Stimuli\ImageFiles-Set2\Objects\Object_Car_00001.png,0,0,0,186,186,186,,,,,,,,,,,,,116.00299549999909,0.0029954999990877695,None,144.65462449999904,144.65462449999904,144.65462449999904,144.65462449999904,144.65462449999904,144.65462449999904,144.65462449999904,144.65462449999904,,002,P022,2025_May_13_1748,CategoryLocalizer,2021.2.3,59.92433952745364,
116.8,117.0,5,0.0,Stimuli\Blank.png,0,0,0,187,187,187,,,,,,,,,,,,,116.82038399999874,0.020383999998742297,None,145.45534670000052,145.45534670000052,145.45534670000052,145.45534670000052,145.45534670000052,145.45534670000052,145.45534670000052,145.45534670000052,,002,P022,2025_May_13_1748,CategoryLocalizer,2021.2.3,59.92433952745364,
117.0,117.8,1,0.75,Stimuli\ImageFiles-Set2\Objects\Object_Car_00001.png,0,0,0,188,188,188,,,,,,,,,,,,,117.00314950000029,0.0031495000002905726,1,145.63881460000266,145.63881460000266,145.63881460000266,145.63881460000266,145.63881460000266,145.63881460000266,145.63881460000266,145.63881460000266,0.38611759999912465,002,P022,2025_May_13_1748,CategoryLocalizer,2021.2.3,59.92433952745364,
117.8,118.0,5,0.0,Stimuli\Blank.png,0,0,0,189,189,189,,,,,,,,,,,,,117.8045889999994,0.0045889999993988795,None,146.43960869999864,146.43960869999864,146.43960869999864,146.43960869999864,146.43960869999864,146.43960869999864,146.43960869999864,146.43960869999864,,002,P022,2025_May_13_1748,CategoryLocalizer,2021.2.3,59.92433952745364,
118.0,118.8,1,0.75,Stimuli\ImageFiles-Set2\Objects\Object_Battery_00001.png,0,0,0,190,190,190,,,,,,,,,,,,,118.00452930000029,0.00452930000028573,None,146.67307070000243,146.67307070000243,146.67307070000243,146.67307070000243,146.67307070000243,146.67307070000243,146.67307070000243,146.67307070000243,,002,P022,2025_May_13_1748,CategoryLocalizer,2021.2.3,59.92433952745364,
118.8,119.0,5,0.0,Stimuli\Blank.png,0,0,0,191,191,191,,,,,,,,,,,,,118.83798319999914,0.03798319999914668,None,147.47376749999967,147.47376749999967,147.47376749999967,147.47376749999967,147.47376749999967,147.47376749999967,147.47376749999967,147.47376749999967,,002,P022,2025_May_13_1748,CategoryLocalizer,2021.2.3,59.92433952745364,
119.0,119.8,1,0.75,Stimuli\ImageFiles-Set2\Objects\Object_Perfume_00001.png,0,0,0,192,192,192,,,,,,,,,,,,,119.007119899994,0.007119899993995205,None,147.6739591000005,147.6739591000005,147.6739591000005,147.6739591000005,147.6739591000005,147.6739591000005,147.6739591000005,147.6739591000005,,002,P022,2025_May_13_1748,CategoryLocalizer,2021.2.3,59.92433952745364,
119.8,120.0,5,0.0,Stimuli\Blank.png,0,0,0,193,193,193,,,,,,,,,,,,,119.83931469999516,0.039314699995159685,None,148.474658799998,148.474658799998,148.474658799998,148.474658799998,148.474658799998,148.474658799998,148.474658799998,148.474658799998,,002,P022,2025_May_13_1748,CategoryLocalizer,2021.2.3,59.92433952745364,
120.0,120.8,4,0.75,Stimuli\ImageFiles-Set2\Scenes\Scenes_093.png,0,0,0,194,194,194,,,,,,,,,,,,,120.00564799999847,0.005647999998473097,None,148.67483820000052,148.67483820000052,148.67483820000052,148.67483820000052,148.67483820000052,148.67483820000052,148.67483820000052,148.67483820000052,,002,P022,2025_May_13_1748,CategoryLocalizer,2021.2.3,59.92433952745364,
120.8,121.0,5,0.0,Stimuli\Blank.png,0,0,0,195,195,195,,,,,,,,,,,,,120.84026219999942,0.04026219999941816,None,149.4755537000019,149.4755537000019,149.4755537000019,149.4755537000019,149.4755537000019,149.4755537000019,149.4755537000019,149.4755537000019,,002,P022,2025_May_13_1748,CategoryLocalizer,2021.2.3,59.92433952745364,
121.0,121.8,4,0.75,Stimuli\ImageFiles-Set2\Scenes\Scenes_093.png,1,1,0,196,196,196,,,,,,,,,,,,,121.0066000999941,0.006600099994102493,1,149.64236089999758,149.64236089999758,149.64236089999758,149.64236089999758,149.64236089999758,149.64236089999758,149.64236089999758,149.64236089999758,0.5156386999951792,002,P022,2025_May_13_1748,CategoryLocalizer,2021.2.3,59.92433952745364,
121.8,122.0,5,0.0,Stimuli\Blank.png,0,0,0,197,197,197,,,,,,,,,,,,,121.80769889999647,0.007698899996469777,None,150.44306420000066,150.44306420000066,150.44306420000066,150.44306420000066,150.44306420000066,150.44306420000066,150.44306420000066,150.44306420000066,,002,P022,2025_May_13_1748,CategoryLocalizer,2021.2.3,59.92433952745364,
122.0,122.8,4,0.75,Stimuli\ImageFiles-Set2\Scenes\Scenes_087.png,0,0,0,198,198,198,,,,,,,,,,,,,122.0080025999996,0.008002599999599624,None,150.659894000004,150.659894000004,150.659894000004,150.659894000004,150.659894000004,150.659894000004,150.659894000004,150.659894000004,,002,P022,2025_May_13_1748,CategoryLocalizer,2021.2.3,59.92433952745364,
122.8,123.0,5,0.0,Stimuli\Blank.png,0,0,0,199,199,199,,,,,,,,,,,,,122.82681909999519,0.02681909999519405,None,151.47732330000144,151.47732330000144,151.47732330000144,151.47732330000144,151.47732330000144,151.47732330000144,151.47732330000144,151.47732330000144,,002,P022,2025_May_13_1748,CategoryLocalizer,2021.2.3,59.92433952745364,
123.0,123.8,4,0.75,Stimuli\ImageFiles-Set2\Scenes\Scenes_068.png,0,0,0,200,200,200,,,,,,,,,,,,,123.02562999999645,0.02562999999645399,None,151.6941827000046,151.6941827000046,151.6941827000046,151.6941827000046,151.6941827000046,151.6941827000046,151.6941827000046,151.6941827000046,,002,P022,2025_May_13_1748,CategoryLocalizer,2021.2.3,59.92433952745364,
123.8,124.0,5,0.0,Stimuli\Blank.png,0,0,0,201,201,201,,,,,,,,,,,,,123.84280310000031,0.042803100000313066,None,152.47820489999867,152.47820489999867,152.47820489999867,152.47820489999867,152.47820489999867,152.47820489999867,152.47820489999867,152.47820489999867,,002,P022,2025_May_13_1748,CategoryLocalizer,2021.2.3,59.92433952745364,
124.0,124.8,4,0.75,Stimuli\ImageFiles-Set2\Scenes\Scenes_095.png,0,0,0,202,202,202,,,,,,,,,,,,,124.01201209999999,0.012012099999992643,None,152.6783981999979,152.6783981999979,152.6783981999979,152.6783981999979,152.6783981999979,152.6783981999979,152.6783981999979,152.6783981999979,,002,P022,2025_May_13_1748,CategoryLocalizer,2021.2.3,59.92433952745364,
124.8,125.0,5,0.0,Stimuli\Blank.png,0,0,0,203,203,203,,,,,,,,,,,,,124.84426359999634,0.04426359999634144,None,153.4791236000019,153.4791236000019,153.4791236000019,153.4791236000019,153.4791236000019,153.4791236000019,153.4791236000019,153.4791236000019,,002,P022,2025_May_13_1748,CategoryLocalizer,2021.2.3,59.92433952745364,
125.0,125.8,4,0.75,Stimuli\ImageFiles-Set2\Scenes\Scenes_118.png,0,0,0,204,204,204,,,,,,,,,,,,,125.01227239999571,0.012272399995708838,None,153.679257900003,153.679257900003,153.679257900003,153.679257900003,153.679257900003,153.679257900003,153.679257900003,153.679257900003,,002,P022,2025_May_13_1748,CategoryLocalizer,2021.2.3,59.92433952745364,
125.8,126.0,5,0.0,Stimuli\Blank.png,0,0,0,205,205,205,,,,,,,,,,,,,125.84404659999564,0.04404659999563876,None,154.47996290000447,154.47996290000447,154.47996290000447,154.47996290000447,154.47996290000447,154.47996290000447,154.47996290000447,154.47996290000447,,002,P022,2025_May_13_1748,CategoryLocalizer,2021.2.3,59.92433952745364,
126.0,126.8,4,0.75,Stimuli\ImageFiles-Set2\Scenes\Scenes_072.png,0,0,0,206,206,206,,,,,,,,,,,,,126.01088009999512,0.010880099995119963,None,154.66346100000374,154.66346100000374,154.66346100000374,154.66346100000374,154.66346100000374,154.66346100000374,154.66346100000374,154.66346100000374,,002,P022,2025_May_13_1748,CategoryLocalizer,2021.2.3,59.92433952745364,
126.8,127.0,5,0.0,Stimuli\Blank.png,0,0,0,207,207,207,,,,,,,,,,,,,126.82831389999774,0.028313899997741032,None,155.4641765999986,155.4641765999986,155.4641765999986,155.4641765999986,155.4641765999986,155.4641765999986,155.4641765999986,155.4641765999986,,002,P022,2025_May_13_1748,CategoryLocalizer,2021.2.3,59.92433952745364,
127.0,127.8,4,0.75,Stimuli\ImageFiles-Set2\Scenes\Scenes_092.png,0,0,0,208,208,208,,,,,,,,,,,,,127.01175220000005,0.011752200000046287,None,155.6476679999978,155.6476679999978,155.6476679999978,155.6476679999978,155.6476679999978,155.6476679999978,155.6476679999978,155.6476679999978,,002,P022,2025_May_13_1748,CategoryLocalizer,2021.2.3,59.92433952745364,
127.8,128.0,5,0.0,Stimuli\Blank.png,0,0,0,209,209,209,,,,,,,,,,,,,127.8128854999959,0.01288549999590316,None,156.44838220000383,156.44838220000383,156.44838220000383,156.44838220000383,156.44838220000383,156.44838220000383,156.44838220000383,156.44838220000383,,002,P022,2025_May_13_1748,CategoryLocalizer,2021.2.3,59.92433952745364,
128.0,128.8,4,0.75,Stimuli\ImageFiles-Set2\Scenes\Scenes_065.png,1,1,0,210,210,210,,,,,,,,,,,,,128.01281779999408,0.012817799994081724,None,156.68192070000077,156.68192070000077,156.68192070000077,156.68192070000077,156.68192070000077,156.68192070000077,156.68192070000077,156.68192070000077,,002,P022,2025_May_13_1748,CategoryLocalizer,2021.2.3,59.92433952745364,
128.8,129.0,5,0.0,Stimuli\Blank.png,0,0,0,211,211,211,,,,,,,,,,,,,128.848049799999,0.04804979999897796,None,157.48263589999988,157.48263589999988,157.48263589999988,157.48263589999988,157.48263589999988,157.48263589999988,157.48263589999988,157.48263589999988,,002,P022,2025_May_13_1748,CategoryLocalizer,2021.2.3,59.92433952745364,
129.0,129.8,4,0.75,Stimuli\ImageFiles-Set2\Scenes\Scenes_086.png,0,0,0,212,212,212,,,,,,,,,,,,,129.01361919999908,0.01361919999908423,None,157.64953349999996,157.64953349999996,157.64953349999996,157.64953349999996,157.64953349999996,157.64953349999996,157.64953349999996,157.64953349999996,,002,P022,2025_May_13_1748,CategoryLocalizer,2021.2.3,59.92433952745364,
129.8,130.0,5,0.0,Stimuli\Blank.png,0,0,0,213,213,213,,,,,,,,,,,,,129.81431489999522,0.014314899995213182,None,158.45014100000117,158.45014100000117,158.45014100000117,158.45014100000117,158.45014100000117,158.45014100000117,158.45014100000117,158.45014100000117,,002,P022,2025_May_13_1748,CategoryLocalizer,2021.2.3,59.92433952745364,
130.0,130.8,4,0.75,Stimuli\ImageFiles-Set2\Scenes\Scenes_086.png,0,0,0,214,214,214,,,,,,,,,,,,,130.0177005000005,0.01770050000050105,1,158.66701679999824,158.66701679999824,158.66701679999824,158.66701679999824,158.66701679999824,158.66701679999824,158.66701679999824,158.66701679999824,0.501924299998791,002,P022,2025_May_13_1748,CategoryLocalizer,2021.2.3,59.92433952745364,
130.8,131.0,5,0.0,Stimuli\Blank.png,0,0,0,215,215,215,,,,,,,,,,,,,130.81798439999693,0.017984399996919365,None,159.46771950000402,159.46771950000402,159.46771950000402,159.46771950000402,159.46771950000402,159.46771950000402,159.46771950000402,159.46771950000402,,002,P022,2025_May_13_1748,CategoryLocalizer,2021.2.3,59.92433952745364,
131.0,131.8,4,0.75,Stimuli\ImageFiles-Set2\Scenes\Scenes_101.png,0,0,0,216,216,216,,,,,,,,,,,,,131.01710349999485,0.01710349999484606,None,159.68456909999804,159.68456909999804,159.68456909999804,159.68456909999804,159.68456909999804,159.68456909999804,159.68456909999804,159.68456909999804,,002,P022,2025_May_13_1748,CategoryLocalizer,2021.2.3,59.92433952745364,
131.8,132.0,5,0.0,Stimuli\Blank.png,0,0,0,217,217,217,,,,,,,,,,,,,131.8330754999988,0.03307549999880166,None,160.4685901999983,160.4685901999983,160.4685901999983,160.4685901999983,160.4685901999983,160.4685901999983,160.4685901999983,160.4685901999983,,002,P022,2025_May_13_1748,CategoryLocalizer,2021.2.3,59.92433952745364,
132.0,132.8,4,0.75,Stimuli\ImageFiles-Set2\Scenes\Scenes_082.png,0,0,0,218,218,218,,,,,,,,,,,,,132.00034039999446,0.0003403999944566749,None,160.6521036999984,160.6521036999984,160.6521036999984,160.6521036999984,160.6521036999984,160.6521036999984,160.6521036999984,160.6521036999984,,002,P022,2025_May_13_1748,CategoryLocalizer,2021.2.3,59.92433952745364,
132.8,133.0,5,0.0,Stimuli\Blank.png,0,0,0,219,219,219,,,,,,,,,,,,,132.8169665999958,0.01696659999578287,None,161.45280050000292,161.45280050000292,161.45280050000292,161.45280050000292,161.45280050000292,161.45280050000292,161.45280050000292,161.45280050000292,,002,P022,2025_May_13_1748,CategoryLocalizer,2021.2.3,59.92433952745364,
133.0,133.8,4,0.75,Stimuli\ImageFiles-Set2\Scenes\Scenes_077.png,0,0,0,220,220,220,,,,,,,,,,,,,133.00305059999664,0.0030505999966408126,None,161.66965999999957,161.66965999999957,161.66965999999957,161.66965999999957,161.66965999999957,161.66965999999957,161.66965999999957,161.66965999999957,,002,P022,2025_May_13_1748,CategoryLocalizer,2021.2.3,59.92433952745364,
133.8,134.0,5,0.0,Stimuli\Blank.png,0,0,0,221,221,221,,,,,,,,,,,,,133.83446220000042,0.03446220000040512,None,162.47036690000095,162.47036690000095,162.47036690000095,162.47036690000095,162.47036690000095,162.47036690000095,162.47036690000095,162.47036690000095,,002,P022,2025_May_13_1748,CategoryLocalizer,2021.2.3,59.92433952745364,
134.0,134.8,4,0.75,Stimuli\ImageFiles-Set2\Scenes\Scenes_096.png,0,0,0,222,222,222,,,,,,,,,,,,,134.0014585999961,0.0014585999961127527,None,162.67055799999798,162.67055799999798,162.67055799999798,162.67055799999798,162.67055799999798,162.67055799999798,162.67055799999798,162.67055799999798,,002,P022,2025_May_13_1748,CategoryLocalizer,2021.2.3,59.92433952745364,
134.8,135.0,5,0.0,Stimuli\Blank.png,0,0,0,223,223,223,,,,,,,,,,,,,134.835556799997,0.035556799996982136,None,163.4713109000004,163.4713109000004,163.4713109000004,163.4713109000004,163.4713109000004,163.4713109000004,163.4713109000004,163.4713109000004,,002,P022,2025_May_13_1748,CategoryLocalizer,2021.2.3,59.92433952745364,
135.0,135.8,4,0.75,Stimuli\ImageFiles-Set2\Scenes\Scenes_069.png,0,0,0,224,224,224,,,,,,,,,,,,,135.00370909999765,0.0037090999976499006,None,163.65475819999847,163.65475819999847,163.65475819999847,163.65475819999847,163.65475819999847,163.65475819999847,163.65475819999847,163.65475819999847,,002,P022,2025_May_13_1748,CategoryLocalizer,2021.2.3,59.92433952745364,
135.8,136.0,5,0.0,Stimuli\Blank.png,0,0,0,225,225,225,,,,,,,,,,,,,135.82181349999883,0.021813499998813768,None,164.47214240000176,164.47214240000176,164.47214240000176,164.47214240000176,164.47214240000176,164.47214240000176,164.47214240000176,164.47214240000176,,002,P022,2025_May_13_1748,CategoryLocalizer,2021.2.3,59.92433952745364,
136.0,136.8,2,0.75,Stimuli\ImageFiles-Set2\Bodies\Bodies_Waving_00006.png,0,0,0,226,226,226,,,,,,,,,,,,,136.02015659999597,0.02015659999597119,None,164.6723411999992,164.6723411999992,164.6723411999992,164.6723411999992,164.6723411999992,164.6723411999992,164.6723411999992,164.6723411999992,,002,P022,2025_May_13_1748,CategoryLocalizer,2021.2.3,59.92433952745364,
136.8,137.0,5,0.0,Stimuli\Blank.png,0,0,0,227,227,227,,,,,,,,,,,,,136.82269459999952,0.022694599999510956,None,165.47301990000415,165.47301990000415,165.47301990000415,165.47301990000415,165.47301990000415,165.47301990000415,165.47301990000415,165.47301990000415,,002,P022,2025_May_13_1748,CategoryLocalizer,2021.2.3,59.92433952745364,
137.0,137.8,2,0.75,Stimuli\ImageFiles-Set2\Bodies\Bodies_SittingFloor_00006.png,0,0,0,228,228,228,,,,,,,,,,,,,137.0212520999994,0.021252099999401253,None,165.67320299999847,165.67320299999847,165.67320299999847,165.67320299999847,165.67320299999847,165.67320299999847,165.67320299999847,165.67320299999847,,002,P022,2025_May_13_1748,CategoryLocalizer,2021.2.3,59.92433952745364,
137.8,138.0,5,0.0,Stimuli\Blank.png,0,0,0,229,229,229,,,,,,,,,,,,,137.8213923000003,0.02139230000028647,None,166.45721890000277,166.45721890000277,166.45721890000277,166.45721890000277,166.45721890000277,166.45721890000277,166.45721890000277,166.45721890000277,,002,P022,2025_May_13_1748,CategoryLocalizer,2021.2.3,59.92433952745364,
138.0,138.8,2,0.75,Stimuli\ImageFiles-Set2\Bodies\Bodies_Crawling_00004.png,0,0,0,230,230,230,,,,,,,,,,,,,138.0068484999938,0.006848499993793666,None,166.65742260000115,166.65742260000115,166.65742260000115,166.65742260000115,166.65742260000115,166.65742260000115,166.65742260000115,166.65742260000115,,002,P022,2025_May_13_1748,CategoryLocalizer,2021.2.3,59.92433952745364,
138.8,139.0,5,0.0,Stimuli\Blank.png,0,0,0,231,231,231,,,,,,,,,,,,,138.82288349999726,0.022883499997249146,None,167.45810650000203,167.45810650000203,167.45810650000203,167.45810650000203,167.45810650000203,167.45810650000203,167.45810650000203,167.45810650000203,,002,P022,2025_May_13_1748,CategoryLocalizer,2021.2.3,59.92433952745364,
139.0,139.8,2,0.75,Stimuli\ImageFiles-Set2\Bodies\Bodies_Lunging_00006.png,0,0,0,232,232,232,,,,,,,,,,,,,139.00795829999697,0.007958299996971618,None,167.6582821999982,167.6582821999982,167.6582821999982,167.6582821999982,167.6582821999982,167.6582821999982,167.6582821999982,167.6582821999982,,002,P022,2025_May_13_1748,CategoryLocalizer,2021.2.3,59.92433952745364,
139.8,140.0,5,0.0,Stimuli\Blank.png,0,0,0,233,233,233,,,,,,,,,,,,,139.8231633999967,0.02316339999669026,None,168.45898989999841,168.45898989999841,168.45898989999841,168.45898989999841,168.45898989999841,168.45898989999841,168.45898989999841,168.45898989999841,,002,P022,2025_May_13_1748,CategoryLocalizer,2021.2.3,59.92433952745364,
140.0,140.8,2,0.75,Stimuli\ImageFiles-Set2\Bodies\Bodies_Pushing_00002.png,0,0,0,234,234,234,,,,,,,,,,,,,140.0071683999995,0.007168399999500252,None,168.6591389000023,168.6591389000023,168.6591389000023,168.6591389000023,168.6591389000023,168.6591389000023,168.6591389000023,168.6591389000023,,002,P022,2025_May_13_1748,CategoryLocalizer,2021.2.3,59.92433952745364,
140.8,141.0,5,0.0,Stimuli\Blank.png,0,0,0,235,235,235,,,,,,,,,,,,,140.8241299999936,0.024129999993590445,None,169.4598741000009,169.4598741000009,169.4598741000009,169.4598741000009,169.4598741000009,169.4598741000009,169.4598741000009,169.4598741000009,,002,P022,2025_May_13_1748,CategoryLocalizer,2021.2.3,59.92433952745364,
141.0,141.8,2,0.75,Stimuli\ImageFiles-Set2\Bodies\Bodies_Waving_00004.png,0,0,0,236,236,236,,,,,,,,,,,,,141.00774169999931,0.007741699999314733,None,169.66010420000384,169.66010420000384,169.66010420000384,169.66010420000384,169.66010420000384,169.66010420000384,169.66010420000384,169.66010420000384,,002,P022,2025_May_13_1748,CategoryLocalizer,2021.2.3,59.92433952745364,
141.8,142.0,5,0.0,Stimuli\Blank.png,0,0,0,237,237,237,,,,,,,,,,,,,141.82724029999372,0.02724029999370714,None,170.47746590000315,170.47746590000315,170.47746590000315,170.47746590000315,170.47746590000315,170.47746590000315,170.47746590000315,170.47746590000315,,002,P022,2025_May_13_1748,CategoryLocalizer,2021.2.3,59.92433952745364,
142.0,142.8,2,0.75,Stimuli\ImageFiles-Set2\Bodies\Bodies_Waving_00004.png,1,1,0,238,238,238,,,,,,,,,,,,,142.02500059999875,0.02500059999874793,1,170.66098500000226,170.66098500000226,170.66098500000226,170.66098500000226,170.66098500000226,170.66098500000226,170.66098500000226,170.66098500000226,0.4722507999977097,002,P022,2025_May_13_1748,CategoryLocalizer,2021.2.3,59.92433952745364,
142.8,143.0,5,0.0,Stimuli\Blank.png,0,0,0,239,239,239,,,,,,,,,,,,,142.80909450000036,0.009094500000344397,None,171.4449620000014,171.4449620000014,171.4449620000014,171.4449620000014,171.4449620000014,171.4449620000014,171.4449620000014,171.4449620000014,,002,P022,2025_May_13_1748,CategoryLocalizer,2021.2.3,59.92433952745364,
143.0,143.8,2,0.75,Stimuli\ImageFiles-Set2\Bodies\Bodies_Walking_00001.png,0,0,0,240,240,240,,,,,,,,,,,,,143.00933019999502,0.009330199995019939,None,171.64514100000088,171.64514100000088,171.64514100000088,171.64514100000088,171.64514100000088,171.64514100000088,171.64514100000088,171.64514100000088,,002,P022,2025_May_13_1748,CategoryLocalizer,2021.2.3,59.92433952745364,
143.8,144.0,5,0.0,Stimuli\Blank.png,0,0,0,241,241,241,,,,,,,,,,,,,143.81176620000042,0.011766200000408844,None,172.46255250000104,172.46255250000104,172.46255250000104,172.46255250000104,172.46255250000104,172.46255250000104,172.46255250000104,172.46255250000104,,002,P022,2025_May_13_1748,CategoryLocalizer,2021.2.3,59.92433952745364,
144.0,144.8,2,0.75,Stimuli\ImageFiles-Set2\Bodies\Bodies_SittingChair_00006.png,0,0,0,242,242,242,,,,,,,,,,,,,144.02769139999873,0.02769139999873005,None,172.69609389999823,172.69609389999823,172.69609389999823,172.69609389999823,172.69609389999823,172.69609389999823,172.69609389999823,172.69609389999823,,002,P022,2025_May_13_1748,CategoryLocalizer,2021.2.3,59.92433952745364,
144.8,145.0,5,0.0,Stimuli\Blank.png,0,0,0,243,243,243,,,,,,,,,,,,,144.84427519999736,0.04427519999734386,None,173.48009920000186,173.48009920000186,173.48009920000186,173.48009920000186,173.48009920000186,173.48009920000186,173.48009920000186,173.48009920000186,,002,P022,2025_May_13_1748,CategoryLocalizer,2021.2.3,59.92433952745364,
145.0,145.8,2,0.75,Stimuli\ImageFiles-Set2\Bodies\Bodies_SittingFloor_00004.png,0,0,0,244,244,244,,,,,,,,,,,,,145.0111412999977,0.011141299997689202,None,173.6469192000004,173.6469192000004,173.6469192000004,173.6469192000004,173.6469192000004,173.6469192000004,173.6469192000004,173.6469192000004,,002,P022,2025_May_13_1748,CategoryLocalizer,2021.2.3,59.92433952745364,
145.8,146.0,5,0.0,Stimuli\Blank.png,0,0,0,245,245,245,,,,,,,,,,,,,145.81268649999402,0.012686499994003952,None,174.44762659999833,174.44762659999833,174.44762659999833,174.44762659999833,174.44762659999833,174.44762659999833,174.44762659999833,174.44762659999833,,002,P022,2025_May_13_1748,CategoryLocalizer,2021.2.3,59.92433952745364,
146.0,146.8,2,0.75,Stimuli\ImageFiles-Set2\Bodies\Bodies_Punching_00002.png,0,0,0,246,246,246,,,,,,,,,,,,,146.01203859999805,0.012038599998049904,None,174.66449909999938,174.66449909999938,174.66449909999938,174.66449909999938,174.66449909999938,174.66449909999938,174.66449909999938,174.66449909999938,,002,P022,2025_May_13_1748,CategoryLocalizer,2021.2.3,59.92433952745364,
146.8,147.0,5,0.0,Stimuli\Blank.png,0,0,0,247,247,247,,,,,,,,,,,,,146.82926829999633,0.029268299996317637,None,175.4651759000044,175.4651759000044,175.4651759000044,175.4651759000044,175.4651759000044,175.4651759000044,175.4651759000044,175.4651759000044,,002,P022,2025_May_13_1748,CategoryLocalizer,2021.2.3,59.92433952745364,
147.0,147.8,2,0.75,Stimuli\ImageFiles-Set2\Bodies\Bodies_SittingFloor_00001.png,0,0,0,248,248,248,,,,,,,,,,,,,147.01326749999862,0.013267499998619314,None,175.6653931000037,175.6653931000037,175.6653931000037,175.6653931000037,175.6653931000037,175.6653931000037,175.6653931000037,175.6653931000037,,002,P022,2025_May_13_1748,CategoryLocalizer,2021.2.3,59.92433952745364,
147.8,148.0,5,0.0,Stimuli\Blank.png,0,0,0,249,249,249,,,,,,,,,,,,,147.8309650999945,0.030965099994489265,None,176.46610979999969,176.46610979999969,176.46610979999969,176.46610979999969,176.46610979999969,176.46610979999969,176.46610979999969,176.46610979999969,,002,P022,2025_May_13_1748,CategoryLocalizer,2021.2.3,59.92433952745364,
148.0,148.8,2,0.75,Stimuli\ImageFiles-Set2\Bodies\Bodies_Jumping_00001.png,1,1,0,250,250,250,,,,,,,,,,,,,148.0136538000006,0.013653800000611227,None,176.66629210000247,176.66629210000247,176.66629210000247,176.66629210000247,176.66629210000247,176.66629210000247,176.66629210000247,176.66629210000247,,002,P022,2025_May_13_1748,CategoryLocalizer,2021.2.3,59.92433952745364,
148.8,149.0,5,0.0,Stimuli\Blank.png,0,0,0,251,251,251,,,,,,,,,,,,,148.8316651999994,0.0316651999993951,None,177.46695349999936,177.46695349999936,177.46695349999936,177.46695349999936,177.46695349999936,177.46695349999936,177.46695349999936,177.46695349999936,,002,P022,2025_May_13_1748,CategoryLocalizer,2021.2.3,59.92433952745364,
149.0,149.8,2,0.75,Stimuli\ImageFiles-Set2\Bodies\Bodies_PushUp_00001.png,0,0,0,252,252,252,,,,,,,,,,,,,149.01529319999827,0.015293199998268392,None,177.66713490000257,177.66713490000257,177.66713490000257,177.66713490000257,177.66713490000257,177.66713490000257,177.66713490000257,177.66713490000257,,002,P022,2025_May_13_1748,CategoryLocalizer,2021.2.3,59.92433952745364,
149.8,150.0,5,0.0,Stimuli\Blank.png,0,0,0,253,253,253,,,,,,,,,,,,,149.81784939999488,0.017849399994872783,None,178.4678528000004,178.4678528000004,178.4678528000004,178.4678528000004,178.4678528000004,178.4678528000004,178.4678528000004,178.4678528000004,,002,P022,2025_May_13_1748,CategoryLocalizer,2021.2.3,59.92433952745364,
150.0,150.8,2,0.75,Stimuli\ImageFiles-Set2\Bodies\Bodies_PushUp_00001.png,0,0,0,254,254,254,,,,,,,,,,,,,150.01819689999684,0.0181968999968376,1,178.66802930000267,178.66802930000267,178.66802930000267,178.66802930000267,178.66802930000267,178.66802930000267,178.66802930000267,178.66802930000267,0.6649963999952888,002,P022,2025_May_13_1748,CategoryLocalizer,2021.2.3,59.92433952745364,
150.8,151.0,5,0.0,Stimuli\Blank.png,0,0,0,255,255,255,,,,,,,,,,,,,150.81739240000024,0.01739240000023301,None,179.45204620000004,179.45204620000004,179.45204620000004,179.45204620000004,179.45204620000004,179.45204620000004,179.45204620000004,179.45204620000004,,002,P022,2025_May_13_1748,CategoryLocalizer,2021.2.3,59.92433952745364,
151.0,151.8,2,0.75,Stimuli\ImageFiles-Set2\Bodies\Bodies_Crawling_00002.png,0,0,0,256,256,256,,,,,,,,,,,,,151.00167999999394,0.0016799999939394183,None,179.65222540000104,179.65222540000104,179.65222540000104,179.65222540000104,179.65222540000104,179.65222540000104,179.65222540000104,179.65222540000104,,002,P022,2025_May_13_1748,CategoryLocalizer,2021.2.3,59.92433952745364,
151.8,152.0,5,0.0,Stimuli\Blank.png,0,0,0,257,257,257,,,,,,,,,,,,,151.81789169999684,0.017891699996823718,None,180.45293200000015,180.45293200000015,180.45293200000015,180.45293200000015,180.45293200000015,180.45293200000015,180.45293200000015,180.45293200000015,,002,P022,2025_May_13_1748,CategoryLocalizer,2021.2.3,59.92433952745364,
152.0,164.0,0,0.0,Stimuli\Blank.png,0,0,0,258,258,258,,,,,,,,,,,,,152.002989099994,0.0029890999940107577,None,180.65313330000208,180.65313330000208,180.65313330000208,180.65313330000208,180.65313330000208,180.65313330000208,180.65313330000208,180.65313330000208,,002,P022,2025_May_13_1748,CategoryLocalizer,2021.2.3,59.92433952745364,
164.0,164.8,4,0.75,Stimuli\ImageFiles-Set2\Scenes\Scenes_076.png,0,0,0,259,259,259,,,,,,,,,,,,,164.02790099999402,0.027900999994017184,None,192.68042579999747,192.68042579999747,192.68042579999747,192.68042579999747,192.68042579999747,192.68042579999747,192.68042579999747,192.68042579999747,,002,P022,2025_May_13_1748,CategoryLocalizer,2021.2.3,59.92433952745364,
164.8,165.0,5,0.0,Stimuli\Blank.png,0,0,0,260,260,260,,,,,,,,,,,,,164.82935010000074,0.029350100000726798,None,193.464424400001,193.464424400001,193.464424400001,193.464424400001,193.464424400001,193.464424400001,193.464424400001,193.464424400001,,002,P022,2025_May_13_1748,CategoryLocalizer,2021.2.3,59.92433952745364,
165.0,165.8,4,0.75,Stimuli\ImageFiles-Set2\Scenes\Scenes_083.png,0,0,0,261,261,261,,,,,,,,,,,,,165.01268329999584,0.01268329999584239,None,193.68129310000222,193.68129310000222,193.68129310000222,193.68129310000222,193.68129310000222,193.68129310000222,193.68129310000222,193.68129310000222,,002,P022,2025_May_13_1748,CategoryLocalizer,2021.2.3,59.92433952745364,
165.8,166.0,5,0.0,Stimuli\Blank.png,0,0,0,262,262,262,,,,,,,,,,,,,165.84735720000026,0.04735720000024912,None,194.48199970000132,194.48199970000132,194.48199970000132,194.48199970000132,194.48199970000132,194.48199970000132,194.48199970000132,194.48199970000132,,002,P022,2025_May_13_1748,CategoryLocalizer,2021.2.3,59.92433952745364,
166.0,166.8,4,0.75,Stimuli\ImageFiles-Set2\Scenes\Scenes_089.png,0,0,0,263,263,263,,,,,,,,,,,,,166.01366929999494,0.013669299994944595,None,194.66549300000042,194.66549300000042,194.66549300000042,194.66549300000042,194.66549300000042,194.66549300000042,194.66549300000042,194.66549300000042,,002,P022,2025_May_13_1748,CategoryLocalizer,2021.2.3,59.92433952745364,
166.8,167.0,5,0.0,Stimuli\Blank.png,0,0,0,264,264,264,,,,,,,,,,,,,166.8334343999959,0.03343439999588327,None,195.48292200000287,195.48292200000287,195.48292200000287,195.48292200000287,195.48292200000287,195.48292200000287,195.48292200000287,195.48292200000287,,002,P022,2025_May_13_1748,CategoryLocalizer,2021.2.3,59.92433952745364,
167.0,167.8,4,0.75,Stimuli\ImageFiles-Set2\Scenes\Scenes_090.png,0,0,0,265,265,265,,,,,,,,,,,,,167.0137773999959,0.013777399995888118,None,195.6830945000038,195.6830945000038,195.6830945000038,195.6830945000038,195.6830945000038,195.6830945000038,195.6830945000038,195.6830945000038,,002,P022,2025_May_13_1748,CategoryLocalizer,2021.2.3,59.92433952745364,
167.8,168.0,5,0.0,Stimuli\Blank.png,0,0,0,266,266,266,,,,,,,,,,,,,167.84852449999744,0.04852449999742703,None,196.48376799999824,196.48376799999824,196.48376799999824,196.48376799999824,196.48376799999824,196.48376799999824,196.48376799999824,196.48376799999824,,002,P022,2025_May_13_1748,CategoryLocalizer,2021.2.3,59.92433952745364,
168.0,168.8,4,0.75,Stimuli\ImageFiles-Set2\Scenes\Scenes_090.png,1,1,0,267,267,267,,,,,,,,,,,,,168.01472749999812,0.0147274999981164,1,196.65057669999806,196.65057669999806,196.65057669999806,196.65057669999806,196.65057669999806,196.65057669999806,196.65057669999806,196.65057669999806,0.4233086000022013,002,P022,2025_May_13_1748,CategoryLocalizer,2021.2.3,59.92433952745364,
168.8,169.0,5,0.0,Stimuli\Blank.png,0,0,0,268,268,268,,,,,,,,,,,,,168.8158631999977,0.01586319999768193,None,197.4512851000036,197.4512851000036,197.4512851000036,197.4512851000036,197.4512851000036,197.4512851000036,197.4512851000036,197.4512851000036,,002,P022,2025_May_13_1748,CategoryLocalizer,2021.2.3,59.92433952745364,
169.0,169.8,4,0.75,Stimuli\ImageFiles-Set2\Scenes\Scenes_084.png,0,0,0,269,269,269,,,,,,,,,,,,,168.99966270000004,-0.0003372999999555759,None,197.6515098000018,197.6515098000018,197.6515098000018,197.6515098000018,197.6515098000018,197.6515098000018,197.6515098000018,197.6515098000018,,002,P022,2025_May_13_1748,CategoryLocalizer,2021.2.3,59.92433952745364,
169.8,170.0,5,0.0,Stimuli\Blank.png,0,0,0,270,270,270,,,,,,,,,,,,,169.816951599998,0.016951599997980793,None,198.45217570000386,198.45217570000386,198.45217570000386,198.45217570000386,198.45217570000386,198.45217570000386,198.45217570000386,198.45217570000386,,002,P022,2025_May_13_1748,CategoryLocalizer,2021.2.3,59.92433952745364,
170.0,170.8,4,0.75,Stimuli\ImageFiles-Set2\Scenes\Scenes_062.png,0,0,0,271,271,271,,,,,,,,,,,,,170.00038729999505,0.00038729999505449086,None,198.65235750000284,198.65235750000284,198.65235750000284,198.65235750000284,198.65235750000284,198.65235750000284,198.65235750000284,198.65235750000284,,002,P022,2025_May_13_1748,CategoryLocalizer,2021.2.3,59.92433952745364,
170.8,171.0,5,0.0,Stimuli\Blank.png,0,0,0,272,272,272,,,,,,,,,,,,,170.8186360999971,0.0186360999970816,None,199.45306169999822,199.45306169999822,199.45306169999822,199.45306169999822,199.45306169999822,199.45306169999822,199.45306169999822,199.45306169999822,,002,P022,2025_May_13_1748,CategoryLocalizer,2021.2.3,59.92433952745364,
171.0,171.8,4,0.75,Stimuli\ImageFiles-Set2\Scenes\Scenes_078.png,0,0,0,273,273,273,,,,,,,,,,,,,171.00170519999665,0.0017051999966497533,None,199.66988310000306,199.66988310000306,199.66988310000306,199.66988310000306,199.66988310000306,199.66988310000306,199.66988310000306,199.66988310000306,,002,P022,2025_May_13_1748,CategoryLocalizer,2021.2.3,59.92433952745364,
171.8,172.0,5,0.0,Stimuli\Blank.png,0,0,0,274,274,274,,,,,,,,,,,,,171.83593579999433,0.03593579999431995,None,200.47065580000344,200.47065580000344,200.47065580000344,200.47065580000344,200.47065580000344,200.47065580000344,200.47065580000344,200.47065580000344,,002,P022,2025_May_13_1748,CategoryLocalizer,2021.2.3,59.92433952745364,
172.0,172.8,4,0.75,Stimuli\ImageFiles-Set2\Scenes\Scenes_066.png,0,0,0,275,275,275,,,,,,,,,,,,,172.00274630000058,0.002746300000580959,None,200.67080440000427,200.67080440000427,200.67080440000427,200.67080440000427,200.67080440000427,200.67080440000427,200.67080440000427,200.67080440000427,,002,P022,2025_May_13_1748,CategoryLocalizer,2021.2.3,59.92433952745364,
172.8,173.0,5,0.0,Stimuli\Blank.png,0,0,0,276,276,276,,,,,,,,,,,,,172.83577899999364,0.03577899999362444,None,201.47157690000313,201.47157690000313,201.47157690000313,201.47157690000313,201.47157690000313,201.47157690000313,201.47157690000313,201.47157690000313,,002,P022,2025_May_13_1748,CategoryLocalizer,2021.2.3,59.92433952745364,
173.0,173.8,4,0.75,Stimuli\ImageFiles-Set2\Scenes\Scenes_070.png,0,0,0,277,277,277,,,,,,,,,,,,,173.00318479999987,0.003184799999871757,None,201.67168970000057,201.67168970000057,201.67168970000057,201.67168970000057,201.67168970000057,201.67168970000057,201.67168970000057,201.67168970000057,,002,P022,2025_May_13_1748,CategoryLocalizer,2021.2.3,59.92433952745364,
173.8,174.0,5,0.0,Stimuli\Blank.png,0,0,0,278,278,278,,,,,,,,,,,,,173.83804839999357,0.03804839999355636,None,202.47240299999976,202.47240299999976,202.47240299999976,202.47240299999976,202.47240299999976,202.47240299999976,202.47240299999976,202.47240299999976,,002,P022,2025_May_13_1748,CategoryLocalizer,2021.2.3,59.92433952745364,
174.0,174.8,4,0.75,Stimuli\ImageFiles-Set2\Scenes\Scenes_100.png,0,0,0,279,279,279,,,,,,,,,,,,,174.00354320000042,0.0035432000004220754,None,202.6558944999997,202.6558944999997,202.6558944999997,202.6558944999997,202.6558944999997,202.6558944999997,202.6558944999997,202.6558944999997,,002,P022,2025_May_13_1748,CategoryLocalizer,2021.2.3,59.92433952745364,
174.8,175.0,5,0.0,Stimuli\Blank.png,0,0,0,280,280,280,,,,,,,,,,,,,174.82115689999773,0.021156899997720302,None,203.4566474000021,203.4566474000021,203.4566474000021,203.4566474000021,203.4566474000021,203.4566474000021,203.4566474000021,203.4566474000021,,002,P022,2025_May_13_1748,CategoryLocalizer,2021.2.3,59.92433952745364,
175.0,175.8,4,0.75,Stimuli\ImageFiles-Set2\Scenes\Scenes_098.png,0,0,0,281,281,281,,,,,,,,,,,,,175.0041870999994,0.004187099999398924,None,203.67346240000188,203.67346240000188,203.67346240000188,203.67346240000188,203.67346240000188,203.67346240000188,203.67346240000188,203.67346240000188,,002,P022,2025_May_13_1748,CategoryLocalizer,2021.2.3,59.92433952745364,
175.8,176.0,5,0.0,Stimuli\Blank.png,0,0,0,282,282,282,,,,,,,,,,,,,175.83917669999937,0.039176699999359244,None,204.474157800003,204.474157800003,204.474157800003,204.474157800003,204.474157800003,204.474157800003,204.474157800003,204.474157800003,,002,P022,2025_May_13_1748,CategoryLocalizer,2021.2.3,59.92433952745364,
176.0,176.8,4,0.75,Stimuli\ImageFiles-Set2\Scenes\Scenes_119.png,0,0,0,283,283,283,,,,,,,,,,,,,176.00579019999714,0.005790199997136369,None,204.65766550000262,204.65766550000262,204.65766550000262,204.65766550000262,204.65766550000262,204.65766550000262,204.65766550000262,204.65766550000262,,002,P022,2025_May_13_1748,CategoryLocalizer,2021.2.3,59.92433952745364,
176.8,177.0,5,0.0,Stimuli\Blank.png,0,0,0,284,284,284,,,,,,,,,,,,,176.82295159999921,0.022951599999203154,None,205.4583683000019,205.4583683000019,205.4583683000019,205.4583683000019,205.4583683000019,205.4583683000019,205.4583683000019,205.4583683000019,,002,P022,2025_May_13_1748,CategoryLocalizer,2021.2.3,59.92433952745364,
177.0,177.8,4,0.75,Stimuli\ImageFiles-Set2\Scenes\Scenes_107.png,0,0,0,285,285,285,,,,,,,,,,,,,177.00677109999378,0.006771099993784446,None,205.67523050000455,205.67523050000455,205.67523050000455,205.67523050000455,205.67523050000455,205.67523050000455,205.67523050000455,205.67523050000455,,002,P022,2025_May_13_1748,CategoryLocalizer,2021.2.3,59.92433952745364,
