eventStartTime,eventEndTime,eventCond,imSize,imFile,responseEvent,fixRespStart,fixRespEnd,Events.thisRepN,Events.thisTrialN,Events.thisN,Events.thisIndex,Instructions.started,Instructions.stopped,participantReadyResponse.keys,participantReadyResponse.rt,participantReadyResponse.started,participantReadyResponse.stopped,startWaitforTrigger,triggerResponse.keys,triggerResponse.rt,triggerResponse.started,triggerResponse.stopped,globalTimer,actualStartTime,startTimingDiff,participantResponse.keys,participantResponse.rt,participantResponse.started,participantResponse.stopped,image.started,image.stopped,fixationOutside.started,fixationOutside.stopped,fixationResponse.started,fixationResponse.stopped,fixationInside.started,fixationInside.stopped,session,participant,date,expName,psychopyVersion,frameRate,
,,,,,,,,,,,,12.267086400002881,None,3,1.7323776999983238,12.267086400002881,None,,,,,,,,,,,,,,,,,,,,,008,P001,2025_Jan_17_1922,ConditionRich,2021.2.3,59.94179651637693,
,,,,,,,,,,,,,,,,,,14.014914699997462,5,13.035376800005906,14.028201200002513,None,,,,,,,,,,,,,,,,008,P001,2025_Jan_17_1922,ConditionRich,2021.2.3,59.94179651637693,
0.0,4.0,0,0.0,Stimuli/Blank.png,0,0,0.0,0,0,0,0,,,,,,,,,,,,27.07702569999674,0.06242290000227513,0.06242290000227513,5,1.9072155000030762,27.156475800002227,None,27.156475800002227,None,27.156475800002227,None,27.156475800002227,27.156475800002227,27.156475800002227,None,008,P001,2025_Jan_17_1922,ConditionRich,2021.2.3,59.94179651637693,
4.0,4.75,5,0.75,Stimuli/P001/sun_apwzcrxhvvnrexjh.jpg,0,0,0.0,0,1,1,1,,,,,,,,,,,,,4.007313300004171,0.007313300004170742,None,,31.11027849999664,31.11027849999664,31.11027849999664,31.11027849999664,31.11027849999664,31.11027849999664,31.11027849999664,31.11027849999664,31.11027849999664,31.11027849999664,008,P001,2025_Jan_17_1922,ConditionRich,2021.2.3,59.94179651637693,
4.75,5.0,41,0.0,Stimuli/Blank.png,0,0,0.0,0,2,2,2,,,,,,,,,,,,,4.769329900002049,0.019329900002048817,None,,31.860945000000356,31.860945000000356,31.860945000000356,31.860945000000356,31.860945000000356,31.860945000000356,31.860945000000356,31.860945000000356,31.860945000000356,31.860945000000356,008,P001,2025_Jan_17_1922,ConditionRich,2021.2.3,59.94179651637693,
5.0,5.75,5,0.75,Stimuli/P001/sun_apwzcrxhvvnrexjh.jpg,0,0,0.0,0,3,3,3,,,,,,,,,,,,,5.002527200005716,0.002527200005715713,None,,32.09418149999692,32.09418149999692,32.09418149999692,32.09418149999692,32.09418149999692,32.09418149999692,32.09418149999692,32.09418149999692,32.09418149999692,32.09418149999692,008,P001,2025_Jan_17_1922,ConditionRich,2021.2.3,59.94179651637693,
5.75,6.0,41,0.0,Stimuli/Blank.png,0,0,0.0,0,4,4,4,,,,,,,,,,,,,5.753497600002447,0.003497600002447143,None,,32.84484569999768,32.84484569999768,32.84484569999768,32.84484569999768,32.84484569999768,32.84484569999768,32.84484569999768,32.84484569999768,32.84484569999768,32.84484569999768,008,P001,2025_Jan_17_1922,ConditionRich,2021.2.3,59.94179651637693,
6.0,6.75,5,0.75,Stimuli/P001/sun_apwzcrxhvvnrexjh.jpg,0,0,0.0,0,5,5,5,,,,,,,,,,,,,6.004332100004831,0.004332100004830863,None,,33.11176449999766,33.11176449999766,33.11176449999766,33.11176449999766,33.11176449999766,33.11176449999766,33.11176449999766,33.11176449999766,33.11176449999766,33.11176449999766,008,P001,2025_Jan_17_1922,ConditionRich,2021.2.3,59.94179651637693,
6.75,7.0,41,0.0,Stimuli/Blank.png,0,0,0.0,0,6,6,6,,,,,,,,,,,,,6.773196900001494,0.023196900001494214,None,,33.8790955000004,33.8790955000004,33.8790955000004,33.8790955000004,33.8790955000004,33.8790955000004,33.8790955000004,33.8790955000004,33.8790955000004,33.8790955000004,008,P001,2025_Jan_17_1922,ConditionRich,2021.2.3,59.94179651637693,
7.0,7.75,5,0.75,Stimuli/P001/sun_apwzcrxhvvnrexjh.jpg,1,0,0.75,0,7,7,7,,,,,,,,,,,,,7.0233217000059085,0.023321700005908497,3,0.6280789000011282,34.129331700001785,34.129331700001785,34.129331700001785,34.129331700001785,34.129331700001785,34.129331700001785,34.129331700001785,None,34.129331700001785,34.129331700001785,008,P001,2025_Jan_17_1922,ConditionRich,2021.2.3,59.94179651637693,
7.75,8.0,41,0.0,Stimuli/Blank.png,0,0,0.0,0,8,8,8,,,,,,,,,,,,,7.773045900001307,0.023045900001307018,5,0.20016819999727886,34.86330360000284,34.86330360000284,34.86330360000284,34.86330360000284,34.86330360000284,34.86330360000284,34.86330360000284,34.86330360000284,34.86330360000284,34.86330360000284,008,P001,2025_Jan_17_1922,ConditionRich,2021.2.3,59.94179651637693,
8.0,8.75,32,0.75,Stimuli/P001/things_oyster_01b.jpg,0,0,0.0,0,9,9,9,,,,,,,,,,,,,8.005202200001804,0.005202200001804158,None,,35.09684140000172,35.09684140000172,35.09684140000172,35.09684140000172,35.09684140000172,35.09684140000172,35.09684140000172,35.09684140000172,35.09684140000172,35.09684140000172,008,P001,2025_Jan_17_1922,ConditionRich,2021.2.3,59.94179651637693,
8.75,9.0,41,0.0,Stimuli/Blank.png,0,0,0.0,0,10,10,10,,,,,,,,,,,,,8.759067500002857,0.009067500002856832,None,,35.86420150000049,35.86420150000049,35.86420150000049,35.86420150000049,35.86420150000049,35.86420150000049,35.86420150000049,35.86420150000049,35.86420150000049,35.86420150000049,008,P001,2025_Jan_17_1922,ConditionRich,2021.2.3,59.94179651637693,
9.0,9.75,32,0.75,Stimuli/P001/things_oyster_01b.jpg,0,0,0.0,0,11,11,11,,,,,,,,,,,,,9.023345100002189,0.0233451000021887,None,,36.11439770000288,36.11439770000288,36.11439770000288,36.11439770000288,36.11439770000288,36.11439770000288,36.11439770000288,36.11439770000288,36.11439770000288,36.11439770000288,008,P001,2025_Jan_17_1922,ConditionRich,2021.2.3,59.94179651637693,
9.75,10.0,41,0.0,Stimuli/Blank.png,0,0,0.0,0,12,12,12,,,,,,,,,,,,,9.757441000001563,0.007441000001563225,5,0.21499020000192104,36.848386099998606,36.848386099998606,36.848386099998606,36.848386099998606,36.848386099998606,36.848386099998606,36.848386099998606,36.848386099998606,36.848386099998606,36.848386099998606,008,P001,2025_Jan_17_1922,ConditionRich,2021.2.3,59.94179651637693,
10.0,10.75,32,0.75,Stimuli/P001/things_oyster_01b.jpg,0,0,0.0,0,13,13,13,,,,,,,,,,,,,10.007458200001565,0.007458200001565274,None,,37.098602799997025,37.098602799997025,37.098602799997025,37.098602799997025,37.098602799997025,37.098602799997025,37.098602799997025,37.098602799997025,37.098602799997025,37.098602799997025,008,P001,2025_Jan_17_1922,ConditionRich,2021.2.3,59.94179651637693,
10.75,11.0,41,0.0,Stimuli/Blank.png,0,0,0.0,0,14,14,14,,,,,,,,,,,,,10.758066800000961,0.008066800000960939,None,,37.84926299999643,37.84926299999643,37.84926299999643,37.84926299999643,37.84926299999643,37.84926299999643,37.84926299999643,37.84926299999643,37.84926299999643,37.84926299999643,008,P001,2025_Jan_17_1922,ConditionRich,2021.2.3,59.94179651637693,
11.0,11.75,32,0.75,Stimuli/P001/things_oyster_01b.jpg,0,0,0.0,0,15,15,15,,,,,,,,,,,,,11.008658300001116,0.008658300001116004,None,,38.099484200000006,38.099484200000006,38.099484200000006,38.099484200000006,38.099484200000006,38.099484200000006,38.099484200000006,38.099484200000006,38.099484200000006,38.099484200000006,008,P001,2025_Jan_17_1922,ConditionRich,2021.2.3,59.94179651637693,
11.75,12.0,41,0.0,Stimuli/Blank.png,0,0,0.0,0,16,16,16,,,,,,,,,,,,,11.759291000002122,0.009291000002122018,5,0.2133936999962316,38.85011929999746,38.85011929999746,38.85011929999746,38.85011929999746,38.85011929999746,38.85011929999746,38.85011929999746,38.85011929999746,38.85011929999746,38.85011929999746,008,P001,2025_Jan_17_1922,ConditionRich,2021.2.3,59.94179651637693,
12.0,12.75,6,0.75,Stimuli/P001/sun_aqbaaqeojrexbmcr.jpg,1,0,0.75,0,17,17,17,,,,,,,,,,,,,12.008854800005793,0.00885480000579264,3,0.38395499999751337,39.100377700000536,39.100377700000536,39.100377700000536,39.100377700000536,39.100377700000536,39.100377700000536,39.100377700000536,39.834348399999726,39.100377700000536,39.100377700000536,008,P001,2025_Jan_17_1922,ConditionRich,2021.2.3,59.94179651637693,
12.75,13.0,41,0.0,Stimuli/Blank.png,0,0,0.0,0,18,18,18,,,,,,,,,,,,,12.759645900005125,0.00964590000512544,None,,39.851045099996554,39.851045099996554,39.851045099996554,39.851045099996554,39.851045099996554,39.851045099996554,39.851045099996554,39.851045099996554,39.851045099996554,39.851045099996554,008,P001,2025_Jan_17_1922,ConditionRich,2021.2.3,59.94179651637693,
13.0,13.75,6,0.75,Stimuli/P001/sun_aqbaaqeojrexbmcr.jpg,0,0,0.0,0,19,19,19,,,,,,,,,,,,,13.010353000005125,0.010353000005125068,None,,40.10124129999895,40.10124129999895,40.10124129999895,40.10124129999895,40.10124129999895,40.10124129999895,40.10124129999895,40.10124129999895,40.10124129999895,40.10124129999895,008,P001,2025_Jan_17_1922,ConditionRich,2021.2.3,59.94179651637693,
13.75,14.0,41,0.0,Stimuli/Blank.png,0,0,0.0,0,20,20,20,,,,,,,,,,,,,13.763229900003353,0.013229900003352668,5,0.19482460000290303,40.8686050000033,40.8686050000033,40.8686050000033,40.8686050000033,40.8686050000033,40.8686050000033,40.8686050000033,40.8686050000033,40.8686050000033,40.8686050000033,008,P001,2025_Jan_17_1922,ConditionRich,2021.2.3,59.94179651637693,
14.0,14.75,6,0.75,Stimuli/P001/sun_aqbaaqeojrexbmcr.jpg,0,0,0.0,0,21,21,21,,,,,,,,,,,,,14.027608800002781,0.02760880000278121,None,,41.11879919999774,41.11879919999774,41.11879919999774,41.11879919999774,41.11879919999774,41.11879919999774,41.11879919999774,41.11879919999774,41.11879919999774,41.11879919999774,008,P001,2025_Jan_17_1922,ConditionRich,2021.2.3,59.94179651637693,
14.75,15.0,41,0.0,Stimuli/Blank.png,0,0,0.0,0,22,22,22,,,,,,,,,,,,,14.761174800005392,0.011174800005392171,None,,41.85285440000007,41.85285440000007,41.85285440000007,41.85285440000007,41.85285440000007,41.85285440000007,41.85285440000007,41.85285440000007,41.85285440000007,41.85285440000007,008,P001,2025_Jan_17_1922,ConditionRich,2021.2.3,59.94179651637693,
15.0,15.75,6,0.75,Stimuli/P001/sun_aqbaaqeojrexbmcr.jpg,0,0,0.0,0,23,23,23,,,,,,,,,,,,,15.0138145000019,0.013814500001899432,None,,42.11971330000233,42.11971330000233,42.11971330000233,42.11971330000233,42.11971330000233,42.11971330000233,42.11971330000233,42.11971330000233,42.11971330000233,42.11971330000233,008,P001,2025_Jan_17_1922,ConditionRich,2021.2.3,59.94179651637693,
15.75,16.0,41,0.0,Stimuli/Blank.png,0,0,0.0,0,24,24,24,,,,,,,,,,,,,15.779427200002829,0.029427200002828613,5,0.1762693999990006,42.88714130000153,42.88714130000153,42.88714130000153,42.88714130000153,42.88714130000153,42.88714130000153,42.88714130000153,42.88714130000153,42.88714130000153,42.88714130000153,008,P001,2025_Jan_17_1922,ConditionRich,2021.2.3,59.94179651637693,
16.0,16.75,28,0.75,Stimuli/P001/things_girl_01b.jpg,0,0,0.0,0,25,25,25,,,,,,,,,,,,,16.029545400000643,0.029545400000642985,None,,43.12058909999905,43.12058909999905,43.12058909999905,43.12058909999905,43.12058909999905,43.12058909999905,43.12058909999905,43.12058909999905,43.12058909999905,43.12058909999905,008,P001,2025_Jan_17_1922,ConditionRich,2021.2.3,59.94179651637693,
16.75,17.0,41,0.0,Stimuli/Blank.png,0,0,0.0,0,26,26,26,,,,,,,,,,,,,16.763955800000986,0.013955800000985619,None,,43.871292099996936,43.871292099996936,43.871292099996936,43.871292099996936,43.871292099996936,43.871292099996936,43.871292099996936,43.871292099996936,43.871292099996936,43.871292099996936,008,P001,2025_Jan_17_1922,ConditionRich,2021.2.3,59.94179651637693,
17.0,17.75,28,0.75,Stimuli/P001/things_girl_01b.jpg,0,0,0.0,0,27,27,27,,,,,,,,,,,,,17.0306178000028,0.030617800002801232,None,,44.13816019999649,44.13816019999649,44.13816019999649,44.13816019999649,44.13816019999649,44.13816019999649,44.13816019999649,44.13816019999649,44.13816019999649,44.13816019999649,008,P001,2025_Jan_17_1922,ConditionRich,2021.2.3,59.94179651637693,
17.75,18.0,41,0.0,Stimuli/Blank.png,0,0,0.0,0,28,28,28,,,,,,,,,,,,,17.783010200000717,0.033010200000717305,5,0.17464009999821428,44.88882469999953,44.88882469999953,44.88882469999953,44.88882469999953,44.88882469999953,44.88882469999953,44.88882469999953,44.88882469999953,44.88882469999953,44.88882469999953,008,P001,2025_Jan_17_1922,ConditionRich,2021.2.3,59.94179651637693,
18.0,18.75,28,0.75,Stimuli/P001/things_girl_01b.jpg,0,0,0.0,0,29,29,29,,,,,,,,,,,,,18.01420340000186,0.014203400001861155,None,,45.105679899999814,45.105679899999814,45.105679899999814,45.105679899999814,45.105679899999814,45.105679899999814,45.105679899999814,45.105679899999814,45.105679899999814,45.105679899999814,008,P001,2025_Jan_17_1922,ConditionRich,2021.2.3,59.94179651637693,
18.75,19.0,41,0.0,Stimuli/Blank.png,0,0,0.0,0,30,30,30,,,,,,,,,,,,,18.765046900000016,0.01504690000001574,None,,45.856410100001085,45.856410100001085,45.856410100001085,45.856410100001085,45.856410100001085,45.856410100001085,45.856410100001085,45.856410100001085,45.856410100001085,45.856410100001085,008,P001,2025_Jan_17_1922,ConditionRich,2021.2.3,59.94179651637693,
19.0,19.75,28,0.75,Stimuli/P001/things_girl_01b.jpg,0,0,0.0,0,31,31,31,,,,,,,,,,,,,19.015700200005085,0.015700200005085208,None,,46.12324600000284,46.12324600000284,46.12324600000284,46.12324600000284,46.12324600000284,46.12324600000284,46.12324600000284,46.12324600000284,46.12324600000284,46.12324600000284,008,P001,2025_Jan_17_1922,ConditionRich,2021.2.3,59.94179651637693,
19.75,20.0,41,0.0,Stimuli/Blank.png,0,0,0.0,0,32,32,32,,,,,,,,,,,,,19.765602500003297,0.015602500003296882,None,,46.85722320000059,46.85722320000059,46.85722320000059,46.85722320000059,46.85722320000059,46.85722320000059,46.85722320000059,46.85722320000059,46.85722320000059,46.85722320000059,008,P001,2025_Jan_17_1922,ConditionRich,2021.2.3,59.94179651637693,
20.0,20.75,4,0.75,Stimuli/P001/sun_aonjwqswdblhlpkm.jpg,0,0,0.0,0,33,33,33,,,,,,,,,,,,,19.99923800000397,-0.0007619999960297719,None,,47.09074050000345,47.09074050000345,47.09074050000345,47.09074050000345,47.09074050000345,47.09074050000345,47.09074050000345,47.09074050000345,47.09074050000345,47.09074050000345,008,P001,2025_Jan_17_1922,ConditionRich,2021.2.3,59.94179651637693,
20.75,21.0,41,0.0,Stimuli/Blank.png,0,0,0.0,0,34,34,34,,,,,,,,,,,,,20.753076600005443,0.0030766000054427423,None,,47.858113700000104,47.858113700000104,47.858113700000104,47.858113700000104,47.858113700000104,47.858113700000104,47.858113700000104,47.858113700000104,47.858113700000104,47.858113700000104,008,P001,2025_Jan_17_1922,ConditionRich,2021.2.3,59.94179651637693,
21.0,21.75,4,0.75,Stimuli/P001/sun_aonjwqswdblhlpkm.jpg,0,0,0.0,0,35,35,35,,,,,,,,,,,,,21.018228000000818,0.0182280000008177,None,,48.12501989999873,48.12501989999873,48.12501989999873,48.12501989999873,48.12501989999873,48.12501989999873,48.12501989999873,48.12501989999873,48.12501989999873,48.12501989999873,008,P001,2025_Jan_17_1922,ConditionRich,2021.2.3,59.94179651637693,
21.75,22.0,41,0.0,Stimuli/Blank.png,0,0,0.0,0,36,36,36,,,,,,,,,,,,,21.768262400000822,0.0182624000008218,None,,48.85900350000156,48.85900350000156,48.85900350000156,48.85900350000156,48.85900350000156,48.85900350000156,48.85900350000156,48.85900350000156,48.85900350000156,48.85900350000156,008,P001,2025_Jan_17_1922,ConditionRich,2021.2.3,59.94179651637693,
22.0,22.75,4,0.75,Stimuli/P001/sun_aonjwqswdblhlpkm.jpg,0,0,0.0,0,37,37,37,,,,,,,,,,,,,22.00126740000269,0.0012674000026891008,None,,49.09252640000341,49.09252640000341,49.09252640000341,49.09252640000341,49.09252640000341,49.09252640000341,49.09252640000341,49.09252640000341,49.09252640000341,49.09252640000341,008,P001,2025_Jan_17_1922,ConditionRich,2021.2.3,59.94179651637693,
22.75,23.0,41,0.0,Stimuli/Blank.png,0,0,0.0,0,38,38,38,,,,,,,,,,,,,22.752308100003575,0.002308100003574509,None,,49.84320429999934,49.84320429999934,49.84320429999934,49.84320429999934,49.84320429999934,49.84320429999934,49.84320429999934,49.84320429999934,49.84320429999934,49.84320429999934,008,P001,2025_Jan_17_1922,ConditionRich,2021.2.3,59.94179651637693,
23.0,23.75,4,0.75,Stimuli/P001/sun_aonjwqswdblhlpkm.jpg,0,0,0.0,0,39,39,39,,,,,,,,,,,,,23.002725800004555,0.0027258000045549124,None,,50.09342040000047,50.09342040000047,50.09342040000047,50.09342040000047,50.09342040000047,50.09342040000047,50.09342040000047,50.09342040000047,50.09342040000047,50.09342040000047,008,P001,2025_Jan_17_1922,ConditionRich,2021.2.3,59.94179651637693,
23.75,24.0,41,0.0,Stimuli/Blank.png,0,0,0.0,0,40,40,40,,,,,,,,,,,,,23.75369650000357,0.0036965000035706908,None,,50.844084600001224,50.844084600001224,50.844084600001224,50.844084600001224,50.844084600001224,50.844084600001224,50.844084600001224,50.844084600001224,50.844084600001224,50.844084600001224,008,P001,2025_Jan_17_1922,ConditionRich,2021.2.3,59.94179651637693,
24.0,24.75,20,0.75,Stimuli/P001/sun_dkgctqgpvxbaoyks.jpg,0,0,0.0,0,41,41,41,,,,,,,,,,,,,24.003578000003472,0.0035780000034719706,None,,51.094303600002604,51.094303600002604,51.094303600002604,51.094303600002604,51.094303600002604,51.094303600002604,51.094303600002604,51.094303600002604,51.094303600002604,51.094303600002604,008,P001,2025_Jan_17_1922,ConditionRich,2021.2.3,59.94179651637693,
24.75,25.0,41,0.0,Stimuli/Blank.png,0,0,0.0,0,42,42,42,,,,,,,,,,,,,24.753478900005575,0.0034789000055752695,None,,51.84496360000048,51.84496360000048,51.84496360000048,51.84496360000048,51.84496360000048,51.84496360000048,51.84496360000048,51.84496360000048,51.84496360000048,51.84496360000048,008,P001,2025_Jan_17_1922,ConditionRich,2021.2.3,59.94179651637693,
25.0,25.75,20,0.75,Stimuli/P001/sun_dkgctqgpvxbaoyks.jpg,0,0,0.0,0,43,43,43,,,,,,,,,,,,,25.003756600002816,0.0037566000028164126,None,,52.0951866999967,52.0951866999967,52.0951866999967,52.0951866999967,52.0951866999967,52.0951866999967,52.0951866999967,52.0951866999967,52.0951866999967,52.0951866999967,008,P001,2025_Jan_17_1922,ConditionRich,2021.2.3,59.94179651637693,
25.75,26.0,41,0.0,Stimuli/Blank.png,0,0,0.0,0,44,44,44,,,,,,,,,,,,,25.754958800003806,0.0049588000038056634,5,0.2176136999987648,52.84591450000153,52.84591450000153,52.84591450000153,52.84591450000153,52.84591450000153,52.84591450000153,52.84591450000153,52.84591450000153,52.84591450000153,52.84591450000153,008,P001,2025_Jan_17_1922,ConditionRich,2021.2.3,59.94179651637693,
26.0,26.75,20,0.75,Stimuli/P001/sun_dkgctqgpvxbaoyks.jpg,0,0,0.0,0,45,45,45,,,,,,,,,,,,,26.004513900006714,0.004513900006713811,None,,53.09607200000028,53.09607200000028,53.09607200000028,53.09607200000028,53.09607200000028,53.09607200000028,53.09607200000028,53.09607200000028,53.09607200000028,53.09607200000028,008,P001,2025_Jan_17_1922,ConditionRich,2021.2.3,59.94179651637693,
26.75,27.0,41,0.0,Stimuli/Blank.png,0,0,0.0,0,46,46,46,,,,,,,,,,,,,26.757770700001856,0.007770700001856312,None,,53.86342770000192,53.86342770000192,53.86342770000192,53.86342770000192,53.86342770000192,53.86342770000192,53.86342770000192,53.86342770000192,53.86342770000192,53.86342770000192,008,P001,2025_Jan_17_1922,ConditionRich,2021.2.3,59.94179651637693,
27.0,27.75,20,0.75,Stimuli/P001/sun_dkgctqgpvxbaoyks.jpg,0,0,0.0,0,47,47,47,,,,,,,,,,,,,27.023409000001266,0.023409000001265667,None,,54.13033859999996,54.13033859999996,54.13033859999996,54.13033859999996,54.13033859999996,54.13033859999996,54.13033859999996,54.13033859999996,54.13033859999996,54.13033859999996,008,P001,2025_Jan_17_1922,ConditionRich,2021.2.3,59.94179651637693,
27.75,28.0,41,0.0,Stimuli/Blank.png,0,0,0.0,0,48,48,48,,,,,,,,,,,,,27.77327950000472,0.02327950000471901,5,0.2002312999975402,54.86431299999822,54.86431299999822,54.86431299999822,54.86431299999822,54.86431299999822,54.86431299999822,54.86431299999822,54.86431299999822,54.86431299999822,54.86431299999822,008,P001,2025_Jan_17_1922,ConditionRich,2021.2.3,59.94179651637693,
28.0,28.75,22,0.75,Stimuli/P001/things_boy_01b.jpg,0,0,0.0,0,49,49,49,,,,,,,,,,,,,28.006367100002535,0.006367100002535153,None,,55.11453569999867,55.11453569999867,55.11453569999867,55.11453569999867,55.11453569999867,55.11453569999867,55.11453569999867,55.11453569999867,55.11453569999867,55.11453569999867,008,P001,2025_Jan_17_1922,ConditionRich,2021.2.3,59.94179651637693,
28.75,29.0,41,0.0,Stimuli/Blank.png,0,0,0.0,0,50,50,50,,,,,,,,,,,,,28.774184500005504,0.02418450000550365,None,,55.865186600000015,55.865186600000015,55.865186600000015,55.865186600000015,55.865186600000015,55.865186600000015,55.865186600000015,55.865186600000015,55.865186600000015,55.865186600000015,008,P001,2025_Jan_17_1922,ConditionRich,2021.2.3,59.94179651637693,
29.0,29.75,22,0.75,Stimuli/P001/things_boy_01b.jpg,0,0,0.0,0,51,51,51,,,,,,,,,,,,,29.007803700005752,0.0078037000057520345,None,,56.09872699999687,56.09872699999687,56.09872699999687,56.09872699999687,56.09872699999687,56.09872699999687,56.09872699999687,56.09872699999687,56.09872699999687,56.09872699999687,008,P001,2025_Jan_17_1922,ConditionRich,2021.2.3,59.94179651637693,
29.75,30.0,41,0.0,Stimuli/Blank.png,0,0,0.0,0,52,52,52,,,,,,,,,,,,,29.75841390000278,0.008413900002778973,5,0.21402500000112923,56.84940159999678,56.84940159999678,56.84940159999678,56.84940159999678,56.84940159999678,56.84940159999678,56.84940159999678,56.84940159999678,56.84940159999678,56.84940159999678,008,P001,2025_Jan_17_1922,ConditionRich,2021.2.3,59.94179651637693,
30.0,30.75,22,0.75,Stimuli/P001/things_boy_01b.jpg,1,0,0.75,0,53,53,53,,,,,,,,,,,,,30.008033500002057,0.008033500002056826,3,0.40577070000290405,57.0996088000029,57.0996088000029,57.0996088000029,57.0996088000029,57.0996088000029,57.0996088000029,57.0996088000029,57.83358620000217,57.0996088000029,57.0996088000029,008,P001,2025_Jan_17_1922,ConditionRich,2021.2.3,59.94179651637693,
30.75,31.0,41,0.0,Stimuli/Blank.png,0,0,0.0,0,54,54,54,,,,,,,,,,,,,30.759457900006964,0.009457900006964337,None,,57.850272399999085,57.850272399999085,57.850272399999085,57.850272399999085,57.850272399999085,57.850272399999085,57.850272399999085,57.850272399999085,57.850272399999085,57.850272399999085,008,P001,2025_Jan_17_1922,ConditionRich,2021.2.3,59.94179651637693,
31.0,31.75,22,0.75,Stimuli/P001/things_boy_01b.jpg,0,0,0.0,0,55,55,55,,,,,,,,,,,,,31.00996980000491,0.009969800004910212,None,,58.10049789999903,58.10049789999903,58.10049789999903,58.10049789999903,58.10049789999903,58.10049789999903,58.10049789999903,58.10049789999903,58.10049789999903,58.10049789999903,008,P001,2025_Jan_17_1922,ConditionRich,2021.2.3,59.94179651637693,
31.75,32.0,41,0.0,Stimuli/Blank.png,0,0,0.0,0,56,56,56,,,,,,,,,,,,,31.759979000002204,0.009979000002203975,5,0.21327800000290154,58.85123040000326,58.85123040000326,58.85123040000326,58.85123040000326,58.85123040000326,58.85123040000326,58.85123040000326,58.85123040000326,58.85123040000326,58.85123040000326,008,P001,2025_Jan_17_1922,ConditionRich,2021.2.3,59.94179651637693,
32.0,32.75,21,0.75,Stimuli/P001/things_baby_01b.jpg,0,0,0.0,0,57,57,57,,,,,,,,,,,,,32.009711100006825,0.00971110000682529,None,,59.10138480000023,59.10138480000023,59.10138480000023,59.10138480000023,59.10138480000023,59.10138480000023,59.10138480000023,59.10138480000023,59.10138480000023,59.10138480000023,008,P001,2025_Jan_17_1922,ConditionRich,2021.2.3,59.94179651637693,
32.75,33.0,41,0.0,Stimuli/Blank.png,0,0,0.0,0,58,58,58,,,,,,,,,,,,,32.76331449999998,0.01331449999997858,None,,59.86873539999942,59.86873539999942,59.86873539999942,59.86873539999942,59.86873539999942,59.86873539999942,59.86873539999942,59.86873539999942,59.86873539999942,59.86873539999942,008,P001,2025_Jan_17_1922,ConditionRich,2021.2.3,59.94179651637693,
33.0,33.75,21,0.75,Stimuli/P001/things_baby_01b.jpg,0,0,0.0,0,59,59,59,,,,,,,,,,,,,33.02776220000669,0.027762200006691273,None,,60.1189544000008,60.1189544000008,60.1189544000008,60.1189544000008,60.1189544000008,60.1189544000008,60.1189544000008,60.1189544000008,60.1189544000008,60.1189544000008,008,P001,2025_Jan_17_1922,ConditionRich,2021.2.3,59.94179651637693,
33.75,34.0,41,0.0,Stimuli/Blank.png,0,0,0.0,0,60,60,60,,,,,,,,,,,,,33.76236930000596,0.012369300005957484,5,0.21059179999429034,60.85376759999781,60.85376759999781,60.85376759999781,60.85376759999781,60.85376759999781,60.85376759999781,60.85376759999781,60.85376759999781,60.85376759999781,60.85376759999781,008,P001,2025_Jan_17_1922,ConditionRich,2021.2.3,59.94179651637693,
34.0,34.75,21,0.75,Stimuli/P001/things_baby_01b.jpg,0,0,0.0,0,61,61,61,,,,,,,,,,,,,34.01182450000488,0.011824500004877336,None,,61.1031989999974,61.1031989999974,61.1031989999974,61.1031989999974,61.1031989999974,61.1031989999974,61.1031989999974,61.1031989999974,61.1031989999974,61.1031989999974,008,P001,2025_Jan_17_1922,ConditionRich,2021.2.3,59.94179651637693,
34.75,35.0,41,0.0,Stimuli/Blank.png,0,0,0.0,0,62,62,62,,,,,,,,,,,,,34.762157600001956,0.01215760000195587,None,,61.85381259999849,61.85381259999849,61.85381259999849,61.85381259999849,61.85381259999849,61.85381259999849,61.85381259999849,61.85381259999849,61.85381259999849,61.85381259999849,008,P001,2025_Jan_17_1922,ConditionRich,2021.2.3,59.94179651637693,
35.0,35.75,21,0.75,Stimuli/P001/things_baby_01b.jpg,0,0,0.0,0,63,63,63,,,,,,,,,,,,,35.01245950000157,0.012459500001568813,None,,62.10403509999742,62.10403509999742,62.10403509999742,62.10403509999742,62.10403509999742,62.10403509999742,62.10403509999742,62.10403509999742,62.10403509999742,62.10403509999742,008,P001,2025_Jan_17_1922,ConditionRich,2021.2.3,59.94179651637693,
35.75,36.0,41,0.0,Stimuli/Blank.png,0,0,0.0,0,64,64,64,,,,,,,,,,,,,35.76399769999989,0.013997699999890756,5,0.1929766000030213,62.87140270000236,62.87140270000236,62.87140270000236,62.87140270000236,62.87140270000236,62.87140270000236,62.87140270000236,62.87140270000236,62.87140270000236,62.87140270000236,008,P001,2025_Jan_17_1922,ConditionRich,2021.2.3,59.94179651637693,
36.0,36.75,36,0.75,Stimuli/P001/things_stalagmite_01b.jpg,0,0,0.0,0,65,65,65,,,,,,,,,,,,,36.030108100007055,0.030108100007055327,None,,63.13829360000091,63.13829360000091,63.13829360000091,63.13829360000091,63.13829360000091,63.13829360000091,63.13829360000091,63.13829360000091,63.13829360000091,63.13829360000091,008,P001,2025_Jan_17_1922,ConditionRich,2021.2.3,59.94179651637693,
36.75,37.0,41,0.0,Stimuli/Blank.png,0,0,0.0,0,66,66,66,,,,,,,,,,,,,36.78335160000279,0.03335160000278847,None,,63.888950200002,63.888950200002,63.888950200002,63.888950200002,63.888950200002,63.888950200002,63.888950200002,63.888950200002,63.888950200002,63.888950200002,008,P001,2025_Jan_17_1922,ConditionRich,2021.2.3,59.94179651637693,
37.0,37.75,36,0.75,Stimuli/P001/things_stalagmite_01b.jpg,0,0,0.0,0,67,67,67,,,,,,,,,,,,,37.01475990000472,0.014759900004719384,None,,64.10581390000152,64.10581390000152,64.10581390000152,64.10581390000152,64.10581390000152,64.10581390000152,64.10581390000152,64.10581390000152,64.10581390000152,64.10581390000152,008,P001,2025_Jan_17_1922,ConditionRich,2021.2.3,59.94179651637693,
37.75,38.0,41,0.0,Stimuli/Blank.png,0,0,0.0,0,68,68,68,,,,,,,,,,,,,37.76566129999992,0.01566129999991972,None,,64.8564778,64.8564778,64.8564778,64.8564778,64.8564778,64.8564778,64.8564778,64.8564778,64.8564778,64.8564778,008,P001,2025_Jan_17_1922,ConditionRich,2021.2.3,59.94179651637693,
38.0,38.75,36,0.75,Stimuli/P001/things_stalagmite_01b.jpg,0,0,0.0,0,69,69,69,,,,,,,,,,,,,37.99864550000348,-0.0013544999965233728,None,,65.0900060999993,65.0900060999993,65.0900060999993,65.0900060999993,65.0900060999993,65.0900060999993,65.0900060999993,65.0900060999993,65.0900060999993,65.0900060999993,008,P001,2025_Jan_17_1922,ConditionRich,2021.2.3,59.94179651637693,
38.75,39.0,41,0.0,Stimuli/Blank.png,0,0,0.0,0,70,70,70,,,,,,,,,,,,,38.74946660000569,-0.0005333999943104573,None,,65.84068149999803,65.84068149999803,65.84068149999803,65.84068149999803,65.84068149999803,65.84068149999803,65.84068149999803,65.84068149999803,65.84068149999803,65.84068149999803,008,P001,2025_Jan_17_1922,ConditionRich,2021.2.3,59.94179651637693,
39.0,39.75,36,0.75,Stimuli/P001/things_stalagmite_01b.jpg,0,0,0.0,0,71,71,71,,,,,,,,,,,,,39.00020890000451,0.0002089000045089051,None,,66.09088889999839,66.09088889999839,66.09088889999839,66.09088889999839,66.09088889999839,66.09088889999839,66.09088889999839,66.09088889999839,66.09088889999839,66.09088889999839,008,P001,2025_Jan_17_1922,ConditionRich,2021.2.3,59.94179651637693,
39.75,40.0,41,0.0,Stimuli/Blank.png,0,0,0.0,0,72,72,72,,,,,,,,,,,,,39.750712200002454,0.0007122000024537556,None,,66.84157309999864,66.84157309999864,66.84157309999864,66.84157309999864,66.84157309999864,66.84157309999864,66.84157309999864,66.84157309999864,66.84157309999864,66.84157309999864,008,P001,2025_Jan_17_1922,ConditionRich,2021.2.3,59.94179651637693,
40.0,40.75,33,0.75,Stimuli/P001/things_pan_01b.jpg,0,0,0.0,0,73,73,73,,,,,,,,,,,,,40.000648100001854,0.0006481000018538907,None,,67.09178470000188,67.09178470000188,67.09178470000188,67.09178470000188,67.09178470000188,67.09178470000188,67.09178470000188,67.09178470000188,67.09178470000188,67.09178470000188,008,P001,2025_Jan_17_1922,ConditionRich,2021.2.3,59.94179651637693,
40.75,41.0,41,0.0,Stimuli/Blank.png,0,0,0.0,0,74,74,74,,,,,,,,,,,,,40.75357240000449,0.0035724000044865534,None,,67.85912559999997,67.85912559999997,67.85912559999997,67.85912559999997,67.85912559999997,67.85912559999997,67.85912559999997,67.85912559999997,67.85912559999997,67.85912559999997,008,P001,2025_Jan_17_1922,ConditionRich,2021.2.3,59.94179651637693,
41.0,41.75,33,0.75,Stimuli/P001/things_pan_01b.jpg,0,0,0.0,0,75,75,75,,,,,,,,,,,,,41.01922820000618,0.019228200006182306,None,,68.10934819999966,68.10934819999966,68.10934819999966,68.10934819999966,68.10934819999966,68.10934819999966,68.10934819999966,68.10934819999966,68.10934819999966,68.10934819999966,008,P001,2025_Jan_17_1922,ConditionRich,2021.2.3,59.94179651637693,
41.75,42.0,41,0.0,Stimuli/Blank.png,0,0,0.0,0,76,76,76,,,,,,,,,,,,,41.75255330000073,0.0025533000007271767,None,,68.84333309999784,68.84333309999784,68.84333309999784,68.84333309999784,68.84333309999784,68.84333309999784,68.84333309999784,68.84333309999784,68.84333309999784,68.84333309999784,008,P001,2025_Jan_17_1922,ConditionRich,2021.2.3,59.94179651637693,
42.0,42.75,33,0.75,Stimuli/P001/things_pan_01b.jpg,0,0,0.0,0,77,77,77,,,,,,,,,,,,,42.002585700000054,0.002585700000054203,None,,69.0935399000009,69.0935399000009,69.0935399000009,69.0935399000009,69.0935399000009,69.0935399000009,69.0935399000009,69.0935399000009,69.0935399000009,69.0935399000009,008,P001,2025_Jan_17_1922,ConditionRich,2021.2.3,59.94179651637693,
42.75,43.0,41,0.0,Stimuli/Blank.png,0,0,0.0,0,78,78,78,,,,,,,,,,,,,42.75351610000507,0.003516100005072076,None,,69.84422259999701,69.84422259999701,69.84422259999701,69.84422259999701,69.84422259999701,69.84422259999701,69.84422259999701,69.84422259999701,69.84422259999701,69.84422259999701,008,P001,2025_Jan_17_1922,ConditionRich,2021.2.3,59.94179651637693,
43.0,43.75,33,0.75,Stimuli/P001/things_pan_01b.jpg,0,0,0.0,0,79,79,79,,,,,,,,,,,,,43.00356760000432,0.0035676000043167733,None,,70.09442880000279,70.09442880000279,70.09442880000279,70.09442880000279,70.09442880000279,70.09442880000279,70.09442880000279,70.09442880000279,70.09442880000279,70.09442880000279,008,P001,2025_Jan_17_1922,ConditionRich,2021.2.3,59.94179651637693,
43.75,44.0,41,0.0,Stimuli/Blank.png,0,0,0.0,0,80,80,80,,,,,,,,,,,,,43.75339730000269,0.0033973000026890077,None,,70.84509570000228,70.84509570000228,70.84509570000228,70.84509570000228,70.84509570000228,70.84509570000228,70.84509570000228,70.84509570000228,70.84509570000228,70.84509570000228,008,P001,2025_Jan_17_1922,ConditionRich,2021.2.3,59.94179651637693,
44.0,44.75,9,0.75,Stimuli/P001/sun_awtltwwpwbepuuqv.jpg,0,0,0.0,0,81,81,81,,,,,,,,,,,,,44.00397420000081,0.003974200000811834,None,,71.09530719999748,71.09530719999748,71.09530719999748,71.09530719999748,71.09530719999748,71.09530719999748,71.09530719999748,71.09530719999748,71.09530719999748,71.09530719999748,008,P001,2025_Jan_17_1922,ConditionRich,2021.2.3,59.94179651637693,
44.75,45.0,41,0.0,Stimuli/Blank.png,0,0,0.0,0,82,82,82,,,,,,,,,,,,,44.75460220000241,0.004602200002409518,None,,71.84597290000238,71.84597290000238,71.84597290000238,71.84597290000238,71.84597290000238,71.84597290000238,71.84597290000238,71.84597290000238,71.84597290000238,71.84597290000238,008,P001,2025_Jan_17_1922,ConditionRich,2021.2.3,59.94179651637693,
45.0,45.75,9,0.75,Stimuli/P001/sun_awtltwwpwbepuuqv.jpg,1,0,0.75,0,83,83,83,,,,,,,,,,,,,45.00535960000707,0.005359600007068366,3,0.3572973999980604,72.0961735000019,72.0961735000019,72.0961735000019,72.0961735000019,72.0961735000019,72.0961735000019,72.0961735000019,72.83021690000169,72.0961735000019,72.0961735000019,008,P001,2025_Jan_17_1922,ConditionRich,2021.2.3,59.94179651637693,
45.75,46.0,41,0.0,Stimuli/Blank.png,0,0,0.0,0,84,84,84,,,,,,,,,,,,,45.756011000004946,0.006011000004946254,5,0.21753850000095554,72.84687539999868,72.84687539999868,72.84687539999868,72.84687539999868,72.84687539999868,72.84687539999868,72.84687539999868,72.84687539999868,72.84687539999868,72.84687539999868,008,P001,2025_Jan_17_1922,ConditionRich,2021.2.3,59.94179651637693,
46.0,46.75,9,0.75,Stimuli/P001/sun_awtltwwpwbepuuqv.jpg,0,0,0.0,0,85,85,85,,,,,,,,,,,,,46.006470200001786,0.006470200001785997,None,,73.11373430000094,73.11373430000094,73.11373430000094,73.11373430000094,73.11373430000094,73.11373430000094,73.11373430000094,73.11373430000094,73.11373430000094,73.11373430000094,008,P001,2025_Jan_17_1922,ConditionRich,2021.2.3,59.94179651637693,
46.75,47.0,41,0.0,Stimuli/Blank.png,0,0,0.0,0,86,86,86,,,,,,,,,,,,,46.773961200000485,0.023961200000485405,None,,73.86443519999739,73.86443519999739,73.86443519999739,73.86443519999739,73.86443519999739,73.86443519999739,73.86443519999739,73.86443519999739,73.86443519999739,73.86443519999739,008,P001,2025_Jan_17_1922,ConditionRich,2021.2.3,59.94179651637693,
47.0,47.75,9,0.75,Stimuli/P001/sun_awtltwwpwbepuuqv.jpg,0,0,0.0,0,87,87,87,,,,,,,,,,,,,47.00913310000033,0.009133100000326522,None,,74.11465860000317,74.11465860000317,74.11465860000317,74.11465860000317,74.11465860000317,74.11465860000317,74.11465860000317,74.11465860000317,74.11465860000317,74.11465860000317,008,P001,2025_Jan_17_1922,ConditionRich,2021.2.3,59.94179651637693,
47.75,48.0,41,0.0,Stimuli/Blank.png,0,0,0.0,0,88,88,88,,,,,,,,,,,,,47.77419660000305,0.02419660000305157,5,0.19909110000298824,74.8652970999974,74.8652970999974,74.8652970999974,74.8652970999974,74.8652970999974,74.8652970999974,74.8652970999974,74.8652970999974,74.8652970999974,74.8652970999974,008,P001,2025_Jan_17_1922,ConditionRich,2021.2.3,59.94179651637693,
48.0,48.75,17,0.75,Stimuli/P001/sun_bshgmgbmpvjkxfis.jpg,0,0,0.0,0,89,89,89,,,,,,,,,,,,,48.007617400005984,0.007617400005983654,None,,75.09885010000289,75.09885010000289,75.09885010000289,75.09885010000289,75.09885010000289,75.09885010000289,75.09885010000289,75.09885010000289,75.09885010000289,75.09885010000289,008,P001,2025_Jan_17_1922,ConditionRich,2021.2.3,59.94179651637693,
48.75,49.0,41,0.0,Stimuli/Blank.png,0,0,0.0,0,90,90,90,,,,,,,,,,,,,48.7585218000022,0.008521800002199598,None,,75.8495225000006,75.8495225000006,75.8495225000006,75.8495225000006,75.8495225000006,75.8495225000006,75.8495225000006,75.8495225000006,75.8495225000006,75.8495225000006,008,P001,2025_Jan_17_1922,ConditionRich,2021.2.3,59.94179651637693,
49.0,49.75,17,0.75,Stimuli/P001/sun_bshgmgbmpvjkxfis.jpg,0,0,0.0,0,91,91,91,,,,,,,,,,,,,49.008259800000815,0.008259800000814721,None,,76.09973999999784,76.09973999999784,76.09973999999784,76.09973999999784,76.09973999999784,76.09973999999784,76.09973999999784,76.09973999999784,76.09973999999784,76.09973999999784,008,P001,2025_Jan_17_1922,ConditionRich,2021.2.3,59.94179651637693,
49.75,50.0,41,0.0,Stimuli/Blank.png,0,0,0.0,0,92,92,92,,,,,,,,,,,,,49.75894960000005,0.00894960000005085,5,0.2140233000027365,76.85037159999774,76.85037159999774,76.85037159999774,76.85037159999774,76.85037159999774,76.85037159999774,76.85037159999774,76.85037159999774,76.85037159999774,76.85037159999774,008,P001,2025_Jan_17_1922,ConditionRich,2021.2.3,59.94179651637693,
50.0,50.75,17,0.75,Stimuli/P001/sun_bshgmgbmpvjkxfis.jpg,0,0,0.0,0,93,93,93,,,,,,,,,,,,,50.009568400004355,0.009568400004354771,None,,77.1006217000031,77.1006217000031,77.1006217000031,77.1006217000031,77.1006217000031,77.1006217000031,77.1006217000031,77.1006217000031,77.1006217000031,77.1006217000031,008,P001,2025_Jan_17_1922,ConditionRich,2021.2.3,59.94179651637693,
50.75,51.0,41,0.0,Stimuli/Blank.png,0,0,0.0,0,94,94,94,,,,,,,,,,,,,50.75994070000161,0.009940700001607183,None,,77.85128380000242,77.85128380000242,77.85128380000242,77.85128380000242,77.85128380000242,77.85128380000242,77.85128380000242,77.85128380000242,77.85128380000242,77.85128380000242,008,P001,2025_Jan_17_1922,ConditionRich,2021.2.3,59.94179651637693,
51.0,51.75,17,0.75,Stimuli/P001/sun_bshgmgbmpvjkxfis.jpg,0,0,0.0,0,95,95,95,,,,,,,,,,,,,51.012862100003986,0.012862100003985688,None,,78.11818979999953,78.11818979999953,78.11818979999953,78.11818979999953,78.11818979999953,78.11818979999953,78.11818979999953,78.11818979999953,78.11818979999953,78.11818979999953,008,P001,2025_Jan_17_1922,ConditionRich,2021.2.3,59.94179651637693,
51.75,52.0,41,0.0,Stimuli/Blank.png,0,0,0.0,0,96,96,96,,,,,,,,,,,,,51.77749030000268,0.02749030000268249,5,0.19564900000113994,78.86886640000012,78.86886640000012,78.86886640000012,78.86886640000012,78.86886640000012,78.86886640000012,78.86886640000012,78.86886640000012,78.86886640000012,78.86886640000012,008,P001,2025_Jan_17_1922,ConditionRich,2021.2.3,59.94179651637693,
52.0,52.75,26,0.75,Stimuli/P001/things_dish_01b.jpg,0,0,0.0,0,97,97,97,,,,,,,,,,,,,52.0109017000068,0.01090170000679791,None,,79.1025615000035,79.1025615000035,79.1025615000035,79.1025615000035,79.1025615000035,79.1025615000035,79.1025615000035,79.1025615000035,79.1025615000035,79.1025615000035,008,P001,2025_Jan_17_1922,ConditionRich,2021.2.3,59.94179651637693,
52.75,53.0,41,0.0,Stimuli/Blank.png,0,0,0.0,0,98,98,98,,,,,,,,,,,,,52.761582400002226,0.011582400002225768,None,,79.85305030000018,79.85305030000018,79.85305030000018,79.85305030000018,79.85305030000018,79.85305030000018,79.85305030000018,79.85305030000018,79.85305030000018,79.85305030000018,008,P001,2025_Jan_17_1922,ConditionRich,2021.2.3,59.94179651637693,
53.0,53.75,26,0.75,Stimuli/P001/things_dish_01b.jpg,0,0,0.0,0,99,99,99,,,,,,,,,,,,,53.012642600006075,0.012642600006074645,None,,80.11995030000253,80.11995030000253,80.11995030000253,80.11995030000253,80.11995030000253,80.11995030000253,80.11995030000253,80.11995030000253,80.11995030000253,80.11995030000253,008,P001,2025_Jan_17_1922,ConditionRich,2021.2.3,59.94179651637693,
53.75,54.0,41,0.0,Stimuli/Blank.png,0,0,0.0,0,100,100,100,,,,,,,,,,,,,53.77977130000363,0.02977130000363104,5,0.194028600002639,80.87061969999922,80.87061969999922,80.87061969999922,80.87061969999922,80.87061969999922,80.87061969999922,80.87061969999922,80.87061969999922,80.87061969999922,80.87061969999922,008,P001,2025_Jan_17_1922,ConditionRich,2021.2.3,59.94179651637693,
54.0,54.75,26,0.75,Stimuli/P001/things_dish_01b.jpg,0,0,0.0,0,101,101,101,,,,,,,,,,,,,54.0135442000028,0.01354420000279788,None,,81.1041566999993,81.1041566999993,81.1041566999993,81.1041566999993,81.1041566999993,81.1041566999993,81.1041566999993,81.1041566999993,81.1041566999993,81.1041566999993,008,P001,2025_Jan_17_1922,ConditionRich,2021.2.3,59.94179651637693,
54.75,55.0,41,0.0,Stimuli/Blank.png,0,0,0.0,0,102,102,102,,,,,,,,,,,,,54.764034000007086,0.014034000007086433,None,,81.85480490000191,81.85480490000191,81.85480490000191,81.85480490000191,81.85480490000191,81.85480490000191,81.85480490000191,81.85480490000191,81.85480490000191,81.85480490000191,008,P001,2025_Jan_17_1922,ConditionRich,2021.2.3,59.94179651637693,
55.0,55.75,26,0.75,Stimuli/P001/things_dish_01b.jpg,0,0,0.0,0,103,103,103,,,,,,,,,,,,,55.01413350000075,0.014133500000752974,None,,82.10502570000244,82.10502570000244,82.10502570000244,82.10502570000244,82.10502570000244,82.10502570000244,82.10502570000244,82.10502570000244,82.10502570000244,82.10502570000244,008,P001,2025_Jan_17_1922,ConditionRich,2021.2.3,59.94179651637693,
55.75,56.0,41,0.0,Stimuli/Blank.png,0,0,0.0,0,104,104,104,,,,,,,,,,,,,55.76496440000483,0.014964400004828349,5,0.2086842999997316,82.85571049999999,82.85571049999999,82.85571049999999,82.85571049999999,82.85571049999999,82.85571049999999,82.85571049999999,82.85571049999999,82.85571049999999,82.85571049999999,008,P001,2025_Jan_17_1922,ConditionRich,2021.2.3,59.94179651637693,
56.0,56.75,1,0.75,Stimuli/P001/sun_agpgdwkhzgvzdaea.jpg,0,0,0.0,0,105,105,105,,,,,,,,,,,,,56.01453400000173,0.014534000001731329,None,,83.10592170000018,83.10592170000018,83.10592170000018,83.10592170000018,83.10592170000018,83.10592170000018,83.10592170000018,83.10592170000018,83.10592170000018,83.10592170000018,008,P001,2025_Jan_17_1922,ConditionRich,2021.2.3,59.94179651637693,
56.75,57.0,41,0.0,Stimuli/Blank.png,0,0,0.0,0,106,106,106,,,,,,,,,,,,,56.76534260000335,0.015342600003350526,None,,83.85659960000339,83.85659960000339,83.85659960000339,83.85659960000339,83.85659960000339,83.85659960000339,83.85659960000339,83.85659960000339,83.85659960000339,83.85659960000339,008,P001,2025_Jan_17_1922,ConditionRich,2021.2.3,59.94179651637693,
57.0,57.75,1,0.75,Stimuli/P001/sun_agpgdwkhzgvzdaea.jpg,0,0,0.0,0,107,107,107,,,,,,,,,,,,,57.01785170000221,0.017851700002211146,None,,84.12349900000117,84.12349900000117,84.12349900000117,84.12349900000117,84.12349900000117,84.12349900000117,84.12349900000117,84.12349900000117,84.12349900000117,84.12349900000117,008,P001,2025_Jan_17_1922,ConditionRich,2021.2.3,59.94179651637693,
57.75,58.0,41,0.0,Stimuli/Blank.png,0,0,0.0,0,108,108,108,,,,,,,,,,,,,57.76714130000619,0.01714130000618752,None,,84.8574781999996,84.8574781999996,84.8574781999996,84.8574781999996,84.8574781999996,84.8574781999996,84.8574781999996,84.8574781999996,84.8574781999996,84.8574781999996,008,P001,2025_Jan_17_1922,ConditionRich,2021.2.3,59.94179651637693,
58.0,58.75,1,0.75,Stimuli/P001/sun_agpgdwkhzgvzdaea.jpg,0,0,0.0,0,109,109,109,,,,,,,,,,,,,57.99970949999988,-0.0002905000001192093,None,,85.09101489999739,85.09101489999739,85.09101489999739,85.09101489999739,85.09101489999739,85.09101489999739,85.09101489999739,85.09101489999739,85.09101489999739,85.09101489999739,008,P001,2025_Jan_17_1922,ConditionRich,2021.2.3,59.94179651637693,
58.75,59.0,41,0.0,Stimuli/Blank.png,0,0,0.0,0,110,110,110,,,,,,,,,,,,,58.75297000000137,0.002970000001369044,None,,85.85837210000318,85.85837210000318,85.85837210000318,85.85837210000318,85.85837210000318,85.85837210000318,85.85837210000318,85.85837210000318,85.85837210000318,85.85837210000318,008,P001,2025_Jan_17_1922,ConditionRich,2021.2.3,59.94179651637693,
59.0,59.75,1,0.75,Stimuli/P001/sun_agpgdwkhzgvzdaea.jpg,0,0,0.0,0,111,111,111,,,,,,,,,,,,,59.018478400001186,0.018478400001185946,None,,86.12528120000206,86.12528120000206,86.12528120000206,86.12528120000206,86.12528120000206,86.12528120000206,86.12528120000206,86.12528120000206,86.12528120000206,86.12528120000206,008,P001,2025_Jan_17_1922,ConditionRich,2021.2.3,59.94179651637693,
59.75,60.0,41,0.0,Stimuli/Blank.png,0,0,0.0,0,112,112,112,,,,,,,,,,,,,59.76837250000244,0.018372500002442393,None,,86.85927800000354,86.85927800000354,86.85927800000354,86.85927800000354,86.85927800000354,86.85927800000354,86.85927800000354,86.85927800000354,86.85927800000354,86.85927800000354,008,P001,2025_Jan_17_1922,ConditionRich,2021.2.3,59.94179651637693,
60.0,60.75,23,0.75,Stimuli/P001/things_chick_01b.jpg,0,0,0.0,0,113,113,113,,,,,,,,,,,,,60.00193730000319,0.0019373000031919219,None,,87.10945679999713,87.10945679999713,87.10945679999713,87.10945679999713,87.10945679999713,87.10945679999713,87.10945679999713,87.10945679999713,87.10945679999713,87.10945679999713,008,P001,2025_Jan_17_1922,ConditionRich,2021.2.3,59.94179651637693,
60.75,61.0,41,0.0,Stimuli/Blank.png,0,0,0.0,0,114,114,114,,,,,,,,,,,,,60.76895360000344,0.01895360000344226,None,,87.86013310000271,87.86013310000271,87.86013310000271,87.86013310000271,87.86013310000271,87.86013310000271,87.86013310000271,87.86013310000271,87.86013310000271,87.86013310000271,008,P001,2025_Jan_17_1922,ConditionRich,2021.2.3,59.94179651637693,
61.0,61.75,23,0.75,Stimuli/P001/things_chick_01b.jpg,0,0,0.0,0,115,115,115,,,,,,,,,,,,,61.00260410000192,0.0026041000019176863,None,,88.0936675999983,88.0936675999983,88.0936675999983,88.0936675999983,88.0936675999983,88.0936675999983,88.0936675999983,88.0936675999983,88.0936675999983,88.0936675999983,008,P001,2025_Jan_17_1922,ConditionRich,2021.2.3,59.94179651637693,
61.75,62.0,41,0.0,Stimuli/Blank.png,0,0,0.0,0,116,116,116,,,,,,,,,,,,,61.753727600000275,0.0037276000002748333,None,,88.84434419999889,88.84434419999889,88.84434419999889,88.84434419999889,88.84434419999889,88.84434419999889,88.84434419999889,88.84434419999889,88.84434419999889,88.84434419999889,008,P001,2025_Jan_17_1922,ConditionRich,2021.2.3,59.94179651637693,
62.0,62.75,23,0.75,Stimuli/P001/things_chick_01b.jpg,0,0,0.0,0,117,117,117,,,,,,,,,,,,,62.00305230000231,0.0030523000023094937,None,,89.09455149999849,89.09455149999849,89.09455149999849,89.09455149999849,89.09455149999849,89.09455149999849,89.09455149999849,89.09455149999849,89.09455149999849,89.09455149999849,008,P001,2025_Jan_17_1922,ConditionRich,2021.2.3,59.94179651637693,
62.75,63.0,41,0.0,Stimuli/Blank.png,0,0,0.0,0,118,118,118,,,,,,,,,,,,,62.754320600004576,0.004320600004575681,None,,89.84531660000357,89.84531660000357,89.84531660000357,89.84531660000357,89.84531660000357,89.84531660000357,89.84531660000357,89.84531660000357,89.84531660000357,89.84531660000357,008,P001,2025_Jan_17_1922,ConditionRich,2021.2.3,59.94179651637693,
63.0,63.75,23,0.75,Stimuli/P001/things_chick_01b.jpg,0,0,0.0,0,119,119,119,,,,,,,,,,,,,63.00453610000113,0.004536100001132581,None,,90.09544620000088,90.09544620000088,90.09544620000088,90.09544620000088,90.09544620000088,90.09544620000088,90.09544620000088,90.09544620000088,90.09544620000088,90.09544620000088,008,P001,2025_Jan_17_1922,ConditionRich,2021.2.3,59.94179651637693,
63.75,64.0,41,0.0,Stimuli/Blank.png,0,0,0.0,0,120,120,120,,,,,,,,,,,,,63.75527030000376,0.005270300003758166,5,0.21824550000019372,90.84610010000324,90.84610010000324,90.84610010000324,90.84610010000324,90.84610010000324,90.84610010000324,90.84610010000324,90.84610010000324,90.84610010000324,90.84610010000324,008,P001,2025_Jan_17_1922,ConditionRich,2021.2.3,59.94179651637693,
64.0,64.75,39,0.75,Stimuli/P001/things_woman_01b.jpg,0,0,0.0,0,121,121,121,,,,,,,,,,,,,64.00544660000014,0.0054466000001411885,None,,91.11301860000094,91.11301860000094,91.11301860000094,91.11301860000094,91.11301860000094,91.11301860000094,91.11301860000094,91.11301860000094,91.11301860000094,91.11301860000094,008,P001,2025_Jan_17_1922,ConditionRich,2021.2.3,59.94179651637693,
64.75,65.0,41,0.0,Stimuli/Blank.png,0,0,0.0,0,122,122,122,,,,,,,,,,,,,64.77294460000121,0.022944600001210347,None,,91.86368409999704,91.86368409999704,91.86368409999704,91.86368409999704,91.86368409999704,91.86368409999704,91.86368409999704,91.86368409999704,91.86368409999704,91.86368409999704,008,P001,2025_Jan_17_1922,ConditionRich,2021.2.3,59.94179651637693,
65.0,65.75,39,0.75,Stimuli/P001/things_woman_01b.jpg,0,0,0.0,0,123,123,123,,,,,,,,,,,,,65.00568320000457,0.005683200004568789,None,,92.09722070000134,92.09722070000134,92.09722070000134,92.09722070000134,92.09722070000134,92.09722070000134,92.09722070000134,92.09722070000134,92.09722070000134,92.09722070000134,008,P001,2025_Jan_17_1922,ConditionRich,2021.2.3,59.94179651637693,
65.75,66.0,41,0.0,Stimuli/Blank.png,0,0,0.0,0,124,124,124,,,,,,,,,,,,,65.75834990000294,0.008349900002940558,5,0.1999257000061334,92.86457170000358,92.86457170000358,92.86457170000358,92.86457170000358,92.86457170000358,92.86457170000358,92.86457170000358,92.86457170000358,92.86457170000358,92.86457170000358,008,P001,2025_Jan_17_1922,ConditionRich,2021.2.3,59.94179651637693,
66.0,66.75,39,0.75,Stimuli/P001/things_woman_01b.jpg,0,0,0.0,0,125,125,125,,,,,,,,,,,,,66.02343660000042,0.023436600000422914,None,,93.1147512000025,93.1147512000025,93.1147512000025,93.1147512000025,93.1147512000025,93.1147512000025,93.1147512000025,93.1147512000025,93.1147512000025,93.1147512000025,008,P001,2025_Jan_17_1922,ConditionRich,2021.2.3,59.94179651637693,
66.75,67.0,41,0.0,Stimuli/Blank.png,0,0,0.0,0,126,126,126,,,,,,,,,,,,,66.75768480000261,0.007684800002607517,None,,93.84875060000195,93.84875060000195,93.84875060000195,93.84875060000195,93.84875060000195,93.84875060000195,93.84875060000195,93.84875060000195,93.84875060000195,93.84875060000195,008,P001,2025_Jan_17_1922,ConditionRich,2021.2.3,59.94179651637693,
67.0,67.75,39,0.75,Stimuli/P001/things_woman_01b.jpg,0,0,0.0,0,127,127,127,,,,,,,,,,,,,67.00842980000016,0.008429800000158139,None,,94.11569779999991,94.11569779999991,94.11569779999991,94.11569779999991,94.11569779999991,94.11569779999991,94.11569779999991,94.11569779999991,94.11569779999991,94.11569779999991,008,P001,2025_Jan_17_1922,ConditionRich,2021.2.3,59.94179651637693,
67.75,68.0,41,0.0,Stimuli/Blank.png,0,0,0.0,0,128,128,128,,,,,,,,,,,,,67.77513650000037,0.025136500000371598,5,0.19821060000685975,94.8663308000032,94.8663308000032,94.8663308000032,94.8663308000032,94.8663308000032,94.8663308000032,94.8663308000032,94.8663308000032,94.8663308000032,94.8663308000032,008,P001,2025_Jan_17_1922,ConditionRich,2021.2.3,59.94179651637693,
68.0,68.75,31,0.75,Stimuli/P001/things_man_01b.jpg,0,0,0.0,0,129,129,129,,,,,,,,,,,,,68.009117900001,0.009117900001001544,None,,95.09986349999963,95.09986349999963,95.09986349999963,95.09986349999963,95.09986349999963,95.09986349999963,95.09986349999963,95.09986349999963,95.09986349999963,95.09986349999963,008,P001,2025_Jan_17_1922,ConditionRich,2021.2.3,59.94179651637693,
68.75,69.0,41,0.0,Stimuli/Blank.png,0,0,0.0,0,130,130,130,,,,,,,,,,,,,68.7588864000063,0.00888640000630403,None,,95.85053340000013,95.85053340000013,95.85053340000013,95.85053340000013,95.85053340000013,95.85053340000013,95.85053340000013,95.85053340000013,95.85053340000013,95.85053340000013,008,P001,2025_Jan_17_1922,ConditionRich,2021.2.3,59.94179651637693,
69.0,69.75,31,0.75,Stimuli/P001/things_man_01b.jpg,0,0,0.0,0,131,131,131,,,,,,,,,,,,,69.00911600000109,0.009116000001085922,None,,96.10073070000362,96.10073070000362,96.10073070000362,96.10073070000362,96.10073070000362,96.10073070000362,96.10073070000362,96.10073070000362,96.10073070000362,96.10073070000362,008,P001,2025_Jan_17_1922,ConditionRich,2021.2.3,59.94179651637693,
69.75,70.0,41,0.0,Stimuli/Blank.png,0,0,0.0,0,132,132,132,,,,,,,,,,,,,69.76056310000422,0.01056310000421945,5,0.21302640000067186,96.85142089999863,96.85142089999863,96.85142089999863,96.85142089999863,96.85142089999863,96.85142089999863,96.85142089999863,96.85142089999863,96.85142089999863,96.85142089999863,008,P001,2025_Jan_17_1922,ConditionRich,2021.2.3,59.94179651637693,
70.0,70.75,31,0.75,Stimuli/P001/things_man_01b.jpg,0,0,0.0,0,133,133,133,,,,,,,,,,,,,70.01137130000279,0.01137130000279285,None,,97.10209960000066,97.10209960000066,97.10209960000066,97.10209960000066,97.10209960000066,97.10209960000066,97.10209960000066,97.10209960000066,97.10209960000066,97.10209960000066,008,P001,2025_Jan_17_1922,ConditionRich,2021.2.3,59.94179651637693,
70.75,71.0,41,0.0,Stimuli/Blank.png,0,0,0.0,0,134,134,134,,,,,,,,,,,,,70.761854700002,0.011854700002004392,None,,97.85233229999722,97.85233229999722,97.85233229999722,97.85233229999722,97.85233229999722,97.85233229999722,97.85233229999722,97.85233229999722,97.85233229999722,97.85233229999722,008,P001,2025_Jan_17_1922,ConditionRich,2021.2.3,59.94179651637693,
71.0,71.75,31,0.75,Stimuli/P001/things_man_01b.jpg,0,0,0.0,0,135,135,135,,,,,,,,,,,,,71.0122721000007,0.012272100000700448,None,,98.11919450000278,98.11919450000278,98.11919450000278,98.11919450000278,98.11919450000278,98.11919450000278,98.11919450000278,98.11919450000278,98.11919450000278,98.11919450000278,008,P001,2025_Jan_17_1922,ConditionRich,2021.2.3,59.94179651637693,
71.75,72.0,41,0.0,Stimuli/Blank.png,0,0,0.0,0,136,136,136,,,,,,,,,,,,,71.77908250000473,0.029082500004733447,5,0.19450269999651937,98.8698699000015,98.8698699000015,98.8698699000015,98.8698699000015,98.8698699000015,98.8698699000015,98.8698699000015,98.8698699000015,98.8698699000015,98.8698699000015,008,P001,2025_Jan_17_1922,ConditionRich,2021.2.3,59.94179651637693,
72.0,72.75,12,0.75,Stimuli/P001/sun_bdxvmnlyovhqognn.jpg,0,0,0.0,0,137,137,137,,,,,,,,,,,,,72.01266360000591,0.012663600005907938,None,,99.12007460000314,99.12007460000314,99.12007460000314,99.12007460000314,99.12007460000314,99.12007460000314,99.12007460000314,99.12007460000314,99.12007460000314,99.12007460000314,008,P001,2025_Jan_17_1922,ConditionRich,2021.2.3,59.94179651637693,
72.75,73.0,41,0.0,Stimuli/Blank.png,0,0,0.0,0,138,138,138,,,,,,,,,,,,,72.78003270000045,0.03003270000044722,None,,99.87074759999814,99.87074759999814,99.87074759999814,99.87074759999814,99.87074759999814,99.87074759999814,99.87074759999814,99.87074759999814,99.87074759999814,99.87074759999814,008,P001,2025_Jan_17_1922,ConditionRich,2021.2.3,59.94179651637693,
73.0,73.75,12,0.75,Stimuli/P001/sun_bdxvmnlyovhqognn.jpg,0,0,0.0,0,139,139,139,,,,,,,,,,,,,73.01368440000078,0.01368440000078408,None,,100.12101059999986,100.12101059999986,100.12101059999986,100.12101059999986,100.12101059999986,100.12101059999986,100.12101059999986,100.12101059999986,100.12101059999986,100.12101059999986,008,P001,2025_Jan_17_1922,ConditionRich,2021.2.3,59.94179651637693,
73.75,74.0,41,0.0,Stimuli/Blank.png,0,0,0.0,0,140,140,140,,,,,,,,,,,,,73.78287450000062,0.032874500000616536,5,0.1766453000018373,100.88831609999761,100.88831609999761,100.88831609999761,100.88831609999761,100.88831609999761,100.88831609999761,100.88831609999761,100.88831609999761,100.88831609999761,100.88831609999761,008,P001,2025_Jan_17_1922,ConditionRich,2021.2.3,59.94179651637693,
74.0,74.75,12,0.75,Stimuli/P001/sun_bdxvmnlyovhqognn.jpg,0,0,0.0,0,141,141,141,,,,,,,,,,,,,74.01393600000301,0.01393600000301376,None,,101.12189010000293,101.12189010000293,101.12189010000293,101.12189010000293,101.12189010000293,101.12189010000293,101.12189010000293,101.12189010000293,101.12189010000293,101.12189010000293,008,P001,2025_Jan_17_1922,ConditionRich,2021.2.3,59.94179651637693,
74.75,75.0,41,0.0,Stimuli/Blank.png,0,0,0.0,0,142,142,142,,,,,,,,,,,,,74.78315600000496,0.03315600000496488,None,,101.88923310000246,101.88923310000246,101.88923310000246,101.88923310000246,101.88923310000246,101.88923310000246,101.88923310000246,101.88923310000246,101.88923310000246,101.88923310000246,008,P001,2025_Jan_17_1922,ConditionRich,2021.2.3,59.94179651637693,
75.0,75.75,12,0.75,Stimuli/P001/sun_bdxvmnlyovhqognn.jpg,0,0,0.0,0,143,143,143,,,,,,,,,,,,,75.01455390000046,0.014553900000464637,None,,102.12275719999889,102.12275719999889,102.12275719999889,102.12275719999889,102.12275719999889,102.12275719999889,102.12275719999889,102.12275719999889,102.12275719999889,102.12275719999889,008,P001,2025_Jan_17_1922,ConditionRich,2021.2.3,59.94179651637693,
75.75,76.0,41,0.0,Stimuli/Blank.png,0,0,0.0,0,144,144,144,,,,,,,,,,,,,75.78255750000244,0.032557500002440065,None,,102.87339600000269,102.87339600000269,102.87339600000269,102.87339600000269,102.87339600000269,102.87339600000269,102.87339600000269,102.87339600000269,102.87339600000269,102.87339600000269,008,P001,2025_Jan_17_1922,ConditionRich,2021.2.3,59.94179651637693,
76.0,76.75,2,0.75,Stimuli/P001/sun_akmxsxepquhynflp.jpg,0,0,0.0,0,145,145,145,,,,,,,,,,,,,75.99938430000475,-0.0006156999952509068,None,,103.0902763999984,103.0902763999984,103.0902763999984,103.0902763999984,103.0902763999984,103.0902763999984,103.0902763999984,103.0902763999984,103.0902763999984,103.0902763999984,008,P001,2025_Jan_17_1922,ConditionRich,2021.2.3,59.94179651637693,
76.75,77.0,41,0.0,Stimuli/Blank.png,0,0,0.0,0,146,146,146,,,,,,,,,,,,,76.74956800000655,-0.00043199999345233664,None,,103.84091839999746,103.84091839999746,103.84091839999746,103.84091839999746,103.84091839999746,103.84091839999746,103.84091839999746,103.84091839999746,103.84091839999746,103.84091839999746,008,P001,2025_Jan_17_1922,ConditionRich,2021.2.3,59.94179651637693,
77.0,77.75,2,0.75,Stimuli/P001/sun_akmxsxepquhynflp.jpg,0,0,0.0,0,147,147,147,,,,,,,,,,,,,77.00027340000088,0.0002734000008786097,None,,104.10783419999643,104.10783419999643,104.10783419999643,104.10783419999643,104.10783419999643,104.10783419999643,104.10783419999643,104.10783419999643,104.10783419999643,104.10783419999643,008,P001,2025_Jan_17_1922,ConditionRich,2021.2.3,59.94179651637693,
77.75,78.0,41,0.0,Stimuli/Blank.png,0,0,0.0,0,148,148,148,,,,,,,,,,,,,77.76719490000687,0.01719490000687074,None,,104.85849150000286,104.85849150000286,104.85849150000286,104.85849150000286,104.85849150000286,104.85849150000286,104.85849150000286,104.85849150000286,104.85849150000286,104.85849150000286,008,P001,2025_Jan_17_1922,ConditionRich,2021.2.3,59.94179651637693,
78.0,78.75,2,0.75,Stimuli/P001/sun_akmxsxepquhynflp.jpg,0,0,0.0,0,149,149,149,,,,,,,,,,,,,78.00046720000682,0.00046720000682398677,None,,105.10872019999806,105.10872019999806,105.10872019999806,105.10872019999806,105.10872019999806,105.10872019999806,105.10872019999806,105.10872019999806,105.10872019999806,105.10872019999806,008,P001,2025_Jan_17_1922,ConditionRich,2021.2.3,59.94179651637693,
78.75,79.0,41,0.0,Stimuli/Blank.png,0,0,0.0,0,150,150,150,,,,,,,,,,,,,78.76868690000265,0.018686900002649054,None,,105.85937399999966,105.85937399999966,105.85937399999966,105.85937399999966,105.85937399999966,105.85937399999966,105.85937399999966,105.85937399999966,105.85937399999966,105.85937399999966,008,P001,2025_Jan_17_1922,ConditionRich,2021.2.3,59.94179651637693,
79.0,79.75,2,0.75,Stimuli/P001/sun_akmxsxepquhynflp.jpg,0,0,0.0,0,151,151,151,,,,,,,,,,,,,79.00192150000657,0.001921500006574206,None,,106.09290950000286,106.09290950000286,106.09290950000286,106.09290950000286,106.09290950000286,106.09290950000286,106.09290950000286,106.09290950000286,106.09290950000286,106.09290950000286,008,P001,2025_Jan_17_1922,ConditionRich,2021.2.3,59.94179651637693,
79.75,80.0,41,0.0,Stimuli/Blank.png,0,0,0.0,0,152,152,152,,,,,,,,,,,,,79.75279280000541,0.0027928000054089352,None,,106.84359109999787,106.84359109999787,106.84359109999787,106.84359109999787,106.84359109999787,106.84359109999787,106.84359109999787,106.84359109999787,106.84359109999787,106.84359109999787,008,P001,2025_Jan_17_1922,ConditionRich,2021.2.3,59.94179651637693,
80.0,80.75,40,0.75,Stimuli/P001/things_worm_01b.jpg,0,0,0.0,0,153,153,153,,,,,,,,,,,,,80.00326300000597,0.0032630000059725717,None,,107.1104731000014,107.1104731000014,107.1104731000014,107.1104731000014,107.1104731000014,107.1104731000014,107.1104731000014,107.1104731000014,107.1104731000014,107.1104731000014,008,P001,2025_Jan_17_1922,ConditionRich,2021.2.3,59.94179651637693,
80.75,81.0,41,0.0,Stimuli/Blank.png,0,0,0.0,0,154,154,154,,,,,,,,,,,,,80.77037150000251,0.02037150000251131,None,,107.86120810000284,107.86120810000284,107.86120810000284,107.86120810000284,107.86120810000284,107.86120810000284,107.86120810000284,107.86120810000284,107.86120810000284,107.86120810000284,008,P001,2025_Jan_17_1922,ConditionRich,2021.2.3,59.94179651637693,
81.0,81.75,40,0.75,Stimuli/P001/things_worm_01b.jpg,1,0,0.75,0,155,155,155,,,,,,,,,,,,,81.00437100000272,0.004371000002720393,3,0.4393560999960755,108.11136019999685,108.11136019999685,108.11136019999685,108.11136019999685,108.11136019999685,108.11136019999685,108.11136019999685,108.82866150000336,108.11136019999685,108.11136019999685,008,P001,2025_Jan_17_1922,ConditionRich,2021.2.3,59.94179651637693,
81.75,82.0,41,0.0,Stimuli/Blank.png,0,0,0.0,0,156,156,156,,,,,,,,,,,,,81.77319490000082,0.023194900000817142,5,0.1857951999991201,108.87870970000222,108.87870970000222,108.87870970000222,108.87870970000222,108.87870970000222,108.87870970000222,108.87870970000222,108.87870970000222,108.87870970000222,108.87870970000222,008,P001,2025_Jan_17_1922,ConditionRich,2021.2.3,59.94179651637693,
82.0,82.75,40,0.75,Stimuli/P001/things_worm_01b.jpg,0,0,0.0,0,157,157,157,,,,,,,,,,,,,82.02354300000297,0.023543000002973713,None,,109.12893269999768,109.12893269999768,109.12893269999768,109.12893269999768,109.12893269999768,109.12893269999768,109.12893269999768,109.12893269999768,109.12893269999768,109.12893269999768,008,P001,2025_Jan_17_1922,ConditionRich,2021.2.3,59.94179651637693,
82.75,83.0,41,0.0,Stimuli/Blank.png,0,0,0.0,0,158,158,158,,,,,,,,,,,,,82.77413060000254,0.024130600002536085,None,,109.87956629999826,109.87956629999826,109.87956629999826,109.87956629999826,109.87956629999826,109.87956629999826,109.87956629999826,109.87956629999826,109.87956629999826,109.87956629999826,008,P001,2025_Jan_17_1922,ConditionRich,2021.2.3,59.94179651637693,
83.0,83.75,40,0.75,Stimuli/P001/things_worm_01b.jpg,0,0,0.0,0,159,159,159,,,,,,,,,,,,,83.02228600000672,0.022286000006715767,None,,110.12981189999846,110.12981189999846,110.12981189999846,110.12981189999846,110.12981189999846,110.12981189999846,110.12981189999846,110.12981189999846,110.12981189999846,110.12981189999846,008,P001,2025_Jan_17_1922,ConditionRich,2021.2.3,59.94179651637693,
83.75,84.0,41,0.0,Stimuli/Blank.png,0,0,0.0,0,160,160,160,,,,,,,,,,,,,83.77405930000532,0.02405930000531953,5,0.200583199999528,110.86380970000027,110.86380970000027,110.86380970000027,110.86380970000027,110.86380970000027,110.86380970000027,110.86380970000027,110.86380970000027,110.86380970000027,110.86380970000027,008,P001,2025_Jan_17_1922,ConditionRich,2021.2.3,59.94179651637693,
84.0,100.0,0,0.0,Stimuli/Blank.png,1,7,7.75,0,161,161,161,,,,,,,,,,,,,84.00596600000426,0.00596600000426406,5,13.967168099996343,111.09733810000034,111.09733810000034,111.09733810000034,111.09733810000034,111.09733810000034,111.09733810000034,118.08688010000333,118.83753309999884,111.09733810000034,111.09733810000034,008,P001,2025_Jan_17_1922,ConditionRich,2021.2.3,59.94179651637693,
100.0,100.75,11,0.75,Stimuli/P001/sun_bbfdgdyeqdnadvvi.jpg,0,0,0.0,0,162,162,162,,,,,,,,,,,,,100.00372860000061,0.003728600000613369,None,,127.09480459999759,127.09480459999759,127.09480459999759,127.09480459999759,127.09480459999759,127.09480459999759,127.09480459999759,127.09480459999759,127.09480459999759,127.09480459999759,008,P001,2025_Jan_17_1922,ConditionRich,2021.2.3,59.94179651637693,
100.75,101.0,41,0.0,Stimuli/Blank.png,0,0,0.0,0,163,163,163,,,,,,,,,,,,,100.75408030000108,0.004080300001078285,None,,127.84546810000029,127.84546810000029,127.84546810000029,127.84546810000029,127.84546810000029,127.84546810000029,127.84546810000029,127.84546810000029,127.84546810000029,127.84546810000029,008,P001,2025_Jan_17_1922,ConditionRich,2021.2.3,59.94179651637693,
101.0,101.75,11,0.75,Stimuli/P001/sun_bbfdgdyeqdnadvvi.jpg,0,0,0.0,0,164,164,164,,,,,,,,,,,,,101.00419570000668,0.0041957000066759065,None,,128.09569770000235,128.09569770000235,128.09569770000235,128.09569770000235,128.09569770000235,128.09569770000235,128.09569770000235,128.09569770000235,128.09569770000235,128.09569770000235,008,P001,2025_Jan_17_1922,ConditionRich,2021.2.3,59.94179651637693,
101.75,102.0,41,0.0,Stimuli/Blank.png,0,0,0.0,0,165,165,165,,,,,,,,,,,,,101.75531480000063,0.005314800000633113,5,0.21802999999636086,128.84645959999762,128.84645959999762,128.84645959999762,128.84645959999762,128.84645959999762,128.84645959999762,128.84645959999762,128.84645959999762,128.84645959999762,128.84645959999762,008,P001,2025_Jan_17_1922,ConditionRich,2021.2.3,59.94179651637693,
102.0,102.75,11,0.75,Stimuli/P001/sun_bbfdgdyeqdnadvvi.jpg,0,0,0.0,0,166,166,166,,,,,,,,,,,,,102.00556290000532,0.005562900005315896,None,,129.09657159999915,129.09657159999915,129.09657159999915,129.09657159999915,129.09657159999915,129.09657159999915,129.09657159999915,129.09657159999915,129.09657159999915,129.09657159999915,008,P001,2025_Jan_17_1922,ConditionRich,2021.2.3,59.94179651637693,
102.75,103.0,41,0.0,Stimuli/Blank.png,0,0,0.0,0,167,167,167,,,,,,,,,,,,,102.75814670000545,0.008146700005454477,None,,129.86392489999707,129.86392489999707,129.86392489999707,129.86392489999707,129.86392489999707,129.86392489999707,129.86392489999707,129.86392489999707,129.86392489999707,129.86392489999707,008,P001,2025_Jan_17_1922,ConditionRich,2021.2.3,59.94179651637693,
103.0,103.75,11,0.75,Stimuli/P001/sun_bbfdgdyeqdnadvvi.jpg,0,0,0.0,0,168,168,168,,,,,,,,,,,,,103.02354560000094,0.023545600000943523,None,,130.13084340000205,130.13084340000205,130.13084340000205,130.13084340000205,130.13084340000205,130.13084340000205,130.13084340000205,130.13084340000205,130.13084340000205,130.13084340000205,008,P001,2025_Jan_17_1922,ConditionRich,2021.2.3,59.94179651637693,
103.75,104.0,41,0.0,Stimuli/Blank.png,0,0,0.0,0,169,169,169,,,,,,,,,,,,,103.77461710000352,0.024617100003524683,5,0.1829074999986915,130.88150090000272,130.88150090000272,130.88150090000272,130.88150090000272,130.88150090000272,130.88150090000272,130.88150090000272,130.88150090000272,130.88150090000272,130.88150090000272,008,P001,2025_Jan_17_1922,ConditionRich,2021.2.3,59.94179651637693,
104.0,104.75,14,0.75,Stimuli/P001/sun_bfgxassmmvhtarcc.jpg,0,0,0.0,0,170,170,170,,,,,,,,,,,,,104.02341190000152,0.023411900001519825,None,,131.11502769999788,131.11502769999788,131.11502769999788,131.11502769999788,131.11502769999788,131.11502769999788,131.11502769999788,131.11502769999788,131.11502769999788,131.11502769999788,008,P001,2025_Jan_17_1922,ConditionRich,2021.2.3,59.94179651637693,
104.75,105.0,41,0.0,Stimuli/Blank.png,0,0,0.0,0,171,171,171,,,,,,,,,,,,,104.75842400000693,0.00842400000692578,None,,131.84901559999707,131.84901559999707,131.84901559999707,131.84901559999707,131.84901559999707,131.84901559999707,131.84901559999707,131.84901559999707,131.84901559999707,131.84901559999707,008,P001,2025_Jan_17_1922,ConditionRich,2021.2.3,59.94179651637693,
105.0,105.75,14,0.75,Stimuli/P001/sun_bfgxassmmvhtarcc.jpg,0,0,0.0,0,172,172,172,,,,,,,,,,,,,105.00850760000321,0.008507600003213156,None,,132.11593529999664,132.11593529999664,132.11593529999664,132.11593529999664,132.11593529999664,132.11593529999664,132.11593529999664,132.11593529999664,132.11593529999664,132.11593529999664,008,P001,2025_Jan_17_1922,ConditionRich,2021.2.3,59.94179651637693,
105.75,106.0,41,0.0,Stimuli/Blank.png,0,0,0.0,0,173,173,173,,,,,,,,,,,,,105.77574820000154,0.02574820000154432,5,0.19790420000208542,132.86664670000027,132.86664670000027,132.86664670000027,132.86664670000027,132.86664670000027,132.86664670000027,132.86664670000027,132.86664670000027,132.86664670000027,132.86664670000027,008,P001,2025_Jan_17_1922,ConditionRich,2021.2.3,59.94179651637693,
106.0,106.75,14,0.75,Stimuli/P001/sun_bfgxassmmvhtarcc.jpg,0,0,0.0,0,174,174,174,,,,,,,,,,,,,106.00876280000375,0.008762800003751181,None,,133.1001311,133.1001311,133.1001311,133.1001311,133.1001311,133.1001311,133.1001311,133.1001311,133.1001311,133.1001311,008,P001,2025_Jan_17_1922,ConditionRich,2021.2.3,59.94179651637693,
106.75,107.0,41,0.0,Stimuli/Blank.png,0,0,0.0,0,175,175,175,,,,,,,,,,,,,106.75947900000028,0.009479000000283122,None,,133.85077420000016,133.85077420000016,133.85077420000016,133.85077420000016,133.85077420000016,133.85077420000016,133.85077420000016,133.85077420000016,133.85077420000016,133.85077420000016,008,P001,2025_Jan_17_1922,ConditionRich,2021.2.3,59.94179651637693,
107.0,107.75,14,0.75,Stimuli/P001/sun_bfgxassmmvhtarcc.jpg,0,0,0.0,0,176,176,176,,,,,,,,,,,,,107.0095208000057,0.009520800005702768,None,,134.10101240000222,134.10101240000222,134.10101240000222,134.10101240000222,134.10101240000222,134.10101240000222,134.10101240000222,134.10101240000222,134.10101240000222,134.10101240000222,008,P001,2025_Jan_17_1922,ConditionRich,2021.2.3,59.94179651637693,
107.75,108.0,41,0.0,Stimuli/Blank.png,0,0,0.0,0,177,177,177,,,,,,,,,,,,,107.7605651000049,0.010565100004896522,5,0.21282020000217017,134.85166069999832,134.85166069999832,134.85166069999832,134.85166069999832,134.85166069999832,134.85166069999832,134.85166069999832,134.85166069999832,134.85166069999832,134.85166069999832,008,P001,2025_Jan_17_1922,ConditionRich,2021.2.3,59.94179651637693,
108.0,108.75,25,0.75,Stimuli/P001/things_curry_01b.jpg,0,0,0.0,0,178,178,178,,,,,,,,,,,,,108.0107163000066,0.010716300006606616,None,,135.10187849999784,135.10187849999784,135.10187849999784,135.10187849999784,135.10187849999784,135.10187849999784,135.10187849999784,135.10187849999784,135.10187849999784,135.10187849999784,008,P001,2025_Jan_17_1922,ConditionRich,2021.2.3,59.94179651637693,
108.75,109.0,41,0.0,Stimuli/Blank.png,0,0,0.0,0,179,179,179,,,,,,,,,,,,,108.76321960000496,0.01321960000495892,None,,135.86923099999694,135.86923099999694,135.86923099999694,135.86923099999694,135.86923099999694,135.86923099999694,135.86923099999694,135.86923099999694,135.86923099999694,135.86923099999694,008,P001,2025_Jan_17_1922,ConditionRich,2021.2.3,59.94179651637693,
109.0,109.75,25,0.75,Stimuli/P001/things_curry_01b.jpg,0,0,0.0,0,180,180,180,,,,,,,,,,,,,109.02891060000547,0.028910600005474407,None,,136.1361543000021,136.1361543000021,136.1361543000021,136.1361543000021,136.1361543000021,136.1361543000021,136.1361543000021,136.1361543000021,136.1361543000021,136.1361543000021,008,P001,2025_Jan_17_1922,ConditionRich,2021.2.3,59.94179651637693,
109.75,110.0,41,0.0,Stimuli/Blank.png,0,0,0.0,0,181,181,181,,,,,,,,,,,,,109.77882330000284,0.02882330000284128,5,0.1947232999955304,136.87009090000356,136.87009090000356,136.87009090000356,136.87009090000356,136.87009090000356,136.87009090000356,136.87009090000356,136.87009090000356,136.87009090000356,136.87009090000356,008,P001,2025_Jan_17_1922,ConditionRich,2021.2.3,59.94179651637693,
110.0,110.75,25,0.75,Stimuli/P001/things_curry_01b.jpg,0,0,0.0,0,182,182,182,,,,,,,,,,,,,110.0135220000011,0.013522000001103152,None,,137.12033489999885,137.12033489999885,137.12033489999885,137.12033489999885,137.12033489999885,137.12033489999885,137.12033489999885,137.12033489999885,137.12033489999885,137.12033489999885,008,P001,2025_Jan_17_1922,ConditionRich,2021.2.3,59.94179651637693,
110.75,111.0,41,0.0,Stimuli/Blank.png,0,0,0.0,0,183,183,183,,,,,,,,,,,,,110.78029340000649,0.03029340000648517,None,,137.87099070000113,137.87099070000113,137.87099070000113,137.87099070000113,137.87099070000113,137.87099070000113,137.87099070000113,137.87099070000113,137.87099070000113,137.87099070000113,008,P001,2025_Jan_17_1922,ConditionRich,2021.2.3,59.94179651637693,
111.0,111.75,25,0.75,Stimuli/P001/things_curry_01b.jpg,0,0,0.0,0,184,184,184,,,,,,,,,,,,,111.01395270000648,0.01395270000648452,None,,138.12123879999854,138.12123879999854,138.12123879999854,138.12123879999854,138.12123879999854,138.12123879999854,138.12123879999854,138.12123879999854,138.12123879999854,138.12123879999854,008,P001,2025_Jan_17_1922,ConditionRich,2021.2.3,59.94179651637693,
111.75,112.0,41,0.0,Stimuli/Blank.png,0,0,0.0,0,185,185,185,,,,,,,,,,,,,111.78057970000373,0.03057970000372734,5,0.1927267999999458,138.87188639999658,138.87188639999658,138.87188639999658,138.87188639999658,138.87188639999658,138.87188639999658,138.87188639999658,138.87188639999658,138.87188639999658,138.87188639999658,008,P001,2025_Jan_17_1922,ConditionRich,2021.2.3,59.94179651637693,
112.0,112.75,15,0.75,Stimuli/P001/sun_bfzoxbkvsfqxsyle.jpg,1,0,0.75,0,186,186,186,,,,,,,,,,,,,112.01457450000453,0.01457450000452809,3,0.36808169999858364,139.105418799998,139.105418799998,139.105418799998,139.105418799998,139.105418799998,139.105418799998,139.105418799998,139.83940370000346,139.105418799998,139.105418799998,008,P001,2025_Jan_17_1922,ConditionRich,2021.2.3,59.94179651637693,
112.75,113.0,41,0.0,Stimuli/Blank.png,0,0,0.0,0,187,187,187,,,,,,,,,,,,,112.76491740000347,0.014917400003469083,None,,139.85608050000155,139.85608050000155,139.85608050000155,139.85608050000155,139.85608050000155,139.85608050000155,139.85608050000155,139.85608050000155,139.85608050000155,139.85608050000155,008,P001,2025_Jan_17_1922,ConditionRich,2021.2.3,59.94179651637693,
113.0,113.75,15,0.75,Stimuli/P001/sun_bfzoxbkvsfqxsyle.jpg,0,0,0.0,0,188,188,188,,,,,,,,,,,,,113.01504820000264,0.015048200002638623,None,,140.12299260000145,140.12299260000145,140.12299260000145,140.12299260000145,140.12299260000145,140.12299260000145,140.12299260000145,140.12299260000145,140.12299260000145,140.12299260000145,008,P001,2025_Jan_17_1922,ConditionRich,2021.2.3,59.94179651637693,
113.75,114.0,41,0.0,Stimuli/Blank.png,0,0,0.0,0,189,189,189,,,,,,,,,,,,,113.7681148000047,0.018114800004696008,5,0.1908490999994683,140.87365590000263,140.87365590000263,140.87365590000263,140.87365590000263,140.87365590000263,140.87365590000263,140.87365590000263,140.87365590000263,140.87365590000263,140.87365590000263,008,P001,2025_Jan_17_1922,ConditionRich,2021.2.3,59.94179651637693,
114.0,114.75,15,0.75,Stimuli/P001/sun_bfzoxbkvsfqxsyle.jpg,0,0,0.0,0,190,190,190,,,,,,,,,,,,,114.01630650000152,0.016306500001519453,None,,141.10719039999822,141.10719039999822,141.10719039999822,141.10719039999822,141.10719039999822,141.10719039999822,141.10719039999822,141.10719039999822,141.10719039999822,141.10719039999822,008,P001,2025_Jan_17_1922,ConditionRich,2021.2.3,59.94179651637693,
114.75,115.0,41,0.0,Stimuli/Blank.png,0,0,0.0,0,191,191,191,,,,,,,,,,,,,114.74947870000324,-0.0005212999967625365,None,,141.84117539999716,141.84117539999716,141.84117539999716,141.84117539999716,141.84117539999716,141.84117539999716,141.84117539999716,141.84117539999716,141.84117539999716,141.84117539999716,008,P001,2025_Jan_17_1922,ConditionRich,2021.2.3,59.94179651637693,
115.0,115.75,15,0.75,Stimuli/P001/sun_bfzoxbkvsfqxsyle.jpg,0,0,0.0,0,192,192,192,,,,,,,,,,,,,114.99987270000565,-0.0001272999943466857,None,,142.10808410000027,142.10808410000027,142.10808410000027,142.10808410000027,142.10808410000027,142.10808410000027,142.10808410000027,142.10808410000027,142.10808410000027,142.10808410000027,008,P001,2025_Jan_17_1922,ConditionRich,2021.2.3,59.94179651637693,
115.75,116.0,41,0.0,Stimuli/Blank.png,0,0,0.0,0,193,193,193,,,,,,,,,,,,,115.76778650000051,0.017786500000511296,None,,142.8587389000022,142.8587389000022,142.8587389000022,142.8587389000022,142.8587389000022,142.8587389000022,142.8587389000022,142.8587389000022,142.8587389000022,142.8587389000022,008,P001,2025_Jan_17_1922,ConditionRich,2021.2.3,59.94179651637693,
116.0,116.75,10,0.75,Stimuli/P001/sun_aykefnhciwsffcrj.jpg,0,0,0.0,0,194,194,194,,,,,,,,,,,,,116.00199050000083,0.0019905000008293428,None,,143.0922802999994,143.0922802999994,143.0922802999994,143.0922802999994,143.0922802999994,143.0922802999994,143.0922802999994,143.0922802999994,143.0922802999994,143.0922802999994,008,P001,2025_Jan_17_1922,ConditionRich,2021.2.3,59.94179651637693,
116.75,117.0,41,0.0,Stimuli/Blank.png,0,0,0.0,0,195,195,195,,,,,,,,,,,,,116.7532782000053,0.003278200005297549,None,,143.8596514000019,143.8596514000019,143.8596514000019,143.8596514000019,143.8596514000019,143.8596514000019,143.8596514000019,143.8596514000019,143.8596514000019,143.8596514000019,008,P001,2025_Jan_17_1922,ConditionRich,2021.2.3,59.94179651637693,
117.0,117.75,10,0.75,Stimuli/P001/sun_aykefnhciwsffcrj.jpg,0,0,0.0,0,196,196,196,,,,,,,,,,,,,117.01978800000506,0.019788000005064532,None,,144.12651989999722,144.12651989999722,144.12651989999722,144.12651989999722,144.12651989999722,144.12651989999722,144.12651989999722,144.12651989999722,144.12651989999722,144.12651989999722,008,P001,2025_Jan_17_1922,ConditionRich,2021.2.3,59.94179651637693,
117.75,118.0,41,0.0,Stimuli/Blank.png,0,0,0.0,0,197,197,197,,,,,,,,,,,,,117.76917920000415,0.01917920000414597,None,,144.8604875000019,144.8604875000019,144.8604875000019,144.8604875000019,144.8604875000019,144.8604875000019,144.8604875000019,144.8604875000019,144.8604875000019,144.8604875000019,008,P001,2025_Jan_17_1922,ConditionRich,2021.2.3,59.94179651637693,
118.0,118.75,10,0.75,Stimuli/P001/sun_aykefnhciwsffcrj.jpg,0,0,0.0,0,198,198,198,,,,,,,,,,,,,118.00237390000257,0.0023739000025670975,None,,145.09402229999978,145.09402229999978,145.09402229999978,145.09402229999978,145.09402229999978,145.09402229999978,145.09402229999978,145.09402229999978,145.09402229999978,145.09402229999978,008,P001,2025_Jan_17_1922,ConditionRich,2021.2.3,59.94179651637693,
118.75,119.0,41,0.0,Stimuli/Blank.png,0,0,0.0,0,199,199,199,,,,,,,,,,,,,118.75439620000543,0.004396200005430728,None,,145.86141309999948,145.86141309999948,145.86141309999948,145.86141309999948,145.86141309999948,145.86141309999948,145.86141309999948,145.86141309999948,145.86141309999948,145.86141309999948,008,P001,2025_Jan_17_1922,ConditionRich,2021.2.3,59.94179651637693,
119.0,119.75,10,0.75,Stimuli/P001/sun_aykefnhciwsffcrj.jpg,1,0,0.75,0,200,200,200,,,,,,,,,,,,,119.02004170000146,0.020041700001456775,3,0.44020199999795295,146.12830140000005,146.12830140000005,146.12830140000005,146.12830140000005,146.12830140000005,146.12830140000005,146.12830140000005,146.8455854999993,146.12830140000005,146.12830140000005,008,P001,2025_Jan_17_1922,ConditionRich,2021.2.3,59.94179651637693,
119.75,120.0,41,0.0,Stimuli/Blank.png,0,0,0.0,0,201,201,201,,,,,,,,,,,,,119.77059490000102,0.02059490000101505,None,,146.8622755000033,146.8622755000033,146.8622755000033,146.8622755000033,146.8622755000033,146.8622755000033,146.8622755000033,146.8622755000033,146.8622755000033,146.8622755000033,008,P001,2025_Jan_17_1922,ConditionRich,2021.2.3,59.94179651637693,
120.0,120.75,30,0.75,Stimuli/P001/things_iguana_01b.jpg,0,0,0.0,0,202,202,202,,,,,,,,,,,,,120.00463400000444,0.004634000004443806,None,,147.11247269999876,147.11247269999876,147.11247269999876,147.11247269999876,147.11247269999876,147.11247269999876,147.11247269999876,147.11247269999876,147.11247269999876,147.11247269999876,008,P001,2025_Jan_17_1922,ConditionRich,2021.2.3,59.94179651637693,
120.75,121.0,41,0.0,Stimuli/Blank.png,0,0,0.0,0,203,203,203,,,,,,,,,,,,,120.77182270000048,0.021822700000484474,None,,147.86316200000147,147.86316200000147,147.86316200000147,147.86316200000147,147.86316200000147,147.86316200000147,147.86316200000147,147.86316200000147,147.86316200000147,147.86316200000147,008,P001,2025_Jan_17_1922,ConditionRich,2021.2.3,59.94179651637693,
121.0,121.75,30,0.75,Stimuli/P001/things_iguana_01b.jpg,0,0,0.0,0,204,204,204,,,,,,,,,,,,,121.00798830000713,0.007988300007127691,None,,148.11339769999904,148.11339769999904,148.11339769999904,148.11339769999904,148.11339769999904,148.11339769999904,148.11339769999904,148.11339769999904,148.11339769999904,148.11339769999904,008,P001,2025_Jan_17_1922,ConditionRich,2021.2.3,59.94179651637693,
121.75,122.0,41,0.0,Stimuli/Blank.png,0,0,0.0,0,205,205,205,,,,,,,,,,,,,121.77359300000535,0.023593000005348586,5,0.20039420000102837,148.86405009999726,148.86405009999726,148.86405009999726,148.86405009999726,148.86405009999726,148.86405009999726,148.86405009999726,148.86405009999726,148.86405009999726,148.86405009999726,008,P001,2025_Jan_17_1922,ConditionRich,2021.2.3,59.94179651637693,
122.0,122.75,30,0.75,Stimuli/P001/things_iguana_01b.jpg,0,0,0.0,0,206,206,206,,,,,,,,,,,,,122.00671940000029,0.006719400000292808,None,,149.09758889999648,149.09758889999648,149.09758889999648,149.09758889999648,149.09758889999648,149.09758889999648,149.09758889999648,149.09758889999648,149.09758889999648,149.09758889999648,008,P001,2025_Jan_17_1922,ConditionRich,2021.2.3,59.94179651637693,
122.75,123.0,41,0.0,Stimuli/Blank.png,0,0,0.0,0,207,207,207,,,,,,,,,,,,,122.7567926000047,0.006792600004700944,None,,149.84824820000358,149.84824820000358,149.84824820000358,149.84824820000358,149.84824820000358,149.84824820000358,149.84824820000358,149.84824820000358,149.84824820000358,149.84824820000358,008,P001,2025_Jan_17_1922,ConditionRich,2021.2.3,59.94179651637693,
123.0,123.75,30,0.75,Stimuli/P001/things_iguana_01b.jpg,0,0,0.0,0,208,208,208,,,,,,,,,,,,,123.0080495000002,0.00804950000019744,None,,150.11516010000196,150.11516010000196,150.11516010000196,150.11516010000196,150.11516010000196,150.11516010000196,150.11516010000196,150.11516010000196,150.11516010000196,150.11516010000196,008,P001,2025_Jan_17_1922,ConditionRich,2021.2.3,59.94179651637693,
123.75,124.0,41,0.0,Stimuli/Blank.png,0,0,0.0,0,209,209,209,,,,,,,,,,,,,123.77439210000011,0.024392100000113714,5,0.19872929999837652,150.8658310000028,150.8658310000028,150.8658310000028,150.8658310000028,150.8658310000028,150.8658310000028,150.8658310000028,150.8658310000028,150.8658310000028,150.8658310000028,008,P001,2025_Jan_17_1922,ConditionRich,2021.2.3,59.94179651637693,
124.0,124.75,3,0.75,Stimuli/P001/sun_amarqtinchblqmah.jpg,0,0,0.0,0,210,210,210,,,,,,,,,,,,,124.00866130000213,0.008661300002131611,None,,151.1160361000002,151.1160361000002,151.1160361000002,151.1160361000002,151.1160361000002,151.1160361000002,151.1160361000002,151.1160361000002,151.1160361000002,151.1160361000002,008,P001,2025_Jan_17_1922,ConditionRich,2021.2.3,59.94179651637693,
124.75,125.0,41,0.0,Stimuli/Blank.png,0,0,0.0,0,211,211,211,,,,,,,,,,,,,124.7756495000067,0.025649500006693415,None,,151.86670199999935,151.86670199999935,151.86670199999935,151.86670199999935,151.86670199999935,151.86670199999935,151.86670199999935,151.86670199999935,151.86670199999935,151.86670199999935,008,P001,2025_Jan_17_1922,ConditionRich,2021.2.3,59.94179651637693,
125.0,125.75,3,0.75,Stimuli/P001/sun_amarqtinchblqmah.jpg,0,0,0.0,0,212,212,212,,,,,,,,,,,,,125.00938430000679,0.009384300006786361,None,,152.1002931999974,152.1002931999974,152.1002931999974,152.1002931999974,152.1002931999974,152.1002931999974,152.1002931999974,152.1002931999974,152.1002931999974,152.1002931999974,008,P001,2025_Jan_17_1922,ConditionRich,2021.2.3,59.94179651637693,
125.75,126.0,41,0.0,Stimuli/Blank.png,0,0,0.0,0,213,213,213,,,,,,,,,,,,,125.76017090000096,0.010170900000957772,5,0.21348630000284174,152.85090320000018,152.85090320000018,152.85090320000018,152.85090320000018,152.85090320000018,152.85090320000018,152.85090320000018,152.85090320000018,152.85090320000018,152.85090320000018,008,P001,2025_Jan_17_1922,ConditionRich,2021.2.3,59.94179651637693,
126.0,126.75,3,0.75,Stimuli/P001/sun_amarqtinchblqmah.jpg,0,0,0.0,0,214,214,214,,,,,,,,,,,,,126.00963810000394,0.009638100003940053,None,,153.10112590000062,153.10112590000062,153.10112590000062,153.10112590000062,153.10112590000062,153.10112590000062,153.10112590000062,153.10112590000062,153.10112590000062,153.10112590000062,008,P001,2025_Jan_17_1922,ConditionRich,2021.2.3,59.94179651637693,
126.75,127.0,41,0.0,Stimuli/Blank.png,0,0,0.0,0,215,215,215,,,,,,,,,,,,,126.76033710000047,0.010337100000469945,None,,153.85178740000265,153.85178740000265,153.85178740000265,153.85178740000265,153.85178740000265,153.85178740000265,153.85178740000265,153.85178740000265,153.85178740000265,153.85178740000265,008,P001,2025_Jan_17_1922,ConditionRich,2021.2.3,59.94179651637693,
127.0,127.75,3,0.75,Stimuli/P001/sun_amarqtinchblqmah.jpg,0,0,0.0,0,216,216,216,,,,,,,,,,,,,127.01280950000364,0.012809500003641006,None,,154.11872279999807,154.11872279999807,154.11872279999807,154.11872279999807,154.11872279999807,154.11872279999807,154.11872279999807,154.11872279999807,154.11872279999807,154.11872279999807,008,P001,2025_Jan_17_1922,ConditionRich,2021.2.3,59.94179651637693,
127.75,128.0,41,0.0,Stimuli/Blank.png,0,0,0.0,0,217,217,217,,,,,,,,,,,,,127.77854300000035,0.028543000000354368,5,0.19525939999584807,154.86935600000288,154.86935600000288,154.86935600000288,154.86935600000288,154.86935600000288,154.86935600000288,154.86935600000288,154.86935600000288,154.86935600000288,154.86935600000288,008,P001,2025_Jan_17_1922,ConditionRich,2021.2.3,59.94179651637693,
128.0,128.75,16,0.75,Stimuli/P001/sun_biqyomkjbujnppuf.jpg,0,0,0.0,0,218,218,218,,,,,,,,,,,,,128.0121466000055,0.012146600005507935,None,,155.10289500000363,155.10289500000363,155.10289500000363,155.10289500000363,155.10289500000363,155.10289500000363,155.10289500000363,155.10289500000363,155.10289500000363,155.10289500000363,008,P001,2025_Jan_17_1922,ConditionRich,2021.2.3,59.94179651637693,
128.75,129.0,41,0.0,Stimuli/Blank.png,0,0,0.0,0,219,219,219,,,,,,,,,,,,,128.76283690000128,0.012836900001275353,None,,155.85356440000032,155.85356440000032,155.85356440000032,155.85356440000032,155.85356440000032,155.85356440000032,155.85356440000032,155.85356440000032,155.85356440000032,155.85356440000032,008,P001,2025_Jan_17_1922,ConditionRich,2021.2.3,59.94179651637693,
129.0,129.75,16,0.75,Stimuli/P001/sun_biqyomkjbujnppuf.jpg,0,0,0.0,0,220,220,220,,,,,,,,,,,,,129.01282370000263,0.012823700002627447,None,,156.10378930000297,156.10378930000297,156.10378930000297,156.10378930000297,156.10378930000297,156.10378930000297,156.10378930000297,156.10378930000297,156.10378930000297,156.10378930000297,008,P001,2025_Jan_17_1922,ConditionRich,2021.2.3,59.94179651637693,
129.75,130.0,41,0.0,Stimuli/Blank.png,0,0,0.0,0,221,221,221,,,,,,,,,,,,,129.76367370000662,0.013673700006620493,5,0.21032209999975748,156.85443870000017,156.85443870000017,156.85443870000017,156.85443870000017,156.85443870000017,156.85443870000017,156.85443870000017,156.85443870000017,156.85443870000017,156.85443870000017,008,P001,2025_Jan_17_1922,ConditionRich,2021.2.3,59.94179651637693,
130.0,130.75,16,0.75,Stimuli/P001/sun_biqyomkjbujnppuf.jpg,0,0,0.0,0,222,222,222,,,,,,,,,,,,,130.0137551000007,0.013755100000707898,None,,157.12134649999643,157.12134649999643,157.12134649999643,157.12134649999643,157.12134649999643,157.12134649999643,157.12134649999643,157.12134649999643,157.12134649999643,157.12134649999643,008,P001,2025_Jan_17_1922,ConditionRich,2021.2.3,59.94179651637693,
130.75,131.0,41,0.0,Stimuli/Blank.png,0,0,0.0,0,223,223,223,,,,,,,,,,,,,130.78305820000242,0.033058200002415106,None,,157.88868930000172,157.88868930000172,157.88868930000172,157.88868930000172,157.88868930000172,157.88868930000172,157.88868930000172,157.88868930000172,157.88868930000172,157.88868930000172,008,P001,2025_Jan_17_1922,ConditionRich,2021.2.3,59.94179651637693,
131.0,131.75,16,0.75,Stimuli/P001/sun_biqyomkjbujnppuf.jpg,0,0,0.0,0,224,224,224,,,,,,,,,,,,,131.01464850000048,0.014648500000475906,None,,158.10554499999853,158.10554499999853,158.10554499999853,158.10554499999853,158.10554499999853,158.10554499999853,158.10554499999853,158.10554499999853,158.10554499999853,158.10554499999853,008,P001,2025_Jan_17_1922,ConditionRich,2021.2.3,59.94179651637693,
131.75,132.0,41,0.0,Stimuli/Blank.png,0,0,0.0,0,225,225,225,,,,,,,,,,,,,131.76466160000564,0.01466160000563832,5,0.20878810000431258,158.85621019999962,158.85621019999962,158.85621019999962,158.85621019999962,158.85621019999962,158.85621019999962,158.85621019999962,158.85621019999962,158.85621019999962,158.85621019999962,008,P001,2025_Jan_17_1922,ConditionRich,2021.2.3,59.94179651637693,
132.0,132.75,7,0.75,Stimuli/P001/sun_arlesyjqxmqmcccl.jpg,0,0,0.0,0,226,226,226,,,,,,,,,,,,,132.0147647000049,0.014764700004889164,None,,159.1064391999971,159.1064391999971,159.1064391999971,159.1064391999971,159.1064391999971,159.1064391999971,159.1064391999971,159.1064391999971,159.1064391999971,159.1064391999971,008,P001,2025_Jan_17_1922,ConditionRich,2021.2.3,59.94179651637693,
132.75,133.0,41,0.0,Stimuli/Blank.png,0,0,0.0,0,227,227,227,,,,,,,,,,,,,132.76846910000313,0.018469100003130734,None,,159.87379859999783,159.87379859999783,159.87379859999783,159.87379859999783,159.87379859999783,159.87379859999783,159.87379859999783,159.87379859999783,159.87379859999783,159.87379859999783,008,P001,2025_Jan_17_1922,ConditionRich,2021.2.3,59.94179651637693,
133.0,133.75,7,0.75,Stimuli/P001/sun_arlesyjqxmqmcccl.jpg,0,0,0.0,0,228,228,228,,,,,,,,,,,,,133.01793760000146,0.01793760000145994,None,,160.1240117999987,160.1240117999987,160.1240117999987,160.1240117999987,160.1240117999987,160.1240117999987,160.1240117999987,160.1240117999987,160.1240117999987,160.1240117999987,008,P001,2025_Jan_17_1922,ConditionRich,2021.2.3,59.94179651637693,
133.75,134.0,41,0.0,Stimuli/Blank.png,0,0,0.0,0,229,229,229,,,,,,,,,,,,,133.76932500000112,0.019325000001117587,5,0.19001149999530753,160.8747293999986,160.8747293999986,160.8747293999986,160.8747293999986,160.8747293999986,160.8747293999986,160.8747293999986,160.8747293999986,160.8747293999986,160.8747293999986,008,P001,2025_Jan_17_1922,ConditionRich,2021.2.3,59.94179651637693,
134.0,134.75,7,0.75,Stimuli/P001/sun_arlesyjqxmqmcccl.jpg,0,0,0.0,0,230,230,230,,,,,,,,,,,,,134.01686390000395,0.016863900003954768,None,,161.1082030999969,161.1082030999969,161.1082030999969,161.1082030999969,161.1082030999969,161.1082030999969,161.1082030999969,161.1082030999969,161.1082030999969,161.1082030999969,008,P001,2025_Jan_17_1922,ConditionRich,2021.2.3,59.94179651637693,
134.75,135.0,41,0.0,Stimuli/Blank.png,0,0,0.0,0,231,231,231,,,,,,,,,,,,,134.75304900000629,0.003049000006285496,None,,161.85887289999664,161.85887289999664,161.85887289999664,161.85887289999664,161.85887289999664,161.85887289999664,161.85887289999664,161.85887289999664,161.85887289999664,161.85887289999664,008,P001,2025_Jan_17_1922,ConditionRich,2021.2.3,59.94179651637693,
135.0,135.75,7,0.75,Stimuli/P001/sun_arlesyjqxmqmcccl.jpg,0,0,0.0,0,232,232,232,,,,,,,,,,,,,135.0185425000018,0.01854250000178581,None,,162.12579600000026,162.12579600000026,162.12579600000026,162.12579600000026,162.12579600000026,162.12579600000026,162.12579600000026,162.12579600000026,162.12579600000026,162.12579600000026,008,P001,2025_Jan_17_1922,ConditionRich,2021.2.3,59.94179651637693,
135.75,136.0,41,0.0,Stimuli/Blank.png,0,0,0.0,0,233,233,233,,,,,,,,,,,,,135.76945720000367,0.01945720000367146,5,0.18800470000132918,162.87645340000017,162.87645340000017,162.87645340000017,162.87645340000017,162.87645340000017,162.87645340000017,162.87645340000017,162.87645340000017,162.87645340000017,162.87645340000017,008,P001,2025_Jan_17_1922,ConditionRich,2021.2.3,59.94179651637693,
136.0,136.75,29,0.75,Stimuli/P001/things_grinder_01b.jpg,0,0,0.0,0,234,234,234,,,,,,,,,,,,,136.0185374000066,0.01853740000660764,None,,163.10997119999956,163.10997119999956,163.10997119999956,163.10997119999956,163.10997119999956,163.10997119999956,163.10997119999956,163.10997119999956,163.10997119999956,163.10997119999956,008,P001,2025_Jan_17_1922,ConditionRich,2021.2.3,59.94179651637693,
136.75,137.0,41,0.0,Stimuli/Blank.png,0,0,0.0,0,235,235,235,,,,,,,,,,,,,136.75344450000557,0.0034445000055711716,None,,163.84396440000273,163.84396440000273,163.84396440000273,163.84396440000273,163.84396440000273,163.84396440000273,163.84396440000273,163.84396440000273,163.84396440000273,163.84396440000273,008,P001,2025_Jan_17_1922,ConditionRich,2021.2.3,59.94179651637693,
137.0,137.75,29,0.75,Stimuli/P001/things_grinder_01b.jpg,0,0,0.0,0,236,236,236,,,,,,,,,,,,,137.00274860000354,0.0027486000035423785,None,,164.09417869999743,164.09417869999743,164.09417869999743,164.09417869999743,164.09417869999743,164.09417869999743,164.09417869999743,164.09417869999743,164.09417869999743,164.09417869999743,008,P001,2025_Jan_17_1922,ConditionRich,2021.2.3,59.94179651637693,
137.75,138.0,41,0.0,Stimuli/Blank.png,0,0,0.0,0,237,237,237,,,,,,,,,,,,,137.7536409000022,0.003640900002210401,None,,164.844837800003,164.844837800003,164.844837800003,164.844837800003,164.844837800003,164.844837800003,164.844837800003,164.844837800003,164.844837800003,164.844837800003,008,P001,2025_Jan_17_1922,ConditionRich,2021.2.3,59.94179651637693,
138.0,138.75,29,0.75,Stimuli/P001/things_grinder_01b.jpg,1,0,0.75,0,238,238,238,,,,,,,,,,,,,138.00427360000322,0.004273600003216416,3,0.42498840000189375,165.11174210000172,165.11174210000172,165.11174210000172,165.11174210000172,165.11174210000172,165.11174210000172,165.11174210000172,165.82905259999825,165.11174210000172,165.11174210000172,008,P001,2025_Jan_17_1922,ConditionRich,2021.2.3,59.94179651637693,
138.75,139.0,41,0.0,Stimuli/Blank.png,0,0,0.0,0,239,239,239,,,,,,,,,,,,,138.77082310000696,0.020823100006964523,None,,165.8624043000018,165.8624043000018,165.8624043000018,165.8624043000018,165.8624043000018,165.8624043000018,165.8624043000018,165.8624043000018,165.8624043000018,165.8624043000018,008,P001,2025_Jan_17_1922,ConditionRich,2021.2.3,59.94179651637693,
139.0,139.75,29,0.75,Stimuli/P001/things_grinder_01b.jpg,0,0,0.0,0,240,240,240,,,,,,,,,,,,,139.00450850000198,0.004508500001975335,None,,166.0959520000033,166.0959520000033,166.0959520000033,166.0959520000033,166.0959520000033,166.0959520000033,166.0959520000033,166.0959520000033,166.0959520000033,166.0959520000033,008,P001,2025_Jan_17_1922,ConditionRich,2021.2.3,59.94179651637693,
139.75,140.0,41,0.0,Stimuli/Blank.png,0,0,0.0,0,241,241,241,,,,,,,,,,,,,139.7554855000053,0.005485500005306676,5,0.21788589999778196,166.84661570000026,166.84661570000026,166.84661570000026,166.84661570000026,166.84661570000026,166.84661570000026,166.84661570000026,166.84661570000026,166.84661570000026,166.84661570000026,008,P001,2025_Jan_17_1922,ConditionRich,2021.2.3,59.94179651637693,
140.0,140.75,35,0.75,Stimuli/P001/things_pepperoni_01b.jpg,0,0,0.0,0,242,242,242,,,,,,,,,,,,,140.00561280000693,0.005612800006929319,None,,167.09682949999842,167.09682949999842,167.09682949999842,167.09682949999842,167.09682949999842,167.09682949999842,167.09682949999842,167.09682949999842,167.09682949999842,167.09682949999842,008,P001,2025_Jan_17_1922,ConditionRich,2021.2.3,59.94179651637693,
140.75,141.0,41,0.0,Stimuli/Blank.png,0,0,0.0,0,243,243,243,,,,,,,,,,,,,140.75890120000258,0.00890120000258321,None,,167.86417690000235,167.86417690000235,167.86417690000235,167.86417690000235,167.86417690000235,167.86417690000235,167.86417690000235,167.86417690000235,167.86417690000235,167.86417690000235,008,P001,2025_Jan_17_1922,ConditionRich,2021.2.3,59.94179651637693,
141.0,141.75,35,0.75,Stimuli/P001/things_pepperoni_01b.jpg,0,0,0.0,0,244,244,244,,,,,,,,,,,,,141.02353780000703,0.023537800007034093,None,,168.11439480000263,168.11439480000263,168.11439480000263,168.11439480000263,168.11439480000263,168.11439480000263,168.11439480000263,168.11439480000263,168.11439480000263,168.11439480000263,008,P001,2025_Jan_17_1922,ConditionRich,2021.2.3,59.94179651637693,
141.75,142.0,41,0.0,Stimuli/Blank.png,0,0,0.0,0,245,245,245,,,,,,,,,,,,,141.75761670000065,0.007616700000653509,5,0.21619210000062594,168.84839520000241,168.84839520000241,168.84839520000241,168.84839520000241,168.84839520000241,168.84839520000241,168.84839520000241,168.84839520000241,168.84839520000241,168.84839520000241,008,P001,2025_Jan_17_1922,ConditionRich,2021.2.3,59.94179651637693,
142.0,142.75,35,0.75,Stimuli/P001/things_pepperoni_01b.jpg,0,0,0.0,0,246,246,246,,,,,,,,,,,,,142.00740630000655,0.007406300006550737,None,,169.09860409999965,169.09860409999965,169.09860409999965,169.09860409999965,169.09860409999965,169.09860409999965,169.09860409999965,169.09860409999965,169.09860409999965,169.09860409999965,008,P001,2025_Jan_17_1922,ConditionRich,2021.2.3,59.94179651637693,
142.75,143.0,41,0.0,Stimuli/Blank.png,0,0,0.0,0,247,247,247,,,,,,,,,,,,,142.75857550000364,0.008575500003644265,None,,169.8493537999966,169.8493537999966,169.8493537999966,169.8493537999966,169.8493537999966,169.8493537999966,169.8493537999966,169.8493537999966,169.8493537999966,169.8493537999966,008,P001,2025_Jan_17_1922,ConditionRich,2021.2.3,59.94179651637693,
143.0,143.75,35,0.75,Stimuli/P001/things_pepperoni_01b.jpg,0,0,0.0,0,248,248,248,,,,,,,,,,,,,143.0092766000016,0.009276600001612678,None,,170.11615809999785,170.11615809999785,170.11615809999785,170.11615809999785,170.11615809999785,170.11615809999785,170.11615809999785,170.11615809999785,170.11615809999785,170.11615809999785,008,P001,2025_Jan_17_1922,ConditionRich,2021.2.3,59.94179651637693,
143.75,144.0,41,0.0,Stimuli/Blank.png,0,0,0.0,0,249,249,249,,,,,,,,,,,,,143.77612700000464,0.026127000004635192,5,0.19771940000646282,170.86683320000157,170.86683320000157,170.86683320000157,170.86683320000157,170.86683320000157,170.86683320000157,170.86683320000157,170.86683320000157,170.86683320000157,170.86683320000157,008,P001,2025_Jan_17_1922,ConditionRich,2021.2.3,59.94179651637693,
144.0,144.75,13,0.75,Stimuli/P001/sun_bfdmlbkyioxnkodb.jpg,0,0,0.0,0,250,250,250,,,,,,,,,,,,,144.0091273000071,0.009127300007094163,None,,171.11706920000142,171.11706920000142,171.11706920000142,171.11706920000142,171.11706920000142,171.11706920000142,171.11706920000142,171.11706920000142,171.11706920000142,171.11706920000142,008,P001,2025_Jan_17_1922,ConditionRich,2021.2.3,59.94179651637693,
144.75,145.0,41,0.0,Stimuli/Blank.png,0,0,0.0,0,251,251,251,,,,,,,,,,,,,144.77885990000505,0.028859900005045347,None,,171.88441920000332,171.88441920000332,171.88441920000332,171.88441920000332,171.88441920000332,171.88441920000332,171.88441920000332,171.88441920000332,171.88441920000332,171.88441920000332,008,P001,2025_Jan_17_1922,ConditionRich,2021.2.3,59.94179651637693,
145.0,145.75,13,0.75,Stimuli/P001/sun_bfdmlbkyioxnkodb.jpg,0,0,0.0,0,252,252,252,,,,,,,,,,,,,145.02835070000583,0.02835070000583073,None,,172.13461429999734,172.13461429999734,172.13461429999734,172.13461429999734,172.13461429999734,172.13461429999734,172.13461429999734,172.13461429999734,172.13461429999734,172.13461429999734,008,P001,2025_Jan_17_1922,ConditionRich,2021.2.3,59.94179651637693,
145.75,146.0,41,0.0,Stimuli/Blank.png,0,0,0.0,0,253,253,253,,,,,,,,,,,,,145.77720630000113,0.027206300001125783,5,0.1959248999992269,172.8685981000017,172.8685981000017,172.8685981000017,172.8685981000017,172.8685981000017,172.8685981000017,172.8685981000017,172.8685981000017,172.8685981000017,172.8685981000017,008,P001,2025_Jan_17_1922,ConditionRich,2021.2.3,59.94179651637693,
146.0,146.75,13,0.75,Stimuli/P001/sun_bfdmlbkyioxnkodb.jpg,0,0,0.0,0,254,254,254,,,,,,,,,,,,,146.01169940000545,0.011699400005454663,None,,173.1188828000013,173.1188828000013,173.1188828000013,173.1188828000013,173.1188828000013,173.1188828000013,173.1188828000013,173.1188828000013,173.1188828000013,173.1188828000013,008,P001,2025_Jan_17_1922,ConditionRich,2021.2.3,59.94179651637693,
146.75,147.0,41,0.0,Stimuli/Blank.png,0,0,0.0,0,255,255,255,,,,,,,,,,,,,146.77901750000456,0.029017500004556496,None,,173.86948329999723,173.86948329999723,173.86948329999723,173.86948329999723,173.86948329999723,173.86948329999723,173.86948329999723,173.86948329999723,173.86948329999723,173.86948329999723,008,P001,2025_Jan_17_1922,ConditionRich,2021.2.3,59.94179651637693,
147.0,147.75,13,0.75,Stimuli/P001/sun_bfdmlbkyioxnkodb.jpg,0,0,0.0,0,256,256,256,,,,,,,,,,,,,147.01414460000524,0.014144600005238317,None,,174.1197308999981,174.1197308999981,174.1197308999981,174.1197308999981,174.1197308999981,174.1197308999981,174.1197308999981,174.1197308999981,174.1197308999981,174.1197308999981,008,P001,2025_Jan_17_1922,ConditionRich,2021.2.3,59.94179651637693,
147.75,148.0,41,0.0,Stimuli/Blank.png,0,0,0.0,0,257,257,257,,,,,,,,,,,,,147.77927610000188,0.029276100001879968,5,0.1942163999992772,174.87036660000012,174.87036660000012,174.87036660000012,174.87036660000012,174.87036660000012,174.87036660000012,174.87036660000012,174.87036660000012,174.87036660000012,174.87036660000012,008,P001,2025_Jan_17_1922,ConditionRich,2021.2.3,59.94179651637693,
148.0,148.75,24,0.75,Stimuli/P001/things_cornucopia_01b.jpg,0,0,0.0,0,258,258,258,,,,,,,,,,,,,148.01244310000038,0.012443100000382401,None,,175.10390409999673,175.10390409999673,175.10390409999673,175.10390409999673,175.10390409999673,175.10390409999673,175.10390409999673,175.10390409999673,175.10390409999673,175.10390409999673,008,P001,2025_Jan_17_1922,ConditionRich,2021.2.3,59.94179651637693,
148.75,149.0,41,0.0,Stimuli/Blank.png,0,0,0.0,0,259,259,259,,,,,,,,,,,,,148.76375710000138,0.01375710000138497,None,,175.8545632000023,175.8545632000023,175.8545632000023,175.8545632000023,175.8545632000023,175.8545632000023,175.8545632000023,175.8545632000023,175.8545632000023,175.8545632000023,008,P001,2025_Jan_17_1922,ConditionRich,2021.2.3,59.94179651637693,
149.0,149.75,24,0.75,Stimuli/P001/things_cornucopia_01b.jpg,0,0,0.0,0,260,260,260,,,,,,,,,,,,,149.01442570000654,0.014425700006540865,None,,176.12147520000144,176.12147520000144,176.12147520000144,176.12147520000144,176.12147520000144,176.12147520000144,176.12147520000144,176.12147520000144,176.12147520000144,176.12147520000144,008,P001,2025_Jan_17_1922,ConditionRich,2021.2.3,59.94179651637693,
