eventStartTime,eventEndTime,eventCond,imSize,imFile,responseEvent,fixRespStart,fixRespEnd,Events.thisRepN,Events.thisTrialN,Events.thisN,Events.thisIndex,Instructions.started,Instructions.stopped,participantReadyResponse.keys,participantReadyResponse.rt,participantReadyResponse.started,participantReadyResponse.stopped,startWaitforTrigger,triggerResponse.keys,triggerResponse.rt,triggerResponse.started,triggerResponse.stopped,globalTimer,actualStartTime,startTimingDiff,participantResponse.keys,participantResponse.rt,participantResponse.started,participantResponse.stopped,image.started,image.stopped,fixationOutside.started,fixationOutside.stopped,fixationResponse.started,fixationResponse.stopped,fixationInside.started,fixationInside.stopped,session,participant,date,expName,psychopyVersion,frameRate,
,,,,,,,,,,,,36.18622139999934,None,3,2.4883650000047055,36.18622139999934,None,,,,,,,,,,,,,,,,,,,,,007,P001,2025_Jan_17_1915,ConditionRich,2021.2.3,59.949306866574204,
,,,,,,,,,,,,,,,,,,38.6901796999955,5,13.287880400006543,38.70351919999666,None,,,,,,,,,,,,,,,,007,P001,2025_Jan_17_1915,ConditionRich,2021.2.3,59.949306866574204,
0.0,4.0,0,0.0,Stimuli/Blank.png,0,0.0,0.0,0,0,0,0,,,,,,,,,,,,52.002353799995035,0.050809600004868116,0.050809600004868116,5,1.9260001000002376,52.06521889999567,None,52.06521889999567,None,52.06521889999567,None,52.06521889999567,52.06521889999567,52.06521889999567,None,007,P001,2025_Jan_17_1915,ConditionRich,2021.2.3,59.949306866574204,
4.0,4.75,34,0.75,Stimuli/P001/things_parrot_01b.jpg,0,0.0,0.0,0,1,1,1,,,,,,,,,,,,,4.002760100003798,0.002760100003797561,None,,56.01895969999896,56.01895969999896,56.01895969999896,56.01895969999896,56.01895969999896,56.01895969999896,56.01895969999896,56.01895969999896,56.01895969999896,56.01895969999896,007,P001,2025_Jan_17_1915,ConditionRich,2021.2.3,59.949306866574204,
4.75,8.0,41,0.0,Stimuli/Blank.png,0,0.0,0.0,0,2,2,2,,,,,,,,,,,,,4.753652200000943,0.0036522000009426847,5,1.221402199997101,56.769825099996524,56.769825099996524,56.769825099996524,56.769825099996524,56.769825099996524,56.769825099996524,56.769825099996524,56.769825099996524,56.769825099996524,56.769825099996524,007,P001,2025_Jan_17_1915,ConditionRich,2021.2.3,59.949306866574204,
8.0,8.75,14,0.75,Stimuli/P001/sun_bfgxassmmvhtarcc.jpg,0,0.0,0.0,0,3,3,3,,,,,,,,,,,,,8.006864800001495,0.0068648000014945865,None,,60.03893550000066,60.03893550000066,60.03893550000066,60.03893550000066,60.03893550000066,60.03893550000066,60.03893550000066,60.03893550000066,60.03893550000066,60.03893550000066,007,P001,2025_Jan_17_1915,ConditionRich,2021.2.3,59.949306866574204,
8.75,12.0,41,0.0,Stimuli/Blank.png,0,0.0,0.0,0,4,4,4,,,,,,,,,,,,,8.772951300001296,0.02295130000129575,5,3.201766000005591,60.789597799994226,60.789597799994226,60.789597799994226,60.789597799994226,60.789597799994226,60.789597799994226,60.789597799994226,60.789597799994226,60.789597799994226,60.789597799994226,007,P001,2025_Jan_17_1915,ConditionRich,2021.2.3,59.949306866574204,
12.0,12.75,35,0.75,Stimuli/P001/things_pepperoni_01b.jpg,0,0.0,0.0,0,5,5,5,,,,,,,,,,,,,12.009607799998776,0.00960779999877559,None,,64.02579269999842,64.02579269999842,64.02579269999842,64.02579269999842,64.02579269999842,64.02579269999842,64.02579269999842,64.02579269999842,64.02579269999842,64.02579269999842,007,P001,2025_Jan_17_1915,ConditionRich,2021.2.3,59.949306866574204,
12.75,16.0,41,0.0,Stimuli/Blank.png,1,1.25,2.0,0,6,6,6,,,,,,,,,,,,,12.760300300004019,0.010300300004018936,5,3.2149489000003086,64.7764559999996,64.7764559999996,64.7764559999996,64.7764559999996,64.7764559999996,64.7764559999996,66.01091919999453,66.76153499999782,64.7764559999996,64.7764559999996,007,P001,2025_Jan_17_1915,ConditionRich,2021.2.3,59.949306866574204,
16.0,16.75,39,0.75,Stimuli/P001/things_woman_01b.jpg,0,0.0,0.0,0,7,7,7,,,,,,,,,,,,,16.013066999999864,0.013066999999864493,None,,68.02933939999639,68.02933939999639,68.02933939999639,68.02933939999639,68.02933939999639,68.02933939999639,68.02933939999639,68.02933939999639,68.02933939999639,68.02933939999639,007,P001,2025_Jan_17_1915,ConditionRich,2021.2.3,59.949306866574204,
16.75,20.0,41,0.0,Stimuli/Blank.png,0,0.0,0.0,0,8,8,8,,,,,,,,,,,,,16.763823300003423,0.013823300003423356,5,1.2114789000042947,68.7799967999963,68.7799967999963,68.7799967999963,68.7799967999963,68.7799967999963,68.7799967999963,68.7799967999963,68.7799967999963,68.7799967999963,68.7799967999963,007,P001,2025_Jan_17_1915,ConditionRich,2021.2.3,59.949306866574204,
20.0,20.75,17,0.75,Stimuli/P001/sun_bshgmgbmpvjkxfis.jpg,0,0.0,0.0,0,9,9,9,,,,,,,,,,,,,19.99983020000218,-0.0001697999978205189,None,,72.01618839999719,72.01618839999719,72.01618839999719,72.01618839999719,72.01618839999719,72.01618839999719,72.01618839999719,72.01618839999719,72.01618839999719,72.01618839999719,007,P001,2025_Jan_17_1915,ConditionRich,2021.2.3,59.949306866574204,
20.75,24.0,41,0.0,Stimuli/Blank.png,0,0.0,0.0,0,10,10,10,,,,,,,,,,,,,20.750591500000155,0.0005915000001550652,5,1.224697699995886,72.76684569999634,72.76684569999634,72.76684569999634,72.76684569999634,72.76684569999634,72.76684569999634,72.76684569999634,72.76684569999634,72.76684569999634,72.76684569999634,007,P001,2025_Jan_17_1915,ConditionRich,2021.2.3,59.949306866574204,
24.0,24.75,21,0.75,Stimuli/P001/things_baby_01b.jpg,1,0.0,0.75,0,11,11,11,,,,,,,,,,,,,24.003907199999958,0.003907199999957811,3,0.5268725999994786,76.03641149999748,76.03641149999748,76.03641149999748,76.03641149999748,76.03641149999748,76.03641149999748,76.03641149999748,76.75372329999664,76.03641149999748,76.03641149999748,007,P001,2025_Jan_17_1915,ConditionRich,2021.2.3,59.949306866574204,
24.75,28.0,41,0.0,Stimuli/Blank.png,0,0.0,0.0,0,12,12,12,,,,,,,,,,,,,24.770883000004687,0.020883000004687347,5,3.204081900003075,76.7871354999952,76.7871354999952,76.7871354999952,76.7871354999952,76.7871354999952,76.7871354999952,76.7871354999952,76.7871354999952,76.7871354999952,76.7871354999952,007,P001,2025_Jan_17_1915,ConditionRich,2021.2.3,59.949306866574204,
28.0,28.75,4,0.75,Stimuli/P001/sun_aonjwqswdblhlpkm.jpg,0,0.0,0.0,0,13,13,13,,,,,,,,,,,,,28.0083958000032,0.008395800003199838,None,,80.03994579999562,80.03994579999562,80.03994579999562,80.03994579999562,80.03994579999562,80.03994579999562,80.03994579999562,80.03994579999562,80.03994579999562,80.03994579999562,007,P001,2025_Jan_17_1915,ConditionRich,2021.2.3,59.949306866574204,
28.75,32.0,41,0.0,Stimuli/Blank.png,0,0.0,0.0,0,14,14,14,,,,,,,,,,,,,28.77494690000458,0.02494690000457922,5,3.2007644999976037,80.79061540000112,80.79061540000112,80.79061540000112,80.79061540000112,80.79061540000112,80.79061540000112,80.79061540000112,80.79061540000112,80.79061540000112,80.79061540000112,007,P001,2025_Jan_17_1915,ConditionRich,2021.2.3,59.949306866574204,
32.0,32.75,19,0.75,Stimuli/P001/sun_bzyyqqczvrnvukdn.jpg,0,0.0,0.0,0,15,15,15,,,,,,,,,,,,,32.01014790000045,0.010147900000447407,None,,84.02684269999736,84.02684269999736,84.02684269999736,84.02684269999736,84.02684269999736,84.02684269999736,84.02684269999736,84.02684269999736,84.02684269999736,84.02684269999736,007,P001,2025_Jan_17_1915,ConditionRich,2021.2.3,59.949306866574204,
32.75,36.0,41,0.0,Stimuli/Blank.png,0,0.0,0.0,0,16,16,16,,,,,,,,,,,,,32.76176890000352,0.011768900003517047,5,3.2137523999990663,84.77747459999955,84.77747459999955,84.77747459999955,84.77747459999955,84.77747459999955,84.77747459999955,84.77747459999955,84.77747459999955,84.77747459999955,84.77747459999955,007,P001,2025_Jan_17_1915,ConditionRich,2021.2.3,59.949306866574204,
36.0,36.75,2,0.75,Stimuli/P001/sun_akmxsxepquhynflp.jpg,0,0.0,0.0,0,17,17,17,,,,,,,,,,,,,36.014201500001946,0.014201500001945533,None,,88.0303386999949,88.0303386999949,88.0303386999949,88.0303386999949,88.0303386999949,88.0303386999949,88.0303386999949,88.0303386999949,88.0303386999949,88.0303386999949,007,P001,2025_Jan_17_1915,ConditionRich,2021.2.3,59.949306866574204,
36.75,40.0,41,0.0,Stimuli/Blank.png,0,0.0,0.0,0,18,18,18,,,,,,,,,,,,,36.76497740000195,0.014977400001953356,5,1.2102144999953452,88.78101569999853,88.78101569999853,88.78101569999853,88.78101569999853,88.78101569999853,88.78101569999853,88.78101569999853,88.78101569999853,88.78101569999853,88.78101569999853,007,P001,2025_Jan_17_1915,ConditionRich,2021.2.3,59.949306866574204,
40.0,40.75,24,0.75,Stimuli/P001/things_cornucopia_01b.jpg,0,0.0,0.0,0,19,19,19,,,,,,,,,,,,,40.00127820000489,0.0012782000048900954,None,,92.0171973999968,92.0171973999968,92.0171973999968,92.0171973999968,92.0171973999968,92.0171973999968,92.0171973999968,92.0171973999968,92.0171973999968,92.0171973999968,007,P001,2025_Jan_17_1915,ConditionRich,2021.2.3,59.949306866574204,
40.75,44.0,41,0.0,Stimuli/Blank.png,0,0.0,0.0,0,20,20,20,,,,,,,,,,,,,40.75364690000424,0.0036469000042416155,5,3.2067322000002605,92.78455099999701,92.78455099999701,92.78455099999701,92.78455099999701,92.78455099999701,92.78455099999701,92.78455099999701,92.78455099999701,92.78455099999701,92.78455099999701,007,P001,2025_Jan_17_1915,ConditionRich,2021.2.3,59.949306866574204,
44.0,44.75,13,0.75,Stimuli/P001/sun_bfdmlbkyioxnkodb.jpg,0,0.0,0.0,0,21,21,21,,,,,,,,,,,,,44.02046440000413,0.020464400004129857,None,,96.05410339999798,96.05410339999798,96.05410339999798,96.05410339999798,96.05410339999798,96.05410339999798,96.05410339999798,96.05410339999798,96.05410339999798,96.05410339999798,007,P001,2025_Jan_17_1915,ConditionRich,2021.2.3,59.949306866574204,
44.75,48.0,41,0.0,Stimuli/Blank.png,1,0.25,1.0,0,22,22,22,,,,,,,,,,,,,44.77319730000454,0.02319730000454001,5,3.1864316999999573,96.80476749999798,96.80476749999798,96.80476749999798,96.80476749999798,96.80476749999798,96.80476749999798,97.03832770000008,97.78895969999576,96.80476749999798,96.80476749999798,007,P001,2025_Jan_17_1915,ConditionRich,2021.2.3,59.949306866574204,
48.0,48.75,18,0.75,Stimuli/P001/sun_bzjegfvyrvqtunza.jpg,0,0.0,0.0,0,23,23,23,,,,,,,,,,,,,48.02428599999985,0.024285999999847263,None,,100.04095199999574,100.04095199999574,100.04095199999574,100.04095199999574,100.04095199999574,100.04095199999574,100.04095199999574,100.04095199999574,100.04095199999574,100.04095199999574,007,P001,2025_Jan_17_1915,ConditionRich,2021.2.3,59.949306866574204,
48.75,52.0,41,0.0,Stimuli/Blank.png,1,0.25,1.0,0,24,24,24,,,,,,,,,,,,,48.75899159999972,0.008991599999717437,5,3.2163015000041923,100.7749382999973,100.7749382999973,100.7749382999973,100.7749382999973,100.7749382999973,100.7749382999973,101.00848169999517,101.75914869999542,100.7749382999973,100.7749382999973,007,P001,2025_Jan_17_1915,ConditionRich,2021.2.3,59.949306866574204,
52.0,52.75,38,0.75,Stimuli/P001/things_windowsill_01b.jpg,0,0.0,0.0,0,25,25,25,,,,,,,,,,,,,52.01121419999981,0.01121419999981299,None,,104.04450269999506,104.04450269999506,104.04450269999506,104.04450269999506,104.04450269999506,104.04450269999506,104.04450269999506,104.04450269999506,104.04450269999506,104.04450269999506,007,P001,2025_Jan_17_1915,ConditionRich,2021.2.3,59.949306866574204,
52.75,56.0,41,0.0,Stimuli/Blank.png,0,0.0,0.0,0,26,26,26,,,,,,,,,,,,,52.77933440000197,0.029334400001971517,5,3.196258599993598,104.79516299999523,104.79516299999523,104.79516299999523,104.79516299999523,104.79516299999523,104.79516299999523,104.79516299999523,104.79516299999523,104.79516299999523,104.79516299999523,007,P001,2025_Jan_17_1915,ConditionRich,2021.2.3,59.949306866574204,
56.0,56.75,31,0.75,Stimuli/P001/things_man_01b.jpg,0,0.0,0.0,0,27,27,27,,,,,,,,,,,,,56.014606299999286,0.01460629999928642,None,,108.04806839999947,108.04806839999947,108.04806839999947,108.04806839999947,108.04806839999947,108.04806839999947,108.04806839999947,108.04806839999947,108.04806839999947,108.04806839999947,007,P001,2025_Jan_17_1915,ConditionRich,2021.2.3,59.949306866574204,
56.75,60.0,41,0.0,Stimuli/Blank.png,0,0.0,0.0,0,28,28,28,,,,,,,,,,,,,56.784806700001354,0.03480670000135433,5,3.1761581000027945,108.81534939999983,108.81534939999983,108.81534939999983,108.81534939999983,108.81534939999983,108.81534939999983,108.81534939999983,108.81534939999983,108.81534939999983,108.81534939999983,007,P001,2025_Jan_17_1915,ConditionRich,2021.2.3,59.949306866574204,
60.0,60.75,37,0.75,Stimuli/P001/things_starfish_01b.jpg,0,0.0,0.0,0,29,29,29,,,,,,,,,,,,,60.01841000000422,0.018410000004223548,None,,112.03488909999578,112.03488909999578,112.03488909999578,112.03488909999578,112.03488909999578,112.03488909999578,112.03488909999578,112.03488909999578,112.03488909999578,112.03488909999578,007,P001,2025_Jan_17_1915,ConditionRich,2021.2.3,59.949306866574204,
60.75,64.0,41,0.0,Stimuli/Blank.png,0,0.0,0.0,0,30,30,30,,,,,,,,,,,,,60.754527700002654,0.004527700002654456,5,3.2058172000033665,112.78555519999645,112.78555519999645,112.78555519999645,112.78555519999645,112.78555519999645,112.78555519999645,112.78555519999645,112.78555519999645,112.78555519999645,112.78555519999645,007,P001,2025_Jan_17_1915,ConditionRich,2021.2.3,59.949306866574204,
64.0,64.75,33,0.75,Stimuli/P001/things_pan_01b.jpg,0,0.0,0.0,0,31,31,31,,,,,,,,,,,,,64.02388000000064,0.02388000000064494,None,,116.05511529999785,116.05511529999785,116.05511529999785,116.05511529999785,116.05511529999785,116.05511529999785,116.05511529999785,116.05511529999785,116.05511529999785,116.05511529999785,007,P001,2025_Jan_17_1915,ConditionRich,2021.2.3,59.949306866574204,
64.75,68.0,41,0.0,Stimuli/Blank.png,0,0.0,0.0,0,32,32,32,,,,,,,,,,,,,64.77258060000167,0.02258060000167461,5,3.2023132000031183,116.78909439999552,116.78909439999552,116.78909439999552,116.78909439999552,116.78909439999552,116.78909439999552,116.78909439999552,116.78909439999552,116.78909439999552,116.78909439999552,007,P001,2025_Jan_17_1915,ConditionRich,2021.2.3,59.949306866574204,
68.0,68.75,9,0.75,Stimuli/P001/sun_awtltwwpwbepuuqv.jpg,0,0.0,0.0,0,33,33,33,,,,,,,,,,,,,68.00866540000425,0.008665400004247203,None,,120.02528470000107,120.02528470000107,120.02528470000107,120.02528470000107,120.02528470000107,120.02528470000107,120.02528470000107,120.02528470000107,120.02528470000107,120.02528470000107,007,P001,2025_Jan_17_1915,ConditionRich,2021.2.3,59.949306866574204,
68.75,72.0,41,0.0,Stimuli/Blank.png,0,0.0,0.0,0,34,34,34,,,,,,,,,,,,,68.75924980000127,0.009249800001271069,5,3.2152691000010236,120.77595689999725,120.77595689999725,120.77595689999725,120.77595689999725,120.77595689999725,120.77595689999725,120.77595689999725,120.77595689999725,120.77595689999725,120.77595689999725,007,P001,2025_Jan_17_1915,ConditionRich,2021.2.3,59.949306866574204,
72.0,72.75,15,0.75,Stimuli/P001/sun_bfzoxbkvsfqxsyle.jpg,0,0.0,0.0,0,35,35,35,,,,,,,,,,,,,72.0131232000058,0.013123200005793478,None,,124.04549599999882,124.04549599999882,124.04549599999882,124.04549599999882,124.04549599999882,124.04549599999882,124.04549599999882,124.04549599999882,124.04549599999882,124.04549599999882,007,P001,2025_Jan_17_1915,ConditionRich,2021.2.3,59.949306866574204,
72.75,76.0,41,0.0,Stimuli/Blank.png,0,0.0,0.0,0,36,36,36,,,,,,,,,,,,,72.77976720000152,0.029767200001515448,5,1.1950844999955734,124.79616410000017,124.79616410000017,124.79616410000017,124.79616410000017,124.79616410000017,124.79616410000017,124.79616410000017,124.79616410000017,124.79616410000017,124.79616410000017,007,P001,2025_Jan_17_1915,ConditionRich,2021.2.3,59.949306866574204,
76.0,76.75,23,0.75,Stimuli/P001/things_chick_01b.jpg,0,0.0,0.0,0,37,37,37,,,,,,,,,,,,,76.00003180000203,3.18000020342879e-05,None,,128.03237689999514,128.03237689999514,128.03237689999514,128.03237689999514,128.03237689999514,128.03237689999514,128.03237689999514,128.03237689999514,128.03237689999514,128.03237689999514,007,P001,2025_Jan_17_1915,ConditionRich,2021.2.3,59.949306866574204,
76.75,80.0,41,0.0,Stimuli/Blank.png,1,0.25,1.0,0,38,38,38,,,,,,,,,,,,,76.76676850000513,0.016768500005127862,5,1.208652900000743,128.78297619999648,128.78297619999648,128.78297619999648,128.78297619999648,128.78297619999648,128.78297619999648,129.0166126999975,129.767225399999,128.78297619999648,128.78297619999648,007,P001,2025_Jan_17_1915,ConditionRich,2021.2.3,59.949306866574204,
80.0,80.75,1,0.75,Stimuli/P001/sun_agpgdwkhzgvzdaea.jpg,0,0.0,0.0,0,39,39,39,,,,,,,,,,,,,80.00297680000222,0.002976800002215896,None,,132.01921469999797,132.01921469999797,132.01921469999797,132.01921469999797,132.01921469999797,132.01921469999797,132.01921469999797,132.01921469999797,132.01921469999797,132.01921469999797,007,P001,2025_Jan_17_1915,ConditionRich,2021.2.3,59.949306866574204,
80.75,84.0,41,0.0,Stimuli/Blank.png,0,0.0,0.0,0,40,40,40,,,,,,,,,,,,,80.75390170000173,0.0039017000017338432,5,1.221523199994408,132.76988029999484,132.76988029999484,132.76988029999484,132.76988029999484,132.76988029999484,132.76988029999484,132.76988029999484,132.76988029999484,132.76988029999484,132.76988029999484,007,P001,2025_Jan_17_1915,ConditionRich,2021.2.3,59.949306866574204,
84.0,100.0,0,0.0,Stimuli/Blank.png,1,7.0,7.75,0,41,41,41,,,,,,,,,,,,,84.00613100000191,0.006131000001914799,5,13.968823299997894,136.0227517999956,136.0227517999956,136.0227517999956,136.0227517999956,136.0227517999956,136.0227517999956,143.0123007000002,143.76296079999884,136.0227517999956,136.0227517999956,007,P001,2025_Jan_17_1915,ConditionRich,2021.2.3,59.949306866574204,
100.0,100.75,11,0.75,Stimuli/P001/sun_bbfdgdyeqdnadvvi.jpg,0,0.0,0.0,0,42,42,42,,,,,,,,,,,,,100.003672800005,0.0036728000050061382,None,,152.02021999999852,152.02021999999852,152.02021999999852,152.02021999999852,152.02021999999852,152.02021999999852,152.02021999999852,152.02021999999852,152.02021999999852,152.02021999999852,007,P001,2025_Jan_17_1915,ConditionRich,2021.2.3,59.949306866574204,
100.75,104.0,41,0.0,Stimuli/Blank.png,0,0.0,0.0,0,43,43,43,,,,,,,,,,,,,100.75488510000287,0.004885100002866238,5,3.220472399996652,152.7708857999969,152.7708857999969,152.7708857999969,152.7708857999969,152.7708857999969,152.7708857999969,152.7708857999969,152.7708857999969,152.7708857999969,152.7708857999969,007,P001,2025_Jan_17_1915,ConditionRich,2021.2.3,59.949306866574204,
104.0,104.75,40,0.75,Stimuli/P001/things_worm_01b.jpg,0,0.0,0.0,0,44,44,44,,,,,,,,,,,,,104.00915810000151,0.009158100001513958,None,,156.04044330000033,156.04044330000033,156.04044330000033,156.04044330000033,156.04044330000033,156.04044330000033,156.04044330000033,156.04044330000033,156.04044330000033,156.04044330000033,007,P001,2025_Jan_17_1915,ConditionRich,2021.2.3,59.949306866574204,
104.75,108.0,41,0.0,Stimuli/Blank.png,0,0.0,0.0,0,45,45,45,,,,,,,,,,,,,104.7741406999994,0.024140699999406934,5,3.200279099997715,156.79110429999855,156.79110429999855,156.79110429999855,156.79110429999855,156.79110429999855,156.79110429999855,156.79110429999855,156.79110429999855,156.79110429999855,156.79110429999855,007,P001,2025_Jan_17_1915,ConditionRich,2021.2.3,59.949306866574204,
108.0,108.75,22,0.75,Stimuli/P001/things_boy_01b.jpg,1,0.0,0.75,0,46,46,46,,,,,,,,,,,,,108.01075000000128,0.010750000001280569,3,0.41745679999439744,160.04398469999433,160.04398469999433,160.04398469999433,160.04398469999433,160.04398469999433,160.04398469999433,160.04398469999433,160.76132559999678,160.04398469999433,160.04398469999433,007,P001,2025_Jan_17_1915,ConditionRich,2021.2.3,59.949306866574204,
108.75,112.0,41,0.0,Stimuli/Blank.png,0,0.0,0.0,0,47,47,47,,,,,,,,,,,,,108.77922880000551,0.029228800005512312,5,3.19667599999957,160.79465779999737,160.79465779999737,160.79465779999737,160.79465779999737,160.79465779999737,160.79465779999737,160.79465779999737,160.79465779999737,160.79465779999737,160.79465779999737,007,P001,2025_Jan_17_1915,ConditionRich,2021.2.3,59.949306866574204,
112.0,112.75,27,0.75,Stimuli/P001/things_dynamite_01b.jpg,0,0.0,0.0,0,48,48,48,,,,,,,,,,,,,112.0146292999998,0.014629299999796785,None,,164.03086569999869,164.03086569999869,164.03086569999869,164.03086569999869,164.03086569999869,164.03086569999869,164.03086569999869,164.03086569999869,164.03086569999869,164.03086569999869,007,P001,2025_Jan_17_1915,ConditionRich,2021.2.3,59.949306866574204,
112.75,116.0,41,0.0,Stimuli/Blank.png,0,0.0,0.0,0,49,49,49,,,,,,,,,,,,,112.76463979999971,0.014639799999713432,5,1.209737099998165,164.7815030999991,164.7815030999991,164.7815030999991,164.7815030999991,164.7815030999991,164.7815030999991,164.7815030999991,164.7815030999991,164.7815030999991,164.7815030999991,007,P001,2025_Jan_17_1915,ConditionRich,2021.2.3,59.949306866574204,
116.0,116.75,5,0.75,Stimuli/P001/sun_apwzcrxhvvnrexjh.jpg,0,0.0,0.0,0,50,50,50,,,,,,,,,,,,,116.00083850000374,0.0008385000037378632,None,,168.01769489999424,168.01769489999424,168.01769489999424,168.01769489999424,168.01769489999424,168.01769489999424,168.01769489999424,168.01769489999424,168.01769489999424,168.01769489999424,007,P001,2025_Jan_17_1915,ConditionRich,2021.2.3,59.949306866574204,
116.75,120.0,41,0.0,Stimuli/Blank.png,1,1.25,2.0,0,51,51,51,,,,,,,,,,,,,116.75209400000313,0.0020940000031259842,3,1.6329987999997684,168.76840519999678,168.76840519999678,168.76840519999678,168.76840519999678,168.76840519999678,168.76840519999678,170.00277889999415,170.75345399999787,168.76840519999678,168.76840519999678,007,P001,2025_Jan_17_1915,ConditionRich,2021.2.3,59.949306866574204,
120.0,120.75,7,0.75,Stimuli/P001/sun_arlesyjqxmqmcccl.jpg,0,0.0,0.0,0,52,52,52,,,,,,,,,,,,,120.00434900000255,0.004349000002548564,None,,172.02123059999576,172.02123059999576,172.02123059999576,172.02123059999576,172.02123059999576,172.02123059999576,172.02123059999576,172.02123059999576,172.02123059999576,172.02123059999576,007,P001,2025_Jan_17_1915,ConditionRich,2021.2.3,59.949306866574204,
120.75,124.0,41,0.0,Stimuli/Blank.png,0,0.0,0.0,0,53,53,53,,,,,,,,,,,,,120.75506950000272,0.005069500002718996,5,3.2194610000005923,172.77188499999465,172.77188499999465,172.77188499999465,172.77188499999465,172.77188499999465,172.77188499999465,172.77188499999465,172.77188499999465,172.77188499999465,172.77188499999465,007,P001,2025_Jan_17_1915,ConditionRich,2021.2.3,59.949306866574204,
124.0,124.75,8,0.75,Stimuli/P001/sun_asqboyqakusycvwd.jpg,0,0.0,0.0,0,54,54,54,,,,,,,,,,,,,124.00802900000417,0.008029000004171394,None,,176.02477599999838,176.02477599999838,176.02477599999838,176.02477599999838,176.02477599999838,176.02477599999838,176.02477599999838,176.02477599999838,176.02477599999838,176.02477599999838,007,P001,2025_Jan_17_1915,ConditionRich,2021.2.3,59.949306866574204,
124.75,128.0,41,0.0,Stimuli/Blank.png,0,0.0,0.0,0,55,55,55,,,,,,,,,,,,,124.75938990000577,0.009389900005771779,5,3.215935799998988,176.77543839999998,176.77543839999998,176.77543839999998,176.77543839999998,176.77543839999998,176.77543839999998,176.77543839999998,176.77543839999998,176.77543839999998,176.77543839999998,007,P001,2025_Jan_17_1915,ConditionRich,2021.2.3,59.949306866574204,
128.0,128.75,25,0.75,Stimuli/P001/things_curry_01b.jpg,0,0.0,0.0,0,56,56,56,,,,,,,,,,,,,128.01156050000282,0.011560500002815388,None,,180.02831049999804,180.02831049999804,180.02831049999804,180.02831049999804,180.02831049999804,180.02831049999804,180.02831049999804,180.02831049999804,180.02831049999804,180.02831049999804,007,P001,2025_Jan_17_1915,ConditionRich,2021.2.3,59.949306866574204,
128.75,132.0,41,0.0,Stimuli/Blank.png,0,0.0,0.0,0,57,57,57,,,,,,,,,,,,,128.76288030000433,0.012880300004326273,5,1.2123326000000816,180.7789732999954,180.7789732999954,180.7789732999954,180.7789732999954,180.7789732999954,180.7789732999954,180.7789732999954,180.7789732999954,180.7789732999954,180.7789732999954,007,P001,2025_Jan_17_1915,ConditionRich,2021.2.3,59.949306866574204,
132.0,132.75,30,0.75,Stimuli/P001/things_iguana_01b.jpg,0,0.0,0.0,0,58,58,58,,,,,,,,,,,,,131.9984289999993,-0.0015710000006947666,None,,184.01517449999665,184.01517449999665,184.01517449999665,184.01517449999665,184.01517449999665,184.01517449999665,184.01517449999665,184.01517449999665,184.01517449999665,184.01517449999665,007,P001,2025_Jan_17_1915,ConditionRich,2021.2.3,59.949306866574204,
132.75,136.0,41,0.0,Stimuli/Blank.png,0,0.0,0.0,0,59,59,59,,,,,,,,,,,,,132.74902690000454,-0.0009730999954626895,5,1.2255819999991218,184.7658489999958,184.7658489999958,184.7658489999958,184.7658489999958,184.7658489999958,184.7658489999958,184.7658489999958,184.7658489999958,184.7658489999958,184.7658489999958,007,P001,2025_Jan_17_1915,ConditionRich,2021.2.3,59.949306866574204,
136.0,136.75,16,0.75,Stimuli/P001/sun_biqyomkjbujnppuf.jpg,0,0.0,0.0,0,60,60,60,,,,,,,,,,,,,136.00222270000086,0.002222700000857003,None,,188.01871079999546,188.01871079999546,188.01871079999546,188.01871079999546,188.01871079999546,188.01871079999546,188.01871079999546,188.01871079999546,188.01871079999546,188.01871079999546,007,P001,2025_Jan_17_1915,ConditionRich,2021.2.3,59.949306866574204,
136.75,140.0,41,0.0,Stimuli/Blank.png,1,2.25,3.0,0,61,61,61,,,,,,,,,,,,,136.75308800000494,0.0030880000049364753,3,2.625981299999694,188.76938579999842,188.76938579999842,188.76938579999842,188.76938579999842,188.76938579999842,188.76938579999842,191.0046868999998,191.7553349000009,188.76938579999842,188.76938579999842,007,P001,2025_Jan_17_1915,ConditionRich,2021.2.3,59.949306866574204,
140.0,140.75,6,0.75,Stimuli/P001/sun_aqbaaqeojrexbmcr.jpg,0,0.0,0.0,0,62,62,62,,,,,,,,,,,,,140.0055199000053,0.005519900005310774,None,,192.03893329999846,192.03893329999846,192.03893329999846,192.03893329999846,192.03893329999846,192.03893329999846,192.03893329999846,192.03893329999846,192.03893329999846,192.03893329999846,007,P001,2025_Jan_17_1915,ConditionRich,2021.2.3,59.949306866574204,
140.75,144.0,41,0.0,Stimuli/Blank.png,1,0.25,1.0,0,63,63,63,,,,,,,,,,,,,140.7747636999993,0.02476369999931194,5,3.2028476999985287,192.78960319999896,192.78960319999896,192.78960319999896,192.78960319999896,192.78960319999896,192.78960319999896,193.03981360000034,193.79047970000101,192.78960319999896,192.78960319999896,007,P001,2025_Jan_17_1915,ConditionRich,2021.2.3,59.949306866574204,
144.0,144.75,28,0.75,Stimuli/P001/things_girl_01b.jpg,0,0.0,0.0,0,64,64,64,,,,,,,,,,,,,144.00940520000586,0.009405200005858205,None,,196.0258130000002,196.0258130000002,196.0258130000002,196.0258130000002,196.0258130000002,196.0258130000002,196.0258130000002,196.0258130000002,196.0258130000002,196.0258130000002,007,P001,2025_Jan_17_1915,ConditionRich,2021.2.3,59.949306866574204,
144.75,148.0,41,0.0,Stimuli/Blank.png,0,0.0,0.0,0,65,65,65,,,,,,,,,,,,,144.75962440000148,0.0096244000014849,5,3.216032600001199,196.7764470999973,196.7764470999973,196.7764470999973,196.7764470999973,196.7764470999973,196.7764470999973,196.7764470999973,196.7764470999973,196.7764470999973,196.7764470999973,007,P001,2025_Jan_17_1915,ConditionRich,2021.2.3,59.949306866574204,
148.0,148.75,10,0.75,Stimuli/P001/sun_aykefnhciwsffcrj.jpg,0,0.0,0.0,0,66,66,66,,,,,,,,,,,,,148.01355760000297,0.013557600002968684,None,,200.04599899999448,200.04599899999448,200.04599899999448,200.04599899999448,200.04599899999448,200.04599899999448,200.04599899999448,200.04599899999448,200.04599899999448,200.04599899999448,007,P001,2025_Jan_17_1915,ConditionRich,2021.2.3,59.949306866574204,
148.75,152.0,41,0.0,Stimuli/Blank.png,0,0.0,0.0,0,67,67,67,,,,,,,,,,,,,148.77995340000052,0.02995340000052238,5,1.1958244999987073,200.7966637999998,200.7966637999998,200.7966637999998,200.7966637999998,200.7966637999998,200.7966637999998,200.7966637999998,200.7966637999998,200.7966637999998,200.7966637999998,007,P001,2025_Jan_17_1915,ConditionRich,2021.2.3,59.949306866574204,
152.0,152.75,32,0.75,Stimuli/P001/things_oyster_01b.jpg,0,0.0,0.0,0,68,68,68,,,,,,,,,,,,,151.99967620000098,-0.000323799999023322,None,,204.01615789999778,204.01615789999778,204.01615789999778,204.01615789999778,204.01615789999778,204.01615789999778,204.01615789999778,204.01615789999778,204.01615789999778,204.01615789999778,007,P001,2025_Jan_17_1915,ConditionRich,2021.2.3,59.949306866574204,
152.75,156.0,41,0.0,Stimuli/Blank.png,0,0.0,0.0,0,69,69,69,,,,,,,,,,,,,152.7503469000003,0.0003469000002951361,5,1.225420299997495,204.76685449999786,204.76685449999786,204.76685449999786,204.76685449999786,204.76685449999786,204.76685449999786,204.76685449999786,204.76685449999786,204.76685449999786,204.76685449999786,007,P001,2025_Jan_17_1915,ConditionRich,2021.2.3,59.949306866574204,
156.0,156.75,29,0.75,Stimuli/P001/things_grinder_01b.jpg,0,0.0,0.0,0,70,70,70,,,,,,,,,,,,,156.0034078000026,0.0034078000026056543,None,,208.01971809999668,208.01971809999668,208.01971809999668,208.01971809999668,208.01971809999668,208.01971809999668,208.01971809999668,208.01971809999668,208.01971809999668,208.01971809999668,007,P001,2025_Jan_17_1915,ConditionRich,2021.2.3,59.949306866574204,
156.75,160.0,41,0.0,Stimuli/Blank.png,0,0.0,0.0,0,71,71,71,,,,,,,,,,,,,156.7541302000027,0.0041302000026917085,5,1.2221511999960057,208.7703865000003,208.7703865000003,208.7703865000003,208.7703865000003,208.7703865000003,208.7703865000003,208.7703865000003,208.7703865000003,208.7703865000003,208.7703865000003,007,P001,2025_Jan_17_1915,ConditionRich,2021.2.3,59.949306866574204,
160.0,160.75,36,0.75,Stimuli/P001/things_stalagmite_01b.jpg,0,0.0,0.0,0,72,72,72,,,,,,,,,,,,,160.0069661000016,0.006966100001591258,None,,212.02325009999913,212.02325009999913,212.02325009999913,212.02325009999913,212.02325009999913,212.02325009999913,212.02325009999913,212.02325009999913,212.02325009999913,212.02325009999913,007,P001,2025_Jan_17_1915,ConditionRich,2021.2.3,59.949306866574204,
160.75,164.0,41,0.0,Stimuli/Blank.png,0,0.0,0.0,0,73,73,73,,,,,,,,,,,,,160.75984180000523,0.009841800005233381,5,3.2018339000060223,212.79060429999663,212.79060429999663,212.79060429999663,212.79060429999663,212.79060429999663,212.79060429999663,212.79060429999663,212.79060429999663,212.79060429999663,212.79060429999663,007,P001,2025_Jan_17_1915,ConditionRich,2021.2.3,59.949306866574204,
164.0,164.75,26,0.75,Stimuli/P001/things_dish_01b.jpg,0,0.0,0.0,0,74,74,74,,,,,,,,,,,,,164.02891810000438,0.028918100004375447,None,,216.06016219999583,216.06016219999583,216.06016219999583,216.06016219999583,216.06016219999583,216.06016219999583,216.06016219999583,216.06016219999583,216.06016219999583,216.06016219999583,007,P001,2025_Jan_17_1915,ConditionRich,2021.2.3,59.949306866574204,
164.75,168.0,41,0.0,Stimuli/Blank.png,0,0.0,0.0,0,75,75,75,,,,,,,,,,,,,164.77800910000224,0.028009100002236664,5,3.1982407000032254,216.7941479000001,216.7941479000001,216.7941479000001,216.7941479000001,216.7941479000001,216.7941479000001,216.7941479000001,216.7941479000001,216.7941479000001,216.7941479000001,007,P001,2025_Jan_17_1915,ConditionRich,2021.2.3,59.949306866574204,
168.0,168.75,3,0.75,Stimuli/P001/sun_amarqtinchblqmah.jpg,0,0.0,0.0,0,76,76,76,,,,,,,,,,,,,168.015017800004,0.015017800003988668,None,,220.0471200999964,220.0471200999964,220.0471200999964,220.0471200999964,220.0471200999964,220.0471200999964,220.0471200999964,220.0471200999964,220.0471200999964,220.0471200999964,007,P001,2025_Jan_17_1915,ConditionRich,2021.2.3,59.949306866574204,
168.75,172.0,41,0.0,Stimuli/Blank.png,1,2.25,3.0,0,77,77,77,,,,,,,,,,,,,168.7834667999996,0.03346679999958724,5,3.1780107999948086,220.81435939999938,220.81435939999938,220.81435939999938,220.81435939999938,220.81435939999938,220.81435939999938,223.0496714999972,223.80029880000075,220.81435939999938,220.81435939999938,007,P001,2025_Jan_17_1915,ConditionRich,2021.2.3,59.949306866574204,
172.0,172.75,20,0.75,Stimuli/P001/sun_dkgctqgpvxbaoyks.jpg,0,0.0,0.0,0,78,78,78,,,,,,,,,,,,,172.01940390000527,0.01940390000527259,None,,224.05056089999562,224.05056089999562,224.05056089999562,224.05056089999562,224.05056089999562,224.05056089999562,224.05056089999562,224.05056089999562,224.05056089999562,224.05056089999562,007,P001,2025_Jan_17_1915,ConditionRich,2021.2.3,59.949306866574204,
172.75,176.0,41,0.0,Stimuli/Blank.png,0,0.0,0.0,0,79,79,79,,,,,,,,,,,,,172.76761950000218,0.017619500002183486,5,1.2080819999973755,224.78452839999954,224.78452839999954,224.78452839999954,224.78452839999954,224.78452839999954,224.78452839999954,224.78452839999954,224.78452839999954,224.78452839999954,224.78452839999954,007,P001,2025_Jan_17_1915,ConditionRich,2021.2.3,59.949306866574204,
176.0,176.75,12,0.75,Stimuli/P001/sun_bdxvmnlyovhqognn.jpg,0,0.0,0.0,0,80,80,80,,,,,,,,,,,,,176.00459789999877,0.004597899998771027,None,,228.0374071999977,228.0374071999977,228.0374071999977,228.0374071999977,228.0374071999977,228.0374071999977,228.0374071999977,228.0374071999977,228.0374071999977,228.0374071999977,007,P001,2025_Jan_17_1915,ConditionRich,2021.2.3,59.949306866574204,
176.75,180.0,41,0.0,Stimuli/Blank.png,0,0.0,0.0,0,81,81,81,,,,,,,,,,,,,176.77386470000056,0.023864700000558514,5,3.1877591000011307,228.80476369999815,228.80476369999815,228.80476369999815,228.80476369999815,228.80476369999815,228.80476369999815,228.80476369999815,228.80476369999815,228.80476369999815,228.80476369999815,007,P001,2025_Jan_17_1915,ConditionRich,2021.2.3,59.949306866574204,
180.0,196.0,0,0.0,Stimuli/Blank.png,1,5.0,5.75,0,82,82,82,,,,,,,,,,,,,180.0245117000013,0.02451170000131242,5,13.95166519999475,232.04094169999735,232.04094169999735,232.04094169999735,232.04094169999735,232.04094169999735,232.04094169999735,237.02871289999894,237.77934249999817,232.04094169999735,232.04094169999735,007,P001,2025_Jan_17_1915,ConditionRich,2021.2.3,59.949306866574204,
196.0,196.75,35,0.75,Stimuli/P001/things_pepperoni_01b.jpg,0,0.0,0.0,0,83,83,83,,,,,,,,,,,,,196.00500840000313,0.005008400003134739,None,,248.02173739999853,248.02173739999853,248.02173739999853,248.02173739999853,248.02173739999853,248.02173739999853,248.02173739999853,248.02173739999853,248.02173739999853,248.02173739999853,007,P001,2025_Jan_17_1915,ConditionRich,2021.2.3,59.949306866574204,
196.75,200.0,41,0.0,Stimuli/Blank.png,0,0.0,0.0,0,84,84,84,,,,,,,,,,,,,196.75540180000098,0.005401800000981893,5,3.2199600000021746,248.7724123999942,248.7724123999942,248.7724123999942,248.7724123999942,248.7724123999942,248.7724123999942,248.7724123999942,248.7724123999942,248.7724123999942,248.7724123999942,007,P001,2025_Jan_17_1915,ConditionRich,2021.2.3,59.949306866574204,
200.0,200.75,31,0.75,Stimuli/P001/things_man_01b.jpg,0,0.0,0.0,0,85,85,85,,,,,,,,,,,,,200.00926040000195,0.009260400001949165,None,,252.04197079999722,252.04197079999722,252.04197079999722,252.04197079999722,252.04197079999722,252.04197079999722,252.04197079999722,252.04197079999722,252.04197079999722,252.04197079999722,007,P001,2025_Jan_17_1915,ConditionRich,2021.2.3,59.949306866574204,
200.75,204.0,41,0.0,Stimuli/Blank.png,0,0.0,0.0,0,86,86,86,,,,,,,,,,,,,200.77830660000473,0.028306600004725624,5,3.183036099995661,252.8093200000003,252.8093200000003,252.8093200000003,252.8093200000003,252.8093200000003,252.8093200000003,252.8093200000003,252.8093200000003,252.8093200000003,252.8093200000003,007,P001,2025_Jan_17_1915,ConditionRich,2021.2.3,59.949306866574204,
204.0,204.75,28,0.75,Stimuli/P001/things_girl_01b.jpg,0,0.0,0.0,0,87,87,87,,,,,,,,,,,,,204.02953900000284,0.02953900000284193,None,,256.04549150000094,256.04549150000094,256.04549150000094,256.04549150000094,256.04549150000094,256.04549150000094,256.04549150000094,256.04549150000094,256.04549150000094,256.04549150000094,007,P001,2025_Jan_17_1915,ConditionRich,2021.2.3,59.949306866574204,
204.75,208.0,41,0.0,Stimuli/Blank.png,0,0.0,0.0,0,88,88,88,,,,,,,,,,,,,204.7638994000008,0.013899400000809692,5,1.2130364000040572,256.7794777999952,256.7794777999952,256.7794777999952,256.7794777999952,256.7794777999952,256.7794777999952,256.7794777999952,256.7794777999952,256.7794777999952,256.7794777999952,007,P001,2025_Jan_17_1915,ConditionRich,2021.2.3,59.949306866574204,
208.0,208.75,33,0.75,Stimuli/P001/things_pan_01b.jpg,1,0.0,0.75,0,89,89,89,,,,,,,,,,,,,207.99996880000253,-3.119999746559188e-05,3,0.34710700000141514,260.0323403000002,260.0323403000002,260.0323403000002,260.0323403000002,260.0323403000002,260.0323403000002,260.0323403000002,260.74964409999666,260.0323403000002,260.0323403000002,007,P001,2025_Jan_17_1915,ConditionRich,2021.2.3,59.949306866574204,
208.75,212.0,41,0.0,Stimuli/Blank.png,0,0.0,0.0,0,90,90,90,,,,,,,,,,,,,208.76903380000294,0.01903380000294419,5,3.192682300003071,260.79970079999475,260.79970079999475,260.79970079999475,260.79970079999475,260.79970079999475,260.79970079999475,260.79970079999475,260.79970079999475,260.79970079999475,260.79970079999475,007,P001,2025_Jan_17_1915,ConditionRich,2021.2.3,59.949306866574204,
212.0,212.75,32,0.75,Stimuli/P001/things_oyster_01b.jpg,0,0.0,0.0,0,91,91,91,,,,,,,,,,,,,212.01903519999905,0.019035199999052566,None,,264.03589049999573,264.03589049999573,264.03589049999573,264.03589049999573,264.03589049999573,264.03589049999573,264.03589049999573,264.03589049999573,264.03589049999573,264.03589049999573,007,P001,2025_Jan_17_1915,ConditionRich,2021.2.3,59.949306866574204,
212.75,216.0,41,0.0,Stimuli/Blank.png,0,0.0,0.0,0,92,92,92,,,,,,,,,,,,,212.7544379000028,0.004437900002812967,5,1.2225307000044268,264.76987829999416,264.76987829999416,264.76987829999416,264.76987829999416,264.76987829999416,264.76987829999416,264.76987829999416,264.76987829999416,264.76987829999416,264.76987829999416,007,P001,2025_Jan_17_1915,ConditionRich,2021.2.3,59.949306866574204,
216.0,216.75,5,0.75,Stimuli/P001/sun_apwzcrxhvvnrexjh.jpg,0,0.0,0.0,0,93,93,93,,,,,,,,,,,,,216.00844900000084,0.008449000000837259,None,,268.0394273999991,268.0394273999991,268.0394273999991,268.0394273999991,268.0394273999991,268.0394273999991,268.0394273999991,268.0394273999991,268.0394273999991,268.0394273999991,007,P001,2025_Jan_17_1915,ConditionRich,2021.2.3,59.949306866574204,
216.75,220.0,41,0.0,Stimuli/Blank.png,0,0.0,0.0,0,94,94,94,,,,,,,,,,,,,216.77382620000571,0.02382620000571478,5,3.202267300002859,268.7901111999963,268.7901111999963,268.7901111999963,268.7901111999963,268.7901111999963,268.7901111999963,268.7901111999963,268.7901111999963,268.7901111999963,268.7901111999963,007,P001,2025_Jan_17_1915,ConditionRich,2021.2.3,59.949306866574204,
220.0,220.75,29,0.75,Stimuli/P001/things_grinder_01b.jpg,0,0.0,0.0,0,95,95,95,,,,,,,,,,,,,220.0098941000033,0.009894100003293715,None,,272.0262808999978,272.0262808999978,272.0262808999978,272.0262808999978,272.0262808999978,272.0262808999978,272.0262808999978,272.0262808999978,272.0262808999978,272.0262808999978,007,P001,2025_Jan_17_1915,ConditionRich,2021.2.3,59.949306866574204,
220.75,224.0,41,0.0,Stimuli/Blank.png,0,0.0,0.0,0,96,96,96,,,,,,,,,,,,,220.76018040000054,0.010180400000535883,5,3.215425000002142,272.77694039999915,272.77694039999915,272.77694039999915,272.77694039999915,272.77694039999915,272.77694039999915,272.77694039999915,272.77694039999915,272.77694039999915,272.77694039999915,007,P001,2025_Jan_17_1915,ConditionRich,2021.2.3,59.949306866574204,
224.0,224.75,34,0.75,Stimuli/P001/things_parrot_01b.jpg,0,0.0,0.0,0,97,97,97,,,,,,,,,,,,,224.01452989999962,0.014529899999615736,None,,276.04652859999624,276.04652859999624,276.04652859999624,276.04652859999624,276.04652859999624,276.04652859999624,276.04652859999624,276.04652859999624,276.04652859999624,276.04652859999624,007,P001,2025_Jan_17_1915,ConditionRich,2021.2.3,59.949306866574204,
224.75,228.0,41,0.0,Stimuli/Blank.png,0,0.0,0.0,0,98,98,98,,,,,,,,,,,,,224.7804815000054,0.030481500005407725,5,1.19534470000508,276.7971666000012,276.7971666000012,276.7971666000012,276.7971666000012,276.7971666000012,276.7971666000012,276.7971666000012,276.7971666000012,276.7971666000012,276.7971666000012,007,P001,2025_Jan_17_1915,ConditionRich,2021.2.3,59.949306866574204,
228.0,228.75,27,0.75,Stimuli/P001/things_dynamite_01b.jpg,0,0.0,0.0,0,99,99,99,,,,,,,,,,,,,228.00015669999993,0.00015669999993406236,None,,280.0166728999975,280.0166728999975,280.0166728999975,280.0166728999975,280.0166728999975,280.0166728999975,280.0166728999975,280.0166728999975,280.0166728999975,280.0166728999975,007,P001,2025_Jan_17_1915,ConditionRich,2021.2.3,59.949306866574204,
228.75,232.0,41,0.0,Stimuli/Blank.png,1,1.25,2.0,0,100,100,100,,,,,,,,,,,,,228.75123980000353,0.0012398000035318546,3,1.5550946000003023,280.76733579999564,280.76733579999564,280.76733579999564,280.76733579999564,280.76733579999564,280.76733579999564,282.001774999997,282.7524207999959,280.76733579999564,280.76733579999564,007,P001,2025_Jan_17_1915,ConditionRich,2021.2.3,59.949306866574204,
232.0,232.75,25,0.75,Stimuli/P001/things_curry_01b.jpg,0,0.0,0.0,0,101,101,101,,,,,,,,,,,,,232.00413780000235,0.004137800002354197,None,,284.03690579999966,284.03690579999966,284.03690579999966,284.03690579999966,284.03690579999966,284.03690579999966,284.03690579999966,284.03690579999966,284.03690579999966,284.03690579999966,007,P001,2025_Jan_17_1915,ConditionRich,2021.2.3,59.949306866574204,
232.75,236.0,41,0.0,Stimuli/Blank.png,0,0.0,0.0,0,102,102,102,,,,,,,,,,,,,232.773666699999,0.023666699999012053,5,3.1880311999993864,284.80425119999563,284.80425119999563,284.80425119999563,284.80425119999563,284.80425119999563,284.80425119999563,284.80425119999563,284.80425119999563,284.80425119999563,284.80425119999563,007,P001,2025_Jan_17_1915,ConditionRich,2021.2.3,59.949306866574204,
236.0,236.75,20,0.75,Stimuli/P001/sun_dkgctqgpvxbaoyks.jpg,0,0.0,0.0,0,103,103,103,,,,,,,,,,,,,236.0257186000017,0.02571860000171,None,,288.05712589999894,288.05712589999894,288.05712589999894,288.05712589999894,288.05712589999894,288.05712589999894,288.05712589999894,288.05712589999894,288.05712589999894,288.05712589999894,007,P001,2025_Jan_17_1915,ConditionRich,2021.2.3,59.949306866574204,
236.75,240.0,41,0.0,Stimuli/Blank.png,0,0.0,0.0,0,104,104,104,,,,,,,,,,,,,236.77406700000574,0.024067000005743466,5,3.20135979999759,288.79109759999847,288.79109759999847,288.79109759999847,288.79109759999847,288.79109759999847,288.79109759999847,288.79109759999847,288.79109759999847,288.79109759999847,288.79109759999847,007,P001,2025_Jan_17_1915,ConditionRich,2021.2.3,59.949306866574204,
240.0,240.75,39,0.75,Stimuli/P001/things_woman_01b.jpg,0,0.0,0.0,0,105,105,105,,,,,,,,,,,,,240.0112758000032,0.011275800003204495,None,,292.0439647999956,292.0439647999956,292.0439647999956,292.0439647999956,292.0439647999956,292.0439647999956,292.0439647999956,292.0439647999956,292.0439647999956,292.0439647999956,007,P001,2025_Jan_17_1915,ConditionRich,2021.2.3,59.949306866574204,
240.75,244.0,41,0.0,Stimuli/Blank.png,0,0.0,0.0,0,106,106,106,,,,,,,,,,,,,240.77817979999963,0.02817979999963427,5,3.19771220000257,292.79463759999635,292.79463759999635,292.79463759999635,292.79463759999635,292.79463759999635,292.79463759999635,292.79463759999635,292.79463759999635,292.79463759999635,292.79463759999635,007,P001,2025_Jan_17_1915,ConditionRich,2021.2.3,59.949306866574204,
244.0,244.75,7,0.75,Stimuli/P001/sun_arlesyjqxmqmcccl.jpg,0,0.0,0.0,0,107,107,107,,,,,,,,,,,,,244.0140307000038,0.014030700003786478,None,,296.0308317999952,296.0308317999952,296.0308317999952,296.0308317999952,296.0308317999952,296.0308317999952,296.0308317999952,296.0308317999952,296.0308317999952,296.0308317999952,007,P001,2025_Jan_17_1915,ConditionRich,2021.2.3,59.949306866574204,
244.75,248.0,41,0.0,Stimuli/Blank.png,1,2.25,3.0,0,108,108,108,,,,,,,,,,,,,244.7649376000045,0.01493760000448674,3,2.6599204000012833,296.7814870000002,296.7814870000002,296.7814870000002,296.7814870000002,296.7814870000002,296.7814870000002,299.01683989999583,299.76752309999574,296.7814870000002,296.7814870000002,007,P001,2025_Jan_17_1915,ConditionRich,2021.2.3,59.949306866574204,
248.0,248.75,2,0.75,Stimuli/P001/sun_akmxsxepquhynflp.jpg,0,0.0,0.0,0,109,109,109,,,,,,,,,,,,,248.00371210000594,0.0037121000059414655,None,,300.03436879999936,300.03436879999936,300.03436879999936,300.03436879999936,300.03436879999936,300.03436879999936,300.03436879999936,300.03436879999936,300.03436879999936,300.03436879999936,007,P001,2025_Jan_17_1915,ConditionRich,2021.2.3,59.949306866574204,
248.75,252.0,41,0.0,Stimuli/Blank.png,0,0.0,0.0,0,110,110,110,,,,,,,,,,,,,248.76953770000546,0.019537700005457737,5,1.2075783999971463,300.7850496999963,300.7850496999963,300.7850496999963,300.7850496999963,300.7850496999963,300.7850496999963,300.7850496999963,300.7850496999963,300.7850496999963,300.7850496999963,007,P001,2025_Jan_17_1915,ConditionRich,2021.2.3,59.949306866574204,
252.0,252.75,18,0.75,Stimuli/P001/sun_bzjegfvyrvqtunza.jpg,0,0.0,0.0,0,111,111,111,,,,,,,,,,,,,252.00471639999887,0.004716399998869747,None,,304.02121839999745,304.02121839999745,304.02121839999745,304.02121839999745,304.02121839999745,304.02121839999745,304.02121839999745,304.02121839999745,304.02121839999745,304.02121839999745,007,P001,2025_Jan_17_1915,ConditionRich,2021.2.3,59.949306866574204,
252.75,256.0,41,0.0,Stimuli/Blank.png,0,0.0,0.0,0,112,112,112,,,,,,,,,,,,,252.75540819999878,0.005408199998782948,5,3.2205446000007214,304.7718948999973,304.7718948999973,304.7718948999973,304.7718948999973,304.7718948999973,304.7718948999973,304.7718948999973,304.7718948999973,304.7718948999973,304.7718948999973,007,P001,2025_Jan_17_1915,ConditionRich,2021.2.3,59.949306866574204,
256.0,256.75,14,0.75,Stimuli/P001/sun_bfgxassmmvhtarcc.jpg,1,0.0,0.75,0,113,113,113,,,,,,,,,,,,,256.00903230000404,0.009032300004037097,3,0.4219292999987374,308.04146699999546,308.04146699999546,308.04146699999546,308.04146699999546,308.04146699999546,308.04146699999546,308.04146699999546,308.77542079999694,308.04146699999546,308.04146699999546,007,P001,2025_Jan_17_1915,ConditionRich,2021.2.3,59.949306866574204,
256.75,260.0,41,0.0,Stimuli/Blank.png,0,0.0,0.0,0,114,114,114,,,,,,,,,,,,,256.77523790000123,0.02523790000122972,5,3.200276399998984,308.79212030000053,308.79212030000053,308.79212030000053,308.79212030000053,308.79212030000053,308.79212030000053,308.79212030000053,308.79212030000053,308.79212030000053,308.79212030000053,007,P001,2025_Jan_17_1915,ConditionRich,2021.2.3,59.949306866574204,
260.0,260.75,36,0.75,Stimuli/P001/things_stalagmite_01b.jpg,0,0.0,0.0,0,115,115,115,,,,,,,,,,,,,260.01356790000136,0.013567900001362432,None,,312.0449841000009,312.0449841000009,312.0449841000009,312.0449841000009,312.0449841000009,312.0449841000009,312.0449841000009,312.0449841000009,312.0449841000009,312.0449841000009,007,P001,2025_Jan_17_1915,ConditionRich,2021.2.3,59.949306866574204,
260.75,264.0,41,0.0,Stimuli/Blank.png,0,0.0,0.0,0,116,116,116,,,,,,,,,,,,,260.7798985000045,0.029898500004492234,5,1.1967675000050804,312.7957505000013,312.7957505000013,312.7957505000013,312.7957505000013,312.7957505000013,312.7957505000013,312.7957505000013,312.7957505000013,312.7957505000013,312.7957505000013,007,P001,2025_Jan_17_1915,ConditionRich,2021.2.3,59.949306866574204,
264.0,264.75,24,0.75,Stimuli/P001/things_cornucopia_01b.jpg,0,0.0,0.0,0,117,117,117,,,,,,,,,,,,,263.9991688000009,-0.0008311999990837649,None,,316.03187199999957,316.03187199999957,316.03187199999957,316.03187199999957,316.03187199999957,316.03187199999957,316.03187199999957,316.03187199999957,316.03187199999957,316.03187199999957,007,P001,2025_Jan_17_1915,ConditionRich,2021.2.3,59.949306866574204,
264.75,268.0,41,0.0,Stimuli/Blank.png,0,0.0,0.0,0,118,118,118,,,,,,,,,,,,,264.7676601999992,0.01766019999922719,5,3.19345759999851,316.7991908999975,316.7991908999975,316.7991908999975,316.7991908999975,316.7991908999975,316.7991908999975,316.7991908999975,316.7991908999975,316.7991908999975,316.7991908999975,007,P001,2025_Jan_17_1915,ConditionRich,2021.2.3,59.949306866574204,
268.0,268.75,40,0.75,Stimuli/P001/things_worm_01b.jpg,0,0.0,0.0,0,119,119,119,,,,,,,,,,,,,268.01958990000276,0.01958990000275662,None,,320.0520637000009,320.0520637000009,320.0520637000009,320.0520637000009,320.0520637000009,320.0520637000009,320.0520637000009,320.0520637000009,320.0520637000009,320.0520637000009,007,P001,2025_Jan_17_1915,ConditionRich,2021.2.3,59.949306866574204,
268.75,272.0,41,0.0,Stimuli/Blank.png,0,0.0,0.0,0,120,120,120,,,,,,,,,,,,,268.7695947000029,0.019594700002926402,5,1.206570100002864,320.7860404999956,320.7860404999956,320.7860404999956,320.7860404999956,320.7860404999956,320.7860404999956,320.7860404999956,320.7860404999956,320.7860404999956,320.7860404999956,007,P001,2025_Jan_17_1915,ConditionRich,2021.2.3,59.949306866574204,
272.0,272.75,26,0.75,Stimuli/P001/things_dish_01b.jpg,0,0.0,0.0,0,121,121,121,,,,,,,,,,,,,272.00566300000355,0.005663000003551133,None,,324.0389236999981,324.0389236999981,324.0389236999981,324.0389236999981,324.0389236999981,324.0389236999981,324.0389236999981,324.0389236999981,324.0389236999981,324.0389236999981,007,P001,2025_Jan_17_1915,ConditionRich,2021.2.3,59.949306866574204,
272.75,276.0,41,0.0,Stimuli/Blank.png,0,0.0,0.0,0,122,122,122,,,,,,,,,,,,,272.7733226000055,0.023322600005485583,5,3.2032471999991685,324.78957439999795,324.78957439999795,324.78957439999795,324.78957439999795,324.78957439999795,324.78957439999795,324.78957439999795,324.78957439999795,324.78957439999795,324.78957439999795,007,P001,2025_Jan_17_1915,ConditionRich,2021.2.3,59.949306866574204,
276.0,292.0,0,0.0,Stimuli/Blank.png,1,4.0,4.75,0,123,123,123,,,,,,,,,,,,,276.00982540000405,0.009825400004046969,5,13.966638100006094,328.02577069999825,328.02577069999825,328.02577069999825,328.02577069999825,328.02577069999825,328.02577069999825,332.0126343000011,332.7632811000003,328.02577069999825,328.02577069999825,007,P001,2025_Jan_17_1915,ConditionRich,2021.2.3,59.949306866574204,
292.0,292.75,22,0.75,Stimuli/P001/things_boy_01b.jpg,1,0.0,0.75,0,124,124,124,,,,,,,,,,,,,292.00962970000546,0.009629700005461928,3,0.35247469999740133,344.039949799997,344.039949799997,344.039949799997,344.039949799997,344.039949799997,344.039949799997,344.039949799997,344.7572641999941,344.039949799997,344.039949799997,007,P001,2025_Jan_17_1915,ConditionRich,2021.2.3,59.949306866574204,
292.75,296.0,41,0.0,Stimuli/Blank.png,0,0.0,0.0,0,125,125,125,,,,,,,,,,,,,292.7743466000029,0.02434660000290023,5,3.201906499998586,344.79058789999544,344.79058789999544,344.79058789999544,344.79058789999544,344.79058789999544,344.79058789999544,344.79058789999544,344.79058789999544,344.79058789999544,344.79058789999544,007,P001,2025_Jan_17_1915,ConditionRich,2021.2.3,59.949306866574204,
296.0,296.75,13,0.75,Stimuli/P001/sun_bfdmlbkyioxnkodb.jpg,0,0.0,0.0,0,126,126,126,,,,,,,,,,,,,296.0104261000015,0.010426100001495797,None,,348.02677720000065,348.02677720000065,348.02677720000065,348.02677720000065,348.02677720000065,348.02677720000065,348.02677720000065,348.02677720000065,348.02677720000065,348.02677720000065,007,P001,2025_Jan_17_1915,ConditionRich,2021.2.3,59.949306866574204,
296.75,300.0,41,0.0,Stimuli/Blank.png,0,0.0,0.0,0,127,127,127,,,,,,,,,,,,,296.76061050000135,0.010610500001348555,5,3.215102799993474,348.7774408999976,348.7774408999976,348.7774408999976,348.7774408999976,348.7774408999976,348.7774408999976,348.7774408999976,348.7774408999976,348.7774408999976,348.7774408999976,007,P001,2025_Jan_17_1915,ConditionRich,2021.2.3,59.949306866574204,
300.0,300.75,12,0.75,Stimuli/P001/sun_bdxvmnlyovhqognn.jpg,0,0.0,0.0,0,128,128,128,,,,,,,,,,,,,300.01452920000156,0.014529200001561549,None,,352.0469957999958,352.0469957999958,352.0469957999958,352.0469957999958,352.0469957999958,352.0469957999958,352.0469957999958,352.0469957999958,352.0469957999958,352.0469957999958,007,P001,2025_Jan_17_1915,ConditionRich,2021.2.3,59.949306866574204,
300.75,304.0,41,0.0,Stimuli/Blank.png,1,1.25,2.0,0,129,129,129,,,,,,,,,,,,,300.7835078999997,0.03350789999967674,5,3.178059800004121,352.8143532999966,352.8143532999966,352.8143532999966,352.8143532999966,352.8143532999966,352.8143532999966,354.0487986999942,354.7994238999963,352.8143532999966,352.8143532999966,007,P001,2025_Jan_17_1915,ConditionRich,2021.2.3,59.949306866574204,
304.0,304.75,4,0.75,Stimuli/P001/sun_aonjwqswdblhlpkm.jpg,0,0.0,0.0,0,130,130,130,,,,,,,,,,,,,304.0173492000031,0.017349200003081933,None,,356.03386070000124,356.03386070000124,356.03386070000124,356.03386070000124,356.03386070000124,356.03386070000124,356.03386070000124,356.03386070000124,356.03386070000124,356.03386070000124,007,P001,2025_Jan_17_1915,ConditionRich,2021.2.3,59.949306866574204,
304.75,308.0,41,0.0,Stimuli/Blank.png,0,0.0,0.0,0,131,131,131,,,,,,,,,,,,,304.7536809000012,0.003680900001199916,5,3.2080977000005078,356.78452039999684,356.78452039999684,356.78452039999684,356.78452039999684,356.78452039999684,356.78452039999684,356.78452039999684,356.78452039999684,356.78452039999684,356.78452039999684,007,P001,2025_Jan_17_1915,ConditionRich,2021.2.3,59.949306866574204,
308.0,308.75,19,0.75,Stimuli/P001/sun_bzyyqqczvrnvukdn.jpg,0,0.0,0.0,0,132,132,132,,,,,,,,,,,,,308.0235518000045,0.023551800004497636,None,,360.05408349999925,360.05408349999925,360.05408349999925,360.05408349999925,360.05408349999925,360.05408349999925,360.05408349999925,360.05408349999925,360.05408349999925,360.05408349999925,007,P001,2025_Jan_17_1915,ConditionRich,2021.2.3,59.949306866574204,
308.75,312.0,41,0.0,Stimuli/Blank.png,0,0.0,0.0,0,133,133,133,,,,,,,,,,,,,308.77365380000265,0.023653800002648495,5,3.187790199997835,360.80474839999806,360.80474839999806,360.80474839999806,360.80474839999806,360.80474839999806,360.80474839999806,360.80474839999806,360.80474839999806,360.80474839999806,360.80474839999806,007,P001,2025_Jan_17_1915,ConditionRich,2021.2.3,59.949306866574204,
312.0,312.75,3,0.75,Stimuli/P001/sun_amarqtinchblqmah.jpg,0,0.0,0.0,0,134,134,134,,,,,,,,,,,,,312.02425430000585,0.024254300005850382,None,,364.04093060000014,364.04093060000014,364.04093060000014,364.04093060000014,364.04093060000014,364.04093060000014,364.04093060000014,364.04093060000014,364.04093060000014,364.04093060000014,007,P001,2025_Jan_17_1915,ConditionRich,2021.2.3,59.949306866574204,
312.75,316.0,41,0.0,Stimuli/Blank.png,1,1.25,2.0,0,135,135,135,,,,,,,,,,,,,312.75805960000434,0.008059600004344247,5,3.2174551999996766,364.77491149999696,364.77491149999696,364.77491149999696,364.77491149999696,364.77491149999696,364.77491149999696,366.00933729999815,366.759999599999,364.77491149999696,364.77491149999696,007,P001,2025_Jan_17_1915,ConditionRich,2021.2.3,59.949306866574204,
316.0,316.75,16,0.75,Stimuli/P001/sun_biqyomkjbujnppuf.jpg,0,0.0,0.0,0,136,136,136,,,,,,,,,,,,,316.01194110000506,0.011941100005060434,None,,368.04448609999963,368.04448609999963,368.04448609999963,368.04448609999963,368.04448609999963,368.04448609999963,368.04448609999963,368.04448609999963,368.04448609999963,368.04448609999963,007,P001,2025_Jan_17_1915,ConditionRich,2021.2.3,59.949306866574204,
316.75,320.0,41,0.0,Stimuli/Blank.png,0,0.0,0.0,0,137,137,137,,,,,,,,,,,,,316.77930840000045,0.029308400000445545,5,3.197177300004114,368.7951361999949,368.7951361999949,368.7951361999949,368.7951361999949,368.7951361999949,368.7951361999949,368.7951361999949,368.7951361999949,368.7951361999949,368.7951361999949,007,P001,2025_Jan_17_1915,ConditionRich,2021.2.3,59.949306866574204,
320.0,320.75,37,0.75,Stimuli/P001/things_starfish_01b.jpg,0,0.0,0.0,0,138,138,138,,,,,,,,,,,,,320.01519250000274,0.015192500002740417,None,,372.0313298999972,372.0313298999972,372.0313298999972,372.0313298999972,372.0313298999972,372.0313298999972,372.0313298999972,372.0313298999972,372.0313298999972,372.0313298999972,007,P001,2025_Jan_17_1915,ConditionRich,2021.2.3,59.949306866574204,
320.75,324.0,41,0.0,Stimuli/Blank.png,0,0.0,0.0,0,139,139,139,,,,,,,,,,,,,320.74955110000155,-0.00044889999844599515,5,1.2270996000006562,372.76532510000106,372.76532510000106,372.76532510000106,372.76532510000106,372.76532510000106,372.76532510000106,372.76532510000106,372.76532510000106,372.76532510000106,372.76532510000106,007,P001,2025_Jan_17_1915,ConditionRich,2021.2.3,59.949306866574204,
324.0,324.75,9,0.75,Stimuli/P001/sun_awtltwwpwbepuuqv.jpg,0,0.0,0.0,0,140,140,140,,,,,,,,,,,,,324.00408099999913,0.004080999999132473,None,,376.03487369999493,376.03487369999493,376.03487369999493,376.03487369999493,376.03487369999493,376.03487369999493,376.03487369999493,376.03487369999493,376.03487369999493,376.03487369999493,007,P001,2025_Jan_17_1915,ConditionRich,2021.2.3,59.949306866574204,
324.75,328.0,41,0.0,Stimuli/Blank.png,0,0.0,0.0,0,141,141,141,,,,,,,,,,,,,324.7691795999999,0.01917959999991581,5,3.1902122999963467,376.8022373999993,376.8022373999993,376.8022373999993,376.8022373999993,376.8022373999993,376.8022373999993,376.8022373999993,376.8022373999993,376.8022373999993,376.8022373999993,007,P001,2025_Jan_17_1915,ConditionRich,2021.2.3,59.949306866574204,
328.0,328.75,8,0.75,Stimuli/P001/sun_asqboyqakusycvwd.jpg,0,0.0,0.0,0,142,142,142,,,,,,,,,,,,,328.023938600003,0.023938600003020838,None,,380.0550873999964,380.0550873999964,380.0550873999964,380.0550873999964,380.0550873999964,380.0550873999964,380.0550873999964,380.0550873999964,380.0550873999964,380.0550873999964,007,P001,2025_Jan_17_1915,ConditionRich,2021.2.3,59.949306866574204,
328.75,332.0,41,0.0,Stimuli/Blank.png,0,0.0,0.0,0,143,143,143,,,,,,,,,,,,,328.7740918000054,0.024091800005408004,5,3.18670469999779,380.80576769999607,380.80576769999607,380.80576769999607,380.80576769999607,380.80576769999607,380.80576769999607,380.80576769999607,380.80576769999607,380.80576769999607,380.80576769999607,007,P001,2025_Jan_17_1915,ConditionRich,2021.2.3,59.949306866574204,
332.0,332.75,11,0.75,Stimuli/P001/sun_bbfdgdyeqdnadvvi.jpg,0,0.0,0.0,0,144,144,144,,,,,,,,,,,,,332.02531170000293,0.025311700002930593,None,,384.05863059999683,384.05863059999683,384.05863059999683,384.05863059999683,384.05863059999683,384.05863059999683,384.05863059999683,384.05863059999683,384.05863059999683,384.05863059999683,007,P001,2025_Jan_17_1915,ConditionRich,2021.2.3,59.949306866574204,
332.75,336.0,41,0.0,Stimuli/Blank.png,0,0.0,0.0,0,145,145,145,,,,,,,,,,,,,332.77579420000257,0.02579420000256505,5,3.1997450000053504,384.79260039999645,384.79260039999645,384.79260039999645,384.79260039999645,384.79260039999645,384.79260039999645,384.79260039999645,384.79260039999645,384.79260039999645,384.79260039999645,007,P001,2025_Jan_17_1915,ConditionRich,2021.2.3,59.949306866574204,
336.0,336.75,1,0.75,Stimuli/P001/sun_agpgdwkhzgvzdaea.jpg,1,0.0,0.75,0,146,146,146,,,,,,,,,,,,,336.01304450000316,0.013044500003161374,3,0.46996429999853717,388.04550699999527,388.04550699999527,388.04550699999527,388.04550699999527,388.04550699999527,388.04550699999527,388.04550699999527,388.7794517000002,388.04550699999527,388.04550699999527,007,P001,2025_Jan_17_1915,ConditionRich,2021.2.3,59.949306866574204,
336.75,340.0,41,0.0,Stimuli/Blank.png,0,0.0,0.0,0,147,147,147,,,,,,,,,,,,,336.78007490000164,0.030074900001636706,5,1.196256999995967,388.79613999999856,388.79613999999856,388.79613999999856,388.79613999999856,388.79613999999856,388.79613999999856,388.79613999999856,388.79613999999856,388.79613999999856,388.79613999999856,007,P001,2025_Jan_17_1915,ConditionRich,2021.2.3,59.949306866574204,
340.0,340.75,38,0.75,Stimuli/P001/things_windowsill_01b.jpg,0,0.0,0.0,0,148,148,148,,,,,,,,,,,,,340.00003200000356,3.2000003557186574e-05,None,,392.03240039999946,392.03240039999946,392.03240039999946,392.03240039999946,392.03240039999946,392.03240039999946,392.03240039999946,392.03240039999946,392.03240039999946,392.03240039999946,007,P001,2025_Jan_17_1915,ConditionRich,2021.2.3,59.949306866574204,
340.75,344.0,41,0.0,Stimuli/Blank.png,0,0.0,0.0,0,149,149,149,,,,,,,,,,,,,340.7686726000029,0.018672600002901163,5,3.192980699997861,392.79968969999754,392.79968969999754,392.79968969999754,392.79968969999754,392.79968969999754,392.79968969999754,392.79968969999754,392.79968969999754,392.79968969999754,392.79968969999754,007,P001,2025_Jan_17_1915,ConditionRich,2021.2.3,59.949306866574204,
344.0,344.75,6,0.75,Stimuli/P001/sun_aqbaaqeojrexbmcr.jpg,1,0.0,0.75,0,150,150,150,,,,,,,,,,,,,344.01905100000295,0.01905100000294624,3,0.3765053000024636,396.03587490000064,396.03587490000064,396.03587490000064,396.03587490000064,396.03587490000064,396.03587490000064,396.03587490000064,None,396.03587490000064,396.03587490000064,007,P001,2025_Jan_17_1915,ConditionRich,2021.2.3,59.949306866574204,
344.75,348.0,41,0.0,Stimuli/Blank.png,0,0.0,0.0,0,151,151,151,,,,,,,,,,,,,344.75469030000386,0.004690300003858283,5,1.2226035999992746,396.7698758999977,396.7698758999977,396.7698758999977,396.7698758999977,396.7698758999977,396.7698758999977,396.7698758999977,396.7698758999977,396.7698758999977,396.7698758999977,007,P001,2025_Jan_17_1915,ConditionRich,2021.2.3,59.949306866574204,
348.0,348.75,21,0.75,Stimuli/P001/things_baby_01b.jpg,0,0.0,0.0,0,152,152,152,,,,,,,,,,,,,348.0087746999998,0.008774699999776203,None,,400.0394210999948,400.0394210999948,400.0394210999948,400.0394210999948,400.0394210999948,400.0394210999948,400.0394210999948,400.0394210999948,400.0394210999948,400.0394210999948,007,P001,2025_Jan_17_1915,ConditionRich,2021.2.3,59.949306866574204,
348.75,352.0,41,0.0,Stimuli/Blank.png,0,0.0,0.0,0,153,153,153,,,,,,,,,,,,,348.77369180000096,0.02369180000096094,5,3.2024348999984795,400.7900754000002,400.7900754000002,400.7900754000002,400.7900754000002,400.7900754000002,400.7900754000002,400.7900754000002,400.7900754000002,400.7900754000002,400.7900754000002,007,P001,2025_Jan_17_1915,ConditionRich,2021.2.3,59.949306866574204,
352.0,352.75,23,0.75,Stimuli/P001/things_chick_01b.jpg,0,0.0,0.0,0,154,154,154,,,,,,,,,,,,,352.01014760000544,0.010147600005439017,None,,404.0262655999977,404.0262655999977,404.0262655999977,404.0262655999977,404.0262655999977,404.0262655999977,404.0262655999977,404.0262655999977,404.0262655999977,404.0262655999977,007,P001,2025_Jan_17_1915,ConditionRich,2021.2.3,59.949306866574204,
352.75,356.0,41,0.0,Stimuli/Blank.png,0,0.0,0.0,0,155,155,155,,,,,,,,,,,,,352.7608288000047,0.010828800004674122,5,3.215531400004693,404.7770098999972,404.7770098999972,404.7770098999972,404.7770098999972,404.7770098999972,404.7770098999972,404.7770098999972,404.7770098999972,404.7770098999972,404.7770098999972,007,P001,2025_Jan_17_1915,ConditionRich,2021.2.3,59.949306866574204,
356.0,356.75,10,0.75,Stimuli/P001/sun_aykefnhciwsffcrj.jpg,0,0.0,0.0,0,156,156,156,,,,,,,,,,,,,356.01303729999927,0.013037299999268726,None,,408.0298034000007,408.0298034000007,408.0298034000007,408.0298034000007,408.0298034000007,408.0298034000007,408.0298034000007,408.0298034000007,408.0298034000007,408.0298034000007,007,P001,2025_Jan_17_1915,ConditionRich,2021.2.3,59.949306866574204,
356.75,360.0,41,0.0,Stimuli/Blank.png,0,0.0,0.0,0,157,157,157,,,,,,,,,,,,,356.76445700000477,0.014457000004767906,5,1.2120911999954842,408.7804729999989,408.7804729999989,408.7804729999989,408.7804729999989,408.7804729999989,408.7804729999989,408.7804729999989,408.7804729999989,408.7804729999989,408.7804729999989,007,P001,2025_Jan_17_1915,ConditionRich,2021.2.3,59.949306866574204,
360.0,360.75,15,0.75,Stimuli/P001/sun_bfzoxbkvsfqxsyle.jpg,0,0.0,0.0,0,158,158,158,,,,,,,,,,,,,360.0000411000001,4.11000000895001e-05,None,,412.0333448999954,412.0333448999954,412.0333448999954,412.0333448999954,412.0333448999954,412.0333448999954,412.0333448999954,412.0333448999954,412.0333448999954,412.0333448999954,007,P001,2025_Jan_17_1915,ConditionRich,2021.2.3,59.949306866574204,
360.75,364.0,41,0.0,Stimuli/Blank.png,0,0.0,0.0,0,159,159,159,,,,,,,,,,,,,360.769492899999,0.019492899999022484,5,3.1928769999940414,412.8006905000002,412.8006905000002,412.8006905000002,412.8006905000002,412.8006905000002,412.8006905000002,412.8006905000002,412.8006905000002,412.8006905000002,412.8006905000002,007,P001,2025_Jan_17_1915,ConditionRich,2021.2.3,59.949306866574204,
364.0,364.75,30,0.75,Stimuli/P001/things_iguana_01b.jpg,0,0.0,0.0,0,160,160,160,,,,,,,,,,,,,364.0201098000034,0.020109800003410783,None,,416.0368503999998,416.0368503999998,416.0368503999998,416.0368503999998,416.0368503999998,416.0368503999998,416.0368503999998,416.0368503999998,416.0368503999998,416.0368503999998,007,P001,2025_Jan_17_1915,ConditionRich,2021.2.3,59.949306866574204,
364.75,368.0,41,0.0,Stimuli/Blank.png,0,0.0,0.0,0,161,161,161,,,,,,,,,,,,,364.7538408000037,0.0038408000036724843,5,1.2225821999963955,416.77085950000037,416.77085950000037,416.77085950000037,416.77085950000037,416.77085950000037,416.77085950000037,416.77085950000037,416.77085950000037,416.77085950000037,416.77085950000037,007,P001,2025_Jan_17_1915,ConditionRich,2021.2.3,59.949306866574204,
368.0,368.75,17,0.75,Stimuli/P001/sun_bshgmgbmpvjkxfis.jpg,0,0.0,0.0,0,162,162,162,,,,,,,,,,,,,368.00952490000054,0.009524900000542402,None,,420.0404186999949,420.0404186999949,420.0404186999949,420.0404186999949,420.0404186999949,420.0404186999949,420.0404186999949,420.0404186999949,420.0404186999949,420.0404186999949,007,P001,2025_Jan_17_1915,ConditionRich,2021.2.3,59.949306866574204,
368.75,372.0,41,0.0,Stimuli/Blank.png,0,0.0,0.0,0,163,163,163,,,,,,,,,,,,,368.7744490000041,0.024449000004096888,5,3.202384099997289,420.79108070000075,420.79108070000075,420.79108070000075,420.79108070000075,420.79108070000075,420.79108070000075,420.79108070000075,420.79108070000075,420.79108070000075,420.79108070000075,007,P001,2025_Jan_17_1915,ConditionRich,2021.2.3,59.949306866574204,
372.0,388.0,0,0.0,Stimuli/Blank.png,1,8.0,8.75,0,164,164,164,,,,,,,,,,,,,372.01109330000327,0.011093300003267359,5,13.96614199999749,424.0272769000003,424.0272769000003,424.0272769000003,424.0272769000003,424.0272769000003,424.0272769000003,432.0176758999951,432.76836529999855,424.0272769000003,424.0272769000003,007,P001,2025_Jan_17_1915,ConditionRich,2021.2.3,59.949306866574204,
