eventStartTime,eventEndTime,eventCond,imSize,imFile,responseEvent,fixRespStart,fixRespEnd,Events.thisRepN,Events.thisTrialN,Events.thisN,Events.thisIndex,Instructions.started,Instructions.stopped,participantReadyResponse.keys,participantReadyResponse.rt,participantReadyResponse.started,participantReadyResponse.stopped,startWaitforTrigger,triggerResponse.keys,triggerResponse.rt,triggerResponse.started,triggerResponse.stopped,globalTimer,actualStartTime,startTimingDiff,participantResponse.keys,participantResponse.rt,participantResponse.started,participantResponse.stopped,image.started,image.stopped,fixationOutside.started,fixationOutside.stopped,fixationResponse.started,fixationResponse.stopped,fixationInside.started,fixationInside.stopped,session,participant,date,expName,psychopyVersion,frameRate,
,,,,,,,,,,,,11.612798800000746,None,3,2.2367165999967256,11.612798800000746,None,,,,,,,,,,,,,,,,,,,,,003,P001,2025_Jan_17_1828,ConditionRich,2021.2.3,59.94244326385136,
,,,,,,,,,,,,,,,,,,13.85663950000162,5,18.455806400001165,13.869129699996847,None,,,,,,,,,,,,,,,,003,P001,2025_Jan_17_1828,ConditionRich,2021.2.3,59.94244326385136,
0.0,4.0,0,0.0,Stimuli/Blank.png,0,0,0.0,0,0,0,0,,,,,,,,,,,,32.339147499995306,0.03590240000630729,0.03590240000630729,5,3.9224367999995593,32.40211139999883,None,32.40211139999883,None,32.40211139999883,None,32.40211139999883,32.40211139999883,32.40211139999883,None,003,P001,2025_Jan_17_1828,ConditionRich,2021.2.3,59.94244326385136,
4.0,7.75,8,0.75,Stimuli/P001/sun_asqboyqakusycvwd.jpg,0,0,0.0,0,1,1,1,,,,,,,,,,,,,4.020803600004001,0.020803600004001055,5,1.9354094000009354,36.38917349999974,36.38917349999974,36.38917349999974,36.38917349999974,36.38917349999974,36.38917349999974,36.38917349999974,36.38917349999974,36.38917349999974,36.38917349999974,003,P001,2025_Jan_17_1828,ConditionRich,2021.2.3,59.94244326385136,
7.75,8.0,41,0.0,Stimuli/Blank.png,0,0,0.0,0,2,2,2,,,,,,,,,,,,,7.77240090000123,0.022400900001230184,5,0.19845129999885103,40.126154799996584,40.126154799996584,40.126154799996584,40.126154799996584,40.126154799996584,40.126154799996584,40.126154799996584,40.126154799996584,40.126154799996584,40.126154799996584,003,P001,2025_Jan_17_1828,ConditionRich,2021.2.3,59.94244326385136,
8.0,11.75,22,0.75,Stimuli/P001/things_boy_01b.jpg,0,0,0.0,0,3,3,3,,,,,,,,,,,,,8.005965400006971,0.005965400006971322,5,1.9653426000004401,40.359143000001495,40.359143000001495,40.359143000001495,40.359143000001495,40.359143000001495,40.359143000001495,40.359143000001495,40.359143000001495,40.359143000001495,40.359143000001495,003,P001,2025_Jan_17_1828,ConditionRich,2021.2.3,59.94244326385136,
11.75,12.0,41,0.0,Stimuli/Blank.png,0,0,0.0,0,4,4,4,,,,,,,,,,,,,11.76029660000495,0.010296600004949141,5,0.21218260000023292,44.11246609999944,44.11246609999944,44.11246609999944,44.11246609999944,44.11246609999944,44.11246609999944,44.11246609999944,44.11246609999944,44.11246609999944,44.11246609999944,003,P001,2025_Jan_17_1828,ConditionRich,2021.2.3,59.94244326385136,
12.0,15.75,28,0.75,Stimuli/P001/things_girl_01b.jpg,0,0,0.0,0,5,5,5,,,,,,,,,,,,,12.009214300000167,0.009214300000166986,5,1.9618539999937639,44.362682300001325,44.362682300001325,44.362682300001325,44.362682300001325,44.362682300001325,44.362682300001325,44.362682300001325,44.362682300001325,44.362682300001325,44.362682300001325,003,P001,2025_Jan_17_1828,ConditionRich,2021.2.3,59.94244326385136,
15.75,16.0,41,0.0,Stimuli/Blank.png,0,0,0.0,0,6,6,6,,,,,,,,,,,,,15.763527600000089,0.013527600000088569,5,0.20852759999979753,48.11601359999622,48.11601359999622,48.11601359999622,48.11601359999622,48.11601359999622,48.11601359999622,48.11601359999622,48.11601359999622,48.11601359999622,48.11601359999622,003,P001,2025_Jan_17_1828,ConditionRich,2021.2.3,59.94244326385136,
16.0,19.75,37,0.75,Stimuli/P001/things_starfish_01b.jpg,0,0,0.0,0,7,7,7,,,,,,,,,,,,,16.013826500005962,0.013826500005961861,5,1.9418780000050901,48.38290459999553,48.38290459999553,48.38290459999553,48.38290459999553,48.38290459999553,48.38290459999553,48.38290459999553,48.38290459999553,48.38290459999553,48.38290459999553,003,P001,2025_Jan_17_1828,ConditionRich,2021.2.3,59.94244326385136,
19.75,20.0,41,0.0,Stimuli/Blank.png,0,0,0.0,0,8,8,8,,,,,,,,,,,,,19.76602190000267,0.01602190000267001,None,,52.11953640000138,52.11953640000138,52.11953640000138,52.11953640000138,52.11953640000138,52.11953640000138,52.11953640000138,52.11953640000138,52.11953640000138,52.11953640000138,003,P001,2025_Jan_17_1828,ConditionRich,2021.2.3,59.94244326385136,
20.0,23.75,35,0.75,Stimuli/P001/things_pepperoni_01b.jpg,1,3,3.75,0,9,9,9,,,,,,,,,,,,,19.999515500006964,-0.0004844999930355698,3,3.3936076999962097,52.35307150000153,52.35307150000153,52.35307150000153,52.35307150000153,52.35307150000153,52.35307150000153,55.33908649999648,56.08975239999563,52.35307150000153,52.35307150000153,003,P001,2025_Jan_17_1828,ConditionRich,2021.2.3,59.94244326385136,
23.75,24.0,41,0.0,Stimuli/Blank.png,0,0,0.0,0,10,10,10,,,,,,,,,,,,,23.755332500004442,0.005332500004442409,5,0.2014534999980242,56.12308729999495,56.12308729999495,56.12308729999495,56.12308729999495,56.12308729999495,56.12308729999495,56.12308729999495,56.12308729999495,56.12308729999495,56.12308729999495,003,P001,2025_Jan_17_1828,ConditionRich,2021.2.3,59.94244326385136,
24.0,27.75,16,0.75,Stimuli/P001/sun_biqyomkjbujnppuf.jpg,0,0,0.0,0,11,11,11,,,,,,,,,,,,,24.02096580000216,0.020965800002159085,5,1.9346150999990641,56.38999089999561,56.38999089999561,56.38999089999561,56.38999089999561,56.38999089999561,56.38999089999561,56.38999089999561,56.38999089999561,56.38999089999561,56.38999089999561,003,P001,2025_Jan_17_1828,ConditionRich,2021.2.3,59.94244326385136,
27.75,28.0,41,0.0,Stimuli/Blank.png,0,0,0.0,0,12,12,12,,,,,,,,,,,,,27.77516050000122,0.025160500001220498,5,0.18131759999960195,60.14330340000015,60.14330340000015,60.14330340000015,60.14330340000015,60.14330340000015,60.14330340000015,60.14330340000015,60.14330340000015,60.14330340000015,60.14330340000015,003,P001,2025_Jan_17_1828,ConditionRich,2021.2.3,59.94244326385136,
28.0,31.75,1,0.75,Stimuli/P001/sun_agpgdwkhzgvzdaea.jpg,0,0,0.0,0,13,13,13,,,,,,,,,,,,,28.025774800000363,0.02577480000036303,5,1.9309677999990527,60.3935410999984,60.3935410999984,60.3935410999984,60.3935410999984,60.3935410999984,60.3935410999984,60.3935410999984,60.3935410999984,60.3935410999984,60.3935410999984,003,P001,2025_Jan_17_1828,ConditionRich,2021.2.3,59.94244326385136,
31.75,32.0,41,0.0,Stimuli/Blank.png,0,0,0.0,0,14,14,14,,,,,,,,,,,,,31.776426000003994,0.026426000003993977,5,0.19457690000126604,64.1301508999968,64.1301508999968,64.1301508999968,64.1301508999968,64.1301508999968,64.1301508999968,64.1301508999968,64.1301508999968,64.1301508999968,64.1301508999968,003,P001,2025_Jan_17_1828,ConditionRich,2021.2.3,59.94244326385136,
32.0,35.75,19,0.75,Stimuli/P001/sun_bzyyqqczvrnvukdn.jpg,0,0,0.0,0,15,15,15,,,,,,,,,,,,,32.01070710000204,0.010707100002036896,5,1.960984000004828,64.3636905999956,64.3636905999956,64.3636905999956,64.3636905999956,64.3636905999956,64.3636905999956,64.3636905999956,64.3636905999956,64.3636905999956,64.3636905999956,003,P001,2025_Jan_17_1828,ConditionRich,2021.2.3,59.94244326385136,
35.75,36.0,41,0.0,Stimuli/Blank.png,0,0,0.0,0,16,16,16,,,,,,,,,,,,,35.76600090000284,0.016000900002836715,5,0.19062940000003437,68.13388249999844,68.13388249999844,68.13388249999844,68.13388249999844,68.13388249999844,68.13388249999844,68.13388249999844,68.13388249999844,68.13388249999844,68.13388249999844,003,P001,2025_Jan_17_1828,ConditionRich,2021.2.3,59.94244326385136,
36.0,39.75,17,0.75,Stimuli/P001/sun_bshgmgbmpvjkxfis.jpg,0,0,0.0,0,17,17,17,,,,,,,,,,,,,36.01688130000548,0.016881300005479716,5,1.9408631999976933,68.38393260000157,68.38393260000157,68.38393260000157,68.38393260000157,68.38393260000157,68.38393260000157,68.38393260000157,68.38393260000157,68.38393260000157,68.38393260000157,003,P001,2025_Jan_17_1828,ConditionRich,2021.2.3,59.94244326385136,
39.75,40.0,41,0.0,Stimuli/Blank.png,0,0,0.0,0,18,18,18,,,,,,,,,,,,,39.76997560000018,0.01997560000017984,5,0.1873732000021846,72.13722959999723,72.13722959999723,72.13722959999723,72.13722959999723,72.13722959999723,72.13722959999723,72.13722959999723,72.13722959999723,72.13722959999723,72.13722959999723,003,P001,2025_Jan_17_1828,ConditionRich,2021.2.3,59.94244326385136,
40.0,43.75,20,0.75,Stimuli/P001/sun_dkgctqgpvxbaoyks.jpg,0,0,0.0,0,19,19,19,,,,,,,,,,,,,40.01993100000254,0.019931000002543442,5,1.9370464999956312,72.38742400000046,72.38742400000046,72.38742400000046,72.38742400000046,72.38742400000046,72.38742400000046,72.38742400000046,72.38742400000046,72.38742400000046,72.38742400000046,003,P001,2025_Jan_17_1828,ConditionRich,2021.2.3,59.94244326385136,
43.75,44.0,41,0.0,Stimuli/Blank.png,0,0,0.0,0,20,20,20,,,,,,,,,,,,,43.77100090000022,0.02100090000021737,5,0.2006838000015705,76.12408029999642,76.12408029999642,76.12408029999642,76.12408029999642,76.12408029999642,76.12408029999642,76.12408029999642,76.12408029999642,76.12408029999642,76.12408029999642,003,P001,2025_Jan_17_1828,ConditionRich,2021.2.3,59.94244326385136,
44.0,47.75,13,0.75,Stimuli/P001/sun_bfdmlbkyioxnkodb.jpg,1,3,3.75,0,21,21,21,,,,,,,,,,,,,44.00468400000682,0.004684000006818678,3,3.6119447000019136,76.35762280000199,76.35762280000199,76.35762280000199,76.35762280000199,76.35762280000199,76.35762280000199,79.36029979999876,80.09425380000175,76.35762280000199,76.35762280000199,003,P001,2025_Jan_17_1828,ConditionRich,2021.2.3,59.94244326385136,
47.75,48.0,41,0.0,Stimuli/Blank.png,0,0,0.0,0,22,22,22,,,,,,,,,,,,,47.759760100001586,0.00976010000158567,5,0.19681120000313967,80.12764239999524,80.12764239999524,80.12764239999524,80.12764239999524,80.12764239999524,80.12764239999524,80.12764239999524,80.12764239999524,80.12764239999524,80.12764239999524,003,P001,2025_Jan_17_1828,ConditionRich,2021.2.3,59.94244326385136,
48.0,51.75,31,0.75,Stimuli/P001/things_man_01b.jpg,0,0,0.0,0,23,23,23,,,,,,,,,,,,,48.02436860000307,0.02436860000307206,5,1.9468328000002657,80.37785409999924,80.37785409999924,80.37785409999924,80.37785409999924,80.37785409999924,80.37785409999924,80.37785409999924,80.37785409999924,80.37785409999924,80.37785409999924,003,P001,2025_Jan_17_1828,ConditionRich,2021.2.3,59.94244326385136,
51.75,52.0,41,0.0,Stimuli/Blank.png,0,0,0.0,0,24,24,24,,,,,,,,,,,,,51.76088350000646,0.010883500006457325,5,0.2100081999960821,84.1144776000001,84.1144776000001,84.1144776000001,84.1144776000001,84.1144776000001,84.1144776000001,84.1144776000001,84.1144776000001,84.1144776000001,84.1144776000001,003,P001,2025_Jan_17_1828,ConditionRich,2021.2.3,59.94244326385136,
52.0,55.75,2,0.75,Stimuli/P001/sun_akmxsxepquhynflp.jpg,1,2,2.75,0,25,25,25,,,,,,,,,,,,,52.01148430000467,0.011484300004667602,3,2.329980599999544,84.36471499999607,84.36471499999607,84.36471499999607,84.36471499999607,84.36471499999607,84.36471499999607,86.34991050000099,87.10048899999674,84.36471499999607,84.36471499999607,003,P001,2025_Jan_17_1828,ConditionRich,2021.2.3,59.94244326385136,
55.75,56.0,41,0.0,Stimuli/Blank.png,0,0,0.0,0,26,26,26,,,,,,,,,,,,,55.7656466000044,0.01564660000440199,5,0.1897938999973121,88.13471059999574,88.13471059999574,88.13471059999574,88.13471059999574,88.13471059999574,88.13471059999574,88.13471059999574,88.13471059999574,88.13471059999574,88.13471059999574,003,P001,2025_Jan_17_1828,ConditionRich,2021.2.3,59.94244326385136,
56.0,59.75,10,0.75,Stimuli/P001/sun_aykefnhciwsffcrj.jpg,0,0,0.0,0,27,27,27,,,,,,,,,,,,,56.01453480000055,0.014534800000546966,5,1.9565576000022702,88.36823680000089,88.36823680000089,88.36823680000089,88.36823680000089,88.36823680000089,88.36823680000089,88.36823680000089,88.36823680000089,88.36823680000089,88.36823680000089,003,P001,2025_Jan_17_1828,ConditionRich,2021.2.3,59.94244326385136,
59.75,60.0,41,0.0,Stimuli/Blank.png,0,0,0.0,0,28,28,28,,,,,,,,,,,,,59.75132450000092,0.0013245000009192154,None,,92.10488600000099,92.10488600000099,92.10488600000099,92.10488600000099,92.10488600000099,92.10488600000099,92.10488600000099,92.10488600000099,92.10488600000099,92.10488600000099,003,P001,2025_Jan_17_1828,ConditionRich,2021.2.3,59.94244326385136,
60.0,63.75,23,0.75,Stimuli/P001/things_chick_01b.jpg,1,2,2.75,0,29,29,29,,,,,,,,,,,,,60.00222290000238,0.0022229000023799017,3,2.3098821000021417,92.37179509999987,92.37179509999987,92.37179509999987,92.37179509999987,92.37179509999987,92.37179509999987,94.34024019999924,95.09089210000093,92.37179509999987,92.37179509999987,003,P001,2025_Jan_17_1828,ConditionRich,2021.2.3,59.94244326385136,
63.75,64.0,41,0.0,Stimuli/Blank.png,0,0,0.0,0,30,30,30,,,,,,,,,,,,,63.77207980000094,0.02207980000093812,5,0.19945670000015525,96.12510620000103,96.12510620000103,96.12510620000103,96.12510620000103,96.12510620000103,96.12510620000103,96.12510620000103,96.12510620000103,96.12510620000103,96.12510620000103,003,P001,2025_Jan_17_1828,ConditionRich,2021.2.3,59.94244326385136,
64.0,67.75,15,0.75,Stimuli/P001/sun_bfzoxbkvsfqxsyle.jpg,0,0,0.0,0,31,31,31,,,,,,,,,,,,,64.0057467000006,0.005746700000599958,5,1.966008099996543,96.35863289999543,96.35863289999543,96.35863289999543,96.35863289999543,96.35863289999543,96.35863289999543,96.35863289999543,96.35863289999543,96.35863289999543,96.35863289999543,003,P001,2025_Jan_17_1828,ConditionRich,2021.2.3,59.94244326385136,
67.75,68.0,41,0.0,Stimuli/Blank.png,0,0,0.0,0,32,32,32,,,,,,,,,,,,,67.75845870000194,0.008458700001938269,5,0.21265999999741325,100.11201449999498,100.11201449999498,100.11201449999498,100.11201449999498,100.11201449999498,100.11201449999498,100.11201449999498,100.11201449999498,100.11201449999498,100.11201449999498,003,P001,2025_Jan_17_1828,ConditionRich,2021.2.3,59.94244326385136,
68.0,71.75,32,0.75,Stimuli/P001/things_oyster_01b.jpg,0,0,0.0,0,33,33,33,,,,,,,,,,,,,68.009447000004,0.009447000004001893,5,1.9624908000041614,100.36217069999839,100.36217069999839,100.36217069999839,100.36217069999839,100.36217069999839,100.36217069999839,100.36217069999839,100.36217069999839,100.36217069999839,100.36217069999839,003,P001,2025_Jan_17_1828,ConditionRich,2021.2.3,59.94244326385136,
71.75,72.0,41,0.0,Stimuli/Blank.png,0,0,0.0,0,34,34,34,,,,,,,,,,,,,71.7619771000027,0.011977100002695806,5,0.20895780000137165,104.11556559999735,104.11556559999735,104.11556559999735,104.11556559999735,104.11556559999735,104.11556559999735,104.11556559999735,104.11556559999735,104.11556559999735,104.11556559999735,003,P001,2025_Jan_17_1828,ConditionRich,2021.2.3,59.94244326385136,
72.0,75.75,34,0.75,Stimuli/P001/things_parrot_01b.jpg,0,0,0.0,0,35,35,35,,,,,,,,,,,,,72.01379250000173,0.013792500001727603,5,1.9420624999984284,104.38246400000207,104.38246400000207,104.38246400000207,104.38246400000207,104.38246400000207,104.38246400000207,104.38246400000207,104.38246400000207,104.38246400000207,104.38246400000207,003,P001,2025_Jan_17_1828,ConditionRich,2021.2.3,59.94244326385136,
75.75,76.0,41,0.0,Stimuli/Blank.png,0,0,0.0,0,36,36,36,,,,,,,,,,,,,75.76549910000176,0.01549910000176169,None,,108.11904330000107,108.11904330000107,108.11904330000107,108.11904330000107,108.11904330000107,108.11904330000107,108.11904330000107,108.11904330000107,108.11904330000107,108.11904330000107,003,P001,2025_Jan_17_1828,ConditionRich,2021.2.3,59.94244326385136,
76.0,79.75,27,0.75,Stimuli/P001/things_dynamite_01b.jpg,0,0,0.0,0,37,37,37,,,,,,,,,,,,,75.9989779000025,-0.0010220999974990264,5,1.9719571999958134,108.35256439999648,108.35256439999648,108.35256439999648,108.35256439999648,108.35256439999648,108.35256439999648,108.35256439999648,108.35256439999648,108.35256439999648,108.35256439999648,003,P001,2025_Jan_17_1828,ConditionRich,2021.2.3,59.94244326385136,
79.75,80.0,41,0.0,Stimuli/Blank.png,0,0,0.0,0,38,38,38,,,,,,,,,,,,,79.7524920000069,0.002492000006895978,None,,112.10596359999909,112.10596359999909,112.10596359999909,112.10596359999909,112.10596359999909,112.10596359999909,112.10596359999909,112.10596359999909,112.10596359999909,112.10596359999909,003,P001,2025_Jan_17_1828,ConditionRich,2021.2.3,59.94244326385136,
80.0,83.75,3,0.75,Stimuli/P001/sun_amarqtinchblqmah.jpg,1,2,2.75,0,39,39,39,,,,,,,,,,,,,80.00257880000572,0.0025788000057218596,3,2.3934708000015235,112.35610319999978,112.35610319999978,112.35610319999978,112.35610319999978,112.35610319999978,112.35610319999978,114.35784830000193,115.09189189999597,112.35610319999978,112.35610319999978,003,P001,2025_Jan_17_1828,ConditionRich,2021.2.3,59.94244326385136,
83.75,84.0,41,0.0,Stimuli/Blank.png,0,0,0.0,0,40,40,40,,,,,,,,,,,,,83.75609550000081,0.006095500000810716,5,0.21519959999568528,116.10941839999577,116.10941839999577,116.10941839999577,116.10941839999577,116.10941839999577,116.10941839999577,116.10941839999577,116.10941839999577,116.10941839999577,116.10941839999577,003,P001,2025_Jan_17_1828,ConditionRich,2021.2.3,59.94244326385136,
84.0,100.0,0,0.0,Stimuli/Blank.png,1,4,4.75,0,41,41,41,,,,,,,,,,,,,84.00598380000156,0.005983800001558848,5,13.964953299997433,116.35964769999555,116.35964769999555,116.35964769999555,116.35964769999555,116.35964769999555,116.35964769999555,120.3465006999977,121.09719049999694,116.35964769999555,116.35964769999555,003,P001,2025_Jan_17_1828,ConditionRich,2021.2.3,59.94244326385136,
100.0,103.75,30,0.75,Stimuli/P001/things_iguana_01b.jpg,0,0,0.0,0,42,42,42,,,,,,,,,,,,,100.00368030000391,0.0036803000039071776,5,1.9687724000032176,132.35711379999702,132.35711379999702,132.35711379999702,132.35711379999702,132.35711379999702,132.35711379999702,132.35711379999702,132.35711379999702,132.35711379999702,132.35711379999702,003,P001,2025_Jan_17_1828,ConditionRich,2021.2.3,59.94244326385136,
103.75,104.0,41,0.0,Stimuli/Blank.png,0,0,0.0,0,43,43,43,,,,,,,,,,,,,103.75740690000384,0.007406900003843475,5,0.21513489999779267,136.11043190000055,136.11043190000055,136.11043190000055,136.11043190000055,136.11043190000055,136.11043190000055,136.11043190000055,136.11043190000055,136.11043190000055,136.11043190000055,003,P001,2025_Jan_17_1828,ConditionRich,2021.2.3,59.94244326385136,
104.0,107.75,6,0.75,Stimuli/P001/sun_aqbaaqeojrexbmcr.jpg,0,0,0.0,0,44,44,44,,,,,,,,,,,,,104.00709100000677,0.00709100000676699,5,1.9483650999973179,136.377341899999,136.377341899999,136.377341899999,136.377341899999,136.377341899999,136.377341899999,136.377341899999,136.377341899999,136.377341899999,136.377341899999,003,P001,2025_Jan_17_1828,ConditionRich,2021.2.3,59.94244326385136,
107.75,108.0,41,0.0,Stimuli/Blank.png,0,0,0.0,0,45,45,45,,,,,,,,,,,,,107.77737270000216,0.027372700002160855,5,0.19502730000385782,140.1306509999995,140.1306509999995,140.1306509999995,140.1306509999995,140.1306509999995,140.1306509999995,140.1306509999995,140.1306509999995,140.1306509999995,140.1306509999995,003,P001,2025_Jan_17_1828,ConditionRich,2021.2.3,59.94244326385136,
108.0,111.75,24,0.75,Stimuli/P001/things_cornucopia_01b.jpg,0,0,0.0,0,46,46,46,,,,,,,,,,,,,108.01075810000475,0.010758100004750304,5,1.961345399999118,140.3641942999966,140.3641942999966,140.3641942999966,140.3641942999966,140.3641942999966,140.3641942999966,140.3641942999966,140.3641942999966,140.3641942999966,140.3641942999966,003,P001,2025_Jan_17_1828,ConditionRich,2021.2.3,59.94244326385136,
111.75,112.0,41,0.0,Stimuli/Blank.png,0,0,0.0,0,47,47,47,,,,,,,,,,,,,111.76466570000048,0.014665700000477955,5,0.2082866999990074,144.11752369999886,144.11752369999886,144.11752369999886,144.11752369999886,144.11752369999886,144.11752369999886,144.11752369999886,144.11752369999886,144.11752369999886,144.11752369999886,003,P001,2025_Jan_17_1828,ConditionRich,2021.2.3,59.94244326385136,
112.0,115.75,25,0.75,Stimuli/P001/things_curry_01b.jpg,1,0,0.75,0,48,48,48,,,,,,,,,,,,,112.01445080000121,0.014450800001213793,5,1.9578796999994665,144.36773040000116,144.36773040000116,144.36773040000116,144.36773040000116,144.36773040000116,144.36773040000116,144.36773040000116,145.1018294999958,144.36773040000116,144.36773040000116,003,P001,2025_Jan_17_1828,ConditionRich,2021.2.3,59.94244326385136,
115.75,116.0,41,0.0,Stimuli/Blank.png,0,0,0.0,0,49,49,49,,,,,,,,,,,,,115.75126799999998,0.0012679999999818392,None,,148.1043647999977,148.1043647999977,148.1043647999977,148.1043647999977,148.1043647999977,148.1043647999977,148.1043647999977,148.1043647999977,148.1043647999977,148.1043647999977,003,P001,2025_Jan_17_1828,ConditionRich,2021.2.3,59.94244326385136,
116.0,119.75,40,0.75,Stimuli/P001/things_worm_01b.jpg,0,0,0.0,0,50,50,50,,,,,,,,,,,,,116.00095550000697,0.0009555000069667585,5,1.9710076999981538,148.35458919999655,148.35458919999655,148.35458919999655,148.35458919999655,148.35458919999655,148.35458919999655,148.35458919999655,148.35458919999655,148.35458919999655,148.35458919999655,003,P001,2025_Jan_17_1828,ConditionRich,2021.2.3,59.94244326385136,
119.75,120.0,41,0.0,Stimuli/Blank.png,0,0,0.0,0,51,51,51,,,,,,,,,,,,,119.75553390000277,0.005533900002774317,5,0.21776580000005197,152.10791439999593,152.10791439999593,152.10791439999593,152.10791439999593,152.10791439999593,152.10791439999593,152.10791439999593,152.10791439999593,152.10791439999593,152.10791439999593,003,P001,2025_Jan_17_1828,ConditionRich,2021.2.3,59.94244326385136,
120.0,123.75,26,0.75,Stimuli/P001/things_dish_01b.jpg,0,0,0.0,0,52,52,52,,,,,,,,,,,,,120.00461780000478,0.0046178000047802925,5,1.9673815999994986,152.35812939999596,152.35812939999596,152.35812939999596,152.35812939999596,152.35812939999596,152.35812939999596,152.35812939999596,152.35812939999596,152.35812939999596,152.35812939999596,003,P001,2025_Jan_17_1828,ConditionRich,2021.2.3,59.94244326385136,
123.75,124.0,41,0.0,Stimuli/Blank.png,0,0,0.0,0,53,53,53,,,,,,,,,,,,,123.76063070000237,0.010630700002366211,5,0.19734890000108862,156.12813459999597,156.12813459999597,156.12813459999597,156.12813459999597,156.12813459999597,156.12813459999597,156.12813459999597,156.12813459999597,156.12813459999597,156.12813459999597,003,P001,2025_Jan_17_1828,ConditionRich,2021.2.3,59.94244326385136,
124.0,127.75,29,0.75,Stimuli/P001/things_grinder_01b.jpg,0,0,0.0,0,54,54,54,,,,,,,,,,,,,124.02541420000489,0.0254142000048887,5,1.9306454999968992,156.39505669999926,156.39505669999926,156.39505669999926,156.39505669999926,156.39505669999926,156.39505669999926,156.39505669999926,156.39505669999926,156.39505669999926,156.39505669999926,003,P001,2025_Jan_17_1828,ConditionRich,2021.2.3,59.94244326385136,
127.75,128.0,41,0.0,Stimuli/Blank.png,0,0,0.0,0,55,55,55,,,,,,,,,,,,,127.78102220000437,0.03102220000437228,5,0.1771537000022363,160.14835540000058,160.14835540000058,160.14835540000058,160.14835540000058,160.14835540000058,160.14835540000058,160.14835540000058,160.14835540000058,160.14835540000058,160.14835540000058,003,P001,2025_Jan_17_1828,ConditionRich,2021.2.3,59.94244326385136,
128.0,131.75,9,0.75,Stimuli/P001/sun_awtltwwpwbepuuqv.jpg,0,0,0.0,0,56,56,56,,,,,,,,,,,,,128.03026860000682,0.030268600006820634,5,1.9270213000054355,160.39856679999502,160.39856679999502,160.39856679999502,160.39856679999502,160.39856679999502,160.39856679999502,160.39856679999502,160.39856679999502,160.39856679999502,160.39856679999502,003,P001,2025_Jan_17_1828,ConditionRich,2021.2.3,59.94244326385136,
131.75,132.0,41,0.0,Stimuli/Blank.png,0,0,0.0,0,57,57,57,,,,,,,,,,,,,131.7653982000047,0.015398200004710816,5,0.2073104000010062,164.1185239999977,164.1185239999977,164.1185239999977,164.1185239999977,164.1185239999977,164.1185239999977,164.1185239999977,164.1185239999977,164.1185239999977,164.1185239999977,003,P001,2025_Jan_17_1828,ConditionRich,2021.2.3,59.94244326385136,
132.0,135.75,14,0.75,Stimuli/P001/sun_bfgxassmmvhtarcc.jpg,0,0,0.0,0,58,58,58,,,,,,,,,,,,,132.0160068000041,0.01600680000410648,5,1.9570753999942099,164.36875259999943,164.36875259999943,164.36875259999943,164.36875259999943,164.36875259999943,164.36875259999943,164.36875259999943,164.36875259999943,164.36875259999943,164.36875259999943,003,P001,2025_Jan_17_1828,ConditionRich,2021.2.3,59.94244326385136,
135.75,136.0,41,0.0,Stimuli/Blank.png,0,0,0.0,0,59,59,59,,,,,,,,,,,,,135.7521274000028,0.0021274000027915463,None,,168.1054465999987,168.1054465999987,168.1054465999987,168.1054465999987,168.1054465999987,168.1054465999987,168.1054465999987,168.1054465999987,168.1054465999987,168.1054465999987,003,P001,2025_Jan_17_1828,ConditionRich,2021.2.3,59.94244326385136,
136.0,139.75,33,0.75,Stimuli/P001/things_pan_01b.jpg,0,0,0.0,0,60,60,60,,,,,,,,,,,,,136.00226939999993,0.0022693999999319203,5,1.9699905999950715,168.35560489999625,168.35560489999625,168.35560489999625,168.35560489999625,168.35560489999625,168.35560489999625,168.35560489999625,168.35560489999625,168.35560489999625,168.35560489999625,003,P001,2025_Jan_17_1828,ConditionRich,2021.2.3,59.94244326385136,
139.75,140.0,41,0.0,Stimuli/Blank.png,0,0,0.0,0,61,61,61,,,,,,,,,,,,,139.75646480000432,0.006464800004323479,5,0.19994380000571255,172.12561740000092,172.12561740000092,172.12561740000092,172.12561740000092,172.12561740000092,172.12561740000092,172.12561740000092,172.12561740000092,172.12561740000092,172.12561740000092,003,P001,2025_Jan_17_1828,ConditionRich,2021.2.3,59.94244326385136,
140.0,143.75,36,0.75,Stimuli/P001/things_stalagmite_01b.jpg,0,0,0.0,0,62,62,62,,,,,,,,,,,,,140.0224273000058,0.022427300005801953,5,1.9330616000006557,172.39251639999566,172.39251639999566,172.39251639999566,172.39251639999566,172.39251639999566,172.39251639999566,172.39251639999566,172.39251639999566,172.39251639999566,172.39251639999566,003,P001,2025_Jan_17_1828,ConditionRich,2021.2.3,59.94244326385136,
143.75,144.0,41,0.0,Stimuli/Blank.png,0,0,0.0,0,63,63,63,,,,,,,,,,,,,143.77647419999994,0.02647419999993872,5,0.19641740000224672,176.12913839999965,176.12913839999965,176.12913839999965,176.12913839999965,176.12913839999965,176.12913839999965,176.12913839999965,176.12913839999965,176.12913839999965,176.12913839999965,003,P001,2025_Jan_17_1828,ConditionRich,2021.2.3,59.94244326385136,
144.0,147.75,4,0.75,Stimuli/P001/sun_aonjwqswdblhlpkm.jpg,0,0,0.0,0,64,64,64,,,,,,,,,,,,,144.00945070000307,0.009450700003071688,5,1.9630308999985573,176.36267260000022,176.36267260000022,176.36267260000022,176.36267260000022,176.36267260000022,176.36267260000022,176.36267260000022,176.36267260000022,176.36267260000022,176.36267260000022,003,P001,2025_Jan_17_1828,ConditionRich,2021.2.3,59.94244326385136,
147.75,148.0,41,0.0,Stimuli/Blank.png,0,0,0.0,0,65,65,65,,,,,,,,,,,,,147.76303010000265,0.013030100002652034,5,0.20959589999984019,180.1160041999974,180.1160041999974,180.1160041999974,180.1160041999974,180.1160041999974,180.1160041999974,180.1160041999974,180.1160041999974,180.1160041999974,180.1160041999974,003,P001,2025_Jan_17_1828,ConditionRich,2021.2.3,59.94244326385136,
148.0,151.75,5,0.75,Stimuli/P001/sun_apwzcrxhvvnrexjh.jpg,1,2,2.75,0,66,66,66,,,,,,,,,,,,,148.0125593000048,0.01255930000479566,3,2.4883878999971785,180.36621190000005,180.36621190000005,180.36621190000005,180.36621190000005,180.36621190000005,180.36621190000005,182.35129769999912,183.10198549999768,180.36621190000005,180.36621190000005,003,P001,2025_Jan_17_1828,ConditionRich,2021.2.3,59.94244326385136,
151.75,152.0,41,0.0,Stimuli/Blank.png,0,0,0.0,0,67,67,67,,,,,,,,,,,,,151.74994590000279,-5.409999721450731e-05,None,,184.10286369999812,184.10286369999812,184.10286369999812,184.10286369999812,184.10286369999812,184.10286369999812,184.10286369999812,184.10286369999812,184.10286369999812,184.10286369999812,003,P001,2025_Jan_17_1828,ConditionRich,2021.2.3,59.94244326385136,
152.0,155.75,11,0.75,Stimuli/P001/sun_bbfdgdyeqdnadvvi.jpg,1,1,1.75,0,68,68,68,,,,,,,,,,,,,151.99951800000417,-0.0004819999958272092,5,1.972563600000285,184.35306850000052,184.35306850000052,184.35306850000052,184.35306850000052,184.35306850000052,184.35306850000052,185.3372728999966,186.08793539999897,184.35306850000052,184.35306850000052,003,P001,2025_Jan_17_1828,ConditionRich,2021.2.3,59.94244326385136,
155.75,156.0,41,0.0,Stimuli/Blank.png,0,0,0.0,0,69,69,69,,,,,,,,,,,,,155.7554031000036,0.005403100003604777,5,0.2024846999993315,188.12307650000002,188.12307650000002,188.12307650000002,188.12307650000002,188.12307650000002,188.12307650000002,188.12307650000002,188.12307650000002,188.12307650000002,188.12307650000002,003,P001,2025_Jan_17_1828,ConditionRich,2021.2.3,59.94244326385136,
156.0,159.75,39,0.75,Stimuli/P001/things_woman_01b.jpg,0,0,0.0,0,70,70,70,,,,,,,,,,,,,156.02040190000116,0.020401900001161266,5,1.952208700000483,188.37328839999827,188.37328839999827,188.37328839999827,188.37328839999827,188.37328839999827,188.37328839999827,188.37328839999827,188.37328839999827,188.37328839999827,188.37328839999827,003,P001,2025_Jan_17_1828,ConditionRich,2021.2.3,59.94244326385136,
159.75,160.0,41,0.0,Stimuli/Blank.png,0,0,0.0,0,71,71,71,,,,,,,,,,,,,159.75723380000272,0.007233800002723001,5,0.21557559999928344,192.109924700002,192.109924700002,192.109924700002,192.109924700002,192.109924700002,192.109924700002,192.109924700002,192.109924700002,192.109924700002,192.109924700002,003,P001,2025_Jan_17_1828,ConditionRich,2021.2.3,59.94244326385136,
160.0,163.75,7,0.75,Stimuli/P001/sun_arlesyjqxmqmcccl.jpg,0,0,0.0,0,72,72,72,,,,,,,,,,,,,160.00696150000294,0.006961500002944376,5,1.9487360999992234,192.37682459999633,192.37682459999633,192.37682459999633,192.37682459999633,192.37682459999633,192.37682459999633,192.37682459999633,192.37682459999633,192.37682459999633,192.37682459999633,003,P001,2025_Jan_17_1828,ConditionRich,2021.2.3,59.94244326385136,
163.75,164.0,41,0.0,Stimuli/Blank.png,0,0,0.0,0,73,73,73,,,,,,,,,,,,,163.7765356000018,0.026535600001807325,5,0.19556379999994533,196.13015040000028,196.13015040000028,196.13015040000028,196.13015040000028,196.13015040000028,196.13015040000028,196.13015040000028,196.13015040000028,196.13015040000028,196.13015040000028,003,P001,2025_Jan_17_1828,ConditionRich,2021.2.3,59.94244326385136,
164.0,167.75,18,0.75,Stimuli/P001/sun_bzjegfvyrvqtunza.jpg,1,3,3.75,0,74,74,74,,,,,,,,,,,,,164.01062540000567,0.010625400005665142,3,3.449988200001826,196.36368669999501,196.36368669999501,196.36368669999501,196.36368669999501,196.36368669999501,196.36368669999501,199.34964609999588,200.10032130000036,196.36368669999501,196.36368669999501,003,P001,2025_Jan_17_1828,ConditionRich,2021.2.3,59.94244326385136,
167.75,168.0,41,0.0,Stimuli/Blank.png,0,0,0.0,0,75,75,75,,,,,,,,,,,,,167.76551970000583,0.015519700005825143,5,0.1921128999965731,200.1336985999951,200.1336985999951,200.1336985999951,200.1336985999951,200.1336985999951,200.1336985999951,200.1336985999951,200.1336985999951,200.1336985999951,200.1336985999951,003,P001,2025_Jan_17_1828,ConditionRich,2021.2.3,59.94244326385136,
168.0,171.75,21,0.75,Stimuli/P001/things_baby_01b.jpg,0,0,0.0,0,76,76,76,,,,,,,,,,,,,168.01607270000386,0.01607270000386052,5,1.9415984000006574,200.3839130999986,200.3839130999986,200.3839130999986,200.3839130999986,200.3839130999986,200.3839130999986,200.3839130999986,200.3839130999986,200.3839130999986,200.3839130999986,003,P001,2025_Jan_17_1828,ConditionRich,2021.2.3,59.94244326385136,
171.75,172.0,41,0.0,Stimuli/Blank.png,0,0,0.0,0,77,77,77,,,,,,,,,,,,,171.76768360000278,0.01768360000278335,None,,204.1205428999965,204.1205428999965,204.1205428999965,204.1205428999965,204.1205428999965,204.1205428999965,204.1205428999965,204.1205428999965,204.1205428999965,204.1205428999965,003,P001,2025_Jan_17_1828,ConditionRich,2021.2.3,59.94244326385136,
172.0,175.75,12,0.75,Stimuli/P001/sun_bdxvmnlyovhqognn.jpg,1,0,0.75,0,78,78,78,,,,,,,,,,,,,172.00124920000235,0.0012492000023485161,5,1.971529599999485,204.3540825999953,204.3540825999953,204.3540825999953,204.3540825999953,204.3540825999953,204.3540825999953,204.3540825999953,205.08807579999848,204.3540825999953,204.3540825999953,003,P001,2025_Jan_17_1828,ConditionRich,2021.2.3,59.94244326385136,
175.75,176.0,41,0.0,Stimuli/Blank.png,0,0,0.0,0,79,79,79,,,,,,,,,,,,,175.75435810000636,0.004358100006356835,None,,208.10740239999723,208.10740239999723,208.10740239999723,208.10740239999723,208.10740239999723,208.10740239999723,208.10740239999723,208.10740239999723,208.10740239999723,208.10740239999723,003,P001,2025_Jan_17_1828,ConditionRich,2021.2.3,59.94244326385136,
176.0,179.75,38,0.75,Stimuli/P001/things_windowsill_01b.jpg,0,0,0.0,0,80,80,80,,,,,,,,,,,,,176.00394349999988,0.003943499999877531,5,1.9680221999951755,208.35761980000098,208.35761980000098,208.35761980000098,208.35761980000098,208.35761980000098,208.35761980000098,208.35761980000098,208.35761980000098,208.35761980000098,208.35761980000098,003,P001,2025_Jan_17_1828,ConditionRich,2021.2.3,59.94244326385136,
179.75,180.0,41,0.0,Stimuli/Blank.png,0,0,0.0,0,81,81,81,,,,,,,,,,,,,179.76001000000542,0.010010000005422626,5,0.19794379999802914,212.1276297000004,212.1276297000004,212.1276297000004,212.1276297000004,212.1276297000004,212.1276297000004,212.1276297000004,212.1276297000004,212.1276297000004,212.1276297000004,003,P001,2025_Jan_17_1828,ConditionRich,2021.2.3,59.94244326385136,
180.0,196.0,0,0.0,Stimuli/Blank.png,1,6,6.75,0,82,82,82,,,,,,,,,,,,,180.02480160000414,0.02480160000413889,5,15.947775499997078,212.37785769999755,212.37785769999755,212.37785769999755,212.37785769999755,212.37785769999755,212.37785769999755,218.36650329999975,219.1171544999961,212.37785769999755,212.37785769999755,003,P001,2025_Jan_17_1828,ConditionRich,2021.2.3,59.94244326385136,
196.0,199.75,7,0.75,Stimuli/P001/sun_arlesyjqxmqmcccl.jpg,0,0,0.0,0,83,83,83,,,,,,,,,,,,,196.00546900000336,0.005469000003358815,5,1.9670392999978503,228.35863640000025,228.35863640000025,228.35863640000025,228.35863640000025,228.35863640000025,228.35863640000025,228.35863640000025,228.35863640000025,228.35863640000025,228.35863640000025,003,P001,2025_Jan_17_1828,ConditionRich,2021.2.3,59.94244326385136,
199.75,200.0,41,0.0,Stimuli/Blank.png,0,0,0.0,0,84,84,84,,,,,,,,,,,,,199.75855270000466,0.0085527000046568,5,0.21363530000235187,232.11195320000115,232.11195320000115,232.11195320000115,232.11195320000115,232.11195320000115,232.11195320000115,232.11195320000115,232.11195320000115,232.11195320000115,232.11195320000115,003,P001,2025_Jan_17_1828,ConditionRich,2021.2.3,59.94244326385136,
200.0,203.75,9,0.75,Stimuli/P001/sun_awtltwwpwbepuuqv.jpg,0,0,0.0,0,85,85,85,,,,,,,,,,,,,200.0093246000033,0.00932460000331048,5,1.9468953000032343,232.37884869999834,232.37884869999834,232.37884869999834,232.37884869999834,232.37884869999834,232.37884869999834,232.37884869999834,232.37884869999834,232.37884869999834,232.37884869999834,003,P001,2025_Jan_17_1828,ConditionRich,2021.2.3,59.94244326385136,
203.75,204.0,41,0.0,Stimuli/Blank.png,0,0,0.0,0,86,86,86,,,,,,,,,,,,,203.78062840000348,0.030628400003479328,5,0.17673759999888716,236.1488556999975,236.1488556999975,236.1488556999975,236.1488556999975,236.1488556999975,236.1488556999975,236.1488556999975,236.1488556999975,236.1488556999975,236.1488556999975,003,P001,2025_Jan_17_1828,ConditionRich,2021.2.3,59.94244326385136,
204.0,207.75,15,0.75,Stimuli/P001/sun_bfzoxbkvsfqxsyle.jpg,0,0,0.0,0,87,87,87,,,,,,,,,,,,,204.03158010000334,0.031580100003338885,5,1.9267493999941507,236.39904179999576,236.39904179999576,236.39904179999576,236.39904179999576,236.39904179999576,236.39904179999576,236.39904179999576,236.39904179999576,236.39904179999576,236.39904179999576,003,P001,2025_Jan_17_1828,ConditionRich,2021.2.3,59.94244326385136,
207.75,208.0,41,0.0,Stimuli/Blank.png,0,0,0.0,0,88,88,88,,,,,,,,,,,,,207.765433200002,0.015433200002007652,None,,240.1190209999986,240.1190209999986,240.1190209999986,240.1190209999986,240.1190209999986,240.1190209999986,240.1190209999986,240.1190209999986,240.1190209999986,240.1190209999986,003,P001,2025_Jan_17_1828,ConditionRich,2021.2.3,59.94244326385136,
208.0,211.75,28,0.75,Stimuli/P001/things_girl_01b.jpg,0,0,0.0,0,89,89,89,,,,,,,,,,,,,207.99958860000334,-0.00041139999666484073,5,1.956326600004104,240.3692865999983,240.3692865999983,240.3692865999983,240.3692865999983,240.3692865999983,240.3692865999983,240.3692865999983,240.3692865999983,240.3692865999983,240.3692865999983,003,P001,2025_Jan_17_1828,ConditionRich,2021.2.3,59.94244326385136,
211.75,212.0,41,0.0,Stimuli/Blank.png,0,0,0.0,0,90,90,90,,,,,,,,,,,,,211.76903550000134,0.019035500001336914,None,,244.12261459999718,244.12261459999718,244.12261459999718,244.12261459999718,244.12261459999718,244.12261459999718,244.12261459999718,244.12261459999718,244.12261459999718,244.12261459999718,003,P001,2025_Jan_17_1828,ConditionRich,2021.2.3,59.94244326385136,
212.0,215.75,3,0.75,Stimuli/P001/sun_amarqtinchblqmah.jpg,0,0,0.0,0,91,91,91,,,,,,,,,,,,,212.00251010000648,0.0025101000064751133,5,1.952922700002091,244.37277950000134,244.37277950000134,244.37277950000134,244.37277950000134,244.37277950000134,244.37277950000134,244.37277950000134,244.37277950000134,244.37277950000134,244.37277950000134,003,P001,2025_Jan_17_1828,ConditionRich,2021.2.3,59.94244326385136,
215.75,216.0,41,0.0,Stimuli/Blank.png,0,0,0.0,0,92,92,92,,,,,,,,,,,,,215.77495340000314,0.024953400003141724,5,0.18278490000375314,248.14278589999594,248.14278589999594,248.14278589999594,248.14278589999594,248.14278589999594,248.14278589999594,248.14278589999594,248.14278589999594,248.14278589999594,248.14278589999594,003,P001,2025_Jan_17_1828,ConditionRich,2021.2.3,59.94244326385136,
216.0,219.75,6,0.75,Stimuli/P001/sun_aqbaaqeojrexbmcr.jpg,0,0,0.0,0,93,93,93,,,,,,,,,,,,,216.02546520000033,0.02546520000032615,5,1.9325920999981463,248.39301220000198,248.39301220000198,248.39301220000198,248.39301220000198,248.39301220000198,248.39301220000198,248.39301220000198,248.39301220000198,248.39301220000198,248.39301220000198,003,P001,2025_Jan_17_1828,ConditionRich,2021.2.3,59.94244326385136,
219.75,220.0,41,0.0,Stimuli/Blank.png,0,0,0.0,0,94,94,94,,,,,,,,,,,,,219.77643500000704,0.0264350000070408,5,0.1960786999989068,252.12964559999818,252.12964559999818,252.12964559999818,252.12964559999818,252.12964559999818,252.12964559999818,252.12964559999818,252.12964559999818,252.12964559999818,252.12964559999818,003,P001,2025_Jan_17_1828,ConditionRich,2021.2.3,59.94244326385136,
220.0,223.75,27,0.75,Stimuli/P001/things_dynamite_01b.jpg,0,0,0.0,0,95,95,95,,,,,,,,,,,,,220.01052470000286,0.01052470000286121,5,1.9458598000055645,252.379875599996,252.379875599996,252.379875599996,252.379875599996,252.379875599996,252.379875599996,252.379875599996,252.379875599996,252.379875599996,252.379875599996,003,P001,2025_Jan_17_1828,ConditionRich,2021.2.3,59.94244326385136,
223.75,224.0,41,0.0,Stimuli/Blank.png,0,0,0.0,0,96,96,96,,,,,,,,,,,,,223.7803755000059,0.030375500005902722,5,0.19242420000227867,256.13318979999895,256.13318979999895,256.13318979999895,256.13318979999895,256.13318979999895,256.13318979999895,256.13318979999895,256.13318979999895,256.13318979999895,256.13318979999895,003,P001,2025_Jan_17_1828,ConditionRich,2021.2.3,59.94244326385136,
224.0,227.75,31,0.75,Stimuli/P001/things_man_01b.jpg,0,0,0.0,0,97,97,97,,,,,,,,,,,,,224.01441990000603,0.014419900006032549,5,1.9421753999995417,256.383393899996,256.383393899996,256.383393899996,256.383393899996,256.383393899996,256.383393899996,256.383393899996,256.383393899996,256.383393899996,256.383393899996,003,P001,2025_Jan_17_1828,ConditionRich,2021.2.3,59.94244326385136,
227.75,228.0,41,0.0,Stimuli/Blank.png,0,0,0.0,0,98,98,98,,,,,,,,,,,,,227.76660650000122,0.016606500001216773,None,,260.1200364999968,260.1200364999968,260.1200364999968,260.1200364999968,260.1200364999968,260.1200364999968,260.1200364999968,260.1200364999968,260.1200364999968,260.1200364999968,003,P001,2025_Jan_17_1828,ConditionRich,2021.2.3,59.94244326385136,
228.0,231.75,23,0.75,Stimuli/P001/things_chick_01b.jpg,0,0,0.0,0,99,99,99,,,,,,,,,,,,,228.0004709000059,0.0004709000058937818,5,1.9553220999951009,260.3702859999976,260.3702859999976,260.3702859999976,260.3702859999976,260.3702859999976,260.3702859999976,260.3702859999976,260.3702859999976,260.3702859999976,260.3702859999976,003,P001,2025_Jan_17_1828,ConditionRich,2021.2.3,59.94244326385136,
231.75,232.0,41,0.0,Stimuli/Blank.png,0,0,0.0,0,100,100,100,,,,,,,,,,,,,231.77095689999987,0.020956899999873713,5,0.185380000002624,264.14025930000207,264.14025930000207,264.14025930000207,264.14025930000207,264.14025930000207,264.14025930000207,264.14025930000207,264.14025930000207,264.14025930000207,264.14025930000207,003,P001,2025_Jan_17_1828,ConditionRich,2021.2.3,59.94244326385136,
232.0,235.75,36,0.75,Stimuli/P001/things_stalagmite_01b.jpg,0,0,0.0,0,101,101,101,,,,,,,,,,,,,232.02108870000666,0.021088700006657746,5,1.9354658000011113,264.3905025999993,264.3905025999993,264.3905025999993,264.3905025999993,264.3905025999993,264.3905025999993,264.3905025999993,264.3905025999993,264.3905025999993,264.3905025999993,003,P001,2025_Jan_17_1828,ConditionRich,2021.2.3,59.94244326385136,
235.75,236.0,41,0.0,Stimuli/Blank.png,0,0,0.0,0,102,102,102,,,,,,,,,,,,,235.77556290000211,0.025562900002114475,5,0.18181080000067595,268.1437966000012,268.1437966000012,268.1437966000012,268.1437966000012,268.1437966000012,268.1437966000012,268.1437966000012,268.1437966000012,268.1437966000012,268.1437966000012,003,P001,2025_Jan_17_1828,ConditionRich,2021.2.3,59.94244326385136,
236.0,239.75,40,0.75,Stimuli/P001/things_worm_01b.jpg,1,0,0.75,0,103,103,103,,,,,,,,,,,,,236.02361660000315,0.02361660000315169,5,1.9482442000007723,268.37734649999766,268.37734649999766,268.37734649999766,268.37734649999766,268.37734649999766,268.37734649999766,268.37734649999766,269.11134630000015,268.37734649999766,268.37734649999766,003,P001,2025_Jan_17_1828,ConditionRich,2021.2.3,59.94244326385136,
239.75,240.0,41,0.0,Stimuli/Blank.png,0,0,0.0,0,104,104,104,,,,,,,,,,,,,239.7610163999998,0.011016399999789428,5,0.2118255000023055,272.11397289999877,272.11397289999877,272.11397289999877,272.11397289999877,272.11397289999877,272.11397289999877,272.11397289999877,272.11397289999877,272.11397289999877,272.11397289999877,003,P001,2025_Jan_17_1828,ConditionRich,2021.2.3,59.94244326385136,
240.0,243.75,1,0.75,Stimuli/P001/sun_agpgdwkhzgvzdaea.jpg,0,0,0.0,0,105,105,105,,,,,,,,,,,,,240.01074650000373,0.010746500003733672,5,1.961443500003952,272.3641873000015,272.3641873000015,272.3641873000015,272.3641873000015,272.3641873000015,272.3641873000015,272.3641873000015,272.3641873000015,272.3641873000015,272.3641873000015,003,P001,2025_Jan_17_1828,ConditionRich,2021.2.3,59.94244326385136,
243.75,244.0,41,0.0,Stimuli/Blank.png,0,0,0.0,0,106,106,106,,,,,,,,,,,,,243.764657300002,0.014657300001999829,5,0.20804130000033183,276.1175055999993,276.1175055999993,276.1175055999993,276.1175055999993,276.1175055999993,276.1175055999993,276.1175055999993,276.1175055999993,276.1175055999993,276.1175055999993,003,P001,2025_Jan_17_1828,ConditionRich,2021.2.3,59.94244326385136,
244.0,247.75,20,0.75,Stimuli/P001/sun_dkgctqgpvxbaoyks.jpg,1,0,0.75,0,107,107,107,,,,,,,,,,,,,244.01396290000412,0.013962900004116818,5,1.9578681999992114,276.36773459999677,276.36773459999677,276.36773459999677,276.36773459999677,276.36773459999677,276.36773459999677,276.36773459999677,277.10170809999545,276.36773459999677,276.36773459999677,003,P001,2025_Jan_17_1828,ConditionRich,2021.2.3,59.94244326385136,
247.75,248.0,41,0.0,Stimuli/Blank.png,0,0,0.0,0,108,108,108,,,,,,,,,,,,,247.75095690000308,0.000956900003075134,None,,280.1043614000009,280.1043614000009,280.1043614000009,280.1043614000009,280.1043614000009,280.1043614000009,280.1043614000009,280.1043614000009,280.1043614000009,280.1043614000009,003,P001,2025_Jan_17_1828,ConditionRich,2021.2.3,59.94244326385136,
248.0,251.75,11,0.75,Stimuli/P001/sun_bbfdgdyeqdnadvvi.jpg,1,3,3.75,0,109,109,109,,,,,,,,,,,,,248.00161579999985,0.0016157999998540618,3,3.4270492999930866,280.3545895999996,280.3545895999996,280.3545895999996,280.3545895999996,280.3545895999996,280.3545895999996,283.34060209999734,284.0912257999953,280.3545895999996,280.3545895999996,003,P001,2025_Jan_17_1828,ConditionRich,2021.2.3,59.94244326385136,
251.75,252.0,41,0.0,Stimuli/Blank.png,0,0,0.0,0,110,110,110,,,,,,,,,,,,,251.7544624000002,0.004462400000193156,5,0.21776279999903636,284.1078999999954,284.1078999999954,284.1078999999954,284.1078999999954,284.1078999999954,284.1078999999954,284.1078999999954,284.1078999999954,284.1078999999954,284.1078999999954,003,P001,2025_Jan_17_1828,ConditionRich,2021.2.3,59.94244326385136,
252.0,255.75,35,0.75,Stimuli/P001/things_pepperoni_01b.jpg,0,0,0.0,0,111,111,111,,,,,,,,,,,,,252.00517310000578,0.005173100005777087,5,1.967420900000434,284.35812830000214,284.35812830000214,284.35812830000214,284.35812830000214,284.35812830000214,284.35812830000214,284.35812830000214,284.35812830000214,284.35812830000214,284.35812830000214,003,P001,2025_Jan_17_1828,ConditionRich,2021.2.3,59.94244326385136,
255.75,256.0,41,0.0,Stimuli/Blank.png,0,0,0.0,0,112,112,112,,,,,,,,,,,,,255.76123070000176,0.011230700001760852,5,0.1974527999991551,288.1281275000001,288.1281275000001,288.1281275000001,288.1281275000001,288.1281275000001,288.1281275000001,288.1281275000001,288.1281275000001,288.1281275000001,288.1281275000001,003,P001,2025_Jan_17_1828,ConditionRich,2021.2.3,59.94244326385136,
256.0,259.75,4,0.75,Stimuli/P001/sun_aonjwqswdblhlpkm.jpg,0,0,0.0,0,113,113,113,,,,,,,,,,,,,256.0255139000001,0.025513900000078138,5,1.947447499995178,288.3783418999956,288.3783418999956,288.3783418999956,288.3783418999956,288.3783418999956,288.3783418999956,288.3783418999956,288.3783418999956,288.3783418999956,288.3783418999956,003,P001,2025_Jan_17_1828,ConditionRich,2021.2.3,59.94244326385136,
259.75,260.0,41,0.0,Stimuli/Blank.png,0,0,0.0,0,114,114,114,,,,,,,,,,,,,259.7612550000049,0.0112550000048941,5,0.21078829999896698,292.11497699999745,292.11497699999745,292.11497699999745,292.11497699999745,292.11497699999745,292.11497699999745,292.11497699999745,292.11497699999745,292.11497699999745,292.11497699999745,003,P001,2025_Jan_17_1828,ConditionRich,2021.2.3,59.94244326385136,
260.0,263.75,16,0.75,Stimuli/P001/sun_biqyomkjbujnppuf.jpg,1,0,0.75,0,115,115,115,,,,,,,,,,,,,260.01187040000514,0.011870400005136617,5,1.960433499996725,292.36520039999596,292.36520039999596,292.36520039999596,292.36520039999596,292.36520039999596,292.36520039999596,292.36520039999596,293.0991741999969,292.36520039999596,292.36520039999596,003,P001,2025_Jan_17_1828,ConditionRich,2021.2.3,59.94244326385136,
263.75,264.0,41,0.0,Stimuli/Blank.png,0,0,0.0,0,116,116,116,,,,,,,,,,,,,263.76702130000194,0.01702130000194302,None,,296.11856160000025,296.11856160000025,296.11856160000025,296.11856160000025,296.11856160000025,296.11856160000025,296.11856160000025,296.11856160000025,296.11856160000025,296.11856160000025,003,P001,2025_Jan_17_1828,ConditionRich,2021.2.3,59.94244326385136,
264.0,267.75,32,0.75,Stimuli/P001/things_oyster_01b.jpg,0,0,0.0,0,117,117,117,,,,,,,,,,,,,264.0005280000041,0.0005280000041238964,5,1.9567909000033978,296.3687445999967,296.3687445999967,296.3687445999967,296.3687445999967,296.3687445999967,296.3687445999967,296.3687445999967,296.3687445999967,296.3687445999967,296.3687445999967,003,P001,2025_Jan_17_1828,ConditionRich,2021.2.3,59.94244326385136,
267.75,268.0,41,0.0,Stimuli/Blank.png,0,0,0.0,0,118,118,118,,,,,,,,,,,,,267.7686426,0.018642600000021048,None,,300.12206489999517,300.12206489999517,300.12206489999517,300.12206489999517,300.12206489999517,300.12206489999517,300.12206489999517,300.12206489999517,300.12206489999517,300.12206489999517,003,P001,2025_Jan_17_1828,ConditionRich,2021.2.3,59.94244326385136,
268.0,271.75,17,0.75,Stimuli/P001/sun_bshgmgbmpvjkxfis.jpg,0,0,0.0,0,119,119,119,,,,,,,,,,,,,268.0025581000009,0.0025581000008969568,5,1.9534589999966556,300.3722847999961,300.3722847999961,300.3722847999961,300.3722847999961,300.3722847999961,300.3722847999961,300.3722847999961,300.3722847999961,300.3722847999961,300.3722847999961,003,P001,2025_Jan_17_1828,ConditionRich,2021.2.3,59.94244326385136,
271.75,272.0,41,0.0,Stimuli/Blank.png,0,0,0.0,0,120,120,120,,,,,,,,,,,,,271.77272410000296,0.022724100002960768,5,0.20000900000013644,304.1256041000015,304.1256041000015,304.1256041000015,304.1256041000015,304.1256041000015,304.1256041000015,304.1256041000015,304.1256041000015,304.1256041000015,304.1256041000015,003,P001,2025_Jan_17_1828,ConditionRich,2021.2.3,59.94244326385136,
272.0,275.75,29,0.75,Stimuli/P001/things_grinder_01b.jpg,0,0,0.0,0,121,121,121,,,,,,,,,,,,,272.0062020000041,0.006202000004122965,5,1.9664975000050617,304.3591285000002,304.3591285000002,304.3591285000002,304.3591285000002,304.3591285000002,304.3591285000002,304.3591285000002,304.3591285000002,304.3591285000002,304.3591285000002,003,P001,2025_Jan_17_1828,ConditionRich,2021.2.3,59.94244326385136,
275.75,276.0,41,0.0,Stimuli/Blank.png,0,0,0.0,0,122,122,122,,,,,,,,,,,,,275.75987180000084,0.009871800000837538,5,0.2131022999965353,308.1124576000002,308.1124576000002,308.1124576000002,308.1124576000002,308.1124576000002,308.1124576000002,308.1124576000002,308.1124576000002,308.1124576000002,308.1124576000002,003,P001,2025_Jan_17_1828,ConditionRich,2021.2.3,59.94244326385136,
276.0,292.0,0,0.0,Stimuli/Blank.png,1,13,13.75,0,123,123,123,,,,,,,,,,,,,276.0099063000016,0.009906300001603086,5,15.963012200001685,308.3626746000009,308.3626746000009,308.3626746000009,308.3626746000009,308.3626746000009,308.3626746000009,321.3574800999995,322.0915940999985,308.3626746000009,308.3626746000009,003,P001,2025_Jan_17_1828,ConditionRich,2021.2.3,59.94244326385136,
292.0,295.75,25,0.75,Stimuli/P001/things_curry_01b.jpg,0,0,0.0,0,124,124,124,,,,,,,,,,,,,292.0071955000021,0.0071955000021262094,5,1.9487461000026087,324.376837799995,324.376837799995,324.376837799995,324.376837799995,324.376837799995,324.376837799995,324.376837799995,324.376837799995,324.376837799995,324.376837799995,003,P001,2025_Jan_17_1828,ConditionRich,2021.2.3,59.94244326385136,
295.75,296.0,41,0.0,Stimuli/Blank.png,0,0,0.0,0,125,125,125,,,,,,,,,,,,,295.7766061000002,0.026606100000208244,5,0.19562660000519827,328.1301478999958,328.1301478999958,328.1301478999958,328.1301478999958,328.1301478999958,328.1301478999958,328.1301478999958,328.1301478999958,328.1301478999958,328.1301478999958,003,P001,2025_Jan_17_1828,ConditionRich,2021.2.3,59.94244326385136,
296.0,299.75,34,0.75,Stimuli/P001/things_parrot_01b.jpg,1,0,0.75,0,126,126,126,,,,,,,,,,,,,296.0107733000041,0.010773300004075281,5,1.9453963999985717,328.3803681999998,328.3803681999998,328.3803681999998,328.3803681999998,328.3803681999998,328.3803681999998,328.3803681999998,329.0976642999958,328.3803681999998,328.3803681999998,003,P001,2025_Jan_17_1828,ConditionRich,2021.2.3,59.94244326385136,
299.75,300.0,41,0.0,Stimuli/Blank.png,0,0,0.0,0,127,127,127,,,,,,,,,,,,,299.78066870000475,0.03066870000475319,5,0.19202799999766285,332.13365689999773,332.13365689999773,332.13365689999773,332.13365689999773,332.13365689999773,332.13365689999773,332.13365689999773,332.13365689999773,332.13365689999773,332.13365689999773,003,P001,2025_Jan_17_1828,ConditionRich,2021.2.3,59.94244326385136,
300.0,303.75,39,0.75,Stimuli/P001/things_woman_01b.jpg,0,0,0.0,0,128,128,128,,,,,,,,,,,,,300.01539620000403,0.015396200004033744,5,1.9419799000024796,332.38391930000216,332.38391930000216,332.38391930000216,332.38391930000216,332.38391930000216,332.38391930000216,332.38391930000216,332.38391930000216,332.38391930000216,332.38391930000216,003,P001,2025_Jan_17_1828,ConditionRich,2021.2.3,59.94244326385136,
303.75,304.0,41,0.0,Stimuli/Blank.png,0,0,0.0,0,129,129,129,,,,,,,,,,,,,303.7673943000045,0.017394300004525576,None,,336.1205768,336.1205768,336.1205768,336.1205768,336.1205768,336.1205768,336.1205768,336.1205768,336.1205768,336.1205768,003,P001,2025_Jan_17_1828,ConditionRich,2021.2.3,59.94244326385136,
304.0,307.75,24,0.75,Stimuli/P001/things_cornucopia_01b.jpg,1,2,2.75,0,130,130,130,,,,,,,,,,,,,304.00032760000613,0.000327600006130524,3,2.6135514000052353,336.3540853000013,336.3540853000013,336.3540853000013,336.3540853000013,336.3540853000013,336.3540853000013,338.339207099998,339.0898786999969,336.3540853000013,336.3540853000013,003,P001,2025_Jan_17_1828,ConditionRich,2021.2.3,59.94244326385136,
307.75,308.0,41,0.0,Stimuli/Blank.png,0,0,0.0,0,131,131,131,,,,,,,,,,,,,307.75475640000514,0.0047564000051352195,5,0.21823699999367818,340.107534099996,340.107534099996,340.107534099996,340.107534099996,340.107534099996,340.107534099996,340.107534099996,340.107534099996,340.107534099996,340.107534099996,003,P001,2025_Jan_17_1828,ConditionRich,2021.2.3,59.94244326385136,
308.0,311.75,26,0.75,Stimuli/P001/things_dish_01b.jpg,0,0,0.0,0,132,132,132,,,,,,,,,,,,,308.00427290000516,0.004272900005162228,5,1.968237399996724,340.35762429999886,340.35762429999886,340.35762429999886,340.35762429999886,340.35762429999886,340.35762429999886,340.35762429999886,340.35762429999886,340.35762429999886,340.35762429999886,003,P001,2025_Jan_17_1828,ConditionRich,2021.2.3,59.94244326385136,
311.75,312.0,41,0.0,Stimuli/Blank.png,0,0,0.0,0,133,133,133,,,,,,,,,,,,,311.7583800000066,0.008380000006582122,5,0.21462159999646246,344.11094969999976,344.11094969999976,344.11094969999976,344.11094969999976,344.11094969999976,344.11094969999976,344.11094969999976,344.11094969999976,344.11094969999976,344.11094969999976,003,P001,2025_Jan_17_1828,ConditionRich,2021.2.3,59.94244326385136,
312.0,315.75,14,0.75,Stimuli/P001/sun_bfgxassmmvhtarcc.jpg,0,0,0.0,0,134,134,134,,,,,,,,,,,,,312.0101614000014,0.010161400001379661,5,1.947933200004627,344.37784069999907,344.37784069999907,344.37784069999907,344.37784069999907,344.37784069999907,344.37784069999907,344.37784069999907,344.37784069999907,344.37784069999907,344.37784069999907,003,P001,2025_Jan_17_1828,ConditionRich,2021.2.3,59.94244326385136,
315.75,316.0,41,0.0,Stimuli/Blank.png,0,0,0.0,0,135,135,135,,,,,,,,,,,,,315.78041060000396,0.030410600003961008,5,0.17779239999799756,348.1478561999975,348.1478561999975,348.1478561999975,348.1478561999975,348.1478561999975,348.1478561999975,348.1478561999975,348.1478561999975,348.1478561999975,348.1478561999975,003,P001,2025_Jan_17_1828,ConditionRich,2021.2.3,59.94244326385136,
316.0,319.75,21,0.75,Stimuli/P001/things_baby_01b.jpg,0,0,0.0,0,136,136,136,,,,,,,,,,,,,316.0281560000003,0.028156000000308268,5,1.9275725000043167,348.39809499999683,348.39809499999683,348.39809499999683,348.39809499999683,348.39809499999683,348.39809499999683,348.39809499999683,348.39809499999683,348.39809499999683,348.39809499999683,003,P001,2025_Jan_17_1828,ConditionRich,2021.2.3,59.94244326385136,
319.75,320.0,41,0.0,Stimuli/Blank.png,0,0,0.0,0,137,137,137,,,,,,,,,,,,,319.78150260000257,0.031502600002568215,5,0.19210179999936372,352.13468419999845,352.13468419999845,352.13468419999845,352.13468419999845,352.13468419999845,352.13468419999845,352.13468419999845,352.13468419999845,352.13468419999845,352.13468419999845,003,P001,2025_Jan_17_1828,ConditionRich,2021.2.3,59.94244326385136,
320.0,323.75,37,0.75,Stimuli/P001/things_starfish_01b.jpg,0,0,0.0,0,138,138,138,,,,,,,,,,,,,320.015619100006,0.015619100006006192,5,1.958560300001409,352.36823079999886,352.36823079999886,352.36823079999886,352.36823079999886,352.36823079999886,352.36823079999886,352.36823079999886,352.36823079999886,352.36823079999886,352.36823079999886,003,P001,2025_Jan_17_1828,ConditionRich,2021.2.3,59.94244326385136,
323.75,324.0,41,0.0,Stimuli/Blank.png,0,0,0.0,0,139,139,139,,,,,,,,,,,,,323.7517697000003,0.0017697000002954155,None,,356.10487080000166,356.10487080000166,356.10487080000166,356.10487080000166,356.10487080000166,356.10487080000166,356.10487080000166,356.10487080000166,356.10487080000166,356.10487080000166,003,P001,2025_Jan_17_1828,ConditionRich,2021.2.3,59.94244326385136,
324.0,327.75,10,0.75,Stimuli/P001/sun_aykefnhciwsffcrj.jpg,0,0,0.0,0,140,140,140,,,,,,,,,,,,,324.0014145000023,0.001414500002283603,5,1.9551032000017585,356.37178069999936,356.37178069999936,356.37178069999936,356.37178069999936,356.37178069999936,356.37178069999936,356.37178069999936,356.37178069999936,356.37178069999936,356.37178069999936,003,P001,2025_Jan_17_1828,ConditionRich,2021.2.3,59.94244326385136,
327.75,328.0,41,0.0,Stimuli/Blank.png,0,0,0.0,0,141,141,141,,,,,,,,,,,,,327.77227060000587,0.02227060000586789,5,0.2016217999989749,360.1250835999963,360.1250835999963,360.1250835999963,360.1250835999963,360.1250835999963,360.1250835999963,360.1250835999963,360.1250835999963,360.1250835999963,360.1250835999963,003,P001,2025_Jan_17_1828,ConditionRich,2021.2.3,59.94244326385136,
328.0,331.75,38,0.75,Stimuli/P001/things_windowsill_01b.jpg,0,0,0.0,0,142,142,142,,,,,,,,,,,,,328.0058930000014,0.005893000001378823,5,1.9679600000017672,360.3586262999961,360.3586262999961,360.3586262999961,360.3586262999961,360.3586262999961,360.3586262999961,360.3586262999961,360.3586262999961,360.3586262999961,360.3586262999961,003,P001,2025_Jan_17_1828,ConditionRich,2021.2.3,59.94244326385136,
331.75,332.0,41,0.0,Stimuli/Blank.png,0,0,0.0,0,143,143,143,,,,,,,,,,,,,331.76047560000006,0.010475600000063423,5,0.1979334000061499,364.12864889999764,364.12864889999764,364.12864889999764,364.12864889999764,364.12864889999764,364.12864889999764,364.12864889999764,364.12864889999764,364.12864889999764,364.12864889999764,003,P001,2025_Jan_17_1828,ConditionRich,2021.2.3,59.94244326385136,
332.0,335.75,12,0.75,Stimuli/P001/sun_bdxvmnlyovhqognn.jpg,0,0,0.0,0,144,144,144,,,,,,,,,,,,,332.02577560000645,0.025775600006454624,5,1.9310841000042274,364.39554759999737,364.39554759999737,364.39554759999737,364.39554759999737,364.39554759999737,364.39554759999737,364.39554759999737,364.39554759999737,364.39554759999737,364.39554759999737,003,P001,2025_Jan_17_1828,ConditionRich,2021.2.3,59.94244326385136,
335.75,336.0,41,0.0,Stimuli/Blank.png,0,0,0.0,0,145,145,145,,,,,,,,,,,,,335.7813380000007,0.031338000000687316,5,0.1778755999985151,368.1488615999988,368.1488615999988,368.1488615999988,368.1488615999988,368.1488615999988,368.1488615999988,368.1488615999988,368.1488615999988,368.1488615999988,368.1488615999988,003,P001,2025_Jan_17_1828,ConditionRich,2021.2.3,59.94244326385136,
336.0,339.75,22,0.75,Stimuli/P001/things_boy_01b.jpg,0,0,0.0,0,146,146,146,,,,,,,,,,,,,336.0289464000016,0.02894640000158688,5,1.9444671000019298,368.38238779999665,368.38238779999665,368.38238779999665,368.38238779999665,368.38238779999665,368.38238779999665,368.38238779999665,368.38238779999665,368.38238779999665,368.38238779999665,003,P001,2025_Jan_17_1828,ConditionRich,2021.2.3,59.94244326385136,
339.75,340.0,41,0.0,Stimuli/Blank.png,0,0,0.0,0,147,147,147,,,,,,,,,,,,,339.76573720000306,0.015737200003059115,None,,372.1190193000002,372.1190193000002,372.1190193000002,372.1190193000002,372.1190193000002,372.1190193000002,372.1190193000002,372.1190193000002,372.1190193000002,372.1190193000002,003,P001,2025_Jan_17_1828,ConditionRich,2021.2.3,59.94244326385136,
340.0,343.75,8,0.75,Stimuli/P001/sun_asqboyqakusycvwd.jpg,1,3,3.75,0,148,148,148,,,,,,,,,,,,,339.9996631000031,-0.00033689999690977857,3,3.3221057999980985,372.3525582000002,372.3525582000002,372.3525582000002,372.3525582000002,372.3525582000002,372.3525582000002,375.33852730000217,376.0892554999955,372.3525582000002,372.3525582000002,003,P001,2025_Jan_17_1828,ConditionRich,2021.2.3,59.94244326385136,
343.75,344.0,41,0.0,Stimuli/Blank.png,0,0,0.0,0,149,149,149,,,,,,,,,,,,,343.7532801000052,0.0032801000052131712,None,,376.10589459999755,376.10589459999755,376.10589459999755,376.10589459999755,376.10589459999755,376.10589459999755,376.10589459999755,376.10589459999755,376.10589459999755,376.10589459999755,003,P001,2025_Jan_17_1828,ConditionRich,2021.2.3,59.94244326385136,
344.0,347.75,5,0.75,Stimuli/P001/sun_apwzcrxhvvnrexjh.jpg,0,0,0.0,0,150,150,150,,,,,,,,,,,,,344.0052461000014,0.005246100001386367,5,1.9539911999963806,376.3728923000017,376.3728923000017,376.3728923000017,376.3728923000017,376.3728923000017,376.3728923000017,376.3728923000017,376.3728923000017,376.3728923000017,376.3728923000017,003,P001,2025_Jan_17_1828,ConditionRich,2021.2.3,59.94244326385136,
347.75,348.0,41,0.0,Stimuli/Blank.png,0,0,0.0,0,151,151,151,,,,,,,,,,,,,347.7726118999999,0.022611899999901652,5,0.20057150000502588,380.12614380000014,380.12614380000014,380.12614380000014,380.12614380000014,380.12614380000014,380.12614380000014,380.12614380000014,380.12614380000014,380.12614380000014,380.12614380000014,003,P001,2025_Jan_17_1828,ConditionRich,2021.2.3,59.94244326385136,
348.0,351.75,18,0.75,Stimuli/P001/sun_bzjegfvyrvqtunza.jpg,0,0,0.0,0,152,152,152,,,,,,,,,,,,,348.0061333000049,0.006133300004876219,5,1.9669905000046128,380.3596464000002,380.3596464000002,380.3596464000002,380.3596464000002,380.3596464000002,380.3596464000002,380.3596464000002,380.3596464000002,380.3596464000002,380.3596464000002,003,P001,2025_Jan_17_1828,ConditionRich,2021.2.3,59.94244326385136,
351.75,352.0,41,0.0,Stimuli/Blank.png,0,0,0.0,0,153,153,153,,,,,,,,,,,,,351.75965360000555,0.009653600005549379,5,0.21378530000220053,384.1129574000006,384.1129574000006,384.1129574000006,384.1129574000006,384.1129574000006,384.1129574000006,384.1129574000006,384.1129574000006,384.1129574000006,384.1129574000006,003,P001,2025_Jan_17_1828,ConditionRich,2021.2.3,59.94244326385136,
352.0,355.75,19,0.75,Stimuli/P001/sun_bzyyqqczvrnvukdn.jpg,0,0,0.0,0,154,154,154,,,,,,,,,,,,,352.0101422000007,0.01014220000070054,5,1.9635297999993782,384.36321039999893,384.36321039999893,384.36321039999893,384.36321039999893,384.36321039999893,384.36321039999893,384.36321039999893,384.36321039999893,384.36321039999893,384.36321039999893,003,P001,2025_Jan_17_1828,ConditionRich,2021.2.3,59.94244326385136,
355.75,356.0,41,0.0,Stimuli/Blank.png,0,0,0.0,0,155,155,155,,,,,,,,,,,,,355.76522880000266,0.015228800002660137,5,0.1934800000017276,388.1331827999966,388.1331827999966,388.1331827999966,388.1331827999966,388.1331827999966,388.1331827999966,388.1331827999966,388.1331827999966,388.1331827999966,388.1331827999966,003,P001,2025_Jan_17_1828,ConditionRich,2021.2.3,59.94244326385136,
356.0,359.75,33,0.75,Stimuli/P001/things_pan_01b.jpg,0,0,0.0,0,156,156,156,,,,,,,,,,,,,356.0308670000013,0.030867000001308043,5,1.9268152000004193,388.4001005999962,388.4001005999962,388.4001005999962,388.4001005999962,388.4001005999962,388.4001005999962,388.4001005999962,388.4001005999962,388.4001005999962,388.4001005999962,003,P001,2025_Jan_17_1828,ConditionRich,2021.2.3,59.94244326385136,
359.75,360.0,41,0.0,Stimuli/Blank.png,0,0,0.0,0,157,157,157,,,,,,,,,,,,,359.7672046000007,0.01720460000069579,None,,392.1201141999991,392.1201141999991,392.1201141999991,392.1201141999991,392.1201141999991,392.1201141999991,392.1201141999991,392.1201141999991,392.1201141999991,392.1201141999991,003,P001,2025_Jan_17_1828,ConditionRich,2021.2.3,59.94244326385136,
360.0,363.75,2,0.75,Stimuli/P001/sun_akmxsxepquhynflp.jpg,0,0,0.0,0,158,158,158,,,,,,,,,,,,,360.0001173000055,0.00011730000551324338,5,1.9731431999971392,392.35356789999787,392.35356789999787,392.35356789999787,392.35356789999787,392.35356789999787,392.35356789999787,392.35356789999787,392.35356789999787,392.35356789999787,392.35356789999787,003,P001,2025_Jan_17_1828,ConditionRich,2021.2.3,59.94244326385136,
363.75,364.0,41,0.0,Stimuli/Blank.png,0,0,0.0,0,159,159,159,,,,,,,,,,,,,363.7555105000065,0.005510500006494112,5,0.2033101999986684,396.1235683999985,396.1235683999985,396.1235683999985,396.1235683999985,396.1235683999985,396.1235683999985,396.1235683999985,396.1235683999985,396.1235683999985,396.1235683999985,003,P001,2025_Jan_17_1828,ConditionRich,2021.2.3,59.94244326385136,
364.0,367.75,30,0.75,Stimuli/P001/things_iguana_01b.jpg,1,1,1.75,0,160,160,160,,,,,,,,,,,,,364.0206743000017,0.02067430000170134,5,1.9531334999992396,396.37378929999977,396.37378929999977,396.37378929999977,396.37378929999977,396.37378929999977,396.37378929999977,397.35799369999586,398.10865779999585,396.37378929999977,396.37378929999977,003,P001,2025_Jan_17_1828,ConditionRich,2021.2.3,59.94244326385136,
367.75,368.0,41,0.0,Stimuli/Blank.png,0,0,0.0,0,161,161,161,,,,,,,,,,,,,367.75763440000446,0.007634400004462805,5,0.21615299999393756,400.11048189999565,400.11048189999565,400.11048189999565,400.11048189999565,400.11048189999565,400.11048189999565,400.11048189999565,400.11048189999565,400.11048189999565,400.11048189999565,003,P001,2025_Jan_17_1828,ConditionRich,2021.2.3,59.94244326385136,
368.0,371.75,13,0.75,Stimuli/P001/sun_bfdmlbkyioxnkodb.jpg,0,0,0.0,0,162,162,162,,,,,,,,,,,,,368.00758590000623,0.0075859000062337145,5,1.949254999999539,400.3773494999987,400.3773494999987,400.3773494999987,400.3773494999987,400.3773494999987,400.3773494999987,400.3773494999987,400.3773494999987,400.3773494999987,400.3773494999987,003,P001,2025_Jan_17_1828,ConditionRich,2021.2.3,59.94244326385136,
371.75,372.0,41,0.0,Stimuli/Blank.png,0,0,0.0,0,163,163,163,,,,,,,,,,,,,371.7774986000004,0.027498600000399165,5,0.19597000000067055,404.1307678000012,404.1307678000012,404.1307678000012,404.1307678000012,404.1307678000012,404.1307678000012,404.1307678000012,404.1307678000012,404.1307678000012,404.1307678000012,003,P001,2025_Jan_17_1828,ConditionRich,2021.2.3,59.94244326385136,
372.0,388.0,0,0.0,Stimuli/Blank.png,1,9,9.75,0,164,164,164,,,,,,,,,,,,,372.0110905000038,0.01109050000377465,5,13.962656000003335,404.36418469999626,404.36418469999626,404.36418469999626,404.36418469999626,404.36418469999626,404.36418469999626,413.3554675999985,414.1061535999979,404.36418469999626,404.36418469999626,003,P001,2025_Jan_17_1828,ConditionRich,2021.2.3,59.94244326385136,
