eventStartTime,eventEndTime,eventCond,imSize,imFile,responseEvent,fixRespStart,fixRespEnd,Events.thisRepN,Events.thisTrialN,Events.thisN,Events.thisIndex,Instructions.started,Instructions.stopped,participantReadyResponse.keys,participantReadyResponse.rt,participantReadyResponse.started,participantReadyResponse.stopped,startWaitforTrigger,triggerResponse.keys,triggerResponse.rt,triggerResponse.started,triggerResponse.stopped,globalTimer,actualStartTime,startTimingDiff,participantResponse.keys,participantResponse.rt,participantResponse.started,participantResponse.stopped,image.started,image.stopped,fixationOutside.started,fixationOutside.stopped,fixationResponse.started,fixationResponse.stopped,fixationInside.started,fixationInside.stopped,session,participant,date,expName,psychopyVersion,frameRate,
,,,,,,,,,,,,11.121502399997553,None,3,1.9154885999960243,11.121502399997553,None,,,,,,,,,,,,,,,,,,,,,006,P001,2025_Jan_17_1901,ConditionRich,2021.2.3,59.9440242695928,
,,,,,,,,,,,,,,,,,,13.039800999998988,5,15.104289300004893,13.052768699999433,None,,,,,,,,,,,,,,,,006,P001,2025_Jan_17_1901,ConditionRich,2021.2.3,59.9440242695928,
0.0,4.0,0,0.0,Stimuli/Blank.png,0,0,0.0,0,0,0,0,,,,,,,,,,,,28.16976359999535,0.04176200000074459,0.04176200000074459,5,3.9242471999968984,28.23290299999644,None,28.23290299999644,None,28.23290299999644,None,28.23290299999644,28.23290299999644,28.23290299999644,None,006,P001,2025_Jan_17_1901,ConditionRich,2021.2.3,59.9440242695928,
4.0,7.75,13,0.75,Stimuli/P001/sun_bfdmlbkyioxnkodb.jpg,0,0,0.0,0,1,1,1,,,,,,,,,,,,,4.0212277000027825,0.021227700002782512,5,1.9380297000025166,32.22012220000033,32.22012220000033,32.22012220000033,32.22012220000033,32.22012220000033,32.22012220000033,32.22012220000033,32.22012220000033,32.22012220000033,32.22012220000033,006,P001,2025_Jan_17_1901,ConditionRich,2021.2.3,59.9440242695928,
7.75,8.0,41,0.0,Stimuli/Blank.png,0,0,0.0,0,2,2,2,,,,,,,,,,,,,7.774648099999467,0.024648099999467377,5,0.18458409999584546,35.973333800000546,35.973333800000546,35.973333800000546,35.973333800000546,35.973333800000546,35.973333800000546,35.973333800000546,35.973333800000546,35.973333800000546,35.973333800000546,006,P001,2025_Jan_17_1901,ConditionRich,2021.2.3,59.9440242695928,
8.0,11.75,21,0.75,Stimuli/P001/things_baby_01b.jpg,0,0,0.0,0,3,3,3,,,,,,,,,,,,,8.022379200003343,0.022379200003342703,5,1.9512410999959684,36.20660639999551,36.20660639999551,36.20660639999551,36.20660639999551,36.20660639999551,36.20660639999551,36.20660639999551,36.20660639999551,36.20660639999551,36.20660639999551,006,P001,2025_Jan_17_1901,ConditionRich,2021.2.3,59.9440242695928,
11.75,12.0,41,0.0,Stimuli/Blank.png,0,0,0.0,0,4,4,4,,,,,,,,,,,,,11.759721100002935,0.00972110000293469,5,0.21473709999554558,39.943261299995356,39.943261299995356,39.943261299995356,39.943261299995356,39.943261299995356,39.943261299995356,39.943261299995356,39.943261299995356,39.943261299995356,39.943261299995356,006,P001,2025_Jan_17_1901,ConditionRich,2021.2.3,59.9440242695928,
12.0,15.75,7,0.75,Stimuli/P001/sun_arlesyjqxmqmcccl.jpg,0,0,0.0,0,5,5,5,,,,,,,,,,,,,12.009257300000172,0.009257300000172108,5,1.964397600000666,40.19346819999919,40.19346819999919,40.19346819999919,40.19346819999919,40.19346819999919,40.19346819999919,40.19346819999919,40.19346819999919,40.19346819999919,40.19346819999919,006,P001,2025_Jan_17_1901,ConditionRich,2021.2.3,59.9440242695928,
15.75,16.0,41,0.0,Stimuli/Blank.png,0,0,0.0,0,6,6,6,,,,,,,,,,,,,15.763341099998797,0.01334109999879729,5,0.21112369999900693,43.946786900000006,43.946786900000006,43.946786900000006,43.946786900000006,43.946786900000006,43.946786900000006,43.946786900000006,43.946786900000006,43.946786900000006,43.946786900000006,006,P001,2025_Jan_17_1901,ConditionRich,2021.2.3,59.9440242695928,
16.0,19.75,37,0.75,Stimuli/P001/things_starfish_01b.jpg,0,0,0.0,0,7,7,7,,,,,,,,,,,,,16.013342999998713,0.013342999998712912,5,1.9610634999989998,44.197002599998086,44.197002599998086,44.197002599998086,44.197002599998086,44.197002599998086,44.197002599998086,44.197002599998086,44.197002599998086,44.197002599998086,44.197002599998086,006,P001,2025_Jan_17_1901,ConditionRich,2021.2.3,59.9440242695928,
19.75,20.0,41,0.0,Stimuli/Blank.png,0,0,0.0,0,8,8,8,,,,,,,,,,,,,19.75041980000242,0.0004198000024189241,None,,47.93364579999616,47.93364579999616,47.93364579999616,47.93364579999616,47.93364579999616,47.93364579999616,47.93364579999616,47.93364579999616,47.93364579999616,47.93364579999616,006,P001,2025_Jan_17_1901,ConditionRich,2021.2.3,59.9440242695928,
20.0,23.75,9,0.75,Stimuli/P001/sun_awtltwwpwbepuuqv.jpg,0,0,0.0,0,9,9,9,,,,,,,,,,,,,19.999424200002977,-0.0005757999970228411,5,1.9740696999942884,48.18385959999432,48.18385959999432,48.18385959999432,48.18385959999432,48.18385959999432,48.18385959999432,48.18385959999432,48.18385959999432,48.18385959999432,48.18385959999432,006,P001,2025_Jan_17_1901,ConditionRich,2021.2.3,59.9440242695928,
23.75,24.0,41,0.0,Stimuli/Blank.png,0,0,0.0,0,10,10,10,,,,,,,,,,,,,23.75575889999891,0.005758899998909328,5,0.2043056999973487,51.95386470000085,51.95386470000085,51.95386470000085,51.95386470000085,51.95386470000085,51.95386470000085,51.95386470000085,51.95386470000085,51.95386470000085,51.95386470000085,006,P001,2025_Jan_17_1901,ConditionRich,2021.2.3,59.9440242695928,
24.0,27.75,28,0.75,Stimuli/P001/things_girl_01b.jpg,0,0,0.0,0,11,11,11,,,,,,,,,,,,,24.019890100003977,0.01989010000397684,5,1.9540640999985044,52.20411239999521,52.20411239999521,52.20411239999521,52.20411239999521,52.20411239999521,52.20411239999521,52.20411239999521,52.20411239999521,52.20411239999521,52.20411239999521,006,P001,2025_Jan_17_1901,ConditionRich,2021.2.3,59.9440242695928,
27.75,28.0,41,0.0,Stimuli/Blank.png,0,0,0.0,0,12,12,12,,,,,,,,,,,,,27.75718230000348,0.0071823000034783036,5,0.2172091999964323,55.940714699994714,55.940714699994714,55.940714699994714,55.940714699994714,55.940714699994714,55.940714699994714,55.940714699994714,55.940714699994714,55.940714699994714,55.940714699994714,006,P001,2025_Jan_17_1901,ConditionRich,2021.2.3,59.9440242695928,
28.0,31.75,14,0.75,Stimuli/P001/sun_bfgxassmmvhtarcc.jpg,0,0,0.0,0,13,13,13,,,,,,,,,,,,,28.007047700004478,0.0070477000044775195,5,1.9503629000028013,56.20764259999851,56.20764259999851,56.20764259999851,56.20764259999851,56.20764259999851,56.20764259999851,56.20764259999851,56.20764259999851,56.20764259999851,56.20764259999851,006,P001,2025_Jan_17_1901,ConditionRich,2021.2.3,59.9440242695928,
31.75,32.0,41,0.0,Stimuli/Blank.png,0,0,0.0,0,14,14,14,,,,,,,,,,,,,31.777321499997925,0.027321499997924548,5,0.19700569999986328,59.96100769999612,59.96100769999612,59.96100769999612,59.96100769999612,59.96100769999612,59.96100769999612,59.96100769999612,59.96100769999612,59.96100769999612,59.96100769999612,006,P001,2025_Jan_17_1901,ConditionRich,2021.2.3,59.9440242695928,
32.0,35.75,4,0.75,Stimuli/P001/sun_aonjwqswdblhlpkm.jpg,1,2,2.75,0,15,15,15,,,,,,,,,,,,,32.0110457999981,0.011045799998100847,3,2.4123351000016555,60.19458499999746,60.19458499999746,60.19458499999746,60.19458499999746,60.19458499999746,60.19458499999746,62.179584499994235,62.93026760000066,60.19458499999746,60.19458499999746,006,P001,2025_Jan_17_1901,ConditionRich,2021.2.3,59.9440242695928,
35.75,36.0,41,0.0,Stimuli/Blank.png,0,0,0.0,0,16,16,16,,,,,,,,,,,,,35.76427700000204,0.01427700000203913,5,0.21005900000454858,63.94779359999666,63.94779359999666,63.94779359999666,63.94779359999666,63.94779359999666,63.94779359999666,63.94779359999666,63.94779359999666,63.94779359999666,63.94779359999666,006,P001,2025_Jan_17_1901,ConditionRich,2021.2.3,59.9440242695928,
36.0,39.75,10,0.75,Stimuli/P001/sun_aykefnhciwsffcrj.jpg,0,0,0.0,0,17,17,17,,,,,,,,,,,,,36.01387429999886,0.013874299998860806,5,1.9603841000061948,64.19802169999457,64.19802169999457,64.19802169999457,64.19802169999457,64.19802169999457,64.19802169999457,64.19802169999457,64.19802169999457,64.19802169999457,64.19802169999457,006,P001,2025_Jan_17_1901,ConditionRich,2021.2.3,59.9440242695928,
39.75,40.0,41,0.0,Stimuli/Blank.png,0,0,0.0,0,18,18,18,,,,,,,,,,,,,39.7508971999996,0.0008971999995992519,None,,67.9346499999956,67.9346499999956,67.9346499999956,67.9346499999956,67.9346499999956,67.9346499999956,67.9346499999956,67.9346499999956,67.9346499999956,67.9346499999956,006,P001,2025_Jan_17_1901,ConditionRich,2021.2.3,59.9440242695928,
40.0,43.75,35,0.75,Stimuli/P001/things_pepperoni_01b.jpg,0,0,0.0,0,19,19,19,,,,,,,,,,,,,40.00104380000266,0.001043800002662465,5,1.973279799996817,68.18484429999808,68.18484429999808,68.18484429999808,68.18484429999808,68.18484429999808,68.18484429999808,68.18484429999808,68.18484429999808,68.18484429999808,68.18484429999808,006,P001,2025_Jan_17_1901,ConditionRich,2021.2.3,59.9440242695928,
43.75,44.0,41,0.0,Stimuli/Blank.png,0,0,0.0,0,20,20,20,,,,,,,,,,,,,43.75497600000381,0.004976000003807712,None,,71.9382020999983,71.9382020999983,71.9382020999983,71.9382020999983,71.9382020999983,71.9382020999983,71.9382020999983,71.9382020999983,71.9382020999983,71.9382020999983,006,P001,2025_Jan_17_1901,ConditionRich,2021.2.3,59.9440242695928,
44.0,47.75,40,0.75,Stimuli/P001/things_worm_01b.jpg,0,0,0.0,0,21,21,21,,,,,,,,,,,,,44.004341300002125,0.004341300002124626,5,1.9695982999983244,72.18841179999436,72.18841179999436,72.18841179999436,72.18841179999436,72.18841179999436,72.18841179999436,72.18841179999436,72.18841179999436,72.18841179999436,72.18841179999436,006,P001,2025_Jan_17_1901,ConditionRich,2021.2.3,59.9440242695928,
47.75,48.0,41,0.0,Stimuli/Blank.png,0,0,0.0,0,22,22,22,,,,,,,,,,,,,47.759704000003694,0.009704000003694091,5,0.199443199999223,75.9584079999986,75.9584079999986,75.9584079999986,75.9584079999986,75.9584079999986,75.9584079999986,75.9584079999986,75.9584079999986,75.9584079999986,75.9584079999986,006,P001,2025_Jan_17_1901,ConditionRich,2021.2.3,59.9440242695928,
48.0,51.75,16,0.75,Stimuli/P001/sun_biqyomkjbujnppuf.jpg,0,0,0.0,0,23,23,23,,,,,,,,,,,,,48.02476800000295,0.02476800000295043,5,1.9493077000006451,76.20863109999482,76.20863109999482,76.20863109999482,76.20863109999482,76.20863109999482,76.20863109999482,76.20863109999482,76.20863109999482,76.20863109999482,76.20863109999482,006,P001,2025_Jan_17_1901,ConditionRich,2021.2.3,59.9440242695928,
51.75,52.0,41,0.0,Stimuli/Blank.png,0,0,0.0,0,24,24,24,,,,,,,,,,,,,51.761478300002636,0.011478300002636388,5,0.21274309999716934,79.94527129999915,79.94527129999915,79.94527129999915,79.94527129999915,79.94527129999915,79.94527129999915,79.94527129999915,79.94527129999915,79.94527129999915,79.94527129999915,006,P001,2025_Jan_17_1901,ConditionRich,2021.2.3,59.9440242695928,
52.0,55.75,30,0.75,Stimuli/P001/things_iguana_01b.jpg,0,0,0.0,0,25,25,25,,,,,,,,,,,,,52.01148020000255,0.01148020000255201,5,1.9624151999960304,80.1954889999979,80.1954889999979,80.1954889999979,80.1954889999979,80.1954889999979,80.1954889999979,80.1954889999979,80.1954889999979,80.1954889999979,80.1954889999979,006,P001,2025_Jan_17_1901,ConditionRich,2021.2.3,59.9440242695928,
55.75,56.0,41,0.0,Stimuli/Blank.png,0,0,0.0,0,26,26,26,,,,,,,,,,,,,55.76525180000317,0.015251800003170501,5,0.2091638999991119,83.94881149999856,83.94881149999856,83.94881149999856,83.94881149999856,83.94881149999856,83.94881149999856,83.94881149999856,83.94881149999856,83.94881149999856,83.94881149999856,006,P001,2025_Jan_17_1901,ConditionRich,2021.2.3,59.9440242695928,
56.0,59.75,18,0.75,Stimuli/P001/sun_bzjegfvyrvqtunza.jpg,1,2,2.75,0,27,27,27,,,,,,,,,,,,,56.01487890000135,0.014878900001349393,5,1.9590298000039184,84.19903540000087,84.19903540000087,84.19903540000087,84.19903540000087,84.19903540000087,84.19903540000087,86.18412819999503,86.93477300000086,84.19903540000087,84.19903540000087,006,P001,2025_Jan_17_1901,ConditionRich,2021.2.3,59.9440242695928,
59.75,60.0,41,0.0,Stimuli/Blank.png,0,0,0.0,0,28,28,28,,,,,,,,,,,,,59.75157600000239,0.0015760000023874454,None,,87.93568740000046,87.93568740000046,87.93568740000046,87.93568740000046,87.93568740000046,87.93568740000046,87.93568740000046,87.93568740000046,87.93568740000046,87.93568740000046,006,P001,2025_Jan_17_1901,ConditionRich,2021.2.3,59.9440242695928,
60.0,63.75,36,0.75,Stimuli/P001/things_stalagmite_01b.jpg,1,3,3.75,0,29,29,29,,,,,,,,,,,,,60.00210099999822,0.002100999998219777,3,3.3743748999986565,88.20258589999867,88.20258589999867,88.20258589999867,88.20258589999867,88.20258589999867,88.20258589999867,91.17191620000085,91.92252889999509,88.20258589999867,88.20258589999867,006,P001,2025_Jan_17_1901,ConditionRich,2021.2.3,59.9440242695928,
63.75,64.0,41,0.0,Stimuli/Blank.png,0,0,0.0,0,30,30,30,,,,,,,,,,,,,63.77165160000004,0.02165160000004107,None,,91.95597079999425,91.95597079999425,91.95597079999425,91.95597079999425,91.95597079999425,91.95597079999425,91.95597079999425,91.95597079999425,91.95597079999425,91.95597079999425,006,P001,2025_Jan_17_1901,ConditionRich,2021.2.3,59.9440242695928,
64.0,67.75,6,0.75,Stimuli/P001/sun_aqbaaqeojrexbmcr.jpg,0,0,0.0,0,31,31,31,,,,,,,,,,,,,64.00502480000432,0.0050248000043211505,5,1.9685246000008192,92.18942649999371,92.18942649999371,92.18942649999371,92.18942649999371,92.18942649999371,92.18942649999371,92.18942649999371,92.18942649999371,92.18942649999371,92.18942649999371,006,P001,2025_Jan_17_1901,ConditionRich,2021.2.3,59.9440242695928,
67.75,68.0,41,0.0,Stimuli/Blank.png,0,0,0.0,0,32,32,32,,,,,,,,,,,,,67.75953989999834,0.009539899998344481,5,0.21525149999797577,95.94275249999919,95.94275249999919,95.94275249999919,95.94275249999919,95.94275249999919,95.94275249999919,95.94275249999919,95.94275249999919,95.94275249999919,95.94275249999919,006,P001,2025_Jan_17_1901,ConditionRich,2021.2.3,59.9440242695928,
68.0,71.75,34,0.75,Stimuli/P001/things_parrot_01b.jpg,0,0,0.0,0,33,33,33,,,,,,,,,,,,,68.01036739999836,0.01036739999835845,5,1.9481478000016068,96.20988170000055,96.20988170000055,96.20988170000055,96.20988170000055,96.20988170000055,96.20988170000055,96.20988170000055,96.20988170000055,96.20988170000055,96.20988170000055,006,P001,2025_Jan_17_1901,ConditionRich,2021.2.3,59.9440242695928,
71.75,72.0,41,0.0,Stimuli/Blank.png,0,0,0.0,0,34,34,34,,,,,,,,,,,,,71.77925300000061,0.029253000000608154,5,0.19495260000257986,99.96296019999863,99.96296019999863,99.96296019999863,99.96296019999863,99.96296019999863,99.96296019999863,99.96296019999863,99.96296019999863,99.96296019999863,99.96296019999863,006,P001,2025_Jan_17_1901,ConditionRich,2021.2.3,59.9440242695928,
72.0,75.75,25,0.75,Stimuli/P001/things_curry_01b.jpg,0,0,0.0,0,35,35,35,,,,,,,,,,,,,72.01207750000322,0.012077500003215391,5,1.961405800000648,100.19650559999718,100.19650559999718,100.19650559999718,100.19650559999718,100.19650559999718,100.19650559999718,100.19650559999718,100.19650559999718,100.19650559999718,100.19650559999718,006,P001,2025_Jan_17_1901,ConditionRich,2021.2.3,59.9440242695928,
75.75,76.0,41,0.0,Stimuli/Blank.png,0,0,0.0,0,36,36,36,,,,,,,,,,,,,75.76564760000474,0.015647600004740525,None,,103.94982779999555,103.94982779999555,103.94982779999555,103.94982779999555,103.94982779999555,103.94982779999555,103.94982779999555,103.94982779999555,103.94982779999555,103.94982779999555,006,P001,2025_Jan_17_1901,ConditionRich,2021.2.3,59.9440242695928,
76.0,79.75,17,0.75,Stimuli/P001/sun_bshgmgbmpvjkxfis.jpg,1,3,3.75,0,37,37,37,,,,,,,,,,,,,75.99980280000455,-0.00019719999545486644,3,3.4185080000024755,104.18335949999891,104.18335949999891,104.18335949999891,104.18335949999891,104.18335949999891,104.18335949999891,107.1693884999986,107.92004089999682,104.18335949999891,104.18335949999891,006,P001,2025_Jan_17_1901,ConditionRich,2021.2.3,59.9440242695928,
79.75,80.0,41,0.0,Stimuli/Blank.png,0,0,0.0,0,38,38,38,,,,,,,,,,,,,79.75332139999955,0.0033213999995496124,None,,107.93668819999584,107.93668819999584,107.93668819999584,107.93668819999584,107.93668819999584,107.93668819999584,107.93668819999584,107.93668819999584,107.93668819999584,107.93668819999584,006,P001,2025_Jan_17_1901,ConditionRich,2021.2.3,59.9440242695928,
80.0,83.75,22,0.75,Stimuli/P001/things_boy_01b.jpg,1,1,1.75,0,39,39,39,,,,,,,,,,,,,80.00480249999964,0.004802499999641441,5,1.9546055999962846,108.20359079999616,108.20359079999616,108.20359079999616,108.20359079999616,108.20359079999616,108.20359079999616,109.18779069999437,109.93844579999859,108.20359079999616,108.20359079999616,006,P001,2025_Jan_17_1901,ConditionRich,2021.2.3,59.9440242695928,
83.75,84.0,41,0.0,Stimuli/Blank.png,0,0,0.0,0,40,40,40,,,,,,,,,,,,,83.77474839999923,0.024748399999225512,5,0.18436029999429593,111.97359259999939,111.97359259999939,111.97359259999939,111.97359259999939,111.97359259999939,111.97359259999939,111.97359259999939,111.97359259999939,111.97359259999939,111.97359259999939,006,P001,2025_Jan_17_1901,ConditionRich,2021.2.3,59.9440242695928,
84.0,100.0,0,0.0,Stimuli/Blank.png,1,1,1.75,0,41,41,41,,,,,,,,,,,,,84.02325450000353,0.023254500003531575,5,13.950668700003007,112.20719489999465,112.20719489999465,112.20719489999465,112.20719489999465,112.20719489999465,112.20719489999465,113.19143199999962,113.9419968000002,112.20719489999465,112.20719489999465,006,P001,2025_Jan_17_1901,ConditionRich,2021.2.3,59.9440242695928,
100.0,103.75,15,0.75,Stimuli/P001/sun_bfzoxbkvsfqxsyle.jpg,0,0,0.0,0,42,42,42,,,,,,,,,,,,,100.00438890000078,0.00438890000077663,5,1.9534371000045212,128.20459180000034,128.20459180000034,128.20459180000034,128.20459180000034,128.20459180000034,128.20459180000034,128.20459180000034,128.20459180000034,128.20459180000034,128.20459180000034,006,P001,2025_Jan_17_1901,ConditionRich,2021.2.3,59.9440242695928,
103.75,104.0,41,0.0,Stimuli/Blank.png,0,0,0.0,0,43,43,43,,,,,,,,,,,,,103.77436899999884,0.0243689999988419,5,0.20001710000360617,131.95791800000006,131.95791800000006,131.95791800000006,131.95791800000006,131.95791800000006,131.95791800000006,131.95791800000006,131.95791800000006,131.95791800000006,131.95791800000006,006,P001,2025_Jan_17_1901,ConditionRich,2021.2.3,59.9440242695928,
104.0,107.75,38,0.75,Stimuli/P001/things_windowsill_01b.jpg,1,0,0.75,0,44,44,44,,,,,,,,,,,,,104.0072691000023,0.007269100002304185,5,1.9665497000023606,132.19145139999455,132.19145139999455,132.19145139999455,132.19145139999455,132.19145139999455,132.19145139999455,132.19145139999455,132.92546929999662,132.19145139999455,132.19145139999455,006,P001,2025_Jan_17_1901,ConditionRich,2021.2.3,59.9440242695928,
107.75,108.0,41,0.0,Stimuli/Blank.png,0,0,0.0,0,45,45,45,,,,,,,,,,,,,107.76033969999844,0.010339699998439755,5,0.21311209999839775,135.94477419999748,135.94477419999748,135.94477419999748,135.94477419999748,135.94477419999748,135.94477419999748,135.94477419999748,135.94477419999748,135.94477419999748,135.94477419999748,006,P001,2025_Jan_17_1901,ConditionRich,2021.2.3,59.9440242695928,
108.0,111.75,2,0.75,Stimuli/P001/sun_akmxsxepquhynflp.jpg,0,0,0.0,0,46,46,46,,,,,,,,,,,,,108.01128520000202,0.011285200002021156,5,1.9629617999962647,136.19498190000013,136.19498190000013,136.19498190000013,136.19498190000013,136.19498190000013,136.19498190000013,136.19498190000013,136.19498190000013,136.19498190000013,136.19498190000013,006,P001,2025_Jan_17_1901,ConditionRich,2021.2.3,59.9440242695928,
111.75,112.0,41,0.0,Stimuli/Blank.png,0,0,0.0,0,47,47,47,,,,,,,,,,,,,111.7642868000039,0.01428680000390159,5,0.20961729999544332,139.94830999999976,139.94830999999976,139.94830999999976,139.94830999999976,139.94830999999976,139.94830999999976,139.94830999999976,139.94830999999976,139.94830999999976,139.94830999999976,006,P001,2025_Jan_17_1901,ConditionRich,2021.2.3,59.9440242695928,
112.0,115.75,31,0.75,Stimuli/P001/things_man_01b.jpg,1,0,0.75,0,48,48,48,,,,,,,,,,,,,112.01438380000036,0.01438380000035977,5,1.9595784999983152,140.1985241000002,140.1985241000002,140.1985241000002,140.1985241000002,140.1985241000002,140.1985241000002,140.1985241000002,140.93253959999856,140.1985241000002,140.1985241000002,006,P001,2025_Jan_17_1901,ConditionRich,2021.2.3,59.9440242695928,
115.75,116.0,41,0.0,Stimuli/Blank.png,0,0,0.0,0,49,49,49,,,,,,,,,,,,,115.75170749999961,0.0017074999996111728,None,,143.93517959999735,143.93517959999735,143.93517959999735,143.93517959999735,143.93517959999735,143.93517959999735,143.93517959999735,143.93517959999735,143.93517959999735,143.93517959999735,006,P001,2025_Jan_17_1901,ConditionRich,2021.2.3,59.9440242695928,
116.0,119.75,11,0.75,Stimuli/P001/sun_bbfdgdyeqdnadvvi.jpg,0,0,0.0,0,50,50,50,,,,,,,,,,,,,116.00118230000226,0.0011823000022559427,5,1.972828700003447,144.1853895999957,144.1853895999957,144.1853895999957,144.1853895999957,144.1853895999957,144.1853895999957,144.1853895999957,144.1853895999957,144.1853895999957,144.1853895999957,006,P001,2025_Jan_17_1901,ConditionRich,2021.2.3,59.9440242695928,
119.75,120.0,41,0.0,Stimuli/Blank.png,0,0,0.0,0,51,51,51,,,,,,,,,,,,,119.75511220000044,0.0051122000004397705,None,,147.93871409999701,147.93871409999701,147.93871409999701,147.93871409999701,147.93871409999701,147.93871409999701,147.93871409999701,147.93871409999701,147.93871409999701,147.93871409999701,006,P001,2025_Jan_17_1901,ConditionRich,2021.2.3,59.9440242695928,
120.0,123.75,32,0.75,Stimuli/P001/things_oyster_01b.jpg,0,0,0.0,0,52,52,52,,,,,,,,,,,,,120.00531110000156,0.005311100001563318,5,1.9690455999952974,148.18893179999577,148.18893179999577,148.18893179999577,148.18893179999577,148.18893179999577,148.18893179999577,148.18893179999577,148.18893179999577,148.18893179999577,148.18893179999577,006,P001,2025_Jan_17_1901,ConditionRich,2021.2.3,59.9440242695928,
123.75,124.0,41,0.0,Stimuli/Blank.png,0,0,0.0,0,53,53,53,,,,,,,,,,,,,123.76019629999792,0.010196299997915048,5,0.19910410000011325,151.95893039999646,151.95893039999646,151.95893039999646,151.95893039999646,151.95893039999646,151.95893039999646,151.95893039999646,151.95893039999646,151.95893039999646,151.95893039999646,006,P001,2025_Jan_17_1901,ConditionRich,2021.2.3,59.9440242695928,
124.0,127.75,3,0.75,Stimuli/P001/sun_amarqtinchblqmah.jpg,0,0,0.0,0,54,54,54,,,,,,,,,,,,,124.02507709999918,0.025077099999180064,5,1.9487229000005755,152.20916319999378,152.20916319999378,152.20916319999378,152.20916319999378,152.20916319999378,152.20916319999378,152.20916319999378,152.20916319999378,152.20916319999378,152.20916319999378,006,P001,2025_Jan_17_1901,ConditionRich,2021.2.3,59.9440242695928,
127.75,128.0,41,0.0,Stimuli/Blank.png,0,0,0.0,0,55,55,55,,,,,,,,,,,,,127.76209689999814,0.012096899998141453,5,0.21209490000182996,155.94586799999524,155.94586799999524,155.94586799999524,155.94586799999524,155.94586799999524,155.94586799999524,155.94586799999524,155.94586799999524,155.94586799999524,155.94586799999524,006,P001,2025_Jan_17_1901,ConditionRich,2021.2.3,59.9440242695928,
128.0,131.75,12,0.75,Stimuli/P001/sun_bdxvmnlyovhqognn.jpg,0,0,0.0,0,56,56,56,,,,,,,,,,,,,128.01195000000007,0.01195000000006985,5,1.9452458000014303,156.21269129999564,156.21269129999564,156.21269129999564,156.21269129999564,156.21269129999564,156.21269129999564,156.21269129999564,156.21269129999564,156.21269129999564,156.21269129999564,006,P001,2025_Jan_17_1901,ConditionRich,2021.2.3,59.9440242695928,
131.75,132.0,41,0.0,Stimuli/Blank.png,0,0,0.0,0,57,57,57,,,,,,,,,,,,,131.78218339999876,0.03218339999875752,None,,159.965995999999,159.965995999999,159.965995999999,159.965995999999,159.965995999999,159.965995999999,159.965995999999,159.965995999999,159.965995999999,159.965995999999,006,P001,2025_Jan_17_1901,ConditionRich,2021.2.3,59.9440242695928,
132.0,135.75,20,0.75,Stimuli/P001/sun_dkgctqgpvxbaoyks.jpg,1,3,3.75,0,58,58,58,,,,,,,,,,,,,132.00020220000442,0.00020220000442350283,3,3.350475200000801,160.19953389999864,160.19953389999864,160.19953389999864,160.19953389999864,160.19953389999864,160.19953389999864,163.16883329999837,163.919498999996,160.19953389999864,160.19953389999864,006,P001,2025_Jan_17_1901,ConditionRich,2021.2.3,59.9440242695928,
135.75,136.0,41,0.0,Stimuli/Blank.png,0,0,0.0,0,59,59,59,,,,,,,,,,,,,135.76944039999944,0.01944039999943925,None,,163.95285579999472,163.95285579999472,163.95285579999472,163.95285579999472,163.95285579999472,163.95285579999472,163.95285579999472,163.95285579999472,163.95285579999472,163.95285579999472,006,P001,2025_Jan_17_1901,ConditionRich,2021.2.3,59.9440242695928,
136.0,139.75,24,0.75,Stimuli/P001/things_cornucopia_01b.jpg,0,0,0.0,0,60,60,60,,,,,,,,,,,,,136.0023283000046,0.0023283000045921654,5,1.971809700000449,164.18639699999767,164.18639699999767,164.18639699999767,164.18639699999767,164.18639699999767,164.18639699999767,164.18639699999767,164.18639699999767,164.18639699999767,164.18639699999767,006,P001,2025_Jan_17_1901,ConditionRich,2021.2.3,59.9440242695928,
139.75,140.0,41,0.0,Stimuli/Blank.png,0,0,0.0,0,61,61,61,,,,,,,,,,,,,139.75583929999993,0.0058392999999341555,5,0.21825830000307178,167.93971729999612,167.93971729999612,167.93971729999612,167.93971729999612,167.93971729999612,167.93971729999612,167.93971729999612,167.93971729999612,167.93971729999612,167.93971729999612,006,P001,2025_Jan_17_1901,ConditionRich,2021.2.3,59.9440242695928,
140.0,143.75,23,0.75,Stimuli/P001/things_chick_01b.jpg,0,0,0.0,0,62,62,62,,,,,,,,,,,,,140.00633670000389,0.006336700003885198,5,1.9680079000027035,168.18993829999818,168.18993829999818,168.18993829999818,168.18993829999818,168.18993829999818,168.18993829999818,168.18993829999818,168.18993829999818,168.18993829999818,168.18993829999818,006,P001,2025_Jan_17_1901,ConditionRich,2021.2.3,59.9440242695928,
143.75,144.0,41,0.0,Stimuli/Blank.png,0,0,0.0,0,63,63,63,,,,,,,,,,,,,143.75977989999956,0.009779899999557529,5,0.21475399999326328,171.94326429999637,171.94326429999637,171.94326429999637,171.94326429999637,171.94326429999637,171.94326429999637,171.94326429999637,171.94326429999637,171.94326429999637,171.94326429999637,006,P001,2025_Jan_17_1901,ConditionRich,2021.2.3,59.9440242695928,
144.0,147.75,33,0.75,Stimuli/P001/things_pan_01b.jpg,0,0,0.0,0,64,64,64,,,,,,,,,,,,,144.01022750000266,0.010227500002656598,5,1.9479834000012488,172.2101616,172.2101616,172.2101616,172.2101616,172.2101616,172.2101616,172.2101616,172.2101616,172.2101616,172.2101616,006,P001,2025_Jan_17_1901,ConditionRich,2021.2.3,59.9440242695928,
147.75,148.0,41,0.0,Stimuli/Blank.png,0,0,0.0,0,65,65,65,,,,,,,,,,,,,147.77954590000445,0.029545900004450232,5,0.19447419999778504,175.96345189999556,175.96345189999556,175.96345189999556,175.96345189999556,175.96345189999556,175.96345189999556,175.96345189999556,175.96345189999556,175.96345189999556,175.96345189999556,006,P001,2025_Jan_17_1901,ConditionRich,2021.2.3,59.9440242695928,
148.0,151.75,27,0.75,Stimuli/P001/things_dynamite_01b.jpg,1,3,3.75,0,66,66,66,,,,,,,,,,,,,148.01261520000116,0.01261520000116434,3,3.3500390000044717,176.1970205999969,176.1970205999969,176.1970205999969,176.1970205999969,176.1970205999969,176.1970205999969,179.18299280000065,None,176.1970205999969,176.1970205999969,006,P001,2025_Jan_17_1901,ConditionRich,2021.2.3,59.9440242695928,
151.75,152.0,41,0.0,Stimuli/Blank.png,0,0,0.0,0,67,67,67,,,,,,,,,,,,,151.74992709999788,-7.2900002123788e-05,None,,179.9336531999943,179.9336531999943,179.9336531999943,179.9336531999943,179.9336531999943,179.9336531999943,179.9336531999943,179.9336531999943,179.9336531999943,179.9336531999943,006,P001,2025_Jan_17_1901,ConditionRich,2021.2.3,59.9440242695928,
152.0,155.75,29,0.75,Stimuli/P001/things_grinder_01b.jpg,0,0,0.0,0,68,68,68,,,,,,,,,,,,,152.000515300002,0.0005153000020072795,5,1.9574893999961205,180.200548599998,180.200548599998,180.200548599998,180.200548599998,180.200548599998,180.200548599998,180.200548599998,180.200548599998,180.200548599998,180.200548599998,006,P001,2025_Jan_17_1901,ConditionRich,2021.2.3,59.9440242695928,
155.75,156.0,41,0.0,Stimuli/Blank.png,0,0,0.0,0,69,69,69,,,,,,,,,,,,,155.76960569999937,0.019605699999374337,None,,183.95387809999374,183.95387809999374,183.95387809999374,183.95387809999374,183.95387809999374,183.95387809999374,183.95387809999374,183.95387809999374,183.95387809999374,183.95387809999374,006,P001,2025_Jan_17_1901,ConditionRich,2021.2.3,59.9440242695928,
156.0,159.75,26,0.75,Stimuli/P001/things_dish_01b.jpg,0,0,0.0,0,70,70,70,,,,,,,,,,,,,156.00457180000376,0.004571800003759563,5,1.9541033999994397,184.20406889999867,184.20406889999867,184.20406889999867,184.20406889999867,184.20406889999867,184.20406889999867,184.20406889999867,184.20406889999867,184.20406889999867,184.20406889999867,006,P001,2025_Jan_17_1901,ConditionRich,2021.2.3,59.9440242695928,
159.75,160.0,41,0.0,Stimuli/Blank.png,0,0,0.0,0,71,71,71,,,,,,,,,,,,,159.7756709000023,0.02567090000229655,5,0.18383640000683954,187.9741051999954,187.9741051999954,187.9741051999954,187.9741051999954,187.9741051999954,187.9741051999954,187.9741051999954,187.9741051999954,187.9741051999954,187.9741051999954,006,P001,2025_Jan_17_1901,ConditionRich,2021.2.3,59.9440242695928,
160.0,163.75,19,0.75,Stimuli/P001/sun_bzyyqqczvrnvukdn.jpg,0,0,0.0,0,72,72,72,,,,,,,,,,,,,160.02344199999789,0.023441999997885432,5,1.950278399999661,188.2076306999952,188.2076306999952,188.2076306999952,188.2076306999952,188.2076306999952,188.2076306999952,188.2076306999952,188.2076306999952,188.2076306999952,188.2076306999952,006,P001,2025_Jan_17_1901,ConditionRich,2021.2.3,59.9440242695928,
163.75,164.0,41,0.0,Stimuli/Blank.png,0,0,0.0,0,73,73,73,,,,,,,,,,,,,163.76007630000095,0.010076300000946503,5,0.21363470000505913,191.94426539999404,191.94426539999404,191.94426539999404,191.94426539999404,191.94426539999404,191.94426539999404,191.94426539999404,191.94426539999404,191.94426539999404,191.94426539999404,006,P001,2025_Jan_17_1901,ConditionRich,2021.2.3,59.9440242695928,
164.0,167.75,39,0.75,Stimuli/P001/things_woman_01b.jpg,0,0,0.0,0,74,74,74,,,,,,,,,,,,,164.0103209000008,0.010320900000806432,5,1.96349210000335,192.1944896999994,192.1944896999994,192.1944896999994,192.1944896999994,192.1944896999994,192.1944896999994,192.1944896999994,192.1944896999994,192.1944896999994,192.1944896999994,006,P001,2025_Jan_17_1901,ConditionRich,2021.2.3,59.9440242695928,
167.75,168.0,41,0.0,Stimuli/Blank.png,0,0,0.0,0,75,75,75,,,,,,,,,,,,,167.76412770000024,0.014127700000244658,5,0.21014840000134427,195.94781279999734,195.94781279999734,195.94781279999734,195.94781279999734,195.94781279999734,195.94781279999734,195.94781279999734,195.94781279999734,195.94781279999734,195.94781279999734,006,P001,2025_Jan_17_1901,ConditionRich,2021.2.3,59.9440242695928,
168.0,171.75,8,0.75,Stimuli/P001/sun_asqboyqakusycvwd.jpg,0,0,0.0,0,76,76,76,,,,,,,,,,,,,168.01380020000215,0.013800200002151541,5,1.960080899996683,196.19802449999406,196.19802449999406,196.19802449999406,196.19802449999406,196.19802449999406,196.19802449999406,196.19802449999406,196.19802449999406,196.19802449999406,196.19802449999406,006,P001,2025_Jan_17_1901,ConditionRich,2021.2.3,59.9440242695928,
171.75,172.0,41,0.0,Stimuli/Blank.png,0,0,0.0,0,77,77,77,,,,,,,,,,,,,171.75077990000136,0.0007799000013619661,None,,199.93468239999493,199.93468239999493,199.93468239999493,199.93468239999493,199.93468239999493,199.93468239999493,199.93468239999493,199.93468239999493,199.93468239999493,199.93468239999493,006,P001,2025_Jan_17_1901,ConditionRich,2021.2.3,59.9440242695928,
172.0,175.75,5,0.75,Stimuli/P001/sun_apwzcrxhvvnrexjh.jpg,0,0,0.0,0,78,78,78,,,,,,,,,,,,,172.00112269999954,0.00112269999954151,5,1.9563635000013164,200.20158419999643,200.20158419999643,200.20158419999643,200.20158419999643,200.20158419999643,200.20158419999643,200.20158419999643,200.20158419999643,200.20158419999643,200.20158419999643,006,P001,2025_Jan_17_1901,ConditionRich,2021.2.3,59.9440242695928,
175.75,176.0,41,0.0,Stimuli/Blank.png,0,0,0.0,0,79,79,79,,,,,,,,,,,,,175.77133570000296,0.021335700002964586,None,,203.95488569999725,203.95488569999725,203.95488569999725,203.95488569999725,203.95488569999725,203.95488569999725,203.95488569999725,203.95488569999725,203.95488569999725,203.95488569999725,006,P001,2025_Jan_17_1901,ConditionRich,2021.2.3,59.9440242695928,
176.0,179.75,1,0.75,Stimuli/P001/sun_agpgdwkhzgvzdaea.jpg,0,0,0.0,0,80,80,80,,,,,,,,,,,,,176.00544739999896,0.005447399998956826,5,1.9529375000056461,204.20510769999964,204.20510769999964,204.20510769999964,204.20510769999964,204.20510769999964,204.20510769999964,204.20510769999964,204.20510769999964,204.20510769999964,204.20510769999964,006,P001,2025_Jan_17_1901,ConditionRich,2021.2.3,59.9440242695928,
179.75,180.0,41,0.0,Stimuli/Blank.png,0,0,0.0,0,81,81,81,,,,,,,,,,,,,179.77515100000164,0.025151000001642387,5,0.19948640000075102,207.9584362999958,207.9584362999958,207.9584362999958,207.9584362999958,207.9584362999958,207.9584362999958,207.9584362999958,207.9584362999958,207.9584362999958,207.9584362999958,006,P001,2025_Jan_17_1901,ConditionRich,2021.2.3,59.9440242695928,
180.0,196.0,0,0.0,Stimuli/Blank.png,1,12,12.75,0,82,82,82,,,,,,,,,,,,,180.00988920000236,0.009889200002362486,5,15.949414900002012,208.2086663999944,208.2086663999944,208.2086663999944,208.2086663999944,208.2086663999944,208.2086663999944,220.18594129999838,220.93655999999464,208.2086663999944,208.2086663999944,006,P001,2025_Jan_17_1901,ConditionRich,2021.2.3,59.9440242695928,
196.0,199.75,25,0.75,Stimuli/P001/things_curry_01b.jpg,0,0,0.0,0,83,83,83,,,,,,,,,,,,,196.02484379999805,0.024843799998052418,5,1.9352091000037035,224.2228283999939,224.2228283999939,224.2228283999939,224.2228283999939,224.2228283999939,224.2228283999939,224.2228283999939,224.2228283999939,224.2228283999939,224.2228283999939,006,P001,2025_Jan_17_1901,ConditionRich,2021.2.3,59.9440242695928,
199.75,200.0,41,0.0,Stimuli/Blank.png,0,0,0.0,0,84,84,84,,,,,,,,,,,,,199.77518630000122,0.02518630000122357,5,0.19855570000072476,227.9594333999994,227.9594333999994,227.9594333999994,227.9594333999994,227.9594333999994,227.9594333999994,227.9594333999994,227.9594333999994,227.9594333999994,227.9594333999994,006,P001,2025_Jan_17_1901,ConditionRich,2021.2.3,59.9440242695928,
200.0,203.75,36,0.75,Stimuli/P001/things_stalagmite_01b.jpg,0,0,0.0,0,85,85,85,,,,,,,,,,,,,200.00985239999864,0.00985239999863552,5,1.9484334000007948,228.20965659999638,228.20965659999638,228.20965659999638,228.20965659999638,228.20965659999638,228.20965659999638,228.20965659999638,228.20965659999638,228.20965659999638,228.20965659999638,006,P001,2025_Jan_17_1901,ConditionRich,2021.2.3,59.9440242695928,
203.75,204.0,41,0.0,Stimuli/Blank.png,0,0,0.0,0,86,86,86,,,,,,,,,,,,,203.7792937999984,0.029293799998413306,5,0.19498449999809964,231.96297369999957,231.96297369999957,231.96297369999957,231.96297369999957,231.96297369999957,231.96297369999957,231.96297369999957,231.96297369999957,231.96297369999957,231.96297369999957,006,P001,2025_Jan_17_1901,ConditionRich,2021.2.3,59.9440242695928,
204.0,207.75,17,0.75,Stimuli/P001/sun_bshgmgbmpvjkxfis.jpg,1,2,2.75,0,87,87,87,,,,,,,,,,,,,204.01511140000366,0.015111400003661402,3,2.4268020000017714,232.2132064999969,232.2132064999969,232.2132064999969,232.2132064999969,232.2132064999969,232.2132064999969,234.19827459999942,234.94894619999832,232.2132064999969,232.2132064999969,006,P001,2025_Jan_17_1901,ConditionRich,2021.2.3,59.9440242695928,
207.75,208.0,41,0.0,Stimuli/Blank.png,0,0,0.0,0,88,88,88,,,,,,,,,,,,,207.76623670000117,0.01623670000117272,None,,235.9499155999947,235.9499155999947,235.9499155999947,235.9499155999947,235.9499155999947,235.9499155999947,235.9499155999947,235.9499155999947,235.9499155999947,235.9499155999947,006,P001,2025_Jan_17_1901,ConditionRich,2021.2.3,59.9440242695928,
208.0,211.75,30,0.75,Stimuli/P001/things_iguana_01b.jpg,1,1,1.75,0,89,89,89,,,,,,,,,,,,,208.00075859999924,0.0007585999992443249,5,1.9579519000035361,236.20005789999414,236.20005789999414,236.20005789999414,236.20005789999414,236.20005789999414,236.20005789999414,237.18425239999488,237.93491159999394,236.20005789999414,236.20005789999414,006,P001,2025_Jan_17_1901,ConditionRich,2021.2.3,59.9440242695928,
211.75,212.0,41,0.0,Stimuli/Blank.png,0,0,0.0,0,90,90,90,,,,,,,,,,,,,211.7692526000028,0.019252600002801046,None,,239.9533745000008,239.9533745000008,239.9533745000008,239.9533745000008,239.9533745000008,239.9533745000008,239.9533745000008,239.9533745000008,239.9533745000008,239.9533745000008,006,P001,2025_Jan_17_1901,ConditionRich,2021.2.3,59.9440242695928,
212.0,215.75,10,0.75,Stimuli/P001/sun_aykefnhciwsffcrj.jpg,0,0,0.0,0,91,91,91,,,,,,,,,,,,,212.00519689999783,0.005196899997827131,5,1.9546389000024647,240.2036078999954,240.2036078999954,240.2036078999954,240.2036078999954,240.2036078999954,240.2036078999954,240.2036078999954,240.2036078999954,240.2036078999954,240.2036078999954,006,P001,2025_Jan_17_1901,ConditionRich,2021.2.3,59.9440242695928,
215.75,216.0,41,0.0,Stimuli/Blank.png,0,0,0.0,0,92,92,92,,,,,,,,,,,,,215.77526539999963,0.025265399999625515,5,0.18437750000157394,243.97360059999482,243.97360059999482,243.97360059999482,243.97360059999482,243.97360059999482,243.97360059999482,243.97360059999482,243.97360059999482,243.97360059999482,243.97360059999482,006,P001,2025_Jan_17_1901,ConditionRich,2021.2.3,59.9440242695928,
216.0,219.75,33,0.75,Stimuli/P001/things_pan_01b.jpg,0,0,0.0,0,93,93,93,,,,,,,,,,,,,216.02342650000355,0.023426500003552064,5,1.950845899998967,244.20713439999963,244.20713439999963,244.20713439999963,244.20713439999963,244.20713439999963,244.20713439999963,244.20713439999963,244.20713439999963,244.20713439999963,244.20713439999963,006,P001,2025_Jan_17_1901,ConditionRich,2021.2.3,59.9440242695928,
219.75,220.0,41,0.0,Stimuli/Blank.png,0,0,0.0,0,94,94,94,,,,,,,,,,,,,219.76022760000342,0.010227600003418047,5,0.21414899999945192,247.94376669999474,247.94376669999474,247.94376669999474,247.94376669999474,247.94376669999474,247.94376669999474,247.94376669999474,247.94376669999474,247.94376669999474,247.94376669999474,006,P001,2025_Jan_17_1901,ConditionRich,2021.2.3,59.9440242695928,
220.0,223.75,38,0.75,Stimuli/P001/things_windowsill_01b.jpg,0,0,0.0,0,95,95,95,,,,,,,,,,,,,220.01033380000445,0.010333800004445948,5,1.9640973000059603,248.19398059999367,248.19398059999367,248.19398059999367,248.19398059999367,248.19398059999367,248.19398059999367,248.19398059999367,248.19398059999367,248.19398059999367,248.19398059999367,006,P001,2025_Jan_17_1901,ConditionRich,2021.2.3,59.9440242695928,
223.75,224.0,41,0.0,Stimuli/Blank.png,0,0,0.0,0,96,96,96,,,,,,,,,,,,,223.76602500000445,0.016025000004447065,5,0.194147599999269,251.96399519999977,251.96399519999977,251.96399519999977,251.96399519999977,251.96399519999977,251.96399519999977,251.96399519999977,251.96399519999977,251.96399519999977,251.96399519999977,006,P001,2025_Jan_17_1901,ConditionRich,2021.2.3,59.9440242695928,
224.0,227.75,31,0.75,Stimuli/P001/things_man_01b.jpg,1,0,0.75,0,97,97,97,,,,,,,,,,,,,224.01573360000475,0.01573360000475077,5,1.9437949000057415,252.21420930000022,252.21420930000022,252.21420930000022,252.21420930000022,252.21420930000022,252.21420930000022,252.21420930000022,252.94818609999493,252.21420930000022,252.21420930000022,006,P001,2025_Jan_17_1901,ConditionRich,2021.2.3,59.9440242695928,
227.75,228.0,41,0.0,Stimuli/Blank.png,0,0,0.0,0,98,98,98,,,,,,,,,,,,,227.7678975000017,0.017897500001708977,None,,255.95085280000058,255.95085280000058,255.95085280000058,255.95085280000058,255.95085280000058,255.95085280000058,255.95085280000058,255.95085280000058,255.95085280000058,255.95085280000058,006,P001,2025_Jan_17_1901,ConditionRich,2021.2.3,59.9440242695928,
228.0,231.75,29,0.75,Stimuli/P001/things_grinder_01b.jpg,0,0,0.0,0,99,99,99,,,,,,,,,,,,,228.0007071,0.0007070999999996275,5,1.9578546000047936,256.2010678999941,256.2010678999941,256.2010678999941,256.2010678999941,256.2010678999941,256.2010678999941,256.2010678999941,256.2010678999941,256.2010678999941,256.2010678999941,006,P001,2025_Jan_17_1901,ConditionRich,2021.2.3,59.9440242695928,
231.75,232.0,41,0.0,Stimuli/Blank.png,0,0,0.0,0,100,100,100,,,,,,,,,,,,,231.77240380000148,0.022403800001484342,5,0.188151199996355,259.9710733999964,259.9710733999964,259.9710733999964,259.9710733999964,259.9710733999964,259.9710733999964,259.9710733999964,259.9710733999964,259.9710733999964,259.9710733999964,006,P001,2025_Jan_17_1901,ConditionRich,2021.2.3,59.9440242695928,
232.0,235.75,27,0.75,Stimuli/P001/things_dynamite_01b.jpg,0,0,0.0,0,101,101,101,,,,,,,,,,,,,232.02174999999988,0.021749999999883585,5,1.937860099998943,260.2212916999997,260.2212916999997,260.2212916999997,260.2212916999997,260.2212916999997,260.2212916999997,260.2212916999997,260.2212916999997,260.2212916999997,260.2212916999997,006,P001,2025_Jan_17_1901,ConditionRich,2021.2.3,59.9440242695928,
235.75,236.0,41,0.0,Stimuli/Blank.png,0,0,0.0,0,102,102,102,,,,,,,,,,,,,235.774777300001,0.024777300001005642,5,0.20115020000230288,263.9579276999939,263.9579276999939,263.9579276999939,263.9579276999939,263.9579276999939,263.9579276999939,263.9579276999939,263.9579276999939,263.9579276999939,263.9579276999939,006,P001,2025_Jan_17_1901,ConditionRich,2021.2.3,59.9440242695928,
236.0,239.75,34,0.75,Stimuli/P001/things_parrot_01b.jpg,0,0,0.0,0,103,103,103,,,,,,,,,,,,,236.01027579999936,0.010275799999362789,5,1.9508187000028556,264.2081431999977,264.2081431999977,264.2081431999977,264.2081431999977,264.2081431999977,264.2081431999977,264.2081431999977,264.2081431999977,264.2081431999977,264.2081431999977,006,P001,2025_Jan_17_1901,ConditionRich,2021.2.3,59.9440242695928,
239.75,240.0,41,0.0,Stimuli/Blank.png,0,0,0.0,0,104,104,104,,,,,,,,,,,,,239.77749380000023,0.027493800000229385,5,0.19763360000069952,267.9614577999964,267.9614577999964,267.9614577999964,267.9614577999964,267.9614577999964,267.9614577999964,267.9614577999964,267.9614577999964,267.9614577999964,267.9614577999964,006,P001,2025_Jan_17_1901,ConditionRich,2021.2.3,59.9440242695928,
240.0,243.75,11,0.75,Stimuli/P001/sun_bbfdgdyeqdnadvvi.jpg,0,0,0.0,0,105,105,105,,,,,,,,,,,,,240.01070990000153,0.010709900001529604,5,1.9640110999971512,268.1949913999997,268.1949913999997,268.1949913999997,268.1949913999997,268.1949913999997,268.1949913999997,268.1949913999997,268.1949913999997,268.1949913999997,268.1949913999997,006,P001,2025_Jan_17_1901,ConditionRich,2021.2.3,59.9440242695928,
243.75,244.0,41,0.0,Stimuli/Blank.png,0,0,0.0,0,106,106,106,,,,,,,,,,,,,243.76590399999986,0.015903999999864027,5,0.193929199995182,271.96501239999634,271.96501239999634,271.96501239999634,271.96501239999634,271.96501239999634,271.96501239999634,271.96501239999634,271.96501239999634,271.96501239999634,271.96501239999634,006,P001,2025_Jan_17_1901,ConditionRich,2021.2.3,59.9440242695928,
244.0,247.75,5,0.75,Stimuli/P001/sun_apwzcrxhvvnrexjh.jpg,0,0,0.0,0,107,107,107,,,,,,,,,,,,,244.01501350000035,0.015013500000350177,5,1.9605674000049476,272.19853619999776,272.19853619999776,272.19853619999776,272.19853619999776,272.19853619999776,272.19853619999776,272.19853619999776,272.19853619999776,272.19853619999776,272.19853619999776,006,P001,2025_Jan_17_1901,ConditionRich,2021.2.3,59.9440242695928,
247.75,248.0,41,0.0,Stimuli/Blank.png,0,0,0.0,0,108,108,108,,,,,,,,,,,,,247.75164880000375,0.001648800003749784,None,,275.93517409999913,275.93517409999913,275.93517409999913,275.93517409999913,275.93517409999913,275.93517409999913,275.93517409999913,275.93517409999913,275.93517409999913,275.93517409999913,006,P001,2025_Jan_17_1901,ConditionRich,2021.2.3,59.9440242695928,
248.0,251.75,21,0.75,Stimuli/P001/things_baby_01b.jpg,0,0,0.0,0,109,109,109,,,,,,,,,,,,,248.0017050000024,0.0017050000024028122,5,1.9571773999996367,276.202083199998,276.202083199998,276.202083199998,276.202083199998,276.202083199998,276.202083199998,276.202083199998,276.202083199998,276.202083199998,276.202083199998,006,P001,2025_Jan_17_1901,ConditionRich,2021.2.3,59.9440242695928,
251.75,252.0,41,0.0,Stimuli/Blank.png,0,0,0.0,0,110,110,110,,,,,,,,,,,,,251.7712954000017,0.021295400001690723,None,,279.95539359999384,279.95539359999384,279.95539359999384,279.95539359999384,279.95539359999384,279.95539359999384,279.95539359999384,279.95539359999384,279.95539359999384,279.95539359999384,006,P001,2025_Jan_17_1901,ConditionRich,2021.2.3,59.9440242695928,
252.0,255.75,6,0.75,Stimuli/P001/sun_aqbaaqeojrexbmcr.jpg,0,0,0.0,0,111,111,111,,,,,,,,,,,,,252.00535530000343,0.005355300003429875,5,1.9534066999985953,280.2056172999946,280.2056172999946,280.2056172999946,280.2056172999946,280.2056172999946,280.2056172999946,280.2056172999946,280.2056172999946,280.2056172999946,280.2056172999946,006,P001,2025_Jan_17_1901,ConditionRich,2021.2.3,59.9440242695928,
255.75,256.0,41,0.0,Stimuli/Blank.png,0,0,0.0,0,112,112,112,,,,,,,,,,,,,255.77555669999856,0.02555669999856036,5,0.20013740000285907,283.95893769999384,283.95893769999384,283.95893769999384,283.95893769999384,283.95893769999384,283.95893769999384,283.95893769999384,283.95893769999384,283.95893769999384,283.95893769999384,006,P001,2025_Jan_17_1901,ConditionRich,2021.2.3,59.9440242695928,
256.0,259.75,32,0.75,Stimuli/P001/things_oyster_01b.jpg,1,2,2.75,0,113,113,113,,,,,,,,,,,,,256.008891999998,0.008891999998013489,3,2.3899044999998296,284.2091498000009,284.2091498000009,284.2091498000009,284.2091498000009,284.2091498000009,284.2091498000009,286.1775959000006,286.9282221999965,284.2091498000009,284.2091498000009,006,P001,2025_Jan_17_1901,ConditionRich,2021.2.3,59.9440242695928,
259.75,260.0,41,0.0,Stimuli/Blank.png,0,0,0.0,0,114,114,114,,,,,,,,,,,,,259.7811103999993,0.031110399999306537,5,0.17976619999535615,287.97915929999726,287.97915929999726,287.97915929999726,287.97915929999726,287.97915929999726,287.97915929999726,287.97915929999726,287.97915929999726,287.97915929999726,287.97915929999726,006,P001,2025_Jan_17_1901,ConditionRich,2021.2.3,59.9440242695928,
260.0,263.75,26,0.75,Stimuli/P001/things_dish_01b.jpg,1,0,0.75,0,115,115,115,,,,,,,,,,,,,260.0304051999992,0.030405199999222532,5,1.9295538000005763,288.2293753999984,288.2293753999984,288.2293753999984,288.2293753999984,288.2293753999984,288.2293753999984,288.2293753999984,288.96337149999454,288.2293753999984,288.2293753999984,006,P001,2025_Jan_17_1901,ConditionRich,2021.2.3,59.9440242695928,
263.75,264.0,41,0.0,Stimuli/Blank.png,0,0,0.0,0,116,116,116,,,,,,,,,,,,,263.7675864000048,0.01758640000480227,5,0.1929448999944725,291.9660137999963,291.9660137999963,291.9660137999963,291.9660137999963,291.9660137999963,291.9660137999963,291.9660137999963,291.9660137999963,291.9660137999963,291.9660137999963,006,P001,2025_Jan_17_1901,ConditionRich,2021.2.3,59.9440242695928,
264.0,267.75,16,0.75,Stimuli/P001/sun_biqyomkjbujnppuf.jpg,0,0,0.0,0,117,117,117,,,,,,,,,,,,,264.0153003000014,0.015300300001399592,5,1.9594376999957603,292.1995558999988,292.1995558999988,292.1995558999988,292.1995558999988,292.1995558999988,292.1995558999988,292.1995558999988,292.1995558999988,292.1995558999988,292.1995558999988,006,P001,2025_Jan_17_1901,ConditionRich,2021.2.3,59.9440242695928,
267.75,268.0,41,0.0,Stimuli/Blank.png,0,0,0.0,0,118,118,118,,,,,,,,,,,,,267.7526887999993,0.002688799999305047,None,,295.93629359999613,295.93629359999613,295.93629359999613,295.93629359999613,295.93629359999613,295.93629359999613,295.93629359999613,295.93629359999613,295.93629359999613,295.93629359999613,006,P001,2025_Jan_17_1901,ConditionRich,2021.2.3,59.9440242695928,
268.0,271.75,8,0.75,Stimuli/P001/sun_asqboyqakusycvwd.jpg,0,0,0.0,0,119,119,119,,,,,,,,,,,,,268.0050371000034,0.00503710000339197,5,1.9561573000028147,296.203090899995,296.203090899995,296.203090899995,296.203090899995,296.203090899995,296.203090899995,296.203090899995,296.203090899995,296.203090899995,296.203090899995,006,P001,2025_Jan_17_1901,ConditionRich,2021.2.3,59.9440242695928,
271.75,272.0,41,0.0,Stimuli/Blank.png,0,0,0.0,0,120,120,120,,,,,,,,,,,,,271.77201430000423,0.02201430000422988,None,,299.95640179999464,299.95640179999464,299.95640179999464,299.95640179999464,299.95640179999464,299.95640179999464,299.95640179999464,299.95640179999464,299.95640179999464,299.95640179999464,006,P001,2025_Jan_17_1901,ConditionRich,2021.2.3,59.9440242695928,
272.0,275.75,14,0.75,Stimuli/P001/sun_bfgxassmmvhtarcc.jpg,0,0,0.0,0,121,121,121,,,,,,,,,,,,,272.005713700004,0.005713700003980193,5,1.9689969000028213,300.18994309999835,300.18994309999835,300.18994309999835,300.18994309999835,300.18994309999835,300.18994309999835,300.18994309999835,300.18994309999835,300.18994309999835,300.18994309999835,006,P001,2025_Jan_17_1901,ConditionRich,2021.2.3,59.9440242695928,
275.75,276.0,41,0.0,Stimuli/Blank.png,0,0,0.0,0,122,122,122,,,,,,,,,,,,,275.7592166000031,0.009216600003128406,5,0.21584450000227662,303.9432591999939,303.9432591999939,303.9432591999939,303.9432591999939,303.9432591999939,303.9432591999939,303.9432591999939,303.9432591999939,303.9432591999939,303.9432591999939,006,P001,2025_Jan_17_1901,ConditionRich,2021.2.3,59.9440242695928,
276.0,292.0,0,0.0,Stimuli/Blank.png,1,2,2.75,0,123,123,123,,,,,,,,,,,,,276.00980100000015,0.009801000000152271,5,15.96557610000309,304.1934964999964,304.1934964999964,304.1934964999964,304.1934964999964,304.1934964999964,304.1934964999964,306.1785827999993,306.92923940000037,304.1934964999964,304.1934964999964,006,P001,2025_Jan_17_1901,ConditionRich,2021.2.3,59.9440242695928,
292.0,295.75,4,0.75,Stimuli/P001/sun_aonjwqswdblhlpkm.jpg,0,0,0.0,0,124,124,124,,,,,,,,,,,,,292.0074347000045,0.00743470000452362,5,1.968113100003393,320.1909611999945,320.1909611999945,320.1909611999945,320.1909611999945,320.1909611999945,320.1909611999945,320.1909611999945,320.1909611999945,320.1909611999945,320.1909611999945,006,P001,2025_Jan_17_1901,ConditionRich,2021.2.3,59.9440242695928,
295.75,296.0,41,0.0,Stimuli/Blank.png,0,0,0.0,0,125,125,125,,,,,,,,,,,,,295.76062960000127,0.010629600001266226,5,0.21480879999580793,323.9442829999971,323.9442829999971,323.9442829999971,323.9442829999971,323.9442829999971,323.9442829999971,323.9442829999971,323.9442829999971,323.9442829999971,323.9442829999971,006,P001,2025_Jan_17_1901,ConditionRich,2021.2.3,59.9440242695928,
296.0,299.75,15,0.75,Stimuli/P001/sun_bfzoxbkvsfqxsyle.jpg,0,0,0.0,0,126,126,126,,,,,,,,,,,,,296.010729900001,0.010729900001024362,5,1.964511099999072,324.19450700000016,324.19450700000016,324.19450700000016,324.19450700000016,324.19450700000016,324.19450700000016,324.19450700000016,324.19450700000016,324.19450700000016,324.19450700000016,006,P001,2025_Jan_17_1901,ConditionRich,2021.2.3,59.9440242695928,
299.75,300.0,41,0.0,Stimuli/Blank.png,0,0,0.0,0,127,127,127,,,,,,,,,,,,,299.76433309999993,0.01433309999993071,5,0.21140639999794075,327.9478197999997,327.9478197999997,327.9478197999997,327.9478197999997,327.9478197999997,327.9478197999997,327.9478197999997,327.9478197999997,327.9478197999997,327.9478197999997,006,P001,2025_Jan_17_1901,ConditionRich,2021.2.3,59.9440242695928,
300.0,303.75,39,0.75,Stimuli/P001/things_woman_01b.jpg,0,0,0.0,0,128,128,128,,,,,,,,,,,,,300.0152528000035,0.015252800003509037,5,1.9442393999997876,328.2147313999958,328.2147313999958,328.2147313999958,328.2147313999958,328.2147313999958,328.2147313999958,328.2147313999958,328.2147313999958,328.2147313999958,328.2147313999958,006,P001,2025_Jan_17_1901,ConditionRich,2021.2.3,59.9440242695928,
303.75,304.0,41,0.0,Stimuli/Blank.png,0,0,0.0,0,129,129,129,,,,,,,,,,,,,303.76719330000196,0.017193300001963507,None,,331.9521542999937,331.9521542999937,331.9521542999937,331.9521542999937,331.9521542999937,331.9521542999937,331.9521542999937,331.9521542999937,331.9521542999937,331.9521542999937,006,P001,2025_Jan_17_1901,ConditionRich,2021.2.3,59.9440242695928,
304.0,307.75,35,0.75,Stimuli/P001/things_pepperoni_01b.jpg,1,0,0.75,0,130,130,130,,,,,,,,,,,,,304.00105579999945,0.0010557999994489364,5,1.9575564000042505,332.2016810999994,332.2016810999994,332.2016810999994,332.2016810999994,332.2016810999994,332.2016810999994,332.2016810999994,332.9188694999975,332.2016810999994,332.2016810999994,006,P001,2025_Jan_17_1901,ConditionRich,2021.2.3,59.9440242695928,
307.75,308.0,41,0.0,Stimuli/Blank.png,0,0,0.0,0,131,131,131,,,,,,,,,,,,,307.770666000004,0.020666000003984664,None,,335.9548966000002,335.9548966000002,335.9548966000002,335.9548966000002,335.9548966000002,335.9548966000002,335.9548966000002,335.9548966000002,335.9548966000002,335.9548966000002,006,P001,2025_Jan_17_1901,ConditionRich,2021.2.3,59.9440242695928,
308.0,311.75,13,0.75,Stimuli/P001/sun_bfdmlbkyioxnkodb.jpg,0,0,0.0,0,132,132,132,,,,,,,,,,,,,308.00418419999914,0.0041841999991447665,5,1.9705995000040275,336.1884341999976,336.1884341999976,336.1884341999976,336.1884341999976,336.1884341999976,336.1884341999976,336.1884341999976,336.1884341999976,336.1884341999976,336.1884341999976,006,P001,2025_Jan_17_1901,ConditionRich,2021.2.3,59.9440242695928,
311.75,312.0,41,0.0,Stimuli/Blank.png,0,0,0.0,0,133,133,133,,,,,,,,,,,,,311.7600797999985,0.0100797999984934,5,0.20050910000281874,339.9584455000004,339.9584455000004,339.9584455000004,339.9584455000004,339.9584455000004,339.9584455000004,339.9584455000004,339.9584455000004,339.9584455000004,339.9584455000004,006,P001,2025_Jan_17_1901,ConditionRich,2021.2.3,59.9440242695928,
312.0,315.75,22,0.75,Stimuli/P001/things_boy_01b.jpg,0,0,0.0,0,134,134,134,,,,,,,,,,,,,312.0256752999994,0.02567529999942053,5,1.9337926000007428,340.2253281999947,340.2253281999947,340.2253281999947,340.2253281999947,340.2253281999947,340.2253281999947,340.2253281999947,340.2253281999947,340.2253281999947,340.2253281999947,006,P001,2025_Jan_17_1901,ConditionRich,2021.2.3,59.9440242695928,
315.75,316.0,41,0.0,Stimuli/Blank.png,0,0,0.0,0,135,135,135,,,,,,,,,,,,,315.7792222999997,0.02922229999967385,5,0.1971449999982724,343.9619789999997,343.9619789999997,343.9619789999997,343.9619789999997,343.9619789999997,343.9619789999997,343.9619789999997,343.9619789999997,343.9619789999997,343.9619789999997,006,P001,2025_Jan_17_1901,ConditionRich,2021.2.3,59.9440242695928,
316.0,319.75,24,0.75,Stimuli/P001/things_cornucopia_01b.jpg,0,0,0.0,0,136,136,136,,,,,,,,,,,,,316.01206240000465,0.012062400004651863,5,1.9467502000043169,344.2121970999942,344.2121970999942,344.2121970999942,344.2121970999942,344.2121970999942,344.2121970999942,344.2121970999942,344.2121970999942,344.2121970999942,344.2121970999942,006,P001,2025_Jan_17_1901,ConditionRich,2021.2.3,59.9440242695928,
319.75,320.0,41,0.0,Stimuli/Blank.png,0,0,0.0,0,137,137,137,,,,,,,,,,,,,319.7815028000041,0.031502800004091114,5,0.19364670000504702,347.96551279999403,347.96551279999403,347.96551279999403,347.96551279999403,347.96551279999403,347.96551279999403,347.96551279999403,347.96551279999403,347.96551279999403,347.96551279999403,006,P001,2025_Jan_17_1901,ConditionRich,2021.2.3,59.9440242695928,
320.0,323.75,19,0.75,Stimuli/P001/sun_bzyyqqczvrnvukdn.jpg,0,0,0.0,0,138,138,138,,,,,,,,,,,,,320.0158647999997,0.01586479999969015,5,1.9432895999998436,348.2157417999988,348.2157417999988,348.2157417999988,348.2157417999988,348.2157417999988,348.2157417999988,348.2157417999988,348.2157417999988,348.2157417999988,348.2157417999988,006,P001,2025_Jan_17_1901,ConditionRich,2021.2.3,59.9440242695928,
323.75,324.0,41,0.0,Stimuli/Blank.png,0,0,0.0,0,139,139,139,,,,,,,,,,,,,323.77070919999824,0.020709199998236727,5,0.19000229999801377,351.9690382999979,351.9690382999979,351.9690382999979,351.9690382999979,351.9690382999979,351.9690382999979,351.9690382999979,351.9690382999979,351.9690382999979,351.9690382999979,006,P001,2025_Jan_17_1901,ConditionRich,2021.2.3,59.9440242695928,
324.0,327.75,37,0.75,Stimuli/P001/things_starfish_01b.jpg,0,0,0.0,0,140,140,140,,,,,,,,,,,,,324.02176699999836,0.021766999998362735,5,1.9397041000047466,352.21929219999583,352.21929219999583,352.21929219999583,352.21929219999583,352.21929219999583,352.21929219999583,352.21929219999583,352.21929219999583,352.21929219999583,352.21929219999583,006,P001,2025_Jan_17_1901,ConditionRich,2021.2.3,59.9440242695928,
327.75,328.0,41,0.0,Stimuli/Blank.png,0,0,0.0,0,141,141,141,,,,,,,,,,,,,327.7722240000003,0.022224000000278465,None,,355.9559885999988,355.9559885999988,355.9559885999988,355.9559885999988,355.9559885999988,355.9559885999988,355.9559885999988,355.9559885999988,355.9559885999988,355.9559885999988,006,P001,2025_Jan_17_1901,ConditionRich,2021.2.3,59.9440242695928,
328.0,331.75,20,0.75,Stimuli/P001/sun_dkgctqgpvxbaoyks.jpg,0,0,0.0,0,142,142,142,,,,,,,,,,,,,328.0052590999985,0.005259099998511374,5,1.9696756999983336,356.1894431999972,356.1894431999972,356.1894431999972,356.1894431999972,356.1894431999972,356.1894431999972,356.1894431999972,356.1894431999972,356.1894431999972,356.1894431999972,006,P001,2025_Jan_17_1901,ConditionRich,2021.2.3,59.9440242695928,
331.75,332.0,41,0.0,Stimuli/Blank.png,0,0,0.0,0,143,143,143,,,,,,,,,,,,,331.75835129999905,0.008351299999048933,5,0.21624750000046333,359.9427605999954,359.9427605999954,359.9427605999954,359.9427605999954,359.9427605999954,359.9427605999954,359.9427605999954,359.9427605999954,359.9427605999954,359.9427605999954,006,P001,2025_Jan_17_1901,ConditionRich,2021.2.3,59.9440242695928,
332.0,335.75,3,0.75,Stimuli/P001/sun_amarqtinchblqmah.jpg,0,0,0.0,0,144,144,144,,,,,,,,,,,,,332.0093741000019,0.009374100001878105,5,1.9660921000031522,360.19299289999617,360.19299289999617,360.19299289999617,360.19299289999617,360.19299289999617,360.19299289999617,360.19299289999617,360.19299289999617,360.19299289999617,360.19299289999617,006,P001,2025_Jan_17_1901,ConditionRich,2021.2.3,59.9440242695928,
335.75,336.0,41,0.0,Stimuli/Blank.png,0,0,0.0,0,145,145,145,,,,,,,,,,,,,335.76272400000016,0.01272400000016205,5,0.2126637999972445,363.9463073000006,363.9463073000006,363.9463073000006,363.9463073000006,363.9463073000006,363.9463073000006,363.9463073000006,363.9463073000006,363.9463073000006,363.9463073000006,006,P001,2025_Jan_17_1901,ConditionRich,2021.2.3,59.9440242695928,
336.0,339.75,40,0.75,Stimuli/P001/things_worm_01b.jpg,0,0,0.0,0,146,146,146,,,,,,,,,,,,,336.0147705999989,0.014770599998882972,5,1.945840500004124,364.21320209999976,364.21320209999976,364.21320209999976,364.21320209999976,364.21320209999976,364.21320209999976,364.21320209999976,364.21320209999976,364.21320209999976,364.21320209999976,006,P001,2025_Jan_17_1901,ConditionRich,2021.2.3,59.9440242695928,
339.75,340.0,41,0.0,Stimuli/Blank.png,0,0,0.0,0,147,147,147,,,,,,,,,,,,,339.76569530000415,0.015695300004153978,None,,367.9498339999991,367.9498339999991,367.9498339999991,367.9498339999991,367.9498339999991,367.9498339999991,367.9498339999991,367.9498339999991,367.9498339999991,367.9498339999991,006,P001,2025_Jan_17_1901,ConditionRich,2021.2.3,59.9440242695928,
340.0,343.75,18,0.75,Stimuli/P001/sun_bzjegfvyrvqtunza.jpg,0,0,0.0,0,148,148,148,,,,,,,,,,,,,339.9997122999994,-0.0002877000006265007,5,1.9756879999986268,368.18337739999697,368.18337739999697,368.18337739999697,368.18337739999697,368.18337739999697,368.18337739999697,368.18337739999697,368.18337739999697,368.18337739999697,368.18337739999697,006,P001,2025_Jan_17_1901,ConditionRich,2021.2.3,59.9440242695928,
343.75,344.0,41,0.0,Stimuli/Blank.png,0,0,0.0,0,149,149,149,,,,,,,,,,,,,343.7552591999993,0.005259199999272823,5,0.20589810000092257,371.953376999998,371.953376999998,371.953376999998,371.953376999998,371.953376999998,371.953376999998,371.953376999998,371.953376999998,371.953376999998,371.953376999998,006,P001,2025_Jan_17_1901,ConditionRich,2021.2.3,59.9440242695928,
344.0,347.75,9,0.75,Stimuli/P001/sun_awtltwwpwbepuuqv.jpg,1,2,2.75,0,150,150,150,,,,,,,,,,,,,344.02038999999786,0.020389999997860286,3,2.3527204999991227,372.2202716999964,372.2202716999964,372.2202716999964,372.2202716999964,372.2202716999964,372.2202716999964,374.1886755999949,374.93942309999693,372.2202716999964,372.2202716999964,006,P001,2025_Jan_17_1901,ConditionRich,2021.2.3,59.9440242695928,
347.75,348.0,41,0.0,Stimuli/Blank.png,0,0,0.0,0,151,151,151,,,,,,,,,,,,,347.77480540000397,0.024805400003970135,5,0.1853897999972105,375.9736019999982,375.9736019999982,375.9736019999982,375.9736019999982,375.9736019999982,375.9736019999982,375.9736019999982,375.9736019999982,375.9736019999982,375.9736019999982,006,P001,2025_Jan_17_1901,ConditionRich,2021.2.3,59.9440242695928,
348.0,351.75,28,0.75,Stimuli/P001/things_girl_01b.jpg,1,1,1.75,0,152,152,152,,,,,,,,,,,,,348.02538849999837,0.025388499998371117,5,1.9353276999972877,376.2238159999979,376.2238159999979,376.2238159999979,376.2238159999979,376.2238159999979,376.2238159999979,377.208009199996,377.95867789999465,376.2238159999979,376.2238159999979,006,P001,2025_Jan_17_1901,ConditionRich,2021.2.3,59.9440242695928,
351.75,352.0,41,0.0,Stimuli/Blank.png,0,0,0.0,0,153,153,153,,,,,,,,,,,,,351.7767969999986,0.026796999998623505,5,0.19856789999903413,379.9605334999942,379.9605334999942,379.9605334999942,379.9605334999942,379.9605334999942,379.9605334999942,379.9605334999942,379.9605334999942,379.9605334999942,379.9605334999942,006,P001,2025_Jan_17_1901,ConditionRich,2021.2.3,59.9440242695928,
352.0,355.75,1,0.75,Stimuli/P001/sun_agpgdwkhzgvzdaea.jpg,0,0,0.0,0,154,154,154,,,,,,,,,,,,,352.01079200000095,0.010792000000947155,5,1.9482495999982348,380.21067299999413,380.21067299999413,380.21067299999413,380.21067299999413,380.21067299999413,380.21067299999413,380.21067299999413,380.21067299999413,380.21067299999413,380.21067299999413,006,P001,2025_Jan_17_1901,ConditionRich,2021.2.3,59.9440242695928,
355.75,356.0,41,0.0,Stimuli/Blank.png,0,0,0.0,0,155,155,155,,,,,,,,,,,,,355.7798217000018,0.029821700001775753,5,0.19499329999962356,383.96398779999436,383.96398779999436,383.96398779999436,383.96398779999436,383.96398779999436,383.96398779999436,383.96398779999436,383.96398779999436,383.96398779999436,383.96398779999436,006,P001,2025_Jan_17_1901,ConditionRich,2021.2.3,59.9440242695928,
356.0,359.75,12,0.75,Stimuli/P001/sun_bdxvmnlyovhqognn.jpg,1,3,3.75,0,156,156,156,,,,,,,,,,,,,356.0134745000032,0.013474500003212597,3,3.3407826000038767,384.1975377999988,384.1975377999988,384.1975377999988,384.1975377999988,384.1975377999988,384.1975377999988,387.1835566000009,None,384.1975377999988,384.1975377999988,006,P001,2025_Jan_17_1901,ConditionRich,2021.2.3,59.9440242695928,
359.75,360.0,41,0.0,Stimuli/Blank.png,0,0,0.0,0,157,157,157,,,,,,,,,,,,,359.75069530000474,0.0006953000047360547,None,,387.93416339999385,387.93416339999385,387.93416339999385,387.93416339999385,387.93416339999385,387.93416339999385,387.93416339999385,387.93416339999385,387.93416339999385,387.93416339999385,006,P001,2025_Jan_17_1901,ConditionRich,2021.2.3,59.9440242695928,
360.0,363.75,23,0.75,Stimuli/P001/things_chick_01b.jpg,0,0,0.0,0,158,158,158,,,,,,,,,,,,,360.00080710000475,0.0008071000047493726,5,1.9582192999951076,388.20107549999375,388.20107549999375,388.20107549999375,388.20107549999375,388.20107549999375,388.20107549999375,388.20107549999375,388.20107549999375,388.20107549999375,388.20107549999375,006,P001,2025_Jan_17_1901,ConditionRich,2021.2.3,59.9440242695928,
363.75,364.0,41,0.0,Stimuli/Blank.png,0,0,0.0,0,159,159,159,,,,,,,,,,,,,363.77113180000015,0.02113180000014836,None,,391.9544523999939,391.9544523999939,391.9544523999939,391.9544523999939,391.9544523999939,391.9544523999939,391.9544523999939,391.9544523999939,391.9544523999939,391.9544523999939,006,P001,2025_Jan_17_1901,ConditionRich,2021.2.3,59.9440242695928,
364.0,367.75,7,0.75,Stimuli/P001/sun_arlesyjqxmqmcccl.jpg,0,0,0.0,0,160,160,160,,,,,,,,,,,,,364.0042659000028,0.004265900002792478,5,1.971152499994787,392.1879237999965,392.1879237999965,392.1879237999965,392.1879237999965,392.1879237999965,392.1879237999965,392.1879237999965,392.1879237999965,392.1879237999965,392.1879237999965,006,P001,2025_Jan_17_1901,ConditionRich,2021.2.3,59.9440242695928,
367.75,368.0,41,0.0,Stimuli/Blank.png,0,0,0.0,0,161,161,161,,,,,,,,,,,,,367.75931819999823,0.009318199998233467,5,0.2011463000017102,395.9579442999966,395.9579442999966,395.9579442999966,395.9579442999966,395.9579442999966,395.9579442999966,395.9579442999966,395.9579442999966,395.9579442999966,395.9579442999966,006,P001,2025_Jan_17_1901,ConditionRich,2021.2.3,59.9440242695928,
368.0,371.75,2,0.75,Stimuli/P001/sun_akmxsxepquhynflp.jpg,0,0,0.0,0,162,162,162,,,,,,,,,,,,,368.0242255999983,0.024225599998317193,5,1.9509914000009303,396.20815039999434,396.20815039999434,396.20815039999434,396.20815039999434,396.20815039999434,396.20815039999434,396.20815039999434,396.20815039999434,396.20815039999434,396.20815039999434,006,P001,2025_Jan_17_1901,ConditionRich,2021.2.3,59.9440242695928,
371.75,372.0,41,0.0,Stimuli/Blank.png,0,0,0.0,0,163,163,163,,,,,,,,,,,,,371.7609242000035,0.010924200003501028,5,0.2142597999991267,399.94485229999555,399.94485229999555,399.94485229999555,399.94485229999555,399.94485229999555,399.94485229999555,399.94485229999555,399.94485229999555,399.94485229999555,399.94485229999555,006,P001,2025_Jan_17_1901,ConditionRich,2021.2.3,59.9440242695928,
372.0,388.0,0,0.0,Stimuli/Blank.png,1,10,10.75,0,164,164,164,,,,,,,,,,,,,372.01159729999927,0.011597299999266397,5,11.963992199998756,400.19500490000064,400.19500490000064,400.19500490000064,400.19500490000064,400.19500490000064,400.19500490000064,410.18717489999835,410.9378340999974,400.19500490000064,400.19500490000064,006,P001,2025_Jan_17_1901,ConditionRich,2021.2.3,59.9440242695928,
