eventStartTime,eventEndTime,eventCond,imSize,imFile,responseEvent,fixRespStart,fixRespEnd,Events.thisRepN,Events.thisTrialN,Events.thisN,Events.thisIndex,Instructions.started,Instructions.stopped,participantReadyResponse.keys,participantReadyResponse.rt,participantReadyResponse.started,participantReadyResponse.stopped,startWaitforTrigger,triggerResponse.keys,triggerResponse.rt,triggerResponse.started,triggerResponse.stopped,globalTimer,actualStartTime,startTimingDiff,participantResponse.keys,participantResponse.rt,participantResponse.started,participantResponse.stopped,image.started,image.stopped,fixationOutside.started,fixationOutside.stopped,fixationResponse.started,fixationResponse.stopped,fixationInside.started,fixationInside.stopped,session,participant,date,expName,psychopyVersion,frameRate,
,,,,,,,,,,,,22.943861499996274,None,3,4.732765299995663,22.943861499996274,None,,,,,,,,,,,,,,,,,,,,,001,P001,2025_Jan_17_1811,ConditionRich,2021.2.3,59.931809584987455,
,,,,,,,,,,,,,,,,,,27.691519499996502,5,158.31672979999712,27.70438550000108,None,,,,,,,,,,,,,,,,001,P001,2025_Jan_17_1811,ConditionRich,2021.2.3,59.931809584987455,
0.0,4.0,0,0.0,Stimuli/Blank.png,0,0.0,0.0,0,0,0,0,,,,,,,,,,,,186.03080029999546,0.045773199999530334,0.045773199999530334,5,1.9264708000046085,186.09426339999482,None,186.09426339999482,None,186.09426339999482,None,186.09426339999482,186.09426339999482,186.09426339999482,None,001,P001,2025_Jan_17_1811,ConditionRich,2021.2.3,59.931809584987455,
4.0,4.75,39,0.75,Stimuli/P001/things_woman_01b.jpg,0,0.0,0.0,0,1,1,1,,,,,,,,,,,,,4.007468000003428,0.007468000003427733,None,,190.0813033999948,190.0813033999948,190.0813033999948,190.0813033999948,190.0813033999948,190.0813033999948,190.0813033999948,190.0813033999948,190.0813033999948,190.0813033999948,001,P001,2025_Jan_17_1811,ConditionRich,2021.2.3,59.931809584987455,
4.75,8.0,41,0.0,Stimuli/Blank.png,0,0.0,0.0,0,2,2,2,,,,,,,,,,,,,4.787853800000448,0.037853800000448246,5,1.1888784000038868,190.83210749999853,190.83210749999853,190.83210749999853,190.83210749999853,190.83210749999853,190.83210749999853,190.83210749999853,190.83210749999853,190.83210749999853,190.83210749999853,001,P001,2025_Jan_17_1811,ConditionRich,2021.2.3,59.931809584987455,
8.0,8.75,25,0.75,Stimuli/P001/things_curry_01b.jpg,0,0.0,0.0,0,3,3,3,,,,,,,,,,,,,8.006854200000816,0.0068542000008164905,None,,194.0846829000002,194.0846829000002,194.0846829000002,194.0846829000002,194.0846829000002,194.0846829000002,194.0846829000002,194.0846829000002,194.0846829000002,194.0846829000002,001,P001,2025_Jan_17_1811,ConditionRich,2021.2.3,59.931809584987455,
8.75,12.0,41,0.0,Stimuli/Blank.png,0,0.0,0.0,0,4,4,4,,,,,,,,,,,,,8.790506500001356,0.04050650000135647,5,3.1853162000043085,194.8353369999968,194.8353369999968,194.8353369999968,194.8353369999968,194.8353369999968,194.8353369999968,194.8353369999968,194.8353369999968,194.8353369999968,194.8353369999968,001,P001,2025_Jan_17_1811,ConditionRich,2021.2.3,59.931809584987455,
12.0,12.75,23,0.75,Stimuli/P001/things_chick_01b.jpg,0,0.0,0.0,0,5,5,5,,,,,,,,,,,,,12.009515899997496,0.00951589999749558,None,,198.08820859999832,198.08820859999832,198.08820859999832,198.08820859999832,198.08820859999832,198.08820859999832,198.08820859999832,198.08820859999832,198.08820859999832,198.08820859999832,001,P001,2025_Jan_17_1811,ConditionRich,2021.2.3,59.931809584987455,
12.75,16.0,41,0.0,Stimuli/Blank.png,0,0.0,0.0,0,6,6,6,,,,,,,,,,,,,12.79382330000226,0.0438233000022592,5,3.1828785999969114,198.83886019999773,198.83886019999773,198.83886019999773,198.83886019999773,198.83886019999773,198.83886019999773,198.83886019999773,198.83886019999773,198.83886019999773,198.83886019999773,001,P001,2025_Jan_17_1811,ConditionRich,2021.2.3,59.931809584987455,
16.0,16.75,33,0.75,Stimuli/P001/things_pan_01b.jpg,0,0.0,0.0,0,7,7,7,,,,,,,,,,,,,16.013220900000306,0.013220900000305846,None,,202.07510719999846,202.07510719999846,202.07510719999846,202.07510719999846,202.07510719999846,202.07510719999846,202.07510719999846,202.07510719999846,202.07510719999846,202.07510719999846,001,P001,2025_Jan_17_1811,ConditionRich,2021.2.3,59.931809584987455,
16.75,20.0,41,0.0,Stimuli/Blank.png,0,0.0,0.0,0,8,8,8,,,,,,,,,,,,,16.78089529999852,0.030895299998519477,5,1.1950281000026735,202.82573099999718,202.82573099999718,202.82573099999718,202.82573099999718,202.82573099999718,202.82573099999718,202.82573099999718,202.82573099999718,202.82573099999718,202.82573099999718,001,P001,2025_Jan_17_1811,ConditionRich,2021.2.3,59.931809584987455,
20.0,20.75,26,0.75,Stimuli/P001/things_dish_01b.jpg,0,0.0,0.0,0,9,9,9,,,,,,,,,,,,,20.000675900002534,0.0006759000025340356,None,,206.0785906999954,206.0785906999954,206.0785906999954,206.0785906999954,206.0785906999954,206.0785906999954,206.0785906999954,206.0785906999954,206.0785906999954,206.0785906999954,001,P001,2025_Jan_17_1811,ConditionRich,2021.2.3,59.931809584987455,
20.75,24.0,41,0.0,Stimuli/Blank.png,0,0.0,0.0,0,10,10,10,,,,,,,,,,,,,20.784723900003883,0.03472390000388259,5,1.1924208000054932,206.82925989999785,206.82925989999785,206.82925989999785,206.82925989999785,206.82925989999785,206.82925989999785,206.82925989999785,206.82925989999785,206.82925989999785,206.82925989999785,001,P001,2025_Jan_17_1811,ConditionRich,2021.2.3,59.931809584987455,
24.0,24.75,7,0.75,Stimuli/P001/sun_arlesyjqxmqmcccl.jpg,0,0.0,0.0,0,11,11,11,,,,,,,,,,,,,24.003516900003888,0.003516900003887713,None,,210.04872529999557,210.04872529999557,210.04872529999557,210.04872529999557,210.04872529999557,210.04872529999557,210.04872529999557,210.04872529999557,210.04872529999557,210.04872529999557,001,P001,2025_Jan_17_1811,ConditionRich,2021.2.3,59.931809584987455,
24.75,28.0,41,0.0,Stimuli/Blank.png,0,0.0,0.0,0,12,12,12,,,,,,,,,,,,,24.755112899998494,0.005112899998493958,5,3.2056917999943835,210.8161087999979,210.8161087999979,210.8161087999979,210.8161087999979,210.8161087999979,210.8161087999979,210.8161087999979,210.8161087999979,210.8161087999979,210.8161087999979,001,P001,2025_Jan_17_1811,ConditionRich,2021.2.3,59.931809584987455,
28.0,28.75,24,0.75,Stimuli/P001/things_cornucopia_01b.jpg,0,0.0,0.0,0,13,13,13,,,,,,,,,,,,,28.02461410000251,0.024614100002509076,None,,214.10246729999926,214.10246729999926,214.10246729999926,214.10246729999926,214.10246729999926,214.10246729999926,214.10246729999926,214.10246729999926,214.10246729999926,214.10246729999926,001,P001,2025_Jan_17_1811,ConditionRich,2021.2.3,59.931809584987455,
28.75,32.0,41,0.0,Stimuli/Blank.png,0,0.0,0.0,0,14,14,14,,,,,,,,,,,,,28.791663199997856,0.04166319999785628,5,3.185395000000426,214.8363268999965,214.8363268999965,214.8363268999965,214.8363268999965,214.8363268999965,214.8363268999965,214.8363268999965,214.8363268999965,214.8363268999965,214.8363268999965,001,P001,2025_Jan_17_1811,ConditionRich,2021.2.3,59.931809584987455,
32.0,32.75,34,0.75,Stimuli/P001/things_parrot_01b.jpg,0,0.0,0.0,0,15,15,15,,,,,,,,,,,,,32.01058280000143,0.01058280000142986,None,,218.0558435999992,218.0558435999992,218.0558435999992,218.0558435999992,218.0558435999992,218.0558435999992,218.0558435999992,218.0558435999992,218.0558435999992,218.0558435999992,001,P001,2025_Jan_17_1811,ConditionRich,2021.2.3,59.931809584987455,
32.75,36.0,41,0.0,Stimuli/Blank.png,0,0.0,0.0,0,16,16,16,,,,,,,,,,,,,32.76150100000086,0.011501000000862405,5,3.2152977000005194,218.80658639999456,218.80658639999456,218.80658639999456,218.80658639999456,218.80658639999456,218.80658639999456,218.80658639999456,218.80658639999456,218.80658639999456,218.80658639999456,001,P001,2025_Jan_17_1811,ConditionRich,2021.2.3,59.931809584987455,
36.0,36.75,32,0.75,Stimuli/P001/things_oyster_01b.jpg,0,0.0,0.0,0,17,17,17,,,,,,,,,,,,,36.01510599999892,0.015105999998922925,None,,222.0760569999984,222.0760569999984,222.0760569999984,222.0760569999984,222.0760569999984,222.0760569999984,222.0760569999984,222.0760569999984,222.0760569999984,222.0760569999984,001,P001,2025_Jan_17_1811,ConditionRich,2021.2.3,59.931809584987455,
36.75,40.0,41,0.0,Stimuli/Blank.png,1,1.25,2.0,0,18,18,18,,,,,,,,,,,,,36.76498050000373,0.014980500003730413,3,1.6187286999993376,222.81005100000039,222.81005100000039,222.81005100000039,222.81005100000039,222.81005100000039,222.81005100000039,224.04447439999785,224.79512049999903,222.81005100000039,222.81005100000039,001,P001,2025_Jan_17_1811,ConditionRich,2021.2.3,59.931809584987455,
40.0,40.75,3,0.75,Stimuli/P001/sun_amarqtinchblqmah.jpg,0,0.0,0.0,0,19,19,19,,,,,,,,,,,,,40.00107410000055,0.0010741000005509704,None,,226.0629312999954,226.0629312999954,226.0629312999954,226.0629312999954,226.0629312999954,226.0629312999954,226.0629312999954,226.0629312999954,226.0629312999954,226.0629312999954,001,P001,2025_Jan_17_1811,ConditionRich,2021.2.3,59.931809584987455,
40.75,44.0,41,0.0,Stimuli/Blank.png,0,0.0,0.0,0,20,20,20,,,,,,,,,,,,,40.76936150000256,0.019361500002560206,5,1.2084376999991946,226.81358109999564,226.81358109999564,226.81358109999564,226.81358109999564,226.81358109999564,226.81358109999564,226.81358109999564,226.81358109999564,226.81358109999564,226.81358109999564,001,P001,2025_Jan_17_1811,ConditionRich,2021.2.3,59.931809584987455,
44.0,44.75,11,0.75,Stimuli/P001/sun_bbfdgdyeqdnadvvi.jpg,0,0.0,0.0,0,21,21,21,,,,,,,,,,,,,44.004446899998584,0.004446899998583831,None,,230.06647499999963,230.06647499999963,230.06647499999963,230.06647499999963,230.06647499999963,230.06647499999963,230.06647499999963,230.06647499999963,230.06647499999963,230.06647499999963,001,P001,2025_Jan_17_1811,ConditionRich,2021.2.3,59.931809584987455,
44.75,48.0,41,0.0,Stimuli/Blank.png,0,0.0,0.0,0,22,22,22,,,,,,,,,,,,,44.77458640000259,0.02458640000259038,5,3.1878945999997086,230.8338081999973,230.8338081999973,230.8338081999973,230.8338081999973,230.8338081999973,230.8338081999973,230.8338081999973,230.8338081999973,230.8338081999973,230.8338081999973,001,P001,2025_Jan_17_1811,ConditionRich,2021.2.3,59.931809584987455,
48.0,48.75,6,0.75,Stimuli/P001/sun_aqbaaqeojrexbmcr.jpg,0,0.0,0.0,0,23,23,23,,,,,,,,,,,,,48.02509740000096,0.02509740000095917,None,,234.08670300000085,234.08670300000085,234.08670300000085,234.08670300000085,234.08670300000085,234.08670300000085,234.08670300000085,234.08670300000085,234.08670300000085,234.08670300000085,001,P001,2025_Jan_17_1811,ConditionRich,2021.2.3,59.931809584987455,
48.75,52.0,41,0.0,Stimuli/Blank.png,0,0.0,0.0,0,24,24,24,,,,,,,,,,,,,48.77612989999761,0.026129899997613393,5,3.2010911000033957,234.8206613000002,234.8206613000002,234.8206613000002,234.8206613000002,234.8206613000002,234.8206613000002,234.8206613000002,234.8206613000002,234.8206613000002,234.8206613000002,001,P001,2025_Jan_17_1811,ConditionRich,2021.2.3,59.931809584987455,
52.0,52.75,8,0.75,Stimuli/P001/sun_asqboyqakusycvwd.jpg,0,0.0,0.0,0,25,25,25,,,,,,,,,,,,,52.01224270000239,0.012242700002389029,None,,238.07352239999454,238.07352239999454,238.07352239999454,238.07352239999454,238.07352239999454,238.07352239999454,238.07352239999454,238.07352239999454,238.07352239999454,238.07352239999454,001,P001,2025_Jan_17_1811,ConditionRich,2021.2.3,59.931809584987455,
52.75,56.0,41,0.0,Stimuli/Blank.png,1,1.25,2.0,0,26,26,26,,,,,,,,,,,,,52.779934400001366,0.029934400001366157,5,3.180895400000736,238.84087739999813,238.84087739999813,238.84087739999813,238.84087739999813,238.84087739999813,238.84087739999813,240.0586187000008,240.809282299997,238.84087739999813,238.84087739999813,001,P001,2025_Jan_17_1811,ConditionRich,2021.2.3,59.931809584987455,
56.0,56.75,13,0.75,Stimuli/P001/sun_bfdmlbkyioxnkodb.jpg,1,0.0,0.75,0,27,27,27,,,,,,,,,,,,,56.01524939999945,0.015249399999447633,None,,242.09375069999805,242.09375069999805,242.09375069999805,242.09375069999805,242.09375069999805,242.09375069999805,242.09375069999805,242.8110441999961,242.09375069999805,242.09375069999805,001,P001,2025_Jan_17_1811,ConditionRich,2021.2.3,59.931809584987455,
56.75,60.0,41,0.0,Stimuli/Blank.png,0,0.0,0.0,0,28,28,28,,,,,,,,,,,,,56.784652299997106,0.03465229999710573,5,3.177262100005464,242.84442309999577,242.84442309999577,242.84442309999577,242.84442309999577,242.84442309999577,242.84442309999577,242.84442309999577,242.84442309999577,242.84442309999577,242.84442309999577,001,P001,2025_Jan_17_1811,ConditionRich,2021.2.3,59.931809584987455,
60.0,60.75,17,0.75,Stimuli/P001/sun_bshgmgbmpvjkxfis.jpg,0,0.0,0.0,0,29,29,29,,,,,,,,,,,,,60.019050299997616,0.019050299997616094,None,,246.09732059999806,246.09732059999806,246.09732059999806,246.09732059999806,246.09732059999806,246.09732059999806,246.09732059999806,246.09732059999806,246.09732059999806,246.09732059999806,001,P001,2025_Jan_17_1811,ConditionRich,2021.2.3,59.931809584987455,
60.75,64.0,41,0.0,Stimuli/Blank.png,1,2.25,3.0,0,30,30,30,,,,,,,,,,,,,60.786774300002435,0.03677430000243476,3,2.5644312000003993,246.83125879999716,246.83125879999716,246.83125879999716,246.83125879999716,246.83125879999716,246.83125879999716,249.06655909999972,249.8172451999999,246.83125879999716,246.83125879999716,001,P001,2025_Jan_17_1811,ConditionRich,2021.2.3,59.931809584987455,
64.0,64.75,28,0.75,Stimuli/P001/things_girl_01b.jpg,0,0.0,0.0,0,31,31,31,,,,,,,,,,,,,64.00554130000091,0.005541300000913907,None,,250.06743429999915,250.06743429999915,250.06743429999915,250.06743429999915,250.06743429999915,250.06743429999915,250.06743429999915,250.06743429999915,250.06743429999915,250.06743429999915,001,P001,2025_Jan_17_1811,ConditionRich,2021.2.3,59.931809584987455,
64.75,68.0,41,0.0,Stimuli/Blank.png,0,0.0,0.0,0,32,32,32,,,,,,,,,,,,,64.77478739999788,0.02478739999787649,5,3.1869965000005323,250.83480659999623,250.83480659999623,250.83480659999623,250.83480659999623,250.83480659999623,250.83480659999623,250.83480659999623,250.83480659999623,250.83480659999623,250.83480659999623,001,P001,2025_Jan_17_1811,ConditionRich,2021.2.3,59.931809584987455,
68.0,68.75,1,0.75,Stimuli/P001/sun_agpgdwkhzgvzdaea.jpg,0,0.0,0.0,0,33,33,33,,,,,,,,,,,,,68.02634550000221,0.0263455000022077,None,,254.08767009999428,254.08767009999428,254.08767009999428,254.08767009999428,254.08767009999428,254.08767009999428,254.08767009999428,254.08767009999428,254.08767009999428,254.08767009999428,001,P001,2025_Jan_17_1811,ConditionRich,2021.2.3,59.931809584987455,
68.75,72.0,41,0.0,Stimuli/Blank.png,0,0.0,0.0,0,34,34,34,,,,,,,,,,,,,68.7766855000009,0.026685500000894535,5,3.200101499998709,254.82165839999652,254.82165839999652,254.82165839999652,254.82165839999652,254.82165839999652,254.82165839999652,254.82165839999652,254.82165839999652,254.82165839999652,254.82165839999652,001,P001,2025_Jan_17_1811,ConditionRich,2021.2.3,59.931809584987455,
72.0,72.75,10,0.75,Stimuli/P001/sun_aykefnhciwsffcrj.jpg,0,0.0,0.0,0,35,35,35,,,,,,,,,,,,,72.01378529999783,0.013785299997834954,None,,258.0745200999954,258.0745200999954,258.0745200999954,258.0745200999954,258.0745200999954,258.0745200999954,258.0745200999954,258.0745200999954,258.0745200999954,258.0745200999954,001,P001,2025_Jan_17_1811,ConditionRich,2021.2.3,59.931809584987455,
72.75,76.0,41,0.0,Stimuli/Blank.png,0,0.0,0.0,0,36,36,36,,,,,,,,,,,,,72.78084680000029,0.030846800000290386,5,1.196485100001155,258.82520600000134,258.82520600000134,258.82520600000134,258.82520600000134,258.82520600000134,258.82520600000134,258.82520600000134,258.82520600000134,258.82520600000134,258.82520600000134,001,P001,2025_Jan_17_1811,ConditionRich,2021.2.3,59.931809584987455,
76.0,76.75,22,0.75,Stimuli/P001/things_boy_01b.jpg,0,0.0,0.0,0,37,37,37,,,,,,,,,,,,,76.00034510000114,0.0003451000011409633,None,,262.061383399996,262.061383399996,262.061383399996,262.061383399996,262.061383399996,262.061383399996,262.061383399996,262.061383399996,262.061383399996,262.061383399996,001,P001,2025_Jan_17_1811,ConditionRich,2021.2.3,59.931809584987455,
76.75,80.0,41,0.0,Stimuli/Blank.png,0,0.0,0.0,0,38,38,38,,,,,,,,,,,,,76.76922829999967,0.019228299999667797,5,3.1929908999954932,262.8287141999972,262.8287141999972,262.8287141999972,262.8287141999972,262.8287141999972,262.8287141999972,262.8287141999972,262.8287141999972,262.8287141999972,262.8287141999972,001,P001,2025_Jan_17_1811,ConditionRich,2021.2.3,59.931809584987455,
80.0,80.75,20,0.75,Stimuli/P001/sun_dkgctqgpvxbaoyks.jpg,0,0.0,0.0,0,39,39,39,,,,,,,,,,,,,80.01974250000058,0.01974250000057509,None,,266.0983081999948,266.0983081999948,266.0983081999948,266.0983081999948,266.0983081999948,266.0983081999948,266.0983081999948,266.0983081999948,266.0983081999948,266.0983081999948,001,P001,2025_Jan_17_1811,ConditionRich,2021.2.3,59.931809584987455,
80.75,84.0,41,0.0,Stimuli/Blank.png,0,0.0,0.0,0,40,40,40,,,,,,,,,,,,,80.788026299997,0.038026299997000024,5,1.1897343000018736,266.83229310000024,266.83229310000024,266.83229310000024,266.83229310000024,266.83229310000024,266.83229310000024,266.83229310000024,266.83229310000024,266.83229310000024,266.83229310000024,001,P001,2025_Jan_17_1811,ConditionRich,2021.2.3,59.931809584987455,
84.0,100.0,0,0.0,Stimuli/Blank.png,1,6.0,6.75,0,41,41,41,,,,,,,,,,,,,84.00717689999874,0.007176899998739827,5,13.97026879999612,270.05178019999585,270.05178019999585,270.05178019999585,270.05178019999585,270.05178019999585,270.05178019999585,276.040393700001,276.7910619999966,270.05178019999585,270.05178019999585,001,P001,2025_Jan_17_1811,ConditionRich,2021.2.3,59.931809584987455,
100.0,100.75,30,0.75,Stimuli/P001/things_iguana_01b.jpg,0,0.0,0.0,0,42,42,42,,,,,,,,,,,,,100.0041213000004,0.004121300000406336,None,,286.0659242999973,286.0659242999973,286.0659242999973,286.0659242999973,286.0659242999973,286.0659242999973,286.0659242999973,286.0659242999973,286.0659242999973,286.0659242999973,001,P001,2025_Jan_17_1811,ConditionRich,2021.2.3,59.931809584987455,
100.75,104.0,41,0.0,Stimuli/Blank.png,1,1.25,2.0,0,43,43,43,,,,,,,,,,,,,100.77110990000074,0.02110990000073798,3,1.5610860000015236,286.81665589999466,286.81665589999466,286.81665589999466,286.81665589999466,286.81665589999466,286.81665589999466,288.0510165999949,288.8017127999992,286.81665589999466,286.81665589999466,001,P001,2025_Jan_17_1811,ConditionRich,2021.2.3,59.931809584987455,
104.0,104.75,15,0.75,Stimuli/P001/sun_bfzoxbkvsfqxsyle.jpg,0,0.0,0.0,0,44,44,44,,,,,,,,,,,,,104.00875400000223,0.008754000002227258,None,,290.069468099995,290.069468099995,290.069468099995,290.069468099995,290.069468099995,290.069468099995,290.069468099995,290.069468099995,290.069468099995,290.069468099995,001,P001,2025_Jan_17_1811,ConditionRich,2021.2.3,59.931809584987455,
104.75,108.0,41,0.0,Stimuli/Blank.png,0,0.0,0.0,0,45,45,45,,,,,,,,,,,,,104.77529620000132,0.025296200001321267,5,3.201574000006076,290.8201337999999,290.8201337999999,290.8201337999999,290.8201337999999,290.8201337999999,290.8201337999999,290.8201337999999,290.8201337999999,290.8201337999999,290.8201337999999,001,P001,2025_Jan_17_1811,ConditionRich,2021.2.3,59.931809584987455,
108.0,108.75,18,0.75,Stimuli/P001/sun_bzjegfvyrvqtunza.jpg,0,0.0,0.0,0,46,46,46,,,,,,,,,,,,,108.01161539999885,0.011615399998845533,None,,294.0730229999972,294.0730229999972,294.0730229999972,294.0730229999972,294.0730229999972,294.0730229999972,294.0730229999972,294.0730229999972,294.0730229999972,294.0730229999972,001,P001,2025_Jan_17_1811,ConditionRich,2021.2.3,59.931809584987455,
108.75,112.0,41,0.0,Stimuli/Blank.png,0,0.0,0.0,0,47,47,47,,,,,,,,,,,,,108.77891120000277,0.028911200002767146,5,3.1982520000019576,294.8236781999949,294.8236781999949,294.8236781999949,294.8236781999949,294.8236781999949,294.8236781999949,294.8236781999949,294.8236781999949,294.8236781999949,294.8236781999949,001,P001,2025_Jan_17_1811,ConditionRich,2021.2.3,59.931809584987455,
112.0,112.75,37,0.75,Stimuli/P001/things_starfish_01b.jpg,0,0.0,0.0,0,48,48,48,,,,,,,,,,,,,112.01516509999783,0.015165099997830112,None,,298.0765388,298.0765388,298.0765388,298.0765388,298.0765388,298.0765388,298.0765388,298.0765388,298.0765388,298.0765388,001,P001,2025_Jan_17_1811,ConditionRich,2021.2.3,59.931809584987455,
112.75,116.0,41,0.0,Stimuli/Blank.png,0,0.0,0.0,0,49,49,49,,,,,,,,,,,,,112.76595349999843,0.015953499998431653,5,1.2113285000014002,298.8106015000012,298.8106015000012,298.8106015000012,298.8106015000012,298.8106015000012,298.8106015000012,298.8106015000012,298.8106015000012,298.8106015000012,298.8106015000012,001,P001,2025_Jan_17_1811,ConditionRich,2021.2.3,59.931809584987455,
116.0,116.75,36,0.75,Stimuli/P001/things_stalagmite_01b.jpg,0,0.0,0.0,0,50,50,50,,,,,,,,,,,,,116.00153400000272,0.001534000002720859,None,,302.06340099999943,302.06340099999943,302.06340099999943,302.06340099999943,302.06340099999943,302.06340099999943,302.06340099999943,302.06340099999943,302.06340099999943,302.06340099999943,001,P001,2025_Jan_17_1811,ConditionRich,2021.2.3,59.931809584987455,
116.75,120.0,41,0.0,Stimuli/Blank.png,1,0.25,1.0,0,51,51,51,,,,,,,,,,,,,116.76932349999697,0.019323499996971805,5,1.207974999997532,302.81406479999714,302.81406479999714,302.81406479999714,302.81406479999714,302.81406479999714,302.81406479999714,303.0476137000005,303.79825490000076,302.81406479999714,302.81406479999714,001,P001,2025_Jan_17_1811,ConditionRich,2021.2.3,59.931809584987455,
120.0,120.75,38,0.75,Stimuli/P001/things_windowsill_01b.jpg,0,0.0,0.0,0,52,52,52,,,,,,,,,,,,,120.00520590000087,0.005205900000873953,None,,306.08361989999685,306.08361989999685,306.08361989999685,306.08361989999685,306.08361989999685,306.08361989999685,306.08361989999685,306.08361989999685,306.08361989999685,306.08361989999685,001,P001,2025_Jan_17_1811,ConditionRich,2021.2.3,59.931809584987455,
120.75,124.0,41,0.0,Stimuli/Blank.png,0,0.0,0.0,0,53,53,53,,,,,,,,,,,,,120.78974590000144,0.039745900001435075,5,3.1875841000000946,306.83428309999726,306.83428309999726,306.83428309999726,306.83428309999726,306.83428309999726,306.83428309999726,306.83428309999726,306.83428309999726,306.83428309999726,306.83428309999726,001,P001,2025_Jan_17_1811,ConditionRich,2021.2.3,59.931809584987455,
124.0,124.75,4,0.75,Stimuli/P001/sun_aonjwqswdblhlpkm.jpg,0,0.0,0.0,0,54,54,54,,,,,,,,,,,,,124.0086752999996,0.008675299999595154,None,,310.07048799999757,310.07048799999757,310.07048799999757,310.07048799999757,310.07048799999757,310.07048799999757,310.07048799999757,310.07048799999757,310.07048799999757,310.07048799999757,001,P001,2025_Jan_17_1811,ConditionRich,2021.2.3,59.931809584987455,
124.75,128.0,41,0.0,Stimuli/Blank.png,1,0.25,1.0,0,55,55,55,,,,,,,,,,,,,124.77639110000018,0.026391100000182632,5,3.2006320000000414,310.8211306000012,310.8211306000012,310.8211306000012,310.8211306000012,310.8211306000012,310.8211306000012,311.05467299999873,311.8053792999999,310.8211306000012,310.8211306000012,001,P001,2025_Jan_17_1811,ConditionRich,2021.2.3,59.931809584987455,
128.0,128.75,9,0.75,Stimuli/P001/sun_awtltwwpwbepuuqv.jpg,0,0.0,0.0,0,56,56,56,,,,,,,,,,,,,128.01185770000302,0.01185770000302,None,,314.074022599998,314.074022599998,314.074022599998,314.074022599998,314.074022599998,314.074022599998,314.074022599998,314.074022599998,314.074022599998,314.074022599998,001,P001,2025_Jan_17_1811,ConditionRich,2021.2.3,59.931809584987455,
128.75,132.0,41,0.0,Stimuli/Blank.png,0,0.0,0.0,0,57,57,57,,,,,,,,,,,,,128.7801152000029,0.03011520000291057,5,1.197253099999216,314.82467460000044,314.82467460000044,314.82467460000044,314.82467460000044,314.82467460000044,314.82467460000044,314.82467460000044,314.82467460000044,314.82467460000044,314.82467460000044,001,P001,2025_Jan_17_1811,ConditionRich,2021.2.3,59.931809584987455,
132.0,132.75,5,0.75,Stimuli/P001/sun_apwzcrxhvvnrexjh.jpg,0,0.0,0.0,0,58,58,58,,,,,,,,,,,,,132.00006849999772,6.849999772384763e-05,None,,318.060882400001,318.060882400001,318.060882400001,318.060882400001,318.060882400001,318.060882400001,318.060882400001,318.060882400001,318.060882400001,318.060882400001,001,P001,2025_Jan_17_1811,ConditionRich,2021.2.3,59.931809584987455,
132.75,136.0,41,0.0,Stimuli/Blank.png,0,0.0,0.0,0,59,59,59,,,,,,,,,,,,,132.76632160000008,0.01632160000008298,5,1.2102951999986544,318.811520999996,318.811520999996,318.811520999996,318.811520999996,318.811520999996,318.811520999996,318.811520999996,318.811520999996,318.811520999996,318.811520999996,001,P001,2025_Jan_17_1811,ConditionRich,2021.2.3,59.931809584987455,
136.0,136.75,14,0.75,Stimuli/P001/sun_bfgxassmmvhtarcc.jpg,0,0.0,0.0,0,60,60,60,,,,,,,,,,,,,136.00308699999732,0.003086999997321982,None,,322.06440139999904,322.06440139999904,322.06440139999904,322.06440139999904,322.06440139999904,322.06440139999904,322.06440139999904,322.06440139999904,322.06440139999904,322.06440139999904,001,P001,2025_Jan_17_1811,ConditionRich,2021.2.3,59.931809584987455,
136.75,140.0,41,0.0,Stimuli/Blank.png,0,0.0,0.0,0,61,61,61,,,,,,,,,,,,,136.77020469999843,0.020204699998430442,5,1.2067788999993354,322.815294299995,322.815294299995,322.815294299995,322.815294299995,322.815294299995,322.815294299995,322.815294299995,322.815294299995,322.815294299995,322.815294299995,001,P001,2025_Jan_17_1811,ConditionRich,2021.2.3,59.931809584987455,
140.0,140.75,31,0.75,Stimuli/P001/things_man_01b.jpg,0,0.0,0.0,0,62,62,62,,,,,,,,,,,,,140.00655579999875,0.0065557999987504445,None,,326.0846210999953,326.0846210999953,326.0846210999953,326.0846210999953,326.0846210999953,326.0846210999953,326.0846210999953,326.0846210999953,326.0846210999953,326.0846210999953,001,P001,2025_Jan_17_1811,ConditionRich,2021.2.3,59.931809584987455,
140.75,144.0,41,0.0,Stimuli/Blank.png,0,0.0,0.0,0,63,63,63,,,,,,,,,,,,,140.79047340000398,0.04047340000397526,5,3.1864801999981864,326.8352808999989,326.8352808999989,326.8352808999989,326.8352808999989,326.8352808999989,326.8352808999989,326.8352808999989,326.8352808999989,326.8352808999989,326.8352808999989,001,P001,2025_Jan_17_1811,ConditionRich,2021.2.3,59.931809584987455,
144.0,144.75,40,0.75,Stimuli/P001/things_worm_01b.jpg,0,0.0,0.0,0,64,64,64,,,,,,,,,,,,,144.0110347000009,0.011034700000891462,None,,330.07155209999473,330.07155209999473,330.07155209999473,330.07155209999473,330.07155209999473,330.07155209999473,330.07155209999473,330.07155209999473,330.07155209999473,330.07155209999473,001,P001,2025_Jan_17_1811,ConditionRich,2021.2.3,59.931809584987455,
144.75,148.0,41,0.0,Stimuli/Blank.png,0,0.0,0.0,0,65,65,65,,,,,,,,,,,,,144.77697120000084,0.026971200000843965,5,3.1995884999996633,330.82213789999514,330.82213789999514,330.82213789999514,330.82213789999514,330.82213789999514,330.82213789999514,330.82213789999514,330.82213789999514,330.82213789999514,330.82213789999514,001,P001,2025_Jan_17_1811,ConditionRich,2021.2.3,59.931809584987455,
148.0,148.75,19,0.75,Stimuli/P001/sun_bzyyqqczvrnvukdn.jpg,0,0.0,0.0,0,66,66,66,,,,,,,,,,,,,148.01363290000154,0.013632900001539383,None,,334.0916647999984,334.0916647999984,334.0916647999984,334.0916647999984,334.0916647999984,334.0916647999984,334.0916647999984,334.0916647999984,334.0916647999984,334.0916647999984,001,P001,2025_Jan_17_1811,ConditionRich,2021.2.3,59.931809584987455,
148.75,152.0,41,0.0,Stimuli/Blank.png,0,0.0,0.0,0,67,67,67,,,,,,,,,,,,,148.7969746000017,0.04697460000170395,5,1.1795786000002408,334.8423521000004,334.8423521000004,334.8423521000004,334.8423521000004,334.8423521000004,334.8423521000004,334.8423521000004,334.8423521000004,334.8423521000004,334.8423521000004,001,P001,2025_Jan_17_1811,ConditionRich,2021.2.3,59.931809584987455,
152.0,152.75,35,0.75,Stimuli/P001/things_pepperoni_01b.jpg,0,0.0,0.0,0,68,68,68,,,,,,,,,,,,,152.0008863000039,0.0008863000039127655,None,,338.06186499999603,338.06186499999603,338.06186499999603,338.06186499999603,338.06186499999603,338.06186499999603,338.06186499999603,338.06186499999603,338.06186499999603,338.06186499999603,001,P001,2025_Jan_17_1811,ConditionRich,2021.2.3,59.931809584987455,
152.75,156.0,41,0.0,Stimuli/Blank.png,0,0.0,0.0,0,69,69,69,,,,,,,,,,,,,152.76784960000077,0.017849600000772625,5,1.2096133000013651,338.81253959999594,338.81253959999594,338.81253959999594,338.81253959999594,338.81253959999594,338.81253959999594,338.81253959999594,338.81253959999594,338.81253959999594,338.81253959999594,001,P001,2025_Jan_17_1811,ConditionRich,2021.2.3,59.931809584987455,
156.0,156.75,29,0.75,Stimuli/P001/things_grinder_01b.jpg,0,0.0,0.0,0,70,70,70,,,,,,,,,,,,,156.00503990000288,0.0050399000028846785,None,,342.0654035999978,342.0654035999978,342.0654035999978,342.0654035999978,342.0654035999978,342.0654035999978,342.0654035999978,342.0654035999978,342.0654035999978,342.0654035999978,001,P001,2025_Jan_17_1811,ConditionRich,2021.2.3,59.931809584987455,
156.75,160.0,41,0.0,Stimuli/Blank.png,0,0.0,0.0,0,71,71,71,,,,,,,,,,,,,156.77107360000082,0.02107360000081826,5,1.2057041000007303,342.81606669999746,342.81606669999746,342.81606669999746,342.81606669999746,342.81606669999746,342.81606669999746,342.81606669999746,342.81606669999746,342.81606669999746,342.81606669999746,001,P001,2025_Jan_17_1811,ConditionRich,2021.2.3,59.931809584987455,
160.0,160.75,2,0.75,Stimuli/P001/sun_akmxsxepquhynflp.jpg,0,0.0,0.0,0,72,72,72,,,,,,,,,,,,,160.00809799999843,0.00809799999842653,None,,346.06894140000077,346.06894140000077,346.06894140000077,346.06894140000077,346.06894140000077,346.06894140000077,346.06894140000077,346.06894140000077,346.06894140000077,346.06894140000077,001,P001,2025_Jan_17_1811,ConditionRich,2021.2.3,59.931809584987455,
160.75,164.0,41,0.0,Stimuli/Blank.png,1,0.25,1.0,0,73,73,73,,,,,,,,,,,,,160.77489259999857,0.024892599998565856,5,3.2022484999979497,346.8196072999999,346.8196072999999,346.8196072999999,346.8196072999999,346.8196072999999,346.8196072999999,347.05317159999686,347.803811400001,346.8196072999999,346.8196072999999,001,P001,2025_Jan_17_1811,ConditionRich,2021.2.3,59.931809584987455,
164.0,164.75,12,0.75,Stimuli/P001/sun_bdxvmnlyovhqognn.jpg,0,0.0,0.0,0,74,74,74,,,,,,,,,,,,,164.01073670000187,0.010736700001871213,None,,350.0891730000003,350.0891730000003,350.0891730000003,350.0891730000003,350.0891730000003,350.0891730000003,350.0891730000003,350.0891730000003,350.0891730000003,350.0891730000003,001,P001,2025_Jan_17_1811,ConditionRich,2021.2.3,59.931809584987455,
164.75,168.0,41,0.0,Stimuli/Blank.png,1,2.25,3.0,0,75,75,75,,,,,,,,,,,,,164.79527640000015,0.04527640000014799,5,3.165199600000051,350.85652839999966,350.85652839999966,350.85652839999966,350.85652839999966,350.85652839999966,350.85652839999966,353.0751801000006,353.82583099999465,350.85652839999966,350.85652839999966,001,P001,2025_Jan_17_1811,ConditionRich,2021.2.3,59.931809584987455,
168.0,168.75,27,0.75,Stimuli/P001/things_dynamite_01b.jpg,0,0.0,0.0,0,76,76,76,,,,,,,,,,,,,168.03098799999862,0.030987999998615123,None,,354.109403399998,354.109403399998,354.109403399998,354.109403399998,354.109403399998,354.109403399998,354.109403399998,354.109403399998,354.109403399998,354.109403399998,001,P001,2025_Jan_17_1811,ConditionRich,2021.2.3,59.931809584987455,
168.75,172.0,41,0.0,Stimuli/Blank.png,0,0.0,0.0,0,77,77,77,,,,,,,,,,,,,168.79804280000099,0.04804280000098515,5,1.1783609999984037,354.84336690000055,354.84336690000055,354.84336690000055,354.84336690000055,354.84336690000055,354.84336690000055,354.84336690000055,354.84336690000055,354.84336690000055,354.84336690000055,001,P001,2025_Jan_17_1811,ConditionRich,2021.2.3,59.931809584987455,
172.0,172.75,16,0.75,Stimuli/P001/sun_biqyomkjbujnppuf.jpg,0,0.0,0.0,0,78,78,78,,,,,,,,,,,,,172.00171679999767,0.001716799997666385,None,,358.0628671000013,358.0628671000013,358.0628671000013,358.0628671000013,358.0628671000013,358.0628671000013,358.0628671000013,358.0628671000013,358.0628671000013,358.0628671000013,001,P001,2025_Jan_17_1811,ConditionRich,2021.2.3,59.931809584987455,
172.75,176.0,41,0.0,Stimuli/Blank.png,0,0.0,0.0,0,79,79,79,,,,,,,,,,,,,172.76814400000148,0.018144000001484528,5,1.2085332999995444,358.8135379999949,358.8135379999949,358.8135379999949,358.8135379999949,358.8135379999949,358.8135379999949,358.8135379999949,358.8135379999949,358.8135379999949,358.8135379999949,001,P001,2025_Jan_17_1811,ConditionRich,2021.2.3,59.931809584987455,
176.0,176.75,21,0.75,Stimuli/P001/things_baby_01b.jpg,0,0.0,0.0,0,80,80,80,,,,,,,,,,,,,176.00523509999766,0.0052350999976624735,None,,362.0831063000005,362.0831063000005,362.0831063000005,362.0831063000005,362.0831063000005,362.0831063000005,362.0831063000005,362.0831063000005,362.0831063000005,362.0831063000005,001,P001,2025_Jan_17_1811,ConditionRich,2021.2.3,59.931809584987455,
176.75,180.0,41,0.0,Stimuli/Blank.png,0,0.0,0.0,0,81,81,81,,,,,,,,,,,,,176.78896930000337,0.038969300003373064,5,1.187954400003946,362.83375859999796,362.83375859999796,362.83375859999796,362.83375859999796,362.83375859999796,362.83375859999796,362.83375859999796,362.83375859999796,362.83375859999796,362.83375859999796,001,P001,2025_Jan_17_1811,ConditionRich,2021.2.3,59.931809584987455,
180.0,196.0,0,0.0,Stimuli/Blank.png,1,10.0,10.75,0,82,82,82,,,,,,,,,,,,,180.0089558000036,0.008955800003604963,5,13.968461500000558,366.05327119999856,366.05327119999856,366.05327119999856,366.05327119999856,366.05327119999856,366.05327119999856,376.0454246999943,376.7961361999987,366.05327119999856,366.05327119999856,001,P001,2025_Jan_17_1811,ConditionRich,2021.2.3,59.931809584987455,
196.0,196.75,20,0.75,Stimuli/P001/sun_dkgctqgpvxbaoyks.jpg,0,0.0,0.0,0,83,83,83,,,,,,,,,,,,,196.0064485000039,0.006448500003898516,None,,382.05073479999555,382.05073479999555,382.05073479999555,382.05073479999555,382.05073479999555,382.05073479999555,382.05073479999555,382.05073479999555,382.05073479999555,382.05073479999555,001,P001,2025_Jan_17_1811,ConditionRich,2021.2.3,59.931809584987455,
196.75,200.0,41,0.0,Stimuli/Blank.png,0,0.0,0.0,0,84,84,84,,,,,,,,,,,,,196.7567577000009,0.006757700000889599,5,3.2204670999999507,382.80139469999995,382.80139469999995,382.80139469999995,382.80139469999995,382.80139469999995,382.80139469999995,382.80139469999995,382.80139469999995,382.80139469999995,382.80139469999995,001,P001,2025_Jan_17_1811,ConditionRich,2021.2.3,59.931809584987455,
200.0,200.75,21,0.75,Stimuli/P001/things_baby_01b.jpg,0,0.0,0.0,0,85,85,85,,,,,,,,,,,,,200.00914770000236,0.00914770000235876,None,,386.0542729000008,386.0542729000008,386.0542729000008,386.0542729000008,386.0542729000008,386.0542729000008,386.0542729000008,386.0542729000008,386.0542729000008,386.0542729000008,001,P001,2025_Jan_17_1811,ConditionRich,2021.2.3,59.931809584987455,
200.75,204.0,41,0.0,Stimuli/Blank.png,1,2.25,3.0,0,86,86,86,,,,,,,,,,,,,200.76031360000343,0.010313600003428292,5,3.216865599999437,386.8049471999984,386.8049471999984,386.8049471999984,386.8049471999984,386.8049471999984,386.8049471999984,389.0402419999955,389.79089340000064,386.8049471999984,386.8049471999984,001,P001,2025_Jan_17_1811,ConditionRich,2021.2.3,59.931809584987455,
204.0,204.75,25,0.75,Stimuli/P001/things_curry_01b.jpg,0,0.0,0.0,0,87,87,87,,,,,,,,,,,,,204.01396889999887,0.013968899998872075,None,,390.0744931999943,390.0744931999943,390.0744931999943,390.0744931999943,390.0744931999943,390.0744931999943,390.0744931999943,390.0744931999943,390.0744931999943,390.0744931999943,001,P001,2025_Jan_17_1811,ConditionRich,2021.2.3,59.931809584987455,
204.75,208.0,41,0.0,Stimuli/Blank.png,0,0.0,0.0,0,88,88,88,,,,,,,,,,,,,204.78008910000062,0.030089100000623148,5,1.1965832999994745,390.8251578999989,390.8251578999989,390.8251578999989,390.8251578999989,390.8251578999989,390.8251578999989,390.8251578999989,390.8251578999989,390.8251578999989,390.8251578999989,001,P001,2025_Jan_17_1811,ConditionRich,2021.2.3,59.931809584987455,
208.0,208.75,34,0.75,Stimuli/P001/things_parrot_01b.jpg,0,0.0,0.0,0,89,89,89,,,,,,,,,,,,,208.00010450000264,0.00010450000263517722,None,,394.0446660999951,394.0446660999951,394.0446660999951,394.0446660999951,394.0446660999951,394.0446660999951,394.0446660999951,394.0446660999951,394.0446660999951,394.0446660999951,001,P001,2025_Jan_17_1811,ConditionRich,2021.2.3,59.931809584987455,
208.75,212.0,41,0.0,Stimuli/Blank.png,0,0.0,0.0,0,90,90,90,,,,,,,,,,,,,208.75006320000102,6.320000102277845e-05,5,1.2265152999971178,394.7953290000005,394.7953290000005,394.7953290000005,394.7953290000005,394.7953290000005,394.7953290000005,394.7953290000005,394.7953290000005,394.7953290000005,394.7953290000005,001,P001,2025_Jan_17_1811,ConditionRich,2021.2.3,59.931809584987455,
212.0,212.75,26,0.75,Stimuli/P001/things_dish_01b.jpg,0,0.0,0.0,0,91,91,91,,,,,,,,,,,,,212.00316600000224,0.003166000002238434,None,,398.048206499996,398.048206499996,398.048206499996,398.048206499996,398.048206499996,398.048206499996,398.048206499996,398.048206499996,398.048206499996,398.048206499996,001,P001,2025_Jan_17_1811,ConditionRich,2021.2.3,59.931809584987455,
212.75,216.0,41,0.0,Stimuli/Blank.png,1,0.25,1.0,0,92,92,92,,,,,,,,,,,,,212.75404290000006,0.00404290000005858,5,1.2229549999974552,398.7988650999978,398.7988650999978,398.7988650999978,398.7988650999978,398.7988650999978,398.7988650999978,399.0324537999986,399.7830790000007,398.7988650999978,398.7988650999978,001,P001,2025_Jan_17_1811,ConditionRich,2021.2.3,59.931809584987455,
216.0,216.75,8,0.75,Stimuli/P001/sun_asqboyqakusycvwd.jpg,0,0.0,0.0,0,93,93,93,,,,,,,,,,,,,216.00659630000155,0.006596300001547206,None,,402.06843310000113,402.06843310000113,402.06843310000113,402.06843310000113,402.06843310000113,402.06843310000113,402.06843310000113,402.06843310000113,402.06843310000113,402.06843310000113,001,P001,2025_Jan_17_1811,ConditionRich,2021.2.3,59.931809584987455,
216.75,220.0,41,0.0,Stimuli/Blank.png,0,0.0,0.0,0,94,94,94,,,,,,,,,,,,,216.77500310000323,0.025003100003232248,5,3.2028310999958194,402.81908299999486,402.81908299999486,402.81908299999486,402.81908299999486,402.81908299999486,402.81908299999486,402.81908299999486,402.81908299999486,402.81908299999486,402.81908299999486,001,P001,2025_Jan_17_1811,ConditionRich,2021.2.3,59.931809584987455,
220.0,220.75,39,0.75,Stimuli/P001/things_woman_01b.jpg,0,0.0,0.0,0,95,95,95,,,,,,,,,,,,,220.01088280000113,0.01088280000112718,None,,406.07194109999546,406.07194109999546,406.07194109999546,406.07194109999546,406.07194109999546,406.07194109999546,406.07194109999546,406.07194109999546,406.07194109999546,406.07194109999546,001,P001,2025_Jan_17_1811,ConditionRich,2021.2.3,59.931809584987455,
220.75,224.0,41,0.0,Stimuli/Blank.png,0,0.0,0.0,0,96,96,96,,,,,,,,,,,,,220.77949210000224,0.029492100002244115,5,3.182645599998068,406.83931169999414,406.83931169999414,406.83931169999414,406.83931169999414,406.83931169999414,406.83931169999414,406.83931169999414,406.83931169999414,406.83931169999414,406.83931169999414,001,P001,2025_Jan_17_1811,ConditionRich,2021.2.3,59.931809584987455,
224.0,224.75,3,0.75,Stimuli/P001/sun_amarqtinchblqmah.jpg,0,0.0,0.0,0,97,97,97,,,,,,,,,,,,,224.01406739999948,0.014067399999476038,None,,410.0588115999999,410.0588115999999,410.0588115999999,410.0588115999999,410.0588115999999,410.0588115999999,410.0588115999999,410.0588115999999,410.0588115999999,410.0588115999999,001,P001,2025_Jan_17_1811,ConditionRich,2021.2.3,59.931809584987455,
224.75,228.0,41,0.0,Stimuli/Blank.png,0,0.0,0.0,0,98,98,98,,,,,,,,,,,,,224.76493109999865,0.014931099998648278,5,1.2124825999999302,410.80948279999575,410.80948279999575,410.80948279999575,410.80948279999575,410.80948279999575,410.80948279999575,410.80948279999575,410.80948279999575,410.80948279999575,410.80948279999575,001,P001,2025_Jan_17_1811,ConditionRich,2021.2.3,59.931809584987455,
228.0,228.75,14,0.75,Stimuli/P001/sun_bfgxassmmvhtarcc.jpg,0,0.0,0.0,0,99,99,99,,,,,,,,,,,,,228.00085209999816,0.0008520999981556088,None,,414.0456694999957,414.0456694999957,414.0456694999957,414.0456694999957,414.0456694999957,414.0456694999957,414.0456694999957,414.0456694999957,414.0456694999957,414.0456694999957,001,P001,2025_Jan_17_1811,ConditionRich,2021.2.3,59.931809584987455,
228.75,232.0,41,0.0,Stimuli/Blank.png,0,0.0,0.0,0,100,100,100,,,,,,,,,,,,,228.75089019999723,0.0008901999972295016,5,1.2254223999989335,414.7963296999951,414.7963296999951,414.7963296999951,414.7963296999951,414.7963296999951,414.7963296999951,414.7963296999951,414.7963296999951,414.7963296999951,414.7963296999951,001,P001,2025_Jan_17_1811,ConditionRich,2021.2.3,59.931809584987455,
232.0,232.75,16,0.75,Stimuli/P001/sun_biqyomkjbujnppuf.jpg,0,0.0,0.0,0,101,101,101,,,,,,,,,,,,,232.00402159999794,0.004021599997940939,None,,418.04920349999884,418.04920349999884,418.04920349999884,418.04920349999884,418.04920349999884,418.04920349999884,418.04920349999884,418.04920349999884,418.04920349999884,418.04920349999884,001,P001,2025_Jan_17_1811,ConditionRich,2021.2.3,59.931809584987455,
232.75,236.0,41,0.0,Stimuli/Blank.png,0,0.0,0.0,0,102,102,102,,,,,,,,,,,,,232.7560209000003,0.006020900000294205,5,3.2052382999972906,418.81658590000006,418.81658590000006,418.81658590000006,418.81658590000006,418.81658590000006,418.81658590000006,418.81658590000006,418.81658590000006,418.81658590000006,418.81658590000006,001,P001,2025_Jan_17_1811,ConditionRich,2021.2.3,59.931809584987455,
236.0,236.75,5,0.75,Stimuli/P001/sun_apwzcrxhvvnrexjh.jpg,0,0.0,0.0,0,103,103,103,,,,,,,,,,,,,236.02485069999966,0.02485069999966072,None,,422.0861051999964,422.0861051999964,422.0861051999964,422.0861051999964,422.0861051999964,422.0861051999964,422.0861051999964,422.0861051999964,422.0861051999964,422.0861051999964,001,P001,2025_Jan_17_1811,ConditionRich,2021.2.3,59.931809584987455,
236.75,240.0,41,0.0,Stimuli/Blank.png,1,1.25,2.0,0,104,104,104,,,,,,,,,,,,,236.77589309999894,0.02589309999893885,5,3.1851458000019193,422.836765299995,422.836765299995,422.836765299995,422.836765299995,422.836765299995,422.836765299995,424.05450749999727,424.8051647999964,422.836765299995,422.836765299995,001,P001,2025_Jan_17_1811,ConditionRich,2021.2.3,59.931809584987455,
240.0,240.75,38,0.75,Stimuli/P001/things_windowsill_01b.jpg,0,0.0,0.0,0,105,105,105,,,,,,,,,,,,,240.03063700000348,0.030637000003480352,None,,426.0896571999983,426.0896571999983,426.0896571999983,426.0896571999983,426.0896571999983,426.0896571999983,426.0896571999983,426.0896571999983,426.0896571999983,426.0896571999983,001,P001,2025_Jan_17_1811,ConditionRich,2021.2.3,59.931809584987455,
240.75,244.0,41,0.0,Stimuli/Blank.png,1,1.25,2.0,0,106,106,106,,,,,,,,,,,,,240.7790735000017,0.029073500001686625,5,3.199263399998017,426.82363729999634,426.82363729999634,426.82363729999634,426.82363729999634,426.82363729999634,426.82363729999634,428.05804160000116,428.8087121999997,426.82363729999634,426.82363729999634,001,P001,2025_Jan_17_1811,ConditionRich,2021.2.3,59.931809584987455,
244.0,244.75,24,0.75,Stimuli/P001/things_cornucopia_01b.jpg,0,0.0,0.0,0,107,107,107,,,,,,,,,,,,,244.01546229999803,0.015462299998034723,None,,430.0765160999945,430.0765160999945,430.0765160999945,430.0765160999945,430.0765160999945,430.0765160999945,430.0765160999945,430.0765160999945,430.0765160999945,430.0765160999945,001,P001,2025_Jan_17_1811,ConditionRich,2021.2.3,59.931809584987455,
244.75,248.0,41,0.0,Stimuli/Blank.png,0,0.0,0.0,0,108,108,108,,,,,,,,,,,,,244.76550580000185,0.015505800001847092,5,1.212489799996547,430.8105055999986,430.8105055999986,430.8105055999986,430.8105055999986,430.8105055999986,430.8105055999986,430.8105055999986,430.8105055999986,430.8105055999986,430.8105055999986,001,P001,2025_Jan_17_1811,ConditionRich,2021.2.3,59.931809584987455,
248.0,248.75,9,0.75,Stimuli/P001/sun_awtltwwpwbepuuqv.jpg,0,0.0,0.0,0,109,109,109,,,,,,,,,,,,,248.0018185000008,0.0018185000008088537,None,,434.0633525000012,434.0633525000012,434.0633525000012,434.0633525000012,434.0633525000012,434.0633525000012,434.0633525000012,434.0633525000012,434.0633525000012,434.0633525000012,001,P001,2025_Jan_17_1811,ConditionRich,2021.2.3,59.931809584987455,
248.75,252.0,41,0.0,Stimuli/Blank.png,1,2.25,3.0,0,110,110,110,,,,,,,,,,,,,248.7694702000008,0.019470200000796467,3,2.5778356000009808,434.8140192999999,434.8140192999999,434.8140192999999,434.8140192999999,434.8140192999999,434.8140192999999,437.04932359999657,437.7999884999954,434.8140192999999,434.8140192999999,001,P001,2025_Jan_17_1811,ConditionRich,2021.2.3,59.931809584987455,
252.0,252.75,35,0.75,Stimuli/P001/things_pepperoni_01b.jpg,0,0.0,0.0,0,111,111,111,,,,,,,,,,,,,252.0057728000029,0.005772800002887379,None,,438.05021589999524,438.05021589999524,438.05021589999524,438.05021589999524,438.05021589999524,438.05021589999524,438.05021589999524,438.05021589999524,438.05021589999524,438.05021589999524,001,P001,2025_Jan_17_1811,ConditionRich,2021.2.3,59.931809584987455,
252.75,256.0,41,0.0,Stimuli/Blank.png,0,0.0,0.0,0,112,112,112,,,,,,,,,,,,,252.75544459999946,0.005444599999464117,5,1.2218950000024051,438.80086930000107,438.80086930000107,438.80086930000107,438.80086930000107,438.80086930000107,438.80086930000107,438.80086930000107,438.80086930000107,438.80086930000107,438.80086930000107,001,P001,2025_Jan_17_1811,ConditionRich,2021.2.3,59.931809584987455,
256.0,256.75,33,0.75,Stimuli/P001/things_pan_01b.jpg,0,0.0,0.0,0,113,113,113,,,,,,,,,,,,,256.0097874999992,0.009787499999220017,None,,442.0704362999968,442.0704362999968,442.0704362999968,442.0704362999968,442.0704362999968,442.0704362999968,442.0704362999968,442.0704362999968,442.0704362999968,442.0704362999968,001,P001,2025_Jan_17_1811,ConditionRich,2021.2.3,59.931809584987455,
256.75,260.0,41,0.0,Stimuli/Blank.png,0,0.0,0.0,0,114,114,114,,,,,,,,,,,,,256.77588110000215,0.02588110000215238,5,3.2017200000045705,442.82108999999764,442.82108999999764,442.82108999999764,442.82108999999764,442.82108999999764,442.82108999999764,442.82108999999764,442.82108999999764,442.82108999999764,442.82108999999764,001,P001,2025_Jan_17_1811,ConditionRich,2021.2.3,59.931809584987455,
260.0,260.75,30,0.75,Stimuli/P001/things_iguana_01b.jpg,0,0.0,0.0,0,115,115,115,,,,,,,,,,,,,260.012232400004,0.01223240000399528,None,,446.05728429999726,446.05728429999726,446.05728429999726,446.05728429999726,446.05728429999726,446.05728429999726,446.05728429999726,446.05728429999726,446.05728429999726,446.05728429999726,001,P001,2025_Jan_17_1811,ConditionRich,2021.2.3,59.931809584987455,
260.75,264.0,41,0.0,Stimuli/Blank.png,0,0.0,0.0,0,116,116,116,,,,,,,,,,,,,260.7654748999994,0.01547489999938989,5,3.1981249999953434,446.8246433999957,446.8246433999957,446.8246433999957,446.8246433999957,446.8246433999957,446.8246433999957,446.8246433999957,446.8246433999957,446.8246433999957,446.8246433999957,001,P001,2025_Jan_17_1811,ConditionRich,2021.2.3,59.931809584987455,
264.0,264.75,10,0.75,Stimuli/P001/sun_aykefnhciwsffcrj.jpg,0,0.0,0.0,0,117,117,117,,,,,,,,,,,,,264.0156876999972,0.015687699997215532,None,,450.0608643999949,450.0608643999949,450.0608643999949,450.0608643999949,450.0608643999949,450.0608643999949,450.0608643999949,450.0608643999949,450.0608643999949,450.0608643999949,001,P001,2025_Jan_17_1811,ConditionRich,2021.2.3,59.931809584987455,
264.75,268.0,41,0.0,Stimuli/Blank.png,0,0.0,0.0,0,118,118,118,,,,,,,,,,,,,264.7499682999987,-3.170000127283856e-05,5,1.228016299995943,450.7948064999946,450.7948064999946,450.7948064999946,450.7948064999946,450.7948064999946,450.7948064999946,450.7948064999946,450.7948064999946,450.7948064999946,450.7948064999946,001,P001,2025_Jan_17_1811,ConditionRich,2021.2.3,59.931809584987455,
268.0,268.75,28,0.75,Stimuli/P001/things_girl_01b.jpg,0,0.0,0.0,0,119,119,119,,,,,,,,,,,,,268.00380869999935,0.0038086999993538484,None,,454.06435899999633,454.06435899999633,454.06435899999633,454.06435899999633,454.06435899999633,454.06435899999633,454.06435899999633,454.06435899999633,454.06435899999633,454.06435899999633,001,P001,2025_Jan_17_1811,ConditionRich,2021.2.3,59.931809584987455,
268.75,272.0,41,0.0,Stimuli/Blank.png,0,0.0,0.0,0,120,120,120,,,,,,,,,,,,,268.7710273999983,0.021027399998274632,5,3.191139900001872,454.8317113999947,454.8317113999947,454.8317113999947,454.8317113999947,454.8317113999947,454.8317113999947,454.8317113999947,454.8317113999947,454.8317113999947,454.8317113999947,001,P001,2025_Jan_17_1811,ConditionRich,2021.2.3,59.931809584987455,
272.0,272.75,17,0.75,Stimuli/P001/sun_bshgmgbmpvjkxfis.jpg,0,0.0,0.0,0,121,121,121,,,,,,,,,,,,,272.02566300000035,0.02566300000034971,None,,458.0846104000011,458.0846104000011,458.0846104000011,458.0846104000011,458.0846104000011,458.0846104000011,458.0846104000011,458.0846104000011,458.0846104000011,458.0846104000011,001,P001,2025_Jan_17_1811,ConditionRich,2021.2.3,59.931809584987455,
272.75,276.0,41,0.0,Stimuli/Blank.png,0,0.0,0.0,0,122,122,122,,,,,,,,,,,,,272.77439179999783,0.024391799997829366,5,3.2044919000036316,458.8185644999976,458.8185644999976,458.8185644999976,458.8185644999976,458.8185644999976,458.8185644999976,458.8185644999976,458.8185644999976,458.8185644999976,458.8185644999976,001,P001,2025_Jan_17_1811,ConditionRich,2021.2.3,59.931809584987455,
276.0,292.0,0,0.0,Stimuli/Blank.png,1,8.0,8.75,0,123,123,123,,,,,,,,,,,,,276.0103048000019,0.010304800001904368,5,13.968279599997913,462.0547720999966,462.0547720999966,462.0547720999966,462.0547720999966,462.0547720999966,462.0547720999966,470.045151499995,470.7958127999955,462.0547720999966,462.0547720999966,001,P001,2025_Jan_17_1811,ConditionRich,2021.2.3,59.931809584987455,
292.0,292.75,29,0.75,Stimuli/P001/things_grinder_01b.jpg,0,0.0,0.0,0,124,124,124,,,,,,,,,,,,,292.0072951999973,0.007295199997315649,None,,478.05222469999717,478.05222469999717,478.05222469999717,478.05222469999717,478.05222469999717,478.05222469999717,478.05222469999717,478.05222469999717,478.05222469999717,478.05222469999717,001,P001,2025_Jan_17_1811,ConditionRich,2021.2.3,59.931809584987455,
292.75,296.0,41,0.0,Stimuli/Blank.png,0,0.0,0.0,0,125,125,125,,,,,,,,,,,,,292.7597517000031,0.009751700003107544,5,3.203226799996628,478.8195698999989,478.8195698999989,478.8195698999989,478.8195698999989,478.8195698999989,478.8195698999989,478.8195698999989,478.8195698999989,478.8195698999989,478.8195698999989,001,P001,2025_Jan_17_1811,ConditionRich,2021.2.3,59.931809584987455,
296.0,296.75,23,0.75,Stimuli/P001/things_chick_01b.jpg,0,0.0,0.0,0,126,126,126,,,,,,,,,,,,,296.029763999999,0.029763999998976942,None,,482.0891293999957,482.0891293999957,482.0891293999957,482.0891293999957,482.0891293999957,482.0891293999957,482.0891293999957,482.0891293999957,482.0891293999957,482.0891293999957,001,P001,2025_Jan_17_1811,ConditionRich,2021.2.3,59.931809584987455,
296.75,300.0,41,0.0,Stimuli/Blank.png,1,2.25,3.0,0,127,127,127,,,,,,,,,,,,,296.77782619999925,0.02782619999925373,5,3.1998289999974077,482.8231057000012,482.8231057000012,482.8231057000012,482.8231057000012,482.8231057000012,482.8231057000012,485.0584419000006,485.8090824999963,482.8231057000012,482.8231057000012,001,P001,2025_Jan_17_1811,ConditionRich,2021.2.3,59.931809584987455,
300.0,300.75,4,0.75,Stimuli/P001/sun_aonjwqswdblhlpkm.jpg,0,0.0,0.0,0,128,128,128,,,,,,,,,,,,,300.01415270000143,0.014152700001432095,None,,486.05976139999984,486.05976139999984,486.05976139999984,486.05976139999984,486.05976139999984,486.05976139999984,486.05976139999984,486.05976139999984,486.05976139999984,486.05976139999984,001,P001,2025_Jan_17_1811,ConditionRich,2021.2.3,59.931809584987455,
300.75,304.0,41,0.0,Stimuli/Blank.png,0,0.0,0.0,0,129,129,129,,,,,,,,,,,,,300.76515949999884,0.015159499998844694,5,1.2129618999970262,486.8099702999971,486.8099702999971,486.8099702999971,486.8099702999971,486.8099702999971,486.8099702999971,486.8099702999971,486.8099702999971,486.8099702999971,486.8099702999971,001,P001,2025_Jan_17_1811,ConditionRich,2021.2.3,59.931809584987455,
304.0,304.75,37,0.75,Stimuli/P001/things_starfish_01b.jpg,1,0.0,0.75,0,130,130,130,,,,,,,,,,,,,304.00150140000187,0.001501400001870934,3,0.5311944999994012,490.0628519999955,490.0628519999955,490.0628519999955,490.0628519999955,490.0628519999955,490.0628519999955,490.0628519999955,490.78014699999767,490.0628519999955,490.0628519999955,001,P001,2025_Jan_17_1811,ConditionRich,2021.2.3,59.931809584987455,
304.75,308.0,41,0.0,Stimuli/Blank.png,0,0.0,0.0,0,131,131,131,,,,,,,,,,,,,304.7695148999992,0.019514899999194313,5,1.2093223999982001,490.81351169999834,490.81351169999834,490.81351169999834,490.81351169999834,490.81351169999834,490.81351169999834,490.81351169999834,490.81351169999834,490.81351169999834,490.81351169999834,001,P001,2025_Jan_17_1811,ConditionRich,2021.2.3,59.931809584987455,
308.0,308.75,40,0.75,Stimuli/P001/things_worm_01b.jpg,0,0.0,0.0,0,132,132,132,,,,,,,,,,,,,308.00563580000016,0.0056358000001637265,None,,494.06635419999657,494.06635419999657,494.06635419999657,494.06635419999657,494.06635419999657,494.06635419999657,494.06635419999657,494.06635419999657,494.06635419999657,494.06635419999657,001,P001,2025_Jan_17_1811,ConditionRich,2021.2.3,59.931809584987455,
308.75,312.0,41,0.0,Stimuli/Blank.png,0,0.0,0.0,0,133,133,133,,,,,,,,,,,,,308.77468509999744,0.024685099997441284,5,3.189429400001245,494.83372509999754,494.83372509999754,494.83372509999754,494.83372509999754,494.83372509999754,494.83372509999754,494.83372509999754,494.83372509999754,494.83372509999754,494.83372509999754,001,P001,2025_Jan_17_1811,ConditionRich,2021.2.3,59.931809584987455,
312.0,312.75,18,0.75,Stimuli/P001/sun_bzjegfvyrvqtunza.jpg,0,0.0,0.0,0,134,134,134,,,,,,,,,,,,,312.0256747000021,0.025674700002127793,None,,498.0866001999966,498.0866001999966,498.0866001999966,498.0866001999966,498.0866001999966,498.0866001999966,498.0866001999966,498.0866001999966,498.0866001999966,498.0866001999966,001,P001,2025_Jan_17_1811,ConditionRich,2021.2.3,59.931809584987455,
312.75,316.0,41,0.0,Stimuli/Blank.png,0,0.0,0.0,0,135,135,135,,,,,,,,,,,,,312.7751416000028,0.025141600002825726,5,3.202229200003785,498.8205777999974,498.8205777999974,498.8205777999974,498.8205777999974,498.8205777999974,498.8205777999974,498.8205777999974,498.8205777999974,498.8205777999974,498.8205777999974,001,P001,2025_Jan_17_1811,ConditionRich,2021.2.3,59.931809584987455,
316.0,316.75,12,0.75,Stimuli/P001/sun_bdxvmnlyovhqognn.jpg,0,0.0,0.0,0,136,136,136,,,,,,,,,,,,,316.0122904000018,0.012290400001802482,None,,502.05677260000084,502.05677260000084,502.05677260000084,502.05677260000084,502.05677260000084,502.05677260000084,502.05677260000084,502.05677260000084,502.05677260000084,502.05677260000084,001,P001,2025_Jan_17_1811,ConditionRich,2021.2.3,59.931809584987455,
316.75,320.0,41,0.0,Stimuli/Blank.png,0,0.0,0.0,0,137,137,137,,,,,,,,,,,,,316.7619584999993,0.011958499999309424,5,3.215512700000545,502.80743169999914,502.80743169999914,502.80743169999914,502.80743169999914,502.80743169999914,502.80743169999914,502.80743169999914,502.80743169999914,502.80743169999914,502.80743169999914,001,P001,2025_Jan_17_1811,ConditionRich,2021.2.3,59.931809584987455,
320.0,320.75,11,0.75,Stimuli/P001/sun_bbfdgdyeqdnadvvi.jpg,0,0.0,0.0,0,138,138,138,,,,,,,,,,,,,320.0159333999982,0.015933399998175446,None,,506.0770077999987,506.0770077999987,506.0770077999987,506.0770077999987,506.0770077999987,506.0770077999987,506.0770077999987,506.0770077999987,506.0770077999987,506.0770077999987,001,P001,2025_Jan_17_1811,ConditionRich,2021.2.3,59.931809584987455,
320.75,324.0,41,0.0,Stimuli/Blank.png,0,0.0,0.0,0,139,139,139,,,,,,,,,,,,,320.76570060000086,0.015700600000855047,5,1.2118919999993523,506.81096139999863,506.81096139999863,506.81096139999863,506.81096139999863,506.81096139999863,506.81096139999863,506.81096139999863,506.81096139999863,506.81096139999863,506.81096139999863,001,P001,2025_Jan_17_1811,ConditionRich,2021.2.3,59.931809584987455,
324.0,324.75,31,0.75,Stimuli/P001/things_man_01b.jpg,0,0.0,0.0,0,140,140,140,,,,,,,,,,,,,324.0029336000007,0.002933600000687875,None,,510.06384529999923,510.06384529999923,510.06384529999923,510.06384529999923,510.06384529999923,510.06384529999923,510.06384529999923,510.06384529999923,510.06384529999923,510.06384529999923,001,P001,2025_Jan_17_1811,ConditionRich,2021.2.3,59.931809584987455,
324.75,328.0,41,0.0,Stimuli/Blank.png,0,0.0,0.0,0,141,141,141,,,,,,,,,,,,,324.76922280000144,0.01922280000144383,5,1.2083157999950345,510.81450849999965,510.81450849999965,510.81450849999965,510.81450849999965,510.81450849999965,510.81450849999965,510.81450849999965,510.81450849999965,510.81450849999965,510.81450849999965,001,P001,2025_Jan_17_1811,ConditionRich,2021.2.3,59.931809584987455,
328.0,328.75,2,0.75,Stimuli/P001/sun_akmxsxepquhynflp.jpg,0,0.0,0.0,0,142,142,142,,,,,,,,,,,,,328.006029199998,0.006029199998010881,None,,514.0506979999991,514.0506979999991,514.0506979999991,514.0506979999991,514.0506979999991,514.0506979999991,514.0506979999991,514.0506979999991,514.0506979999991,514.0506979999991,001,P001,2025_Jan_17_1811,ConditionRich,2021.2.3,59.931809584987455,
328.75,332.0,41,0.0,Stimuli/Blank.png,1,2.25,3.0,0,143,143,143,,,,,,,,,,,,,328.756003399998,0.006003399998007808,3,2.672587500004738,514.8013628999979,514.8013628999979,514.8013628999979,514.8013628999979,514.8013628999979,514.8013628999979,517.0366594999941,517.7873718999981,514.8013628999979,514.8013628999979,001,P001,2025_Jan_17_1811,ConditionRich,2021.2.3,59.931809584987455,
332.0,332.75,32,0.75,Stimuli/P001/things_oyster_01b.jpg,0,0.0,0.0,0,144,144,144,,,,,,,,,,,,,332.00911310000083,0.009113100000831764,None,,518.0542408999972,518.0542408999972,518.0542408999972,518.0542408999972,518.0542408999972,518.0542408999972,518.0542408999972,518.0542408999972,518.0542408999972,518.0542408999972,001,P001,2025_Jan_17_1811,ConditionRich,2021.2.3,59.931809584987455,
332.75,336.0,41,0.0,Stimuli/Blank.png,0,0.0,0.0,0,145,145,145,,,,,,,,,,,,,332.7604138000024,0.010413800002424978,5,3.2179620000024443,518.8048989999952,518.8048989999952,518.8048989999952,518.8048989999952,518.8048989999952,518.8048989999952,518.8048989999952,518.8048989999952,518.8048989999952,518.8048989999952,001,P001,2025_Jan_17_1811,ConditionRich,2021.2.3,59.931809584987455,
336.0,336.75,1,0.75,Stimuli/P001/sun_agpgdwkhzgvzdaea.jpg,0,0.0,0.0,0,146,146,146,,,,,,,,,,,,,336.01402119999693,0.01402119999693241,None,,522.0744473000013,522.0744473000013,522.0744473000013,522.0744473000013,522.0744473000013,522.0744473000013,522.0744473000013,522.0744473000013,522.0744473000013,522.0744473000013,001,P001,2025_Jan_17_1811,ConditionRich,2021.2.3,59.931809584987455,
336.75,340.0,41,0.0,Stimuli/Blank.png,0,0.0,0.0,0,147,147,147,,,,,,,,,,,,,336.78198610000254,0.03198610000254121,5,1.1976458999997703,522.8251305999947,522.8251305999947,522.8251305999947,522.8251305999947,522.8251305999947,522.8251305999947,522.8251305999947,522.8251305999947,522.8251305999947,522.8251305999947,001,P001,2025_Jan_17_1811,ConditionRich,2021.2.3,59.931809584987455,
340.0,340.75,13,0.75,Stimuli/P001/sun_bfdmlbkyioxnkodb.jpg,0,0.0,0.0,0,148,148,148,,,,,,,,,,,,,339.9998409999971,-0.00015900000289548188,None,,526.0446303999997,526.0446303999997,526.0446303999997,526.0446303999997,526.0446303999997,526.0446303999997,526.0446303999997,526.0446303999997,526.0446303999997,526.0446303999997,001,P001,2025_Jan_17_1811,ConditionRich,2021.2.3,59.931809584987455,
340.75,344.0,41,0.0,Stimuli/Blank.png,0,0.0,0.0,0,149,149,149,,,,,,,,,,,,,340.7500349999973,3.499999729683623e-05,5,1.2275091999981669,526.7953415999946,526.7953415999946,526.7953415999946,526.7953415999946,526.7953415999946,526.7953415999946,526.7953415999946,526.7953415999946,526.7953415999946,526.7953415999946,001,P001,2025_Jan_17_1811,ConditionRich,2021.2.3,59.931809584987455,
344.0,344.75,7,0.75,Stimuli/P001/sun_arlesyjqxmqmcccl.jpg,0,0.0,0.0,0,150,150,150,,,,,,,,,,,,,344.0039493000004,0.003949300000385847,None,,530.0648485999991,530.0648485999991,530.0648485999991,530.0648485999991,530.0648485999991,530.0648485999991,530.0648485999991,530.0648485999991,530.0648485999991,530.0648485999991,001,P001,2025_Jan_17_1811,ConditionRich,2021.2.3,59.931809584987455,
344.75,348.0,41,0.0,Stimuli/Blank.png,0,0.0,0.0,0,151,151,151,,,,,,,,,,,,,344.77055290000135,0.020552900001348462,5,1.2075053000007756,530.815509299995,530.815509299995,530.815509299995,530.815509299995,530.815509299995,530.815509299995,530.815509299995,530.815509299995,530.815509299995,530.815509299995,001,P001,2025_Jan_17_1811,ConditionRich,2021.2.3,59.931809584987455,
348.0,348.75,27,0.75,Stimuli/P001/things_dynamite_01b.jpg,0,0.0,0.0,0,152,152,152,,,,,,,,,,,,,348.00741890000063,0.007418900000629947,None,,534.0683926999991,534.0683926999991,534.0683926999991,534.0683926999991,534.0683926999991,534.0683926999991,534.0683926999991,534.0683926999991,534.0683926999991,534.0683926999991,001,P001,2025_Jan_17_1811,ConditionRich,2021.2.3,59.931809584987455,
348.75,352.0,41,0.0,Stimuli/Blank.png,0,0.0,0.0,0,153,153,153,,,,,,,,,,,,,348.77436149999994,0.02436149999994086,5,3.2038872000048286,534.8190555999972,534.8190555999972,534.8190555999972,534.8190555999972,534.8190555999972,534.8190555999972,534.8190555999972,534.8190555999972,534.8190555999972,534.8190555999972,001,P001,2025_Jan_17_1811,ConditionRich,2021.2.3,59.931809584987455,
352.0,352.75,36,0.75,Stimuli/P001/things_stalagmite_01b.jpg,0,0.0,0.0,0,154,154,154,,,,,,,,,,,,,352.0099887999968,0.009988799996790476,None,,538.0552466999943,538.0552466999943,538.0552466999943,538.0552466999943,538.0552466999943,538.0552466999943,538.0552466999943,538.0552466999943,538.0552466999943,538.0552466999943,001,P001,2025_Jan_17_1811,ConditionRich,2021.2.3,59.931809584987455,
352.75,356.0,41,0.0,Stimuli/Blank.png,0,0.0,0.0,0,155,155,155,,,,,,,,,,,,,352.76096349999716,0.010963499997160397,5,3.2170446000018273,538.8059078000006,538.8059078000006,538.8059078000006,538.8059078000006,538.8059078000006,538.8059078000006,538.8059078000006,538.8059078000006,538.8059078000006,538.8059078000006,001,P001,2025_Jan_17_1811,ConditionRich,2021.2.3,59.931809584987455,
356.0,356.75,6,0.75,Stimuli/P001/sun_aqbaaqeojrexbmcr.jpg,0,0.0,0.0,0,156,156,156,,,,,,,,,,,,,356.01376639999944,0.013766399999440182,None,,542.0587802000009,542.0587802000009,542.0587802000009,542.0587802000009,542.0587802000009,542.0587802000009,542.0587802000009,542.0587802000009,542.0587802000009,542.0587802000009,001,P001,2025_Jan_17_1811,ConditionRich,2021.2.3,59.931809584987455,
356.75,360.0,41,0.0,Stimuli/Blank.png,0,0.0,0.0,0,157,157,157,,,,,,,,,,,,,356.76488499999687,0.0148849999968661,5,1.2133403999978327,542.8094601999983,542.8094601999983,542.8094601999983,542.8094601999983,542.8094601999983,542.8094601999983,542.8094601999983,542.8094601999983,542.8094601999983,542.8094601999983,001,P001,2025_Jan_17_1811,ConditionRich,2021.2.3,59.931809584987455,
360.0,360.75,22,0.75,Stimuli/P001/things_boy_01b.jpg,1,0.0,0.75,0,158,158,158,,,,,,,,,,,,,360.00035449999996,0.0003544999999576248,3,0.46315100000356324,546.0456341999961,546.0456341999961,546.0456341999961,546.0456341999961,546.0456341999961,546.0456341999961,546.0456341999961,546.7796106999958,546.0456341999961,546.0456341999961,001,P001,2025_Jan_17_1811,ConditionRich,2021.2.3,59.931809584987455,
360.75,364.0,41,0.0,Stimuli/Blank.png,0,0.0,0.0,0,159,159,159,,,,,,,,,,,,,360.752032999997,0.0020329999970272183,5,1.226361499997438,546.7963730999982,546.7963730999982,546.7963730999982,546.7963730999982,546.7963730999982,546.7963730999982,546.7963730999982,546.7963730999982,546.7963730999982,546.7963730999982,001,P001,2025_Jan_17_1811,ConditionRich,2021.2.3,59.931809584987455,
364.0,364.75,15,0.75,Stimuli/P001/sun_bfzoxbkvsfqxsyle.jpg,0,0.0,0.0,0,160,160,160,,,,,,,,,,,,,364.00520150000375,0.00520150000374997,None,,550.0658713999946,550.0658713999946,550.0658713999946,550.0658713999946,550.0658713999946,550.0658713999946,550.0658713999946,550.0658713999946,550.0658713999946,550.0658713999946,001,P001,2025_Jan_17_1811,ConditionRich,2021.2.3,59.931809584987455,
364.75,368.0,41,0.0,Stimuli/Blank.png,0,0.0,0.0,0,161,161,161,,,,,,,,,,,,,364.77134880000085,0.021348800000851043,5,1.206360099997255,550.8165262999973,550.8165262999973,550.8165262999973,550.8165262999973,550.8165262999973,550.8165262999973,550.8165262999973,550.8165262999973,550.8165262999973,550.8165262999973,001,P001,2025_Jan_17_1811,ConditionRich,2021.2.3,59.931809584987455,
368.0,368.75,19,0.75,Stimuli/P001/sun_bzyyqqczvrnvukdn.jpg,0,0.0,0.0,0,162,162,162,,,,,,,,,,,,,368.0099537999995,0.00995379999949364,None,,554.0693944000013,554.0693944000013,554.0693944000013,554.0693944000013,554.0693944000013,554.0693944000013,554.0693944000013,554.0693944000013,554.0693944000013,554.0693944000013,001,P001,2025_Jan_17_1811,ConditionRich,2021.2.3,59.931809584987455,
368.75,372.0,41,0.0,Stimuli/Blank.png,0,0.0,0.0,0,163,163,163,,,,,,,,,,,,,368.77601510000386,0.026015100003860425,5,3.186175800001365,554.8367572999996,554.8367572999996,554.8367572999996,554.8367572999996,554.8367572999996,554.8367572999996,554.8367572999996,554.8367572999996,554.8367572999996,554.8367572999996,001,P001,2025_Jan_17_1811,ConditionRich,2021.2.3,59.931809584987455,
372.0,388.0,0,0.0,Stimuli/Blank.png,1,9.0,9.75,0,164,164,164,,,,,,,,,,,,,372.030013399999,0.03001339999900665,5,13.933193600001687,558.089616899997,558.089616899997,558.089616899997,558.089616899997,558.089616899997,558.089616899997,567.0642050999959,567.8148688000001,558.089616899997,558.089616899997,001,P001,2025_Jan_17_1811,ConditionRich,2021.2.3,59.931809584987455,
