eventStartTime,eventEndTime,eventCond,imSize,imFile,responseEvent,fixRespStart,fixRespEnd,Events.thisRepN,Events.thisTrialN,Events.thisN,Events.thisIndex,Instructions.started,Instructions.stopped,participantReadyResponse.keys,participantReadyResponse.rt,participantReadyResponse.started,participantReadyResponse.stopped,startWaitforTrigger,triggerResponse.keys,triggerResponse.rt,triggerResponse.started,triggerResponse.stopped,globalTimer,actualStartTime,startTimingDiff,participantResponse.keys,participantResponse.rt,participantResponse.started,participantResponse.stopped,image.started,image.stopped,fixationOutside.started,fixationOutside.stopped,fixationResponse.started,fixationResponse.stopped,fixationInside.started,fixationInside.stopped,session,participant,date,expName,psychopyVersion,frameRate,
,,,,,,,,,,,,15.156903499999316,None,3,2.034770500002196,15.156903499999316,None,,,,,,,,,,,,,,,,,,,,,004,P001,2025_Jan_17_1838,ConditionRich,2021.2.3,59.95894011839048,
,,,,,,,,,,,,,,,,,,17.19814469999983,5,13.861468800001603,17.21102930000052,None,,,,,,,,,,,,,,,,004,P001,2025_Jan_17_1838,ConditionRich,2021.2.3,59.95894011839048,
0.0,4.0,0,0.0,Stimuli/Blank.png,0,0.0,0.0,0,0,0,0,,,,,,,,,,,,31.07913220000046,0.027818899994599633,0.027818899994599633,5,1.9566082000019378,31.116198499999882,None,31.116198499999882,None,31.116198499999882,None,31.116198499999882,31.116198499999882,31.116198499999882,None,004,P001,2025_Jan_17_1838,ConditionRich,2021.2.3,59.95894011839048,
4.0,4.75,9,0.75,Stimuli/P001/sun_awtltwwpwbepuuqv.jpg,0,0.0,0.0,0,1,1,1,,,,,,,,,,,,,4.001169699993625,0.0011696999936248176,None,,35.09421269999439,35.09421269999439,35.09421269999439,35.09421269999439,35.09421269999439,35.09421269999439,35.09421269999439,35.09421269999439,35.09421269999439,35.09421269999439,004,P001,2025_Jan_17_1838,ConditionRich,2021.2.3,59.95894011839048,
4.75,8.0,41,0.0,Stimuli/Blank.png,0,0.0,0.0,0,2,2,2,,,,,,,,,,,,,4.753420599998208,0.003420599998207763,5,1.2245164999985718,35.84753789999377,35.84753789999377,35.84753789999377,35.84753789999377,35.84753789999377,35.84753789999377,35.84753789999377,35.84753789999377,35.84753789999377,35.84753789999377,004,P001,2025_Jan_17_1838,ConditionRich,2021.2.3,59.95894011839048,
8.0,8.75,13,0.75,Stimuli/P001/sun_bfdmlbkyioxnkodb.jpg,0,0.0,0.0,0,3,3,3,,,,,,,,,,,,,8.004987099993741,0.00498709999374114,None,,39.09722079999483,39.09722079999483,39.09722079999483,39.09722079999483,39.09722079999483,39.09722079999483,39.09722079999483,39.09722079999483,39.09722079999483,39.09722079999483,004,P001,2025_Jan_17_1838,ConditionRich,2021.2.3,59.95894011839048,
8.75,12.0,41,0.0,Stimuli/Blank.png,0,0.0,0.0,0,4,4,4,,,,,,,,,,,,,8.755466399998113,0.005466399998113047,5,1.2244318000011845,39.84840019999683,39.84840019999683,39.84840019999683,39.84840019999683,39.84840019999683,39.84840019999683,39.84840019999683,39.84840019999683,39.84840019999683,39.84840019999683,004,P001,2025_Jan_17_1838,ConditionRich,2021.2.3,59.95894011839048,
12.0,12.75,26,0.75,Stimuli/P001/things_dish_01b.jpg,0,0.0,0.0,0,5,5,5,,,,,,,,,,,,,12.007387999998173,0.007387999998172745,None,,43.10068699999829,43.10068699999829,43.10068699999829,43.10068699999829,43.10068699999829,43.10068699999829,43.10068699999829,43.10068699999829,43.10068699999829,43.10068699999829,004,P001,2025_Jan_17_1838,ConditionRich,2021.2.3,59.95894011839048,
12.75,16.0,41,0.0,Stimuli/Blank.png,0,0.0,0.0,0,6,6,6,,,,,,,,,,,,,12.758772499997576,0.008772499997576233,5,1.221599000004062,43.851566899997124,43.851566899997124,43.851566899997124,43.851566899997124,43.851566899997124,43.851566899997124,43.851566899997124,43.851566899997124,43.851566899997124,43.851566899997124,004,P001,2025_Jan_17_1838,ConditionRich,2021.2.3,59.95894011839048,
16.0,16.75,22,0.75,Stimuli/P001/things_boy_01b.jpg,0,0.0,0.0,0,7,7,7,,,,,,,,,,,,,16.01230869999563,0.012308699995628558,None,,47.10478549999971,47.10478549999971,47.10478549999971,47.10478549999971,47.10478549999971,47.10478549999971,47.10478549999971,47.10478549999971,47.10478549999971,47.10478549999971,004,P001,2025_Jan_17_1838,ConditionRich,2021.2.3,59.95894011839048,
16.75,20.0,41,0.0,Stimuli/Blank.png,0,0.0,0.0,0,8,8,8,,,,,,,,,,,,,16.763316999997187,0.01331699999718694,5,1.2176331000009668,47.85513119999814,47.85513119999814,47.85513119999814,47.85513119999814,47.85513119999814,47.85513119999814,47.85513119999814,47.85513119999814,47.85513119999814,47.85513119999814,004,P001,2025_Jan_17_1838,ConditionRich,2021.2.3,59.95894011839048,
20.0,20.75,31,0.75,Stimuli/P001/things_man_01b.jpg,0,0.0,0.0,0,9,9,9,,,,,,,,,,,,,19.99936489999527,-0.0006351000047288835,None,,51.09151949999796,51.09151949999796,51.09151949999796,51.09151949999796,51.09151949999796,51.09151949999796,51.09151949999796,51.09151949999796,51.09151949999796,51.09151949999796,004,P001,2025_Jan_17_1838,ConditionRich,2021.2.3,59.95894011839048,
20.75,24.0,41,0.0,Stimuli/Blank.png,0,0.0,0.0,0,10,10,10,,,,,,,,,,,,,20.748753499996383,-0.0012465000036172569,5,1.2314497000043048,51.84175659999892,51.84175659999892,51.84175659999892,51.84175659999892,51.84175659999892,51.84175659999892,51.84175659999892,51.84175659999892,51.84175659999892,51.84175659999892,004,P001,2025_Jan_17_1838,ConditionRich,2021.2.3,59.95894011839048,
24.0,24.75,14,0.75,Stimuli/P001/sun_bfgxassmmvhtarcc.jpg,0,0.0,0.0,0,11,11,11,,,,,,,,,,,,,24.00405899999896,0.004058999998960644,None,,55.099113899996155,55.099113899996155,55.099113899996155,55.099113899996155,55.099113899996155,55.099113899996155,55.099113899996155,55.099113899996155,55.099113899996155,55.099113899996155,004,P001,2025_Jan_17_1838,ConditionRich,2021.2.3,59.95894011839048,
24.75,28.0,41,0.0,Stimuli/Blank.png,1,1.25,2.0,0,12,12,12,,,,,,,,,,,,,24.754379599995445,0.00437959999544546,3,1.631253800005652,55.84848919999786,55.84848919999786,55.84848919999786,55.84848919999786,55.84848919999786,55.84848919999786,57.09640170000057,57.847547399993346,55.84848919999786,55.84848919999786,004,P001,2025_Jan_17_1838,ConditionRich,2021.2.3,59.95894011839048,
28.0,28.75,1,0.75,Stimuli/P001/sun_agpgdwkhzgvzdaea.jpg,0,0.0,0.0,0,13,13,13,,,,,,,,,,,,,28.006072099997255,0.006072099997254554,None,,59.098688300000504,59.098688300000504,59.098688300000504,59.098688300000504,59.098688300000504,59.098688300000504,59.098688300000504,59.098688300000504,59.098688300000504,59.098688300000504,004,P001,2025_Jan_17_1838,ConditionRich,2021.2.3,59.95894011839048,
28.75,32.0,41,0.0,Stimuli/Blank.png,0,0.0,0.0,0,14,14,14,,,,,,,,,,,,,28.757904199999757,0.007904199999757111,5,1.222939999999653,59.850009699999646,59.850009699999646,59.850009699999646,59.850009699999646,59.850009699999646,59.850009699999646,59.850009699999646,59.850009699999646,59.850009699999646,59.850009699999646,004,P001,2025_Jan_17_1838,ConditionRich,2021.2.3,59.95894011839048,
32.0,32.75,5,0.75,Stimuli/P001/sun_apwzcrxhvvnrexjh.jpg,0,0.0,0.0,0,15,15,15,,,,,,,,,,,,,32.00918239999737,0.009182399997371249,None,,63.10463229999732,63.10463229999732,63.10463229999732,63.10463229999732,63.10463229999732,63.10463229999732,63.10463229999732,63.10463229999732,63.10463229999732,63.10463229999732,004,P001,2025_Jan_17_1838,ConditionRich,2021.2.3,59.95894011839048,
32.75,36.0,41,0.0,Stimuli/Blank.png,0,0.0,0.0,0,16,16,16,,,,,,,,,,,,,32.76051119999465,0.010511199994652998,5,3.220520499999111,63.85252929999842,63.85252929999842,63.85252929999842,63.85252929999842,63.85252929999842,63.85252929999842,63.85252929999842,63.85252929999842,63.85252929999842,63.85252929999842,004,P001,2025_Jan_17_1838,ConditionRich,2021.2.3,59.95894011839048,
36.0,36.75,23,0.75,Stimuli/P001/things_chick_01b.jpg,0,0.0,0.0,0,17,17,17,,,,,,,,,,,,,36.01171109999996,0.011711099999956787,None,,67.10558149999997,67.10558149999997,67.10558149999997,67.10558149999997,67.10558149999997,67.10558149999997,67.10558149999997,67.10558149999997,67.10558149999997,67.10558149999997,004,P001,2025_Jan_17_1838,ConditionRich,2021.2.3,59.95894011839048,
36.75,40.0,41,0.0,Stimuli/Blank.png,0,0.0,0.0,0,18,18,18,,,,,,,,,,,,,36.76477189999423,0.014771899994229898,5,1.216642099992896,67.85682589999487,67.85682589999487,67.85682589999487,67.85682589999487,67.85682589999487,67.85682589999487,67.85682589999487,67.85682589999487,67.85682589999487,67.85682589999487,004,P001,2025_Jan_17_1838,ConditionRich,2021.2.3,59.95894011839048,
40.0,40.75,8,0.75,Stimuli/P001/sun_asqboyqakusycvwd.jpg,0,0.0,0.0,0,19,19,19,,,,,,,,,,,,,40.00082779999502,0.0008277999950223602,None,,71.09195129999716,71.09195129999716,71.09195129999716,71.09195129999716,71.09195129999716,71.09195129999716,71.09195129999716,71.09195129999716,71.09195129999716,71.09195129999716,004,P001,2025_Jan_17_1838,ConditionRich,2021.2.3,59.95894011839048,
40.75,44.0,41,0.0,Stimuli/Blank.png,0,0.0,0.0,0,20,20,20,,,,,,,,,,,,,40.7513958999989,0.001395899998897221,5,1.230329800004256,71.84274639999785,71.84274639999785,71.84274639999785,71.84274639999785,71.84274639999785,71.84274639999785,71.84274639999785,71.84274639999785,71.84274639999785,71.84274639999785,004,P001,2025_Jan_17_1838,ConditionRich,2021.2.3,59.95894011839048,
44.0,44.75,37,0.75,Stimuli/P001/things_starfish_01b.jpg,0,0.0,0.0,0,21,21,21,,,,,,,,,,,,,44.00318559999869,0.003185599998687394,None,,75.09605319999537,75.09605319999537,75.09605319999537,75.09605319999537,75.09605319999537,75.09605319999537,75.09605319999537,75.09605319999537,75.09605319999537,75.09605319999537,004,P001,2025_Jan_17_1838,ConditionRich,2021.2.3,59.95894011839048,
44.75,48.0,41,0.0,Stimuli/Blank.png,0,0.0,0.0,0,22,22,22,,,,,,,,,,,,,44.75453310000012,0.004533100000116974,5,3.2095498999988195,75.86358339999424,75.86358339999424,75.86358339999424,75.86358339999424,75.86358339999424,75.86358339999424,75.86358339999424,75.86358339999424,75.86358339999424,75.86358339999424,004,P001,2025_Jan_17_1838,ConditionRich,2021.2.3,59.95894011839048,
48.0,48.75,25,0.75,Stimuli/P001/things_curry_01b.jpg,1,0.0,0.75,0,23,23,23,,,,,,,,,,,,,48.02350109999679,0.023501099996792618,3,0.4851914000028046,79.1158437999984,79.1158437999984,79.1158437999984,79.1158437999984,79.1158437999984,79.1158437999984,79.1158437999984,None,79.1158437999984,79.1158437999984,004,P001,2025_Jan_17_1838,ConditionRich,2021.2.3,59.95894011839048,
48.75,52.0,41,0.0,Stimuli/Blank.png,0,0.0,0.0,0,24,24,24,,,,,,,,,,,,,48.75805839999521,0.008058399995206855,5,1.2227656000031857,79.85002079999686,79.85002079999686,79.85002079999686,79.85002079999686,79.85002079999686,79.85002079999686,79.85002079999686,79.85002079999686,79.85002079999686,79.85002079999686,004,P001,2025_Jan_17_1838,ConditionRich,2021.2.3,59.95894011839048,
52.0,52.75,12,0.75,Stimuli/P001/sun_bdxvmnlyovhqognn.jpg,0,0.0,0.0,0,25,25,25,,,,,,,,,,,,,52.01029269999708,0.01029269999708049,None,,83.10280419999617,83.10280419999617,83.10280419999617,83.10280419999617,83.10280419999617,83.10280419999617,83.10280419999617,83.10280419999617,83.10280419999617,83.10280419999617,004,P001,2025_Jan_17_1838,ConditionRich,2021.2.3,59.95894011839048,
52.75,56.0,41,0.0,Stimuli/Blank.png,0,0.0,0.0,0,26,26,26,,,,,,,,,,,,,52.76201169999695,0.012011699996946845,5,3.219657699999516,83.85353439999744,83.85353439999744,83.85353439999744,83.85353439999744,83.85353439999744,83.85353439999744,83.85353439999744,83.85353439999744,83.85353439999744,83.85353439999744,004,P001,2025_Jan_17_1838,ConditionRich,2021.2.3,59.95894011839048,
56.0,56.75,21,0.75,Stimuli/P001/things_baby_01b.jpg,1,0.0,0.75,0,27,27,27,,,,,,,,,,,,,56.01374649999343,0.013746499993430916,3,0.6089085000057821,87.10647289999906,87.10647289999906,87.10647289999906,87.10647289999906,87.10647289999906,87.10647289999906,87.10647289999906,87.84069089999684,87.10647289999906,87.10647289999906,004,P001,2025_Jan_17_1838,ConditionRich,2021.2.3,59.95894011839048,
56.75,60.0,41,0.0,Stimuli/Blank.png,0,0.0,0.0,0,28,28,28,,,,,,,,,,,,,56.76472809999541,0.014728099995409139,5,1.2159880999970483,87.85728499999823,87.85728499999823,87.85728499999823,87.85728499999823,87.85728499999823,87.85728499999823,87.85728499999823,87.85728499999823,87.85728499999823,87.85728499999823,004,P001,2025_Jan_17_1838,ConditionRich,2021.2.3,59.95894011839048,
60.0,60.75,11,0.75,Stimuli/P001/sun_bbfdgdyeqdnadvvi.jpg,0,0.0,0.0,0,29,29,29,,,,,,,,,,,,,60.002366099994106,0.0023660999941057526,None,,91.09334249999665,91.09334249999665,91.09334249999665,91.09334249999665,91.09334249999665,91.09334249999665,91.09334249999665,91.09334249999665,91.09334249999665,91.09334249999665,004,P001,2025_Jan_17_1838,ConditionRich,2021.2.3,59.95894011839048,
60.75,64.0,41,0.0,Stimuli/Blank.png,1,2.25,3.0,0,30,30,30,,,,,,,,,,,,,60.7509196999963,0.00091969999630237,3,2.6528988999998546,91.84411700000055,91.84411700000055,91.84411700000055,91.84411700000055,91.84411700000055,91.84411700000055,94.079579499994,94.8303020999956,91.84411700000055,91.84411700000055,004,P001,2025_Jan_17_1838,ConditionRich,2021.2.3,59.95894011839048,
64.0,64.75,3,0.75,Stimuli/P001/sun_amarqtinchblqmah.jpg,0,0.0,0.0,0,31,31,31,,,,,,,,,,,,,64.00463189999573,0.004631899995729327,None,,95.09673389999807,95.09673389999807,95.09673389999807,95.09673389999807,95.09673389999807,95.09673389999807,95.09673389999807,95.09673389999807,95.09673389999807,95.09673389999807,004,P001,2025_Jan_17_1838,ConditionRich,2021.2.3,59.95894011839048,
64.75,68.0,41,0.0,Stimuli/Blank.png,0,0.0,0.0,0,32,32,32,,,,,,,,,,,,,64.75463799999852,0.004637999998521991,5,1.2251997999992454,95.84755980000045,95.84755980000045,95.84755980000045,95.84755980000045,95.84755980000045,95.84755980000045,95.84755980000045,95.84755980000045,95.84755980000045,95.84755980000045,004,P001,2025_Jan_17_1838,ConditionRich,2021.2.3,59.95894011839048,
68.0,68.75,7,0.75,Stimuli/P001/sun_arlesyjqxmqmcccl.jpg,0,0.0,0.0,0,33,33,33,,,,,,,,,,,,,68.00705079999898,0.0070507999989786185,None,,99.10069369999837,99.10069369999837,99.10069369999837,99.10069369999837,99.10069369999837,99.10069369999837,99.10069369999837,99.10069369999837,99.10069369999837,99.10069369999837,004,P001,2025_Jan_17_1838,ConditionRich,2021.2.3,59.95894011839048,
68.75,72.0,41,0.0,Stimuli/Blank.png,0,0.0,0.0,0,34,34,34,,,,,,,,,,,,,68.75883880000038,0.008838800000376068,5,1.2212943999984418,99.85145460000058,99.85145460000058,99.85145460000058,99.85145460000058,99.85145460000058,99.85145460000058,99.85145460000058,99.85145460000058,99.85145460000058,99.85145460000058,004,P001,2025_Jan_17_1838,ConditionRich,2021.2.3,59.95894011839048,
72.0,72.75,38,0.75,Stimuli/P001/things_windowsill_01b.jpg,0,0.0,0.0,0,35,35,35,,,,,,,,,,,,,72.01028649999353,0.010286499993526377,None,,103.10408219999954,103.10408219999954,103.10408219999954,103.10408219999954,103.10408219999954,103.10408219999954,103.10408219999954,103.10408219999954,103.10408219999954,103.10408219999954,004,P001,2025_Jan_17_1838,ConditionRich,2021.2.3,59.95894011839048,
72.75,76.0,41,0.0,Stimuli/Blank.png,1,1.25,2.0,0,36,36,36,,,,,,,,,,,,,72.76280979999865,0.012809799998649396,5,3.2182163999968907,103.85489459999371,103.85489459999371,103.85489459999371,103.85489459999371,103.85489459999371,103.85489459999371,105.08890379999502,105.83957269999519,103.85489459999371,103.85489459999371,004,P001,2025_Jan_17_1838,ConditionRich,2021.2.3,59.95894011839048,
76.0,76.75,34,0.75,Stimuli/P001/things_parrot_01b.jpg,0,0.0,0.0,0,37,37,37,,,,,,,,,,,,,76.01484859999618,0.01484859999618493,None,,107.10775060000014,107.10775060000014,107.10775060000014,107.10775060000014,107.10775060000014,107.10775060000014,107.10775060000014,107.10775060000014,107.10775060000014,107.10775060000014,004,P001,2025_Jan_17_1838,ConditionRich,2021.2.3,59.95894011839048,
76.75,80.0,41,0.0,Stimuli/Blank.png,0,0.0,0.0,0,38,38,38,,,,,,,,,,,,,76.76542959999642,0.015429599996423349,5,1.2144938000055845,107.85855179999635,107.85855179999635,107.85855179999635,107.85855179999635,107.85855179999635,107.85855179999635,107.85855179999635,107.85855179999635,107.85855179999635,107.85855179999635,004,P001,2025_Jan_17_1838,ConditionRich,2021.2.3,59.95894011839048,
80.0,80.75,15,0.75,Stimuli/P001/sun_bfzoxbkvsfqxsyle.jpg,0,0.0,0.0,0,39,39,39,,,,,,,,,,,,,80.0026629999993,0.0026629999993019737,None,,111.09675529999367,111.09675529999367,111.09675529999367,111.09675529999367,111.09675529999367,111.09675529999367,111.09675529999367,111.09675529999367,111.09675529999367,111.09675529999367,004,P001,2025_Jan_17_1838,ConditionRich,2021.2.3,59.95894011839048,
80.75,84.0,41,0.0,Stimuli/Blank.png,0,0.0,0.0,0,40,40,40,,,,,,,,,,,,,80.75304829999368,0.003048299993679393,5,1.227682000004279,111.84551339999598,111.84551339999598,111.84551339999598,111.84551339999598,111.84551339999598,111.84551339999598,111.84551339999598,111.84551339999598,111.84551339999598,111.84551339999598,004,P001,2025_Jan_17_1838,ConditionRich,2021.2.3,59.95894011839048,
84.0,100.0,0,0.0,Stimuli/Blank.png,1,12.0,12.75,0,41,41,41,,,,,,,,,,,,,84.00524669999868,0.005246699998679105,5,13.974961300002178,115.09781199999998,115.09781199999998,115.09781199999998,115.09781199999998,115.09781199999998,115.09781199999998,127.07527259999915,127.82564779999666,115.09781199999998,115.09781199999998,004,P001,2025_Jan_17_1838,ConditionRich,2021.2.3,59.95894011839048,
100.0,100.75,39,0.75,Stimuli/P001/things_woman_01b.jpg,1,0.0,0.75,0,42,42,42,,,,,,,,,,,,,100.00228259999858,0.002282599998579826,3,0.4447098000018741,131.09526319999713,131.09526319999713,131.09526319999713,131.09526319999713,131.09526319999713,131.09526319999713,131.09526319999713,131.82980599999428,131.09526319999713,131.09526319999713,004,P001,2025_Jan_17_1838,ConditionRich,2021.2.3,59.95894011839048,
100.75,104.0,41,0.0,Stimuli/Blank.png,0,0.0,0.0,0,43,43,43,,,,,,,,,,,,,100.75350709999475,0.0035070999947492965,5,1.2264776000010897,131.84646979999525,131.84646979999525,131.84646979999525,131.84646979999525,131.84646979999525,131.84646979999525,131.84646979999525,131.84646979999525,131.84646979999525,131.84646979999525,004,P001,2025_Jan_17_1838,ConditionRich,2021.2.3,59.95894011839048,
104.0,104.75,29,0.75,Stimuli/P001/things_grinder_01b.jpg,0,0.0,0.0,0,44,44,44,,,,,,,,,,,,,104.00645660000009,0.006456600000092294,None,,135.09951039999578,135.09951039999578,135.09951039999578,135.09951039999578,135.09951039999578,135.09951039999578,135.09951039999578,135.09951039999578,135.09951039999578,135.09951039999578,004,P001,2025_Jan_17_1838,ConditionRich,2021.2.3,59.95894011839048,
104.75,108.0,41,0.0,Stimuli/Blank.png,0,0.0,0.0,0,45,45,45,,,,,,,,,,,,,104.75697699999728,0.006976999997277744,5,1.2225308999986737,135.85057830000005,135.85057830000005,135.85057830000005,135.85057830000005,135.85057830000005,135.85057830000005,135.85057830000005,135.85057830000005,135.85057830000005,135.85057830000005,004,P001,2025_Jan_17_1838,ConditionRich,2021.2.3,59.95894011839048,
108.0,108.75,6,0.75,Stimuli/P001/sun_aqbaaqeojrexbmcr.jpg,0,0.0,0.0,0,46,46,46,,,,,,,,,,,,,108.00947349999478,0.009473499994783197,None,,139.10281639999448,139.10281639999448,139.10281639999448,139.10281639999448,139.10281639999448,139.10281639999448,139.10281639999448,139.10281639999448,139.10281639999448,139.10281639999448,004,P001,2025_Jan_17_1838,ConditionRich,2021.2.3,59.95894011839048,
108.75,112.0,41,0.0,Stimuli/Blank.png,0,0.0,0.0,0,47,47,47,,,,,,,,,,,,,108.7606397999989,0.010639799998898525,5,3.218779099996027,139.8540295999992,139.8540295999992,139.8540295999992,139.8540295999992,139.8540295999992,139.8540295999992,139.8540295999992,139.8540295999992,139.8540295999992,139.8540295999992,004,P001,2025_Jan_17_1838,ConditionRich,2021.2.3,59.95894011839048,
112.0,112.75,30,0.75,Stimuli/P001/things_iguana_01b.jpg,0,0.0,0.0,0,48,48,48,,,,,,,,,,,,,112.01311290000012,0.013112900000123773,None,,143.10626899999625,143.10626899999625,143.10626899999625,143.10626899999625,143.10626899999625,143.10626899999625,143.10626899999625,143.10626899999625,143.10626899999625,143.10626899999625,004,P001,2025_Jan_17_1838,ConditionRich,2021.2.3,59.95894011839048,
112.75,116.0,41,0.0,Stimuli/Blank.png,0,0.0,0.0,0,49,49,49,,,,,,,,,,,,,112.76442999999563,0.01442999999562744,5,1.2160346999953617,143.85709729999508,143.85709729999508,143.85709729999508,143.85709729999508,143.85709729999508,143.85709729999508,143.85709729999508,143.85709729999508,143.85709729999508,143.85709729999508,004,P001,2025_Jan_17_1838,ConditionRich,2021.2.3,59.95894011839048,
116.0,116.75,40,0.75,Stimuli/P001/things_worm_01b.jpg,0,0.0,0.0,0,50,50,50,,,,,,,,,,,,,116.00067119999585,0.0006711999958497472,None,,147.09280739999667,147.09280739999667,147.09280739999667,147.09280739999667,147.09280739999667,147.09280739999667,147.09280739999667,147.09280739999667,147.09280739999667,147.09280739999667,004,P001,2025_Jan_17_1838,ConditionRich,2021.2.3,59.95894011839048,
116.75,120.0,41,0.0,Stimuli/Blank.png,0,0.0,0.0,0,51,51,51,,,,,,,,,,,,,116.75279269999737,0.0027926999973715283,5,1.227888700006588,147.84525799999392,147.84525799999392,147.84525799999392,147.84525799999392,147.84525799999392,147.84525799999392,147.84525799999392,147.84525799999392,147.84525799999392,147.84525799999392,004,P001,2025_Jan_17_1838,ConditionRich,2021.2.3,59.95894011839048,
120.0,120.75,32,0.75,Stimuli/P001/things_oyster_01b.jpg,0,0.0,0.0,0,52,52,52,,,,,,,,,,,,,120.00346039999567,0.003460399995674379,None,,151.09637329999532,151.09637329999532,151.09637329999532,151.09637329999532,151.09637329999532,151.09637329999532,151.09637329999532,151.09637329999532,151.09637329999532,151.09637329999532,004,P001,2025_Jan_17_1838,ConditionRich,2021.2.3,59.95894011839048,
120.75,124.0,41,0.0,Stimuli/Blank.png,1,0.25,1.0,0,53,53,53,,,,,,,,,,,,,120.75588089999655,0.005880899996554945,5,1.225963500000944,151.84747459999926,151.84747459999926,151.84747459999926,151.84747459999926,151.84747459999926,151.84747459999926,152.08142550000048,152.83192289999715,151.84747459999926,151.84747459999926,004,P001,2025_Jan_17_1838,ConditionRich,2021.2.3,59.95894011839048,
124.0,124.75,17,0.75,Stimuli/P001/sun_bshgmgbmpvjkxfis.jpg,0,0.0,0.0,0,54,54,54,,,,,,,,,,,,,124.00782269999763,0.007822699997632299,None,,155.1027541999938,155.1027541999938,155.1027541999938,155.1027541999938,155.1027541999938,155.1027541999938,155.1027541999938,155.1027541999938,155.1027541999938,155.1027541999938,004,P001,2025_Jan_17_1838,ConditionRich,2021.2.3,59.95894011839048,
124.75,128.0,41,0.0,Stimuli/Blank.png,0,0.0,0.0,0,55,55,55,,,,,,,,,,,,,124.75803779999842,0.00803779999841936,5,1.221682499999588,155.8512195000003,155.8512195000003,155.8512195000003,155.8512195000003,155.8512195000003,155.8512195000003,155.8512195000003,155.8512195000003,155.8512195000003,155.8512195000003,004,P001,2025_Jan_17_1838,ConditionRich,2021.2.3,59.95894011839048,
128.0,128.75,33,0.75,Stimuli/P001/things_pan_01b.jpg,0,0.0,0.0,0,56,56,56,,,,,,,,,,,,,128.01079589999426,0.010795899994263891,None,,159.10372579999967,159.10372579999967,159.10372579999967,159.10372579999967,159.10372579999967,159.10372579999967,159.10372579999967,159.10372579999967,159.10372579999967,159.10372579999967,004,P001,2025_Jan_17_1838,ConditionRich,2021.2.3,59.95894011839048,
128.75,132.0,41,0.0,Stimuli/Blank.png,0,0.0,0.0,0,57,57,57,,,,,,,,,,,,,128.76158829999622,0.011588299996219575,5,3.2185909999971045,159.8545623999962,159.8545623999962,159.8545623999962,159.8545623999962,159.8545623999962,159.8545623999962,159.8545623999962,159.8545623999962,159.8545623999962,159.8545623999962,004,P001,2025_Jan_17_1838,ConditionRich,2021.2.3,59.95894011839048,
132.0,132.75,19,0.75,Stimuli/P001/sun_bzyyqqczvrnvukdn.jpg,0,0.0,0.0,0,58,58,58,,,,,,,,,,,,,132.01558269999805,0.015582699998049065,None,,163.11064079999778,163.11064079999778,163.11064079999778,163.11064079999778,163.11064079999778,163.11064079999778,163.11064079999778,163.11064079999778,163.11064079999778,163.11064079999778,004,P001,2025_Jan_17_1838,ConditionRich,2021.2.3,59.95894011839048,
132.75,136.0,41,0.0,Stimuli/Blank.png,0,0.0,0.0,0,59,59,59,,,,,,,,,,,,,132.76518909999868,0.015189099998679012,5,1.2148847999997088,163.85797329999332,163.85797329999332,163.85797329999332,163.85797329999332,163.85797329999332,163.85797329999332,163.85797329999332,163.85797329999332,163.85797329999332,163.85797329999332,004,P001,2025_Jan_17_1838,ConditionRich,2021.2.3,59.95894011839048,
136.0,136.75,2,0.75,Stimuli/P001/sun_akmxsxepquhynflp.jpg,0,0.0,0.0,0,60,60,60,,,,,,,,,,,,,136.0013622999977,0.0013622999977087602,None,,167.09390949999943,167.09390949999943,167.09390949999943,167.09390949999943,167.09390949999943,167.09390949999943,167.09390949999943,167.09390949999943,167.09390949999943,167.09390949999943,004,P001,2025_Jan_17_1838,ConditionRich,2021.2.3,59.95894011839048,
136.75,140.0,41,0.0,Stimuli/Blank.png,0,0.0,0.0,0,61,61,61,,,,,,,,,,,,,136.75254669999413,0.002546699994127266,5,1.2287928000005195,167.84449169999425,167.84449169999425,167.84449169999425,167.84449169999425,167.84449169999425,167.84449169999425,167.84449169999425,167.84449169999425,167.84449169999425,167.84449169999425,004,P001,2025_Jan_17_1838,ConditionRich,2021.2.3,59.95894011839048,
140.0,140.75,28,0.75,Stimuli/P001/things_girl_01b.jpg,0,0.0,0.0,0,62,62,62,,,,,,,,,,,,,140.00664989999495,0.006649899994954467,None,,171.10241139999562,171.10241139999562,171.10241139999562,171.10241139999562,171.10241139999562,171.10241139999562,171.10241139999562,171.10241139999562,171.10241139999562,171.10241139999562,004,P001,2025_Jan_17_1838,ConditionRich,2021.2.3,59.95894011839048,
140.75,144.0,41,0.0,Stimuli/Blank.png,0,0.0,0.0,0,63,63,63,,,,,,,,,,,,,140.75666239999555,0.006662399995548185,5,1.2244829000046593,171.8482631999941,171.8482631999941,171.8482631999941,171.8482631999941,171.8482631999941,171.8482631999941,171.8482631999941,171.8482631999941,171.8482631999941,171.8482631999941,004,P001,2025_Jan_17_1838,ConditionRich,2021.2.3,59.95894011839048,
144.0,144.75,35,0.75,Stimuli/P001/things_pepperoni_01b.jpg,0,0.0,0.0,0,64,64,64,,,,,,,,,,,,,144.00814949999767,0.008149499997671228,None,,175.10123539999768,175.10123539999768,175.10123539999768,175.10123539999768,175.10123539999768,175.10123539999768,175.10123539999768,175.10123539999768,175.10123539999768,175.10123539999768,004,P001,2025_Jan_17_1838,ConditionRich,2021.2.3,59.95894011839048,
144.75,148.0,41,0.0,Stimuli/Blank.png,0,0.0,0.0,0,65,65,65,,,,,,,,,,,,,144.75924259999738,0.00924259999737842,5,3.2209430000002612,175.8521963999956,175.8521963999956,175.8521963999956,175.8521963999956,175.8521963999956,175.8521963999956,175.8521963999956,175.8521963999956,175.8521963999956,175.8521963999956,004,P001,2025_Jan_17_1838,ConditionRich,2021.2.3,59.95894011839048,
148.0,148.75,4,0.75,Stimuli/P001/sun_aonjwqswdblhlpkm.jpg,0,0.0,0.0,0,66,66,66,,,,,,,,,,,,,148.01110009999684,0.011100099996838253,None,,179.10478909999802,179.10478909999802,179.10478909999802,179.10478909999802,179.10478909999802,179.10478909999802,179.10478909999802,179.10478909999802,179.10478909999802,179.10478909999802,004,P001,2025_Jan_17_1838,ConditionRich,2021.2.3,59.95894011839048,
148.75,152.0,41,0.0,Stimuli/Blank.png,0,0.0,0.0,0,67,67,67,,,,,,,,,,,,,148.7614073999939,0.011407399993913714,5,3.2179933000006713,179.85521989999688,179.85521989999688,179.85521989999688,179.85521989999688,179.85521989999688,179.85521989999688,179.85521989999688,179.85521989999688,179.85521989999688,179.85521989999688,004,P001,2025_Jan_17_1838,ConditionRich,2021.2.3,59.95894011839048,
152.0,152.75,16,0.75,Stimuli/P001/sun_biqyomkjbujnppuf.jpg,0,0.0,0.0,0,68,68,68,,,,,,,,,,,,,152.0172714999935,0.017271499993512407,None,,183.1105322999938,183.1105322999938,183.1105322999938,183.1105322999938,183.1105322999938,183.1105322999938,183.1105322999938,183.1105322999938,183.1105322999938,183.1105322999938,004,P001,2025_Jan_17_1838,ConditionRich,2021.2.3,59.95894011839048,
152.75,156.0,41,0.0,Stimuli/Blank.png,0,0.0,0.0,0,69,69,69,,,,,,,,,,,,,152.750066099994,6.609999400097877e-05,5,1.2309233999985736,183.84249089999503,183.84249089999503,183.84249089999503,183.84249089999503,183.84249089999503,183.84249089999503,183.84249089999503,183.84249089999503,183.84249089999503,183.84249089999503,004,P001,2025_Jan_17_1838,ConditionRich,2021.2.3,59.95894011839048,
156.0,156.75,27,0.75,Stimuli/P001/things_dynamite_01b.jpg,0,0.0,0.0,0,70,70,70,,,,,,,,,,,,,156.00255319999997,0.0025531999999657273,None,,187.09483379999438,187.09483379999438,187.09483379999438,187.09483379999438,187.09483379999438,187.09483379999438,187.09483379999438,187.09483379999438,187.09483379999438,187.09483379999438,004,P001,2025_Jan_17_1838,ConditionRich,2021.2.3,59.95894011839048,
156.75,160.0,41,0.0,Stimuli/Blank.png,0,0.0,0.0,0,71,71,71,,,,,,,,,,,,,156.75429059999442,0.004290599994419608,5,1.2270600000047125,187.84564329999557,187.84564329999557,187.84564329999557,187.84564329999557,187.84564329999557,187.84564329999557,187.84564329999557,187.84564329999557,187.84564329999557,187.84564329999557,004,P001,2025_Jan_17_1838,ConditionRich,2021.2.3,59.95894011839048,
160.0,160.75,20,0.75,Stimuli/P001/sun_dkgctqgpvxbaoyks.jpg,0,0.0,0.0,0,72,72,72,,,,,,,,,,,,,160.00582069999655,0.0058206999965477735,None,,191.09894219999842,191.09894219999842,191.09894219999842,191.09894219999842,191.09894219999842,191.09894219999842,191.09894219999842,191.09894219999842,191.09894219999842,191.09894219999842,004,P001,2025_Jan_17_1838,ConditionRich,2021.2.3,59.95894011839048,
160.75,164.0,41,0.0,Stimuli/Blank.png,1,0.25,1.0,0,73,73,73,,,,,,,,,,,,,160.75755299999582,0.007552999995823484,5,1.2229243000037968,191.84988769999472,191.84988769999472,191.84988769999472,191.84988769999472,191.84988769999472,191.84988769999472,192.0830760999961,192.83388739999646,191.84988769999472,191.84988769999472,004,P001,2025_Jan_17_1838,ConditionRich,2021.2.3,59.95894011839048,
164.0,164.75,18,0.75,Stimuli/P001/sun_bzjegfvyrvqtunza.jpg,0,0.0,0.0,0,74,74,74,,,,,,,,,,,,,164.00882609999826,0.008826099998259451,None,,195.10227579999628,195.10227579999628,195.10227579999628,195.10227579999628,195.10227579999628,195.10227579999628,195.10227579999628,195.10227579999628,195.10227579999628,195.10227579999628,004,P001,2025_Jan_17_1838,ConditionRich,2021.2.3,59.95894011839048,
164.75,168.0,41,0.0,Stimuli/Blank.png,0,0.0,0.0,0,75,75,75,,,,,,,,,,,,,164.76016199999867,0.0101619999986724,5,3.2203246999997646,195.85290419999365,195.85290419999365,195.85290419999365,195.85290419999365,195.85290419999365,195.85290419999365,195.85290419999365,195.85290419999365,195.85290419999365,195.85290419999365,004,P001,2025_Jan_17_1838,ConditionRich,2021.2.3,59.95894011839048,
168.0,168.75,36,0.75,Stimuli/P001/things_stalagmite_01b.jpg,0,0.0,0.0,0,76,76,76,,,,,,,,,,,,,168.01336759999685,0.013367599996854551,None,,199.10718590000033,199.10718590000033,199.10718590000033,199.10718590000033,199.10718590000033,199.10718590000033,199.10718590000033,199.10718590000033,199.10718590000033,199.10718590000033,004,P001,2025_Jan_17_1838,ConditionRich,2021.2.3,59.95894011839048,
168.75,172.0,41,0.0,Stimuli/Blank.png,0,0.0,0.0,0,77,77,77,,,,,,,,,,,,,168.7638117999959,0.013811799995892216,5,1.216555500002869,199.85665029999655,199.85665029999655,199.85665029999655,199.85665029999655,199.85665029999655,199.85665029999655,199.85665029999655,199.85665029999655,199.85665029999655,199.85665029999655,004,P001,2025_Jan_17_1838,ConditionRich,2021.2.3,59.95894011839048,
172.0,172.75,10,0.75,Stimuli/P001/sun_aykefnhciwsffcrj.jpg,0,0.0,0.0,0,78,78,78,,,,,,,,,,,,,172.00245059999725,0.0024505999972461723,None,,203.10328299999674,203.10328299999674,203.10328299999674,203.10328299999674,203.10328299999674,203.10328299999674,203.10328299999674,203.10328299999674,203.10328299999674,203.10328299999674,004,P001,2025_Jan_17_1838,ConditionRich,2021.2.3,59.95894011839048,
172.75,176.0,41,0.0,Stimuli/Blank.png,1,0.25,1.0,0,79,79,79,,,,,,,,,,,,,172.7668726999982,0.016872699998202734,5,1.213476199998695,203.85989319999499,203.85989319999499,203.85989319999499,203.85989319999499,203.85989319999499,203.85989319999499,204.09338349999598,204.84362739999779,203.85989319999499,203.85989319999499,004,P001,2025_Jan_17_1838,ConditionRich,2021.2.3,59.95894011839048,
176.0,176.75,24,0.75,Stimuli/P001/things_cornucopia_01b.jpg,0,0.0,0.0,0,80,80,80,,,,,,,,,,,,,176.00345599999855,0.0034559999985503964,None,,207.0960255999962,207.0960255999962,207.0960255999962,207.0960255999962,207.0960255999962,207.0960255999962,207.0960255999962,207.0960255999962,207.0960255999962,207.0960255999962,004,P001,2025_Jan_17_1838,ConditionRich,2021.2.3,59.95894011839048,
176.75,180.0,41,0.0,Stimuli/Blank.png,0,0.0,0.0,0,81,81,81,,,,,,,,,,,,,176.75463479999598,0.004634799995983485,5,1.2261866999979247,207.8468811999992,207.8468811999992,207.8468811999992,207.8468811999992,207.8468811999992,207.8468811999992,207.8468811999992,207.8468811999992,207.8468811999992,207.8468811999992,004,P001,2025_Jan_17_1838,ConditionRich,2021.2.3,59.95894011839048,
180.0,196.0,0,0.0,Stimuli/Blank.png,1,12.0,12.75,0,82,82,82,,,,,,,,,,,,,180.00643319999654,0.006433199996536132,5,13.973544199994649,211.09970039999462,211.09970039999462,211.09970039999462,211.09970039999462,211.09970039999462,211.09970039999462,223.07671159999882,223.827449599994,211.09970039999462,211.09970039999462,004,P001,2025_Jan_17_1838,ConditionRich,2021.2.3,59.95894011839048,
196.0,196.75,6,0.75,Stimuli/P001/sun_aqbaaqeojrexbmcr.jpg,0,0.0,0.0,0,83,83,83,,,,,,,,,,,,,196.00465299999632,0.00465299999632407,None,,227.09717829999863,227.09717829999863,227.09717829999863,227.09717829999863,227.09717829999863,227.09717829999863,227.09717829999863,227.09717829999863,227.09717829999863,227.09717829999863,004,P001,2025_Jan_17_1838,ConditionRich,2021.2.3,59.95894011839048,
196.75,200.0,41,0.0,Stimuli/Blank.png,1,0.25,1.0,0,84,84,84,,,,,,,,,,,,,196.7552665999974,0.005266599997412413,5,1.225053800000751,227.84790039999643,227.84790039999643,227.84790039999643,227.84790039999643,227.84790039999643,227.84790039999643,228.0815350999983,228.83206859999336,227.84790039999643,227.84790039999643,004,P001,2025_Jan_17_1838,ConditionRich,2021.2.3,59.95894011839048,
200.0,200.75,7,0.75,Stimuli/P001/sun_arlesyjqxmqmcccl.jpg,0,0.0,0.0,0,85,85,85,,,,,,,,,,,,,200.0106053999989,0.010605399998894427,None,,231.10622869999497,231.10622869999497,231.10622869999497,231.10622869999497,231.10622869999497,231.10622869999497,231.10622869999497,231.10622869999497,231.10622869999497,231.10622869999497,004,P001,2025_Jan_17_1838,ConditionRich,2021.2.3,59.95894011839048,
200.75,204.0,41,0.0,Stimuli/Blank.png,0,0.0,0.0,0,86,86,86,,,,,,,,,,,,,200.7595571999991,0.00955719999910798,5,1.2218236999979126,231.85142329999508,231.85142329999508,231.85142329999508,231.85142329999508,231.85142329999508,231.85142329999508,231.85142329999508,231.85142329999508,231.85142329999508,231.85142329999508,004,P001,2025_Jan_17_1838,ConditionRich,2021.2.3,59.95894011839048,
204.0,204.75,3,0.75,Stimuli/P001/sun_amarqtinchblqmah.jpg,1,0.0,0.75,0,87,87,87,,,,,,,,,,,,,204.01187459999346,0.011874599993461743,3,0.4461022000032244,235.10400469999877,235.10400469999877,235.10400469999877,235.10400469999877,235.10400469999877,235.10400469999877,235.10400469999877,235.83791299999575,235.10400469999877,235.10400469999877,004,P001,2025_Jan_17_1838,ConditionRich,2021.2.3,59.95894011839048,
204.75,208.0,41,0.0,Stimuli/Blank.png,0,0.0,0.0,0,88,88,88,,,,,,,,,,,,,204.76168729999335,0.011687299993354827,5,3.218315399994026,235.8549098000003,235.8549098000003,235.8549098000003,235.8549098000003,235.8549098000003,235.8549098000003,235.8549098000003,235.8549098000003,235.8549098000003,235.8549098000003,004,P001,2025_Jan_17_1838,ConditionRich,2021.2.3,59.95894011839048,
208.0,208.75,28,0.75,Stimuli/P001/things_girl_01b.jpg,0,0.0,0.0,0,89,89,89,,,,,,,,,,,,,208.0168338999938,0.016833899993798696,None,,239.10920069999702,239.10920069999702,239.10920069999702,239.10920069999702,239.10920069999702,239.10920069999702,239.10920069999702,239.10920069999702,239.10920069999702,239.10920069999702,004,P001,2025_Jan_17_1838,ConditionRich,2021.2.3,59.95894011839048,
208.75,212.0,41,0.0,Stimuli/Blank.png,0,0.0,0.0,0,90,90,90,,,,,,,,,,,,,208.7483546999938,-0.0016453000062028877,5,1.2314323999962653,239.84170799999993,239.84170799999993,239.84170799999993,239.84170799999993,239.84170799999993,239.84170799999993,239.84170799999993,239.84170799999993,239.84170799999993,239.84170799999993,004,P001,2025_Jan_17_1838,ConditionRich,2021.2.3,59.95894011839048,
212.0,212.75,35,0.75,Stimuli/P001/things_pepperoni_01b.jpg,0,0.0,0.0,0,91,91,91,,,,,,,,,,,,,212.0025411999959,0.0025411999959032983,None,,243.09450079999806,243.09450079999806,243.09450079999806,243.09450079999806,243.09450079999806,243.09450079999806,243.09450079999806,243.09450079999806,243.09450079999806,243.09450079999806,004,P001,2025_Jan_17_1838,ConditionRich,2021.2.3,59.95894011839048,
212.75,216.0,41,0.0,Stimuli/Blank.png,0,0.0,0.0,0,92,92,92,,,,,,,,,,,,,212.7524345999991,0.002434599999105558,5,1.227635499999451,243.8454572999981,243.8454572999981,243.8454572999981,243.8454572999981,243.8454572999981,243.8454572999981,243.8454572999981,243.8454572999981,243.8454572999981,243.8454572999981,004,P001,2025_Jan_17_1838,ConditionRich,2021.2.3,59.95894011839048,
216.0,216.75,8,0.75,Stimuli/P001/sun_asqboyqakusycvwd.jpg,0,0.0,0.0,0,93,93,93,,,,,,,,,,,,,216.00564119999763,0.005641199997626245,None,,247.09950849999586,247.09950849999586,247.09950849999586,247.09950849999586,247.09950849999586,247.09950849999586,247.09950849999586,247.09950849999586,247.09950849999586,247.09950849999586,004,P001,2025_Jan_17_1838,ConditionRich,2021.2.3,59.95894011839048,
216.75,220.0,41,0.0,Stimuli/Blank.png,0,0.0,0.0,0,94,94,94,,,,,,,,,,,,,216.75692789999448,0.006927899994479958,5,1.2237782000011066,247.84893599999486,247.84893599999486,247.84893599999486,247.84893599999486,247.84893599999486,247.84893599999486,247.84893599999486,247.84893599999486,247.84893599999486,247.84893599999486,004,P001,2025_Jan_17_1838,ConditionRich,2021.2.3,59.95894011839048,
220.0,220.75,36,0.75,Stimuli/P001/things_stalagmite_01b.jpg,0,0.0,0.0,0,95,95,95,,,,,,,,,,,,,220.0088493000003,0.008849300000292715,None,,251.1019393999959,251.1019393999959,251.1019393999959,251.1019393999959,251.1019393999959,251.1019393999959,251.1019393999959,251.1019393999959,251.1019393999959,251.1019393999959,004,P001,2025_Jan_17_1838,ConditionRich,2021.2.3,59.95894011839048,
220.75,224.0,41,0.0,Stimuli/Blank.png,0,0.0,0.0,0,96,96,96,,,,,,,,,,,,,220.7608134999973,0.010813499997311737,5,3.220584400005464,251.8523681999941,251.8523681999941,251.8523681999941,251.8523681999941,251.8523681999941,251.8523681999941,251.8523681999941,251.8523681999941,251.8523681999941,251.8523681999941,004,P001,2025_Jan_17_1838,ConditionRich,2021.2.3,59.95894011839048,
224.0,224.75,17,0.75,Stimuli/P001/sun_bshgmgbmpvjkxfis.jpg,0,0.0,0.0,0,97,97,97,,,,,,,,,,,,,224.01341619999585,0.01341619999584509,None,,255.10576749999746,255.10576749999746,255.10576749999746,255.10576749999746,255.10576749999746,255.10576749999746,255.10576749999746,255.10576749999746,255.10576749999746,255.10576749999746,004,P001,2025_Jan_17_1838,ConditionRich,2021.2.3,59.95894011839048,
224.75,228.0,41,0.0,Stimuli/Blank.png,0,0.0,0.0,0,98,98,98,,,,,,,,,,,,,224.76407409999956,0.01407409999956144,5,1.2174796000035712,255.85601839999435,255.85601839999435,255.85601839999435,255.85601839999435,255.85601839999435,255.85601839999435,255.85601839999435,255.85601839999435,255.85601839999435,255.85601839999435,004,P001,2025_Jan_17_1838,ConditionRich,2021.2.3,59.95894011839048,
228.0,228.75,9,0.75,Stimuli/P001/sun_awtltwwpwbepuuqv.jpg,0,0.0,0.0,0,99,99,99,,,,,,,,,,,,,227.99972509999498,-0.00027490000502439216,None,,259.09185699999944,259.09185699999944,259.09185699999944,259.09185699999944,259.09185699999944,259.09185699999944,259.09185699999944,259.09185699999944,259.09185699999944,259.09185699999944,004,P001,2025_Jan_17_1838,ConditionRich,2021.2.3,59.95894011839048,
228.75,232.0,41,0.0,Stimuli/Blank.png,0,0.0,0.0,0,100,100,100,,,,,,,,,,,,,228.7506199999989,0.0006199999988893978,5,3.213718600003631,259.8593729999993,259.8593729999993,259.8593729999993,259.8593729999993,259.8593729999993,259.8593729999993,259.8593729999993,259.8593729999993,259.8593729999993,259.8593729999993,004,P001,2025_Jan_17_1838,ConditionRich,2021.2.3,59.95894011839048,
232.0,232.75,12,0.75,Stimuli/P001/sun_bdxvmnlyovhqognn.jpg,0,0.0,0.0,0,101,101,101,,,,,,,,,,,,,232.01856479999697,0.01856479999696603,None,,263.11204670000006,263.11204670000006,263.11204670000006,263.11204670000006,263.11204670000006,263.11204670000006,263.11204670000006,263.11204670000006,263.11204670000006,263.11204670000006,004,P001,2025_Jan_17_1838,ConditionRich,2021.2.3,59.95894011839048,
232.75,236.0,41,0.0,Stimuli/Blank.png,0,0.0,0.0,0,102,102,102,,,,,,,,,,,,,232.75405429999955,0.004054299999552313,5,1.2264322999981232,263.84645149999415,263.84645149999415,263.84645149999415,263.84645149999415,263.84645149999415,263.84645149999415,263.84645149999415,263.84645149999415,263.84645149999415,263.84645149999415,004,P001,2025_Jan_17_1838,ConditionRich,2021.2.3,59.95894011839048,
236.0,236.75,37,0.75,Stimuli/P001/things_starfish_01b.jpg,0,0.0,0.0,0,103,103,103,,,,,,,,,,,,,236.00793979999435,0.007939799994346686,None,,267.09934309999517,267.09934309999517,267.09934309999517,267.09934309999517,267.09934309999517,267.09934309999517,267.09934309999517,267.09934309999517,267.09934309999517,267.09934309999517,004,P001,2025_Jan_17_1838,ConditionRich,2021.2.3,59.95894011839048,
236.75,240.0,41,0.0,Stimuli/Blank.png,0,0.0,0.0,0,104,104,104,,,,,,,,,,,,,236.7580605999974,0.008060599997406825,5,1.2244510000018636,267.8495247999963,267.8495247999963,267.8495247999963,267.8495247999963,267.8495247999963,267.8495247999963,267.8495247999963,267.8495247999963,267.8495247999963,267.8495247999963,004,P001,2025_Jan_17_1838,ConditionRich,2021.2.3,59.95894011839048,
240.0,240.75,26,0.75,Stimuli/P001/things_dish_01b.jpg,0,0.0,0.0,0,105,105,105,,,,,,,,,,,,,240.00884859999496,0.00884859999496257,None,,271.1026700999937,271.1026700999937,271.1026700999937,271.1026700999937,271.1026700999937,271.1026700999937,271.1026700999937,271.1026700999937,271.1026700999937,271.1026700999937,004,P001,2025_Jan_17_1838,ConditionRich,2021.2.3,59.95894011839048,
240.75,244.0,41,0.0,Stimuli/Blank.png,1,1.25,2.0,0,106,106,106,,,,,,,,,,,,,240.76078309999866,0.010783099998661783,3,1.7006690000052913,271.8534587999966,271.8534587999966,271.8534587999966,271.8534587999966,271.8534587999966,271.8534587999966,273.08804309999687,273.83853099999396,271.8534587999966,271.8534587999966,004,P001,2025_Jan_17_1838,ConditionRich,2021.2.3,59.95894011839048,
244.0,244.75,15,0.75,Stimuli/P001/sun_bfzoxbkvsfqxsyle.jpg,0,0.0,0.0,0,107,107,107,,,,,,,,,,,,,244.01310530000046,0.013105300000461284,None,,275.10627119999845,275.10627119999845,275.10627119999845,275.10627119999845,275.10627119999845,275.10627119999845,275.10627119999845,275.10627119999845,275.10627119999845,275.10627119999845,004,P001,2025_Jan_17_1838,ConditionRich,2021.2.3,59.95894011839048,
244.75,248.0,41,0.0,Stimuli/Blank.png,1,0.25,1.0,0,108,108,108,,,,,,,,,,,,,244.76409319999948,0.014093199999479111,5,1.2167278999986593,275.85711900000024,275.85711900000024,275.85711900000024,275.85711900000024,275.85711900000024,275.85711900000024,276.09056620000047,276.8411653000003,275.85711900000024,275.85711900000024,004,P001,2025_Jan_17_1838,ConditionRich,2021.2.3,59.95894011839048,
248.0,248.75,34,0.75,Stimuli/P001/things_parrot_01b.jpg,0,0.0,0.0,0,109,109,109,,,,,,,,,,,,,248.00197499999922,0.0019749999992200173,None,,279.093541299997,279.093541299997,279.093541299997,279.093541299997,279.093541299997,279.093541299997,279.093541299997,279.093541299997,279.093541299997,279.093541299997,004,P001,2025_Jan_17_1838,ConditionRich,2021.2.3,59.95894011839048,
248.75,252.0,41,0.0,Stimuli/Blank.png,0,0.0,0.0,0,110,110,110,,,,,,,,,,,,,248.75176929999725,0.0017692999972496182,5,1.2304547000021557,279.84376239999983,279.84376239999983,279.84376239999983,279.84376239999983,279.84376239999983,279.84376239999983,279.84376239999983,279.84376239999983,279.84376239999983,279.84376239999983,004,P001,2025_Jan_17_1838,ConditionRich,2021.2.3,59.95894011839048,
252.0,252.75,39,0.75,Stimuli/P001/things_woman_01b.jpg,0,0.0,0.0,0,111,111,111,,,,,,,,,,,,,252.00401739999506,0.004017399995063897,None,,283.0968176999959,283.0968176999959,283.0968176999959,283.0968176999959,283.0968176999959,283.0968176999959,283.0968176999959,283.0968176999959,283.0968176999959,283.0968176999959,004,P001,2025_Jan_17_1838,ConditionRich,2021.2.3,59.95894011839048,
252.75,256.0,41,0.0,Stimuli/Blank.png,0,0.0,0.0,0,112,112,112,,,,,,,,,,,,,252.75481209999998,0.004812099999981001,5,1.2265426000012667,283.8475548999995,283.8475548999995,283.8475548999995,283.8475548999995,283.8475548999995,283.8475548999995,283.8475548999995,283.8475548999995,283.8475548999995,283.8475548999995,004,P001,2025_Jan_17_1838,ConditionRich,2021.2.3,59.95894011839048,
256.0,256.75,33,0.75,Stimuli/P001/things_pan_01b.jpg,0,0.0,0.0,0,113,113,113,,,,,,,,,,,,,256.00700729999517,0.00700729999516625,None,,287.10015899999416,287.10015899999416,287.10015899999416,287.10015899999416,287.10015899999416,287.10015899999416,287.10015899999416,287.10015899999416,287.10015899999416,287.10015899999416,004,P001,2025_Jan_17_1838,ConditionRich,2021.2.3,59.95894011839048,
256.75,260.0,41,0.0,Stimuli/Blank.png,0,0.0,0.0,0,114,114,114,,,,,,,,,,,,,256.7590141999972,0.009014199997182004,5,1.222959400001855,287.8509943999961,287.8509943999961,287.8509943999961,287.8509943999961,287.8509943999961,287.8509943999961,287.8509943999961,287.8509943999961,287.8509943999961,287.8509943999961,004,P001,2025_Jan_17_1838,ConditionRich,2021.2.3,59.95894011839048,
260.0,260.75,18,0.75,Stimuli/P001/sun_bzjegfvyrvqtunza.jpg,0,0.0,0.0,0,115,115,115,,,,,,,,,,,,,260.0103883999982,0.010388399998191744,None,,291.10371060000034,291.10371060000034,291.10371060000034,291.10371060000034,291.10371060000034,291.10371060000034,291.10371060000034,291.10371060000034,291.10371060000034,291.10371060000034,004,P001,2025_Jan_17_1838,ConditionRich,2021.2.3,59.95894011839048,
260.75,264.0,41,0.0,Stimuli/Blank.png,0,0.0,0.0,0,116,116,116,,,,,,,,,,,,,260.7634188999946,0.01341889999457635,5,3.2180856999984826,291.8561552999963,291.8561552999963,291.8561552999963,291.8561552999963,291.8561552999963,291.8561552999963,291.8561552999963,291.8561552999963,291.8561552999963,291.8561552999963,004,P001,2025_Jan_17_1838,ConditionRich,2021.2.3,59.95894011839048,
264.0,264.75,24,0.75,Stimuli/P001/things_cornucopia_01b.jpg,0,0.0,0.0,0,117,117,117,,,,,,,,,,,,,264.0168279999998,0.016827999999804888,None,,295.1116542999953,295.1116542999953,295.1116542999953,295.1116542999953,295.1116542999953,295.1116542999953,295.1116542999953,295.1116542999953,295.1116542999953,295.1116542999953,004,P001,2025_Jan_17_1838,ConditionRich,2021.2.3,59.95894011839048,
264.75,268.0,41,0.0,Stimuli/Blank.png,0,0.0,0.0,0,118,118,118,,,,,,,,,,,,,264.76658069999394,0.016580699993937742,5,1.2140414000023156,295.8597240999952,295.8597240999952,295.8597240999952,295.8597240999952,295.8597240999952,295.8597240999952,295.8597240999952,295.8597240999952,295.8597240999952,295.8597240999952,004,P001,2025_Jan_17_1838,ConditionRich,2021.2.3,59.95894011839048,
268.0,268.75,13,0.75,Stimuli/P001/sun_bfdmlbkyioxnkodb.jpg,0,0.0,0.0,0,119,119,119,,,,,,,,,,,,,268.0024817999947,0.002481799994711764,None,,299.0993149999995,299.0993149999995,299.0993149999995,299.0993149999995,299.0993149999995,299.0993149999995,299.0993149999995,299.0993149999995,299.0993149999995,299.0993149999995,004,P001,2025_Jan_17_1838,ConditionRich,2021.2.3,59.95894011839048,
268.75,272.0,41,0.0,Stimuli/Blank.png,0,0.0,0.0,0,120,120,120,,,,,,,,,,,,,268.7697523999959,0.019752399995923042,5,1.2126527999935206,299.8612997999953,299.8612997999953,299.8612997999953,299.8612997999953,299.8612997999953,299.8612997999953,299.8612997999953,299.8612997999953,299.8612997999953,299.8612997999953,004,P001,2025_Jan_17_1838,ConditionRich,2021.2.3,59.95894011839048,
272.0,272.75,38,0.75,Stimuli/P001/things_windowsill_01b.jpg,0,0.0,0.0,0,121,121,121,,,,,,,,,,,,,272.00509500000044,0.005095000000437722,None,,303.0974433999945,303.0974433999945,303.0974433999945,303.0974433999945,303.0974433999945,303.0974433999945,303.0974433999945,303.0974433999945,303.0974433999945,303.0974433999945,004,P001,2025_Jan_17_1838,ConditionRich,2021.2.3,59.95894011839048,
272.75,276.0,41,0.0,Stimuli/Blank.png,0,0.0,0.0,0,122,122,122,,,,,,,,,,,,,272.75551489999634,0.0055148999963421375,5,1.2253990000026533,303.84846649999963,303.84846649999963,303.84846649999963,303.84846649999963,303.84846649999963,303.84846649999963,303.84846649999963,303.84846649999963,303.84846649999963,303.84846649999963,004,P001,2025_Jan_17_1838,ConditionRich,2021.2.3,59.95894011839048,
276.0,292.0,0,0.0,Stimuli/Blank.png,1,1.0,1.75,0,123,123,123,,,,,,,,,,,,,276.0087477999987,0.008747799998673145,5,13.97262249999767,307.10138259999803,307.10138259999803,307.10138259999803,307.10138259999803,307.10138259999803,307.10138259999803,308.0857479999977,308.83614159999706,307.10138259999803,307.10138259999803,004,P001,2025_Jan_17_1838,ConditionRich,2021.2.3,59.95894011839048,
292.0,292.75,31,0.75,Stimuli/P001/things_man_01b.jpg,0,0.0,0.0,0,124,124,124,,,,,,,,,,,,,292.0059767999992,0.0059767999991890974,None,,323.09871629999543,323.09871629999543,323.09871629999543,323.09871629999543,323.09871629999543,323.09871629999543,323.09871629999543,323.09871629999543,323.09871629999543,323.09871629999543,004,P001,2025_Jan_17_1838,ConditionRich,2021.2.3,59.95894011839048,
292.75,296.0,41,0.0,Stimuli/Blank.png,0,0.0,0.0,0,125,125,125,,,,,,,,,,,,,292.75760230000014,0.007602300000144169,5,3.207482900004834,323.8663097999961,323.8663097999961,323.8663097999961,323.8663097999961,323.8663097999961,323.8663097999961,323.8663097999961,323.8663097999961,323.8663097999961,323.8663097999961,004,P001,2025_Jan_17_1838,ConditionRich,2021.2.3,59.95894011839048,
296.0,296.75,4,0.75,Stimuli/P001/sun_aonjwqswdblhlpkm.jpg,0,0.0,0.0,0,126,126,126,,,,,,,,,,,,,296.0265392999936,0.026539299993601162,None,,327.11898649999785,327.11898649999785,327.11898649999785,327.11898649999785,327.11898649999785,327.11898649999785,327.11898649999785,327.11898649999785,327.11898649999785,327.11898649999785,004,P001,2025_Jan_17_1838,ConditionRich,2021.2.3,59.95894011839048,
296.75,300.0,41,0.0,Stimuli/Blank.png,0,0.0,0.0,0,127,127,127,,,,,,,,,,,,,296.760620999994,0.010620999993989244,5,1.2212157999965711,327.85280529999727,327.85280529999727,327.85280529999727,327.85280529999727,327.85280529999727,327.85280529999727,327.85280529999727,327.85280529999727,327.85280529999727,327.85280529999727,004,P001,2025_Jan_17_1838,ConditionRich,2021.2.3,59.95894011839048,
300.0,300.75,29,0.75,Stimuli/P001/things_grinder_01b.jpg,0,0.0,0.0,0,128,128,128,,,,,,,,,,,,,300.01412129999517,0.014121299995167647,None,,331.10636410000006,331.10636410000006,331.10636410000006,331.10636410000006,331.10636410000006,331.10636410000006,331.10636410000006,331.10636410000006,331.10636410000006,331.10636410000006,004,P001,2025_Jan_17_1838,ConditionRich,2021.2.3,59.95894011839048,
300.75,304.0,41,0.0,Stimuli/Blank.png,0,0.0,0.0,0,129,129,129,,,,,,,,,,,,,300.7654753999959,0.01547539999592118,5,3.214196400003857,331.8596047999963,331.8596047999963,331.8596047999963,331.8596047999963,331.8596047999963,331.8596047999963,331.8596047999963,331.8596047999963,331.8596047999963,331.8596047999963,004,P001,2025_Jan_17_1838,ConditionRich,2021.2.3,59.95894011839048,
304.0,304.75,21,0.75,Stimuli/P001/things_baby_01b.jpg,0,0.0,0.0,0,130,130,130,,,,,,,,,,,,,304.01668159999826,0.016681599998264574,None,,335.10949369999435,335.10949369999435,335.10949369999435,335.10949369999435,335.10949369999435,335.10949369999435,335.10949369999435,335.10949369999435,335.10949369999435,335.10949369999435,004,P001,2025_Jan_17_1838,ConditionRich,2021.2.3,59.95894011839048,
304.75,308.0,41,0.0,Stimuli/Blank.png,0,0.0,0.0,0,131,131,131,,,,,,,,,,,,,304.75134999999864,0.0013499999986379407,5,1.2306320999996387,335.8432055999947,335.8432055999947,335.8432055999947,335.8432055999947,335.8432055999947,335.8432055999947,335.8432055999947,335.8432055999947,335.8432055999947,335.8432055999947,004,P001,2025_Jan_17_1838,ConditionRich,2021.2.3,59.95894011839048,
308.0,308.75,27,0.75,Stimuli/P001/things_dynamite_01b.jpg,0,0.0,0.0,0,132,132,132,,,,,,,,,,,,,308.00461129999894,0.004611299998941831,None,,339.11283069999627,339.11283069999627,339.11283069999627,339.11283069999627,339.11283069999627,339.11283069999627,339.11283069999627,339.11283069999627,339.11283069999627,339.11283069999627,004,P001,2025_Jan_17_1838,ConditionRich,2021.2.3,59.95894011839048,
308.75,312.0,41,0.0,Stimuli/Blank.png,1,2.25,3.0,0,133,133,133,,,,,,,,,,,,,308.7721573999952,0.022157399995194282,5,3.1937036000017542,339.8804558999982,339.8804558999982,339.8804558999982,339.8804558999982,339.8804558999982,339.8804558999982,342.098886199994,342.8497233999951,339.8804558999982,339.8804558999982,004,P001,2025_Jan_17_1838,ConditionRich,2021.2.3,59.95894011839048,
312.0,312.75,16,0.75,Stimuli/P001/sun_biqyomkjbujnppuf.jpg,0,0.0,0.0,0,134,134,134,,,,,,,,,,,,,312.0242347999956,0.024234799995610956,None,,343.11746989999665,343.11746989999665,343.11746989999665,343.11746989999665,343.11746989999665,343.11746989999665,343.11746989999665,343.11746989999665,343.11746989999665,343.11746989999665,004,P001,2025_Jan_17_1838,ConditionRich,2021.2.3,59.95894011839048,
312.75,316.0,41,0.0,Stimuli/Blank.png,0,0.0,0.0,0,135,135,135,,,,,,,,,,,,,312.7578745999999,0.007874599999922793,5,1.222995500000252,343.8508447999993,343.8508447999993,343.8508447999993,343.8508447999993,343.8508447999993,343.8508447999993,343.8508447999993,343.8508447999993,343.8508447999993,343.8508447999993,004,P001,2025_Jan_17_1838,ConditionRich,2021.2.3,59.95894011839048,
316.0,316.75,30,0.75,Stimuli/P001/things_iguana_01b.jpg,1,0.0,0.75,0,136,136,136,,,,,,,,,,,,,316.01068289999967,0.010682899999665096,3,0.43498750000435393,347.10893369999394,347.10893369999394,347.10893369999394,347.10893369999394,347.10893369999394,347.10893369999394,347.10893369999394,347.83729939999466,347.10893369999394,347.10893369999394,004,P001,2025_Jan_17_1838,ConditionRich,2021.2.3,59.95894011839048,
316.75,320.0,41,0.0,Stimuli/Blank.png,0,0.0,0.0,0,137,137,137,,,,,,,,,,,,,316.76114559999405,0.011145599994051736,5,3.220009700002265,347.8539791999938,347.8539791999938,347.8539791999938,347.8539791999938,347.8539791999938,347.8539791999938,347.8539791999938,347.8539791999938,347.8539791999938,347.8539791999938,004,P001,2025_Jan_17_1838,ConditionRich,2021.2.3,59.95894011839048,
320.0,320.75,20,0.75,Stimuli/P001/sun_dkgctqgpvxbaoyks.jpg,0,0.0,0.0,0,138,138,138,,,,,,,,,,,,,320.0131698999976,0.013169899997592438,None,,351.1065393999961,351.1065393999961,351.1065393999961,351.1065393999961,351.1065393999961,351.1065393999961,351.1065393999961,351.1065393999961,351.1065393999961,351.1065393999961,004,P001,2025_Jan_17_1838,ConditionRich,2021.2.3,59.95894011839048,
320.75,324.0,41,0.0,Stimuli/Blank.png,1,1.25,2.0,0,139,139,139,,,,,,,,,,,,,320.76445299999614,0.014452999996137805,3,1.6796180000019376,351.8575092999963,351.8575092999963,351.8575092999963,351.8575092999963,351.8575092999963,351.8575092999963,353.0922197999971,353.84289909999643,351.8575092999963,351.8575092999963,004,P001,2025_Jan_17_1838,ConditionRich,2021.2.3,59.95894011839048,
324.0,324.75,11,0.75,Stimuli/P001/sun_bbfdgdyeqdnadvvi.jpg,0,0.0,0.0,0,140,140,140,,,,,,,,,,,,,324.00203619999957,0.0020361999995657243,None,,355.09648169999855,355.09648169999855,355.09648169999855,355.09648169999855,355.09648169999855,355.09648169999855,355.09648169999855,355.09648169999855,355.09648169999855,355.09648169999855,004,P001,2025_Jan_17_1838,ConditionRich,2021.2.3,59.95894011839048,
324.75,328.0,41,0.0,Stimuli/Blank.png,0,0.0,0.0,0,141,141,141,,,,,,,,,,,,,324.7530040999991,0.003004099999088794,5,1.2297676000016509,355.84422309999354,355.84422309999354,355.84422309999354,355.84422309999354,355.84422309999354,355.84422309999354,355.84422309999354,355.84422309999354,355.84422309999354,355.84422309999354,004,P001,2025_Jan_17_1838,ConditionRich,2021.2.3,59.95894011839048,
328.0,328.75,22,0.75,Stimuli/P001/things_boy_01b.jpg,0,0.0,0.0,0,142,142,142,,,,,,,,,,,,,328.0043676999994,0.004367699999420438,None,,359.0972318999993,359.0972318999993,359.0972318999993,359.0972318999993,359.0972318999993,359.0972318999993,359.0972318999993,359.0972318999993,359.0972318999993,359.0972318999993,004,P001,2025_Jan_17_1838,ConditionRich,2021.2.3,59.95894011839048,
328.75,332.0,41,0.0,Stimuli/Blank.png,0,0.0,0.0,0,143,143,143,,,,,,,,,,,,,328.7559626000002,0.005962600000202656,5,1.2261606999963988,359.8480392999991,359.8480392999991,359.8480392999991,359.8480392999991,359.8480392999991,359.8480392999991,359.8480392999991,359.8480392999991,359.8480392999991,359.8480392999991,004,P001,2025_Jan_17_1838,ConditionRich,2021.2.3,59.95894011839048,
332.0,332.75,23,0.75,Stimuli/P001/things_chick_01b.jpg,0,0.0,0.0,0,144,144,144,,,,,,,,,,,,,332.00936720000027,0.009367200000269804,None,,363.10272619999887,363.10272619999887,363.10272619999887,363.10272619999887,363.10272619999887,363.10272619999887,363.10272619999887,363.10272619999887,363.10272619999887,363.10272619999887,004,P001,2025_Jan_17_1838,ConditionRich,2021.2.3,59.95894011839048,
332.75,336.0,41,0.0,Stimuli/Blank.png,0,0.0,0.0,0,145,145,145,,,,,,,,,,,,,332.75938669999596,0.009386699995957315,5,1.222281700000167,363.8516664999988,363.8516664999988,363.8516664999988,363.8516664999988,363.8516664999988,363.8516664999988,363.8516664999988,363.8516664999988,363.8516664999988,363.8516664999988,004,P001,2025_Jan_17_1838,ConditionRich,2021.2.3,59.95894011839048,
336.0,336.75,32,0.75,Stimuli/P001/things_oyster_01b.jpg,0,0.0,0.0,0,146,146,146,,,,,,,,,,,,,336.0126436999999,0.012643699999898672,None,,367.1041471999997,367.1041471999997,367.1041471999997,367.1041471999997,367.1041471999997,367.1041471999997,367.1041471999997,367.1041471999997,367.1041471999997,367.1041471999997,004,P001,2025_Jan_17_1838,ConditionRich,2021.2.3,59.95894011839048,
336.75,340.0,41,0.0,Stimuli/Blank.png,0,0.0,0.0,0,147,147,147,,,,,,,,,,,,,336.7637106999973,0.013710699997318443,5,1.2181430000055116,367.85584639999433,367.85584639999433,367.85584639999433,367.85584639999433,367.85584639999433,367.85584639999433,367.85584639999433,367.85584639999433,367.85584639999433,367.85584639999433,004,P001,2025_Jan_17_1838,ConditionRich,2021.2.3,59.95894011839048,
340.0,340.75,10,0.75,Stimuli/P001/sun_aykefnhciwsffcrj.jpg,0,0.0,0.0,0,148,148,148,,,,,,,,,,,,,339.9998370999965,-0.00016290000348817557,None,,371.093077599995,371.093077599995,371.093077599995,371.093077599995,371.093077599995,371.093077599995,371.093077599995,371.093077599995,371.093077599995,371.093077599995,004,P001,2025_Jan_17_1838,ConditionRich,2021.2.3,59.95894011839048,
340.75,344.0,41,0.0,Stimuli/Blank.png,0,0.0,0.0,0,149,149,149,,,,,,,,,,,,,340.7666118999987,0.01661189999867929,5,1.2152146000007633,371.8589087999935,371.8589087999935,371.8589087999935,371.8589087999935,371.8589087999935,371.8589087999935,371.8589087999935,371.8589087999935,371.8589087999935,371.8589087999935,004,P001,2025_Jan_17_1838,ConditionRich,2021.2.3,59.95894011839048,
344.0,344.75,2,0.75,Stimuli/P001/sun_akmxsxepquhynflp.jpg,1,0.0,0.75,0,150,150,150,,,,,,,,,,,,,344.00222469999426,0.002224699994258117,3,0.4195255000013276,375.09457689999545,375.09457689999545,375.09457689999545,375.09457689999545,375.09457689999545,375.09457689999545,375.09457689999545,375.8288235,375.09457689999545,375.09457689999545,004,P001,2025_Jan_17_1838,ConditionRich,2021.2.3,59.95894011839048,
344.75,348.0,41,0.0,Stimuli/Blank.png,0,0.0,0.0,0,151,151,151,,,,,,,,,,,,,344.7526771999983,0.0026771999982884154,5,1.2285199999969336,375.84548209999775,375.84548209999775,375.84548209999775,375.84548209999775,375.84548209999775,375.84548209999775,375.84548209999775,375.84548209999775,375.84548209999775,375.84548209999775,004,P001,2025_Jan_17_1838,ConditionRich,2021.2.3,59.95894011839048,
348.0,348.75,5,0.75,Stimuli/P001/sun_apwzcrxhvvnrexjh.jpg,0,0.0,0.0,0,152,152,152,,,,,,,,,,,,,348.0074441999968,0.007444199996825773,None,,379.100022599996,379.100022599996,379.100022599996,379.100022599996,379.100022599996,379.100022599996,379.100022599996,379.100022599996,379.100022599996,379.100022599996,004,P001,2025_Jan_17_1838,ConditionRich,2021.2.3,59.95894011839048,
348.75,352.0,41,0.0,Stimuli/Blank.png,0,0.0,0.0,0,153,153,153,,,,,,,,,,,,,348.756550399994,0.006550399994011968,5,1.2252413000023807,379.8490135999964,379.8490135999964,379.8490135999964,379.8490135999964,379.8490135999964,379.8490135999964,379.8490135999964,379.8490135999964,379.8490135999964,379.8490135999964,004,P001,2025_Jan_17_1838,ConditionRich,2021.2.3,59.95894011839048,
352.0,352.75,25,0.75,Stimuli/P001/things_curry_01b.jpg,0,0.0,0.0,0,154,154,154,,,,,,,,,,,,,352.0113738999935,0.011373899993486702,None,,383.1062271999981,383.1062271999981,383.1062271999981,383.1062271999981,383.1062271999981,383.1062271999981,383.1062271999981,383.1062271999981,383.1062271999981,383.1062271999981,004,P001,2025_Jan_17_1838,ConditionRich,2021.2.3,59.95894011839048,
352.75,356.0,41,0.0,Stimuli/Blank.png,0,0.0,0.0,0,155,155,155,,,,,,,,,,,,,352.75967589999345,0.00967589999345364,5,1.2213353999977699,383.8526008999979,383.8526008999979,383.8526008999979,383.8526008999979,383.8526008999979,383.8526008999979,383.8526008999979,383.8526008999979,383.8526008999979,383.8526008999979,004,P001,2025_Jan_17_1838,ConditionRich,2021.2.3,59.95894011839048,
356.0,356.75,14,0.75,Stimuli/P001/sun_bfgxassmmvhtarcc.jpg,0,0.0,0.0,0,156,156,156,,,,,,,,,,,,,356.0120198000004,0.01201980000041658,None,,387.10507009999856,387.10507009999856,387.10507009999856,387.10507009999856,387.10507009999856,387.10507009999856,387.10507009999856,387.10507009999856,387.10507009999856,387.10507009999856,004,P001,2025_Jan_17_1838,ConditionRich,2021.2.3,59.95894011839048,
356.75,360.0,41,0.0,Stimuli/Blank.png,0,0.0,0.0,0,157,157,157,,,,,,,,,,,,,356.7631417999946,0.013141799994627945,5,1.2177318999965792,387.8561935999969,387.8561935999969,387.8561935999969,387.8561935999969,387.8561935999969,387.8561935999969,387.8561935999969,387.8561935999969,387.8561935999969,387.8561935999969,004,P001,2025_Jan_17_1838,ConditionRich,2021.2.3,59.95894011839048,
360.0,360.75,19,0.75,Stimuli/P001/sun_bzyyqqczvrnvukdn.jpg,0,0.0,0.0,0,158,158,158,,,,,,,,,,,,,359.99949009999546,-0.000509900004544761,None,,391.09215140000015,391.09215140000015,391.09215140000015,391.09215140000015,391.09215140000015,391.09215140000015,391.09215140000015,391.09215140000015,391.09215140000015,391.09215140000015,004,P001,2025_Jan_17_1838,ConditionRich,2021.2.3,59.95894011839048,
360.75,364.0,41,0.0,Stimuli/Blank.png,0,0.0,0.0,0,159,159,159,,,,,,,,,,,,,360.74988719999965,-0.00011280000035185367,5,1.2312220000021625,391.8429130999939,391.8429130999939,391.8429130999939,391.8429130999939,391.8429130999939,391.8429130999939,391.8429130999939,391.8429130999939,391.8429130999939,391.8429130999939,004,P001,2025_Jan_17_1838,ConditionRich,2021.2.3,59.95894011839048,
364.0,364.75,1,0.75,Stimuli/P001/sun_agpgdwkhzgvzdaea.jpg,0,0.0,0.0,0,160,160,160,,,,,,,,,,,,,364.0038659999991,0.0038659999991068617,None,,395.0971279000005,395.0971279000005,395.0971279000005,395.0971279000005,395.0971279000005,395.0971279000005,395.0971279000005,395.0971279000005,395.0971279000005,395.0971279000005,004,P001,2025_Jan_17_1838,ConditionRich,2021.2.3,59.95894011839048,
364.75,368.0,41,0.0,Stimuli/Blank.png,0,0.0,0.0,0,161,161,161,,,,,,,,,,,,,364.7541118999943,0.004111899994313717,5,1.2275459000011324,395.8466374999989,395.8466374999989,395.8466374999989,395.8466374999989,395.8466374999989,395.8466374999989,395.8466374999989,395.8466374999989,395.8466374999989,395.8466374999989,004,P001,2025_Jan_17_1838,ConditionRich,2021.2.3,59.95894011839048,
368.0,368.75,40,0.75,Stimuli/P001/things_worm_01b.jpg,0,0.0,0.0,0,162,162,162,,,,,,,,,,,,,368.0070668999979,0.007066899997880682,None,,399.0995743999956,399.0995743999956,399.0995743999956,399.0995743999956,399.0995743999956,399.0995743999956,399.0995743999956,399.0995743999956,399.0995743999956,399.0995743999956,004,P001,2025_Jan_17_1838,ConditionRich,2021.2.3,59.95894011839048,
368.75,372.0,41,0.0,Stimuli/Blank.png,0,0.0,0.0,0,163,163,163,,,,,,,,,,,,,368.75820949999616,0.0082094999961555,5,1.2235144000005675,399.8504075999954,399.8504075999954,399.8504075999954,399.8504075999954,399.8504075999954,399.8504075999954,399.8504075999954,399.8504075999954,399.8504075999954,399.8504075999954,004,P001,2025_Jan_17_1838,ConditionRich,2021.2.3,59.95894011839048,
372.0,388.0,0,0.0,Stimuli/Blank.png,1,11.0,11.75,0,164,164,164,,,,,,,,,,,,,372.0097065999944,0.009706599994387943,5,13.971177699997497,403.1028707000005,403.1028707000005,403.1028707000005,403.1028707000005,403.1028707000005,403.1028707000005,414.07954609999433,414.83012609999423,403.1028707000005,403.1028707000005,004,P001,2025_Jan_17_1838,ConditionRich,2021.2.3,59.95894011839048,
