eventStartTime,eventEndTime,eventCond,imSize,imFile,responseEvent,fixRespStart,fixRespEnd,Events.thisRepN,Events.thisTrialN,Events.thisN,Events.thisIndex,Instructions.started,Instructions.stopped,participantReadyResponse.keys,participantReadyResponse.rt,participantReadyResponse.started,participantReadyResponse.stopped,startWaitforTrigger,triggerResponse.keys,triggerResponse.rt,triggerResponse.started,triggerResponse.stopped,globalTimer,actualStartTime,startTimingDiff,participantResponse.keys,participantResponse.rt,participantResponse.started,participantResponse.stopped,image.started,image.stopped,fixationOutside.started,fixationOutside.stopped,fixationResponse.started,fixationResponse.stopped,fixationInside.started,fixationInside.stopped,session,participant,date,expName,psychopyVersion,frameRate,
,,,,,,,,,,,,12.277218399998674,None,3,1.3274743999936618,12.277218399998674,None,,,,,,,,,,,,,,,,,,,,,005,P001,2025_Jan_17_1854,ConditionRich,2021.2.3,59.9354016258947,
,,,,,,,,,,,,,,,,,,13.61587590000272,5,15.199729499996465,13.62903560000268,None,,,,,,,,,,,,,,,,005,P001,2025_Jan_17_1854,ConditionRich,2021.2.3,59.9354016258947,
0.0,4.0,0,0.0,Stimuli/Blank.png,0,0,0.0,0,0,0,0,,,,,,,,,,,,28.846044999998412,0.03640359999553766,0.03640359999553766,5,3.919532400002936,28.909300999999687,None,28.909300999999687,None,28.909300999999687,None,28.909300999999687,28.909300999999687,28.909300999999687,None,005,P001,2025_Jan_17_1854,ConditionRich,2021.2.3,59.9354016258947,
4.0,4.75,29,0.75,Stimuli/P001/things_grinder_01b.jpg,1,0,0.75,0,1,1,1,,,,,,,,,,,,,4.021941099999822,0.021941099999821745,3,0.4373238000043784,32.89645179999934,32.89645179999934,32.89645179999934,32.89645179999934,32.89645179999934,32.89645179999934,32.89645179999934,None,32.89645179999934,32.89645179999934,005,P001,2025_Jan_17_1854,ConditionRich,2021.2.3,59.9354016258947,
4.75,5.0,41,0.0,Stimuli/Blank.png,0,0,0.0,0,2,2,2,,,,,,,,,,,,,4.773242699993716,0.023242699993716087,None,,33.64713309999934,33.64713309999934,33.64713309999934,33.64713309999934,33.64713309999934,33.64713309999934,33.64713309999934,33.64713309999934,33.64713309999934,33.64713309999934,005,P001,2025_Jan_17_1854,ConditionRich,2021.2.3,59.9354016258947,
5.0,5.75,29,0.75,Stimuli/P001/things_grinder_01b.jpg,0,0,0.0,0,3,3,3,,,,,,,,,,,,,5.020602399999916,0.020602399999916088,None,,33.8803803999981,33.8803803999981,33.8803803999981,33.8803803999981,33.8803803999981,33.8803803999981,33.8803803999981,33.8803803999981,33.8803803999981,33.8803803999981,005,P001,2025_Jan_17_1854,ConditionRich,2021.2.3,59.9354016258947,
5.75,6.0,41,0.0,Stimuli/Blank.png,0,0,0.0,0,4,4,4,,,,,,,,,,,,,5.756122699996922,0.006122699996922165,5,0.1975144999960321,34.631146500003524,34.631146500003524,34.631146500003524,34.631146500003524,34.631146500003524,34.631146500003524,34.631146500003524,34.631146500003524,34.631146500003524,34.631146500003524,005,P001,2025_Jan_17_1854,ConditionRich,2021.2.3,59.9354016258947,
6.0,6.75,29,0.75,Stimuli/P001/things_grinder_01b.jpg,0,0,0.0,0,5,5,5,,,,,,,,,,,,,6.021804799995152,0.02180479999515228,None,,34.89794509999774,34.89794509999774,34.89794509999774,34.89794509999774,34.89794509999774,34.89794509999774,34.89794509999774,34.89794509999774,34.89794509999774,34.89794509999774,005,P001,2025_Jan_17_1854,ConditionRich,2021.2.3,59.9354016258947,
6.75,7.0,41,0.0,Stimuli/Blank.png,0,0,0.0,0,6,6,6,,,,,,,,,,,,,6.7720357999933185,0.022035799993318506,None,,35.63192359999812,35.63192359999812,35.63192359999812,35.63192359999812,35.63192359999812,35.63192359999812,35.63192359999812,35.63192359999812,35.63192359999812,35.63192359999812,005,P001,2025_Jan_17_1854,ConditionRich,2021.2.3,59.9354016258947,
7.0,7.75,29,0.75,Stimuli/P001/things_grinder_01b.jpg,0,0,0.0,0,7,7,7,,,,,,,,,,,,,7.0052436999976635,0.005243699997663498,None,,35.86544889999641,35.86544889999641,35.86544889999641,35.86544889999641,35.86544889999641,35.86544889999641,35.86544889999641,35.86544889999641,35.86544889999641,35.86544889999641,005,P001,2025_Jan_17_1854,ConditionRich,2021.2.3,59.9354016258947,
7.75,8.0,41,0.0,Stimuli/Blank.png,0,0,0.0,0,8,8,8,,,,,,,,,,,,,7.75699639999948,0.006996399999479763,5,0.2127602999971714,36.616118600002665,36.616118600002665,36.616118600002665,36.616118600002665,36.616118600002665,36.616118600002665,36.616118600002665,36.616118600002665,36.616118600002665,36.616118600002665,005,P001,2025_Jan_17_1854,ConditionRich,2021.2.3,59.9354016258947,
8.0,8.75,30,0.75,Stimuli/P001/things_iguana_01b.jpg,0,0,0.0,0,9,9,9,,,,,,,,,,,,,8.006451099994592,0.006451099994592369,None,,36.866310199999134,36.866310199999134,36.866310199999134,36.866310199999134,36.866310199999134,36.866310199999134,36.866310199999134,36.866310199999134,36.866310199999134,36.866310199999134,005,P001,2025_Jan_17_1854,ConditionRich,2021.2.3,59.9354016258947,
8.75,9.0,41,0.0,Stimuli/Blank.png,0,0,0.0,0,10,10,10,,,,,,,,,,,,,8.756972199997108,0.006972199997107964,None,,37.61700350000319,37.61700350000319,37.61700350000319,37.61700350000319,37.61700350000319,37.61700350000319,37.61700350000319,37.61700350000319,37.61700350000319,37.61700350000319,005,P001,2025_Jan_17_1854,ConditionRich,2021.2.3,59.9354016258947,
9.0,9.75,30,0.75,Stimuli/P001/things_iguana_01b.jpg,0,0,0.0,0,11,11,11,,,,,,,,,,,,,9.00651499999367,0.006514999993669335,None,,37.8672224999973,37.8672224999973,37.8672224999973,37.8672224999973,37.8672224999973,37.8672224999973,37.8672224999973,37.8672224999973,37.8672224999973,37.8672224999973,005,P001,2025_Jan_17_1854,ConditionRich,2021.2.3,59.9354016258947,
9.75,10.0,41,0.0,Stimuli/Blank.png,0,0,0.0,0,12,12,12,,,,,,,,,,,,,9.757670399994822,0.007670399994822219,5,0.21099030000186758,38.61788450000313,38.61788450000313,38.61788450000313,38.61788450000313,38.61788450000313,38.61788450000313,38.61788450000313,38.61788450000313,38.61788450000313,38.61788450000313,005,P001,2025_Jan_17_1854,ConditionRich,2021.2.3,59.9354016258947,
10.0,10.75,30,0.75,Stimuli/P001/things_iguana_01b.jpg,0,0,0.0,0,13,13,13,,,,,,,,,,,,,10.007603299993207,0.007603299993206747,None,,38.868113199998334,38.868113199998334,38.868113199998334,38.868113199998334,38.868113199998334,38.868113199998334,38.868113199998334,38.868113199998334,38.868113199998334,38.868113199998334,005,P001,2025_Jan_17_1854,ConditionRich,2021.2.3,59.9354016258947,
10.75,11.0,41,0.0,Stimuli/Blank.png,0,0,0.0,0,14,14,14,,,,,,,,,,,,,10.759490299999015,0.009490299999015406,None,,39.61876979999943,39.61876979999943,39.61876979999943,39.61876979999943,39.61876979999943,39.61876979999943,39.61876979999943,39.61876979999943,39.61876979999943,39.61876979999943,005,P001,2025_Jan_17_1854,ConditionRich,2021.2.3,59.9354016258947,
11.0,11.75,30,0.75,Stimuli/P001/things_iguana_01b.jpg,0,0,0.0,0,15,15,15,,,,,,,,,,,,,11.011225499998545,0.011225499998545274,None,,39.88567619999958,39.88567619999958,39.88567619999958,39.88567619999958,39.88567619999958,39.88567619999958,39.88567619999958,39.88567619999958,39.88567619999958,39.88567619999958,005,P001,2025_Jan_17_1854,ConditionRich,2021.2.3,59.9354016258947,
11.75,12.0,41,0.0,Stimuli/Blank.png,0,0,0.0,0,16,16,16,,,,,,,,,,,,,11.776577099997667,0.026577099997666664,5,0.1756158999996842,40.65307559999928,40.65307559999928,40.65307559999928,40.65307559999928,40.65307559999928,40.65307559999928,40.65307559999928,40.65307559999928,40.65307559999928,40.65307559999928,005,P001,2025_Jan_17_1854,ConditionRich,2021.2.3,59.9354016258947,
12.0,12.75,6,0.75,Stimuli/P001/sun_aqbaaqeojrexbmcr.jpg,0,0,0.0,0,17,17,17,,,,,,,,,,,,,12.026790299998538,0.026790299998538103,None,,40.903270599999814,40.903270599999814,40.903270599999814,40.903270599999814,40.903270599999814,40.903270599999814,40.903270599999814,40.903270599999814,40.903270599999814,40.903270599999814,005,P001,2025_Jan_17_1854,ConditionRich,2021.2.3,59.9354016258947,
12.75,13.0,41,0.0,Stimuli/Blank.png,0,0,0.0,0,18,18,18,,,,,,,,,,,,,12.776693499996327,0.026693499996326864,None,,41.63721999999689,41.63721999999689,41.63721999999689,41.63721999999689,41.63721999999689,41.63721999999689,41.63721999999689,41.63721999999689,41.63721999999689,41.63721999999689,005,P001,2025_Jan_17_1854,ConditionRich,2021.2.3,59.9354016258947,
13.0,13.75,6,0.75,Stimuli/P001/sun_aqbaaqeojrexbmcr.jpg,0,0,0.0,0,19,19,19,,,,,,,,,,,,,13.010150099995371,0.01015009999537142,None,,41.87076789999992,41.87076789999992,41.87076789999992,41.87076789999992,41.87076789999992,41.87076789999992,41.87076789999992,41.87076789999992,41.87076789999992,41.87076789999992,005,P001,2025_Jan_17_1854,ConditionRich,2021.2.3,59.9354016258947,
13.75,14.0,41,0.0,Stimuli/Blank.png,0,0,0.0,0,20,20,20,,,,,,,,,,,,,13.76216569999815,0.012165699998149648,5,0.20725970000057714,42.6214312000011,42.6214312000011,42.6214312000011,42.6214312000011,42.6214312000011,42.6214312000011,42.6214312000011,42.6214312000011,42.6214312000011,42.6214312000011,005,P001,2025_Jan_17_1854,ConditionRich,2021.2.3,59.9354016258947,
14.0,14.75,6,0.75,Stimuli/P001/sun_aqbaaqeojrexbmcr.jpg,0,0,0.0,0,21,21,21,,,,,,,,,,,,,14.010975999997754,0.010975999997754116,None,,42.871618999997736,42.871618999997736,42.871618999997736,42.871618999997736,42.871618999997736,42.871618999997736,42.871618999997736,42.871618999997736,42.871618999997736,42.871618999997736,005,P001,2025_Jan_17_1854,ConditionRich,2021.2.3,59.9354016258947,
14.75,15.0,41,0.0,Stimuli/Blank.png,0,0,0.0,0,22,22,22,,,,,,,,,,,,,14.762532399996417,0.012532399996416643,None,,43.62230920000002,43.62230920000002,43.62230920000002,43.62230920000002,43.62230920000002,43.62230920000002,43.62230920000002,43.62230920000002,43.62230920000002,43.62230920000002,005,P001,2025_Jan_17_1854,ConditionRich,2021.2.3,59.9354016258947,
15.0,15.75,6,0.75,Stimuli/P001/sun_aqbaaqeojrexbmcr.jpg,0,0,0.0,0,23,23,23,,,,,,,,,,,,,15.012273299995286,0.012273299995285925,None,,43.872529100000975,43.872529100000975,43.872529100000975,43.872529100000975,43.872529100000975,43.872529100000975,43.872529100000975,43.872529100000975,43.872529100000975,43.872529100000975,005,P001,2025_Jan_17_1854,ConditionRich,2021.2.3,59.9354016258947,
15.75,16.0,41,0.0,Stimuli/Blank.png,0,0,0.0,0,24,24,24,,,,,,,,,,,,,15.763528599993151,0.013528599993151147,5,0.20550010000442853,44.62327350000123,44.62327350000123,44.62327350000123,44.62327350000123,44.62327350000123,44.62327350000123,44.62327350000123,44.62327350000123,44.62327350000123,44.62327350000123,005,P001,2025_Jan_17_1854,ConditionRich,2021.2.3,59.9354016258947,
16.0,16.75,24,0.75,Stimuli/P001/things_cornucopia_01b.jpg,0,0,0.0,0,25,25,25,,,,,,,,,,,,,16.012808299994504,0.012808299994503614,None,,44.87343189999956,44.87343189999956,44.87343189999956,44.87343189999956,44.87343189999956,44.87343189999956,44.87343189999956,44.87343189999956,44.87343189999956,44.87343189999956,005,P001,2025_Jan_17_1854,ConditionRich,2021.2.3,59.9354016258947,
16.75,17.0,41,0.0,Stimuli/Blank.png,0,0,0.0,0,26,26,26,,,,,,,,,,,,,16.766168799993466,0.016168799993465655,None,,45.64076609999756,45.64076609999756,45.64076609999756,45.64076609999756,45.64076609999756,45.64076609999756,45.64076609999756,45.64076609999756,45.64076609999756,45.64076609999756,005,P001,2025_Jan_17_1854,ConditionRich,2021.2.3,59.9354016258947,
17.0,17.75,24,0.75,Stimuli/P001/things_cornucopia_01b.jpg,0,0,0.0,0,27,27,27,,,,,,,,,,,,,17.01437889999943,0.01437889999942854,None,,45.89098769999691,45.89098769999691,45.89098769999691,45.89098769999691,45.89098769999691,45.89098769999691,45.89098769999691,45.89098769999691,45.89098769999691,45.89098769999691,005,P001,2025_Jan_17_1854,ConditionRich,2021.2.3,59.9354016258947,
17.75,18.0,41,0.0,Stimuli/Blank.png,0,0,0.0,0,28,28,28,,,,,,,,,,,,,17.781558899994707,0.031558899994706735,5,0.18712529999902472,46.64165050000156,46.64165050000156,46.64165050000156,46.64165050000156,46.64165050000156,46.64165050000156,46.64165050000156,46.64165050000156,46.64165050000156,46.64165050000156,005,P001,2025_Jan_17_1854,ConditionRich,2021.2.3,59.9354016258947,
18.0,18.75,24,0.75,Stimuli/P001/things_cornucopia_01b.jpg,0,0,0.0,0,29,29,29,,,,,,,,,,,,,18.01675389999582,0.016753899995819665,None,,46.89186509999854,46.89186509999854,46.89186509999854,46.89186509999854,46.89186509999854,46.89186509999854,46.89186509999854,46.89186509999854,46.89186509999854,46.89186509999854,005,P001,2025_Jan_17_1854,ConditionRich,2021.2.3,59.9354016258947,
18.75,19.0,41,0.0,Stimuli/Blank.png,0,0,0.0,0,30,30,30,,,,,,,,,,,,,18.76573649999773,0.01573649999772897,None,,47.6258428000001,47.6258428000001,47.6258428000001,47.6258428000001,47.6258428000001,47.6258428000001,47.6258428000001,47.6258428000001,47.6258428000001,47.6258428000001,005,P001,2025_Jan_17_1854,ConditionRich,2021.2.3,59.9354016258947,
19.0,19.75,24,0.75,Stimuli/P001/things_cornucopia_01b.jpg,0,0,0.0,0,31,31,31,,,,,,,,,,,,,19.001311799998803,0.0013117999988025986,None,,47.87608029999683,47.87608029999683,47.87608029999683,47.87608029999683,47.87608029999683,47.87608029999683,47.87608029999683,47.87608029999683,47.87608029999683,47.87608029999683,005,P001,2025_Jan_17_1854,ConditionRich,2021.2.3,59.9354016258947,
19.75,20.0,41,0.0,Stimuli/Blank.png,0,0,0.0,0,32,32,32,,,,,,,,,,,,,19.766761499995482,0.016761499995482154,None,,48.62674870000046,48.62674870000046,48.62674870000046,48.62674870000046,48.62674870000046,48.62674870000046,48.62674870000046,48.62674870000046,48.62674870000046,48.62674870000046,005,P001,2025_Jan_17_1854,ConditionRich,2021.2.3,59.9354016258947,
20.0,20.75,13,0.75,Stimuli/P001/sun_bfdmlbkyioxnkodb.jpg,0,0,0.0,0,33,33,33,,,,,,,,,,,,,19.999865499994485,-0.0001345000055152923,None,,48.86027699999977,48.86027699999977,48.86027699999977,48.86027699999977,48.86027699999977,48.86027699999977,48.86027699999977,48.86027699999977,48.86027699999977,48.86027699999977,005,P001,2025_Jan_17_1854,ConditionRich,2021.2.3,59.9354016258947,
20.75,21.0,41,0.0,Stimuli/Blank.png,0,0,0.0,0,34,34,34,,,,,,,,,,,,,20.75183389999438,0.0018338999943807721,None,,49.61095419999765,49.61095419999765,49.61095419999765,49.61095419999765,49.61095419999765,49.61095419999765,49.61095419999765,49.61095419999765,49.61095419999765,49.61095419999765,005,P001,2025_Jan_17_1854,ConditionRich,2021.2.3,59.9354016258947,
21.0,21.75,13,0.75,Stimuli/P001/sun_bfdmlbkyioxnkodb.jpg,0,0,0.0,0,35,35,35,,,,,,,,,,,,,21.00084309999511,0.000843099995108787,None,,49.86117199999717,49.86117199999717,49.86117199999717,49.86117199999717,49.86117199999717,49.86117199999717,49.86117199999717,49.86117199999717,49.86117199999717,49.86117199999717,005,P001,2025_Jan_17_1854,ConditionRich,2021.2.3,59.9354016258947,
21.75,22.0,41,0.0,Stimuli/Blank.png,0,0,0.0,0,36,36,36,,,,,,,,,,,,,21.752852300000086,0.002852300000085961,5,0.20053460000053747,50.62853560000076,50.62853560000076,50.62853560000076,50.62853560000076,50.62853560000076,50.62853560000076,50.62853560000076,50.62853560000076,50.62853560000076,50.62853560000076,005,P001,2025_Jan_17_1854,ConditionRich,2021.2.3,59.9354016258947,
22.0,22.75,13,0.75,Stimuli/P001/sun_bfdmlbkyioxnkodb.jpg,0,0,0.0,0,37,37,37,,,,,,,,,,,,,22.018310999999812,0.01831099999981234,None,,50.89541869999812,50.89541869999812,50.89541869999812,50.89541869999812,50.89541869999812,50.89541869999812,50.89541869999812,50.89541869999812,50.89541869999812,50.89541869999812,005,P001,2025_Jan_17_1854,ConditionRich,2021.2.3,59.9354016258947,
22.75,23.0,41,0.0,Stimuli/Blank.png,0,0,0.0,0,38,38,38,,,,,,,,,,,,,22.769558599997254,0.019558599997253623,None,,51.62938849999773,51.62938849999773,51.62938849999773,51.62938849999773,51.62938849999773,51.62938849999773,51.62938849999773,51.62938849999773,51.62938849999773,51.62938849999773,005,P001,2025_Jan_17_1854,ConditionRich,2021.2.3,59.9354016258947,
23.0,23.75,13,0.75,Stimuli/P001/sun_bfdmlbkyioxnkodb.jpg,0,0,0.0,0,39,39,39,,,,,,,,,,,,,23.003108199998678,0.003108199998678174,None,,51.87961730000097,51.87961730000097,51.87961730000097,51.87961730000097,51.87961730000097,51.87961730000097,51.87961730000097,51.87961730000097,51.87961730000097,51.87961730000097,005,P001,2025_Jan_17_1854,ConditionRich,2021.2.3,59.9354016258947,
23.75,24.0,41,0.0,Stimuli/Blank.png,0,0,0.0,0,40,40,40,,,,,,,,,,,,,23.770806399996218,0.020806399996217806,5,0.19804409999778727,52.63068979999662,52.63068979999662,52.63068979999662,52.63068979999662,52.63068979999662,52.63068979999662,52.63068979999662,52.63068979999662,52.63068979999662,52.63068979999662,005,P001,2025_Jan_17_1854,ConditionRich,2021.2.3,59.9354016258947,
24.0,24.75,32,0.75,Stimuli/P001/things_oyster_01b.jpg,0,0,0.0,0,41,41,41,,,,,,,,,,,,,24.003303499994217,0.003303499994217418,None,,52.86383919999935,52.86383919999935,52.86383919999935,52.86383919999935,52.86383919999935,52.86383919999935,52.86383919999935,52.86383919999935,52.86383919999935,52.86383919999935,005,P001,2025_Jan_17_1854,ConditionRich,2021.2.3,59.9354016258947,
24.75,25.0,41,0.0,Stimuli/Blank.png,0,0,0.0,0,42,42,42,,,,,,,,,,,,,24.75729560000036,0.007295600000361446,None,,53.631170399996336,53.631170399996336,53.631170399996336,53.631170399996336,53.631170399996336,53.631170399996336,53.631170399996336,53.631170399996336,53.631170399996336,53.631170399996336,005,P001,2025_Jan_17_1854,ConditionRich,2021.2.3,59.9354016258947,
25.0,25.75,32,0.75,Stimuli/P001/things_oyster_01b.jpg,1,0,0.75,0,43,43,43,,,,,,,,,,,,,25.020666399999755,0.020666399999754503,3,0.4433476999984123,53.88138269999763,53.88138269999763,53.88138269999763,53.88138269999763,53.88138269999763,53.88138269999763,53.88138269999763,None,53.88138269999763,53.88138269999763,005,P001,2025_Jan_17_1854,ConditionRich,2021.2.3,59.9354016258947,
25.75,26.0,41,0.0,Stimuli/Blank.png,0,0,0.0,0,44,44,44,,,,,,,,,,,,,25.757092099993315,0.00709209999331506,5,0.19682060000195634,54.632056499998725,54.632056499998725,54.632056499998725,54.632056499998725,54.632056499998725,54.632056499998725,54.632056499998725,54.632056499998725,54.632056499998725,54.632056499998725,005,P001,2025_Jan_17_1854,ConditionRich,2021.2.3,59.9354016258947,
26.0,26.75,32,0.75,Stimuli/P001/things_oyster_01b.jpg,0,0,0.0,0,45,45,45,,,,,,,,,,,,,26.02211449999595,0.02211449999595061,None,,54.88226610000129,54.88226610000129,54.88226610000129,54.88226610000129,54.88226610000129,54.88226610000129,54.88226610000129,54.88226610000129,54.88226610000129,54.88226610000129,005,P001,2025_Jan_17_1854,ConditionRich,2021.2.3,59.9354016258947,
26.75,27.0,41,0.0,Stimuli/Blank.png,0,0,0.0,0,46,46,46,,,,,,,,,,,,,26.757047199993394,0.007047199993394315,None,,55.63296100000298,55.63296100000298,55.63296100000298,55.63296100000298,55.63296100000298,55.63296100000298,55.63296100000298,55.63296100000298,55.63296100000298,55.63296100000298,005,P001,2025_Jan_17_1854,ConditionRich,2021.2.3,59.9354016258947,
27.0,27.75,32,0.75,Stimuli/P001/things_oyster_01b.jpg,0,0,0.0,0,47,47,47,,,,,,,,,,,,,27.022691599995596,0.022691599995596334,None,,55.88315400000283,55.88315400000283,55.88315400000283,55.88315400000283,55.88315400000283,55.88315400000283,55.88315400000283,55.88315400000283,55.88315400000283,55.88315400000283,005,P001,2025_Jan_17_1854,ConditionRich,2021.2.3,59.9354016258947,
27.75,28.0,41,0.0,Stimuli/Blank.png,0,0,0.0,0,48,48,48,,,,,,,,,,,,,27.757877799995185,0.007877799995185342,5,0.19478240000171354,56.63385830000334,56.63385830000334,56.63385830000334,56.63385830000334,56.63385830000334,56.63385830000334,56.63385830000334,56.63385830000334,56.63385830000334,56.63385830000334,005,P001,2025_Jan_17_1854,ConditionRich,2021.2.3,59.9354016258947,
28.0,28.75,40,0.75,Stimuli/P001/things_worm_01b.jpg,0,0,0.0,0,49,49,49,,,,,,,,,,,,,28.02366659999825,0.023666599998250604,None,,56.900724599996465,56.900724599996465,56.900724599996465,56.900724599996465,56.900724599996465,56.900724599996465,56.900724599996465,56.900724599996465,56.900724599996465,56.900724599996465,005,P001,2025_Jan_17_1854,ConditionRich,2021.2.3,59.9354016258947,
28.75,29.0,41,0.0,Stimuli/Blank.png,0,0,0.0,0,50,50,50,,,,,,,,,,,,,28.777017499996873,0.027017499996873084,None,,57.65138830000069,57.65138830000069,57.65138830000069,57.65138830000069,57.65138830000069,57.65138830000069,57.65138830000069,57.65138830000069,57.65138830000069,57.65138830000069,005,P001,2025_Jan_17_1854,ConditionRich,2021.2.3,59.9354016258947,
29.0,29.75,40,0.75,Stimuli/P001/things_worm_01b.jpg,0,0,0.0,0,51,51,51,,,,,,,,,,,,,29.027038499996706,0.027038499996706378,None,,57.90160409999953,57.90160409999953,57.90160409999953,57.90160409999953,57.90160409999953,57.90160409999953,57.90160409999953,57.90160409999953,57.90160409999953,57.90160409999953,005,P001,2025_Jan_17_1854,ConditionRich,2021.2.3,59.9354016258947,
29.75,30.0,41,0.0,Stimuli/Blank.png,0,0,0.0,0,52,52,52,,,,,,,,,,,,,29.775001899994095,0.025001899994094856,5,0.19311909999669297,58.63563129999966,58.63563129999966,58.63563129999966,58.63563129999966,58.63563129999966,58.63563129999966,58.63563129999966,58.63563129999966,58.63563129999966,58.63563129999966,005,P001,2025_Jan_17_1854,ConditionRich,2021.2.3,59.9354016258947,
30.0,30.75,40,0.75,Stimuli/P001/things_worm_01b.jpg,0,0,0.0,0,53,53,53,,,,,,,,,,,,,30.00927319999755,0.009273199997551274,None,,58.86912719999964,58.86912719999964,58.86912719999964,58.86912719999964,58.86912719999964,58.86912719999964,58.86912719999964,58.86912719999964,58.86912719999964,58.86912719999964,005,P001,2025_Jan_17_1854,ConditionRich,2021.2.3,59.9354016258947,
30.75,31.0,41,0.0,Stimuli/Blank.png,0,0,0.0,0,54,54,54,,,,,,,,,,,,,30.762074099999154,0.012074099999153987,None,,59.63647299999866,59.63647299999866,59.63647299999866,59.63647299999866,59.63647299999866,59.63647299999866,59.63647299999866,59.63647299999866,59.63647299999866,59.63647299999866,005,P001,2025_Jan_17_1854,ConditionRich,2021.2.3,59.9354016258947,
31.0,31.75,40,0.75,Stimuli/P001/things_worm_01b.jpg,0,0,0.0,0,55,55,55,,,,,,,,,,,,,31.02721069999825,0.027210699998249765,None,,59.90337310000177,59.90337310000177,59.90337310000177,59.90337310000177,59.90337310000177,59.90337310000177,59.90337310000177,59.90337310000177,59.90337310000177,59.90337310000177,005,P001,2025_Jan_17_1854,ConditionRich,2021.2.3,59.9354016258947,
31.75,32.0,41,0.0,Stimuli/Blank.png,0,0,0.0,0,56,56,56,,,,,,,,,,,,,31.77727139999479,0.027271399994788226,5,0.19194859999697655,60.63734690000274,60.63734690000274,60.63734690000274,60.63734690000274,60.63734690000274,60.63734690000274,60.63734690000274,60.63734690000274,60.63734690000274,60.63734690000274,005,P001,2025_Jan_17_1854,ConditionRich,2021.2.3,59.9354016258947,
32.0,32.75,15,0.75,Stimuli/P001/sun_bfzoxbkvsfqxsyle.jpg,0,0,0.0,0,57,57,57,,,,,,,,,,,,,32.01101629999903,0.011016299999027979,None,,60.87088970000332,60.87088970000332,60.87088970000332,60.87088970000332,60.87088970000332,60.87088970000332,60.87088970000332,60.87088970000332,60.87088970000332,60.87088970000332,005,P001,2025_Jan_17_1854,ConditionRich,2021.2.3,59.9354016258947,
32.75,33.0,41,0.0,Stimuli/Blank.png,0,0,0.0,0,58,58,58,,,,,,,,,,,,,32.76219249999849,0.012192499998491257,None,,61.62156120000145,61.62156120000145,61.62156120000145,61.62156120000145,61.62156120000145,61.62156120000145,61.62156120000145,61.62156120000145,61.62156120000145,61.62156120000145,005,P001,2025_Jan_17_1854,ConditionRich,2021.2.3,59.9354016258947,
33.0,33.75,15,0.75,Stimuli/P001/sun_bfzoxbkvsfqxsyle.jpg,0,0,0.0,0,59,59,59,,,,,,,,,,,,,33.01173269999708,0.011732699997082818,None,,61.888491700003215,61.888491700003215,61.888491700003215,61.888491700003215,61.888491700003215,61.888491700003215,61.888491700003215,61.888491700003215,61.888491700003215,61.888491700003215,005,P001,2025_Jan_17_1854,ConditionRich,2021.2.3,59.9354016258947,
33.75,34.0,41,0.0,Stimuli/Blank.png,0,0,0.0,0,60,60,60,,,,,,,,,,,,,33.77882839999802,0.02882839999801945,5,0.18984490000002552,62.63913129999855,62.63913129999855,62.63913129999855,62.63913129999855,62.63913129999855,62.63913129999855,62.63913129999855,62.63913129999855,62.63913129999855,62.63913129999855,005,P001,2025_Jan_17_1854,ConditionRich,2021.2.3,59.9354016258947,
34.0,34.75,15,0.75,Stimuli/P001/sun_bfzoxbkvsfqxsyle.jpg,0,0,0.0,0,61,61,61,,,,,,,,,,,,,34.01227829999698,0.012278299996978603,None,,62.87272959999973,62.87272959999973,62.87272959999973,62.87272959999973,62.87272959999973,62.87272959999973,62.87272959999973,62.87272959999973,62.87272959999973,62.87272959999973,005,P001,2025_Jan_17_1854,ConditionRich,2021.2.3,59.9354016258947,
34.75,35.0,41,0.0,Stimuli/Blank.png,0,0,0.0,0,62,62,62,,,,,,,,,,,,,34.76312059999327,0.013120599993271753,None,,63.62340289999702,63.62340289999702,63.62340289999702,63.62340289999702,63.62340289999702,63.62340289999702,63.62340289999702,63.62340289999702,63.62340289999702,63.62340289999702,005,P001,2025_Jan_17_1854,ConditionRich,2021.2.3,59.9354016258947,
35.0,35.75,15,0.75,Stimuli/P001/sun_bfzoxbkvsfqxsyle.jpg,0,0,0.0,0,63,63,63,,,,,,,,,,,,,35.013623999999254,0.01362399999925401,None,,63.890240300002915,63.890240300002915,63.890240300002915,63.890240300002915,63.890240300002915,63.890240300002915,63.890240300002915,63.890240300002915,63.890240300002915,63.890240300002915,005,P001,2025_Jan_17_1854,ConditionRich,2021.2.3,59.9354016258947,
35.75,36.0,41,0.0,Stimuli/Blank.png,0,0,0.0,0,64,64,64,,,,,,,,,,,,,35.78159519999463,0.031595199994626455,5,0.18782190000638366,64.64089650000096,64.64089650000096,64.64089650000096,64.64089650000096,64.64089650000096,64.64089650000096,64.64089650000096,64.64089650000096,64.64089650000096,64.64089650000096,005,P001,2025_Jan_17_1854,ConditionRich,2021.2.3,59.9354016258947,
36.0,36.75,4,0.75,Stimuli/P001/sun_aonjwqswdblhlpkm.jpg,1,0,0.75,0,65,65,65,,,,,,,,,,,,,36.01382569999987,0.013825699999870267,3,0.38272329999745125,64.89111660000344,64.89111660000344,64.89111660000344,64.89111660000344,64.89111660000344,64.89111660000344,64.89111660000344,65.60850439999922,64.89111660000344,64.89111660000344,005,P001,2025_Jan_17_1854,ConditionRich,2021.2.3,59.9354016258947,
36.75,37.0,41,0.0,Stimuli/Blank.png,0,0,0.0,0,66,66,66,,,,,,,,,,,,,36.782134699999006,0.032134699999005534,None,,65.64178649999667,65.64178649999667,65.64178649999667,65.64178649999667,65.64178649999667,65.64178649999667,65.64178649999667,65.64178649999667,65.64178649999667,65.64178649999667,005,P001,2025_Jan_17_1854,ConditionRich,2021.2.3,59.9354016258947,
37.0,37.75,4,0.75,Stimuli/P001/sun_aonjwqswdblhlpkm.jpg,0,0,0.0,0,67,67,67,,,,,,,,,,,,,36.99884649999876,-0.001153500001237262,None,,65.87531679999665,65.87531679999665,65.87531679999665,65.87531679999665,65.87531679999665,65.87531679999665,65.87531679999665,65.87531679999665,65.87531679999665,65.87531679999665,005,P001,2025_Jan_17_1854,ConditionRich,2021.2.3,59.9354016258947,
37.75,38.0,41,0.0,Stimuli/Blank.png,0,0,0.0,0,68,68,68,,,,,,,,,,,,,37.76636199999484,0.016361999994842336,None,,66.6259876999975,66.6259876999975,66.6259876999975,66.6259876999975,66.6259876999975,66.6259876999975,66.6259876999975,66.6259876999975,66.6259876999975,66.6259876999975,005,P001,2025_Jan_17_1854,ConditionRich,2021.2.3,59.9354016258947,
38.0,38.75,4,0.75,Stimuli/P001/sun_aonjwqswdblhlpkm.jpg,0,0,0.0,0,69,69,69,,,,,,,,,,,,,38.00017449999723,0.00017449999722884968,None,,66.87620340000285,66.87620340000285,66.87620340000285,66.87620340000285,66.87620340000285,66.87620340000285,66.87620340000285,66.87620340000285,66.87620340000285,66.87620340000285,005,P001,2025_Jan_17_1854,ConditionRich,2021.2.3,59.9354016258947,
38.75,39.0,41,0.0,Stimuli/Blank.png,0,0,0.0,0,70,70,70,,,,,,,,,,,,,38.767710099993565,0.017710099993564654,None,,67.64355429999705,67.64355429999705,67.64355429999705,67.64355429999705,67.64355429999705,67.64355429999705,67.64355429999705,67.64355429999705,67.64355429999705,67.64355429999705,005,P001,2025_Jan_17_1854,ConditionRich,2021.2.3,59.9354016258947,
39.0,39.75,4,0.75,Stimuli/P001/sun_aonjwqswdblhlpkm.jpg,0,0,0.0,0,71,71,71,,,,,,,,,,,,,39.017548399999214,0.01754839999921387,None,,67.87710250000237,67.87710250000237,67.87710250000237,67.87710250000237,67.87710250000237,67.87710250000237,67.87710250000237,67.87710250000237,67.87710250000237,67.87710250000237,005,P001,2025_Jan_17_1854,ConditionRich,2021.2.3,59.9354016258947,
39.75,40.0,41,0.0,Stimuli/Blank.png,0,0,0.0,0,72,72,72,,,,,,,,,,,,,39.75100719999318,0.0010071999931824394,5,0.21773070000199368,68.61107929999707,68.61107929999707,68.61107929999707,68.61107929999707,68.61107929999707,68.61107929999707,68.61107929999707,68.61107929999707,68.61107929999707,68.61107929999707,005,P001,2025_Jan_17_1854,ConditionRich,2021.2.3,59.9354016258947,
40.0,40.75,31,0.75,Stimuli/P001/things_man_01b.jpg,0,0,0.0,0,73,73,73,,,,,,,,,,,,,40.001155999998446,0.0011559999984456226,None,,68.86130219999905,68.86130219999905,68.86130219999905,68.86130219999905,68.86130219999905,68.86130219999905,68.86130219999905,68.86130219999905,68.86130219999905,68.86130219999905,005,P001,2025_Jan_17_1854,ConditionRich,2021.2.3,59.9354016258947,
40.75,41.0,41,0.0,Stimuli/Blank.png,0,0,0.0,0,74,74,74,,,,,,,,,,,,,40.75262219999422,0.002622199994220864,None,,69.62866059999942,69.62866059999942,69.62866059999942,69.62866059999942,69.62866059999942,69.62866059999942,69.62866059999942,69.62866059999942,69.62866059999942,69.62866059999942,005,P001,2025_Jan_17_1854,ConditionRich,2021.2.3,59.9354016258947,
41.0,41.75,31,0.75,Stimuli/P001/things_man_01b.jpg,0,0,0.0,0,75,75,75,,,,,,,,,,,,,41.01917489999323,0.01917489999323152,None,,69.89554019999923,69.89554019999923,69.89554019999923,69.89554019999923,69.89554019999923,69.89554019999923,69.89554019999923,69.89554019999923,69.89554019999923,69.89554019999923,005,P001,2025_Jan_17_1854,ConditionRich,2021.2.3,59.9354016258947,
41.75,42.0,41,0.0,Stimuli/Blank.png,0,0,0.0,0,76,76,76,,,,,,,,,,,,,41.76972899999964,0.019728999999642838,5,0.19912859999749344,70.62968540000293,70.62968540000293,70.62968540000293,70.62968540000293,70.62968540000293,70.62968540000293,70.62968540000293,70.62968540000293,70.62968540000293,70.62968540000293,005,P001,2025_Jan_17_1854,ConditionRich,2021.2.3,59.9354016258947,
42.0,42.75,31,0.75,Stimuli/P001/things_man_01b.jpg,0,0,0.0,0,77,77,77,,,,,,,,,,,,,42.00272959999711,0.002729599997110199,None,,70.86320580000029,70.86320580000029,70.86320580000029,70.86320580000029,70.86320580000029,70.86320580000029,70.86320580000029,70.86320580000029,70.86320580000029,70.86320580000029,005,P001,2025_Jan_17_1854,ConditionRich,2021.2.3,59.9354016258947,
42.75,43.0,41,0.0,Stimuli/Blank.png,0,0,0.0,0,78,78,78,,,,,,,,,,,,,42.75370439999824,0.00370439999824157,None,,71.61380949999875,71.61380949999875,71.61380949999875,71.61380949999875,71.61380949999875,71.61380949999875,71.61380949999875,71.61380949999875,71.61380949999875,71.61380949999875,005,P001,2025_Jan_17_1854,ConditionRich,2021.2.3,59.9354016258947,
43.0,43.75,31,0.75,Stimuli/P001/things_man_01b.jpg,0,0,0.0,0,79,79,79,,,,,,,,,,,,,43.00348029999441,0.0034802999944076873,None,,71.88063539999712,71.88063539999712,71.88063539999712,71.88063539999712,71.88063539999712,71.88063539999712,71.88063539999712,71.88063539999712,71.88063539999712,71.88063539999712,005,P001,2025_Jan_17_1854,ConditionRich,2021.2.3,59.9354016258947,
43.75,44.0,41,0.0,Stimuli/Blank.png,0,0,0.0,0,80,80,80,,,,,,,,,,,,,43.771365399996284,0.021365399996284395,5,0.1974456000025384,72.6312947999977,72.6312947999977,72.6312947999977,72.6312947999977,72.6312947999977,72.6312947999977,72.6312947999977,72.6312947999977,72.6312947999977,72.6312947999977,005,P001,2025_Jan_17_1854,ConditionRich,2021.2.3,59.9354016258947,
44.0,44.75,38,0.75,Stimuli/P001/things_windowsill_01b.jpg,0,0,0.0,0,81,81,81,,,,,,,,,,,,,44.00453629999538,0.0045362999953795224,None,,72.86482899999828,72.86482899999828,72.86482899999828,72.86482899999828,72.86482899999828,72.86482899999828,72.86482899999828,72.86482899999828,72.86482899999828,72.86482899999828,005,P001,2025_Jan_17_1854,ConditionRich,2021.2.3,59.9354016258947,
44.75,45.0,41,0.0,Stimuli/Blank.png,0,0,0.0,0,82,82,82,,,,,,,,,,,,,44.755739299995184,0.00573929999518441,None,,73.6155002000014,73.6155002000014,73.6155002000014,73.6155002000014,73.6155002000014,73.6155002000014,73.6155002000014,73.6155002000014,73.6155002000014,73.6155002000014,005,P001,2025_Jan_17_1854,ConditionRich,2021.2.3,59.9354016258947,
45.0,45.75,38,0.75,Stimuli/P001/things_windowsill_01b.jpg,0,0,0.0,0,83,83,83,,,,,,,,,,,,,45.00647619999654,0.006476199996541254,None,,73.8657142000011,73.8657142000011,73.8657142000011,73.8657142000011,73.8657142000011,73.8657142000011,73.8657142000011,73.8657142000011,73.8657142000011,73.8657142000011,005,P001,2025_Jan_17_1854,ConditionRich,2021.2.3,59.9354016258947,
45.75,46.0,41,0.0,Stimuli/Blank.png,0,0,0.0,0,84,84,84,,,,,,,,,,,,,45.75676039999962,0.006760399999620859,5,0.21250870000221767,74.61638099999982,74.61638099999982,74.61638099999982,74.61638099999982,74.61638099999982,74.61638099999982,74.61638099999982,74.61638099999982,74.61638099999982,74.61638099999982,005,P001,2025_Jan_17_1854,ConditionRich,2021.2.3,59.9354016258947,
46.0,46.75,38,0.75,Stimuli/P001/things_windowsill_01b.jpg,0,0,0.0,0,85,85,85,,,,,,,,,,,,,46.00619139999617,0.0061913999961689115,None,,74.86660310000298,74.86660310000298,74.86660310000298,74.86660310000298,74.86660310000298,74.86660310000298,74.86660310000298,74.86660310000298,74.86660310000298,74.86660310000298,005,P001,2025_Jan_17_1854,ConditionRich,2021.2.3,59.9354016258947,
46.75,47.0,41,0.0,Stimuli/Blank.png,0,0,0.0,0,86,86,86,,,,,,,,,,,,,46.756568699995114,0.006568699995114002,None,,75.61726610000187,75.61726610000187,75.61726610000187,75.61726610000187,75.61726610000187,75.61726610000187,75.61726610000187,75.61726610000187,75.61726610000187,75.61726610000187,005,P001,2025_Jan_17_1854,ConditionRich,2021.2.3,59.9354016258947,
47.0,47.75,38,0.75,Stimuli/P001/things_windowsill_01b.jpg,0,0,0.0,0,87,87,87,,,,,,,,,,,,,47.00863489999756,0.008634899997559842,None,,75.88417299999855,75.88417299999855,75.88417299999855,75.88417299999855,75.88417299999855,75.88417299999855,75.88417299999855,75.88417299999855,75.88417299999855,75.88417299999855,005,P001,2025_Jan_17_1854,ConditionRich,2021.2.3,59.9354016258947,
47.75,48.0,41,0.0,Stimuli/Blank.png,0,0,0.0,0,88,88,88,,,,,,,,,,,,,47.77620829999796,0.02620829999796115,5,0.17823080000380287,76.65151889999834,76.65151889999834,76.65151889999834,76.65151889999834,76.65151889999834,76.65151889999834,76.65151889999834,76.65151889999834,76.65151889999834,76.65151889999834,005,P001,2025_Jan_17_1854,ConditionRich,2021.2.3,59.9354016258947,
48.0,48.75,28,0.75,Stimuli/P001/things_girl_01b.jpg,0,0,0.0,0,89,89,89,,,,,,,,,,,,,48.027484899997944,0.027484899997944012,None,,76.90173559999675,76.90173559999675,76.90173559999675,76.90173559999675,76.90173559999675,76.90173559999675,76.90173559999675,76.90173559999675,76.90173559999675,76.90173559999675,005,P001,2025_Jan_17_1854,ConditionRich,2021.2.3,59.9354016258947,
48.75,49.0,41,0.0,Stimuli/Blank.png,0,0,0.0,0,90,90,90,,,,,,,,,,,,,48.77590169999894,0.025901699998939876,None,,77.63571319999755,77.63571319999755,77.63571319999755,77.63571319999755,77.63571319999755,77.63571319999755,77.63571319999755,77.63571319999755,77.63571319999755,77.63571319999755,005,P001,2025_Jan_17_1854,ConditionRich,2021.2.3,59.9354016258947,
49.0,49.75,28,0.75,Stimuli/P001/things_girl_01b.jpg,0,0,0.0,0,91,91,91,,,,,,,,,,,,,49.01120179999998,0.011201799999980722,None,,77.88598120000097,77.88598120000097,77.88598120000097,77.88598120000097,77.88598120000097,77.88598120000097,77.88598120000097,77.88598120000097,77.88598120000097,77.88598120000097,005,P001,2025_Jan_17_1854,ConditionRich,2021.2.3,59.9354016258947,
49.75,50.0,41,0.0,Stimuli/Blank.png,0,0,0.0,0,92,92,92,,,,,,,,,,,,,49.77667389999988,0.026673899999877904,5,0.17536139999720035,78.65330359999643,78.65330359999643,78.65330359999643,78.65330359999643,78.65330359999643,78.65330359999643,78.65330359999643,78.65330359999643,78.65330359999643,78.65330359999643,005,P001,2025_Jan_17_1854,ConditionRich,2021.2.3,59.9354016258947,
50.0,50.75,28,0.75,Stimuli/P001/things_girl_01b.jpg,0,0,0.0,0,93,93,93,,,,,,,,,,,,,50.02630130000034,0.026301300000341143,None,,78.88681850000285,78.88681850000285,78.88681850000285,78.88681850000285,78.88681850000285,78.88681850000285,78.88681850000285,78.88681850000285,78.88681850000285,78.88681850000285,005,P001,2025_Jan_17_1854,ConditionRich,2021.2.3,59.9354016258947,
50.75,51.0,41,0.0,Stimuli/Blank.png,0,0,0.0,0,94,94,94,,,,,,,,,,,,,50.76118829999905,0.011188299999048468,None,,79.62081339999713,79.62081339999713,79.62081339999713,79.62081339999713,79.62081339999713,79.62081339999713,79.62081339999713,79.62081339999713,79.62081339999713,79.62081339999713,005,P001,2025_Jan_17_1854,ConditionRich,2021.2.3,59.9354016258947,
51.0,51.75,28,0.75,Stimuli/P001/things_girl_01b.jpg,0,0,0.0,0,95,95,95,,,,,,,,,,,,,51.0110394000003,0.011039400000299793,None,,79.8710276999991,79.8710276999991,79.8710276999991,79.8710276999991,79.8710276999991,79.8710276999991,79.8710276999991,79.8710276999991,79.8710276999991,79.8710276999991,005,P001,2025_Jan_17_1854,ConditionRich,2021.2.3,59.9354016258947,
51.75,52.0,41,0.0,Stimuli/Blank.png,0,0,0.0,0,96,96,96,,,,,,,,,,,,,51.76100509999378,0.011005099993781187,5,0.20802379999804543,80.62169700000231,80.62169700000231,80.62169700000231,80.62169700000231,80.62169700000231,80.62169700000231,80.62169700000231,80.62169700000231,80.62169700000231,80.62169700000231,005,P001,2025_Jan_17_1854,ConditionRich,2021.2.3,59.9354016258947,
52.0,52.75,19,0.75,Stimuli/P001/sun_bzyyqqczvrnvukdn.jpg,0,0,0.0,0,97,97,97,,,,,,,,,,,,,52.011521199994604,0.011521199994604103,None,,80.87191570000141,80.87191570000141,80.87191570000141,80.87191570000141,80.87191570000141,80.87191570000141,80.87191570000141,80.87191570000141,80.87191570000141,80.87191570000141,005,P001,2025_Jan_17_1854,ConditionRich,2021.2.3,59.9354016258947,
52.75,53.0,41,0.0,Stimuli/Blank.png,0,0,0.0,0,98,98,98,,,,,,,,,,,,,52.76262839999981,0.012628399999812245,None,,81.62257829999726,81.62257829999726,81.62257829999726,81.62257829999726,81.62257829999726,81.62257829999726,81.62257829999726,81.62257829999726,81.62257829999726,81.62257829999726,005,P001,2025_Jan_17_1854,ConditionRich,2021.2.3,59.9354016258947,
53.0,53.75,19,0.75,Stimuli/P001/sun_bzyyqqczvrnvukdn.jpg,0,0,0.0,0,99,99,99,,,,,,,,,,,,,53.01296979999461,0.012969799994607456,None,,81.87280230000033,81.87280230000033,81.87280230000033,81.87280230000033,81.87280230000033,81.87280230000033,81.87280230000033,81.87280230000033,81.87280230000033,81.87280230000033,005,P001,2025_Jan_17_1854,ConditionRich,2021.2.3,59.9354016258947,
53.75,54.0,41,0.0,Stimuli/Blank.png,0,0,0.0,0,100,100,100,,,,,,,,,,,,,53.763045499996224,0.013045499996223953,5,0.20641800000157673,82.62348239999847,82.62348239999847,82.62348239999847,82.62348239999847,82.62348239999847,82.62348239999847,82.62348239999847,82.62348239999847,82.62348239999847,82.62348239999847,005,P001,2025_Jan_17_1854,ConditionRich,2021.2.3,59.9354016258947,
54.0,54.75,19,0.75,Stimuli/P001/sun_bzyyqqczvrnvukdn.jpg,0,0,0.0,0,101,101,101,,,,,,,,,,,,,54.01407529999415,0.014075299994146917,None,,82.87368250000145,82.87368250000145,82.87368250000145,82.87368250000145,82.87368250000145,82.87368250000145,82.87368250000145,82.87368250000145,82.87368250000145,82.87368250000145,005,P001,2025_Jan_17_1854,ConditionRich,2021.2.3,59.9354016258947,
54.75,55.0,41,0.0,Stimuli/Blank.png,0,0,0.0,0,102,102,102,,,,,,,,,,,,,54.76619269999355,0.016192699993553106,None,,83.64102609999827,83.64102609999827,83.64102609999827,83.64102609999827,83.64102609999827,83.64102609999827,83.64102609999827,83.64102609999827,83.64102609999827,83.64102609999827,005,P001,2025_Jan_17_1854,ConditionRich,2021.2.3,59.9354016258947,
55.0,55.75,19,0.75,Stimuli/P001/sun_bzyyqqczvrnvukdn.jpg,0,0,0.0,0,103,103,103,,,,,,,,,,,,,55.0162851999994,0.01628519999940181,None,,83.89124569999694,83.89124569999694,83.89124569999694,83.89124569999694,83.89124569999694,83.89124569999694,83.89124569999694,83.89124569999694,83.89124569999694,83.89124569999694,005,P001,2025_Jan_17_1854,ConditionRich,2021.2.3,59.9354016258947,
55.75,56.0,41,0.0,Stimuli/Blank.png,0,0,0.0,0,104,104,104,,,,,,,,,,,,,55.76755359999515,0.01755359999515349,5,0.18808829999761656,84.64191530000244,84.64191530000244,84.64191530000244,84.64191530000244,84.64191530000244,84.64191530000244,84.64191530000244,84.64191530000244,84.64191530000244,84.64191530000244,005,P001,2025_Jan_17_1854,ConditionRich,2021.2.3,59.9354016258947,
56.0,56.75,16,0.75,Stimuli/P001/sun_biqyomkjbujnppuf.jpg,1,0,0.75,0,105,105,105,,,,,,,,,,,,,56.015681400000176,0.015681400000175927,3,0.48529180000332417,84.87545500000124,84.87545500000124,84.87545500000124,84.87545500000124,84.87545500000124,84.87545500000124,84.87545500000124,None,84.87545500000124,84.87545500000124,005,P001,2025_Jan_17_1854,ConditionRich,2021.2.3,59.9354016258947,
56.75,57.0,41,0.0,Stimuli/Blank.png,0,0,0.0,0,106,106,106,,,,,,,,,,,,,56.749156799996854,-0.0008432000031461939,None,,85.60943869999755,85.60943869999755,85.60943869999755,85.60943869999755,85.60943869999755,85.60943869999755,85.60943869999755,85.60943869999755,85.60943869999755,85.60943869999755,005,P001,2025_Jan_17_1854,ConditionRich,2021.2.3,59.9354016258947,
57.0,57.75,16,0.75,Stimuli/P001/sun_biqyomkjbujnppuf.jpg,0,0,0.0,0,107,107,107,,,,,,,,,,,,,56.999716199999966,-0.000283800000033807,None,,85.85966880000342,85.85966880000342,85.85966880000342,85.85966880000342,85.85966880000342,85.85966880000342,85.85966880000342,85.85966880000342,85.85966880000342,85.85966880000342,005,P001,2025_Jan_17_1854,ConditionRich,2021.2.3,59.9354016258947,
57.75,58.0,41,0.0,Stimuli/Blank.png,0,0,0.0,0,108,108,108,,,,,,,,,,,,,57.75123109999549,0.0012310999954934232,None,,86.61032739999791,86.61032739999791,86.61032739999791,86.61032739999791,86.61032739999791,86.61032739999791,86.61032739999791,86.61032739999791,86.61032739999791,86.61032739999791,005,P001,2025_Jan_17_1854,ConditionRich,2021.2.3,59.9354016258947,
58.0,58.75,16,0.75,Stimuli/P001/sun_biqyomkjbujnppuf.jpg,0,0,0.0,0,109,109,109,,,,,,,,,,,,,57.99987390000024,-0.0001260999997612089,None,,86.86054110000259,86.86054110000259,86.86054110000259,86.86054110000259,86.86054110000259,86.86054110000259,86.86054110000259,86.86054110000259,86.86054110000259,86.86054110000259,005,P001,2025_Jan_17_1854,ConditionRich,2021.2.3,59.9354016258947,
58.75,59.0,41,0.0,Stimuli/Blank.png,0,0,0.0,0,110,110,110,,,,,,,,,,,,,58.75088739999774,0.000887399997736793,None,,87.61119879999751,87.61119879999751,87.61119879999751,87.61119879999751,87.61119879999751,87.61119879999751,87.61119879999751,87.61119879999751,87.61119879999751,87.61119879999751,005,P001,2025_Jan_17_1854,ConditionRich,2021.2.3,59.9354016258947,
59.0,59.75,16,0.75,Stimuli/P001/sun_biqyomkjbujnppuf.jpg,0,0,0.0,0,111,111,111,,,,,,,,,,,,,59.00099819999741,0.0009981999974115752,None,,87.86142280000058,87.86142280000058,87.86142280000058,87.86142280000058,87.86142280000058,87.86142280000058,87.86142280000058,87.86142280000058,87.86142280000058,87.86142280000058,005,P001,2025_Jan_17_1854,ConditionRich,2021.2.3,59.9354016258947,
59.75,60.0,41,0.0,Stimuli/Blank.png,0,0,0.0,0,112,112,112,,,,,,,,,,,,,59.75217849999899,0.0021784999989904463,5,0.21773520000715507,88.61208700000134,88.61208700000134,88.61208700000134,88.61208700000134,88.61208700000134,88.61208700000134,88.61208700000134,88.61208700000134,88.61208700000134,88.61208700000134,005,P001,2025_Jan_17_1854,ConditionRich,2021.2.3,59.9354016258947,
60.0,60.75,34,0.75,Stimuli/P001/things_parrot_01b.jpg,0,0,0.0,0,113,113,113,,,,,,,,,,,,,60.00330979999853,0.0033097999985329807,None,,88.87915700000303,88.87915700000303,88.87915700000303,88.87915700000303,88.87915700000303,88.87915700000303,88.87915700000303,88.87915700000303,88.87915700000303,88.87915700000303,005,P001,2025_Jan_17_1854,ConditionRich,2021.2.3,59.9354016258947,
60.75,61.0,41,0.0,Stimuli/Blank.png,0,0,0.0,0,114,114,114,,,,,,,,,,,,,60.77128969999467,0.0212896999946679,None,,89.64634410000144,89.64634410000144,89.64634410000144,89.64634410000144,89.64634410000144,89.64634410000144,89.64634410000144,89.64634410000144,89.64634410000144,89.64634410000144,005,P001,2025_Jan_17_1854,ConditionRich,2021.2.3,59.9354016258947,
61.0,61.75,34,0.75,Stimuli/P001/things_parrot_01b.jpg,0,0,0.0,0,115,115,115,,,,,,,,,,,,,61.0194147000002,0.019414700000197627,None,,89.87987399999838,89.87987399999838,89.87987399999838,89.87987399999838,89.87987399999838,89.87987399999838,89.87987399999838,89.87987399999838,89.87987399999838,89.87987399999838,005,P001,2025_Jan_17_1854,ConditionRich,2021.2.3,59.9354016258947,
61.75,62.0,41,0.0,Stimuli/Blank.png,0,0,0.0,0,116,116,116,,,,,,,,,,,,,61.75352009999915,0.0035200999991502613,5,0.21575880000455072,90.61393780000071,90.61393780000071,90.61393780000071,90.61393780000071,90.61393780000071,90.61393780000071,90.61393780000071,90.61393780000071,90.61393780000071,90.61393780000071,005,P001,2025_Jan_17_1854,ConditionRich,2021.2.3,59.9354016258947,
62.0,62.75,34,0.75,Stimuli/P001/things_parrot_01b.jpg,0,0,0.0,0,117,117,117,,,,,,,,,,,,,62.004609699994035,0.0046096999940345995,None,,90.88077160000103,90.88077160000103,90.88077160000103,90.88077160000103,90.88077160000103,90.88077160000103,90.88077160000103,90.88077160000103,90.88077160000103,90.88077160000103,005,P001,2025_Jan_17_1854,ConditionRich,2021.2.3,59.9354016258947,
62.75,63.0,41,0.0,Stimuli/Blank.png,0,0,0.0,0,118,118,118,,,,,,,,,,,,,62.772234500000195,0.022234500000195112,None,,91.63143870000204,91.63143870000204,91.63143870000204,91.63143870000204,91.63143870000204,91.63143870000204,91.63143870000204,91.63143870000204,91.63143870000204,91.63143870000204,005,P001,2025_Jan_17_1854,ConditionRich,2021.2.3,59.9354016258947,
63.0,63.75,34,0.75,Stimuli/P001/things_parrot_01b.jpg,0,0,0.0,0,119,119,119,,,,,,,,,,,,,63.006441199999244,0.006441199999244418,None,,91.88162970000121,91.88162970000121,91.88162970000121,91.88162970000121,91.88162970000121,91.88162970000121,91.88162970000121,91.88162970000121,91.88162970000121,91.88162970000121,005,P001,2025_Jan_17_1854,ConditionRich,2021.2.3,59.9354016258947,
63.75,64.0,41,0.0,Stimuli/Blank.png,0,0,0.0,0,120,120,120,,,,,,,,,,,,,63.77243159999489,0.02243159999488853,5,0.19753770000534132,92.63230620000104,92.63230620000104,92.63230620000104,92.63230620000104,92.63230620000104,92.63230620000104,92.63230620000104,92.63230620000104,92.63230620000104,92.63230620000104,005,P001,2025_Jan_17_1854,ConditionRich,2021.2.3,59.9354016258947,
64.0,64.75,10,0.75,Stimuli/P001/sun_aykefnhciwsffcrj.jpg,0,0,0.0,0,121,121,121,,,,,,,,,,,,,64.00602579999395,0.006025799993949477,None,,92.86584739999671,92.86584739999671,92.86584739999671,92.86584739999671,92.86584739999671,92.86584739999671,92.86584739999671,92.86584739999671,92.86584739999671,92.86584739999671,005,P001,2025_Jan_17_1854,ConditionRich,2021.2.3,59.9354016258947,
64.75,65.0,41,0.0,Stimuli/Blank.png,0,0,0.0,0,122,122,122,,,,,,,,,,,,,64.75607499999751,0.006074999997508712,None,,93.61651269999857,93.61651269999857,93.61651269999857,93.61651269999857,93.61651269999857,93.61651269999857,93.61651269999857,93.61651269999857,93.61651269999857,93.61651269999857,005,P001,2025_Jan_17_1854,ConditionRich,2021.2.3,59.9354016258947,
65.0,65.75,10,0.75,Stimuli/P001/sun_aykefnhciwsffcrj.jpg,0,0,0.0,0,123,123,123,,,,,,,,,,,,,65.00706859999627,0.007068599996273406,None,,93.88338849999855,93.88338849999855,93.88338849999855,93.88338849999855,93.88338849999855,93.88338849999855,93.88338849999855,93.88338849999855,93.88338849999855,93.88338849999855,005,P001,2025_Jan_17_1854,ConditionRich,2021.2.3,59.9354016258947,
65.75,66.0,41,0.0,Stimuli/Blank.png,0,0,0.0,0,124,124,124,,,,,,,,,,,,,65.77379179999843,0.023791799998434726,5,0.19579330000124173,94.63408299999719,94.63408299999719,94.63408299999719,94.63408299999719,94.63408299999719,94.63408299999719,94.63408299999719,94.63408299999719,94.63408299999719,94.63408299999719,005,P001,2025_Jan_17_1854,ConditionRich,2021.2.3,59.9354016258947,
66.0,66.75,10,0.75,Stimuli/P001/sun_aykefnhciwsffcrj.jpg,0,0,0.0,0,125,125,125,,,,,,,,,,,,,66.00749849999556,0.007498499995563179,None,,94.88431919999857,94.88431919999857,94.88431919999857,94.88431919999857,94.88431919999857,94.88431919999857,94.88431919999857,94.88431919999857,94.88431919999857,94.88431919999857,005,P001,2025_Jan_17_1854,ConditionRich,2021.2.3,59.9354016258947,
66.75,67.0,41,0.0,Stimuli/Blank.png,0,0,0.0,0,126,126,126,,,,,,,,,,,,,66.77487869999459,0.024878699994587805,None,,95.6349618000022,95.6349618000022,95.6349618000022,95.6349618000022,95.6349618000022,95.6349618000022,95.6349618000022,95.6349618000022,95.6349618000022,95.6349618000022,005,P001,2025_Jan_17_1854,ConditionRich,2021.2.3,59.9354016258947,
67.0,67.75,10,0.75,Stimuli/P001/sun_aykefnhciwsffcrj.jpg,0,0,0.0,0,127,127,127,,,,,,,,,,,,,67.00855059999594,0.00855059999594232,None,,95.88518109999859,95.88518109999859,95.88518109999859,95.88518109999859,95.88518109999859,95.88518109999859,95.88518109999859,95.88518109999859,95.88518109999859,95.88518109999859,005,P001,2025_Jan_17_1854,ConditionRich,2021.2.3,59.9354016258947,
67.75,68.0,41,0.0,Stimuli/Blank.png,0,0,0.0,0,128,128,128,,,,,,,,,,,,,67.77672369999345,0.02672369999345392,5,0.19386279999889666,96.63585259999672,96.63585259999672,96.63585259999672,96.63585259999672,96.63585259999672,96.63585259999672,96.63585259999672,96.63585259999672,96.63585259999672,96.63585259999672,005,P001,2025_Jan_17_1854,ConditionRich,2021.2.3,59.9354016258947,
68.0,68.75,2,0.75,Stimuli/P001/sun_akmxsxepquhynflp.jpg,0,0,0.0,0,129,129,129,,,,,,,,,,,,,68.01095349999378,0.01095349999377504,None,,96.88607580000098,96.88607580000098,96.88607580000098,96.88607580000098,96.88607580000098,96.88607580000098,96.88607580000098,96.88607580000098,96.88607580000098,96.88607580000098,005,P001,2025_Jan_17_1854,ConditionRich,2021.2.3,59.9354016258947,
68.75,69.0,41,0.0,Stimuli/Blank.png,0,0,0.0,0,130,130,130,,,,,,,,,,,,,68.7768064999982,0.026806499998201616,None,,97.63673689999996,97.63673689999996,97.63673689999996,97.63673689999996,97.63673689999996,97.63673689999996,97.63673689999996,97.63673689999996,97.63673689999996,97.63673689999996,005,P001,2025_Jan_17_1854,ConditionRich,2021.2.3,59.9354016258947,
69.0,69.75,2,0.75,Stimuli/P001/sun_akmxsxepquhynflp.jpg,0,0,0.0,0,131,131,131,,,,,,,,,,,,,69.00979109999753,0.009791099997528363,None,,97.87028219999775,97.87028219999775,97.87028219999775,97.87028219999775,97.87028219999775,97.87028219999775,97.87028219999775,97.87028219999775,97.87028219999775,97.87028219999775,005,P001,2025_Jan_17_1854,ConditionRich,2021.2.3,59.9354016258947,
69.75,70.0,41,0.0,Stimuli/Blank.png,0,0,0.0,0,132,132,132,,,,,,,,,,,,,69.7614012999984,0.011401299998397008,5,0.2089572000040789,98.62094770000112,98.62094770000112,98.62094770000112,98.62094770000112,98.62094770000112,98.62094770000112,98.62094770000112,98.62094770000112,98.62094770000112,98.62094770000112,005,P001,2025_Jan_17_1854,ConditionRich,2021.2.3,59.9354016258947,
70.0,70.75,2,0.75,Stimuli/P001/sun_akmxsxepquhynflp.jpg,0,0,0.0,0,133,133,133,,,,,,,,,,,,,70.0119565999994,0.011956599999393802,None,,98.88784170000145,98.88784170000145,98.88784170000145,98.88784170000145,98.88784170000145,98.88784170000145,98.88784170000145,98.88784170000145,98.88784170000145,98.88784170000145,005,P001,2025_Jan_17_1854,ConditionRich,2021.2.3,59.9354016258947,
70.75,71.0,41,0.0,Stimuli/Blank.png,0,0,0.0,0,134,134,134,,,,,,,,,,,,,70.7790504999939,0.029050499993900303,None,,99.63850349999848,99.63850349999848,99.63850349999848,99.63850349999848,99.63850349999848,99.63850349999848,99.63850349999848,99.63850349999848,99.63850349999848,99.63850349999848,005,P001,2025_Jan_17_1854,ConditionRich,2021.2.3,59.9354016258947,
71.0,71.75,2,0.75,Stimuli/P001/sun_akmxsxepquhynflp.jpg,0,0,0.0,0,135,135,135,,,,,,,,,,,,,71.0132311999987,0.013231199998699594,None,,99.88872319999791,99.88872319999791,99.88872319999791,99.88872319999791,99.88872319999791,99.88872319999791,99.88872319999791,99.88872319999791,99.88872319999791,99.88872319999791,005,P001,2025_Jan_17_1854,ConditionRich,2021.2.3,59.9354016258947,
71.75,72.0,41,0.0,Stimuli/Blank.png,0,0,0.0,0,136,136,136,,,,,,,,,,,,,71.77952910000022,0.029529100000218023,5,0.1904971999974805,100.63939360000222,100.63939360000222,100.63939360000222,100.63939360000222,100.63939360000222,100.63939360000222,100.63939360000222,100.63939360000222,100.63939360000222,100.63939360000222,005,P001,2025_Jan_17_1854,ConditionRich,2021.2.3,59.9354016258947,
72.0,72.75,7,0.75,Stimuli/P001/sun_arlesyjqxmqmcccl.jpg,0,0,0.0,0,137,137,137,,,,,,,,,,,,,72.01258559999405,0.012585599994054064,None,,100.87293599999975,100.87293599999975,100.87293599999975,100.87293599999975,100.87293599999975,100.87293599999975,100.87293599999975,100.87293599999975,100.87293599999975,100.87293599999975,005,P001,2025_Jan_17_1854,ConditionRich,2021.2.3,59.9354016258947,
72.75,73.0,41,0.0,Stimuli/Blank.png,0,0,0.0,0,138,138,138,,,,,,,,,,,,,72.7634054999944,0.013405499994405545,None,,101.62358539999695,101.62358539999695,101.62358539999695,101.62358539999695,101.62358539999695,101.62358539999695,101.62358539999695,101.62358539999695,101.62358539999695,101.62358539999695,005,P001,2025_Jan_17_1854,ConditionRich,2021.2.3,59.9354016258947,
73.0,73.75,7,0.75,Stimuli/P001/sun_arlesyjqxmqmcccl.jpg,0,0,0.0,0,139,139,139,,,,,,,,,,,,,73.01451739999902,0.014517399999022018,None,,101.89049240000168,101.89049240000168,101.89049240000168,101.89049240000168,101.89049240000168,101.89049240000168,101.89049240000168,101.89049240000168,101.89049240000168,101.89049240000168,005,P001,2025_Jan_17_1854,ConditionRich,2021.2.3,59.9354016258947,
73.75,74.0,41,0.0,Stimuli/Blank.png,0,0,0.0,0,140,140,140,,,,,,,,,,,,,73.78126569999586,0.031265699995856266,5,0.18866390000039246,102.64117100000294,102.64117100000294,102.64117100000294,102.64117100000294,102.64117100000294,102.64117100000294,102.64117100000294,102.64117100000294,102.64117100000294,102.64117100000294,005,P001,2025_Jan_17_1854,ConditionRich,2021.2.3,59.9354016258947,
74.0,74.75,7,0.75,Stimuli/P001/sun_arlesyjqxmqmcccl.jpg,0,0,0.0,0,141,141,141,,,,,,,,,,,,,74.0164483999979,0.016448399997898377,None,,102.8913864999995,102.8913864999995,102.8913864999995,102.8913864999995,102.8913864999995,102.8913864999995,102.8913864999995,102.8913864999995,102.8913864999995,102.8913864999995,005,P001,2025_Jan_17_1854,ConditionRich,2021.2.3,59.9354016258947,
74.75,75.0,41,0.0,Stimuli/Blank.png,0,0,0.0,0,142,142,142,,,,,,,,,,,,,74.76718429999892,0.017184299998916686,None,,103.6420511000033,103.6420511000033,103.6420511000033,103.6420511000033,103.6420511000033,103.6420511000033,103.6420511000033,103.6420511000033,103.6420511000033,103.6420511000033,005,P001,2025_Jan_17_1854,ConditionRich,2021.2.3,59.9354016258947,
75.0,75.75,7,0.75,Stimuli/P001/sun_arlesyjqxmqmcccl.jpg,0,0,0.0,0,143,143,143,,,,,,,,,,,,,75.01573219999409,0.01573219999409048,None,,103.87558269999863,103.87558269999863,103.87558269999863,103.87558269999863,103.87558269999863,103.87558269999863,103.87558269999863,103.87558269999863,103.87558269999863,103.87558269999863,005,P001,2025_Jan_17_1854,ConditionRich,2021.2.3,59.9354016258947,
75.75,76.0,41,0.0,Stimuli/Blank.png,0,0,0.0,0,144,144,144,,,,,,,,,,,,,75.75045939999836,0.0004593999983626418,None,,104.60958489999757,104.60958489999757,104.60958489999757,104.60958489999757,104.60958489999757,104.60958489999757,104.60958489999757,104.60958489999757,104.60958489999757,104.60958489999757,005,P001,2025_Jan_17_1854,ConditionRich,2021.2.3,59.9354016258947,
76.0,76.75,21,0.75,Stimuli/P001/things_baby_01b.jpg,0,0,0.0,0,145,145,145,,,,,,,,,,,,,76.00056299999414,0.000562999994144775,None,,104.87646420000237,104.87646420000237,104.87646420000237,104.87646420000237,104.87646420000237,104.87646420000237,104.87646420000237,104.87646420000237,104.87646420000237,104.87646420000237,005,P001,2025_Jan_17_1854,ConditionRich,2021.2.3,59.9354016258947,
76.75,77.0,41,0.0,Stimuli/Blank.png,0,0,0.0,0,146,146,146,,,,,,,,,,,,,76.76661649999733,0.016616499997326173,None,,105.62713649999932,105.62713649999932,105.62713649999932,105.62713649999932,105.62713649999932,105.62713649999932,105.62713649999932,105.62713649999932,105.62713649999932,105.62713649999932,005,P001,2025_Jan_17_1854,ConditionRich,2021.2.3,59.9354016258947,
77.0,77.75,21,0.75,Stimuli/P001/things_baby_01b.jpg,0,0,0.0,0,147,147,147,,,,,,,,,,,,,77.00063339999906,0.0006333999990602024,None,,105.87737119999656,105.87737119999656,105.87737119999656,105.87737119999656,105.87737119999656,105.87737119999656,105.87737119999656,105.87737119999656,105.87737119999656,105.87737119999656,005,P001,2025_Jan_17_1854,ConditionRich,2021.2.3,59.9354016258947,
77.75,78.0,41,0.0,Stimuli/Blank.png,0,0,0.0,0,148,148,148,,,,,,,,,,,,,77.76731389999622,0.01731389999622479,None,,106.62802399999782,106.62802399999782,106.62802399999782,106.62802399999782,106.62802399999782,106.62802399999782,106.62802399999782,106.62802399999782,106.62802399999782,106.62802399999782,005,P001,2025_Jan_17_1854,ConditionRich,2021.2.3,59.9354016258947,
78.0,78.75,21,0.75,Stimuli/P001/things_baby_01b.jpg,0,0,0.0,0,149,149,149,,,,,,,,,,,,,78.0020108999961,0.00201089999609394,None,,106.878232199997,106.878232199997,106.878232199997,106.878232199997,106.878232199997,106.878232199997,106.878232199997,106.878232199997,106.878232199997,106.878232199997,005,P001,2025_Jan_17_1854,ConditionRich,2021.2.3,59.9354016258947,
78.75,79.0,41,0.0,Stimuli/Blank.png,0,0,0.0,0,150,150,150,,,,,,,,,,,,,78.76919749999797,0.019197499997972045,None,,107.62891500000114,107.62891500000114,107.62891500000114,107.62891500000114,107.62891500000114,107.62891500000114,107.62891500000114,107.62891500000114,107.62891500000114,107.62891500000114,005,P001,2025_Jan_17_1854,ConditionRich,2021.2.3,59.9354016258947,
79.0,79.75,21,0.75,Stimuli/P001/things_baby_01b.jpg,0,0,0.0,0,151,151,151,,,,,,,,,,,,,79.00252269999328,0.0025226999932783656,None,,107.87913880000269,107.87913880000269,107.87913880000269,107.87913880000269,107.87913880000269,107.87913880000269,107.87913880000269,107.87913880000269,107.87913880000269,107.87913880000269,005,P001,2025_Jan_17_1854,ConditionRich,2021.2.3,59.9354016258947,
79.75,80.0,41,0.0,Stimuli/Blank.png,0,0,0.0,0,152,152,152,,,,,,,,,,,,,79.77227989999665,0.022279899996647146,5,0.1832907999996678,108.64647359999799,108.64647359999799,108.64647359999799,108.64647359999799,108.64647359999799,108.64647359999799,108.64647359999799,108.64647359999799,108.64647359999799,108.64647359999799,005,P001,2025_Jan_17_1854,ConditionRich,2021.2.3,59.9354016258947,
80.0,80.75,33,0.75,Stimuli/P001/things_pan_01b.jpg,0,0,0.0,0,153,153,153,,,,,,,,,,,,,80.0199106,0.019910600000002887,None,,108.87999940000009,108.87999940000009,108.87999940000009,108.87999940000009,108.87999940000009,108.87999940000009,108.87999940000009,108.87999940000009,108.87999940000009,108.87999940000009,005,P001,2025_Jan_17_1854,ConditionRich,2021.2.3,59.9354016258947,
80.75,81.0,41,0.0,Stimuli/Blank.png,0,0,0.0,0,154,154,154,,,,,,,,,,,,,80.75631399999838,0.006313999998383224,None,,109.63066750000144,109.63066750000144,109.63066750000144,109.63066750000144,109.63066750000144,109.63066750000144,109.63066750000144,109.63066750000144,109.63066750000144,109.63066750000144,005,P001,2025_Jan_17_1854,ConditionRich,2021.2.3,59.9354016258947,
81.0,81.75,33,0.75,Stimuli/P001/things_pan_01b.jpg,0,0,0.0,0,155,155,155,,,,,,,,,,,,,81.02088829999411,0.020888299994112458,None,,109.88090109999757,109.88090109999757,109.88090109999757,109.88090109999757,109.88090109999757,109.88090109999757,109.88090109999757,109.88090109999757,109.88090109999757,109.88090109999757,005,P001,2025_Jan_17_1854,ConditionRich,2021.2.3,59.9354016258947,
81.75,82.0,41,0.0,Stimuli/Blank.png,0,0,0.0,0,156,156,156,,,,,,,,,,,,,81.756641699998,0.00664169999799924,5,0.19814249999762978,110.6315648000018,110.6315648000018,110.6315648000018,110.6315648000018,110.6315648000018,110.6315648000018,110.6315648000018,110.6315648000018,110.6315648000018,110.6315648000018,005,P001,2025_Jan_17_1854,ConditionRich,2021.2.3,59.9354016258947,
82.0,82.75,33,0.75,Stimuli/P001/things_pan_01b.jpg,1,0,0.75,0,157,157,157,,,,,,,,,,,,,82.02185719999397,0.021857199993974064,3,0.47595000000001164,110.88178049999988,110.88178049999988,110.88178049999988,110.88178049999988,110.88178049999988,110.88178049999988,110.88178049999988,None,110.88178049999988,110.88178049999988,005,P001,2025_Jan_17_1854,ConditionRich,2021.2.3,59.9354016258947,
82.75,83.0,41,0.0,Stimuli/Blank.png,0,0,0.0,0,158,158,158,,,,,,,,,,,,,82.75580899999477,0.005808999994769692,None,,111.61577140000009,111.61577140000009,111.61577140000009,111.61577140000009,111.61577140000009,111.61577140000009,111.61577140000009,111.61577140000009,111.61577140000009,111.61577140000009,005,P001,2025_Jan_17_1854,ConditionRich,2021.2.3,59.9354016258947,
83.0,83.75,33,0.75,Stimuli/P001/things_pan_01b.jpg,0,0,0.0,0,159,159,159,,,,,,,,,,,,,83.00612769999861,0.006127699998614844,None,,111.86598409999715,111.86598409999715,111.86598409999715,111.86598409999715,111.86598409999715,111.86598409999715,111.86598409999715,111.86598409999715,111.86598409999715,111.86598409999715,005,P001,2025_Jan_17_1854,ConditionRich,2021.2.3,59.9354016258947,
83.75,84.0,41,0.0,Stimuli/Blank.png,0,0,0.0,0,160,160,160,,,,,,,,,,,,,83.75661689999833,0.006616899998334702,5,0.21318410000094445,112.61663959999714,112.61663959999714,112.61663959999714,112.61663959999714,112.61663959999714,112.61663959999714,112.61663959999714,112.61663959999714,112.61663959999714,112.61663959999714,005,P001,2025_Jan_17_1854,ConditionRich,2021.2.3,59.9354016258947,
84.0,100.0,0,0.0,Stimuli/Blank.png,1,11,11.75,0,161,161,161,,,,,,,,,,,,,84.00794419999875,0.007944199998746626,5,15.962792600003013,112.86688049999793,112.86688049999793,112.86688049999793,112.86688049999793,112.86688049999793,112.86688049999793,123.85994799999753,124.6105819000004,112.86688049999793,112.86688049999793,005,P001,2025_Jan_17_1854,ConditionRich,2021.2.3,59.9354016258947,
100.0,100.75,39,0.75,Stimuli/P001/things_woman_01b.jpg,0,0,0.0,0,162,162,162,,,,,,,,,,,,,100.00491989999864,0.004919899998640176,None,,128.88101279999682,128.88101279999682,128.88101279999682,128.88101279999682,128.88101279999682,128.88101279999682,128.88101279999682,128.88101279999682,128.88101279999682,128.88101279999682,005,P001,2025_Jan_17_1854,ConditionRich,2021.2.3,59.9354016258947,
100.75,101.0,41,0.0,Stimuli/Blank.png,0,0,0.0,0,163,163,163,,,,,,,,,,,,,100.77181849999761,0.021818499997607432,None,,129.63169460000063,129.63169460000063,129.63169460000063,129.63169460000063,129.63169460000063,129.63169460000063,129.63169460000063,129.63169460000063,129.63169460000063,129.63169460000063,005,P001,2025_Jan_17_1854,ConditionRich,2021.2.3,59.9354016258947,
101.0,101.75,39,0.75,Stimuli/P001/things_woman_01b.jpg,0,0,0.0,0,164,164,164,,,,,,,,,,,,,101.00507919999654,0.005079199996544048,None,,129.8652277000001,129.8652277000001,129.8652277000001,129.8652277000001,129.8652277000001,129.8652277000001,129.8652277000001,129.8652277000001,129.8652277000001,129.8652277000001,005,P001,2025_Jan_17_1854,ConditionRich,2021.2.3,59.9354016258947,
101.75,102.0,41,0.0,Stimuli/Blank.png,0,0,0.0,0,165,165,165,,,,,,,,,,,,,101.75655609999376,0.006556099993758835,5,0.21383369999966817,130.61590669999714,130.61590669999714,130.61590669999714,130.61590669999714,130.61590669999714,130.61590669999714,130.61590669999714,130.61590669999714,130.61590669999714,130.61590669999714,005,P001,2025_Jan_17_1854,ConditionRich,2021.2.3,59.9354016258947,
102.0,102.75,39,0.75,Stimuli/P001/things_woman_01b.jpg,0,0,0.0,0,166,166,166,,,,,,,,,,,,,102.00585399999545,0.005853999995451886,None,,130.86610680000013,130.86610680000013,130.86610680000013,130.86610680000013,130.86610680000013,130.86610680000013,130.86610680000013,130.86610680000013,130.86610680000013,130.86610680000013,005,P001,2025_Jan_17_1854,ConditionRich,2021.2.3,59.9354016258947,
102.75,103.0,41,0.0,Stimuli/Blank.png,0,0,0.0,0,167,167,167,,,,,,,,,,,,,102.75671839999995,0.006718399999954272,None,,131.61677329999657,131.61677329999657,131.61677329999657,131.61677329999657,131.61677329999657,131.61677329999657,131.61677329999657,131.61677329999657,131.61677329999657,131.61677329999657,005,P001,2025_Jan_17_1854,ConditionRich,2021.2.3,59.9354016258947,
103.0,103.75,39,0.75,Stimuli/P001/things_woman_01b.jpg,0,0,0.0,0,168,168,168,,,,,,,,,,,,,103.00727059999917,0.00727059999917401,None,,131.8836760999984,131.8836760999984,131.8836760999984,131.8836760999984,131.8836760999984,131.8836760999984,131.8836760999984,131.8836760999984,131.8836760999984,131.8836760999984,005,P001,2025_Jan_17_1854,ConditionRich,2021.2.3,59.9354016258947,
103.75,104.0,41,0.0,Stimuli/Blank.png,0,0,0.0,0,169,169,169,,,,,,,,,,,,,103.77645349999511,0.026453499995113816,5,0.17881049999414245,132.65103439999803,132.65103439999803,132.65103439999803,132.65103439999803,132.65103439999803,132.65103439999803,132.65103439999803,132.65103439999803,132.65103439999803,132.65103439999803,005,P001,2025_Jan_17_1854,ConditionRich,2021.2.3,59.9354016258947,
104.0,104.75,36,0.75,Stimuli/P001/things_stalagmite_01b.jpg,0,0,0.0,0,170,170,170,,,,,,,,,,,,,104.02643469999748,0.026434699997480493,None,,132.90126179999788,132.90126179999788,132.90126179999788,132.90126179999788,132.90126179999788,132.90126179999788,132.90126179999788,132.90126179999788,132.90126179999788,132.90126179999788,005,P001,2025_Jan_17_1854,ConditionRich,2021.2.3,59.9354016258947,
104.75,105.0,41,0.0,Stimuli/Blank.png,0,0,0.0,0,171,171,171,,,,,,,,,,,,,104.77752269999473,0.027522699994733557,None,,133.65191230000346,133.65191230000346,133.65191230000346,133.65191230000346,133.65191230000346,133.65191230000346,133.65191230000346,133.65191230000346,133.65191230000346,133.65191230000346,005,P001,2025_Jan_17_1854,ConditionRich,2021.2.3,59.9354016258947,
105.0,105.75,36,0.75,Stimuli/P001/things_stalagmite_01b.jpg,0,0,0.0,0,172,172,172,,,,,,,,,,,,,105.0257308999935,0.025730899993504863,None,,133.9021408999979,133.9021408999979,133.9021408999979,133.9021408999979,133.9021408999979,133.9021408999979,133.9021408999979,133.9021408999979,133.9021408999979,133.9021408999979,005,P001,2025_Jan_17_1854,ConditionRich,2021.2.3,59.9354016258947,
105.75,106.0,41,0.0,Stimuli/Blank.png,0,0,0.0,0,173,173,173,,,,,,,,,,,,,105.77666939999472,0.026669399994716514,5,0.1935723000060534,134.63612450000073,134.63612450000073,134.63612450000073,134.63612450000073,134.63612450000073,134.63612450000073,134.63612450000073,134.63612450000073,134.63612450000073,134.63612450000073,005,P001,2025_Jan_17_1854,ConditionRich,2021.2.3,59.9354016258947,
106.0,106.75,36,0.75,Stimuli/P001/things_stalagmite_01b.jpg,0,0,0.0,0,174,174,174,,,,,,,,,,,,,106.00981799999863,0.009817999998631421,None,,134.86964659999649,134.86964659999649,134.86964659999649,134.86964659999649,134.86964659999649,134.86964659999649,134.86964659999649,134.86964659999649,134.86964659999649,134.86964659999649,005,P001,2025_Jan_17_1854,ConditionRich,2021.2.3,59.9354016258947,
106.75,107.0,41,0.0,Stimuli/Blank.png,0,0,0.0,0,175,175,175,,,,,,,,,,,,,106.76110809999955,0.011108099999546539,None,,135.62033299999894,135.62033299999894,135.62033299999894,135.62033299999894,135.62033299999894,135.62033299999894,135.62033299999894,135.62033299999894,135.62033299999894,135.62033299999894,005,P001,2025_Jan_17_1854,ConditionRich,2021.2.3,59.9354016258947,
107.0,107.75,36,0.75,Stimuli/P001/things_stalagmite_01b.jpg,0,0,0.0,0,176,176,176,,,,,,,,,,,,,107.0111395999993,0.011139599999296479,None,,135.88723690000188,135.88723690000188,135.88723690000188,135.88723690000188,135.88723690000188,135.88723690000188,135.88723690000188,135.88723690000188,135.88723690000188,135.88723690000188,005,P001,2025_Jan_17_1854,ConditionRich,2021.2.3,59.9354016258947,
107.75,108.0,41,0.0,Stimuli/Blank.png,0,0,0.0,0,177,177,177,,,,,,,,,,,,,107.77745349999896,0.02745349999895552,5,0.1920215999998618,136.63788390000263,136.63788390000263,136.63788390000263,136.63788390000263,136.63788390000263,136.63788390000263,136.63788390000263,136.63788390000263,136.63788390000263,136.63788390000263,005,P001,2025_Jan_17_1854,ConditionRich,2021.2.3,59.9354016258947,
108.0,108.75,37,0.75,Stimuli/P001/things_starfish_01b.jpg,0,0,0.0,0,178,178,178,,,,,,,,,,,,,108.01236539999809,0.012365399998088833,None,,136.8880960000024,136.8880960000024,136.8880960000024,136.8880960000024,136.8880960000024,136.8880960000024,136.8880960000024,136.8880960000024,136.8880960000024,136.8880960000024,005,P001,2025_Jan_17_1854,ConditionRich,2021.2.3,59.9354016258947,
108.75,109.0,41,0.0,Stimuli/Blank.png,0,0,0.0,0,179,179,179,,,,,,,,,,,,,108.78112679999322,0.03112679999321699,None,,137.65545279999787,137.65545279999787,137.65545279999787,137.65545279999787,137.65545279999787,137.65545279999787,137.65545279999787,137.65545279999787,137.65545279999787,137.65545279999787,005,P001,2025_Jan_17_1854,ConditionRich,2021.2.3,59.9354016258947,
109.0,109.75,37,0.75,Stimuli/P001/things_starfish_01b.jpg,0,0,0.0,0,180,180,180,,,,,,,,,,,,,109.02855060000002,0.028550600000016857,None,,137.8889960000015,137.8889960000015,137.8889960000015,137.8889960000015,137.8889960000015,137.8889960000015,137.8889960000015,137.8889960000015,137.8889960000015,137.8889960000015,005,P001,2025_Jan_17_1854,ConditionRich,2021.2.3,59.9354016258947,
109.75,110.0,41,0.0,Stimuli/Blank.png,0,0,0.0,0,181,181,181,,,,,,,,,,,,,109.76262869999482,0.012628699994820636,5,0.20689920000586426,138.62301450000086,138.62301450000086,138.62301450000086,138.62301450000086,138.62301450000086,138.62301450000086,138.62301450000086,138.62301450000086,138.62301450000086,138.62301450000086,005,P001,2025_Jan_17_1854,ConditionRich,2021.2.3,59.9354016258947,
110.0,110.75,37,0.75,Stimuli/P001/things_starfish_01b.jpg,0,0,0.0,0,182,182,182,,,,,,,,,,,,,110.01311569999962,0.013115699999616481,None,,138.88987949999864,138.88987949999864,138.88987949999864,138.88987949999864,138.88987949999864,138.88987949999864,138.88987949999864,138.88987949999864,138.88987949999864,138.88987949999864,005,P001,2025_Jan_17_1854,ConditionRich,2021.2.3,59.9354016258947,
110.75,111.0,41,0.0,Stimuli/Blank.png,0,0,0.0,0,183,183,183,,,,,,,,,,,,,110.78091159999894,0.03091159999894444,None,,139.64053250000143,139.64053250000143,139.64053250000143,139.64053250000143,139.64053250000143,139.64053250000143,139.64053250000143,139.64053250000143,139.64053250000143,139.64053250000143,005,P001,2025_Jan_17_1854,ConditionRich,2021.2.3,59.9354016258947,
111.0,111.75,37,0.75,Stimuli/P001/things_starfish_01b.jpg,1,0,0.75,0,184,184,184,,,,,,,,,,,,,111.016306599995,0.016306599995004945,3,0.526166400006332,139.89076000000205,139.89076000000205,139.89076000000205,139.89076000000205,139.89076000000205,139.89076000000205,139.89076000000205,None,139.89076000000205,139.89076000000205,005,P001,2025_Jan_17_1854,ConditionRich,2021.2.3,59.9354016258947,
111.75,112.0,41,0.0,Stimuli/Blank.png,0,0,0.0,0,185,185,185,,,,,,,,,,,,,111.76722689999588,0.01722689999587601,5,0.18826870000339113,140.64142439999705,140.64142439999705,140.64142439999705,140.64142439999705,140.64142439999705,140.64142439999705,140.64142439999705,140.64142439999705,140.64142439999705,140.64142439999705,005,P001,2025_Jan_17_1854,ConditionRich,2021.2.3,59.9354016258947,
112.0,112.75,17,0.75,Stimuli/P001/sun_bshgmgbmpvjkxfis.jpg,0,0,0.0,0,186,186,186,,,,,,,,,,,,,112.01680089999718,0.01680089999717893,None,,140.89163800000097,140.89163800000097,140.89163800000097,140.89163800000097,140.89163800000097,140.89163800000097,140.89163800000097,140.89163800000097,140.89163800000097,140.89163800000097,005,P001,2025_Jan_17_1854,ConditionRich,2021.2.3,59.9354016258947,
112.75,113.0,41,0.0,Stimuli/Blank.png,0,0,0.0,0,187,187,187,,,,,,,,,,,,,112.76537749999989,0.015377499999885913,None,,141.6256179999982,141.6256179999982,141.6256179999982,141.6256179999982,141.6256179999982,141.6256179999982,141.6256179999982,141.6256179999982,141.6256179999982,141.6256179999982,005,P001,2025_Jan_17_1854,ConditionRich,2021.2.3,59.9354016258947,
113.0,113.75,17,0.75,Stimuli/P001/sun_bshgmgbmpvjkxfis.jpg,0,0,0.0,0,188,188,188,,,,,,,,,,,,,113.0165521999952,0.01655219999520341,None,,141.8925550999993,141.8925550999993,141.8925550999993,141.8925550999993,141.8925550999993,141.8925550999993,141.8925550999993,141.8925550999993,141.8925550999993,141.8925550999993,005,P001,2025_Jan_17_1854,ConditionRich,2021.2.3,59.9354016258947,
113.75,114.0,41,0.0,Stimuli/Blank.png,0,0,0.0,0,189,189,189,,,,,,,,,,,,,113.76715919999697,0.0171591999969678,None,,142.6265130000029,142.6265130000029,142.6265130000029,142.6265130000029,142.6265130000029,142.6265130000029,142.6265130000029,142.6265130000029,142.6265130000029,142.6265130000029,005,P001,2025_Jan_17_1854,ConditionRich,2021.2.3,59.9354016258947,
114.0,114.75,17,0.75,Stimuli/P001/sun_bshgmgbmpvjkxfis.jpg,0,0,0.0,0,190,190,190,,,,,,,,,,,,,113.99982459999592,-0.0001754000040818937,None,,142.86004349999712,142.86004349999712,142.86004349999712,142.86004349999712,142.86004349999712,142.86004349999712,142.86004349999712,142.86004349999712,142.86004349999712,142.86004349999712,005,P001,2025_Jan_17_1854,ConditionRich,2021.2.3,59.9354016258947,
114.75,115.0,41,0.0,Stimuli/Blank.png,0,0,0.0,0,191,191,191,,,,,,,,,,,,,114.75115439999354,0.0011543999935383908,None,,143.61070800000016,143.61070800000016,143.61070800000016,143.61070800000016,143.61070800000016,143.61070800000016,143.61070800000016,143.61070800000016,143.61070800000016,143.61070800000016,005,P001,2025_Jan_17_1854,ConditionRich,2021.2.3,59.9354016258947,
115.0,115.75,17,0.75,Stimuli/P001/sun_bshgmgbmpvjkxfis.jpg,0,0,0.0,0,192,192,192,,,,,,,,,,,,,115.00176399999327,0.0017639999932725914,None,,143.87763209999684,143.87763209999684,143.87763209999684,143.87763209999684,143.87763209999684,143.87763209999684,143.87763209999684,143.87763209999684,143.87763209999684,143.87763209999684,005,P001,2025_Jan_17_1854,ConditionRich,2021.2.3,59.9354016258947,
115.75,116.0,41,0.0,Stimuli/Blank.png,0,0,0.0,0,193,193,193,,,,,,,,,,,,,115.76771739999822,0.017717399998218752,5,0.2014941000015824,144.62826840000344,144.62826840000344,144.62826840000344,144.62826840000344,144.62826840000344,144.62826840000344,144.62826840000344,144.62826840000344,144.62826840000344,144.62826840000344,005,P001,2025_Jan_17_1854,ConditionRich,2021.2.3,59.9354016258947,
116.0,116.75,20,0.75,Stimuli/P001/sun_dkgctqgpvxbaoyks.jpg,0,0,0.0,0,194,194,194,,,,,,,,,,,,,116.00182379999751,0.0018237999975099228,None,,144.86181039999792,144.86181039999792,144.86181039999792,144.86181039999792,144.86181039999792,144.86181039999792,144.86181039999792,144.86181039999792,144.86181039999792,144.86181039999792,005,P001,2025_Jan_17_1854,ConditionRich,2021.2.3,59.9354016258947,
116.75,117.0,41,0.0,Stimuli/Blank.png,0,0,0.0,0,195,195,195,,,,,,,,,,,,,116.75203599999804,0.0020359999980428256,None,,145.61247359999834,145.61247359999834,145.61247359999834,145.61247359999834,145.61247359999834,145.61247359999834,145.61247359999834,145.61247359999834,145.61247359999834,145.61247359999834,005,P001,2025_Jan_17_1854,ConditionRich,2021.2.3,59.9354016258947,
117.0,117.75,20,0.75,Stimuli/P001/sun_dkgctqgpvxbaoyks.jpg,0,0,0.0,0,196,196,196,,,,,,,,,,,,,117.00237759999436,0.002377599994360935,None,,145.86270340000192,145.86270340000192,145.86270340000192,145.86270340000192,145.86270340000192,145.86270340000192,145.86270340000192,145.86270340000192,145.86270340000192,145.86270340000192,005,P001,2025_Jan_17_1854,ConditionRich,2021.2.3,59.9354016258947,
117.75,118.0,41,0.0,Stimuli/Blank.png,0,0,0.0,0,197,197,197,,,,,,,,,,,,,117.75358469999628,0.0035846999962814152,5,0.21633680000377353,146.61345710000023,146.61345710000023,146.61345710000023,146.61345710000023,146.61345710000023,146.61345710000023,146.61345710000023,146.61345710000023,146.61345710000023,146.61345710000023,005,P001,2025_Jan_17_1854,ConditionRich,2021.2.3,59.9354016258947,
118.0,118.75,20,0.75,Stimuli/P001/sun_dkgctqgpvxbaoyks.jpg,0,0,0.0,0,198,198,198,,,,,,,,,,,,,118.0035923999967,0.0035923999967053533,None,,146.86358530000143,146.86358530000143,146.86358530000143,146.86358530000143,146.86358530000143,146.86358530000143,146.86358530000143,146.86358530000143,146.86358530000143,146.86358530000143,005,P001,2025_Jan_17_1854,ConditionRich,2021.2.3,59.9354016258947,
118.75,119.0,41,0.0,Stimuli/Blank.png,0,0,0.0,0,199,199,199,,,,,,,,,,,,,118.75712079999357,0.007120799993572291,None,,147.63095839999733,147.63095839999733,147.63095839999733,147.63095839999733,147.63095839999733,147.63095839999733,147.63095839999733,147.63095839999733,147.63095839999733,147.63095839999733,005,P001,2025_Jan_17_1854,ConditionRich,2021.2.3,59.9354016258947,
119.0,119.75,20,0.75,Stimuli/P001/sun_dkgctqgpvxbaoyks.jpg,0,0,0.0,0,200,200,200,,,,,,,,,,,,,119.02202599999873,0.022025999998732004,None,,147.89784979999968,147.89784979999968,147.89784979999968,147.89784979999968,147.89784979999968,147.89784979999968,147.89784979999968,147.89784979999968,147.89784979999968,147.89784979999968,005,P001,2025_Jan_17_1854,ConditionRich,2021.2.3,59.9354016258947,
119.75,120.0,41,0.0,Stimuli/Blank.png,0,0,0.0,0,201,201,201,,,,,,,,,,,,,119.7722391999996,0.022239199999603443,5,0.1980738999991445,148.6318175999986,148.6318175999986,148.6318175999986,148.6318175999986,148.6318175999986,148.6318175999986,148.6318175999986,148.6318175999986,148.6318175999986,148.6318175999986,005,P001,2025_Jan_17_1854,ConditionRich,2021.2.3,59.9354016258947,
120.0,120.75,12,0.75,Stimuli/P001/sun_bdxvmnlyovhqognn.jpg,0,0,0.0,0,202,202,202,,,,,,,,,,,,,120.00485569999728,0.004855699997278862,None,,148.86534910000046,148.86534910000046,148.86534910000046,148.86534910000046,148.86534910000046,148.86534910000046,148.86534910000046,148.86534910000046,148.86534910000046,148.86534910000046,005,P001,2025_Jan_17_1854,ConditionRich,2021.2.3,59.9354016258947,
120.75,121.0,41,0.0,Stimuli/Blank.png,0,0,0.0,0,203,203,203,,,,,,,,,,,,,120.75676789999852,0.006767899998521898,None,,149.61602410000341,149.61602410000341,149.61602410000341,149.61602410000341,149.61602410000341,149.61602410000341,149.61602410000341,149.61602410000341,149.61602410000341,149.61602410000341,005,P001,2025_Jan_17_1854,ConditionRich,2021.2.3,59.9354016258947,
121.0,121.75,12,0.75,Stimuli/P001/sun_bdxvmnlyovhqognn.jpg,0,0,0.0,0,204,204,204,,,,,,,,,,,,,121.00697260000015,0.006972600000153761,None,,149.8829487999974,149.8829487999974,149.8829487999974,149.8829487999974,149.8829487999974,149.8829487999974,149.8829487999974,149.8829487999974,149.8829487999974,149.8829487999974,005,P001,2025_Jan_17_1854,ConditionRich,2021.2.3,59.9354016258947,
121.75,122.0,41,0.0,Stimuli/Blank.png,0,0,0.0,0,205,205,205,,,,,,,,,,,,,121.77284189999773,0.022841899997729342,5,0.19613240000035148,150.63358169999992,150.63358169999992,150.63358169999992,150.63358169999992,150.63358169999992,150.63358169999992,150.63358169999992,150.63358169999992,150.63358169999992,150.63358169999992,005,P001,2025_Jan_17_1854,ConditionRich,2021.2.3,59.9354016258947,
122.0,122.75,12,0.75,Stimuli/P001/sun_bdxvmnlyovhqognn.jpg,1,0,0.75,0,206,206,206,,,,,,,,,,,,,122.00675999999658,0.006759999996575061,3,0.39874109999800567,150.86712249999982,150.86712249999982,150.86712249999982,150.86712249999982,150.86712249999982,150.86712249999982,150.86712249999982,151.60110149999673,150.86712249999982,150.86712249999982,005,P001,2025_Jan_17_1854,ConditionRich,2021.2.3,59.9354016258947,
122.75,123.0,41,0.0,Stimuli/Blank.png,0,0,0.0,0,207,207,207,,,,,,,,,,,,,122.7572555999941,0.007255599994095974,None,,151.6177988999989,151.6177988999989,151.6177988999989,151.6177988999989,151.6177988999989,151.6177988999989,151.6177988999989,151.6177988999989,151.6177988999989,151.6177988999989,005,P001,2025_Jan_17_1854,ConditionRich,2021.2.3,59.9354016258947,
123.0,123.75,12,0.75,Stimuli/P001/sun_bdxvmnlyovhqognn.jpg,0,0,0.0,0,208,208,208,,,,,,,,,,,,,123.00808349999716,0.00808349999715574,None,,151.88469869999972,151.88469869999972,151.88469869999972,151.88469869999972,151.88469869999972,151.88469869999972,151.88469869999972,151.88469869999972,151.88469869999972,151.88469869999972,005,P001,2025_Jan_17_1854,ConditionRich,2021.2.3,59.9354016258947,
123.75,124.0,41,0.0,Stimuli/Blank.png,0,0,0.0,0,209,209,209,,,,,,,,,,,,,123.77506889999495,0.02506889999494888,5,0.1943539999992936,152.63535409999895,152.63535409999895,152.63535409999895,152.63535409999895,152.63535409999895,152.63535409999895,152.63535409999895,152.63535409999895,152.63535409999895,152.63535409999895,005,P001,2025_Jan_17_1854,ConditionRich,2021.2.3,59.9354016258947,
124.0,124.75,14,0.75,Stimuli/P001/sun_bfgxassmmvhtarcc.jpg,0,0,0.0,0,210,210,210,,,,,,,,,,,,,124.00969110000005,0.009691100000054576,None,,152.88560600000346,152.88560600000346,152.88560600000346,152.88560600000346,152.88560600000346,152.88560600000346,152.88560600000346,152.88560600000346,152.88560600000346,152.88560600000346,005,P001,2025_Jan_17_1854,ConditionRich,2021.2.3,59.9354016258947,
124.75,125.0,41,0.0,Stimuli/Blank.png,0,0,0.0,0,211,211,211,,,,,,,,,,,,,124.77574089999689,0.02574089999689022,None,,153.63623209999787,153.63623209999787,153.63623209999787,153.63623209999787,153.63623209999787,153.63623209999787,153.63623209999787,153.63623209999787,153.63623209999787,153.63623209999787,005,P001,2025_Jan_17_1854,ConditionRich,2021.2.3,59.9354016258947,
125.0,125.75,14,0.75,Stimuli/P001/sun_bfgxassmmvhtarcc.jpg,0,0,0.0,0,212,212,212,,,,,,,,,,,,,125.01209309999831,0.012093099998310208,None,,153.88647360000323,153.88647360000323,153.88647360000323,153.88647360000323,153.88647360000323,153.88647360000323,153.88647360000323,153.88647360000323,153.88647360000323,153.88647360000323,005,P001,2025_Jan_17_1854,ConditionRich,2021.2.3,59.9354016258947,
125.75,126.0,41,0.0,Stimuli/Blank.png,0,0,0.0,0,213,213,213,,,,,,,,,,,,,125.77717049999774,0.027170499997737352,5,0.1926238000014564,154.6371233000027,154.6371233000027,154.6371233000027,154.6371233000027,154.6371233000027,154.6371233000027,154.6371233000027,154.6371233000027,154.6371233000027,154.6371233000027,005,P001,2025_Jan_17_1854,ConditionRich,2021.2.3,59.9354016258947,
126.0,126.75,14,0.75,Stimuli/P001/sun_bfgxassmmvhtarcc.jpg,0,0,0.0,0,214,214,214,,,,,,,,,,,,,126.01036380000005,0.010363800000050105,None,,154.87065489999804,154.87065489999804,154.87065489999804,154.87065489999804,154.87065489999804,154.87065489999804,154.87065489999804,154.87065489999804,154.87065489999804,154.87065489999804,005,P001,2025_Jan_17_1854,ConditionRich,2021.2.3,59.9354016258947,
126.75,127.0,41,0.0,Stimuli/Blank.png,0,0,0.0,0,215,215,215,,,,,,,,,,,,,126.76068369999848,0.010683699998480733,None,,155.62132790000032,155.62132790000032,155.62132790000032,155.62132790000032,155.62132790000032,155.62132790000032,155.62132790000032,155.62132790000032,155.62132790000032,155.62132790000032,005,P001,2025_Jan_17_1854,ConditionRich,2021.2.3,59.9354016258947,
127.0,127.75,14,0.75,Stimuli/P001/sun_bfgxassmmvhtarcc.jpg,0,0,0.0,0,216,216,216,,,,,,,,,,,,,127.01238699999521,0.012386999995214865,None,,155.88822629999777,155.88822629999777,155.88822629999777,155.88822629999777,155.88822629999777,155.88822629999777,155.88822629999777,155.88822629999777,155.88822629999777,155.88822629999777,005,P001,2025_Jan_17_1854,ConditionRich,2021.2.3,59.9354016258947,
127.75,128.0,41,0.0,Stimuli/Blank.png,0,0,0.0,0,217,217,217,,,,,,,,,,,,,127.77866579999682,0.028665799996815622,5,0.19089920000260463,156.63889400000335,156.63889400000335,156.63889400000335,156.63889400000335,156.63889400000335,156.63889400000335,156.63889400000335,156.63889400000335,156.63889400000335,156.63889400000335,005,P001,2025_Jan_17_1854,ConditionRich,2021.2.3,59.9354016258947,
128.0,128.75,26,0.75,Stimuli/P001/things_dish_01b.jpg,0,0,0.0,0,218,218,218,,,,,,,,,,,,,128.01250040000014,0.012500400000135414,None,,156.87242790000164,156.87242790000164,156.87242790000164,156.87242790000164,156.87242790000164,156.87242790000164,156.87242790000164,156.87242790000164,156.87242790000164,156.87242790000164,005,P001,2025_Jan_17_1854,ConditionRich,2021.2.3,59.9354016258947,
128.75,129.0,41,0.0,Stimuli/Blank.png,0,0,0.0,0,219,219,219,,,,,,,,,,,,,128.76319039999362,0.013190399993618485,None,,157.62318570000207,157.62318570000207,157.62318570000207,157.62318570000207,157.62318570000207,157.62318570000207,157.62318570000207,157.62318570000207,157.62318570000207,157.62318570000207,005,P001,2025_Jan_17_1854,ConditionRich,2021.2.3,59.9354016258947,
129.0,129.75,26,0.75,Stimuli/P001/things_dish_01b.jpg,0,0,0.0,0,220,220,220,,,,,,,,,,,,,129.01328549999744,0.013285499997437,None,,157.8900158999968,157.8900158999968,157.8900158999968,157.8900158999968,157.8900158999968,157.8900158999968,157.8900158999968,157.8900158999968,157.8900158999968,157.8900158999968,005,P001,2025_Jan_17_1854,ConditionRich,2021.2.3,59.9354016258947,
129.75,130.0,41,0.0,Stimuli/Blank.png,0,0,0.0,0,221,221,221,,,,,,,,,,,,,129.78072089999478,0.03072089999477612,5,0.18903100000170525,158.64067449999857,158.64067449999857,158.64067449999857,158.64067449999857,158.64067449999857,158.64067449999857,158.64067449999857,158.64067449999857,158.64067449999857,158.64067449999857,005,P001,2025_Jan_17_1854,ConditionRich,2021.2.3,59.9354016258947,
130.0,130.75,26,0.75,Stimuli/P001/things_dish_01b.jpg,0,0,0.0,0,222,222,222,,,,,,,,,,,,,130.01641739999468,0.016417399994679727,None,,158.8908958000029,158.8908958000029,158.8908958000029,158.8908958000029,158.8908958000029,158.8908958000029,158.8908958000029,158.8908958000029,158.8908958000029,158.8908958000029,005,P001,2025_Jan_17_1854,ConditionRich,2021.2.3,59.9354016258947,
130.75,131.0,41,0.0,Stimuli/Blank.png,0,0,0.0,0,223,223,223,,,,,,,,,,,,,130.76713309999468,0.01713309999468038,None,,159.6415502000018,159.6415502000018,159.6415502000018,159.6415502000018,159.6415502000018,159.6415502000018,159.6415502000018,159.6415502000018,159.6415502000018,159.6415502000018,005,P001,2025_Jan_17_1854,ConditionRich,2021.2.3,59.9354016258947,
131.0,131.75,26,0.75,Stimuli/P001/things_dish_01b.jpg,0,0,0.0,0,224,224,224,,,,,,,,,,,,,131.0172550999996,0.017255099999601953,None,,159.8917728000015,159.8917728000015,159.8917728000015,159.8917728000015,159.8917728000015,159.8917728000015,159.8917728000015,159.8917728000015,159.8917728000015,159.8917728000015,005,P001,2025_Jan_17_1854,ConditionRich,2021.2.3,59.9354016258947,
131.75,132.0,41,0.0,Stimuli/Blank.png,0,0,0.0,0,225,225,225,,,,,,,,,,,,,131.76588569999876,0.015885699998761993,None,,160.62575849999848,160.62575849999848,160.62575849999848,160.62575849999848,160.62575849999848,160.62575849999848,160.62575849999848,160.62575849999848,160.62575849999848,160.62575849999848,005,P001,2025_Jan_17_1854,ConditionRich,2021.2.3,59.9354016258947,
132.0,132.75,22,0.75,Stimuli/P001/things_boy_01b.jpg,0,0,0.0,0,226,226,226,,,,,,,,,,,,,131.99890619999496,-0.0010938000050373375,None,,160.859289,160.859289,160.859289,160.859289,160.859289,160.859289,160.859289,160.859289,160.859289,160.859289,005,P001,2025_Jan_17_1854,ConditionRich,2021.2.3,59.9354016258947,
132.75,133.0,41,0.0,Stimuli/Blank.png,0,0,0.0,0,227,227,227,,,,,,,,,,,,,132.74987749999855,-0.00012250000145286322,None,,161.6100407999984,161.6100407999984,161.6100407999984,161.6100407999984,161.6100407999984,161.6100407999984,161.6100407999984,161.6100407999984,161.6100407999984,161.6100407999984,005,P001,2025_Jan_17_1854,ConditionRich,2021.2.3,59.9354016258947,
133.0,133.75,22,0.75,Stimuli/P001/things_boy_01b.jpg,0,0,0.0,0,228,228,228,,,,,,,,,,,,,133.00323839999328,0.0032383999932790175,None,,161.87687880000158,161.87687880000158,161.87687880000158,161.87687880000158,161.87687880000158,161.87687880000158,161.87687880000158,161.87687880000158,161.87687880000158,161.87687880000158,005,P001,2025_Jan_17_1854,ConditionRich,2021.2.3,59.9354016258947,
133.75,134.0,41,0.0,Stimuli/Blank.png,0,0,0.0,0,229,229,229,,,,,,,,,,,,,133.76726349999808,0.01726349999808008,None,,162.62751459999708,162.62751459999708,162.62751459999708,162.62751459999708,162.62751459999708,162.62751459999708,162.62751459999708,162.62751459999708,162.62751459999708,162.62751459999708,005,P001,2025_Jan_17_1854,ConditionRich,2021.2.3,59.9354016258947,
134.0,134.75,22,0.75,Stimuli/P001/things_boy_01b.jpg,0,0,0.0,0,230,230,230,,,,,,,,,,,,,134.0009557999947,0.0009557999946991913,None,,162.8610641999985,162.8610641999985,162.8610641999985,162.8610641999985,162.8610641999985,162.8610641999985,162.8610641999985,162.8610641999985,162.8610641999985,162.8610641999985,005,P001,2025_Jan_17_1854,ConditionRich,2021.2.3,59.9354016258947,
134.75,135.0,41,0.0,Stimuli/Blank.png,0,0,0.0,0,231,231,231,,,,,,,,,,,,,134.75219839999772,0.0021983999977237545,None,,163.61174089999986,163.61174089999986,163.61174089999986,163.61174089999986,163.61174089999986,163.61174089999986,163.61174089999986,163.61174089999986,163.61174089999986,163.61174089999986,005,P001,2025_Jan_17_1854,ConditionRich,2021.2.3,59.9354016258947,
135.0,135.75,22,0.75,Stimuli/P001/things_boy_01b.jpg,0,0,0.0,0,232,232,232,,,,,,,,,,,,,135.00275499999407,0.002754999994067475,None,,163.8786173999979,163.8786173999979,163.8786173999979,163.8786173999979,163.8786173999979,163.8786173999979,163.8786173999979,163.8786173999979,163.8786173999979,163.8786173999979,005,P001,2025_Jan_17_1854,ConditionRich,2021.2.3,59.9354016258947,
135.75,136.0,41,0.0,Stimuli/Blank.png,0,0,0.0,0,233,233,233,,,,,,,,,,,,,135.7711338999943,0.021133899994310923,5,0.183849500004726,164.64597030000004,164.64597030000004,164.64597030000004,164.64597030000004,164.64597030000004,164.64597030000004,164.64597030000004,164.64597030000004,164.64597030000004,164.64597030000004,005,P001,2025_Jan_17_1854,ConditionRich,2021.2.3,59.9354016258947,
136.0,136.75,18,0.75,Stimuli/P001/sun_bzjegfvyrvqtunza.jpg,0,0,0.0,0,234,234,234,,,,,,,,,,,,,136.01884520000021,0.01884520000021439,None,,164.8962012999982,164.8962012999982,164.8962012999982,164.8962012999982,164.8962012999982,164.8962012999982,164.8962012999982,164.8962012999982,164.8962012999982,164.8962012999982,005,P001,2025_Jan_17_1854,ConditionRich,2021.2.3,59.9354016258947,
136.75,137.0,41,0.0,Stimuli/Blank.png,0,0,0.0,0,235,235,235,,,,,,,,,,,,,136.77249419999862,0.02249419999861857,None,,165.64687699999922,165.64687699999922,165.64687699999922,165.64687699999922,165.64687699999922,165.64687699999922,165.64687699999922,165.64687699999922,165.64687699999922,165.64687699999922,005,P001,2025_Jan_17_1854,ConditionRich,2021.2.3,59.9354016258947,
137.0,137.75,18,0.75,Stimuli/P001/sun_bzjegfvyrvqtunza.jpg,0,0,0.0,0,236,236,236,,,,,,,,,,,,,137.02076249999664,0.020762499996635597,None,,165.8970432999995,165.8970432999995,165.8970432999995,165.8970432999995,165.8970432999995,165.8970432999995,165.8970432999995,165.8970432999995,165.8970432999995,165.8970432999995,005,P001,2025_Jan_17_1854,ConditionRich,2021.2.3,59.9354016258947,
137.75,138.0,41,0.0,Stimuli/Blank.png,0,0,0.0,0,237,237,237,,,,,,,,,,,,,137.77083469999343,0.02083469999342924,5,0.19872849999956088,166.6310538999969,166.6310538999969,166.6310538999969,166.6310538999969,166.6310538999969,166.6310538999969,166.6310538999969,166.6310538999969,166.6310538999969,166.6310538999969,005,P001,2025_Jan_17_1854,ConditionRich,2021.2.3,59.9354016258947,
138.0,138.75,18,0.75,Stimuli/P001/sun_bzjegfvyrvqtunza.jpg,0,0,0.0,0,238,238,238,,,,,,,,,,,,,138.00425359999645,0.0042535999964457005,None,,166.86459699999978,166.86459699999978,166.86459699999978,166.86459699999978,166.86459699999978,166.86459699999978,166.86459699999978,166.86459699999978,166.86459699999978,166.86459699999978,005,P001,2025_Jan_17_1854,ConditionRich,2021.2.3,59.9354016258947,
138.75,139.0,41,0.0,Stimuli/Blank.png,0,0,0.0,0,239,239,239,,,,,,,,,,,,,138.75732069999503,0.007320699995034374,None,,167.6319641000009,167.6319641000009,167.6319641000009,167.6319641000009,167.6319641000009,167.6319641000009,167.6319641000009,167.6319641000009,167.6319641000009,167.6319641000009,005,P001,2025_Jan_17_1854,ConditionRich,2021.2.3,59.9354016258947,
139.0,139.75,18,0.75,Stimuli/P001/sun_bzjegfvyrvqtunza.jpg,0,0,0.0,0,240,240,240,,,,,,,,,,,,,139.0217216999954,0.021721699995396193,None,,167.8821644999989,167.8821644999989,167.8821644999989,167.8821644999989,167.8821644999989,167.8821644999989,167.8821644999989,167.8821644999989,167.8821644999989,167.8821644999989,005,P001,2025_Jan_17_1854,ConditionRich,2021.2.3,59.9354016258947,
139.75,140.0,41,0.0,Stimuli/Blank.png,0,0,0.0,0,241,241,241,,,,,,,,,,,,,139.75687610000023,0.00687610000022687,5,0.21355539999785833,168.61615889999666,168.61615889999666,168.61615889999666,168.61615889999666,168.61615889999666,168.61615889999666,168.61615889999666,168.61615889999666,168.61615889999666,168.61615889999666,005,P001,2025_Jan_17_1854,ConditionRich,2021.2.3,59.9354016258947,
140.0,140.75,23,0.75,Stimuli/P001/things_chick_01b.jpg,0,0,0.0,0,242,242,242,,,,,,,,,,,,,140.00591539999732,0.005915399997320492,None,,168.8663441000026,168.8663441000026,168.8663441000026,168.8663441000026,168.8663441000026,168.8663441000026,168.8663441000026,168.8663441000026,168.8663441000026,168.8663441000026,005,P001,2025_Jan_17_1854,ConditionRich,2021.2.3,59.9354016258947,
140.75,141.0,41,0.0,Stimuli/Blank.png,0,0,0.0,0,243,243,243,,,,,,,,,,,,,140.75725869999587,0.00725869999587303,None,,169.61705470000015,169.61705470000015,169.61705470000015,169.61705470000015,169.61705470000015,169.61705470000015,169.61705470000015,169.61705470000015,169.61705470000015,169.61705470000015,005,P001,2025_Jan_17_1854,ConditionRich,2021.2.3,59.9354016258947,
141.0,141.75,23,0.75,Stimuli/P001/things_chick_01b.jpg,0,0,0.0,0,244,244,244,,,,,,,,,,,,,141.00721429999976,0.0072142999997595325,None,,169.86724379999941,169.86724379999941,169.86724379999941,169.86724379999941,169.86724379999941,169.86724379999941,169.86724379999941,169.86724379999941,169.86724379999941,169.86724379999941,005,P001,2025_Jan_17_1854,ConditionRich,2021.2.3,59.9354016258947,
141.75,142.0,41,0.0,Stimuli/Blank.png,0,0,0.0,0,245,245,245,,,,,,,,,,,,,141.75732559999597,0.007325599995965604,5,0.21195499999885214,170.6179112000027,170.6179112000027,170.6179112000027,170.6179112000027,170.6179112000027,170.6179112000027,170.6179112000027,170.6179112000027,170.6179112000027,170.6179112000027,005,P001,2025_Jan_17_1854,ConditionRich,2021.2.3,59.9354016258947,
142.0,142.75,23,0.75,Stimuli/P001/things_chick_01b.jpg,0,0,0.0,0,246,246,246,,,,,,,,,,,,,142.00828879999608,0.008288799996080343,None,,170.88484340000286,170.88484340000286,170.88484340000286,170.88484340000286,170.88484340000286,170.88484340000286,170.88484340000286,170.88484340000286,170.88484340000286,170.88484340000286,005,P001,2025_Jan_17_1854,ConditionRich,2021.2.3,59.9354016258947,
142.75,143.0,41,0.0,Stimuli/Blank.png,0,0,0.0,0,247,247,247,,,,,,,,,,,,,142.77507129999867,0.025071299998671748,None,,171.6354824000009,171.6354824000009,171.6354824000009,171.6354824000009,171.6354824000009,171.6354824000009,171.6354824000009,171.6354824000009,171.6354824000009,171.6354824000009,005,P001,2025_Jan_17_1854,ConditionRich,2021.2.3,59.9354016258947,
143.0,143.75,23,0.75,Stimuli/P001/things_chick_01b.jpg,1,0,0.75,0,248,248,248,,,,,,,,,,,,,143.011256699996,0.011256699996010866,3,0.3752069999973173,171.8857183,171.8857183,171.8857183,171.8857183,171.8857183,171.8857183,171.8857183,172.61967909999657,171.8857183,171.8857183,005,P001,2025_Jan_17_1854,ConditionRich,2021.2.3,59.9354016258947,
143.75,144.0,41,0.0,Stimuli/Blank.png,0,0,0.0,0,249,249,249,,,,,,,,,,,,,143.77618919999804,0.026189199998043478,5,0.1933424999951967,172.63636949999636,172.63636949999636,172.63636949999636,172.63636949999636,172.63636949999636,172.63636949999636,172.63636949999636,172.63636949999636,172.63636949999636,172.63636949999636,005,P001,2025_Jan_17_1854,ConditionRich,2021.2.3,59.9354016258947,
144.0,144.75,5,0.75,Stimuli/P001/sun_apwzcrxhvvnrexjh.jpg,0,0,0.0,0,250,250,250,,,,,,,,,,,,,144.0097217999937,0.00972179999371292,None,,172.86990420000075,172.86990420000075,172.86990420000075,172.86990420000075,172.86990420000075,172.86990420000075,172.86990420000075,172.86990420000075,172.86990420000075,172.86990420000075,005,P001,2025_Jan_17_1854,ConditionRich,2021.2.3,59.9354016258947,
144.75,145.0,41,0.0,Stimuli/Blank.png,0,0,0.0,0,251,251,251,,,,,,,,,,,,,144.7609264999992,0.01092649999918649,None,,173.62058029999753,173.62058029999753,173.62058029999753,173.62058029999753,173.62058029999753,173.62058029999753,173.62058029999753,173.62058029999753,173.62058029999753,173.62058029999753,005,P001,2025_Jan_17_1854,ConditionRich,2021.2.3,59.9354016258947,
145.0,145.75,5,0.75,Stimuli/P001/sun_apwzcrxhvvnrexjh.jpg,0,0,0.0,0,252,252,252,,,,,,,,,,,,,145.01098139999522,0.010981399995216634,None,,173.88748420000047,173.88748420000047,173.88748420000047,173.88748420000047,173.88748420000047,173.88748420000047,173.88748420000047,173.88748420000047,173.88748420000047,173.88748420000047,005,P001,2025_Jan_17_1854,ConditionRich,2021.2.3,59.9354016258947,
145.75,146.0,41,0.0,Stimuli/Blank.png,0,0,0.0,0,253,253,253,,,,,,,,,,,,,145.77745659999346,0.02745659999345662,5,0.1919147000007797,174.6381395999997,174.6381395999997,174.6381395999997,174.6381395999997,174.6381395999997,174.6381395999997,174.6381395999997,174.6381395999997,174.6381395999997,174.6381395999997,005,P001,2025_Jan_17_1854,ConditionRich,2021.2.3,59.9354016258947,
146.0,146.75,5,0.75,Stimuli/P001/sun_apwzcrxhvvnrexjh.jpg,0,0,0.0,0,254,254,254,,,,,,,,,,,,,146.01147599999967,0.011475999999674968,None,,174.87167359999876,174.87167359999876,174.87167359999876,174.87167359999876,174.87167359999876,174.87167359999876,174.87167359999876,174.87167359999876,174.87167359999876,174.87167359999876,005,P001,2025_Jan_17_1854,ConditionRich,2021.2.3,59.9354016258947,
146.75,147.0,41,0.0,Stimuli/Blank.png,0,0,0.0,0,255,255,255,,,,,,,,,,,,,146.7622424999936,0.012242499993590172,None,,175.6223345000035,175.6223345000035,175.6223345000035,175.6223345000035,175.6223345000035,175.6223345000035,175.6223345000035,175.6223345000035,175.6223345000035,175.6223345000035,005,P001,2025_Jan_17_1854,ConditionRich,2021.2.3,59.9354016258947,
147.0,147.75,5,0.75,Stimuli/P001/sun_apwzcrxhvvnrexjh.jpg,0,0,0.0,0,256,256,256,,,,,,,,,,,,,147.01262409999617,0.012624099996173754,None,,175.87257420000242,175.87257420000242,175.87257420000242,175.87257420000242,175.87257420000242,175.87257420000242,175.87257420000242,175.87257420000242,175.87257420000242,175.87257420000242,005,P001,2025_Jan_17_1854,ConditionRich,2021.2.3,59.9354016258947,
147.75,148.0,41,0.0,Stimuli/Blank.png,0,0,0.0,0,257,257,257,,,,,,,,,,,,,147.7633652999939,0.013365299993893132,5,0.20673639999586158,176.62321910000173,176.62321910000173,176.62321910000173,176.62321910000173,176.62321910000173,176.62321910000173,176.62321910000173,176.62321910000173,176.62321910000173,176.62321910000173,005,P001,2025_Jan_17_1854,ConditionRich,2021.2.3,59.9354016258947,
148.0,148.75,1,0.75,Stimuli/P001/sun_agpgdwkhzgvzdaea.jpg,0,0,0.0,0,258,258,258,,,,,,,,,,,,,148.01363979999587,0.013639799995871726,None,,176.89014109999698,176.89014109999698,176.89014109999698,176.89014109999698,176.89014109999698,176.89014109999698,176.89014109999698,176.89014109999698,176.89014109999698,176.89014109999698,005,P001,2025_Jan_17_1854,ConditionRich,2021.2.3,59.9354016258947,
148.75,149.0,41,0.0,Stimuli/Blank.png,0,0,0.0,0,259,259,259,,,,,,,,,,,,,148.7808922999975,0.03089229999750387,None,,177.6408117000028,177.6408117000028,177.6408117000028,177.6408117000028,177.6408117000028,177.6408117000028,177.6408117000028,177.6408117000028,177.6408117000028,177.6408117000028,005,P001,2025_Jan_17_1854,ConditionRich,2021.2.3,59.9354016258947,
149.0,149.75,1,0.75,Stimuli/P001/sun_agpgdwkhzgvzdaea.jpg,0,0,0.0,0,260,260,260,,,,,,,,,,,,,149.01454739999463,0.014547399994626176,None,,177.8910057999965,177.8910057999965,177.8910057999965,177.8910057999965,177.8910057999965,177.8910057999965,177.8910057999965,177.8910057999965,177.8910057999965,177.8910057999965,005,P001,2025_Jan_17_1854,ConditionRich,2021.2.3,59.9354016258947,
