eventStartTime,eventEndTime,eventCond,imSize,imFile,responseEvent,fixRespStart,fixRespEnd,Events.thisRepN,Events.thisTrialN,Events.thisN,Events.thisIndex,Instructions.started,Instructions.stopped,participantReadyResponse.keys,participantReadyResponse.rt,participantReadyResponse.started,participantReadyResponse.stopped,startWaitforTrigger,triggerResponse.keys,triggerResponse.rt,triggerResponse.started,triggerResponse.stopped,globalTimer,actualStartTime,startTimingDiff,participantResponse.keys,participantResponse.rt,participantResponse.started,participantResponse.stopped,image.started,image.stopped,fixationOutside.started,fixationOutside.stopped,fixationResponse.started,fixationResponse.stopped,fixationInside.started,fixationInside.stopped,session,participant,date,expName,psychopyVersion,frameRate,
,,,,,,,,,,,,13.51216459999705,None,3,3.585884200001601,13.51216459999705,None,,,,,,,,,,,,,,,,,,,,,002,P001,2025_Jan_17_1821,ConditionRich,2021.2.3,59.9394611429402,
,,,,,,,,,,,,,,,,,,17.108969699998852,5,15.184493000000657,17.121769700002915,None,,,,,,,,,,,,,,,,002,P001,2025_Jan_17_1821,ConditionRich,2021.2.3,59.9394611429402,
0.0,4.0,0,0.0,Stimuli/Blank.png,0,0,0.0,0,0,0,0,,,,,,,,,,,,32.322578400002385,0.07936319999862462,0.07936319999862462,5,3.8873101999997743,32.418508200004,None,32.418508200004,None,32.418508200004,None,32.418508200004,32.418508200004,32.418508200004,None,002,P001,2025_Jan_17_1821,ConditionRich,2021.2.3,59.9394611429402,
4.0,4.75,6,0.75,Stimuli/P001/sun_aqbaaqeojrexbmcr.jpg,0,0,0.0,0,1,1,1,,,,,,,,,,,,,4.003758500002732,0.0037585000027320348,None,,36.33890439999959,36.33890439999959,36.33890439999959,36.33890439999959,36.33890439999959,36.33890439999959,36.33890439999959,36.33890439999959,36.33890439999959,36.33890439999959,002,P001,2025_Jan_17_1821,ConditionRich,2021.2.3,59.9394611429402,
4.75,5.0,41,0.0,Stimuli/Blank.png,0,0,0.0,0,2,2,2,,,,,,,,,,,,,4.752456000001985,0.0024560000019846484,None,,37.089587700000266,37.089587700000266,37.089587700000266,37.089587700000266,37.089587700000266,37.089587700000266,37.089587700000266,37.089587700000266,37.089587700000266,37.089587700000266,002,P001,2025_Jan_17_1821,ConditionRich,2021.2.3,59.9394611429402,
5.0,5.75,6,0.75,Stimuli/P001/sun_aqbaaqeojrexbmcr.jpg,0,0,0.0,0,3,3,3,,,,,,,,,,,,,5.005268100001558,0.005268100001558196,None,,37.3562208000003,37.3562208000003,37.3562208000003,37.3562208000003,37.3562208000003,37.3562208000003,37.3562208000003,37.3562208000003,37.3562208000003,37.3562208000003,002,P001,2025_Jan_17_1821,ConditionRich,2021.2.3,59.9394611429402,
5.75,6.0,41,0.0,Stimuli/Blank.png,0,0,0.0,0,4,4,4,,,,,,,,,,,,,5.770859200005361,0.020859200005361345,5,0.19900329999654787,38.106863000000885,38.106863000000885,38.106863000000885,38.106863000000885,38.106863000000885,38.106863000000885,38.106863000000885,38.106863000000885,38.106863000000885,38.106863000000885,002,P001,2025_Jan_17_1821,ConditionRich,2021.2.3,59.9394611429402,
6.0,6.75,6,0.75,Stimuli/P001/sun_aqbaaqeojrexbmcr.jpg,0,0,0.0,0,5,5,5,,,,,,,,,,,,,6.00590530000045,0.0059053000004496425,None,,38.35709710000083,38.35709710000083,38.35709710000083,38.35709710000083,38.35709710000083,38.35709710000083,38.35709710000083,38.35709710000083,38.35709710000083,38.35709710000083,002,P001,2025_Jan_17_1821,ConditionRich,2021.2.3,59.9394611429402,
6.75,7.0,41,0.0,Stimuli/Blank.png,0,0,0.0,0,6,6,6,,,,,,,,,,,,,6.771341600004234,0.02134160000423435,None,,39.107756999997946,39.107756999997946,39.107756999997946,39.107756999997946,39.107756999997946,39.107756999997946,39.107756999997946,39.107756999997946,39.107756999997946,39.107756999997946,002,P001,2025_Jan_17_1821,ConditionRich,2021.2.3,59.9394611429402,
7.0,7.75,6,0.75,Stimuli/P001/sun_aqbaaqeojrexbmcr.jpg,0,0,0.0,0,7,7,7,,,,,,,,,,,,,7.005553300004976,0.005553300004976336,None,,39.35798710000381,39.35798710000381,39.35798710000381,39.35798710000381,39.35798710000381,39.35798710000381,39.35798710000381,39.35798710000381,39.35798710000381,39.35798710000381,002,P001,2025_Jan_17_1821,ConditionRich,2021.2.3,59.9394611429402,
7.75,8.0,41,0.0,Stimuli/Blank.png,0,0,0.0,0,8,8,8,,,,,,,,,,,,,7.771836300002178,0.021836300002178177,5,0.19721429999481188,40.108633399999235,40.108633399999235,40.108633399999235,40.108633399999235,40.108633399999235,40.108633399999235,40.108633399999235,40.108633399999235,40.108633399999235,40.108633399999235,002,P001,2025_Jan_17_1821,ConditionRich,2021.2.3,59.9394611429402,
8.0,8.75,11,0.75,Stimuli/P001/sun_bbfdgdyeqdnadvvi.jpg,1,0,0.75,0,9,9,9,,,,,,,,,,,,,8.00536600000487,0.00536600000486942,3,0.38797170000179904,40.3421817999988,40.3421817999988,40.3421817999988,40.3421817999988,40.3421817999988,40.3421817999988,40.3421817999988,41.07615480000095,40.3421817999988,40.3421817999988,002,P001,2025_Jan_17_1821,ConditionRich,2021.2.3,59.9394611429402,
8.75,9.0,41,0.0,Stimuli/Blank.png,0,0,0.0,0,10,10,10,,,,,,,,,,,,,8.756168700005219,0.006168700005218852,None,,41.09283080000023,41.09283080000023,41.09283080000023,41.09283080000023,41.09283080000023,41.09283080000023,41.09283080000023,41.09283080000023,41.09283080000023,41.09283080000023,002,P001,2025_Jan_17_1821,ConditionRich,2021.2.3,59.9394611429402,
9.0,9.75,11,0.75,Stimuli/P001/sun_bbfdgdyeqdnadvvi.jpg,0,0,0.0,0,11,11,11,,,,,,,,,,,,,9.006797100002586,0.006797100002586376,None,,41.35976479999954,41.35976479999954,41.35976479999954,41.35976479999954,41.35976479999954,41.35976479999954,41.35976479999954,41.35976479999954,41.35976479999954,41.35976479999954,002,P001,2025_Jan_17_1821,ConditionRich,2021.2.3,59.9394611429402,
9.75,10.0,41,0.0,Stimuli/Blank.png,0,0,0.0,0,12,12,12,,,,,,,,,,,,,9.77374730000156,0.02374730000155978,5,0.19556349999766098,42.11042599999928,42.11042599999928,42.11042599999928,42.11042599999928,42.11042599999928,42.11042599999928,42.11042599999928,42.11042599999928,42.11042599999928,42.11042599999928,002,P001,2025_Jan_17_1821,ConditionRich,2021.2.3,59.9394611429402,
10.0,10.75,11,0.75,Stimuli/P001/sun_bbfdgdyeqdnadvvi.jpg,0,0,0.0,0,13,13,13,,,,,,,,,,,,,10.007086400000844,0.007086400000844151,None,,42.36066379999829,42.36066379999829,42.36066379999829,42.36066379999829,42.36066379999829,42.36066379999829,42.36066379999829,42.36066379999829,42.36066379999829,42.36066379999829,002,P001,2025_Jan_17_1821,ConditionRich,2021.2.3,59.9394611429402,
10.75,11.0,41,0.0,Stimuli/Blank.png,0,0,0.0,0,14,14,14,,,,,,,,,,,,,10.774677100002009,0.024677100002008956,None,,43.11129169999913,43.11129169999913,43.11129169999913,43.11129169999913,43.11129169999913,43.11129169999913,43.11129169999913,43.11129169999913,43.11129169999913,43.11129169999913,002,P001,2025_Jan_17_1821,ConditionRich,2021.2.3,59.9394611429402,
11.0,11.75,11,0.75,Stimuli/P001/sun_bbfdgdyeqdnadvvi.jpg,0,0,0.0,0,15,15,15,,,,,,,,,,,,,11.010110800001712,0.01011080000171205,None,,43.36152790000051,43.36152790000051,43.36152790000051,43.36152790000051,43.36152790000051,43.36152790000051,43.36152790000051,43.36152790000051,43.36152790000051,43.36152790000051,002,P001,2025_Jan_17_1821,ConditionRich,2021.2.3,59.9394611429402,
11.75,12.0,41,0.0,Stimuli/Blank.png,0,0,0.0,0,16,16,16,,,,,,,,,,,,,11.776506000001973,0.026506000001973007,5,0.17717950000223937,44.12887120000232,44.12887120000232,44.12887120000232,44.12887120000232,44.12887120000232,44.12887120000232,44.12887120000232,44.12887120000232,44.12887120000232,44.12887120000232,002,P001,2025_Jan_17_1821,ConditionRich,2021.2.3,59.9394611429402,
12.0,12.75,31,0.75,Stimuli/P001/things_man_01b.jpg,0,0,0.0,0,17,17,17,,,,,,,,,,,,,12.025543100004143,0.025543100004142616,None,,44.3624054000029,44.3624054000029,44.3624054000029,44.3624054000029,44.3624054000029,44.3624054000029,44.3624054000029,44.3624054000029,44.3624054000029,44.3624054000029,002,P001,2025_Jan_17_1821,ConditionRich,2021.2.3,59.9394611429402,
12.75,13.0,41,0.0,Stimuli/Blank.png,0,0,0.0,0,18,18,18,,,,,,,,,,,,,12.759612200003176,0.00961220000317553,None,,45.09637479999947,45.09637479999947,45.09637479999947,45.09637479999947,45.09637479999947,45.09637479999947,45.09637479999947,45.09637479999947,45.09637479999947,45.09637479999947,002,P001,2025_Jan_17_1821,ConditionRich,2021.2.3,59.9394611429402,
13.0,13.75,31,0.75,Stimuli/P001/things_man_01b.jpg,0,0,0.0,0,19,19,19,,,,,,,,,,,,,13.010529099999985,0.010529099999985192,None,,45.36330440000165,45.36330440000165,45.36330440000165,45.36330440000165,45.36330440000165,45.36330440000165,45.36330440000165,45.36330440000165,45.36330440000165,45.36330440000165,002,P001,2025_Jan_17_1821,ConditionRich,2021.2.3,59.9394611429402,
13.75,14.0,41,0.0,Stimuli/Blank.png,0,0,0.0,0,20,20,20,,,,,,,,,,,,,13.779681600004551,0.029681600004551,5,0.17524600000615465,46.13062979999813,46.13062979999813,46.13062979999813,46.13062979999813,46.13062979999813,46.13062979999813,46.13062979999813,46.13062979999813,46.13062979999813,46.13062979999813,002,P001,2025_Jan_17_1821,ConditionRich,2021.2.3,59.9394611429402,
14.0,14.75,31,0.75,Stimuli/P001/things_man_01b.jpg,0,0,0.0,0,21,21,21,,,,,,,,,,,,,14.02728290000232,0.027282900002319366,None,,46.38085890000366,46.38085890000366,46.38085890000366,46.38085890000366,46.38085890000366,46.38085890000366,46.38085890000366,46.38085890000366,46.38085890000366,46.38085890000366,002,P001,2025_Jan_17_1821,ConditionRich,2021.2.3,59.9394611429402,
14.75,15.0,41,0.0,Stimuli/Blank.png,0,0,0.0,0,22,22,22,,,,,,,,,,,,,14.778454899998906,0.028454899998905603,None,,47.1148205999998,47.1148205999998,47.1148205999998,47.1148205999998,47.1148205999998,47.1148205999998,47.1148205999998,47.1148205999998,47.1148205999998,47.1148205999998,002,P001,2025_Jan_17_1821,ConditionRich,2021.2.3,59.9394611429402,
15.0,15.75,31,0.75,Stimuli/P001/things_man_01b.jpg,0,0,0.0,0,23,23,23,,,,,,,,,,,,,15.011936000002606,0.011936000002606306,None,,47.348362700002326,47.348362700002326,47.348362700002326,47.348362700002326,47.348362700002326,47.348362700002326,47.348362700002326,47.348362700002326,47.348362700002326,47.348362700002326,002,P001,2025_Jan_17_1821,ConditionRich,2021.2.3,59.9394611429402,
15.75,16.0,41,0.0,Stimuli/Blank.png,0,0,0.0,0,24,24,24,,,,,,,,,,,,,15.762029500001518,0.01202950000151759,5,0.20694389999698615,48.098987899997155,48.098987899997155,48.098987899997155,48.098987899997155,48.098987899997155,48.098987899997155,48.098987899997155,48.098987899997155,48.098987899997155,48.098987899997155,002,P001,2025_Jan_17_1821,ConditionRich,2021.2.3,59.9394611429402,
16.0,16.75,16,0.75,Stimuli/P001/sun_biqyomkjbujnppuf.jpg,0,0,0.0,0,25,25,25,,,,,,,,,,,,,16.013337299998966,0.013337299998966046,None,,48.36593430000357,48.36593430000357,48.36593430000357,48.36593430000357,48.36593430000357,48.36593430000357,48.36593430000357,48.36593430000357,48.36593430000357,48.36593430000357,002,P001,2025_Jan_17_1821,ConditionRich,2021.2.3,59.9394611429402,
16.75,17.0,41,0.0,Stimuli/Blank.png,0,0,0.0,0,26,26,26,,,,,,,,,,,,,16.78049420000025,0.030494200000248384,None,,49.11659650000365,49.11659650000365,49.11659650000365,49.11659650000365,49.11659650000365,49.11659650000365,49.11659650000365,49.11659650000365,49.11659650000365,49.11659650000365,002,P001,2025_Jan_17_1821,ConditionRich,2021.2.3,59.9394611429402,
17.0,17.75,16,0.75,Stimuli/P001/sun_biqyomkjbujnppuf.jpg,1,0,0.75,0,27,27,27,,,,,,,,,,,,,17.01412220000202,0.01412220000202069,3,0.4893535000010161,49.366815000001225,49.366815000001225,49.366815000001225,49.366815000001225,49.366815000001225,49.366815000001225,49.366815000001225,50.08410210000147,49.366815000001225,49.366815000001225,002,P001,2025_Jan_17_1821,ConditionRich,2021.2.3,59.9394611429402,
17.75,18.0,41,0.0,Stimuli/Blank.png,0,0,0.0,0,28,28,28,,,,,,,,,,,,,17.780388300001505,0.03038830000150483,5,0.18838890000188258,50.11746790000325,50.11746790000325,50.11746790000325,50.11746790000325,50.11746790000325,50.11746790000325,50.11746790000325,50.11746790000325,50.11746790000325,50.11746790000325,002,P001,2025_Jan_17_1821,ConditionRich,2021.2.3,59.9394611429402,
18.0,18.75,16,0.75,Stimuli/P001/sun_biqyomkjbujnppuf.jpg,0,0,0.0,0,29,29,29,,,,,,,,,,,,,18.014517499999783,0.014517499999783468,None,,50.35101169999689,50.35101169999689,50.35101169999689,50.35101169999689,50.35101169999689,50.35101169999689,50.35101169999689,50.35101169999689,50.35101169999689,50.35101169999689,002,P001,2025_Jan_17_1821,ConditionRich,2021.2.3,59.9394611429402,
18.75,19.0,41,0.0,Stimuli/Blank.png,0,0,0.0,0,30,30,30,,,,,,,,,,,,,18.765839899999264,0.015839899999264162,None,,51.101680400002806,51.101680400002806,51.101680400002806,51.101680400002806,51.101680400002806,51.101680400002806,51.101680400002806,51.101680400002806,51.101680400002806,51.101680400002806,002,P001,2025_Jan_17_1821,ConditionRich,2021.2.3,59.9394611429402,
19.0,19.75,16,0.75,Stimuli/P001/sun_biqyomkjbujnppuf.jpg,0,0,0.0,0,31,31,31,,,,,,,,,,,,,18.998406099999556,-0.001593900000443682,None,,51.335234799997124,51.335234799997124,51.335234799997124,51.335234799997124,51.335234799997124,51.335234799997124,51.335234799997124,51.335234799997124,51.335234799997124,51.335234799997124,002,P001,2025_Jan_17_1821,ConditionRich,2021.2.3,59.9394611429402,
19.75,20.0,41,0.0,Stimuli/Blank.png,0,0,0.0,0,32,32,32,,,,,,,,,,,,,19.749141899999813,-0.0008581000001868233,None,,52.085880700004054,52.085880700004054,52.085880700004054,52.085880700004054,52.085880700004054,52.085880700004054,52.085880700004054,52.085880700004054,52.085880700004054,52.085880700004054,002,P001,2025_Jan_17_1821,ConditionRich,2021.2.3,59.9394611429402,
20.0,20.75,39,0.75,Stimuli/P001/things_woman_01b.jpg,0,0,0.0,0,33,33,33,,,,,,,,,,,,,19.9994927000007,-0.0005072999992989935,None,,52.33611229999951,52.33611229999951,52.33611229999951,52.33611229999951,52.33611229999951,52.33611229999951,52.33611229999951,52.33611229999951,52.33611229999951,52.33611229999951,002,P001,2025_Jan_17_1821,ConditionRich,2021.2.3,59.9394611429402,
20.75,21.0,41,0.0,Stimuli/Blank.png,0,0,0.0,0,34,34,34,,,,,,,,,,,,,20.751022399999783,0.0010223999997833744,None,,53.0867653000023,53.0867653000023,53.0867653000023,53.0867653000023,53.0867653000023,53.0867653000023,53.0867653000023,53.0867653000023,53.0867653000023,53.0867653000023,002,P001,2025_Jan_17_1821,ConditionRich,2021.2.3,59.9394611429402,
21.0,21.75,39,0.75,Stimuli/P001/things_woman_01b.jpg,0,0,0.0,0,35,35,35,,,,,,,,,,,,,21.00049260000378,0.0004926000037812628,None,,53.33698749999894,53.33698749999894,53.33698749999894,53.33698749999894,53.33698749999894,53.33698749999894,53.33698749999894,53.33698749999894,53.33698749999894,53.33698749999894,002,P001,2025_Jan_17_1821,ConditionRich,2021.2.3,59.9394611429402,
21.75,22.0,41,0.0,Stimuli/Blank.png,0,0,0.0,0,36,36,36,,,,,,,,,,,,,21.75072039999941,0.0007203999994089827,5,0.2184253000013996,54.087653700000374,54.087653700000374,54.087653700000374,54.087653700000374,54.087653700000374,54.087653700000374,54.087653700000374,54.087653700000374,54.087653700000374,54.087653700000374,002,P001,2025_Jan_17_1821,ConditionRich,2021.2.3,59.9394611429402,
22.0,22.75,39,0.75,Stimuli/P001/things_woman_01b.jpg,0,0,0.0,0,37,37,37,,,,,,,,,,,,,22.001393099999405,0.0013930999994045123,None,,54.33787519999896,54.33787519999896,54.33787519999896,54.33787519999896,54.33787519999896,54.33787519999896,54.33787519999896,54.33787519999896,54.33787519999896,54.33787519999896,002,P001,2025_Jan_17_1821,ConditionRich,2021.2.3,59.9394611429402,
22.75,23.0,41,0.0,Stimuli/Blank.png,0,0,0.0,0,38,38,38,,,,,,,,,,,,,22.75203809999948,0.0020380999994813465,None,,55.088532900001155,55.088532900001155,55.088532900001155,55.088532900001155,55.088532900001155,55.088532900001155,55.088532900001155,55.088532900001155,55.088532900001155,55.088532900001155,002,P001,2025_Jan_17_1821,ConditionRich,2021.2.3,59.9394611429402,
23.0,23.75,39,0.75,Stimuli/P001/things_woman_01b.jpg,0,0,0.0,0,39,39,39,,,,,,,,,,,,,23.002383999999438,0.002383999999437947,None,,55.338755600001605,55.338755600001605,55.338755600001605,55.338755600001605,55.338755600001605,55.338755600001605,55.338755600001605,55.338755600001605,55.338755600001605,55.338755600001605,002,P001,2025_Jan_17_1821,ConditionRich,2021.2.3,59.9394611429402,
23.75,24.0,41,0.0,Stimuli/Blank.png,0,0,0.0,0,40,40,40,,,,,,,,,,,,,23.752447600003507,0.0024476000035065226,5,0.21640859999752138,56.08948550000059,56.08948550000059,56.08948550000059,56.08948550000059,56.08948550000059,56.08948550000059,56.08948550000059,56.08948550000059,56.08948550000059,56.08948550000059,002,P001,2025_Jan_17_1821,ConditionRich,2021.2.3,59.9394611429402,
24.0,24.75,13,0.75,Stimuli/P001/sun_bfdmlbkyioxnkodb.jpg,0,0,0.0,0,41,41,41,,,,,,,,,,,,,24.00263210000412,0.00263210000412073,None,,56.3396442000012,56.3396442000012,56.3396442000012,56.3396442000012,56.3396442000012,56.3396442000012,56.3396442000012,56.3396442000012,56.3396442000012,56.3396442000012,002,P001,2025_Jan_17_1821,ConditionRich,2021.2.3,59.9394611429402,
24.75,25.0,41,0.0,Stimuli/Blank.png,0,0,0.0,0,42,42,42,,,,,,,,,,,,,24.755953300002147,0.005953300002147444,None,,57.10699620000378,57.10699620000378,57.10699620000378,57.10699620000378,57.10699620000378,57.10699620000378,57.10699620000378,57.10699620000378,57.10699620000378,57.10699620000378,002,P001,2025_Jan_17_1821,ConditionRich,2021.2.3,59.9394611429402,
25.0,25.75,13,0.75,Stimuli/P001/sun_bfdmlbkyioxnkodb.jpg,0,0,0.0,0,43,43,43,,,,,,,,,,,,,25.020672400001786,0.020672400001785718,None,,57.373907499997586,57.373907499997586,57.373907499997586,57.373907499997586,57.373907499997586,57.373907499997586,57.373907499997586,57.373907499997586,57.373907499997586,57.373907499997586,002,P001,2025_Jan_17_1821,ConditionRich,2021.2.3,59.9394611429402,
25.75,26.0,41,0.0,Stimuli/Blank.png,0,0,0.0,0,44,44,44,,,,,,,,,,,,,25.770947900004103,0.02094790000410285,5,0.19801359999837587,58.107871300002444,58.107871300002444,58.107871300002444,58.107871300002444,58.107871300002444,58.107871300002444,58.107871300002444,58.107871300002444,58.107871300002444,58.107871300002444,002,P001,2025_Jan_17_1821,ConditionRich,2021.2.3,59.9394611429402,
26.0,26.75,13,0.75,Stimuli/P001/sun_bfdmlbkyioxnkodb.jpg,0,0,0.0,0,45,45,45,,,,,,,,,,,,,26.00452740000037,0.004527400000370108,None,,58.341422199999215,58.341422199999215,58.341422199999215,58.341422199999215,58.341422199999215,58.341422199999215,58.341422199999215,58.341422199999215,58.341422199999215,58.341422199999215,002,P001,2025_Jan_17_1821,ConditionRich,2021.2.3,59.9394611429402,
26.75,27.0,41,0.0,Stimuli/Blank.png,0,0,0.0,0,46,46,46,,,,,,,,,,,,,26.755445599999803,0.005445599999802653,None,,59.09207510000124,59.09207510000124,59.09207510000124,59.09207510000124,59.09207510000124,59.09207510000124,59.09207510000124,59.09207510000124,59.09207510000124,59.09207510000124,002,P001,2025_Jan_17_1821,ConditionRich,2021.2.3,59.9394611429402,
27.0,27.75,13,0.75,Stimuli/P001/sun_bfdmlbkyioxnkodb.jpg,0,0,0.0,0,47,47,47,,,,,,,,,,,,,27.005517400000826,0.005517400000826456,None,,59.342303899997205,59.342303899997205,59.342303899997205,59.342303899997205,59.342303899997205,59.342303899997205,59.342303899997205,59.342303899997205,59.342303899997205,59.342303899997205,002,P001,2025_Jan_17_1821,ConditionRich,2021.2.3,59.9394611429402,
27.75,28.0,41,0.0,Stimuli/Blank.png,0,0,0.0,0,48,48,48,,,,,,,,,,,,,27.75607719999971,0.006077199999708682,5,0.21291230000497308,60.093095000003814,60.093095000003814,60.093095000003814,60.093095000003814,60.093095000003814,60.093095000003814,60.093095000003814,60.093095000003814,60.093095000003814,60.093095000003814,002,P001,2025_Jan_17_1821,ConditionRich,2021.2.3,59.9394611429402,
28.0,28.75,3,0.75,Stimuli/P001/sun_amarqtinchblqmah.jpg,0,0,0.0,0,49,49,49,,,,,,,,,,,,,28.006812700004957,0.006812700004957151,None,,60.35987320000277,60.35987320000277,60.35987320000277,60.35987320000277,60.35987320000277,60.35987320000277,60.35987320000277,60.35987320000277,60.35987320000277,60.35987320000277,002,P001,2025_Jan_17_1821,ConditionRich,2021.2.3,59.9394611429402,
28.75,29.0,41,0.0,Stimuli/Blank.png,0,0,0.0,0,50,50,50,,,,,,,,,,,,,28.773597899999004,0.023597899999003857,None,,61.11056909999752,61.11056909999752,61.11056909999752,61.11056909999752,61.11056909999752,61.11056909999752,61.11056909999752,61.11056909999752,61.11056909999752,61.11056909999752,002,P001,2025_Jan_17_1821,ConditionRich,2021.2.3,59.9394611429402,
29.0,29.75,3,0.75,Stimuli/P001/sun_amarqtinchblqmah.jpg,0,0,0.0,0,51,51,51,,,,,,,,,,,,,29.00970850000158,0.009708500001579523,None,,61.360757499998726,61.360757499998726,61.360757499998726,61.360757499998726,61.360757499998726,61.360757499998726,61.360757499998726,61.360757499998726,61.360757499998726,61.360757499998726,002,P001,2025_Jan_17_1821,ConditionRich,2021.2.3,59.9394611429402,
29.75,30.0,41,0.0,Stimuli/Blank.png,0,0,0.0,0,52,52,52,,,,,,,,,,,,,29.775777100003324,0.02577710000332445,5,0.19449599999643397,62.111410099998466,62.111410099998466,62.111410099998466,62.111410099998466,62.111410099998466,62.111410099998466,62.111410099998466,62.111410099998466,62.111410099998466,62.111410099998466,002,P001,2025_Jan_17_1821,ConditionRich,2021.2.3,59.9394611429402,
30.0,30.75,3,0.75,Stimuli/P001/sun_amarqtinchblqmah.jpg,0,0,0.0,0,53,53,53,,,,,,,,,,,,,30.009397800000443,0.009397800000442658,None,,62.36163289999968,62.36163289999968,62.36163289999968,62.36163289999968,62.36163289999968,62.36163289999968,62.36163289999968,62.36163289999968,62.36163289999968,62.36163289999968,002,P001,2025_Jan_17_1821,ConditionRich,2021.2.3,59.9394611429402,
30.75,31.0,41,0.0,Stimuli/Blank.png,0,0,0.0,0,54,54,54,,,,,,,,,,,,,30.77565460000187,0.025654600001871586,None,,63.1122880000039,63.1122880000039,63.1122880000039,63.1122880000039,63.1122880000039,63.1122880000039,63.1122880000039,63.1122880000039,63.1122880000039,63.1122880000039,002,P001,2025_Jan_17_1821,ConditionRich,2021.2.3,59.9394611429402,
31.0,31.75,3,0.75,Stimuli/P001/sun_amarqtinchblqmah.jpg,0,0,0.0,0,55,55,55,,,,,,,,,,,,,31.00974490000226,0.009744900002260692,None,,63.36251569999877,63.36251569999877,63.36251569999877,63.36251569999877,63.36251569999877,63.36251569999877,63.36251569999877,63.36251569999877,63.36251569999877,63.36251569999877,002,P001,2025_Jan_17_1821,ConditionRich,2021.2.3,59.9394611429402,
31.75,32.0,41,0.0,Stimuli/Blank.png,0,0,0.0,0,56,56,56,,,,,,,,,,,,,31.776498999999603,0.026498999999603257,5,0.19288439999945695,64.11317640000198,64.11317640000198,64.11317640000198,64.11317640000198,64.11317640000198,64.11317640000198,64.11317640000198,64.11317640000198,64.11317640000198,64.11317640000198,002,P001,2025_Jan_17_1821,ConditionRich,2021.2.3,59.9394611429402,
32.0,32.75,40,0.75,Stimuli/P001/things_worm_01b.jpg,0,0,0.0,0,57,57,57,,,,,,,,,,,,,32.009622800003854,0.009622800003853627,None,,64.34671679999883,64.34671679999883,64.34671679999883,64.34671679999883,64.34671679999883,64.34671679999883,64.34671679999883,64.34671679999883,64.34671679999883,64.34671679999883,002,P001,2025_Jan_17_1821,ConditionRich,2021.2.3,59.9394611429402,
32.75,33.0,41,0.0,Stimuli/Blank.png,0,0,0.0,0,58,58,58,,,,,,,,,,,,,32.761176899999555,0.011176899999554735,None,,65.09738600000128,65.09738600000128,65.09738600000128,65.09738600000128,65.09738600000128,65.09738600000128,65.09738600000128,65.09738600000128,65.09738600000128,65.09738600000128,002,P001,2025_Jan_17_1821,ConditionRich,2021.2.3,59.9394611429402,
33.0,33.75,40,0.75,Stimuli/P001/things_worm_01b.jpg,0,0,0.0,0,59,59,59,,,,,,,,,,,,,33.01126260000456,0.011262600004556589,None,,65.34760230000393,65.34760230000393,65.34760230000393,65.34760230000393,65.34760230000393,65.34760230000393,65.34760230000393,65.34760230000393,65.34760230000393,65.34760230000393,002,P001,2025_Jan_17_1821,ConditionRich,2021.2.3,59.9394611429402,
33.75,34.0,41,0.0,Stimuli/Blank.png,0,0,0.0,0,60,60,60,,,,,,,,,,,,,33.762001200004306,0.012001200004306156,5,0.20757550000416813,66.09824300000037,66.09824300000037,66.09824300000037,66.09824300000037,66.09824300000037,66.09824300000037,66.09824300000037,66.09824300000037,66.09824300000037,66.09824300000037,002,P001,2025_Jan_17_1821,ConditionRich,2021.2.3,59.9394611429402,
34.0,34.75,40,0.75,Stimuli/P001/things_worm_01b.jpg,1,0,0.75,0,61,61,61,,,,,,,,,,,,,34.012040100002196,0.012040100002195686,3,0.4796877000044333,66.36517489999824,66.36517489999824,66.36517489999824,66.36517489999824,66.36517489999824,66.36517489999824,66.36517489999824,67.08245660000102,66.36517489999824,66.36517489999824,002,P001,2025_Jan_17_1821,ConditionRich,2021.2.3,59.9394611429402,
34.75,35.0,41,0.0,Stimuli/Blank.png,0,0,0.0,0,62,62,62,,,,,,,,,,,,,34.77942130000156,0.029421300001558848,None,,67.11583370000153,67.11583370000153,67.11583370000153,67.11583370000153,67.11583370000153,67.11583370000153,67.11583370000153,67.11583370000153,67.11583370000153,67.11583370000153,002,P001,2025_Jan_17_1821,ConditionRich,2021.2.3,59.9394611429402,
35.0,35.75,40,0.75,Stimuli/P001/things_worm_01b.jpg,0,0,0.0,0,63,63,63,,,,,,,,,,,,,35.01453400000173,0.014534000001731329,None,,67.36605589999817,67.36605589999817,67.36605589999817,67.36605589999817,67.36605589999817,67.36605589999817,67.36605589999817,67.36605589999817,67.36605589999817,67.36605589999817,002,P001,2025_Jan_17_1821,ConditionRich,2021.2.3,59.9394611429402,
35.75,36.0,41,0.0,Stimuli/Blank.png,0,0,0.0,0,64,64,64,,,,,,,,,,,,,35.77969329999905,0.029693299999053124,5,0.18929260000004433,68.11671319999732,68.11671319999732,68.11671319999732,68.11671319999732,68.11671319999732,68.11671319999732,68.11671319999732,68.11671319999732,68.11671319999732,68.11671319999732,002,P001,2025_Jan_17_1821,ConditionRich,2021.2.3,59.9394611429402,
36.0,36.75,8,0.75,Stimuli/P001/sun_asqboyqakusycvwd.jpg,0,0,0.0,0,65,65,65,,,,,,,,,,,,,36.01355460000195,0.013554600001953077,None,,68.3502617999984,68.3502617999984,68.3502617999984,68.3502617999984,68.3502617999984,68.3502617999984,68.3502617999984,68.3502617999984,68.3502617999984,68.3502617999984,002,P001,2025_Jan_17_1821,ConditionRich,2021.2.3,59.9394611429402,
36.75,37.0,41,0.0,Stimuli/Blank.png,0,0,0.0,0,66,66,66,,,,,,,,,,,,,36.7646212000036,0.014621200003603008,None,,69.10093069999857,69.10093069999857,69.10093069999857,69.10093069999857,69.10093069999857,69.10093069999857,69.10093069999857,69.10093069999857,69.10093069999857,69.10093069999857,002,P001,2025_Jan_17_1821,ConditionRich,2021.2.3,59.9394611429402,
37.0,37.75,8,0.75,Stimuli/P001/sun_asqboyqakusycvwd.jpg,0,0,0.0,0,67,67,67,,,,,,,,,,,,,37.014781500001845,0.014781500001845416,None,,69.36784279999847,69.36784279999847,69.36784279999847,69.36784279999847,69.36784279999847,69.36784279999847,69.36784279999847,69.36784279999847,69.36784279999847,69.36784279999847,002,P001,2025_Jan_17_1821,ConditionRich,2021.2.3,59.9394611429402,
37.75,38.0,41,0.0,Stimuli/Blank.png,0,0,0.0,0,68,68,68,,,,,,,,,,,,,37.78139440000086,0.03139440000086324,5,0.18769190000602975,70.11848230000032,70.11848230000032,70.11848230000032,70.11848230000032,70.11848230000032,70.11848230000032,70.11848230000032,70.11848230000032,70.11848230000032,70.11848230000032,002,P001,2025_Jan_17_1821,ConditionRich,2021.2.3,59.9394611429402,
38.0,38.75,8,0.75,Stimuli/P001/sun_asqboyqakusycvwd.jpg,1,0,0.75,0,69,69,69,,,,,,,,,,,,,38.015511500001594,0.015511500001593959,3,0.3551396999973804,70.35202250000293,70.35202250000293,70.35202250000293,70.35202250000293,70.35202250000293,70.35202250000293,70.35202250000293,None,70.35202250000293,70.35202250000293,002,P001,2025_Jan_17_1821,ConditionRich,2021.2.3,59.9394611429402,
38.75,39.0,41,0.0,Stimuli/Blank.png,0,0,0.0,0,70,70,70,,,,,,,,,,,,,38.74986480000371,-0.00013519999629352242,None,,71.08600139999908,71.08600139999908,71.08600139999908,71.08600139999908,71.08600139999908,71.08600139999908,71.08600139999908,71.08600139999908,71.08600139999908,71.08600139999908,002,P001,2025_Jan_17_1821,ConditionRich,2021.2.3,59.9394611429402,
39.0,39.75,8,0.75,Stimuli/P001/sun_asqboyqakusycvwd.jpg,0,0,0.0,0,71,71,71,,,,,,,,,,,,,39.000269500000286,0.00026950000028591603,None,,71.3529103999972,71.3529103999972,71.3529103999972,71.3529103999972,71.3529103999972,71.3529103999972,71.3529103999972,71.3529103999972,71.3529103999972,71.3529103999972,002,P001,2025_Jan_17_1821,ConditionRich,2021.2.3,59.9394611429402,
39.75,40.0,41,0.0,Stimuli/Blank.png,0,0,0.0,0,72,72,72,,,,,,,,,,,,,39.76678570000513,0.01678570000512991,None,,72.10357530000329,72.10357530000329,72.10357530000329,72.10357530000329,72.10357530000329,72.10357530000329,72.10357530000329,72.10357530000329,72.10357530000329,72.10357530000329,002,P001,2025_Jan_17_1821,ConditionRich,2021.2.3,59.9394611429402,
40.0,40.75,12,0.75,Stimuli/P001/sun_bdxvmnlyovhqognn.jpg,0,0,0.0,0,73,73,73,,,,,,,,,,,,,40.00080270000035,0.0008027000003494322,None,,72.33711210000183,72.33711210000183,72.33711210000183,72.33711210000183,72.33711210000183,72.33711210000183,72.33711210000183,72.33711210000183,72.33711210000183,72.33711210000183,002,P001,2025_Jan_17_1821,ConditionRich,2021.2.3,59.9394611429402,
40.75,41.0,41,0.0,Stimuli/Blank.png,0,0,0.0,0,74,74,74,,,,,,,,,,,,,40.75153439999849,0.0015343999984906986,None,,73.08777569999802,73.08777569999802,73.08777569999802,73.08777569999802,73.08777569999802,73.08777569999802,73.08777569999802,73.08777569999802,73.08777569999802,73.08777569999802,002,P001,2025_Jan_17_1821,ConditionRich,2021.2.3,59.9394611429402,
41.0,41.75,12,0.75,Stimuli/P001/sun_bdxvmnlyovhqognn.jpg,0,0,0.0,0,75,75,75,,,,,,,,,,,,,41.001110600001994,0.001110600001993589,None,,73.33799490000092,73.33799490000092,73.33799490000092,73.33799490000092,73.33799490000092,73.33799490000092,73.33799490000092,73.33799490000092,73.33799490000092,73.33799490000092,002,P001,2025_Jan_17_1821,ConditionRich,2021.2.3,59.9394611429402,
41.75,42.0,41,0.0,Stimuli/Blank.png,0,0,0.0,0,76,76,76,,,,,,,,,,,,,41.752131799999916,0.002131799999915529,5,0.21719650000159163,74.08871979999822,74.08871979999822,74.08871979999822,74.08871979999822,74.08871979999822,74.08871979999822,74.08871979999822,74.08871979999822,74.08871979999822,74.08871979999822,002,P001,2025_Jan_17_1821,ConditionRich,2021.2.3,59.9394611429402,
42.0,42.75,12,0.75,Stimuli/P001/sun_bdxvmnlyovhqognn.jpg,0,0,0.0,0,77,77,77,,,,,,,,,,,,,42.001575400005095,0.001575400005094707,None,,74.33887959999993,74.33887959999993,74.33887959999993,74.33887959999993,74.33887959999993,74.33887959999993,74.33887959999993,74.33887959999993,74.33887959999993,74.33887959999993,002,P001,2025_Jan_17_1821,ConditionRich,2021.2.3,59.9394611429402,
42.75,43.0,41,0.0,Stimuli/Blank.png,0,0,0.0,0,78,78,78,,,,,,,,,,,,,42.75255019999895,0.00255019999895012,None,,75.08956739999849,75.08956739999849,75.08956739999849,75.08956739999849,75.08956739999849,75.08956739999849,75.08956739999849,75.08956739999849,75.08956739999849,75.08956739999849,002,P001,2025_Jan_17_1821,ConditionRich,2021.2.3,59.9394611429402,
43.0,43.75,12,0.75,Stimuli/P001/sun_bdxvmnlyovhqognn.jpg,0,0,0.0,0,79,79,79,,,,,,,,,,,,,43.005109300000186,0.005109300000185613,None,,75.35645050000312,75.35645050000312,75.35645050000312,75.35645050000312,75.35645050000312,75.35645050000312,75.35645050000312,75.35645050000312,75.35645050000312,75.35645050000312,002,P001,2025_Jan_17_1821,ConditionRich,2021.2.3,59.9394611429402,
43.75,44.0,41,0.0,Stimuli/Blank.png,0,0,0.0,0,80,80,80,,,,,,,,,,,,,43.77164279999852,0.021642799998517148,5,0.18207290000282228,76.12381800000003,76.12381800000003,76.12381800000003,76.12381800000003,76.12381800000003,76.12381800000003,76.12381800000003,76.12381800000003,76.12381800000003,76.12381800000003,002,P001,2025_Jan_17_1821,ConditionRich,2021.2.3,59.9394611429402,
44.0,44.75,27,0.75,Stimuli/P001/things_dynamite_01b.jpg,0,0,0.0,0,81,81,81,,,,,,,,,,,,,44.021006300004956,0.021006300004955847,None,,76.35734129999764,76.35734129999764,76.35734129999764,76.35734129999764,76.35734129999764,76.35734129999764,76.35734129999764,76.35734129999764,76.35734129999764,76.35734129999764,002,P001,2025_Jan_17_1821,ConditionRich,2021.2.3,59.9394611429402,
44.75,45.0,41,0.0,Stimuli/Blank.png,0,0,0.0,0,82,82,82,,,,,,,,,,,,,44.75481800000125,0.004818000001250766,None,,77.09132310000132,77.09132310000132,77.09132310000132,77.09132310000132,77.09132310000132,77.09132310000132,77.09132310000132,77.09132310000132,77.09132310000132,77.09132310000132,002,P001,2025_Jan_17_1821,ConditionRich,2021.2.3,59.9394611429402,
45.0,45.75,27,0.75,Stimuli/P001/things_dynamite_01b.jpg,0,0,0.0,0,83,83,83,,,,,,,,,,,,,45.00534560000233,0.005345600002328865,None,,77.35819050000282,77.35819050000282,77.35819050000282,77.35819050000282,77.35819050000282,77.35819050000282,77.35819050000282,77.35819050000282,77.35819050000282,77.35819050000282,002,P001,2025_Jan_17_1821,ConditionRich,2021.2.3,59.9394611429402,
45.75,46.0,41,0.0,Stimuli/Blank.png,0,0,0.0,0,84,84,84,,,,,,,,,,,,,45.775298600005044,0.025298600005044136,5,0.17980639999586856,78.12604350000038,78.12604350000038,78.12604350000038,78.12604350000038,78.12604350000038,78.12604350000038,78.12604350000038,78.12604350000038,78.12604350000038,78.12604350000038,002,P001,2025_Jan_17_1821,ConditionRich,2021.2.3,59.9394611429402,
46.0,46.75,27,0.75,Stimuli/P001/things_dynamite_01b.jpg,0,0,0.0,0,85,85,85,,,,,,,,,,,,,46.02205870000034,0.02205870000034338,None,,78.37581859999773,78.37581859999773,78.37581859999773,78.37581859999773,78.37581859999773,78.37581859999773,78.37581859999773,78.37581859999773,78.37581859999773,78.37581859999773,002,P001,2025_Jan_17_1821,ConditionRich,2021.2.3,59.9394611429402,
46.75,47.0,41,0.0,Stimuli/Blank.png,0,0,0.0,0,86,86,86,,,,,,,,,,,,,46.77515400000266,0.025154000002657995,None,,79.1264611000006,79.1264611000006,79.1264611000006,79.1264611000006,79.1264611000006,79.1264611000006,79.1264611000006,79.1264611000006,79.1264611000006,79.1264611000006,002,P001,2025_Jan_17_1821,ConditionRich,2021.2.3,59.9394611429402,
47.0,47.75,27,0.75,Stimuli/P001/things_dynamite_01b.jpg,0,0,0.0,0,87,87,87,,,,,,,,,,,,,47.02524650000123,0.025246500001230743,None,,79.37666570000147,79.37666570000147,79.37666570000147,79.37666570000147,79.37666570000147,79.37666570000147,79.37666570000147,79.37666570000147,79.37666570000147,79.37666570000147,002,P001,2025_Jan_17_1821,ConditionRich,2021.2.3,59.9394611429402,
47.75,48.0,41,0.0,Stimuli/Blank.png,0,0,0.0,0,88,88,88,,,,,,,,,,,,,47.77540850000514,0.025408500005141832,5,0.17855219999910332,80.12734720000299,80.12734720000299,80.12734720000299,80.12734720000299,80.12734720000299,80.12734720000299,80.12734720000299,80.12734720000299,80.12734720000299,80.12734720000299,002,P001,2025_Jan_17_1821,ConditionRich,2021.2.3,59.9394611429402,
48.0,48.75,4,0.75,Stimuli/P001/sun_aonjwqswdblhlpkm.jpg,0,0,0.0,0,89,89,89,,,,,,,,,,,,,48.02456540000276,0.024565400002757087,None,,80.36086960000102,80.36086960000102,80.36086960000102,80.36086960000102,80.36086960000102,80.36086960000102,80.36086960000102,80.36086960000102,80.36086960000102,80.36086960000102,002,P001,2025_Jan_17_1821,ConditionRich,2021.2.3,59.9394611429402,
48.75,49.0,41,0.0,Stimuli/Blank.png,0,0,0.0,0,90,90,90,,,,,,,,,,,,,48.7607457999984,0.010745799998403527,None,,81.11154360000364,81.11154360000364,81.11154360000364,81.11154360000364,81.11154360000364,81.11154360000364,81.11154360000364,81.11154360000364,81.11154360000364,81.11154360000364,002,P001,2025_Jan_17_1821,ConditionRich,2021.2.3,59.9394611429402,
49.0,49.75,4,0.75,Stimuli/P001/sun_aonjwqswdblhlpkm.jpg,0,0,0.0,0,91,91,91,,,,,,,,,,,,,49.02597429999878,0.025974299998779316,None,,81.36175150000054,81.36175150000054,81.36175150000054,81.36175150000054,81.36175150000054,81.36175150000054,81.36175150000054,81.36175150000054,81.36175150000054,81.36175150000054,002,P001,2025_Jan_17_1821,ConditionRich,2021.2.3,59.9394611429402,
49.75,50.0,41,0.0,Stimuli/Blank.png,0,0,0.0,0,92,92,92,,,,,,,,,,,,,49.75954930000444,0.0095493000044371,5,0.21032610000111163,82.0957380999971,82.0957380999971,82.0957380999971,82.0957380999971,82.0957380999971,82.0957380999971,82.0957380999971,82.0957380999971,82.0957380999971,82.0957380999971,002,P001,2025_Jan_17_1821,ConditionRich,2021.2.3,59.9394611429402,
50.0,50.75,4,0.75,Stimuli/P001/sun_aonjwqswdblhlpkm.jpg,0,0,0.0,0,93,93,93,,,,,,,,,,,,,50.00964660000318,0.009646600003179628,None,,82.34595270000136,82.34595270000136,82.34595270000136,82.34595270000136,82.34595270000136,82.34595270000136,82.34595270000136,82.34595270000136,82.34595270000136,82.34595270000136,002,P001,2025_Jan_17_1821,ConditionRich,2021.2.3,59.9394611429402,
50.75,51.0,41,0.0,Stimuli/Blank.png,0,0,0.0,0,94,94,94,,,,,,,,,,,,,50.76033660000394,0.010336600003938656,None,,83.09661860000051,83.09661860000051,83.09661860000051,83.09661860000051,83.09661860000051,83.09661860000051,83.09661860000051,83.09661860000051,83.09661860000051,83.09661860000051,002,P001,2025_Jan_17_1821,ConditionRich,2021.2.3,59.9394611429402,
51.0,51.75,4,0.75,Stimuli/P001/sun_aonjwqswdblhlpkm.jpg,0,0,0.0,0,95,95,95,,,,,,,,,,,,,51.011037200005376,0.01103720000537578,None,,83.36352040000202,83.36352040000202,83.36352040000202,83.36352040000202,83.36352040000202,83.36352040000202,83.36352040000202,83.36352040000202,83.36352040000202,83.36352040000202,002,P001,2025_Jan_17_1821,ConditionRich,2021.2.3,59.9394611429402,
51.75,52.0,41,0.0,Stimuli/Blank.png,0,0,0.0,0,96,96,96,,,,,,,,,,,,,51.77714779999951,0.027147799999511335,5,0.19271179999486776,84.11418669999694,84.11418669999694,84.11418669999694,84.11418669999694,84.11418669999694,84.11418669999694,84.11418669999694,84.11418669999694,84.11418669999694,84.11418669999694,002,P001,2025_Jan_17_1821,ConditionRich,2021.2.3,59.9394611429402,
52.0,52.75,21,0.75,Stimuli/P001/things_baby_01b.jpg,0,0,0.0,0,97,97,97,,,,,,,,,,,,,52.01138540000102,0.011385400001017842,None,,84.34773380000115,84.34773380000115,84.34773380000115,84.34773380000115,84.34773380000115,84.34773380000115,84.34773380000115,84.34773380000115,84.34773380000115,84.34773380000115,002,P001,2025_Jan_17_1821,ConditionRich,2021.2.3,59.9394611429402,
52.75,53.0,41,0.0,Stimuli/Blank.png,0,0,0.0,0,98,98,98,,,,,,,,,,,,,52.762090900003386,0.012090900003386196,None,,85.09836290000385,85.09836290000385,85.09836290000385,85.09836290000385,85.09836290000385,85.09836290000385,85.09836290000385,85.09836290000385,85.09836290000385,85.09836290000385,002,P001,2025_Jan_17_1821,ConditionRich,2021.2.3,59.9394611429402,
53.0,53.75,21,0.75,Stimuli/P001/things_baby_01b.jpg,0,0,0.0,0,99,99,99,,,,,,,,,,,,,53.01176090000081,0.01176090000080876,None,,85.36529429999791,85.36529429999791,85.36529429999791,85.36529429999791,85.36529429999791,85.36529429999791,85.36529429999791,85.36529429999791,85.36529429999791,85.36529429999791,002,P001,2025_Jan_17_1821,ConditionRich,2021.2.3,59.9394611429402,
53.75,54.0,41,0.0,Stimuli/Blank.png,0,0,0.0,0,100,100,100,,,,,,,,,,,,,53.77936160000536,0.029361600005358923,5,0.189979000002495,86.11595169999782,86.11595169999782,86.11595169999782,86.11595169999782,86.11595169999782,86.11595169999782,86.11595169999782,86.11595169999782,86.11595169999782,86.11595169999782,002,P001,2025_Jan_17_1821,ConditionRich,2021.2.3,59.9394611429402,
54.0,54.75,21,0.75,Stimuli/P001/things_baby_01b.jpg,0,0,0.0,0,101,101,101,,,,,,,,,,,,,54.012898799999675,0.012898799999675248,None,,86.34949619999679,86.34949619999679,86.34949619999679,86.34949619999679,86.34949619999679,86.34949619999679,86.34949619999679,86.34949619999679,86.34949619999679,86.34949619999679,002,P001,2025_Jan_17_1821,ConditionRich,2021.2.3,59.9394611429402,
54.75,55.0,41,0.0,Stimuli/Blank.png,0,0,0.0,0,102,102,102,,,,,,,,,,,,,54.76591890000418,0.015918900004180614,None,,87.1168519999992,87.1168519999992,87.1168519999992,87.1168519999992,87.1168519999992,87.1168519999992,87.1168519999992,87.1168519999992,87.1168519999992,87.1168519999992,002,P001,2025_Jan_17_1821,ConditionRich,2021.2.3,59.9394611429402,
55.0,55.75,21,0.75,Stimuli/P001/things_baby_01b.jpg,0,0,0.0,0,103,103,103,,,,,,,,,,,,,55.01348080000025,0.013480800000252202,None,,87.35037870000087,87.35037870000087,87.35037870000087,87.35037870000087,87.35037870000087,87.35037870000087,87.35037870000087,87.35037870000087,87.35037870000087,87.35037870000087,002,P001,2025_Jan_17_1821,ConditionRich,2021.2.3,59.9394611429402,
55.75,56.0,41,0.0,Stimuli/Blank.png,0,0,0.0,0,104,104,104,,,,,,,,,,,,,55.76594209999894,0.01594209999893792,5,0.18814139999449253,88.11774519999744,88.11774519999744,88.11774519999744,88.11774519999744,88.11774519999744,88.11774519999744,88.11774519999744,88.11774519999744,88.11774519999744,88.11774519999744,002,P001,2025_Jan_17_1821,ConditionRich,2021.2.3,59.9394611429402,
56.0,56.75,19,0.75,Stimuli/P001/sun_bzyyqqczvrnvukdn.jpg,0,0,0.0,0,105,105,105,,,,,,,,,,,,,56.01501149999967,0.015011499999673106,None,,88.35126100000343,88.35126100000343,88.35126100000343,88.35126100000343,88.35126100000343,88.35126100000343,88.35126100000343,88.35126100000343,88.35126100000343,88.35126100000343,002,P001,2025_Jan_17_1821,ConditionRich,2021.2.3,59.9394611429402,
56.75,57.0,41,0.0,Stimuli/Blank.png,0,0,0.0,0,106,106,106,,,,,,,,,,,,,56.76631759999873,0.016317599998728838,None,,89.11862649999966,89.11862649999966,89.11862649999966,89.11862649999966,89.11862649999966,89.11862649999966,89.11862649999966,89.11862649999966,89.11862649999966,89.11862649999966,002,P001,2025_Jan_17_1821,ConditionRich,2021.2.3,59.9394611429402,
57.0,57.75,19,0.75,Stimuli/P001/sun_bzyyqqczvrnvukdn.jpg,0,0,0.0,0,107,107,107,,,,,,,,,,,,,57.01658429999952,0.016584299999522045,None,,89.3688261999996,89.3688261999996,89.3688261999996,89.3688261999996,89.3688261999996,89.3688261999996,89.3688261999996,89.3688261999996,89.3688261999996,89.3688261999996,002,P001,2025_Jan_17_1821,ConditionRich,2021.2.3,59.9394611429402,
57.75,58.0,41,0.0,Stimuli/Blank.png,0,0,0.0,0,108,108,108,,,,,,,,,,,,,57.766514399998414,0.016514399998413865,None,,90.10281670000404,90.10281670000404,90.10281670000404,90.10281670000404,90.10281670000404,90.10281670000404,90.10281670000404,90.10281670000404,90.10281670000404,90.10281670000404,002,P001,2025_Jan_17_1821,ConditionRich,2021.2.3,59.9394611429402,
58.0,58.75,19,0.75,Stimuli/P001/sun_bzyyqqczvrnvukdn.jpg,0,0,0.0,0,109,109,109,,,,,,,,,,,,,58.00049610000133,0.0004961000013281591,None,,90.35303420000128,90.35303420000128,90.35303420000128,90.35303420000128,90.35303420000128,90.35303420000128,90.35303420000128,90.35303420000128,90.35303420000128,90.35303420000128,002,P001,2025_Jan_17_1821,ConditionRich,2021.2.3,59.9394611429402,
58.75,59.0,41,0.0,Stimuli/Blank.png,0,0,0.0,0,110,110,110,,,,,,,,,,,,,58.7676907999994,0.017690799999400042,None,,91.10371219999797,91.10371219999797,91.10371219999797,91.10371219999797,91.10371219999797,91.10371219999797,91.10371219999797,91.10371219999797,91.10371219999797,91.10371219999797,002,P001,2025_Jan_17_1821,ConditionRich,2021.2.3,59.9394611429402,
59.0,59.75,19,0.75,Stimuli/P001/sun_bzyyqqczvrnvukdn.jpg,0,0,0.0,0,111,111,111,,,,,,,,,,,,,59.00066670000524,0.0006667000052402727,None,,91.33723479999753,91.33723479999753,91.33723479999753,91.33723479999753,91.33723479999753,91.33723479999753,91.33723479999753,91.33723479999753,91.33723479999753,91.33723479999753,002,P001,2025_Jan_17_1821,ConditionRich,2021.2.3,59.9394611429402,
59.75,60.0,41,0.0,Stimuli/Blank.png,0,0,0.0,0,112,112,112,,,,,,,,,,,,,59.75140590000228,0.0014059000022825785,None,,92.08790379999846,92.08790379999846,92.08790379999846,92.08790379999846,92.08790379999846,92.08790379999846,92.08790379999846,92.08790379999846,92.08790379999846,92.08790379999846,002,P001,2025_Jan_17_1821,ConditionRich,2021.2.3,59.9394611429402,
60.0,60.75,14,0.75,Stimuli/P001/sun_bfgxassmmvhtarcc.jpg,0,0,0.0,0,113,113,113,,,,,,,,,,,,,60.00179100000241,0.0017910000024130568,None,,92.35482249999768,92.35482249999768,92.35482249999768,92.35482249999768,92.35482249999768,92.35482249999768,92.35482249999768,92.35482249999768,92.35482249999768,92.35482249999768,002,P001,2025_Jan_17_1821,ConditionRich,2021.2.3,59.9394611429402,
60.75,61.0,41,0.0,Stimuli/Blank.png,0,0,0.0,0,114,114,114,,,,,,,,,,,,,60.77077740000095,0.020777400000952184,None,,93.12214929999755,93.12214929999755,93.12214929999755,93.12214929999755,93.12214929999755,93.12214929999755,93.12214929999755,93.12214929999755,93.12214929999755,93.12214929999755,002,P001,2025_Jan_17_1821,ConditionRich,2021.2.3,59.9394611429402,
61.0,61.75,14,0.75,Stimuli/P001/sun_bfgxassmmvhtarcc.jpg,0,0,0.0,0,115,115,115,,,,,,,,,,,,,61.019208500001696,0.01920850000169594,None,,93.3556854999988,93.3556854999988,93.3556854999988,93.3556854999988,93.3556854999988,93.3556854999988,93.3556854999988,93.3556854999988,93.3556854999988,93.3556854999988,002,P001,2025_Jan_17_1821,ConditionRich,2021.2.3,59.9394611429402,
61.75,62.0,41,0.0,Stimuli/Blank.png,0,0,0.0,0,116,116,116,,,,,,,,,,,,,61.7547521000015,0.0047521000014967285,5,0.20045130000653444,94.10636559999693,94.10636559999693,94.10636559999693,94.10636559999693,94.10636559999693,94.10636559999693,94.10636559999693,94.10636559999693,94.10636559999693,94.10636559999693,002,P001,2025_Jan_17_1821,ConditionRich,2021.2.3,59.9394611429402,
62.0,62.75,14,0.75,Stimuli/P001/sun_bfgxassmmvhtarcc.jpg,0,0,0.0,0,117,117,117,,,,,,,,,,,,,62.019969600005425,0.01996960000542458,None,,94.35657750000246,94.35657750000246,94.35657750000246,94.35657750000246,94.35657750000246,94.35657750000246,94.35657750000246,94.35657750000246,94.35657750000246,94.35657750000246,002,P001,2025_Jan_17_1821,ConditionRich,2021.2.3,59.9394611429402,
62.75,63.0,41,0.0,Stimuli/Blank.png,0,0,0.0,0,118,118,118,,,,,,,,,,,,,62.75526489999902,0.00526489999901969,None,,95.09057100000064,95.09057100000064,95.09057100000064,95.09057100000064,95.09057100000064,95.09057100000064,95.09057100000064,95.09057100000064,95.09057100000064,95.09057100000064,002,P001,2025_Jan_17_1821,ConditionRich,2021.2.3,59.9394611429402,
63.0,63.75,14,0.75,Stimuli/P001/sun_bfgxassmmvhtarcc.jpg,0,0,0.0,0,119,119,119,,,,,,,,,,,,,63.004773900000146,0.004773900000145659,None,,95.35746189999918,95.35746189999918,95.35746189999918,95.35746189999918,95.35746189999918,95.35746189999918,95.35746189999918,95.35746189999918,95.35746189999918,95.35746189999918,002,P001,2025_Jan_17_1821,ConditionRich,2021.2.3,59.9394611429402,
63.75,64.0,41,0.0,Stimuli/Blank.png,0,0,0.0,0,120,120,120,,,,,,,,,,,,,63.77162240000325,0.02162240000325255,5,0.19906449999689357,96.10810969999875,96.10810969999875,96.10810969999875,96.10810969999875,96.10810969999875,96.10810969999875,96.10810969999875,96.10810969999875,96.10810969999875,96.10810969999875,002,P001,2025_Jan_17_1821,ConditionRich,2021.2.3,59.9394611429402,
64.0,64.75,20,0.75,Stimuli/P001/sun_dkgctqgpvxbaoyks.jpg,0,0,0.0,0,121,121,121,,,,,,,,,,,,,64.0054788999987,0.0054788999987067655,None,,96.35845130000234,96.35845130000234,96.35845130000234,96.35845130000234,96.35845130000234,96.35845130000234,96.35845130000234,96.35845130000234,96.35845130000234,96.35845130000234,002,P001,2025_Jan_17_1821,ConditionRich,2021.2.3,59.9394611429402,
64.75,65.0,41,0.0,Stimuli/Blank.png,0,0,0.0,0,122,122,122,,,,,,,,,,,,,64.77311239999835,0.023112399998353794,None,,97.10901359999843,97.10901359999843,97.10901359999843,97.10901359999843,97.10901359999843,97.10901359999843,97.10901359999843,97.10901359999843,97.10901359999843,97.10901359999843,002,P001,2025_Jan_17_1821,ConditionRich,2021.2.3,59.9394611429402,
65.0,65.75,20,0.75,Stimuli/P001/sun_dkgctqgpvxbaoyks.jpg,0,0,0.0,0,123,123,123,,,,,,,,,,,,,65.00619070000539,0.006190700005390681,None,,97.3425367000018,97.3425367000018,97.3425367000018,97.3425367000018,97.3425367000018,97.3425367000018,97.3425367000018,97.3425367000018,97.3425367000018,97.3425367000018,002,P001,2025_Jan_17_1821,ConditionRich,2021.2.3,59.9394611429402,
65.75,66.0,41,0.0,Stimuli/Blank.png,0,0,0.0,0,124,124,124,,,,,,,,,,,,,65.75647580000077,0.0064758000007714145,5,0.21380839999619639,98.09319890000188,98.09319890000188,98.09319890000188,98.09319890000188,98.09319890000188,98.09319890000188,98.09319890000188,98.09319890000188,98.09319890000188,98.09319890000188,002,P001,2025_Jan_17_1821,ConditionRich,2021.2.3,59.9394611429402,
66.0,66.75,20,0.75,Stimuli/P001/sun_dkgctqgpvxbaoyks.jpg,0,0,0.0,0,125,125,125,,,,,,,,,,,,,66.00679610000225,0.00679610000224784,None,,98.34343090000039,98.34343090000039,98.34343090000039,98.34343090000039,98.34343090000039,98.34343090000039,98.34343090000039,98.34343090000039,98.34343090000039,98.34343090000039,002,P001,2025_Jan_17_1821,ConditionRich,2021.2.3,59.9394611429402,
66.75,67.0,41,0.0,Stimuli/Blank.png,0,0,0.0,0,126,126,126,,,,,,,,,,,,,66.7569999000043,0.006999900004302617,None,,99.09408129999792,99.09408129999792,99.09408129999792,99.09408129999792,99.09408129999792,99.09408129999792,99.09408129999792,99.09408129999792,99.09408129999792,99.09408129999792,002,P001,2025_Jan_17_1821,ConditionRich,2021.2.3,59.9394611429402,
67.0,67.75,20,0.75,Stimuli/P001/sun_dkgctqgpvxbaoyks.jpg,0,0,0.0,0,127,127,127,,,,,,,,,,,,,67.00784140000178,0.00784140000178013,None,,99.36099159999867,99.36099159999867,99.36099159999867,99.36099159999867,99.36099159999867,99.36099159999867,99.36099159999867,99.36099159999867,99.36099159999867,99.36099159999867,002,P001,2025_Jan_17_1821,ConditionRich,2021.2.3,59.9394611429402,
67.75,68.0,41,0.0,Stimuli/Blank.png,0,0,0.0,0,128,128,128,,,,,,,,,,,,,67.77456180000445,0.02456180000444874,5,0.19527250000101048,100.11164819999976,100.11164819999976,100.11164819999976,100.11164819999976,100.11164819999976,100.11164819999976,100.11164819999976,100.11164819999976,100.11164819999976,100.11164819999976,002,P001,2025_Jan_17_1821,ConditionRich,2021.2.3,59.9394611429402,
68.0,68.75,17,0.75,Stimuli/P001/sun_bshgmgbmpvjkxfis.jpg,1,0,0.75,0,129,129,129,,,,,,,,,,,,,68.00936380000348,0.009363800003484357,3,0.4320332999996026,100.36187690000224,100.36187690000224,100.36187690000224,100.36187690000224,100.36187690000224,100.36187690000224,100.36187690000224,101.0792156000025,100.36187690000224,100.36187690000224,002,P001,2025_Jan_17_1821,ConditionRich,2021.2.3,59.9394611429402,
68.75,69.0,41,0.0,Stimuli/Blank.png,0,0,0.0,0,130,130,130,,,,,,,,,,,,,68.77612290000252,0.0261229000025196,None,,101.112572799997,101.112572799997,101.112572799997,101.112572799997,101.112572799997,101.112572799997,101.112572799997,101.112572799997,101.112572799997,101.112572799997,002,P001,2025_Jan_17_1821,ConditionRich,2021.2.3,59.9394611429402,
69.0,69.75,17,0.75,Stimuli/P001/sun_bshgmgbmpvjkxfis.jpg,0,0,0.0,0,131,131,131,,,,,,,,,,,,,69.00987470000109,0.009874700001091696,None,,101.3627794999993,101.3627794999993,101.3627794999993,101.3627794999993,101.3627794999993,101.3627794999993,101.3627794999993,101.3627794999993,101.3627794999993,101.3627794999993,002,P001,2025_Jan_17_1821,ConditionRich,2021.2.3,59.9394611429402,
69.75,70.0,41,0.0,Stimuli/Blank.png,0,0,0.0,0,132,132,132,,,,,,,,,,,,,69.77716240000154,0.027162400001543574,5,0.19361879999632947,102.11349340000015,102.11349340000015,102.11349340000015,102.11349340000015,102.11349340000015,102.11349340000015,102.11349340000015,102.11349340000015,102.11349340000015,102.11349340000015,002,P001,2025_Jan_17_1821,ConditionRich,2021.2.3,59.9394611429402,
70.0,70.75,17,0.75,Stimuli/P001/sun_bshgmgbmpvjkxfis.jpg,0,0,0.0,0,133,133,133,,,,,,,,,,,,,70.0101696999991,0.010169699999096338,None,,102.34696049999911,102.34696049999911,102.34696049999911,102.34696049999911,102.34696049999911,102.34696049999911,102.34696049999911,102.34696049999911,102.34696049999911,102.34696049999911,002,P001,2025_Jan_17_1821,ConditionRich,2021.2.3,59.9394611429402,
70.75,71.0,41,0.0,Stimuli/Blank.png,0,0,0.0,0,134,134,134,,,,,,,,,,,,,70.7610330000025,0.011033000002498738,None,,103.09762770000088,103.09762770000088,103.09762770000088,103.09762770000088,103.09762770000088,103.09762770000088,103.09762770000088,103.09762770000088,103.09762770000088,103.09762770000088,002,P001,2025_Jan_17_1821,ConditionRich,2021.2.3,59.9394611429402,
71.0,71.75,17,0.75,Stimuli/P001/sun_bshgmgbmpvjkxfis.jpg,0,0,0.0,0,135,135,135,,,,,,,,,,,,,71.01115600000048,0.01115600000048289,None,,103.34785389999888,103.34785389999888,103.34785389999888,103.34785389999888,103.34785389999888,103.34785389999888,103.34785389999888,103.34785389999888,103.34785389999888,103.34785389999888,002,P001,2025_Jan_17_1821,ConditionRich,2021.2.3,59.9394611429402,
71.75,72.0,41,0.0,Stimuli/Blank.png,0,0,0.0,0,136,136,136,,,,,,,,,,,,,71.76149150000128,0.011491500001284294,5,0.20842760000232374,104.09850970000116,104.09850970000116,104.09850970000116,104.09850970000116,104.09850970000116,104.09850970000116,104.09850970000116,104.09850970000116,104.09850970000116,104.09850970000116,002,P001,2025_Jan_17_1821,ConditionRich,2021.2.3,59.9394611429402,
72.0,72.75,33,0.75,Stimuli/P001/things_pan_01b.jpg,0,0,0.0,0,137,137,137,,,,,,,,,,,,,72.01213600000483,0.012136000004829839,None,,104.3654349999997,104.3654349999997,104.3654349999997,104.3654349999997,104.3654349999997,104.3654349999997,104.3654349999997,104.3654349999997,104.3654349999997,104.3654349999997,002,P001,2025_Jan_17_1821,ConditionRich,2021.2.3,59.9394611429402,
72.75,73.0,41,0.0,Stimuli/Blank.png,0,0,0.0,0,138,138,138,,,,,,,,,,,,,72.77978300000541,0.02978300000540912,None,,105.11609290000342,105.11609290000342,105.11609290000342,105.11609290000342,105.11609290000342,105.11609290000342,105.11609290000342,105.11609290000342,105.11609290000342,105.11609290000342,002,P001,2025_Jan_17_1821,ConditionRich,2021.2.3,59.9394611429402,
73.0,73.75,33,0.75,Stimuli/P001/things_pan_01b.jpg,0,0,0.0,0,139,139,139,,,,,,,,,,,,,73.0152339999986,0.015233999998599757,None,,105.36630439999863,105.36630439999863,105.36630439999863,105.36630439999863,105.36630439999863,105.36630439999863,105.36630439999863,105.36630439999863,105.36630439999863,105.36630439999863,002,P001,2025_Jan_17_1821,ConditionRich,2021.2.3,59.9394611429402,
73.75,74.0,41,0.0,Stimuli/Blank.png,0,0,0.0,0,140,140,140,,,,,,,,,,,,,73.76571939999849,0.01571939999848837,5,0.1902122999963467,106.11697419999837,106.11697419999837,106.11697419999837,106.11697419999837,106.11697419999837,106.11697419999837,106.11697419999837,106.11697419999837,106.11697419999837,106.11697419999837,002,P001,2025_Jan_17_1821,ConditionRich,2021.2.3,59.9394611429402,
74.0,74.75,33,0.75,Stimuli/P001/things_pan_01b.jpg,0,0,0.0,0,141,141,141,,,,,,,,,,,,,74.01630470000237,0.01630470000236528,None,,106.36718490000203,106.36718490000203,106.36718490000203,106.36718490000203,106.36718490000203,106.36718490000203,106.36718490000203,106.36718490000203,106.36718490000203,106.36718490000203,002,P001,2025_Jan_17_1821,ConditionRich,2021.2.3,59.9394611429402,
74.75,75.0,41,0.0,Stimuli/Blank.png,0,0,0.0,0,142,142,142,,,,,,,,,,,,,74.76545460000489,0.015454600004886743,None,,107.10117170000012,107.10117170000012,107.10117170000012,107.10117170000012,107.10117170000012,107.10117170000012,107.10117170000012,107.10117170000012,107.10117170000012,107.10117170000012,002,P001,2025_Jan_17_1821,ConditionRich,2021.2.3,59.9394611429402,
75.0,75.75,33,0.75,Stimuli/P001/things_pan_01b.jpg,0,0,0.0,0,143,143,143,,,,,,,,,,,,,74.99901550000504,-0.0009844999949564226,None,,107.3513907000015,107.3513907000015,107.3513907000015,107.3513907000015,107.3513907000015,107.3513907000015,107.3513907000015,107.3513907000015,107.3513907000015,107.3513907000015,002,P001,2025_Jan_17_1821,ConditionRich,2021.2.3,59.9394611429402,
75.75,76.0,41,0.0,Stimuli/Blank.png,0,0,0.0,0,144,144,144,,,,,,,,,,,,,75.76559290000296,0.015592900002957322,None,,108.1020611999993,108.1020611999993,108.1020611999993,108.1020611999993,108.1020611999993,108.1020611999993,108.1020611999993,108.1020611999993,108.1020611999993,108.1020611999993,002,P001,2025_Jan_17_1821,ConditionRich,2021.2.3,59.9394611429402,
76.0,76.75,24,0.75,Stimuli/P001/things_cornucopia_01b.jpg,0,0,0.0,0,145,145,145,,,,,,,,,,,,,76.00000949999958,9.499999578110874e-06,None,,108.35226800000237,108.35226800000237,108.35226800000237,108.35226800000237,108.35226800000237,108.35226800000237,108.35226800000237,108.35226800000237,108.35226800000237,108.35226800000237,002,P001,2025_Jan_17_1821,ConditionRich,2021.2.3,59.9394611429402,
76.75,77.0,41,0.0,Stimuli/Blank.png,0,0,0.0,0,146,146,146,,,,,,,,,,,,,76.76587080000172,0.015870800001721364,None,,109.10293010000169,109.10293010000169,109.10293010000169,109.10293010000169,109.10293010000169,109.10293010000169,109.10293010000169,109.10293010000169,109.10293010000169,109.10293010000169,002,P001,2025_Jan_17_1821,ConditionRich,2021.2.3,59.9394611429402,
77.0,77.75,24,0.75,Stimuli/P001/things_cornucopia_01b.jpg,0,0,0.0,0,147,147,147,,,,,,,,,,,,,76.99999750000279,-2.4999972083605826e-06,None,,109.3364694999982,109.3364694999982,109.3364694999982,109.3364694999982,109.3364694999982,109.3364694999982,109.3364694999982,109.3364694999982,109.3364694999982,109.3364694999982,002,P001,2025_Jan_17_1821,ConditionRich,2021.2.3,59.9394611429402,
77.75,78.0,41,0.0,Stimuli/Blank.png,0,0,0.0,0,148,148,148,,,,,,,,,,,,,77.75090340000315,0.0009034000031533651,5,0.20311840000067605,110.10382389999722,110.10382389999722,110.10382389999722,110.10382389999722,110.10382389999722,110.10382389999722,110.10382389999722,110.10382389999722,110.10382389999722,110.10382389999722,002,P001,2025_Jan_17_1821,ConditionRich,2021.2.3,59.9394611429402,
78.0,78.75,24,0.75,Stimuli/P001/things_cornucopia_01b.jpg,0,0,0.0,0,149,149,149,,,,,,,,,,,,,78.01736560000427,0.017365600004268344,None,,110.37073110000347,110.37073110000347,110.37073110000347,110.37073110000347,110.37073110000347,110.37073110000347,110.37073110000347,110.37073110000347,110.37073110000347,110.37073110000347,002,P001,2025_Jan_17_1821,ConditionRich,2021.2.3,59.9394611429402,
78.75,79.0,41,0.0,Stimuli/Blank.png,0,0,0.0,0,150,150,150,,,,,,,,,,,,,78.77015080000274,0.020150800002738833,None,,111.12139629999729,111.12139629999729,111.12139629999729,111.12139629999729,111.12139629999729,111.12139629999729,111.12139629999729,111.12139629999729,111.12139629999729,111.12139629999729,002,P001,2025_Jan_17_1821,ConditionRich,2021.2.3,59.9394611429402,
79.0,79.75,24,0.75,Stimuli/P001/things_cornucopia_01b.jpg,0,0,0.0,0,151,151,151,,,,,,,,,,,,,79.02068149999832,0.02068149999831803,None,,111.37162299999909,111.37162299999909,111.37162299999909,111.37162299999909,111.37162299999909,111.37162299999909,111.37162299999909,111.37162299999909,111.37162299999909,111.37162299999909,002,P001,2025_Jan_17_1821,ConditionRich,2021.2.3,59.9394611429402,
79.75,80.0,41,0.0,Stimuli/Blank.png,0,0,0.0,0,152,152,152,,,,,,,,,,,,,79.76995819999865,0.01995819999865489,5,0.20137780000368366,112.10559549999743,112.10559549999743,112.10559549999743,112.10559549999743,112.10559549999743,112.10559549999743,112.10559549999743,112.10559549999743,112.10559549999743,112.10559549999743,002,P001,2025_Jan_17_1821,ConditionRich,2021.2.3,59.9394611429402,
80.0,80.75,28,0.75,Stimuli/P001/things_girl_01b.jpg,0,0,0.0,0,153,153,153,,,,,,,,,,,,,80.00193220000074,0.0019322000007377937,None,,112.33913010000106,112.33913010000106,112.33913010000106,112.33913010000106,112.33913010000106,112.33913010000106,112.33913010000106,112.33913010000106,112.33913010000106,112.33913010000106,002,P001,2025_Jan_17_1821,ConditionRich,2021.2.3,59.9394611429402,
80.75,81.0,41,0.0,Stimuli/Blank.png,0,0,0.0,0,154,154,154,,,,,,,,,,,,,80.75523750000139,0.005237500001385342,None,,113.10647790000075,113.10647790000075,113.10647790000075,113.10647790000075,113.10647790000075,113.10647790000075,113.10647790000075,113.10647790000075,113.10647790000075,113.10647790000075,002,P001,2025_Jan_17_1821,ConditionRich,2021.2.3,59.9394611429402,
81.0,81.75,28,0.75,Stimuli/P001/things_girl_01b.jpg,0,0,0.0,0,155,155,155,,,,,,,,,,,,,81.01949840000452,0.01949840000452241,None,,113.35670219999884,113.35670219999884,113.35670219999884,113.35670219999884,113.35670219999884,113.35670219999884,113.35670219999884,113.35670219999884,113.35670219999884,113.35670219999884,002,P001,2025_Jan_17_1821,ConditionRich,2021.2.3,59.9394611429402,
81.75,82.0,41,0.0,Stimuli/Blank.png,0,0,0.0,0,156,156,156,,,,,,,,,,,,,81.75449630000367,0.004496300003665965,5,0.2163589000047068,114.09068310000293,114.09068310000293,114.09068310000293,114.09068310000293,114.09068310000293,114.09068310000293,114.09068310000293,114.09068310000293,114.09068310000293,114.09068310000293,002,P001,2025_Jan_17_1821,ConditionRich,2021.2.3,59.9394611429402,
82.0,82.75,28,0.75,Stimuli/P001/things_girl_01b.jpg,0,0,0.0,0,157,157,157,,,,,,,,,,,,,82.00530040000012,0.005300400000123773,None,,114.34111619999749,114.34111619999749,114.34111619999749,114.34111619999749,114.34111619999749,114.34111619999749,114.34111619999749,114.34111619999749,114.34111619999749,114.34111619999749,002,P001,2025_Jan_17_1821,ConditionRich,2021.2.3,59.9394611429402,
82.75,83.0,41,0.0,Stimuli/Blank.png,0,0,0.0,0,158,158,158,,,,,,,,,,,,,82.75535640000453,0.00535640000452986,None,,115.09156059999805,115.09156059999805,115.09156059999805,115.09156059999805,115.09156059999805,115.09156059999805,115.09156059999805,115.09156059999805,115.09156059999805,115.09156059999805,002,P001,2025_Jan_17_1821,ConditionRich,2021.2.3,59.9394611429402,
83.0,83.75,28,0.75,Stimuli/P001/things_girl_01b.jpg,0,0,0.0,0,159,159,159,,,,,,,,,,,,,83.00488440000481,0.004884400004812051,None,,115.34177769999951,115.34177769999951,115.34177769999951,115.34177769999951,115.34177769999951,115.34177769999951,115.34177769999951,115.34177769999951,115.34177769999951,115.34177769999951,002,P001,2025_Jan_17_1821,ConditionRich,2021.2.3,59.9394611429402,
83.75,84.0,41,0.0,Stimuli/Blank.png,0,0,0.0,0,160,160,160,,,,,,,,,,,,,83.75614199999836,0.006141999998362735,5,0.21458350000466453,116.09244549999858,116.09244549999858,116.09244549999858,116.09244549999858,116.09244549999858,116.09244549999858,116.09244549999858,116.09244549999858,116.09244549999858,116.09244549999858,002,P001,2025_Jan_17_1821,ConditionRich,2021.2.3,59.9394611429402,
84.0,100.0,0,0.0,Stimuli/Blank.png,1,2,2.75,0,161,161,161,,,,,,,,,,,,,84.00557560000016,0.005575600000156555,5,15.964400600001682,116.34267810000165,116.34267810000165,116.34267810000165,116.34267810000165,116.34267810000165,116.34267810000165,118.32774690000224,119.07845220000308,116.34267810000165,116.34267810000165,002,P001,2025_Jan_17_1821,ConditionRich,2021.2.3,59.9394611429402,
100.0,100.75,38,0.75,Stimuli/P001/things_windowsill_01b.jpg,0,0,0.0,0,162,162,162,,,,,,,,,,,,,100.00587340000493,0.005873400004929863,None,,132.35681979999936,132.35681979999936,132.35681979999936,132.35681979999936,132.35681979999936,132.35681979999936,132.35681979999936,132.35681979999936,132.35681979999936,132.35681979999936,002,P001,2025_Jan_17_1821,ConditionRich,2021.2.3,59.9394611429402,
100.75,101.0,41,0.0,Stimuli/Blank.png,0,0,0.0,0,163,163,163,,,,,,,,,,,,,100.77080570000544,0.020805700005439576,None,,133.10748890000104,133.10748890000104,133.10748890000104,133.10748890000104,133.10748890000104,133.10748890000104,133.10748890000104,133.10748890000104,133.10748890000104,133.10748890000104,002,P001,2025_Jan_17_1821,ConditionRich,2021.2.3,59.9394611429402,
101.0,101.75,38,0.75,Stimuli/P001/things_windowsill_01b.jpg,0,0,0.0,0,164,164,164,,,,,,,,,,,,,101.00428100000136,0.004281000001356006,None,,133.341021500004,133.341021500004,133.341021500004,133.341021500004,133.341021500004,133.341021500004,133.341021500004,133.341021500004,133.341021500004,133.341021500004,002,P001,2025_Jan_17_1821,ConditionRich,2021.2.3,59.9394611429402,
101.75,102.0,41,0.0,Stimuli/Blank.png,0,0,0.0,0,165,165,165,,,,,,,,,,,,,101.75569600000017,0.005696000000170898,5,0.21534329999849433,134.09169130000373,134.09169130000373,134.09169130000373,134.09169130000373,134.09169130000373,134.09169130000373,134.09169130000373,134.09169130000373,134.09169130000373,134.09169130000373,002,P001,2025_Jan_17_1821,ConditionRich,2021.2.3,59.9394611429402,
102.0,102.75,38,0.75,Stimuli/P001/things_windowsill_01b.jpg,0,0,0.0,0,166,166,166,,,,,,,,,,,,,102.00471729999845,0.004717299998446833,None,,134.3419184000013,134.3419184000013,134.3419184000013,134.3419184000013,134.3419184000013,134.3419184000013,134.3419184000013,134.3419184000013,134.3419184000013,134.3419184000013,002,P001,2025_Jan_17_1821,ConditionRich,2021.2.3,59.9394611429402,
102.75,103.0,41,0.0,Stimuli/Blank.png,0,0,0.0,0,167,167,167,,,,,,,,,,,,,102.75565420000203,0.00565420000202721,None,,135.09258280000358,135.09258280000358,135.09258280000358,135.09258280000358,135.09258280000358,135.09258280000358,135.09258280000358,135.09258280000358,135.09258280000358,135.09258280000358,002,P001,2025_Jan_17_1821,ConditionRich,2021.2.3,59.9394611429402,
103.0,103.75,38,0.75,Stimuli/P001/things_windowsill_01b.jpg,0,0,0.0,0,168,168,168,,,,,,,,,,,,,103.0060919000025,0.006091900002502371,None,,135.3427898000009,135.3427898000009,135.3427898000009,135.3427898000009,135.3427898000009,135.3427898000009,135.3427898000009,135.3427898000009,135.3427898000009,135.3427898000009,002,P001,2025_Jan_17_1821,ConditionRich,2021.2.3,59.9394611429402,
103.75,104.0,41,0.0,Stimuli/Blank.png,0,0,0.0,0,169,169,169,,,,,,,,,,,,,103.75696460000472,0.006964600004721433,5,0.21338210000249092,136.09354180000082,136.09354180000082,136.09354180000082,136.09354180000082,136.09354180000082,136.09354180000082,136.09354180000082,136.09354180000082,136.09354180000082,136.09354180000082,002,P001,2025_Jan_17_1821,ConditionRich,2021.2.3,59.9394611429402,
104.0,104.75,30,0.75,Stimuli/P001/things_iguana_01b.jpg,0,0,0.0,0,170,170,170,,,,,,,,,,,,,104.00752650000504,0.00752650000504218,None,,136.34368900000118,136.34368900000118,136.34368900000118,136.34368900000118,136.34368900000118,136.34368900000118,136.34368900000118,136.34368900000118,136.34368900000118,136.34368900000118,002,P001,2025_Jan_17_1821,ConditionRich,2021.2.3,59.9394611429402,
104.75,105.0,41,0.0,Stimuli/Blank.png,0,0,0.0,0,171,171,171,,,,,,,,,,,,,104.75748480000038,0.007484800000383984,None,,137.09432879999804,137.09432879999804,137.09432879999804,137.09432879999804,137.09432879999804,137.09432879999804,137.09432879999804,137.09432879999804,137.09432879999804,137.09432879999804,002,P001,2025_Jan_17_1821,ConditionRich,2021.2.3,59.9394611429402,
105.0,105.75,30,0.75,Stimuli/P001/things_iguana_01b.jpg,0,0,0.0,0,172,172,172,,,,,,,,,,,,,105.0099823000055,0.00998230000550393,None,,137.36124140000175,137.36124140000175,137.36124140000175,137.36124140000175,137.36124140000175,137.36124140000175,137.36124140000175,137.36124140000175,137.36124140000175,137.36124140000175,002,P001,2025_Jan_17_1821,ConditionRich,2021.2.3,59.9394611429402,
105.75,106.0,41,0.0,Stimuli/Blank.png,0,0,0.0,0,173,173,173,,,,,,,,,,,,,105.77596089999861,0.02596089999860851,5,0.19504520000191405,138.11190750000242,138.11190750000242,138.11190750000242,138.11190750000242,138.11190750000242,138.11190750000242,138.11190750000242,138.11190750000242,138.11190750000242,138.11190750000242,002,P001,2025_Jan_17_1821,ConditionRich,2021.2.3,59.9394611429402,
106.0,106.75,30,0.75,Stimuli/P001/things_iguana_01b.jpg,0,0,0.0,0,174,174,174,,,,,,,,,,,,,106.00913969999965,0.009139699999650475,None,,138.34544260000257,138.34544260000257,138.34544260000257,138.34544260000257,138.34544260000257,138.34544260000257,138.34544260000257,138.34544260000257,138.34544260000257,138.34544260000257,002,P001,2025_Jan_17_1821,ConditionRich,2021.2.3,59.9394611429402,
106.75,107.0,41,0.0,Stimuli/Blank.png,0,0,0.0,0,175,175,175,,,,,,,,,,,,,106.76010160000442,0.010101600004418287,None,,139.09613089999766,139.09613089999766,139.09613089999766,139.09613089999766,139.09613089999766,139.09613089999766,139.09613089999766,139.09613089999766,139.09613089999766,139.09613089999766,002,P001,2025_Jan_17_1821,ConditionRich,2021.2.3,59.9394611429402,
107.0,107.75,30,0.75,Stimuli/P001/things_iguana_01b.jpg,0,0,0.0,0,176,176,176,,,,,,,,,,,,,107.01066340000398,0.010663400003977586,None,,139.36303130000306,139.36303130000306,139.36303130000306,139.36303130000306,139.36303130000306,139.36303130000306,139.36303130000306,139.36303130000306,139.36303130000306,139.36303130000306,002,P001,2025_Jan_17_1821,ConditionRich,2021.2.3,59.9394611429402,
107.75,108.0,41,0.0,Stimuli/Blank.png,0,0,0.0,0,177,177,177,,,,,,,,,,,,,107.7773898000014,0.027389800001401454,5,0.19349009999859845,140.113751900004,140.113751900004,140.113751900004,140.113751900004,140.113751900004,140.113751900004,140.113751900004,140.113751900004,140.113751900004,140.113751900004,002,P001,2025_Jan_17_1821,ConditionRich,2021.2.3,59.9394611429402,
108.0,108.75,18,0.75,Stimuli/P001/sun_bzjegfvyrvqtunza.jpg,0,0,0.0,0,178,178,178,,,,,,,,,,,,,108.01070679999975,0.010706799999752548,None,,140.3472180000026,140.3472180000026,140.3472180000026,140.3472180000026,140.3472180000026,140.3472180000026,140.3472180000026,140.3472180000026,140.3472180000026,140.3472180000026,002,P001,2025_Jan_17_1821,ConditionRich,2021.2.3,59.9394611429402,
108.75,109.0,41,0.0,Stimuli/Blank.png,0,0,0.0,0,179,179,179,,,,,,,,,,,,,108.76080139999976,0.010801399999763817,None,,141.09786970000278,141.09786970000278,141.09786970000278,141.09786970000278,141.09786970000278,141.09786970000278,141.09786970000278,141.09786970000278,141.09786970000278,141.09786970000278,002,P001,2025_Jan_17_1821,ConditionRich,2021.2.3,59.9394611429402,
109.0,109.75,18,0.75,Stimuli/P001/sun_bzjegfvyrvqtunza.jpg,0,0,0.0,0,180,180,180,,,,,,,,,,,,,109.0116291000013,0.011629100001300685,None,,141.36480779999692,141.36480779999692,141.36480779999692,141.36480779999692,141.36480779999692,141.36480779999692,141.36480779999692,141.36480779999692,141.36480779999692,141.36480779999692,002,P001,2025_Jan_17_1821,ConditionRich,2021.2.3,59.9394611429402,
109.75,110.0,41,0.0,Stimuli/Blank.png,0,0,0.0,0,181,181,181,,,,,,,,,,,,,109.78093220000301,0.030932200003007893,5,0.17510410000249976,142.13216510000348,142.13216510000348,142.13216510000348,142.13216510000348,142.13216510000348,142.13216510000348,142.13216510000348,142.13216510000348,142.13216510000348,142.13216510000348,002,P001,2025_Jan_17_1821,ConditionRich,2021.2.3,59.9394611429402,
110.0,110.75,18,0.75,Stimuli/P001/sun_bzjegfvyrvqtunza.jpg,0,0,0.0,0,182,182,182,,,,,,,,,,,,,110.02918840000348,0.029188400003477,None,,142.3656622999988,142.3656622999988,142.3656622999988,142.3656622999988,142.3656622999988,142.3656622999988,142.3656622999988,142.3656622999988,142.3656622999988,142.3656622999988,002,P001,2025_Jan_17_1821,ConditionRich,2021.2.3,59.9394611429402,
110.75,111.0,41,0.0,Stimuli/Blank.png,0,0,0.0,0,183,183,183,,,,,,,,,,,,,110.765078299999,0.01507829999900423,None,,143.11633060000167,143.11633060000167,143.11633060000167,143.11633060000167,143.11633060000167,143.11633060000167,143.11633060000167,143.11633060000167,143.11633060000167,143.11633060000167,002,P001,2025_Jan_17_1821,ConditionRich,2021.2.3,59.9394611429402,
111.0,111.75,18,0.75,Stimuli/P001/sun_bzjegfvyrvqtunza.jpg,0,0,0.0,0,184,184,184,,,,,,,,,,,,,111.02975210000295,0.02975210000295192,None,,143.3665697000033,143.3665697000033,143.3665697000033,143.3665697000033,143.3665697000033,143.3665697000033,143.3665697000033,143.3665697000033,143.3665697000033,143.3665697000033,002,P001,2025_Jan_17_1821,ConditionRich,2021.2.3,59.9394611429402,
111.75,112.0,41,0.0,Stimuli/Blank.png,0,0,0.0,0,185,185,185,,,,,,,,,,,,,111.76395069999853,0.01395069999853149,5,0.2063512000022456,144.10054089999903,144.10054089999903,144.10054089999903,144.10054089999903,144.10054089999903,144.10054089999903,144.10054089999903,144.10054089999903,144.10054089999903,144.10054089999903,002,P001,2025_Jan_17_1821,ConditionRich,2021.2.3,59.9394611429402,
112.0,112.75,34,0.75,Stimuli/P001/things_parrot_01b.jpg,0,0,0.0,0,186,186,186,,,,,,,,,,,,,112.01435990000027,0.014359900000272319,None,,144.35075030000007,144.35075030000007,144.35075030000007,144.35075030000007,144.35075030000007,144.35075030000007,144.35075030000007,144.35075030000007,144.35075030000007,144.35075030000007,002,P001,2025_Jan_17_1821,ConditionRich,2021.2.3,59.9394611429402,
112.75,113.0,41,0.0,Stimuli/Blank.png,0,0,0.0,0,187,187,187,,,,,,,,,,,,,112.76500460000534,0.015004600005340762,None,,145.10140649999812,145.10140649999812,145.10140649999812,145.10140649999812,145.10140649999812,145.10140649999812,145.10140649999812,145.10140649999812,145.10140649999812,145.10140649999812,002,P001,2025_Jan_17_1821,ConditionRich,2021.2.3,59.9394611429402,
113.0,113.75,34,0.75,Stimuli/P001/things_parrot_01b.jpg,0,0,0.0,0,188,188,188,,,,,,,,,,,,,113.01437920000171,0.014379200001712888,None,,145.35165419999976,145.35165419999976,145.35165419999976,145.35165419999976,145.35165419999976,145.35165419999976,145.35165419999976,145.35165419999976,145.35165419999976,145.35165419999976,002,P001,2025_Jan_17_1821,ConditionRich,2021.2.3,59.9394611429402,
113.75,114.0,41,0.0,Stimuli/Blank.png,0,0,0.0,0,189,189,189,,,,,,,,,,,,,113.7658739000035,0.01587390000349842,5,0.18819409999559866,146.11899290000292,146.11899290000292,146.11899290000292,146.11899290000292,146.11899290000292,146.11899290000292,146.11899290000292,146.11899290000292,146.11899290000292,146.11899290000292,002,P001,2025_Jan_17_1821,ConditionRich,2021.2.3,59.9394611429402,
114.0,114.75,34,0.75,Stimuli/P001/things_parrot_01b.jpg,1,0,0.75,0,190,190,190,,,,,,,,,,,,,114.01598709999962,0.015987099999620114,3,0.4223987999939709,146.3525137999968,146.3525137999968,146.3525137999968,146.3525137999968,146.3525137999968,146.3525137999968,146.3525137999968,None,146.3525137999968,146.3525137999968,002,P001,2025_Jan_17_1821,ConditionRich,2021.2.3,59.9394611429402,
114.75,115.0,41,0.0,Stimuli/Blank.png,0,0,0.0,0,191,191,191,,,,,,,,,,,,,114.75086540000484,0.0008654000048409216,None,,147.10319850000087,147.10319850000087,147.10319850000087,147.10319850000087,147.10319850000087,147.10319850000087,147.10319850000087,147.10319850000087,147.10319850000087,147.10319850000087,002,P001,2025_Jan_17_1821,ConditionRich,2021.2.3,59.9394611429402,
115.0,115.75,34,0.75,Stimuli/P001/things_parrot_01b.jpg,0,0,0.0,0,192,192,192,,,,,,,,,,,,,115.01639350000187,0.016393500001868233,None,,147.35339560000284,147.35339560000284,147.35339560000284,147.35339560000284,147.35339560000284,147.35339560000284,147.35339560000284,147.35339560000284,147.35339560000284,147.35339560000284,002,P001,2025_Jan_17_1821,ConditionRich,2021.2.3,59.9394611429402,
115.75,116.0,41,0.0,Stimuli/Blank.png,0,0,0.0,0,193,193,193,,,,,,,,,,,,,115.75026970000181,0.0002697000018088147,None,,148.08738099999755,148.08738099999755,148.08738099999755,148.08738099999755,148.08738099999755,148.08738099999755,148.08738099999755,148.08738099999755,148.08738099999755,148.08738099999755,002,P001,2025_Jan_17_1821,ConditionRich,2021.2.3,59.9394611429402,
116.0,116.75,10,0.75,Stimuli/P001/sun_aykefnhciwsffcrj.jpg,0,0,0.0,0,194,194,194,,,,,,,,,,,,,116.00123400000302,0.0012340000030235387,None,,148.33760579999944,148.33760579999944,148.33760579999944,148.33760579999944,148.33760579999944,148.33760579999944,148.33760579999944,148.33760579999944,148.33760579999944,148.33760579999944,002,P001,2025_Jan_17_1821,ConditionRich,2021.2.3,59.9394611429402,
116.75,117.0,41,0.0,Stimuli/Blank.png,0,0,0.0,0,195,195,195,,,,,,,,,,,,,116.75136330000532,0.0013633000053232536,None,,149.0882636000024,149.0882636000024,149.0882636000024,149.0882636000024,149.0882636000024,149.0882636000024,149.0882636000024,149.0882636000024,149.0882636000024,149.0882636000024,002,P001,2025_Jan_17_1821,ConditionRich,2021.2.3,59.9394611429402,
117.0,117.75,10,0.75,Stimuli/P001/sun_aykefnhciwsffcrj.jpg,0,0,0.0,0,196,196,196,,,,,,,,,,,,,117.00161720000324,0.0016172000032383949,None,,149.33849080000073,149.33849080000073,149.33849080000073,149.33849080000073,149.33849080000073,149.33849080000073,149.33849080000073,149.33849080000073,149.33849080000073,149.33849080000073,002,P001,2025_Jan_17_1821,ConditionRich,2021.2.3,59.9394611429402,
117.75,118.0,41,0.0,Stimuli/Blank.png,0,0,0.0,0,197,197,197,,,,,,,,,,,,,117.75267750000057,0.0026775000005727634,5,0.2178432000000612,150.08912090000376,150.08912090000376,150.08912090000376,150.08912090000376,150.08912090000376,150.08912090000376,150.08912090000376,150.08912090000376,150.08912090000376,150.08912090000376,002,P001,2025_Jan_17_1821,ConditionRich,2021.2.3,59.9394611429402,
118.0,118.75,10,0.75,Stimuli/P001/sun_aykefnhciwsffcrj.jpg,0,0,0.0,0,198,198,198,,,,,,,,,,,,,118.00250970000343,0.002509700003429316,None,,150.35606410000037,150.35606410000037,150.35606410000037,150.35606410000037,150.35606410000037,150.35606410000037,150.35606410000037,150.35606410000037,150.35606410000037,150.35606410000037,002,P001,2025_Jan_17_1821,ConditionRich,2021.2.3,59.9394611429402,
118.75,119.0,41,0.0,Stimuli/Blank.png,0,0,0.0,0,199,199,199,,,,,,,,,,,,,118.77015210000536,0.020152100005361717,None,,151.10673340000358,151.10673340000358,151.10673340000358,151.10673340000358,151.10673340000358,151.10673340000358,151.10673340000358,151.10673340000358,151.10673340000358,151.10673340000358,002,P001,2025_Jan_17_1821,ConditionRich,2021.2.3,59.9394611429402,
119.0,119.75,10,0.75,Stimuli/P001/sun_aykefnhciwsffcrj.jpg,0,0,0.0,0,200,200,200,,,,,,,,,,,,,119.00354800000059,0.0035480000005918555,None,,151.34023539999907,151.34023539999907,151.34023539999907,151.34023539999907,151.34023539999907,151.34023539999907,151.34023539999907,151.34023539999907,151.34023539999907,151.34023539999907,002,P001,2025_Jan_17_1821,ConditionRich,2021.2.3,59.9394611429402,
119.75,120.0,41,0.0,Stimuli/Blank.png,0,0,0.0,0,201,201,201,,,,,,,,,,,,,119.75467140000546,0.004671400005463511,5,0.2159419000017806,152.09092650000093,152.09092650000093,152.09092650000093,152.09092650000093,152.09092650000093,152.09092650000093,152.09092650000093,152.09092650000093,152.09092650000093,152.09092650000093,002,P001,2025_Jan_17_1821,ConditionRich,2021.2.3,59.9394611429402,
120.0,120.75,7,0.75,Stimuli/P001/sun_arlesyjqxmqmcccl.jpg,0,0,0.0,0,202,202,202,,,,,,,,,,,,,120.00451130000147,0.004511300001468044,None,,152.34114240000054,152.34114240000054,152.34114240000054,152.34114240000054,152.34114240000054,152.34114240000054,152.34114240000054,152.34114240000054,152.34114240000054,152.34114240000054,002,P001,2025_Jan_17_1821,ConditionRich,2021.2.3,59.9394611429402,
120.75,121.0,41,0.0,Stimuli/Blank.png,0,0,0.0,0,203,203,203,,,,,,,,,,,,,120.75552779999998,0.005527799999981653,None,,153.09182470000087,153.09182470000087,153.09182470000087,153.09182470000087,153.09182470000087,153.09182470000087,153.09182470000087,153.09182470000087,153.09182470000087,153.09182470000087,002,P001,2025_Jan_17_1821,ConditionRich,2021.2.3,59.9394611429402,
121.0,121.75,7,0.75,Stimuli/P001/sun_arlesyjqxmqmcccl.jpg,0,0,0.0,0,204,204,204,,,,,,,,,,,,,121.00539250000293,0.005392500002926681,None,,153.34202299999743,153.34202299999743,153.34202299999743,153.34202299999743,153.34202299999743,153.34202299999743,153.34202299999743,153.34202299999743,153.34202299999743,153.34202299999743,002,P001,2025_Jan_17_1821,ConditionRich,2021.2.3,59.9394611429402,
121.75,122.0,41,0.0,Stimuli/Blank.png,0,0,0.0,0,205,205,205,,,,,,,,,,,,,121.7563536000016,0.006353600001602899,5,0.21435339999879943,154.09269309999945,154.09269309999945,154.09269309999945,154.09269309999945,154.09269309999945,154.09269309999945,154.09269309999945,154.09269309999945,154.09269309999945,154.09269309999945,002,P001,2025_Jan_17_1821,ConditionRich,2021.2.3,59.9394611429402,
122.0,122.75,7,0.75,Stimuli/P001/sun_arlesyjqxmqmcccl.jpg,0,0,0.0,0,206,206,206,,,,,,,,,,,,,122.00630290000117,0.006302900001173839,None,,154.35962629999995,154.35962629999995,154.35962629999995,154.35962629999995,154.35962629999995,154.35962629999995,154.35962629999995,154.35962629999995,154.35962629999995,154.35962629999995,002,P001,2025_Jan_17_1821,ConditionRich,2021.2.3,59.9394611429402,
122.75,123.0,41,0.0,Stimuli/Blank.png,0,0,0.0,0,207,207,207,,,,,,,,,,,,,122.77532829999836,0.025328299998363946,None,,155.1269508999976,155.1269508999976,155.1269508999976,155.1269508999976,155.1269508999976,155.1269508999976,155.1269508999976,155.1269508999976,155.1269508999976,155.1269508999976,002,P001,2025_Jan_17_1821,ConditionRich,2021.2.3,59.9394611429402,
123.0,123.75,7,0.75,Stimuli/P001/sun_arlesyjqxmqmcccl.jpg,0,0,0.0,0,208,208,208,,,,,,,,,,,,,123.02358729999833,0.02358729999832576,None,,155.3604720000003,155.3604720000003,155.3604720000003,155.3604720000003,155.3604720000003,155.3604720000003,155.3604720000003,155.3604720000003,155.3604720000003,155.3604720000003,002,P001,2025_Jan_17_1821,ConditionRich,2021.2.3,59.9394611429402,
123.75,124.0,41,0.0,Stimuli/Blank.png,0,0,0.0,0,209,209,209,,,,,,,,,,,,,123.76011280000239,0.010112800002389122,5,0.1958031000031042,156.11114900000393,156.11114900000393,156.11114900000393,156.11114900000393,156.11114900000393,156.11114900000393,156.11114900000393,156.11114900000393,156.11114900000393,156.11114900000393,002,P001,2025_Jan_17_1821,ConditionRich,2021.2.3,59.9394611429402,
124.0,124.75,15,0.75,Stimuli/P001/sun_bfzoxbkvsfqxsyle.jpg,0,0,0.0,0,210,210,210,,,,,,,,,,,,,124.0243208000029,0.024320800002897158,None,,156.36136350000015,156.36136350000015,156.36136350000015,156.36136350000015,156.36136350000015,156.36136350000015,156.36136350000015,156.36136350000015,156.36136350000015,156.36136350000015,002,P001,2025_Jan_17_1821,ConditionRich,2021.2.3,59.9394611429402,
124.75,125.0,41,0.0,Stimuli/Blank.png,0,0,0.0,0,211,211,211,,,,,,,,,,,,,124.75875890000316,0.008758900003158487,None,,157.0953567999968,157.0953567999968,157.0953567999968,157.0953567999968,157.0953567999968,157.0953567999968,157.0953567999968,157.0953567999968,157.0953567999968,157.0953567999968,002,P001,2025_Jan_17_1821,ConditionRich,2021.2.3,59.9394611429402,
125.0,125.75,15,0.75,Stimuli/P001/sun_bfzoxbkvsfqxsyle.jpg,0,0,0.0,0,212,212,212,,,,,,,,,,,,,125.01037160000124,0.010371600001235493,None,,157.3622413999983,157.3622413999983,157.3622413999983,157.3622413999983,157.3622413999983,157.3622413999983,157.3622413999983,157.3622413999983,157.3622413999983,157.3622413999983,002,P001,2025_Jan_17_1821,ConditionRich,2021.2.3,59.9394611429402,
125.75,126.0,41,0.0,Stimuli/Blank.png,0,0,0.0,0,213,213,213,,,,,,,,,,,,,125.7764479000034,0.026447900003404357,5,0.19396689999848604,158.11291119999805,158.11291119999805,158.11291119999805,158.11291119999805,158.11291119999805,158.11291119999805,158.11291119999805,158.11291119999805,158.11291119999805,158.11291119999805,002,P001,2025_Jan_17_1821,ConditionRich,2021.2.3,59.9394611429402,
126.0,126.75,15,0.75,Stimuli/P001/sun_bfzoxbkvsfqxsyle.jpg,0,0,0.0,0,214,214,214,,,,,,,,,,,,,126.01055270000506,0.010552700005064253,None,,158.3631344000023,158.3631344000023,158.3631344000023,158.3631344000023,158.3631344000023,158.3631344000023,158.3631344000023,158.3631344000023,158.3631344000023,158.3631344000023,002,P001,2025_Jan_17_1821,ConditionRich,2021.2.3,59.9394611429402,
126.75,127.0,41,0.0,Stimuli/Blank.png,0,0,0.0,0,215,215,215,,,,,,,,,,,,,126.7775416000004,0.027541600000404287,None,,159.11381889999757,159.11381889999757,159.11381889999757,159.11381889999757,159.11381889999757,159.11381889999757,159.11381889999757,159.11381889999757,159.11381889999757,159.11381889999757,002,P001,2025_Jan_17_1821,ConditionRich,2021.2.3,59.9394611429402,
127.0,127.75,15,0.75,Stimuli/P001/sun_bfzoxbkvsfqxsyle.jpg,0,0,0.0,0,216,216,216,,,,,,,,,,,,,127.01081800000247,0.010818000002473127,None,,159.34733579999738,159.34733579999738,159.34733579999738,159.34733579999738,159.34733579999738,159.34733579999738,159.34733579999738,159.34733579999738,159.34733579999738,159.34733579999738,002,P001,2025_Jan_17_1821,ConditionRich,2021.2.3,59.9394611429402,
127.75,128.0,41,0.0,Stimuli/Blank.png,0,0,0.0,0,217,217,217,,,,,,,,,,,,,127.76110429999972,0.011104299999715295,5,0.20909720000054222,160.0979953999995,160.0979953999995,160.0979953999995,160.0979953999995,160.0979953999995,160.0979953999995,160.0979953999995,160.0979953999995,160.0979953999995,160.0979953999995,002,P001,2025_Jan_17_1821,ConditionRich,2021.2.3,59.9394611429402,
128.0,128.75,5,0.75,Stimuli/P001/sun_apwzcrxhvvnrexjh.jpg,0,0,0.0,0,218,218,218,,,,,,,,,,,,,128.01154210000095,0.011542100000951905,None,,160.34821450000163,160.34821450000163,160.34821450000163,160.34821450000163,160.34821450000163,160.34821450000163,160.34821450000163,160.34821450000163,160.34821450000163,160.34821450000163,002,P001,2025_Jan_17_1821,ConditionRich,2021.2.3,59.9394611429402,
128.75,129.0,41,0.0,Stimuli/Blank.png,0,0,0.0,0,219,219,219,,,,,,,,,,,,,128.76254020000488,0.012540200004877988,None,,161.09890109999833,161.09890109999833,161.09890109999833,161.09890109999833,161.09890109999833,161.09890109999833,161.09890109999833,161.09890109999833,161.09890109999833,161.09890109999833,002,P001,2025_Jan_17_1821,ConditionRich,2021.2.3,59.9394611429402,
129.0,129.75,5,0.75,Stimuli/P001/sun_apwzcrxhvvnrexjh.jpg,0,0,0.0,0,220,220,220,,,,,,,,,,,,,129.01466680000158,0.01466680000157794,None,,161.36578710000322,161.36578710000322,161.36578710000322,161.36578710000322,161.36578710000322,161.36578710000322,161.36578710000322,161.36578710000322,161.36578710000322,161.36578710000322,002,P001,2025_Jan_17_1821,ConditionRich,2021.2.3,59.9394611429402,
129.75,130.0,41,0.0,Stimuli/Blank.png,0,0,0.0,0,221,221,221,,,,,,,,,,,,,129.78056350000406,0.030563500004063826,5,0.17375090000132332,162.13316900000063,162.13316900000063,162.13316900000063,162.13316900000063,162.13316900000063,162.13316900000063,162.13316900000063,162.13316900000063,162.13316900000063,162.13316900000063,002,P001,2025_Jan_17_1821,ConditionRich,2021.2.3,59.9394611429402,
130.0,130.75,5,0.75,Stimuli/P001/sun_apwzcrxhvvnrexjh.jpg,0,0,0.0,0,222,222,222,,,,,,,,,,,,,130.0299948000029,0.029994800002896227,None,,162.36666960000002,162.36666960000002,162.36666960000002,162.36666960000002,162.36666960000002,162.36666960000002,162.36666960000002,162.36666960000002,162.36666960000002,162.36666960000002,002,P001,2025_Jan_17_1821,ConditionRich,2021.2.3,59.9394611429402,
130.75,131.0,41,0.0,Stimuli/Blank.png,0,0,0.0,0,223,223,223,,,,,,,,,,,,,130.7649659000017,0.014965900001698174,None,,163.1173717999991,163.1173717999991,163.1173717999991,163.1173717999991,163.1173717999991,163.1173717999991,163.1173717999991,163.1173717999991,163.1173717999991,163.1173717999991,002,P001,2025_Jan_17_1821,ConditionRich,2021.2.3,59.9394611429402,
131.0,131.75,5,0.75,Stimuli/P001/sun_apwzcrxhvvnrexjh.jpg,0,0,0.0,0,224,224,224,,,,,,,,,,,,,131.0309111000024,0.03091110000241315,None,,163.38427429999865,163.38427429999865,163.38427429999865,163.38427429999865,163.38427429999865,163.38427429999865,163.38427429999865,163.38427429999865,163.38427429999865,163.38427429999865,002,P001,2025_Jan_17_1821,ConditionRich,2021.2.3,59.9394611429402,
131.75,132.0,41,0.0,Stimuli/Blank.png,0,0,0.0,0,225,225,225,,,,,,,,,,,,,131.7812161000038,0.03121610000380315,5,0.18899180000153137,164.11821410000266,164.11821410000266,164.11821410000266,164.11821410000266,164.11821410000266,164.11821410000266,164.11821410000266,164.11821410000266,164.11821410000266,164.11821410000266,002,P001,2025_Jan_17_1821,ConditionRich,2021.2.3,59.9394611429402,
132.0,132.75,2,0.75,Stimuli/P001/sun_akmxsxepquhynflp.jpg,0,0,0.0,0,226,226,226,,,,,,,,,,,,,132.01536520000082,0.015365200000815094,None,,164.35175909999816,164.35175909999816,164.35175909999816,164.35175909999816,164.35175909999816,164.35175909999816,164.35175909999816,164.35175909999816,164.35175909999816,164.35175909999816,002,P001,2025_Jan_17_1821,ConditionRich,2021.2.3,59.9394611429402,
132.75,133.0,41,0.0,Stimuli/Blank.png,0,0,0.0,0,227,227,227,,,,,,,,,,,,,132.7492360000033,-0.0007639999967068434,None,,165.08572000000277,165.08572000000277,165.08572000000277,165.08572000000277,165.08572000000277,165.08572000000277,165.08572000000277,165.08572000000277,165.08572000000277,165.08572000000277,002,P001,2025_Jan_17_1821,ConditionRich,2021.2.3,59.9394611429402,
133.0,133.75,2,0.75,Stimuli/P001/sun_akmxsxepquhynflp.jpg,0,0,0.0,0,228,228,228,,,,,,,,,,,,,132.99934539999958,-0.0006546000004163943,None,,165.3359563999984,165.3359563999984,165.3359563999984,165.3359563999984,165.3359563999984,165.3359563999984,165.3359563999984,165.3359563999984,165.3359563999984,165.3359563999984,002,P001,2025_Jan_17_1821,ConditionRich,2021.2.3,59.9394611429402,
133.75,134.0,41,0.0,Stimuli/Blank.png,0,0,0.0,0,229,229,229,,,,,,,,,,,,,133.75148060000356,0.0014806000035605393,5,0.20388729999831412,166.10330599999725,166.10330599999725,166.10330599999725,166.10330599999725,166.10330599999725,166.10330599999725,166.10330599999725,166.10330599999725,166.10330599999725,166.10330599999725,002,P001,2025_Jan_17_1821,ConditionRich,2021.2.3,59.9394611429402,
134.0,134.75,2,0.75,Stimuli/P001/sun_akmxsxepquhynflp.jpg,0,0,0.0,0,230,230,230,,,,,,,,,,,,,134.01632490000338,0.016324900003382936,None,,166.35352989999956,166.35352989999956,166.35352989999956,166.35352989999956,166.35352989999956,166.35352989999956,166.35352989999956,166.35352989999956,166.35352989999956,166.35352989999956,002,P001,2025_Jan_17_1821,ConditionRich,2021.2.3,59.9394611429402,
134.75,135.0,41,0.0,Stimuli/Blank.png,0,0,0.0,0,231,231,231,,,,,,,,,,,,,134.7507173000049,0.0007173000049078837,None,,167.0875049000024,167.0875049000024,167.0875049000024,167.0875049000024,167.0875049000024,167.0875049000024,167.0875049000024,167.0875049000024,167.0875049000024,167.0875049000024,002,P001,2025_Jan_17_1821,ConditionRich,2021.2.3,59.9394611429402,
135.0,135.75,2,0.75,Stimuli/P001/sun_akmxsxepquhynflp.jpg,0,0,0.0,0,232,232,232,,,,,,,,,,,,,135.0013231999983,0.0013231999982963316,None,,167.35444879999704,167.35444879999704,167.35444879999704,167.35444879999704,167.35444879999704,167.35444879999704,167.35444879999704,167.35444879999704,167.35444879999704,167.35444879999704,002,P001,2025_Jan_17_1821,ConditionRich,2021.2.3,59.9394611429402,
135.75,136.0,41,0.0,Stimuli/Blank.png,0,0,0.0,0,233,233,233,,,,,,,,,,,,,135.76994579999882,0.019945799998822622,5,0.1852110999971046,168.12176010000258,168.12176010000258,168.12176010000258,168.12176010000258,168.12176010000258,168.12176010000258,168.12176010000258,168.12176010000258,168.12176010000258,168.12176010000258,002,P001,2025_Jan_17_1821,ConditionRich,2021.2.3,59.9394611429402,
136.0,136.75,37,0.75,Stimuli/P001/things_starfish_01b.jpg,0,0,0.0,0,234,234,234,,,,,,,,,,,,,136.0203693000003,0.02036930000031134,None,,168.37197710000328,168.37197710000328,168.37197710000328,168.37197710000328,168.37197710000328,168.37197710000328,168.37197710000328,168.37197710000328,168.37197710000328,168.37197710000328,002,P001,2025_Jan_17_1821,ConditionRich,2021.2.3,59.9394611429402,
136.75,137.0,41,0.0,Stimuli/Blank.png,0,0,0.0,0,235,235,235,,,,,,,,,,,,,136.77026409999962,0.020264099999621976,None,,169.12263969999913,169.12263969999913,169.12263969999913,169.12263969999913,169.12263969999913,169.12263969999913,169.12263969999913,169.12263969999913,169.12263969999913,169.12263969999913,002,P001,2025_Jan_17_1821,ConditionRich,2021.2.3,59.9394611429402,
137.0,137.75,37,0.75,Stimuli/P001/things_starfish_01b.jpg,0,0,0.0,0,236,236,236,,,,,,,,,,,,,137.0201018000007,0.020101800000702497,None,,169.35617600000114,169.35617600000114,169.35617600000114,169.35617600000114,169.35617600000114,169.35617600000114,169.35617600000114,169.35617600000114,169.35617600000114,169.35617600000114,002,P001,2025_Jan_17_1821,ConditionRich,2021.2.3,59.9394611429402,
137.75,138.0,41,0.0,Stimuli/Blank.png,0,0,0.0,0,237,237,237,,,,,,,,,,,,,137.7554439000014,0.005443900001409929,5,0.20009209999989253,170.1068488000019,170.1068488000019,170.1068488000019,170.1068488000019,170.1068488000019,170.1068488000019,170.1068488000019,170.1068488000019,170.1068488000019,170.1068488000019,002,P001,2025_Jan_17_1821,ConditionRich,2021.2.3,59.9394611429402,
138.0,138.75,37,0.75,Stimuli/P001/things_starfish_01b.jpg,0,0,0.0,0,238,238,238,,,,,,,,,,,,,138.02015180000308,0.02015180000307737,None,,170.35706129999744,170.35706129999744,170.35706129999744,170.35706129999744,170.35706129999744,170.35706129999744,170.35706129999744,170.35706129999744,170.35706129999744,170.35706129999744,002,P001,2025_Jan_17_1821,ConditionRich,2021.2.3,59.9394611429402,
138.75,139.0,41,0.0,Stimuli/Blank.png,0,0,0.0,0,239,239,239,,,,,,,,,,,,,138.754657700003,0.004657700003008358,None,,171.09105010000349,171.09105010000349,171.09105010000349,171.09105010000349,171.09105010000349,171.09105010000349,171.09105010000349,171.09105010000349,171.09105010000349,171.09105010000349,002,P001,2025_Jan_17_1821,ConditionRich,2021.2.3,59.9394611429402,
139.0,139.75,37,0.75,Stimuli/P001/things_starfish_01b.jpg,0,0,0.0,0,240,240,240,,,,,,,,,,,,,139.00522240000282,0.005222400002821814,None,,171.35794229999738,171.35794229999738,171.35794229999738,171.35794229999738,171.35794229999738,171.35794229999738,171.35794229999738,171.35794229999738,171.35794229999738,171.35794229999738,002,P001,2025_Jan_17_1821,ConditionRich,2021.2.3,59.9394611429402,
139.75,140.0,41,0.0,Stimuli/Blank.png,0,0,0.0,0,241,241,241,,,,,,,,,,,,,139.77228450000257,0.022284500002569985,5,0.19838879999588244,172.10869139999704,172.10869139999704,172.10869139999704,172.10869139999704,172.10869139999704,172.10869139999704,172.10869139999704,172.10869139999704,172.10869139999704,172.10869139999704,002,P001,2025_Jan_17_1821,ConditionRich,2021.2.3,59.9394611429402,
140.0,140.75,22,0.75,Stimuli/P001/things_boy_01b.jpg,0,0,0.0,0,242,242,242,,,,,,,,,,,,,140.00643169999967,0.006431699999666307,None,,172.3588299000039,172.3588299000039,172.3588299000039,172.3588299000039,172.3588299000039,172.3588299000039,172.3588299000039,172.3588299000039,172.3588299000039,172.3588299000039,002,P001,2025_Jan_17_1821,ConditionRich,2021.2.3,59.9394611429402,
140.75,141.0,41,0.0,Stimuli/Blank.png,0,0,0.0,0,243,243,243,,,,,,,,,,,,,140.7753092999992,0.025309299999207724,None,,173.12618369999836,173.12618369999836,173.12618369999836,173.12618369999836,173.12618369999836,173.12618369999836,173.12618369999836,173.12618369999836,173.12618369999836,173.12618369999836,002,P001,2025_Jan_17_1821,ConditionRich,2021.2.3,59.9394611429402,
141.0,141.75,22,0.75,Stimuli/P001/things_boy_01b.jpg,0,0,0.0,0,244,244,244,,,,,,,,,,,,,141.0250390000001,0.02503900000010617,None,,173.37644480000017,173.37644480000017,173.37644480000017,173.37644480000017,173.37644480000017,173.37644480000017,173.37644480000017,173.37644480000017,173.37644480000017,173.37644480000017,002,P001,2025_Jan_17_1821,ConditionRich,2021.2.3,59.9394611429402,
141.75,142.0,41,0.0,Stimuli/Blank.png,0,0,0.0,0,245,245,245,,,,,,,,,,,,,141.77416810000432,0.02416810000431724,5,0.19658190000336617,174.1103903999974,174.1103903999974,174.1103903999974,174.1103903999974,174.1103903999974,174.1103903999974,174.1103903999974,174.1103903999974,174.1103903999974,174.1103903999974,002,P001,2025_Jan_17_1821,ConditionRich,2021.2.3,59.9394611429402,
142.0,142.75,22,0.75,Stimuli/P001/things_boy_01b.jpg,0,0,0.0,0,246,246,246,,,,,,,,,,,,,142.0069347000026,0.006934700002602767,None,,174.34392490000027,174.34392490000027,174.34392490000027,174.34392490000027,174.34392490000027,174.34392490000027,174.34392490000027,174.34392490000027,174.34392490000027,174.34392490000027,002,P001,2025_Jan_17_1821,ConditionRich,2021.2.3,59.9394611429402,
142.75,143.0,41,0.0,Stimuli/Blank.png,0,0,0.0,0,247,247,247,,,,,,,,,,,,,142.75972040000488,0.009720400004880503,None,,175.1112723999977,175.1112723999977,175.1112723999977,175.1112723999977,175.1112723999977,175.1112723999977,175.1112723999977,175.1112723999977,175.1112723999977,175.1112723999977,002,P001,2025_Jan_17_1821,ConditionRich,2021.2.3,59.9394611429402,
143.0,143.75,22,0.75,Stimuli/P001/things_boy_01b.jpg,1,0,0.75,0,248,248,248,,,,,,,,,,,,,143.02430710000044,0.024307100000442006,3,0.4874287999991793,175.36148479999974,175.36148479999974,175.36148479999974,175.36148479999974,175.36148479999974,175.36148479999974,175.36148479999974,None,175.36148479999974,175.36148479999974,002,P001,2025_Jan_17_1821,ConditionRich,2021.2.3,59.9394611429402,
143.75,144.0,41,0.0,Stimuli/Blank.png,0,0,0.0,0,249,249,249,,,,,,,,,,,,,143.76113769999938,0.011137699999380857,5,0.19491939999716124,176.1121772999977,176.1121772999977,176.1121772999977,176.1121772999977,176.1121772999977,176.1121772999977,176.1121772999977,176.1121772999977,176.1121772999977,176.1121772999977,002,P001,2025_Jan_17_1821,ConditionRich,2021.2.3,59.9394611429402,
144.0,144.75,25,0.75,Stimuli/P001/things_curry_01b.jpg,0,0,0.0,0,250,250,250,,,,,,,,,,,,,144.0256509000028,0.02565090000280179,None,,176.36237640000036,176.36237640000036,176.36237640000036,176.36237640000036,176.36237640000036,176.36237640000036,176.36237640000036,176.36237640000036,176.36237640000036,176.36237640000036,002,P001,2025_Jan_17_1821,ConditionRich,2021.2.3,59.9394611429402,
144.75,145.0,41,0.0,Stimuli/Blank.png,0,0,0.0,0,251,251,251,,,,,,,,,,,,,144.7610859999986,0.01108599999861326,None,,177.11305459999858,177.11305459999858,177.11305459999858,177.11305459999858,177.11305459999858,177.11305459999858,177.11305459999858,177.11305459999858,177.11305459999858,177.11305459999858,002,P001,2025_Jan_17_1821,ConditionRich,2021.2.3,59.9394611429402,
145.0,145.75,25,0.75,Stimuli/P001/things_curry_01b.jpg,0,0,0.0,0,252,252,252,,,,,,,,,,,,,145.02646500000264,0.026465000002644956,None,,177.3632518000013,177.3632518000013,177.3632518000013,177.3632518000013,177.3632518000013,177.3632518000013,177.3632518000013,177.3632518000013,177.3632518000013,177.3632518000013,002,P001,2025_Jan_17_1821,ConditionRich,2021.2.3,59.9394611429402,
145.75,146.0,41,0.0,Stimuli/Blank.png,0,0,0.0,0,253,253,253,,,,,,,,,,,,,145.7607624000011,0.010762400001112837,5,0.20965140000043903,178.0972357999999,178.0972357999999,178.0972357999999,178.0972357999999,178.0972357999999,178.0972357999999,178.0972357999999,178.0972357999999,178.0972357999999,178.0972357999999,002,P001,2025_Jan_17_1821,ConditionRich,2021.2.3,59.9394611429402,
146.0,146.75,25,0.75,Stimuli/P001/things_curry_01b.jpg,0,0,0.0,0,254,254,254,,,,,,,,,,,,,146.01030430000537,0.01030430000537308,None,,178.34745939999993,178.34745939999993,178.34745939999993,178.34745939999993,178.34745939999993,178.34745939999993,178.34745939999993,178.34745939999993,178.34745939999993,178.34745939999993,002,P001,2025_Jan_17_1821,ConditionRich,2021.2.3,59.9394611429402,
146.75,147.0,41,0.0,Stimuli/Blank.png,0,0,0.0,0,255,255,255,,,,,,,,,,,,,146.76152790000197,0.011527900001965463,None,,179.0980972000034,179.0980972000034,179.0980972000034,179.0980972000034,179.0980972000034,179.0980972000034,179.0980972000034,179.0980972000034,179.0980972000034,179.0980972000034,002,P001,2025_Jan_17_1821,ConditionRich,2021.2.3,59.9394611429402,
147.0,147.75,25,0.75,Stimuli/P001/things_curry_01b.jpg,1,0,0.75,0,256,256,256,,,,,,,,,,,,,147.01210040000296,0.012100400002964307,3,0.4638303999963682,179.36502969999856,179.36502969999856,179.36502969999856,179.36502969999856,179.36502969999856,179.36502969999856,179.36502969999856,180.0823309999978,179.36502969999856,179.36502969999856,002,P001,2025_Jan_17_1821,ConditionRich,2021.2.3,59.9394611429402,
147.75,148.0,41,0.0,Stimuli/Blank.png,0,0,0.0,0,257,257,257,,,,,,,,,,,,,147.77855080000154,0.028550800001539756,5,0.19128949999867473,180.1156822999983,180.1156822999983,180.1156822999983,180.1156822999983,180.1156822999983,180.1156822999983,180.1156822999983,180.1156822999983,180.1156822999983,180.1156822999983,002,P001,2025_Jan_17_1821,ConditionRich,2021.2.3,59.9394611429402,
148.0,148.75,29,0.75,Stimuli/P001/things_grinder_01b.jpg,0,0,0.0,0,258,258,258,,,,,,,,,,,,,148.01308920000156,0.01308920000155922,None,,180.34922460000234,180.34922460000234,180.34922460000234,180.34922460000234,180.34922460000234,180.34922460000234,180.34922460000234,180.34922460000234,180.34922460000234,180.34922460000234,002,P001,2025_Jan_17_1821,ConditionRich,2021.2.3,59.9394611429402,
148.75,149.0,41,0.0,Stimuli/Blank.png,0,0,0.0,0,259,259,259,,,,,,,,,,,,,148.76541390000057,0.015413900000567082,None,,181.11657320000086,181.11657320000086,181.11657320000086,181.11657320000086,181.11657320000086,181.11657320000086,181.11657320000086,181.11657320000086,181.11657320000086,181.11657320000086,002,P001,2025_Jan_17_1821,ConditionRich,2021.2.3,59.9394611429402,
