eventStartTime,eventEndTime,eventCond,imSize,imFile,responseEvent,fixRespStart,fixRespEnd,Events.thisRepN,Events.thisTrialN,Events.thisN,Events.thisIndex,Instructions.started,Instructions.stopped,participantReadyResponse.keys,participantReadyResponse.rt,participantReadyResponse.started,participantReadyResponse.stopped,startWaitforTrigger,triggerResponse.keys,triggerResponse.rt,triggerResponse.started,triggerResponse.stopped,globalTimer,actualStartTime,startTimingDiff,participantResponse.keys,participantResponse.rt,participantResponse.started,participantResponse.stopped,image.started,image.stopped,fixationOutside.started,fixationOutside.stopped,fixationResponse.started,fixationResponse.stopped,fixationInside.started,fixationInside.stopped,session,participant,date,expName,psychopyVersion,frameRate,
,,,,,,,,,,,,11.287580899996101,None,3,1.6510988000009093,11.287580899996101,None,,,,,,,,,,,,,,,,,,,,,009,P001,2025_Jan_17_1929,ConditionRich,2021.2.3,59.94186837738966,
,,,,,,,,,,,,,,,,,,12.94740169999568,5,13.320330199996533,12.960244399997464,None,,,,,,,,,,,,,,,,009,P001,2025_Jan_17_1929,ConditionRich,2021.2.3,59.94186837738966,
0.0,4.0,0,0.0,Stimuli/Blank.png,0,0,0.0,0,0,0,0,,,,,,,,,,,,26.29191059999721,0.017238399996131193,0.017238399996131193,5,1.9584513999943738,26.32208929999615,None,26.32208929999615,None,26.32208929999615,None,26.32208929999615,26.32208929999615,26.32208929999615,None,009,P001,2025_Jan_17_1929,ConditionRich,2021.2.3,59.94186837738966,
4.0,7.75,5,0.75,Stimuli/P001/sun_apwzcrxhvvnrexjh.jpg,0,0,0.0,0,1,1,1,,,,,,,,,,,,,4.0074588999996195,0.007458899999619462,5,1.9550094999940484,30.325928099999146,30.325928099999146,30.325928099999146,30.325928099999146,30.325928099999146,30.325928099999146,30.325928099999146,30.325928099999146,30.325928099999146,30.325928099999146,009,P001,2025_Jan_17_1929,ConditionRich,2021.2.3,59.94186837738966,
7.75,8.0,41,0.0,Stimuli/Blank.png,0,0,0.0,0,2,2,2,,,,,,,,,,,,,7.775331199998618,0.025331199998618104,5,0.1846441000016057,34.09596159999637,34.09596159999637,34.09596159999637,34.09596159999637,34.09596159999637,34.09596159999637,34.09596159999637,34.09596159999637,34.09596159999637,34.09596159999637,009,P001,2025_Jan_17_1929,ConditionRich,2021.2.3,59.94186837738966,
8.0,11.75,16,0.75,Stimuli/P001/sun_biqyomkjbujnppuf.jpg,0,0,0.0,0,3,3,3,,,,,,,,,,,,,8.02578530000028,0.025785300000279676,5,1.9348274000003585,34.34585099999822,34.34585099999822,34.34585099999822,34.34585099999822,34.34585099999822,34.34585099999822,34.34585099999822,34.34585099999822,34.34585099999822,34.34585099999822,009,P001,2025_Jan_17_1929,ConditionRich,2021.2.3,59.94186837738966,
11.75,12.0,41,0.0,Stimuli/Blank.png,0,0,0.0,0,4,4,4,,,,,,,,,,,,,11.776935000001686,0.026935000001685694,5,0.198068499994406,38.08249399999477,38.08249399999477,38.08249399999477,38.08249399999477,38.08249399999477,38.08249399999477,38.08249399999477,38.08249399999477,38.08249399999477,38.08249399999477,009,P001,2025_Jan_17_1929,ConditionRich,2021.2.3,59.94186837738966,
12.0,15.75,2,0.75,Stimuli/P001/sun_akmxsxepquhynflp.jpg,1,2,2.75,0,5,5,5,,,,,,,,,,,,,12.00970889999735,0.009708899997349363,3,2.4816858999984106,38.3160024999961,38.3160024999961,38.3160024999961,38.3160024999961,38.3160024999961,38.3160024999961,40.30119679999916,41.05182529999729,38.3160024999961,38.3160024999961,009,P001,2025_Jan_17_1929,ConditionRich,2021.2.3,59.94186837738966,
15.75,16.0,41,0.0,Stimuli/Blank.png,0,0,0.0,0,6,6,6,,,,,,,,,,,,,15.76294439999765,0.01294439999765018,5,0.21135369999683462,42.06938349999837,42.06938349999837,42.06938349999837,42.06938349999837,42.06938349999837,42.06938349999837,42.06938349999837,42.06938349999837,42.06938349999837,42.06938349999837,009,P001,2025_Jan_17_1929,ConditionRich,2021.2.3,59.94186837738966,
16.0,19.75,39,0.75,Stimuli/P001/things_woman_01b.jpg,0,0,0.0,0,7,7,7,,,,,,,,,,,,,16.012959799998498,0.012959799998498056,5,1.961162699997658,42.31956799999898,42.31956799999898,42.31956799999898,42.31956799999898,42.31956799999898,42.31956799999898,42.31956799999898,42.31956799999898,42.31956799999898,42.31956799999898,009,P001,2025_Jan_17_1929,ConditionRich,2021.2.3,59.94186837738966,
19.75,20.0,41,0.0,Stimuli/Blank.png,0,0,0.0,0,8,8,8,,,,,,,,,,,,,19.75040959999751,0.0004095999975106679,None,,46.05620479999925,46.05620479999925,46.05620479999925,46.05620479999925,46.05620479999925,46.05620479999925,46.05620479999925,46.05620479999925,46.05620479999925,46.05620479999925,009,P001,2025_Jan_17_1929,ConditionRich,2021.2.3,59.94186837738966,
20.0,23.75,18,0.75,Stimuli/P001/sun_bzjegfvyrvqtunza.jpg,0,0,0.0,0,9,9,9,,,,,,,,,,,,,20.0002028999952,0.00020289999520173296,5,1.9741491999957361,46.30642209999496,46.30642209999496,46.30642209999496,46.30642209999496,46.30642209999496,46.30642209999496,46.30642209999496,46.30642209999496,46.30642209999496,46.30642209999496,009,P001,2025_Jan_17_1929,ConditionRich,2021.2.3,59.94186837738966,
23.75,24.0,41,0.0,Stimuli/Blank.png,0,0,0.0,0,10,10,10,,,,,,,,,,,,,23.753806399996392,0.003806399996392429,None,,50.059735299997556,50.059735299997556,50.059735299997556,50.059735299997556,50.059735299997556,50.059735299997556,50.059735299997556,50.059735299997556,50.059735299997556,50.059735299997556,009,P001,2025_Jan_17_1929,ConditionRich,2021.2.3,59.94186837738966,
24.0,27.75,13,0.75,Stimuli/P001/sun_bfdmlbkyioxnkodb.jpg,0,0,0.0,0,11,11,11,,,,,,,,,,,,,24.003940099995816,0.0039400999958161265,5,1.9705513000008068,50.3099596999964,50.3099596999964,50.3099596999964,50.3099596999964,50.3099596999964,50.3099596999964,50.3099596999964,50.3099596999964,50.3099596999964,50.3099596999964,009,P001,2025_Jan_17_1929,ConditionRich,2021.2.3,59.94186837738966,
27.75,28.0,41,0.0,Stimuli/Blank.png,0,0,0.0,0,12,12,12,,,,,,,,,,,,,27.759785099995497,0.009785099995497148,5,0.20058309999876656,54.079959199996665,54.079959199996665,54.079959199996665,54.079959199996665,54.079959199996665,54.079959199996665,54.079959199996665,54.079959199996665,54.079959199996665,54.079959199996665,009,P001,2025_Jan_17_1929,ConditionRich,2021.2.3,59.94186837738966,
28.0,31.75,35,0.75,Stimuli/P001/things_pepperoni_01b.jpg,0,0,0.0,0,13,13,13,,,,,,,,,,,,,28.02507460000197,0.025074600001971703,5,1.9336543000026722,54.346875700000965,54.346875700000965,54.346875700000965,54.346875700000965,54.346875700000965,54.346875700000965,54.346875700000965,54.346875700000965,54.346875700000965,54.346875700000965,009,P001,2025_Jan_17_1929,ConditionRich,2021.2.3,59.94186837738966,
31.75,32.0,41,0.0,Stimuli/Blank.png,0,0,0.0,0,14,14,14,,,,,,,,,,,,,31.7796251999971,0.029625199997099116,5,0.18032359999779146,58.10018489999493,58.10018489999493,58.10018489999493,58.10018489999493,58.10018489999493,58.10018489999493,58.10018489999493,58.10018489999493,58.10018489999493,58.10018489999493,009,P001,2025_Jan_17_1929,ConditionRich,2021.2.3,59.94186837738966,
32.0,35.75,3,0.75,Stimuli/P001/sun_amarqtinchblqmah.jpg,0,0,0.0,0,15,15,15,,,,,,,,,,,,,32.02957649999735,0.029576499997347128,5,1.9301817000014125,58.35040969999682,58.35040969999682,58.35040969999682,58.35040969999682,58.35040969999682,58.35040969999682,58.35040969999682,58.35040969999682,58.35040969999682,58.35040969999682,009,P001,2025_Jan_17_1929,ConditionRich,2021.2.3,59.94186837738966,
35.75,36.0,41,0.0,Stimuli/Blank.png,0,0,0.0,0,16,16,16,,,,,,,,,,,,,35.76477719999821,0.014777199998206925,5,0.21016960000270046,62.07035399999586,62.07035399999586,62.07035399999586,62.07035399999586,62.07035399999586,62.07035399999586,62.07035399999586,62.07035399999586,62.07035399999586,62.07035399999586,009,P001,2025_Jan_17_1929,ConditionRich,2021.2.3,59.94186837738966,
36.0,39.75,31,0.75,Stimuli/P001/things_man_01b.jpg,1,3,3.75,0,17,17,17,,,,,,,,,,,,,36.0150547000012,0.015054700001201127,3,3.3831083000040962,62.320573400000285,62.320573400000285,62.320573400000285,62.320573400000285,62.320573400000285,62.320573400000285,65.30658559999574,None,62.320573400000285,62.320573400000285,009,P001,2025_Jan_17_1929,ConditionRich,2021.2.3,59.94186837738966,
39.75,40.0,41,0.0,Stimuli/Blank.png,0,0,0.0,0,18,18,18,,,,,,,,,,,,,39.751969799996004,0.00196979999600444,None,,66.05729399999836,66.05729399999836,66.05729399999836,66.05729399999836,66.05729399999836,66.05729399999836,66.05729399999836,66.05729399999836,66.05729399999836,66.05729399999836,009,P001,2025_Jan_17_1929,ConditionRich,2021.2.3,59.94186837738966,
40.0,43.75,33,0.75,Stimuli/P001/things_pan_01b.jpg,0,0,0.0,0,19,19,19,,,,,,,,,,,,,40.002584599998954,0.002584599998954218,5,1.973530600000231,66.30743380000058,66.30743380000058,66.30743380000058,66.30743380000058,66.30743380000058,66.30743380000058,66.30743380000058,66.30743380000058,66.30743380000058,66.30743380000058,009,P001,2025_Jan_17_1929,ConditionRich,2021.2.3,59.94186837738966,
43.75,44.0,41,0.0,Stimuli/Blank.png,0,0,0.0,0,20,20,20,,,,,,,,,,,,,43.754952800001774,0.004952800001774449,None,,70.060756699997,70.060756699997,70.060756699997,70.060756699997,70.060756699997,70.060756699997,70.060756699997,70.060756699997,70.060756699997,70.060756699997,009,P001,2025_Jan_17_1929,ConditionRich,2021.2.3,59.94186837738966,
44.0,47.75,6,0.75,Stimuli/P001/sun_aqbaaqeojrexbmcr.jpg,0,0,0.0,0,21,21,21,,,,,,,,,,,,,44.00485379999736,0.0048537999973632395,5,1.9695984999998473,70.31097999999474,70.31097999999474,70.31097999999474,70.31097999999474,70.31097999999474,70.31097999999474,70.31097999999474,70.31097999999474,70.31097999999474,70.31097999999474,009,P001,2025_Jan_17_1929,ConditionRich,2021.2.3,59.94186837738966,
47.75,48.0,41,0.0,Stimuli/Blank.png,0,0,0.0,0,22,22,22,,,,,,,,,,,,,47.75997559999814,0.00997559999814257,5,0.1996246999988216,74.08099469999433,74.08099469999433,74.08099469999433,74.08099469999433,74.08099469999433,74.08099469999433,74.08099469999433,74.08099469999433,74.08099469999433,74.08099469999433,009,P001,2025_Jan_17_1929,ConditionRich,2021.2.3,59.94186837738966,
48.0,51.75,29,0.75,Stimuli/P001/things_grinder_01b.jpg,0,0,0.0,0,23,23,23,,,,,,,,,,,,,48.02561489999789,0.02561489999789046,5,1.9494818999955896,74.33118799999647,74.33118799999647,74.33118799999647,74.33118799999647,74.33118799999647,74.33118799999647,74.33118799999647,74.33118799999647,74.33118799999647,74.33118799999647,009,P001,2025_Jan_17_1929,ConditionRich,2021.2.3,59.94186837738966,
51.75,52.0,41,0.0,Stimuli/Blank.png,0,0,0.0,0,24,24,24,,,,,,,,,,,,,51.76481100000092,0.014811000000918284,5,0.1960417000009329,78.08452419999958,78.08452419999958,78.08452419999958,78.08452419999958,78.08452419999958,78.08452419999958,78.08452419999958,78.08452419999958,78.08452419999958,78.08452419999958,009,P001,2025_Jan_17_1929,ConditionRich,2021.2.3,59.94186837738966,
52.0,55.75,7,0.75,Stimuli/P001/sun_arlesyjqxmqmcccl.jpg,0,0,0.0,0,25,25,25,,,,,,,,,,,,,52.02922579999722,0.029225799997220747,5,1.9460119999930612,78.33472909999546,78.33472909999546,78.33472909999546,78.33472909999546,78.33472909999546,78.33472909999546,78.33472909999546,78.33472909999546,78.33472909999546,78.33472909999546,009,P001,2025_Jan_17_1929,ConditionRich,2021.2.3,59.94186837738966,
55.75,56.0,41,0.0,Stimuli/Blank.png,0,0,0.0,0,26,26,26,,,,,,,,,,,,,55.74932109999645,-0.0006789000035496429,None,,82.05470090000017,82.05470090000017,82.05470090000017,82.05470090000017,82.05470090000017,82.05470090000017,82.05470090000017,82.05470090000017,82.05470090000017,82.05470090000017,009,P001,2025_Jan_17_1929,ConditionRich,2021.2.3,59.94186837738966,
56.0,59.75,19,0.75,Stimuli/P001/sun_bzyyqqczvrnvukdn.jpg,1,1,1.75,0,27,27,27,,,,,,,,,,,,,55.99915930000134,-0.0008406999986618757,5,1.9589677000039956,82.32157399999414,82.32157399999414,82.32157399999414,82.32157399999414,82.32157399999414,82.32157399999414,83.2891410999946,84.03976770000008,82.32157399999414,82.32157399999414,009,P001,2025_Jan_17_1929,ConditionRich,2021.2.3,59.94186837738966,
59.75,60.0,41,0.0,Stimuli/Blank.png,0,0,0.0,0,28,28,28,,,,,,,,,,,,,59.77012249999825,0.020122499998251442,None,,86.07491350000055,86.07491350000055,86.07491350000055,86.07491350000055,86.07491350000055,86.07491350000055,86.07491350000055,86.07491350000055,86.07491350000055,86.07491350000055,009,P001,2025_Jan_17_1929,ConditionRich,2021.2.3,59.94186837738966,
60.0,63.75,14,0.75,Stimuli/P001/sun_bfgxassmmvhtarcc.jpg,0,0,0.0,0,29,29,29,,,,,,,,,,,,,60.00320759999886,0.003207599998859223,5,1.9555206000004546,86.32508529999905,86.32508529999905,86.32508529999905,86.32508529999905,86.32508529999905,86.32508529999905,86.32508529999905,86.32508529999905,86.32508529999905,86.32508529999905,009,P001,2025_Jan_17_1929,ConditionRich,2021.2.3,59.94186837738966,
63.75,64.0,41,0.0,Stimuli/Blank.png,0,0,0.0,0,30,30,30,,,,,,,,,,,,,63.77267700000084,0.022677000000840053,None,,90.07845909999742,90.07845909999742,90.07845909999742,90.07845909999742,90.07845909999742,90.07845909999742,90.07845909999742,90.07845909999742,90.07845909999742,90.07845909999742,009,P001,2025_Jan_17_1929,ConditionRich,2021.2.3,59.94186837738966,
64.0,67.75,1,0.75,Stimuli/P001/sun_agpgdwkhzgvzdaea.jpg,1,0,0.75,0,31,31,31,,,,,,,,,,,,,64.00583750000078,0.005837500000779983,5,1.9687940999938291,90.31198579999909,90.31198579999909,90.31198579999909,90.31198579999909,90.31198579999909,90.31198579999909,90.31198579999909,91.04595549999794,90.31198579999909,90.31198579999909,009,P001,2025_Jan_17_1929,ConditionRich,2021.2.3,59.94186837738966,
67.75,68.0,41,0.0,Stimuli/Blank.png,0,0,0.0,0,32,32,32,,,,,,,,,,,,,67.76015199999529,0.010151999995287042,5,0.21523140000499552,94.0653067999956,94.0653067999956,94.0653067999956,94.0653067999956,94.0653067999956,94.0653067999956,94.0653067999956,94.0653067999956,94.0653067999956,94.0653067999956,009,P001,2025_Jan_17_1929,ConditionRich,2021.2.3,59.94186837738966,
68.0,71.75,34,0.75,Stimuli/P001/things_parrot_01b.jpg,0,0,0.0,0,33,33,33,,,,,,,,,,,,,68.01012600000104,0.010126000001037028,5,1.9485003000008874,94.33219670000108,94.33219670000108,94.33219670000108,94.33219670000108,94.33219670000108,94.33219670000108,94.33219670000108,94.33219670000108,94.33219670000108,94.33219670000108,009,P001,2025_Jan_17_1929,ConditionRich,2021.2.3,59.94186837738966,
71.75,72.0,41,0.0,Stimuli/Blank.png,0,0,0.0,0,34,34,34,,,,,,,,,,,,,71.7799914999996,0.02999149999959627,5,0.19498079999902984,98.0855905999997,98.0855905999997,98.0855905999997,98.0855905999997,98.0855905999997,98.0855905999997,98.0855905999997,98.0855905999997,98.0855905999997,98.0855905999997,009,P001,2025_Jan_17_1929,ConditionRich,2021.2.3,59.94186837738966,
72.0,75.75,15,0.75,Stimuli/P001/sun_bfzoxbkvsfqxsyle.jpg,0,0,0.0,0,35,35,35,,,,,,,,,,,,,72.01367239999672,0.013672399996721651,5,1.9450231999944663,98.33573559999786,98.33573559999786,98.33573559999786,98.33573559999786,98.33573559999786,98.33573559999786,98.33573559999786,98.33573559999786,98.33573559999786,98.33573559999786,009,P001,2025_Jan_17_1929,ConditionRich,2021.2.3,59.94186837738966,
75.75,76.0,41,0.0,Stimuli/Blank.png,0,0,0.0,0,36,36,36,,,,,,,,,,,,,75.76651589999528,0.01651589999528369,None,,102.07237439999881,102.07237439999881,102.07237439999881,102.07237439999881,102.07237439999881,102.07237439999881,102.07237439999881,102.07237439999881,102.07237439999881,102.07237439999881,009,P001,2025_Jan_17_1929,ConditionRich,2021.2.3,59.94186837738966,
76.0,79.75,20,0.75,Stimuli/P001/sun_dkgctqgpvxbaoyks.jpg,0,0,0.0,0,37,37,37,,,,,,,,,,,,,76.00027730000147,0.0002773000014713034,5,1.9746742999996059,102.30591699999786,102.30591699999786,102.30591699999786,102.30591699999786,102.30591699999786,102.30591699999786,102.30591699999786,102.30591699999786,102.30591699999786,102.30591699999786,009,P001,2025_Jan_17_1929,ConditionRich,2021.2.3,59.94186837738966,
79.75,80.0,41,0.0,Stimuli/Blank.png,0,0,0.0,0,38,38,38,,,,,,,,,,,,,79.75384440000198,0.00384440000198083,None,,106.05924409999716,106.05924409999716,106.05924409999716,106.05924409999716,106.05924409999716,106.05924409999716,106.05924409999716,106.05924409999716,106.05924409999716,106.05924409999716,009,P001,2025_Jan_17_1929,ConditionRich,2021.2.3,59.94186837738966,
80.0,83.75,21,0.75,Stimuli/P001/things_baby_01b.jpg,0,0,0.0,0,39,39,39,,,,,,,,,,,,,80.00381919999927,0.003819199999270495,5,1.971268900000723,106.30945229999634,106.30945229999634,106.30945229999634,106.30945229999634,106.30945229999634,106.30945229999634,106.30945229999634,106.30945229999634,106.30945229999634,106.30945229999634,009,P001,2025_Jan_17_1929,ConditionRich,2021.2.3,59.94186837738966,
83.75,84.0,41,0.0,Stimuli/Blank.png,0,0,0.0,0,40,40,40,,,,,,,,,,,,,83.75933760000044,0.009337600000435486,5,0.20116979999875184,110.0794539999988,110.0794539999988,110.0794539999988,110.0794539999988,110.0794539999988,110.0794539999988,110.0794539999988,110.0794539999988,110.0794539999988,110.0794539999988,009,P001,2025_Jan_17_1929,ConditionRich,2021.2.3,59.94186837738966,
84.0,100.0,0,0.0,Stimuli/Blank.png,1,10,10.75,0,41,41,41,,,,,,,,,,,,,84.0237163999991,0.023716399999102578,5,13.951050600000599,110.32968339999934,110.32968339999934,110.32968339999934,110.32968339999934,110.32968339999934,110.32968339999934,120.32189799999469,121.05582380000124,110.32968339999934,110.32968339999934,009,P001,2025_Jan_17_1929,ConditionRich,2021.2.3,59.94186837738966,
100.0,103.75,4,0.75,Stimuli/P001/sun_aonjwqswdblhlpkm.jpg,0,0,0.0,0,42,42,42,,,,,,,,,,,,,100.00483330000134,0.004833300001337193,5,1.9702292000001762,126.31046849999984,126.31046849999984,126.31046849999984,126.31046849999984,126.31046849999984,126.31046849999984,126.31046849999984,126.31046849999984,126.31046849999984,126.31046849999984,009,P001,2025_Jan_17_1929,ConditionRich,2021.2.3,59.94186837738966,
103.75,104.0,41,0.0,Stimuli/Blank.png,0,0,0.0,0,43,43,43,,,,,,,,,,,,,103.76044610000099,0.010446100000990555,5,0.20013420000032056,130.0804700000008,130.0804700000008,130.0804700000008,130.0804700000008,130.0804700000008,130.0804700000008,130.0804700000008,130.0804700000008,130.0804700000008,130.0804700000008,009,P001,2025_Jan_17_1929,ConditionRich,2021.2.3,59.94186837738966,
104.0,107.75,10,0.75,Stimuli/P001/sun_aykefnhciwsffcrj.jpg,0,0,0.0,0,44,44,44,,,,,,,,,,,,,104.02437199999986,0.024371999999857508,5,1.9499075999992783,130.33069939999405,130.33069939999405,130.33069939999405,130.33069939999405,130.33069939999405,130.33069939999405,130.33069939999405,130.33069939999405,130.33069939999405,130.33069939999405,009,P001,2025_Jan_17_1929,ConditionRich,2021.2.3,59.94186837738966,
107.75,108.0,41,0.0,Stimuli/Blank.png,0,0,0.0,0,45,45,45,,,,,,,,,,,,,107.7616898999986,0.011689899998600595,5,0.21335729999555042,134.06732239999837,134.06732239999837,134.06732239999837,134.06732239999837,134.06732239999837,134.06732239999837,134.06732239999837,134.06732239999837,134.06732239999837,134.06732239999837,009,P001,2025_Jan_17_1929,ConditionRich,2021.2.3,59.94186837738966,
108.0,111.75,27,0.75,Stimuli/P001/things_dynamite_01b.jpg,0,0,0.0,0,46,46,46,,,,,,,,,,,,,108.01178880000225,0.011788800002250355,5,1.9630006000006688,134.3175676999963,134.3175676999963,134.3175676999963,134.3175676999963,134.3175676999963,134.3175676999963,134.3175676999963,134.3175676999963,134.3175676999963,134.3175676999963,009,P001,2025_Jan_17_1929,ConditionRich,2021.2.3,59.94186837738966,
111.75,112.0,41,0.0,Stimuli/Blank.png,0,0,0.0,0,47,47,47,,,,,,,,,,,,,111.76522169999953,0.015221699999528937,5,0.21007660000032047,138.0708608999994,138.0708608999994,138.0708608999994,138.0708608999994,138.0708608999994,138.0708608999994,138.0708608999994,138.0708608999994,138.0708608999994,138.0708608999994,009,P001,2025_Jan_17_1929,ConditionRich,2021.2.3,59.94186837738966,
112.0,115.75,38,0.75,Stimuli/P001/things_windowsill_01b.jpg,1,3,3.75,0,48,48,48,,,,,,,,,,,,,112.01482350000151,0.014823500001512002,3,3.4247894000000088,138.32108409999637,138.32108409999637,138.32108409999637,138.32108409999637,138.32108409999637,138.32108409999637,141.30704729999707,None,138.32108409999637,138.32108409999637,009,P001,2025_Jan_17_1929,ConditionRich,2021.2.3,59.94186837738966,
115.75,116.0,41,0.0,Stimuli/Blank.png,0,0,0.0,0,49,49,49,,,,,,,,,,,,,115.75213020000228,0.002130200002284255,None,,142.05773369999952,142.05773369999952,142.05773369999952,142.05773369999952,142.05773369999952,142.05773369999952,142.05773369999952,142.05773369999952,142.05773369999952,142.05773369999952,009,P001,2025_Jan_17_1929,ConditionRich,2021.2.3,59.94186837738966,
116.0,119.75,37,0.75,Stimuli/P001/things_starfish_01b.jpg,0,0,0.0,0,50,50,50,,,,,,,,,,,,,116.00199340000108,0.0019934000010835007,5,1.9563166000007186,142.3246231000012,142.3246231000012,142.3246231000012,142.3246231000012,142.3246231000012,142.3246231000012,142.3246231000012,142.3246231000012,142.3246231000012,142.3246231000012,009,P001,2025_Jan_17_1929,ConditionRich,2021.2.3,59.94186837738966,
119.75,120.0,41,0.0,Stimuli/Blank.png,0,0,0.0,0,51,51,51,,,,,,,,,,,,,119.77229570000054,0.02229570000054082,None,,146.07795089999854,146.07795089999854,146.07795089999854,146.07795089999854,146.07795089999854,146.07795089999854,146.07795089999854,146.07795089999854,146.07795089999854,146.07795089999854,009,P001,2025_Jan_17_1929,ConditionRich,2021.2.3,59.94186837738966,
120.0,123.75,9,0.75,Stimuli/P001/sun_awtltwwpwbepuuqv.jpg,0,0,0.0,0,52,52,52,,,,,,,,,,,,,120.00502939999569,0.005029399995692074,5,1.9691592999952263,146.3114748999942,146.3114748999942,146.3114748999942,146.3114748999942,146.3114748999942,146.3114748999942,146.3114748999942,146.3114748999942,146.3114748999942,146.3114748999942,009,P001,2025_Jan_17_1929,ConditionRich,2021.2.3,59.94186837738966,
123.75,124.0,41,0.0,Stimuli/Blank.png,0,0,0.0,0,53,53,53,,,,,,,,,,,,,123.7589009000003,0.008900900000298861,5,0.21577909999905387,150.06480069999816,150.06480069999816,150.06480069999816,150.06480069999816,150.06480069999816,150.06480069999816,150.06480069999816,150.06480069999816,150.06480069999816,150.06480069999816,009,P001,2025_Jan_17_1929,ConditionRich,2021.2.3,59.94186837738966,
124.0,127.75,11,0.75,Stimuli/P001/sun_bbfdgdyeqdnadvvi.jpg,1,2,2.75,0,54,54,54,,,,,,,,,,,,,124.00896199999988,0.008961999999883119,3,2.368675199999416,150.31502389999514,150.31502389999514,150.31502389999514,150.31502389999514,150.31502389999514,150.31502389999514,152.30010309999489,153.05076709999412,150.31502389999514,150.31502389999514,009,P001,2025_Jan_17_1929,ConditionRich,2021.2.3,59.94186837738966,
127.75,128.0,41,0.0,Stimuli/Blank.png,0,0,0.0,0,55,55,55,,,,,,,,,,,,,127.76466400000209,0.014664000002085231,5,0.19560289999935776,154.0850111999971,154.0850111999971,154.0850111999971,154.0850111999971,154.0850111999971,154.0850111999971,154.0850111999971,154.0850111999971,154.0850111999971,154.0850111999971,009,P001,2025_Jan_17_1929,ConditionRich,2021.2.3,59.94186837738966,
128.0,131.75,12,0.75,Stimuli/P001/sun_bdxvmnlyovhqognn.jpg,0,0,0.0,0,56,56,56,,,,,,,,,,,,,128.02876229999674,0.028762299996742513,5,1.9455424000043422,154.33523639999476,154.33523639999476,154.33523639999476,154.33523639999476,154.33523639999476,154.33523639999476,154.33523639999476,154.33523639999476,154.33523639999476,154.33523639999476,009,P001,2025_Jan_17_1929,ConditionRich,2021.2.3,59.94186837738966,
131.75,132.0,41,0.0,Stimuli/Blank.png,0,0,0.0,0,57,57,57,,,,,,,,,,,,,131.7659840999986,0.015984099998604506,None,,158.07187669999985,158.07187669999985,158.07187669999985,158.07187669999985,158.07187669999985,158.07187669999985,158.07187669999985,158.07187669999985,158.07187669999985,158.07187669999985,009,P001,2025_Jan_17_1929,ConditionRich,2021.2.3,59.94186837738966,
132.0,135.75,8,0.75,Stimuli/P001/sun_asqboyqakusycvwd.jpg,0,0,0.0,0,58,58,58,,,,,,,,,,,,,131.9994321999984,-0.0005678000015905127,5,1.975272200004838,158.30542419999983,158.30542419999983,158.30542419999983,158.30542419999983,158.30542419999983,158.30542419999983,158.30542419999983,158.30542419999983,158.30542419999983,158.30542419999983,009,P001,2025_Jan_17_1929,ConditionRich,2021.2.3,59.94186837738966,
135.75,136.0,41,0.0,Stimuli/Blank.png,0,0,0.0,0,59,59,59,,,,,,,,,,,,,135.75478289999592,0.004782899995916523,5,0.2051592999996501,162.0754156999974,162.0754156999974,162.0754156999974,162.0754156999974,162.0754156999974,162.0754156999974,162.0754156999974,162.0754156999974,162.0754156999974,162.0754156999974,009,P001,2025_Jan_17_1929,ConditionRich,2021.2.3,59.94186837738966,
136.0,139.75,25,0.75,Stimuli/P001/things_curry_01b.jpg,0,0,0.0,0,60,60,60,,,,,,,,,,,,,136.0197474000015,0.01974740000150632,5,1.9552603999982239,162.3256321000008,162.3256321000008,162.3256321000008,162.3256321000008,162.3256321000008,162.3256321000008,162.3256321000008,162.3256321000008,162.3256321000008,162.3256321000008,009,P001,2025_Jan_17_1929,ConditionRich,2021.2.3,59.94186837738966,
139.75,140.0,41,0.0,Stimuli/Blank.png,0,0,0.0,0,61,61,61,,,,,,,,,,,,,139.756842099996,0.006842099995992612,5,0.2183424999966519,166.06227489999583,166.06227489999583,166.06227489999583,166.06227489999583,166.06227489999583,166.06227489999583,166.06227489999583,166.06227489999583,166.06227489999583,166.06227489999583,009,P001,2025_Jan_17_1929,ConditionRich,2021.2.3,59.94186837738966,
140.0,143.75,30,0.75,Stimuli/P001/things_iguana_01b.jpg,0,0,0.0,0,62,62,62,,,,,,,,,,,,,140.00690120000218,0.006901200002175756,5,1.9681265000035637,166.31249319999915,166.31249319999915,166.31249319999915,166.31249319999915,166.31249319999915,166.31249319999915,166.31249319999915,166.31249319999915,166.31249319999915,166.31249319999915,009,P001,2025_Jan_17_1929,ConditionRich,2021.2.3,59.94186837738966,
143.75,144.0,41,0.0,Stimuli/Blank.png,0,0,0.0,0,63,63,63,,,,,,,,,,,,,143.7603669999953,0.010366999995312653,5,0.21479779999936,170.06581529999676,170.06581529999676,170.06581529999676,170.06581529999676,170.06581529999676,170.06581529999676,170.06581529999676,170.06581529999676,170.06581529999676,170.06581529999676,009,P001,2025_Jan_17_1929,ConditionRich,2021.2.3,59.94186837738966,
144.0,147.75,17,0.75,Stimuli/P001/sun_bshgmgbmpvjkxfis.jpg,0,0,0.0,0,64,64,64,,,,,,,,,,,,,144.0098003000021,0.009800300002098083,5,1.964591299998574,170.31603089999408,170.31603089999408,170.31603089999408,170.31603089999408,170.31603089999408,170.31603089999408,170.31603089999408,170.31603089999408,170.31603089999408,170.31603089999408,009,P001,2025_Jan_17_1929,ConditionRich,2021.2.3,59.94186837738966,
147.75,148.0,41,0.0,Stimuli/Blank.png,0,0,0.0,0,65,65,65,,,,,,,,,,,,,147.76295989999926,0.012959899999259505,5,0.21143570000276668,174.06935079999676,174.06935079999676,174.06935079999676,174.06935079999676,174.06935079999676,174.06935079999676,174.06935079999676,174.06935079999676,174.06935079999676,174.06935079999676,009,P001,2025_Jan_17_1929,ConditionRich,2021.2.3,59.94186837738966,
148.0,151.75,24,0.75,Stimuli/P001/things_cornucopia_01b.jpg,0,0,0.0,0,66,66,66,,,,,,,,,,,,,148.01409409999906,0.014094099999056198,5,1.9612091000017244,174.3195684999955,174.3195684999955,174.3195684999955,174.3195684999955,174.3195684999955,174.3195684999955,174.3195684999955,174.3195684999955,174.3195684999955,174.3195684999955,009,P001,2025_Jan_17_1929,ConditionRich,2021.2.3,59.94186837738966,
151.75,152.0,41,0.0,Stimuli/Blank.png,0,0,0.0,0,67,67,67,,,,,,,,,,,,,151.74986029999855,-0.00013970000145491213,None,,178.05621099999553,178.05621099999553,178.05621099999553,178.05621099999553,178.05621099999553,178.05621099999553,178.05621099999553,178.05621099999553,178.05621099999553,178.05621099999553,009,P001,2025_Jan_17_1929,ConditionRich,2021.2.3,59.94186837738966,
152.0,155.75,28,0.75,Stimuli/P001/things_girl_01b.jpg,0,0,0.0,0,68,68,68,,,,,,,,,,,,,151.99988589999703,-0.00011410000297473744,5,1.9744415000022855,178.30642719999742,178.30642719999742,178.30642719999742,178.30642719999742,178.30642719999742,178.30642719999742,178.30642719999742,178.30642719999742,178.30642719999742,178.30642719999742,009,P001,2025_Jan_17_1929,ConditionRich,2021.2.3,59.94186837738966,
155.75,156.0,41,0.0,Stimuli/Blank.png,0,0,0.0,0,69,69,69,,,,,,,,,,,,,155.75384759999724,0.0038475999972433783,None,,182.0597551999963,182.0597551999963,182.0597551999963,182.0597551999963,182.0597551999963,182.0597551999963,182.0597551999963,182.0597551999963,182.0597551999963,182.0597551999963,009,P001,2025_Jan_17_1929,ConditionRich,2021.2.3,59.94186837738966,
156.0,159.75,36,0.75,Stimuli/P001/things_stalagmite_01b.jpg,0,0,0.0,0,70,70,70,,,,,,,,,,,,,156.00389919999725,0.003899199997249525,5,1.9707819000032032,182.30997669999488,182.30997669999488,182.30997669999488,182.30997669999488,182.30997669999488,182.30997669999488,182.30997669999488,182.30997669999488,182.30997669999488,182.30997669999488,009,P001,2025_Jan_17_1929,ConditionRich,2021.2.3,59.94186837738966,
159.75,160.0,41,0.0,Stimuli/Blank.png,0,0,0.0,0,71,71,71,,,,,,,,,,,,,159.7593177000017,0.009317700001702178,5,0.20060279999597697,186.07996609999827,186.07996609999827,186.07996609999827,186.07996609999827,186.07996609999827,186.07996609999827,186.07996609999827,186.07996609999827,186.07996609999827,186.07996609999827,009,P001,2025_Jan_17_1929,ConditionRich,2021.2.3,59.94186837738966,
160.0,163.75,40,0.75,Stimuli/P001/things_worm_01b.jpg,0,0,0.0,0,72,72,72,,,,,,,,,,,,,160.02448390000063,0.024483900000632275,5,1.9505235999968136,186.33018669999728,186.33018669999728,186.33018669999728,186.33018669999728,186.33018669999728,186.33018669999728,186.33018669999728,186.33018669999728,186.33018669999728,186.33018669999728,009,P001,2025_Jan_17_1929,ConditionRich,2021.2.3,59.94186837738966,
163.75,164.0,41,0.0,Stimuli/Blank.png,0,0,0.0,0,73,73,73,,,,,,,,,,,,,163.76044289999845,0.010442899998452049,5,0.21392209999612533,190.06681789999857,190.06681789999857,190.06681789999857,190.06681789999857,190.06681789999857,190.06681789999857,190.06681789999857,190.06681789999857,190.06681789999857,190.06681789999857,009,P001,2025_Jan_17_1929,ConditionRich,2021.2.3,59.94186837738966,
164.0,167.75,23,0.75,Stimuli/P001/things_chick_01b.jpg,0,0,0.0,0,74,74,74,,,,,,,,,,,,,164.0112674999982,0.01126749999821186,5,1.9468625000008615,190.33376090000093,190.33376090000093,190.33376090000093,190.33376090000093,190.33376090000093,190.33376090000093,190.33376090000093,190.33376090000093,190.33376090000093,190.33376090000093,009,P001,2025_Jan_17_1929,ConditionRich,2021.2.3,59.94186837738966,
167.75,168.0,41,0.0,Stimuli/Blank.png,0,0,0.0,0,75,75,75,,,,,,,,,,,,,167.781570799998,0.031570799998007715,5,0.19386919999669772,194.08704320000106,194.08704320000106,194.08704320000106,194.08704320000106,194.08704320000106,194.08704320000106,194.08704320000106,194.08704320000106,194.08704320000106,194.08704320000106,009,P001,2025_Jan_17_1929,ConditionRich,2021.2.3,59.94186837738966,
168.0,171.75,26,0.75,Stimuli/P001/things_dish_01b.jpg,0,0,0.0,0,76,76,76,,,,,,,,,,,,,168.01409879999846,0.014098799998464528,5,1.9601511000000755,194.32058069999766,194.32058069999766,194.32058069999766,194.32058069999766,194.32058069999766,194.32058069999766,194.32058069999766,194.32058069999766,194.32058069999766,194.32058069999766,009,P001,2025_Jan_17_1929,ConditionRich,2021.2.3,59.94186837738966,
171.75,172.0,41,0.0,Stimuli/Blank.png,0,0,0.0,0,77,77,77,,,,,,,,,,,,,171.75186060000124,0.0018606000012368895,None,,198.0574009999982,198.0574009999982,198.0574009999982,198.0574009999982,198.0574009999982,198.0574009999982,198.0574009999982,198.0574009999982,198.0574009999982,198.0574009999982,009,P001,2025_Jan_17_1929,ConditionRich,2021.2.3,59.94186837738966,
172.0,175.75,32,0.75,Stimuli/P001/things_oyster_01b.jpg,1,3,3.75,0,78,78,78,,,,,,,,,,,,,172.0016672999991,0.0016672999990987591,3,3.506758700001228,198.32413259999885,198.32413259999885,198.32413259999885,198.32413259999885,198.32413259999885,198.32413259999885,201.29340379999485,202.04409869999654,198.32413259999885,198.32413259999885,009,P001,2025_Jan_17_1929,ConditionRich,2021.2.3,59.94186837738966,
175.75,176.0,41,0.0,Stimuli/Blank.png,0,0,0.0,0,79,79,79,,,,,,,,,,,,,175.7717532999959,0.021753299995907582,None,,202.07750379999925,202.07750379999925,202.07750379999925,202.07750379999925,202.07750379999925,202.07750379999925,202.07750379999925,202.07750379999925,202.07750379999925,202.07750379999925,009,P001,2025_Jan_17_1929,ConditionRich,2021.2.3,59.94186837738966,
176.0,179.75,22,0.75,Stimuli/P001/things_boy_01b.jpg,1,0,0.75,0,80,80,80,,,,,,,,,,,,,176.00600549999945,0.006005499999446329,5,1.952927999998792,202.32766199999605,202.32766199999605,202.32766199999605,202.32766199999605,202.32766199999605,202.32766199999605,202.32766199999605,203.04495959999622,202.32766199999605,202.32766199999605,009,P001,2025_Jan_17_1929,ConditionRich,2021.2.3,59.94186837738966,
179.75,180.0,41,0.0,Stimuli/Blank.png,0,0,0.0,0,81,81,81,,,,,,,,,,,,,179.7745597999965,0.024559799996495713,5,0.19965709999814862,206.08097789999738,206.08097789999738,206.08097789999738,206.08097789999738,206.08097789999738,206.08097789999738,206.08097789999738,206.08097789999738,206.08097789999738,206.08097789999738,009,P001,2025_Jan_17_1929,ConditionRich,2021.2.3,59.94186837738966,
180.0,196.0,0,0.0,Stimuli/Blank.png,1,8,8.75,0,82,82,82,,,,,,,,,,,,,180.00968869999633,0.009688699996331707,5,13.96645520000311,206.3145244999978,206.3145244999978,206.3145244999978,206.3145244999978,206.3145244999978,206.3145244999978,214.30487670000002,215.05557530000078,206.3145244999978,206.3145244999978,009,P001,2025_Jan_17_1929,ConditionRich,2021.2.3,59.94186837738966,
196.0,199.75,35,0.75,Stimuli/P001/things_pepperoni_01b.jpg,0,0,0.0,0,83,83,83,,,,,,,,,,,,,196.00585709999723,0.005857099997228943,5,1.968776000001526,222.31203860000096,222.31203860000096,222.31203860000096,222.31203860000096,222.31203860000096,222.31203860000096,222.31203860000096,222.31203860000096,222.31203860000096,222.31203860000096,009,P001,2025_Jan_17_1929,ConditionRich,2021.2.3,59.94186837738966,
199.75,200.0,41,0.0,Stimuli/Blank.png,0,0,0.0,0,84,84,84,,,,,,,,,,,,,199.76010020000103,0.010100200001033954,5,0.21530309999798192,226.06532309999602,226.06532309999602,226.06532309999602,226.06532309999602,226.06532309999602,226.06532309999602,226.06532309999602,226.06532309999602,226.06532309999602,226.06532309999602,009,P001,2025_Jan_17_1929,ConditionRich,2021.2.3,59.94186837738966,
200.0,203.75,37,0.75,Stimuli/P001/things_starfish_01b.jpg,0,0,0.0,0,85,85,85,,,,,,,,,,,,,200.00907030000235,0.00907030000234954,5,1.9651479999956791,226.31552649999503,226.31552649999503,226.31552649999503,226.31552649999503,226.31552649999503,226.31552649999503,226.31552649999503,226.31552649999503,226.31552649999503,226.31552649999503,009,P001,2025_Jan_17_1929,ConditionRich,2021.2.3,59.94186837738966,
203.75,204.0,41,0.0,Stimuli/Blank.png,0,0,0.0,0,86,86,86,,,,,,,,,,,,,203.765656399999,0.01565639999898849,5,0.1961345999952755,230.08550219999597,230.08550219999597,230.08550219999597,230.08550219999597,230.08550219999597,230.08550219999597,230.08550219999597,230.08550219999597,230.08550219999597,230.08550219999597,009,P001,2025_Jan_17_1929,ConditionRich,2021.2.3,59.94186837738966,
204.0,207.75,22,0.75,Stimuli/P001/things_boy_01b.jpg,1,2,2.75,0,87,87,87,,,,,,,,,,,,,204.01583240000036,0.015832400000363123,3,2.506952600000659,230.33575479999854,230.33575479999854,230.33575479999854,230.33575479999854,230.33575479999854,230.33575479999854,232.3208760999987,233.0714896999998,230.33575479999854,230.33575479999854,009,P001,2025_Jan_17_1929,ConditionRich,2021.2.3,59.94186837738966,
207.75,208.0,41,0.0,Stimuli/Blank.png,0,0,0.0,0,88,88,88,,,,,,,,,,,,,207.76661120000063,0.016611200000625104,None,,234.07321429999865,234.07321429999865,234.07321429999865,234.07321429999865,234.07321429999865,234.07321429999865,234.07321429999865,234.07321429999865,234.07321429999865,234.07321429999865,009,P001,2025_Jan_17_1929,ConditionRich,2021.2.3,59.94186837738966,
208.0,211.75,39,0.75,Stimuli/P001/things_woman_01b.jpg,1,2,2.75,0,89,89,89,,,,,,,,,,,,,208.00024300000223,0.00024300000222865492,3,2.4098589999994147,234.32277159999649,234.32277159999649,234.32277159999649,234.32277159999649,234.32277159999649,234.32277159999649,236.29106849999516,237.04167069999676,234.32277159999649,234.32277159999649,009,P001,2025_Jan_17_1929,ConditionRich,2021.2.3,59.94186837738966,
211.75,212.0,41,0.0,Stimuli/Blank.png,0,0,0.0,0,90,90,90,,,,,,,,,,,,,211.77020659999835,0.020206599998346064,None,,238.07591999999568,238.07591999999568,238.07591999999568,238.07591999999568,238.07591999999568,238.07591999999568,238.07591999999568,238.07591999999568,238.07591999999568,238.07591999999568,009,P001,2025_Jan_17_1929,ConditionRich,2021.2.3,59.94186837738966,
212.0,215.75,8,0.75,Stimuli/P001/sun_asqboyqakusycvwd.jpg,1,2,2.75,0,91,91,91,,,,,,,,,,,,,212.00425779999932,0.004257799999322742,3,2.392497699998785,238.32614009999816,238.32614009999816,238.32614009999816,238.32614009999816,238.32614009999816,238.32614009999816,240.29454379999515,241.04521459999523,238.32614009999816,238.32614009999816,009,P001,2025_Jan_17_1929,ConditionRich,2021.2.3,59.94186837738966,
215.75,216.0,41,0.0,Stimuli/Blank.png,0,0,0.0,0,92,92,92,,,,,,,,,,,,,215.77408199999627,0.024081999996269587,None,,242.07946339999762,242.07946339999762,242.07946339999762,242.07946339999762,242.07946339999762,242.07946339999762,242.07946339999762,242.07946339999762,242.07946339999762,242.07946339999762,009,P001,2025_Jan_17_1929,ConditionRich,2021.2.3,59.94186837738966,
216.0,219.75,23,0.75,Stimuli/P001/things_chick_01b.jpg,0,0,0.0,0,93,93,93,,,,,,,,,,,,,216.00958089999767,0.009580899997672532,5,1.9521555000028457,242.32969859999866,242.32969859999866,242.32969859999866,242.32969859999866,242.32969859999866,242.32969859999866,242.32969859999866,242.32969859999866,242.32969859999866,242.32969859999866,009,P001,2025_Jan_17_1929,ConditionRich,2021.2.3,59.94186837738966,
219.75,220.0,41,0.0,Stimuli/Blank.png,0,0,0.0,0,94,94,94,,,,,,,,,,,,,219.77734590000182,0.027345900001819246,5,0.198644999996759,246.0830119999955,246.0830119999955,246.0830119999955,246.0830119999955,246.0830119999955,246.0830119999955,246.0830119999955,246.0830119999955,246.0830119999955,246.0830119999955,009,P001,2025_Jan_17_1929,ConditionRich,2021.2.3,59.94186837738966,
220.0,223.75,4,0.75,Stimuli/P001/sun_aonjwqswdblhlpkm.jpg,0,0,0.0,0,95,95,95,,,,,,,,,,,,,220.01088409999647,0.010884099996474106,5,1.965112500001851,246.31654799999524,246.31654799999524,246.31654799999524,246.31654799999524,246.31654799999524,246.31654799999524,246.31654799999524,246.31654799999524,246.31654799999524,246.31654799999524,009,P001,2025_Jan_17_1929,ConditionRich,2021.2.3,59.94186837738966,
223.75,224.0,41,0.0,Stimuli/Blank.png,0,0,0.0,0,96,96,96,,,,,,,,,,,,,223.7634642999983,0.013464299998304341,5,0.21192639999935636,250.06985400000121,250.06985400000121,250.06985400000121,250.06985400000121,250.06985400000121,250.06985400000121,250.06985400000121,250.06985400000121,250.06985400000121,250.06985400000121,009,P001,2025_Jan_17_1929,ConditionRich,2021.2.3,59.94186837738966,
224.0,227.75,9,0.75,Stimuli/P001/sun_awtltwwpwbepuuqv.jpg,0,0,0.0,0,97,97,97,,,,,,,,,,,,,224.0142238999979,0.014223899997887202,5,1.9615722999951686,250.3200757999948,250.3200757999948,250.3200757999948,250.3200757999948,250.3200757999948,250.3200757999948,250.3200757999948,250.3200757999948,250.3200757999948,250.3200757999948,009,P001,2025_Jan_17_1929,ConditionRich,2021.2.3,59.94186837738966,
227.75,228.0,41,0.0,Stimuli/Blank.png,0,0,0.0,0,98,98,98,,,,,,,,,,,,,227.75025520000054,0.00025520000053802505,None,,254.05672259999847,254.05672259999847,254.05672259999847,254.05672259999847,254.05672259999847,254.05672259999847,254.05672259999847,254.05672259999847,254.05672259999847,254.05672259999847,009,P001,2025_Jan_17_1929,ConditionRich,2021.2.3,59.94186837738966,
228.0,231.75,11,0.75,Stimuli/P001/sun_bbfdgdyeqdnadvvi.jpg,0,0,0.0,0,99,99,99,,,,,,,,,,,,,228.00112349999836,0.001123499998357147,5,1.974708499998087,254.3069389999946,254.3069389999946,254.3069389999946,254.3069389999946,254.3069389999946,254.3069389999946,254.3069389999946,254.3069389999946,254.3069389999946,254.3069389999946,009,P001,2025_Jan_17_1929,ConditionRich,2021.2.3,59.94186837738966,
231.75,232.0,41,0.0,Stimuli/Blank.png,0,0,0.0,0,100,100,100,,,,,,,,,,,,,231.75418089999584,0.004180899995844811,None,,258.0611166999952,258.0611166999952,258.0611166999952,258.0611166999952,258.0611166999952,258.0611166999952,258.0611166999952,258.0611166999952,258.0611166999952,258.0611166999952,009,P001,2025_Jan_17_1929,ConditionRich,2021.2.3,59.94186837738966,
232.0,235.75,10,0.75,Stimuli/P001/sun_aykefnhciwsffcrj.jpg,0,0,0.0,0,101,101,101,,,,,,,,,,,,,232.00420049999957,0.004200499999569729,5,1.9712026999986847,258.310473599995,258.310473599995,258.310473599995,258.310473599995,258.310473599995,258.310473599995,258.310473599995,258.310473599995,258.310473599995,258.310473599995,009,P001,2025_Jan_17_1929,ConditionRich,2021.2.3,59.94186837738966,
235.75,236.0,41,0.0,Stimuli/Blank.png,0,0,0.0,0,102,102,102,,,,,,,,,,,,,235.7580342000001,0.008034200000111014,5,0.2178282000022591,262.0637956999999,262.0637956999999,262.0637956999999,262.0637956999999,262.0637956999999,262.0637956999999,262.0637956999999,262.0637956999999,262.0637956999999,262.0637956999999,009,P001,2025_Jan_17_1929,ConditionRich,2021.2.3,59.94186837738966,
236.0,239.75,40,0.75,Stimuli/P001/things_worm_01b.jpg,0,0,0.0,0,103,103,103,,,,,,,,,,,,,236.00816430000123,0.008164300001226366,5,1.9677717000013217,262.31401170000026,262.31401170000026,262.31401170000026,262.31401170000026,262.31401170000026,262.31401170000026,262.31401170000026,262.31401170000026,262.31401170000026,262.31401170000026,009,P001,2025_Jan_17_1929,ConditionRich,2021.2.3,59.94186837738966,
239.75,240.0,41,0.0,Stimuli/Blank.png,0,0,0.0,0,104,104,104,,,,,,,,,,,,,239.7614792999957,0.011479299995698966,5,0.21431289999600267,266.0674071999965,266.0674071999965,266.0674071999965,266.0674071999965,266.0674071999965,266.0674071999965,266.0674071999965,266.0674071999965,266.0674071999965,266.0674071999965,009,P001,2025_Jan_17_1929,ConditionRich,2021.2.3,59.94186837738966,
240.0,243.75,13,0.75,Stimuli/P001/sun_bfdmlbkyioxnkodb.jpg,0,0,0.0,0,105,105,105,,,,,,,,,,,,,240.0116412999996,0.011641299999610055,5,1.9640628999986802,266.3175479999991,266.3175479999991,266.3175479999991,266.3175479999991,266.3175479999991,266.3175479999991,266.3175479999991,266.3175479999991,266.3175479999991,266.3175479999991,009,P001,2025_Jan_17_1929,ConditionRich,2021.2.3,59.94186837738966,
243.75,244.0,41,0.0,Stimuli/Blank.png,0,0,0.0,0,106,106,106,,,,,,,,,,,,,243.76530639999692,0.015306399996916298,5,0.21095819999754895,270.07087239999964,270.07087239999964,270.07087239999964,270.07087239999964,270.07087239999964,270.07087239999964,270.07087239999964,270.07087239999964,270.07087239999964,270.07087239999964,009,P001,2025_Jan_17_1929,ConditionRich,2021.2.3,59.94186837738966,
244.0,247.75,25,0.75,Stimuli/P001/things_curry_01b.jpg,0,0,0.0,0,107,107,107,,,,,,,,,,,,,244.01504349999595,0.015043499995954335,5,1.9606491000013193,270.32109969999874,270.32109969999874,270.32109969999874,270.32109969999874,270.32109969999874,270.32109969999874,270.32109969999874,270.32109969999874,270.32109969999874,270.32109969999874,009,P001,2025_Jan_17_1929,ConditionRich,2021.2.3,59.94186837738966,
247.75,248.0,41,0.0,Stimuli/Blank.png,0,0,0.0,0,108,108,108,,,,,,,,,,,,,247.7515964999984,0.001596499998413492,None,,274.05780469999445,274.05780469999445,274.05780469999445,274.05780469999445,274.05780469999445,274.05780469999445,274.05780469999445,274.05780469999445,274.05780469999445,274.05780469999445,009,P001,2025_Jan_17_1929,ConditionRich,2021.2.3,59.94186837738966,
248.0,251.75,2,0.75,Stimuli/P001/sun_akmxsxepquhynflp.jpg,0,0,0.0,0,109,109,109,,,,,,,,,,,,,248.00173749999522,0.0017374999952153303,5,1.973967599995376,274.3079448999997,274.3079448999997,274.3079448999997,274.3079448999997,274.3079448999997,274.3079448999997,274.3079448999997,274.3079448999997,274.3079448999997,274.3079448999997,009,P001,2025_Jan_17_1929,ConditionRich,2021.2.3,59.94186837738966,
251.75,252.0,41,0.0,Stimuli/Blank.png,0,0,0.0,0,110,110,110,,,,,,,,,,,,,251.7552624000018,0.005262400001811329,None,,278.0612684999942,278.0612684999942,278.0612684999942,278.0612684999942,278.0612684999942,278.0612684999942,278.0612684999942,278.0612684999942,278.0612684999942,278.0612684999942,009,P001,2025_Jan_17_1929,ConditionRich,2021.2.3,59.94186837738966,
252.0,255.75,7,0.75,Stimuli/P001/sun_arlesyjqxmqmcccl.jpg,1,1,1.75,0,111,111,111,,,,,,,,,,,,,252.00563970000076,0.00563970000075642,5,1.9701208000042243,278.31148810000013,278.31148810000013,278.31148810000013,278.31148810000013,278.31148810000013,278.31148810000013,279.2956770999954,280.0463591000007,278.31148810000013,278.31148810000013,009,P001,2025_Jan_17_1929,ConditionRich,2021.2.3,59.94186837738966,
255.75,256.0,41,0.0,Stimuli/Blank.png,0,0,0.0,0,112,112,112,,,,,,,,,,,,,255.75952010000037,0.009520100000372622,5,0.21704879999742843,282.06483599999774,282.06483599999774,282.06483599999774,282.06483599999774,282.06483599999774,282.06483599999774,282.06483599999774,282.06483599999774,282.06483599999774,282.06483599999774,009,P001,2025_Jan_17_1929,ConditionRich,2021.2.3,59.94186837738966,
256.0,259.75,38,0.75,Stimuli/P001/things_windowsill_01b.jpg,1,1,1.75,0,113,113,113,,,,,,,,,,,,,256.00997449999704,0.009974499997042585,5,1.9499282999968273,282.3316784999988,282.3316784999988,282.3316784999988,282.3316784999988,282.3316784999988,282.3316784999988,283.29925459999504,284.0498860000007,282.3316784999988,282.3316784999988,009,P001,2025_Jan_17_1929,ConditionRich,2021.2.3,59.94186837738966,
259.75,260.0,41,0.0,Stimuli/Blank.png,0,0,0.0,0,114,114,114,,,,,,,,,,,,,259.7797317000004,0.029731700000411365,5,0.19662670000252547,286.0850372999994,286.0850372999994,286.0850372999994,286.0850372999994,286.0850372999994,286.0850372999994,286.0850372999994,286.0850372999994,286.0850372999994,286.0850372999994,009,P001,2025_Jan_17_1929,ConditionRich,2021.2.3,59.94186837738966,
260.0,263.75,32,0.75,Stimuli/P001/things_oyster_01b.jpg,0,0,0.0,0,115,115,115,,,,,,,,,,,,,260.0158534000002,0.015853400000196416,5,1.946324899996398,286.33526529999654,286.33526529999654,286.33526529999654,286.33526529999654,286.33526529999654,286.33526529999654,286.33526529999654,286.33526529999654,286.33526529999654,286.33526529999654,009,P001,2025_Jan_17_1929,ConditionRich,2021.2.3,59.94186837738966,
263.75,264.0,41,0.0,Stimuli/Blank.png,0,0,0.0,0,116,116,116,,,,,,,,,,,,,263.7660897999958,0.01608979999582516,None,,290.0718889999989,290.0718889999989,290.0718889999989,290.0718889999989,290.0718889999989,290.0718889999989,290.0718889999989,290.0718889999989,290.0718889999989,290.0718889999989,009,P001,2025_Jan_17_1929,ConditionRich,2021.2.3,59.94186837738966,
264.0,267.75,5,0.75,Stimuli/P001/sun_apwzcrxhvvnrexjh.jpg,0,0,0.0,0,117,117,117,,,,,,,,,,,,,264.00022409999656,0.0002240999965579249,5,1.9595343999972101,290.32212539999455,290.32212539999455,290.32212539999455,290.32212539999455,290.32212539999455,290.32212539999455,290.32212539999455,290.32212539999455,290.32212539999455,290.32212539999455,009,P001,2025_Jan_17_1929,ConditionRich,2021.2.3,59.94186837738966,
267.75,268.0,41,0.0,Stimuli/Blank.png,0,0,0.0,0,118,118,118,,,,,,,,,,,,,267.7694042000003,0.01940420000028098,None,,294.07542309999553,294.07542309999553,294.07542309999553,294.07542309999553,294.07542309999553,294.07542309999553,294.07542309999553,294.07542309999553,294.07542309999553,294.07542309999553,009,P001,2025_Jan_17_1929,ConditionRich,2021.2.3,59.94186837738966,
268.0,271.75,30,0.75,Stimuli/P001/things_iguana_01b.jpg,0,0,0.0,0,119,119,119,,,,,,,,,,,,,268.0029552999986,0.002955299998575356,5,1.9729624999963562,294.3089693000002,294.3089693000002,294.3089693000002,294.3089693000002,294.3089693000002,294.3089693000002,294.3089693000002,294.3089693000002,294.3089693000002,294.3089693000002,009,P001,2025_Jan_17_1929,ConditionRich,2021.2.3,59.94186837738966,
271.75,272.0,41,0.0,Stimuli/Blank.png,0,0,0.0,0,120,120,120,,,,,,,,,,,,,271.7563014999978,0.006301499997789506,None,,298.0623473999949,298.0623473999949,298.0623473999949,298.0623473999949,298.0623473999949,298.0623473999949,298.0623473999949,298.0623473999949,298.0623473999949,298.0623473999949,009,P001,2025_Jan_17_1929,ConditionRich,2021.2.3,59.94186837738966,
272.0,275.75,17,0.75,Stimuli/P001/sun_bshgmgbmpvjkxfis.jpg,0,0,0.0,0,121,121,121,,,,,,,,,,,,,272.0065371000019,0.006537100001878571,5,1.969299399999727,298.3124985999966,298.3124985999966,298.3124985999966,298.3124985999966,298.3124985999966,298.3124985999966,298.3124985999966,298.3124985999966,298.3124985999966,298.3124985999966,009,P001,2025_Jan_17_1929,ConditionRich,2021.2.3,59.94186837738966,
275.75,276.0,41,0.0,Stimuli/Blank.png,0,0,0.0,0,122,122,122,,,,,,,,,,,,,275.76090159999876,0.010901599998760503,5,0.199285200003942,302.08252920000086,302.08252920000086,302.08252920000086,302.08252920000086,302.08252920000086,302.08252920000086,302.08252920000086,302.08252920000086,302.08252920000086,302.08252920000086,009,P001,2025_Jan_17_1929,ConditionRich,2021.2.3,59.94186837738966,
276.0,292.0,0,0.0,Stimuli/Blank.png,1,7,7.75,0,123,123,123,,,,,,,,,,,,,276.02645610000036,0.026456100000359584,5,15.94889599999442,302.3328012999991,302.3328012999991,302.3328012999991,302.3328012999991,302.3328012999991,302.3328012999991,309.3222234999994,310.0729332999981,302.3328012999991,302.3328012999991,009,P001,2025_Jan_17_1929,ConditionRich,2021.2.3,59.94186837738966,
292.0,295.75,3,0.75,Stimuli/P001/sun_amarqtinchblqmah.jpg,1,0,0.75,0,124,124,124,,,,,,,,,,,,,292.00705809999636,0.007058099996356759,5,1.9682553000020562,318.3135148000001,318.3135148000001,318.3135148000001,318.3135148000001,318.3135148000001,318.3135148000001,318.3135148000001,319.04753199999686,318.3135148000001,318.3135148000001,009,P001,2025_Jan_17_1929,ConditionRich,2021.2.3,59.94186837738966,
295.75,296.0,41,0.0,Stimuli/Blank.png,0,0,0.0,0,125,125,125,,,,,,,,,,,,,295.7613063999961,0.01130639999610139,5,0.21468190000450704,322.0669106999994,322.0669106999994,322.0669106999994,322.0669106999994,322.0669106999994,322.0669106999994,322.0669106999994,322.0669106999994,322.0669106999994,322.0669106999994,009,P001,2025_Jan_17_1929,ConditionRich,2021.2.3,59.94186837738966,
296.0,299.75,31,0.75,Stimuli/P001/things_man_01b.jpg,0,0,0.0,0,126,126,126,,,,,,,,,,,,,296.01064100000076,0.01064100000075996,5,1.964620200000354,322.3170551000003,322.3170551000003,322.3170551000003,322.3170551000003,322.3170551000003,322.3170551000003,322.3170551000003,322.3170551000003,322.3170551000003,322.3170551000003,009,P001,2025_Jan_17_1929,ConditionRich,2021.2.3,59.94186837738966,
299.75,300.0,41,0.0,Stimuli/Blank.png,0,0,0.0,0,127,127,127,,,,,,,,,,,,,299.76410629999737,0.014106299997365568,5,0.21149760000116657,326.0703682999956,326.0703682999956,326.0703682999956,326.0703682999956,326.0703682999956,326.0703682999956,326.0703682999956,326.0703682999956,326.0703682999956,326.0703682999956,009,P001,2025_Jan_17_1929,ConditionRich,2021.2.3,59.94186837738966,
300.0,303.75,16,0.75,Stimuli/P001/sun_biqyomkjbujnppuf.jpg,1,2,2.75,0,128,128,128,,,,,,,,,,,,,300.0151867999957,0.015186799995717593,3,2.4295741000023554,326.3372703999994,326.3372703999994,326.3372703999994,326.3372703999994,326.3372703999994,326.3372703999994,328.30567449999944,329.0563875999942,326.3372703999994,326.3372703999994,009,P001,2025_Jan_17_1929,ConditionRich,2021.2.3,59.94186837738966,
303.75,304.0,41,0.0,Stimuli/Blank.png,0,0,0.0,0,129,129,129,,,,,,,,,,,,,303.76996879999933,0.019968799999332987,5,0.19103959999483777,330.09059960000013,330.09059960000013,330.09059960000013,330.09059960000013,330.09059960000013,330.09059960000013,330.09059960000013,330.09059960000013,330.09059960000013,330.09059960000013,009,P001,2025_Jan_17_1929,ConditionRich,2021.2.3,59.94186837738966,
304.0,307.75,24,0.75,Stimuli/P001/things_cornucopia_01b.jpg,1,0,0.75,0,130,130,130,,,,,,,,,,,,,304.01793799999723,0.01793799999722978,5,1.9575323000026401,330.32413290000113,330.32413290000113,330.32413290000113,330.32413290000113,330.32413290000113,330.32413290000113,330.32413290000113,331.0580967999995,330.32413290000113,330.32413290000113,009,P001,2025_Jan_17_1929,ConditionRich,2021.2.3,59.94186837738966,
307.75,308.0,41,0.0,Stimuli/Blank.png,0,0,0.0,0,131,131,131,,,,,,,,,,,,,307.75443429999723,0.004434299997228663,None,,334.0607760999992,334.0607760999992,334.0607760999992,334.0607760999992,334.0607760999992,334.0607760999992,334.0607760999992,334.0607760999992,334.0607760999992,334.0607760999992,009,P001,2025_Jan_17_1929,ConditionRich,2021.2.3,59.94186837738966,
308.0,311.75,20,0.75,Stimuli/P001/sun_dkgctqgpvxbaoyks.jpg,0,0,0.0,0,132,132,132,,,,,,,,,,,,,308.0058618999974,0.005861899997398723,5,1.9540631999989273,334.3276884000006,334.3276884000006,334.3276884000006,334.3276884000006,334.3276884000006,334.3276884000006,334.3276884000006,334.3276884000006,334.3276884000006,334.3276884000006,009,P001,2025_Jan_17_1929,ConditionRich,2021.2.3,59.94186837738966,
311.75,312.0,41,0.0,Stimuli/Blank.png,0,0,0.0,0,133,133,133,,,,,,,,,,,,,311.77468249999947,0.024682499999471474,5,0.20062260000122478,338.08098439999594,338.08098439999594,338.08098439999594,338.08098439999594,338.08098439999594,338.08098439999594,338.08098439999594,338.08098439999594,338.08098439999594,338.08098439999594,009,P001,2025_Jan_17_1929,ConditionRich,2021.2.3,59.94186837738966,
312.0,315.75,21,0.75,Stimuli/P001/things_baby_01b.jpg,0,0,0.0,0,134,134,134,,,,,,,,,,,,,312.009135399996,0.009135399996011984,5,1.9504936000012094,338.33121889999893,338.33121889999893,338.33121889999893,338.33121889999893,338.33121889999893,338.33121889999893,338.33121889999893,338.33121889999893,338.33121889999893,338.33121889999893,009,P001,2025_Jan_17_1929,ConditionRich,2021.2.3,59.94186837738966,
315.75,316.0,41,0.0,Stimuli/Blank.png,0,0,0.0,0,135,135,135,,,,,,,,,,,,,315.77894489999744,0.028944899997441098,5,0.19719829999667127,342.08452269999543,342.08452269999543,342.08452269999543,342.08452269999543,342.08452269999543,342.08452269999543,342.08452269999543,342.08452269999543,342.08452269999543,342.08452269999543,009,P001,2025_Jan_17_1929,ConditionRich,2021.2.3,59.94186837738966,
316.0,319.75,29,0.75,Stimuli/P001/things_grinder_01b.jpg,0,0,0.0,0,136,136,136,,,,,,,,,,,,,316.01296159999765,0.012961599997652229,5,1.9469126999974833,342.334744199994,342.334744199994,342.334744199994,342.334744199994,342.334744199994,342.334744199994,342.334744199994,342.334744199994,342.334744199994,342.334744199994,009,P001,2025_Jan_17_1929,ConditionRich,2021.2.3,59.94186837738966,
319.75,320.0,41,0.0,Stimuli/Blank.png,0,0,0.0,0,137,137,137,,,,,,,,,,,,,319.765750999999,0.01575099999899976,None,,346.0713870999971,346.0713870999971,346.0713870999971,346.0713870999971,346.0713870999971,346.0713870999971,346.0713870999971,346.0713870999971,346.0713870999971,346.0713870999971,009,P001,2025_Jan_17_1929,ConditionRich,2021.2.3,59.94186837738966,
320.0,323.75,26,0.75,Stimuli/P001/things_dish_01b.jpg,0,0,0.0,0,138,138,138,,,,,,,,,,,,,319.99951399999554,-0.00048600000445730984,5,1.96002469999803,346.3216093999945,346.3216093999945,346.3216093999945,346.3216093999945,346.3216093999945,346.3216093999945,346.3216093999945,346.3216093999945,346.3216093999945,346.3216093999945,009,P001,2025_Jan_17_1929,ConditionRich,2021.2.3,59.94186837738966,
323.75,324.0,41,0.0,Stimuli/Blank.png,0,0,0.0,0,139,139,139,,,,,,,,,,,,,323.76888060000056,0.018880600000557024,None,,350.07492219999403,350.07492219999403,350.07492219999403,350.07492219999403,350.07492219999403,350.07492219999403,350.07492219999403,350.07492219999403,350.07492219999403,350.07492219999403,009,P001,2025_Jan_17_1929,ConditionRich,2021.2.3,59.94186837738966,
324.0,327.75,12,0.75,Stimuli/P001/sun_bdxvmnlyovhqognn.jpg,0,0,0.0,0,140,140,140,,,,,,,,,,,,,324.0046560999981,0.004656099998101126,5,1.9567987999980687,350.32514409999567,350.32514409999567,350.32514409999567,350.32514409999567,350.32514409999567,350.32514409999567,350.32514409999567,350.32514409999567,350.32514409999567,350.32514409999567,009,P001,2025_Jan_17_1929,ConditionRich,2021.2.3,59.94186837738966,
327.75,328.0,41,0.0,Stimuli/Blank.png,0,0,0.0,0,141,141,141,,,,,,,,,,,,,327.77441059999546,0.02441059999546269,5,0.1866294999999809,354.0951513999971,354.0951513999971,354.0951513999971,354.0951513999971,354.0951513999971,354.0951513999971,354.0951513999971,354.0951513999971,354.0951513999971,354.0951513999971,009,P001,2025_Jan_17_1929,ConditionRich,2021.2.3,59.94186837738966,
328.0,331.75,27,0.75,Stimuli/P001/things_dynamite_01b.jpg,0,0,0.0,0,142,142,142,,,,,,,,,,,,,328.023703400002,0.02370340000197757,5,1.9363924999997835,354.34534949999943,354.34534949999943,354.34534949999943,354.34534949999943,354.34534949999943,354.34534949999943,354.34534949999943,354.34534949999943,354.34534949999943,354.34534949999943,009,P001,2025_Jan_17_1929,ConditionRich,2021.2.3,59.94186837738966,
331.75,332.0,41,0.0,Stimuli/Blank.png,0,0,0.0,0,143,143,143,,,,,,,,,,,,,331.77589279999665,0.025892799996654503,5,0.19980049999867333,358.0819904999953,358.0819904999953,358.0819904999953,358.0819904999953,358.0819904999953,358.0819904999953,358.0819904999953,358.0819904999953,358.0819904999953,358.0819904999953,009,P001,2025_Jan_17_1929,ConditionRich,2021.2.3,59.94186837738966,
332.0,335.75,33,0.75,Stimuli/P001/things_pan_01b.jpg,1,3,3.75,0,144,144,144,,,,,,,,,,,,,332.00992479999695,0.00992479999695206,3,3.350248400005512,358.3155448999969,358.3155448999969,358.3155448999969,358.3155448999969,358.3155448999969,358.3155448999969,361.3015923999992,362.05217149999953,358.3155448999969,358.3155448999969,009,P001,2025_Jan_17_1929,ConditionRich,2021.2.3,59.94186837738966,
335.75,336.0,41,0.0,Stimuli/Blank.png,0,0,0.0,0,145,145,145,,,,,,,,,,,,,335.7650399999984,0.015039999998407438,5,0.19617949999519624,362.08553669999674,362.08553669999674,362.08553669999674,362.08553669999674,362.08553669999674,362.08553669999674,362.08553669999674,362.08553669999674,362.08553669999674,362.08553669999674,009,P001,2025_Jan_17_1929,ConditionRich,2021.2.3,59.94186837738966,
336.0,339.75,1,0.75,Stimuli/P001/sun_agpgdwkhzgvzdaea.jpg,0,0,0.0,0,146,146,146,,,,,,,,,,,,,336.0300636999964,0.030063699996389914,5,1.9294169999993755,362.35244299999613,362.35244299999613,362.35244299999613,362.35244299999613,362.35244299999613,362.35244299999613,362.35244299999613,362.35244299999613,362.35244299999613,362.35244299999613,009,P001,2025_Jan_17_1929,ConditionRich,2021.2.3,59.94186837738966,
339.75,340.0,41,0.0,Stimuli/Blank.png,0,0,0.0,0,147,147,147,,,,,,,,,,,,,339.7665024999951,0.016502499995112885,None,,366.07238099999813,366.07238099999813,366.07238099999813,366.07238099999813,366.07238099999813,366.07238099999813,366.07238099999813,366.07238099999813,366.07238099999813,366.07238099999813,009,P001,2025_Jan_17_1929,ConditionRich,2021.2.3,59.94186837738966,
340.0,343.75,18,0.75,Stimuli/P001/sun_bzjegfvyrvqtunza.jpg,0,0,0.0,0,148,148,148,,,,,,,,,,,,,340.0007342999961,0.0007342999961110763,5,1.9590346999975736,366.32261079999444,366.32261079999444,366.32261079999444,366.32261079999444,366.32261079999444,366.32261079999444,366.32261079999444,366.32261079999444,366.32261079999444,366.32261079999444,009,P001,2025_Jan_17_1929,ConditionRich,2021.2.3,59.94186837738966,
343.75,344.0,41,0.0,Stimuli/Blank.png,0,0,0.0,0,149,149,149,,,,,,,,,,,,,343.77094199999556,0.020941999995557126,5,0.18902410000009695,370.0926376999996,370.0926376999996,370.0926376999996,370.0926376999996,370.0926376999996,370.0926376999996,370.0926376999996,370.0926376999996,370.0926376999996,370.0926376999996,009,P001,2025_Jan_17_1929,ConditionRich,2021.2.3,59.94186837738966,
344.0,347.75,28,0.75,Stimuli/P001/things_girl_01b.jpg,0,0,0.0,0,150,150,150,,,,,,,,,,,,,344.0199522999974,0.019952299997385126,5,1.9555305000030785,370.32615729999816,370.32615729999816,370.32615729999816,370.32615729999816,370.32615729999816,370.32615729999816,370.32615729999816,370.32615729999816,370.32615729999816,370.32615729999816,009,P001,2025_Jan_17_1929,ConditionRich,2021.2.3,59.94186837738966,
347.75,348.0,41,0.0,Stimuli/Blank.png,0,0,0.0,0,151,151,151,,,,,,,,,,,,,347.75691659999575,0.006916599995747674,None,,374.0627858999942,374.0627858999942,374.0627858999942,374.0627858999942,374.0627858999942,374.0627858999942,374.0627858999942,374.0627858999942,374.0627858999942,374.0627858999942,009,P001,2025_Jan_17_1929,ConditionRich,2021.2.3,59.94186837738966,
348.0,351.75,36,0.75,Stimuli/P001/things_stalagmite_01b.jpg,0,0,0.0,0,152,152,152,,,,,,,,,,,,,348.0067285999976,0.006728599997586571,5,1.9521306000024197,374.3296915999963,374.3296915999963,374.3296915999963,374.3296915999963,374.3296915999963,374.3296915999963,374.3296915999963,374.3296915999963,374.3296915999963,374.3296915999963,009,P001,2025_Jan_17_1929,ConditionRich,2021.2.3,59.94186837738966,
351.75,352.0,41,0.0,Stimuli/Blank.png,0,0,0.0,0,153,153,153,,,,,,,,,,,,,351.7776782000001,0.027678200000082143,5,0.19876449999719625,378.08303370000067,378.08303370000067,378.08303370000067,378.08303370000067,378.08303370000067,378.08303370000067,378.08303370000067,378.08303370000067,378.08303370000067,378.08303370000067,009,P001,2025_Jan_17_1929,ConditionRich,2021.2.3,59.94186837738966,
352.0,355.75,15,0.75,Stimuli/P001/sun_bfzoxbkvsfqxsyle.jpg,0,0,0.0,0,154,154,154,,,,,,,,,,,,,352.0107119999957,0.010711999995692167,5,1.9651146000032895,378.3165443999969,378.3165443999969,378.3165443999969,378.3165443999969,378.3165443999969,378.3165443999969,378.3165443999969,378.3165443999969,378.3165443999969,378.3165443999969,009,P001,2025_Jan_17_1929,ConditionRich,2021.2.3,59.94186837738966,
355.75,356.0,41,0.0,Stimuli/Blank.png,0,0,0.0,0,155,155,155,,,,,,,,,,,,,355.76498139999603,0.014981399996031541,5,0.21197940000274684,382.06987639999716,382.06987639999716,382.06987639999716,382.06987639999716,382.06987639999716,382.06987639999716,382.06987639999716,382.06987639999716,382.06987639999716,382.06987639999716,009,P001,2025_Jan_17_1929,ConditionRich,2021.2.3,59.94186837738966,
356.0,359.75,14,0.75,Stimuli/P001/sun_bfgxassmmvhtarcc.jpg,0,0,0.0,0,156,156,156,,,,,,,,,,,,,356.0142640999984,0.014264099998399615,5,1.961958300002152,382.3200798999969,382.3200798999969,382.3200798999969,382.3200798999969,382.3200798999969,382.3200798999969,382.3200798999969,382.3200798999969,382.3200798999969,382.3200798999969,009,P001,2025_Jan_17_1929,ConditionRich,2021.2.3,59.94186837738966,
359.75,360.0,41,0.0,Stimuli/Blank.png,0,0,0.0,0,157,157,157,,,,,,,,,,,,,359.7509168999968,0.0009168999968096614,None,,386.0567182999948,386.0567182999948,386.0567182999948,386.0567182999948,386.0567182999948,386.0567182999948,386.0567182999948,386.0567182999948,386.0567182999948,386.0567182999948,009,P001,2025_Jan_17_1929,ConditionRich,2021.2.3,59.94186837738966,
360.0,363.75,34,0.75,Stimuli/P001/things_parrot_01b.jpg,0,0,0.0,0,158,158,158,,,,,,,,,,,,,360.0009982999982,0.0009982999981730245,5,1.9747235999966506,386.3069383999973,386.3069383999973,386.3069383999973,386.3069383999973,386.3069383999973,386.3069383999973,386.3069383999973,386.3069383999973,386.3069383999973,386.3069383999973,009,P001,2025_Jan_17_1929,ConditionRich,2021.2.3,59.94186837738966,
363.75,364.0,41,0.0,Stimuli/Blank.png,0,0,0.0,0,159,159,159,,,,,,,,,,,,,363.7539555999974,0.003955599997425452,None,,390.0602624999956,390.0602624999956,390.0602624999956,390.0602624999956,390.0602624999956,390.0602624999956,390.0602624999956,390.0602624999956,390.0602624999956,390.0602624999956,009,P001,2025_Jan_17_1929,ConditionRich,2021.2.3,59.94186837738966,
364.0,367.75,6,0.75,Stimuli/P001/sun_aqbaaqeojrexbmcr.jpg,0,0,0.0,0,160,160,160,,,,,,,,,,,,,364.0050856000016,0.00508560000162106,5,1.9545695999986492,390.32716309999523,390.32716309999523,390.32716309999523,390.32716309999523,390.32716309999523,390.32716309999523,390.32716309999523,390.32716309999523,390.32716309999523,390.32716309999523,009,P001,2025_Jan_17_1929,ConditionRich,2021.2.3,59.94186837738966,
367.75,368.0,41,0.0,Stimuli/Blank.png,0,0,0.0,0,161,161,161,,,,,,,,,,,,,367.77480049999576,0.024800499995762948,5,0.2012230999971507,394.0804954999985,394.0804954999985,394.0804954999985,394.0804954999985,394.0804954999985,394.0804954999985,394.0804954999985,394.0804954999985,394.0804954999985,394.0804954999985,009,P001,2025_Jan_17_1929,ConditionRich,2021.2.3,59.94186837738966,
368.0,371.75,19,0.75,Stimuli/P001/sun_bzyyqqczvrnvukdn.jpg,1,0,0.75,0,162,162,162,,,,,,,,,,,,,368.0098710999955,0.009871099995507393,5,1.9511128000012832,394.33070130000124,394.33070130000124,394.33070130000124,394.33070130000124,394.33070130000124,394.33070130000124,394.33070130000124,395.0647000999961,394.33070130000124,394.33070130000124,009,P001,2025_Jan_17_1929,ConditionRich,2021.2.3,59.94186837738966,
371.75,372.0,41,0.0,Stimuli/Blank.png,0,0,0.0,0,163,163,163,,,,,,,,,,,,,371.7800491999951,0.030049199995119125,5,0.18110819999856176,398.10070289999567,398.10070289999567,398.10070289999567,398.10070289999567,398.10070289999567,398.10070289999567,398.10070289999567,398.10070289999567,398.10070289999567,398.10070289999567,009,P001,2025_Jan_17_1929,ConditionRich,2021.2.3,59.94186837738966,
372.0,388.0,0,0.0,Stimuli/Blank.png,1,11,11.75,0,164,164,164,,,,,,,,,,,,,372.0309666999965,0.030966699996497482,5,13.930764100005035,398.3509772999969,398.3509772999969,398.3509772999969,398.3509772999969,398.3509772999969,398.3509772999969,409.32728209999914,410.0779665999944,398.3509772999969,398.3509772999969,009,P001,2025_Jan_17_1929,ConditionRich,2021.2.3,59.94186837738966,
