eventStartTime,eventEndTime,eventCond,imSize,imFile,responseEvent,fixRespStart,fixRespEnd,Events.thisRepN,Events.thisTrialN,Events.thisN,Events.thisIndex,Instructions.started,Instructions.stopped,participantReadyResponse.keys,participantReadyResponse.rt,participantReadyResponse.started,participantReadyResponse.stopped,startWaitforTrigger,triggerResponse.keys,triggerResponse.rt,triggerResponse.started,triggerResponse.stopped,globalTimer,actualStartTime,startTimingDiff,participantResponse.keys,participantResponse.rt,participantResponse.started,participantResponse.stopped,image.started,image.stopped,fixationOutside.started,fixationOutside.stopped,fixationResponse.started,fixationResponse.stopped,fixationInside.started,fixationInside.stopped,session,participant,date,expName,psychopyVersion,frameRate,
,,,,,,,,,,,,10.96991319999961,None,1,2.1205565999998726,10.96991319999961,None,,,,,,,,,,,,,,,,,,,,,009,P002,2025_Jan_18_1029,ConditionRich,2021.2.3,59.94819277195499,
,,,,,,,,,,,,,,,,,,13.099507699999776,5,13.321302599999399,13.1122462000003,None,,,,,,,,,,,,,,,,009,P002,2025_Jan_18_1029,ConditionRich,2021.2.3,59.94819277195499,
0.0,4.0,0,0.0,Stimuli/Blank.png,0,0.0,0.0,0,0,0,0,,,,,,,,,,,,26.4439725000002,0.04333979999955773,0.04333979999955773,5,3.925944800000252,26.507394000000204,None,26.507394000000204,None,26.507394000000204,None,26.507394000000204,26.507394000000204,26.507394000000204,None,009,P002,2025_Jan_18_1029,ConditionRich,2021.2.3,59.94819277195499,
4.0,4.75,9,0.75,Stimuli/P002/sun_awtltwwpwbepuuqv.jpg,0,0.0,0.0,0,1,1,1,,,,,,,,,,,,,4.019994999999653,0.019994999999653373,None,,30.477752699999655,30.477752699999655,30.477752699999655,30.477752699999655,30.477752699999655,30.477752699999655,30.477752699999655,30.477752699999655,30.477752699999655,30.477752699999655,009,P002,2025_Jan_18_1029,ConditionRich,2021.2.3,59.94819277195499,
4.75,8.0,41,0.0,Stimuli/Blank.png,0,0.0,0.0,0,2,2,2,,,,,,,,,,,,,4.753796599999987,0.003796599999986938,5,1.2217792999999801,31.2118602999999,31.2118602999999,31.2118602999999,31.2118602999999,31.2118602999999,31.2118602999999,31.2118602999999,31.2118602999999,31.2118602999999,31.2118602999999,009,P002,2025_Jan_18_1029,ConditionRich,2021.2.3,59.94819277195499,
8.0,8.75,12,0.75,Stimuli/P002/sun_bdxvmnlyovhqognn.jpg,0,0.0,0.0,0,3,3,3,,,,,,,,,,,,,8.006672299999991,0.006672299999991083,None,,34.464403400000265,34.464403400000265,34.464403400000265,34.464403400000265,34.464403400000265,34.464403400000265,34.464403400000265,34.464403400000265,34.464403400000265,34.464403400000265,009,P002,2025_Jan_18_1029,ConditionRich,2021.2.3,59.94819277195499,
8.75,12.0,41,0.0,Stimuli/Blank.png,0,0.0,0.0,0,4,4,4,,,,,,,,,,,,,8.757275099999788,0.007275099999787926,5,3.218291500000305,35.21506769999996,35.21506769999996,35.21506769999996,35.21506769999996,35.21506769999996,35.21506769999996,35.21506769999996,35.21506769999996,35.21506769999996,35.21506769999996,009,P002,2025_Jan_18_1029,ConditionRich,2021.2.3,59.94819277195499,
12.0,12.75,15,0.75,Stimuli/P002/sun_bfzoxbkvsfqxsyle.jpg,0,0.0,0.0,0,5,5,5,,,,,,,,,,,,,12.010077099999762,0.01007709999976214,None,,38.467927799999416,38.467927799999416,38.467927799999416,38.467927799999416,38.467927799999416,38.467927799999416,38.467927799999416,38.467927799999416,38.467927799999416,38.467927799999416,009,P002,2025_Jan_18_1029,ConditionRich,2021.2.3,59.94819277195499,
12.75,16.0,41,0.0,Stimuli/Blank.png,0,0.0,0.0,0,6,6,6,,,,,,,,,,,,,12.76234359999944,0.012343599999439903,5,3.1990684000002148,39.23527869999998,39.23527869999998,39.23527869999998,39.23527869999998,39.23527869999998,39.23527869999998,39.23527869999998,39.23527869999998,39.23527869999998,39.23527869999998,009,P002,2025_Jan_18_1029,ConditionRich,2021.2.3,59.94819277195499,
16.0,16.75,29,0.75,Stimuli/P002/things_grinder_01b.jpg,0,0.0,0.0,0,7,7,7,,,,,,,,,,,,,16.03256749999946,0.03256749999945896,None,,42.50481729999956,42.50481729999956,42.50481729999956,42.50481729999956,42.50481729999956,42.50481729999956,42.50481729999956,42.50481729999956,42.50481729999956,42.50481729999956,009,P002,2025_Jan_18_1029,ConditionRich,2021.2.3,59.94819277195499,
16.75,20.0,41,0.0,Stimuli/Blank.png,0,0.0,0.0,0,8,8,8,,,,,,,,,,,,,16.763872800000172,0.013872800000171992,5,1.212129200000163,43.222178999999414,43.222178999999414,43.222178999999414,43.222178999999414,43.222178999999414,43.222178999999414,43.222178999999414,43.222178999999414,43.222178999999414,43.222178999999414,009,P002,2025_Jan_18_1029,ConditionRich,2021.2.3,59.94819277195499,
20.0,20.75,38,0.75,Stimuli/P002/things_windowsill_01b.jpg,0,0.0,0.0,0,9,9,9,,,,,,,,,,,,,19.999762499999633,-0.00023750000036670826,None,,46.45829179999964,46.45829179999964,46.45829179999964,46.45829179999964,46.45829179999964,46.45829179999964,46.45829179999964,46.45829179999964,46.45829179999964,46.45829179999964,009,P002,2025_Jan_18_1029,ConditionRich,2021.2.3,59.94819277195499,
20.75,24.0,41,0.0,Stimuli/Blank.png,0,0.0,0.0,0,10,10,10,,,,,,,,,,,,,20.752741600000263,0.0027416000002631336,5,3.2075905000001512,47.22563850000006,47.22563850000006,47.22563850000006,47.22563850000006,47.22563850000006,47.22563850000006,47.22563850000006,47.22563850000006,47.22563850000006,47.22563850000006,009,P002,2025_Jan_18_1029,ConditionRich,2021.2.3,59.94819277195499,
24.0,24.75,22,0.75,Stimuli/P002/things_boy_01b.jpg,0,0.0,0.0,0,11,11,11,,,,,,,,,,,,,24.020386700000017,0.0203867000000173,None,,50.4784952,50.4784952,50.4784952,50.4784952,50.4784952,50.4784952,50.4784952,50.4784952,50.4784952,50.4784952,009,P002,2025_Jan_18_1029,ConditionRich,2021.2.3,59.94819277195499,
24.75,28.0,41,0.0,Stimuli/Blank.png,0,0.0,0.0,0,12,12,12,,,,,,,,,,,,,24.756714600000123,0.006714600000123028,5,3.2054588000000876,51.22916009999972,51.22916009999972,51.22916009999972,51.22916009999972,51.22916009999972,51.22916009999972,51.22916009999972,51.22916009999972,51.22916009999972,51.22916009999972,009,P002,2025_Jan_18_1029,ConditionRich,2021.2.3,59.94819277195499,
28.0,28.75,31,0.75,Stimuli/P002/things_man_01b.jpg,0,0.0,0.0,0,13,13,13,,,,,,,,,,,,,28.024014699999498,0.02401469999949768,None,,54.48201960000006,54.48201960000006,54.48201960000006,54.48201960000006,54.48201960000006,54.48201960000006,54.48201960000006,54.48201960000006,54.48201960000006,54.48201960000006,009,P002,2025_Jan_18_1029,ConditionRich,2021.2.3,59.94819277195499,
28.75,32.0,41,0.0,Stimuli/Blank.png,0,0.0,0.0,0,14,14,14,,,,,,,,,,,,,28.75739169999997,0.007391699999971024,5,3.218500299999505,55.2160001000002,55.2160001000002,55.2160001000002,55.2160001000002,55.2160001000002,55.2160001000002,55.2160001000002,55.2160001000002,55.2160001000002,55.2160001000002,009,P002,2025_Jan_18_1029,ConditionRich,2021.2.3,59.94819277195499,
32.0,32.75,25,0.75,Stimuli/P002/things_curry_01b.jpg,0,0.0,0.0,0,15,15,15,,,,,,,,,,,,,32.010653999999704,0.010653999999703956,None,,58.46887030000016,58.46887030000016,58.46887030000016,58.46887030000016,58.46887030000016,58.46887030000016,58.46887030000016,58.46887030000016,58.46887030000016,58.46887030000016,009,P002,2025_Jan_18_1029,ConditionRich,2021.2.3,59.94819277195499,
32.75,36.0,41,0.0,Stimuli/Blank.png,0,0.0,0.0,0,16,16,16,,,,,,,,,,,,,32.761744599999474,0.011744599999474303,5,3.214868399999432,59.21952349999992,59.21952349999992,59.21952349999992,59.21952349999992,59.21952349999992,59.21952349999992,59.21952349999992,59.21952349999992,59.21952349999992,59.21952349999992,009,P002,2025_Jan_18_1029,ConditionRich,2021.2.3,59.94819277195499,
36.0,36.75,21,0.75,Stimuli/P002/things_baby_01b.jpg,0,0.0,0.0,0,17,17,17,,,,,,,,,,,,,36.01407089999975,0.014070899999751418,None,,62.48906989999978,62.48906989999978,62.48906989999978,62.48906989999978,62.48906989999978,62.48906989999978,62.48906989999978,62.48906989999978,62.48906989999978,62.48906989999978,009,P002,2025_Jan_18_1029,ConditionRich,2021.2.3,59.94819277195499,
36.75,40.0,41,0.0,Stimuli/Blank.png,0,0.0,0.0,0,18,18,18,,,,,,,,,,,,,36.782595599999695,0.03259559999969497,5,1.194678599999861,63.23972700000013,63.23972700000013,63.23972700000013,63.23972700000013,63.23972700000013,63.23972700000013,63.23972700000013,63.23972700000013,63.23972700000013,63.23972700000013,009,P002,2025_Jan_18_1029,ConditionRich,2021.2.3,59.94819277195499,
40.0,40.75,16,0.75,Stimuli/P002/sun_biqyomkjbujnppuf.jpg,0,0.0,0.0,0,19,19,19,,,,,,,,,,,,,40.00167710000005,0.0016771000000517233,None,,66.4758984,66.4758984,66.4758984,66.4758984,66.4758984,66.4758984,66.4758984,66.4758984,66.4758984,66.4758984,009,P002,2025_Jan_18_1029,ConditionRich,2021.2.3,59.94819277195499,
40.75,44.0,41,0.0,Stimuli/Blank.png,1,2.25,3.0,0,20,20,20,,,,,,,,,,,,,40.76806690000012,0.018066900000121677,1,2.589940099999694,67.22656610000013,67.22656610000013,67.22656610000013,67.22656610000013,67.22656610000013,67.22656610000013,69.46191949999957,70.21256259999973,67.22656610000013,67.22656610000013,009,P002,2025_Jan_18_1029,ConditionRich,2021.2.3,59.94819277195499,
44.0,44.75,3,0.75,Stimuli/P002/sun_amarqtinchblqmah.jpg,0,0.0,0.0,0,21,21,21,,,,,,,,,,,,,44.00508960000025,0.005089600000246719,None,,70.46272669999962,70.46272669999962,70.46272669999962,70.46272669999962,70.46272669999962,70.46272669999962,70.46272669999962,70.46272669999962,70.46272669999962,70.46272669999962,009,P002,2025_Jan_18_1029,ConditionRich,2021.2.3,59.94819277195499,
44.75,48.0,41,0.0,Stimuli/Blank.png,0,0.0,0.0,0,22,22,22,,,,,,,,,,,,,44.75700159999997,0.0070015999999668566,5,3.2041817999997875,71.23010410000006,71.23010410000006,71.23010410000006,71.23010410000006,71.23010410000006,71.23010410000006,71.23010410000006,71.23010410000006,71.23010410000006,71.23010410000006,009,P002,2025_Jan_18_1029,ConditionRich,2021.2.3,59.94819277195499,
48.0,48.75,4,0.75,Stimuli/P002/sun_aonjwqswdblhlpkm.jpg,0,0.0,0.0,0,23,23,23,,,,,,,,,,,,,48.027391499999794,0.027391499999794178,None,,74.49963560000015,74.49963560000015,74.49963560000015,74.49963560000015,74.49963560000015,74.49963560000015,74.49963560000015,74.49963560000015,74.49963560000015,74.49963560000015,009,P002,2025_Jan_18_1029,ConditionRich,2021.2.3,59.94819277195499,
48.75,52.0,41,0.0,Stimuli/Blank.png,0,0.0,0.0,0,24,24,24,,,,,,,,,,,,,48.77794180000001,0.027941800000007788,5,3.1840091000003667,75.25030239999978,75.25030239999978,75.25030239999978,75.25030239999978,75.25030239999978,75.25030239999978,75.25030239999978,75.25030239999978,75.25030239999978,75.25030239999978,009,P002,2025_Jan_18_1029,ConditionRich,2021.2.3,59.94819277195499,
52.0,52.75,23,0.75,Stimuli/P002/things_chick_01b.jpg,1,0.0,0.75,0,25,25,25,,,,,,,,,,,,,52.02793219999967,0.027932199999668228,1,0.4787343999996665,78.4864705,78.4864705,78.4864705,78.4864705,78.4864705,78.4864705,78.4864705,None,78.4864705,78.4864705,009,P002,2025_Jan_18_1029,ConditionRich,2021.2.3,59.94819277195499,
52.75,56.0,41,0.0,Stimuli/Blank.png,0,0.0,0.0,0,26,26,26,,,,,,,,,,,,,52.76254539999991,0.012545399999908113,5,3.2137628999998924,79.22045869999965,79.22045869999965,79.22045869999965,79.22045869999965,79.22045869999965,79.22045869999965,79.22045869999965,79.22045869999965,79.22045869999965,79.22045869999965,009,P002,2025_Jan_18_1029,ConditionRich,2021.2.3,59.94819277195499,
56.0,56.75,30,0.75,Stimuli/P002/things_iguana_01b.jpg,0,0.0,0.0,0,27,27,27,,,,,,,,,,,,,56.0151536000003,0.015153600000303413,None,,82.47331299999951,82.47331299999951,82.47331299999951,82.47331299999951,82.47331299999951,82.47331299999951,82.47331299999951,82.47331299999951,82.47331299999951,82.47331299999951,009,P002,2025_Jan_18_1029,ConditionRich,2021.2.3,59.94819277195499,
56.75,60.0,41,0.0,Stimuli/Blank.png,1,2.25,3.0,0,28,28,28,,,,,,,,,,,,,56.74922400000014,-0.0007759999998597777,1,2.6509139999998297,83.20729070000016,83.20729070000016,83.20729070000016,83.20729070000016,83.20729070000016,83.20729070000016,85.44260419999955,86.19325320000007,83.20729070000016,83.20729070000016,009,P002,2025_Jan_18_1029,ConditionRich,2021.2.3,59.94819277195499,
60.0,60.75,39,0.75,Stimuli/P002/things_woman_01b.jpg,0,0.0,0.0,0,29,29,29,,,,,,,,,,,,,60.00232330000017,0.0023233000001710025,None,,86.46015689999967,86.46015689999967,86.46015689999967,86.46015689999967,86.46015689999967,86.46015689999967,86.46015689999967,86.46015689999967,86.46015689999967,86.46015689999967,009,P002,2025_Jan_18_1029,ConditionRich,2021.2.3,59.94819277195499,
60.75,64.0,41,0.0,Stimuli/Blank.png,0,0.0,0.0,0,30,30,30,,,,,,,,,,,,,60.75279599999976,0.002795999999761989,5,1.2233618000000206,87.2108204999995,87.2108204999995,87.2108204999995,87.2108204999995,87.2108204999995,87.2108204999995,87.2108204999995,87.2108204999995,87.2108204999995,87.2108204999995,009,P002,2025_Jan_18_1029,ConditionRich,2021.2.3,59.94819277195499,
64.0,64.75,24,0.75,Stimuli/P002/things_cornucopia_01b.jpg,0,0.0,0.0,0,31,31,31,,,,,,,,,,,,,64.00596039999982,0.005960399999821675,None,,90.46367970000028,90.46367970000028,90.46367970000028,90.46367970000028,90.46367970000028,90.46367970000028,90.46367970000028,90.46367970000028,90.46367970000028,90.46367970000028,009,P002,2025_Jan_18_1029,ConditionRich,2021.2.3,59.94819277195499,
64.75,68.0,41,0.0,Stimuli/Blank.png,0,0.0,0.0,0,32,32,32,,,,,,,,,,,,,64.75728059999983,0.0072805999998308835,5,3.219935699999951,91.21434390000013,91.21434390000013,91.21434390000013,91.21434390000013,91.21434390000013,91.21434390000013,91.21434390000013,91.21434390000013,91.21434390000013,91.21434390000013,009,P002,2025_Jan_18_1029,ConditionRich,2021.2.3,59.94819277195499,
68.0,68.75,34,0.75,Stimuli/P002/things_parrot_01b.jpg,0,0.0,0.0,0,33,33,33,,,,,,,,,,,,,68.00909140000022,0.009091400000215799,None,,94.48389489999954,94.48389489999954,94.48389489999954,94.48389489999954,94.48389489999954,94.48389489999954,94.48389489999954,94.48389489999954,94.48389489999954,94.48389489999954,009,P002,2025_Jan_18_1029,ConditionRich,2021.2.3,59.94819277195499,
68.75,72.0,41,0.0,Stimuli/Blank.png,0,0.0,0.0,0,34,34,34,,,,,,,,,,,,,68.77651779999997,0.026517799999965064,5,3.199683000000732,95.23455730000023,95.23455730000023,95.23455730000023,95.23455730000023,95.23455730000023,95.23455730000023,95.23455730000023,95.23455730000023,95.23455730000023,95.23455730000023,009,P002,2025_Jan_18_1029,ConditionRich,2021.2.3,59.94819277195499,
72.0,72.75,32,0.75,Stimuli/P002/things_oyster_01b.jpg,0,0.0,0.0,0,35,35,35,,,,,,,,,,,,,72.01271980000001,0.012719800000013493,None,,98.47073959999943,98.47073959999943,98.47073959999943,98.47073959999943,98.47073959999943,98.47073959999943,98.47073959999943,98.47073959999943,98.47073959999943,98.47073959999943,009,P002,2025_Jan_18_1029,ConditionRich,2021.2.3,59.94819277195499,
72.75,76.0,41,0.0,Stimuli/Blank.png,0,0.0,0.0,0,36,36,36,,,,,,,,,,,,,72.76294700000017,0.012947000000167463,5,1.2127328000005946,99.22138749999976,99.22138749999976,99.22138749999976,99.22138749999976,99.22138749999976,99.22138749999976,99.22138749999976,99.22138749999976,99.22138749999976,99.22138749999976,009,P002,2025_Jan_18_1029,ConditionRich,2021.2.3,59.94819277195499,
76.0,76.75,27,0.75,Stimuli/P002/things_dynamite_01b.jpg,0,0.0,0.0,0,37,37,37,,,,,,,,,,,,,75.99925369999983,-0.0007463000001735054,None,,102.4575678000001,102.4575678000001,102.4575678000001,102.4575678000001,102.4575678000001,102.4575678000001,102.4575678000001,102.4575678000001,102.4575678000001,102.4575678000001,009,P002,2025_Jan_18_1029,ConditionRich,2021.2.3,59.94819277195499,
76.75,80.0,41,0.0,Stimuli/Blank.png,1,2.25,3.0,0,38,38,38,,,,,,,,,,,,,76.75015280000025,0.00015280000025086338,1,2.6499097999994774,103.20829559999947,103.20829559999947,103.20829559999947,103.20829559999947,103.20829559999947,103.20829559999947,105.44355050000013,106.19418979999955,103.20829559999947,103.20829559999947,009,P002,2025_Jan_18_1029,ConditionRich,2021.2.3,59.94819277195499,
80.0,80.75,1,0.75,Stimuli/P002/sun_agpgdwkhzgvzdaea.jpg,1,0.0,0.75,0,39,39,39,,,,,,,,,,,,,80.0031669,0.003166899999996531,None,,106.46110299999964,106.46110299999964,106.46110299999964,106.46110299999964,106.46110299999964,106.46110299999964,106.46110299999964,107.19505990000016,106.46110299999964,106.46110299999964,009,P002,2025_Jan_18_1029,ConditionRich,2021.2.3,59.94819277195499,
80.75,84.0,41,0.0,Stimuli/Blank.png,0,0.0,0.0,0,40,40,40,,,,,,,,,,,,,80.75309109999944,0.0030910999994375743,5,1.2226448000001255,107.21174780000001,107.21174780000001,107.21174780000001,107.21174780000001,107.21174780000001,107.21174780000001,107.21174780000001,107.21174780000001,107.21174780000001,107.21174780000001,009,P002,2025_Jan_18_1029,ConditionRich,2021.2.3,59.94819277195499,
84.0,100.0,0,0.0,Stimuli/Blank.png,1,5.0,5.75,0,41,41,41,,,,,,,,,,,,,84.00603769999998,0.0060376999999789405,5,13.969599000000017,110.46461689999978,110.46461689999978,110.46461689999978,110.46461689999978,110.46461689999978,110.46461689999978,115.45236469999963,116.20304829999986,110.46461689999978,110.46461689999978,009,P002,2025_Jan_18_1029,ConditionRich,2021.2.3,59.94819277195499,
100.0,100.75,19,0.75,Stimuli/P002/sun_bzyyqqczvrnvukdn.jpg,0,0.0,0.0,0,42,42,42,,,,,,,,,,,,,100.00391930000023,0.003919300000234216,None,,126.47870150000017,126.47870150000017,126.47870150000017,126.47870150000017,126.47870150000017,126.47870150000017,126.47870150000017,126.47870150000017,126.47870150000017,126.47870150000017,009,P002,2025_Jan_18_1029,ConditionRich,2021.2.3,59.94819277195499,
100.75,104.0,41,0.0,Stimuli/Blank.png,0,0.0,0.0,0,43,43,43,,,,,,,,,,,,,100.77167149999968,0.021671499999683874,5,1.2046567999996114,127.22936449999997,127.22936449999997,127.22936449999997,127.22936449999997,127.22936449999997,127.22936449999997,127.22936449999997,127.22936449999997,127.22936449999997,127.22936449999997,009,P002,2025_Jan_18_1029,ConditionRich,2021.2.3,59.94819277195499,
104.0,104.75,33,0.75,Stimuli/P002/things_pan_01b.jpg,0,0.0,0.0,0,44,44,44,,,,,,,,,,,,,104.00738629999978,0.007386299999780022,None,,130.4655905999998,130.4655905999998,130.4655905999998,130.4655905999998,130.4655905999998,130.4655905999998,130.4655905999998,130.4655905999998,130.4655905999998,130.4655905999998,009,P002,2025_Jan_18_1029,ConditionRich,2021.2.3,59.94819277195499,
104.75,108.0,41,0.0,Stimuli/Blank.png,0,0.0,0.0,0,45,45,45,,,,,,,,,,,,,104.75847189999968,0.00847189999967668,5,3.217909299999519,131.21620840000014,131.21620840000014,131.21620840000014,131.21620840000014,131.21620840000014,131.21620840000014,131.21620840000014,131.21620840000014,131.21620840000014,131.21620840000014,009,P002,2025_Jan_18_1029,ConditionRich,2021.2.3,59.94819277195499,
108.0,108.75,2,0.75,Stimuli/P002/sun_akmxsxepquhynflp.jpg,0,0.0,0.0,0,46,46,46,,,,,,,,,,,,,108.01090120000026,0.010901200000262179,None,,134.46907060000012,134.46907060000012,134.46907060000012,134.46907060000012,134.46907060000012,134.46907060000012,134.46907060000012,134.46907060000012,134.46907060000012,134.46907060000012,009,P002,2025_Jan_18_1029,ConditionRich,2021.2.3,59.94819277195499,
108.75,112.0,41,0.0,Stimuli/Blank.png,1,0.25,1.0,0,47,47,47,,,,,,,,,,,,,108.76248599999963,0.012485999999626074,5,3.2142584999992323,135.21973890000027,135.21973890000027,135.21973890000027,135.21973890000027,135.21973890000027,135.21973890000027,135.45325929999944,136.2039222000003,135.21973890000027,135.21973890000027,009,P002,2025_Jan_18_1029,ConditionRich,2021.2.3,59.94819277195499,
112.0,112.75,36,0.75,Stimuli/P002/things_stalagmite_01b.jpg,0,0.0,0.0,0,48,48,48,,,,,,,,,,,,,112.0147664999995,0.014766499999495863,None,,138.4725910999996,138.4725910999996,138.4725910999996,138.4725910999996,138.4725910999996,138.4725910999996,138.4725910999996,138.4725910999996,138.4725910999996,138.4725910999996,009,P002,2025_Jan_18_1029,ConditionRich,2021.2.3,59.94819277195499,
112.75,116.0,41,0.0,Stimuli/Blank.png,0,0.0,0.0,0,49,49,49,,,,,,,,,,,,,112.76667579999958,0.016675799999575247,5,3.1942100000005667,139.2399544,139.2399544,139.2399544,139.2399544,139.2399544,139.2399544,139.2399544,139.2399544,139.2399544,139.2399544,009,P002,2025_Jan_18_1029,ConditionRich,2021.2.3,59.94819277195499,
116.0,116.75,7,0.75,Stimuli/P002/sun_arlesyjqxmqmcccl.jpg,0,0.0,0.0,0,50,50,50,,,,,,,,,,,,,116.01789519999966,0.017895199999657052,None,,142.4761153999998,142.4761153999998,142.4761153999998,142.4761153999998,142.4761153999998,142.4761153999998,142.4761153999998,142.4761153999998,142.4761153999998,142.4761153999998,009,P002,2025_Jan_18_1029,ConditionRich,2021.2.3,59.94819277195499,
116.75,120.0,41,0.0,Stimuli/Blank.png,0,0.0,0.0,0,51,51,51,,,,,,,,,,,,,116.75244469999961,0.002444699999614386,5,1.224082599999747,143.21010750000005,143.21010750000005,143.21010750000005,143.21010750000005,143.21010750000005,143.21010750000005,143.21010750000005,143.21010750000005,143.21010750000005,143.21010750000005,009,P002,2025_Jan_18_1029,ConditionRich,2021.2.3,59.94819277195499,
120.0,120.75,5,0.75,Stimuli/P002/sun_apwzcrxhvvnrexjh.jpg,0,0.0,0.0,0,52,52,52,,,,,,,,,,,,,120.0072081999997,0.007208199999695353,None,,146.47964499999944,146.47964499999944,146.47964499999944,146.47964499999944,146.47964499999944,146.47964499999944,146.47964499999944,146.47964499999944,146.47964499999944,146.47964499999944,009,P002,2025_Jan_18_1029,ConditionRich,2021.2.3,59.94819277195499,
120.75,124.0,41,0.0,Stimuli/Blank.png,0,0.0,0.0,0,53,53,53,,,,,,,,,,,,,120.77252880000015,0.022528800000145566,5,3.2036709999993036,147.23030339999968,147.23030339999968,147.23030339999968,147.23030339999968,147.23030339999968,147.23030339999968,147.23030339999968,147.23030339999968,147.23030339999968,147.23030339999968,009,P002,2025_Jan_18_1029,ConditionRich,2021.2.3,59.94819277195499,
124.0,124.75,11,0.75,Stimuli/P002/sun_bbfdgdyeqdnadvvi.jpg,0,0.0,0.0,0,54,54,54,,,,,,,,,,,,,124.00822150000022,0.00822150000021793,None,,150.46647949999988,150.46647949999988,150.46647949999988,150.46647949999988,150.46647949999988,150.46647949999988,150.46647949999988,150.46647949999988,150.46647949999988,150.46647949999988,009,P002,2025_Jan_18_1029,ConditionRich,2021.2.3,59.94819277195499,
124.75,128.0,41,0.0,Stimuli/Blank.png,1,1.25,2.0,0,55,55,55,,,,,,,,,,,,,124.75922009999977,0.009220099999765807,5,3.2169119999998657,151.21713480000017,151.21713480000017,151.21713480000017,151.21713480000017,151.21713480000017,151.21713480000017,152.45155299999988,153.20225719999962,151.21713480000017,151.21713480000017,009,P002,2025_Jan_18_1029,ConditionRich,2021.2.3,59.94819277195499,
128.0,128.75,6,0.75,Stimuli/P002/sun_aqbaaqeojrexbmcr.jpg,0,0.0,0.0,0,56,56,56,,,,,,,,,,,,,128.0114469,0.011446900000009919,None,,154.46999649999998,154.46999649999998,154.46999649999998,154.46999649999998,154.46999649999998,154.46999649999998,154.46999649999998,154.46999649999998,154.46999649999998,154.46999649999998,009,P002,2025_Jan_18_1029,ConditionRich,2021.2.3,59.94819277195499,
128.75,132.0,41,0.0,Stimuli/Blank.png,0,0.0,0.0,0,57,57,57,,,,,,,,,,,,,128.76244829999996,0.01244829999996,5,3.2132851999995182,155.22065959999964,155.22065959999964,155.22065959999964,155.22065959999964,155.22065959999964,155.22065959999964,155.22065959999964,155.22065959999964,155.22065959999964,155.22065959999964,009,P002,2025_Jan_18_1029,ConditionRich,2021.2.3,59.94819277195499,
132.0,132.75,17,0.75,Stimuli/P002/sun_bshgmgbmpvjkxfis.jpg,0,0.0,0.0,0,58,58,58,,,,,,,,,,,,,132.01563329999954,0.015633299999535666,None,,158.4735215999999,158.4735215999999,158.4735215999999,158.4735215999999,158.4735215999999,158.4735215999999,158.4735215999999,158.4735215999999,158.4735215999999,158.4735215999999,009,P002,2025_Jan_18_1029,ConditionRich,2021.2.3,59.94819277195499,
132.75,136.0,41,0.0,Stimuli/Blank.png,0,0.0,0.0,0,59,59,59,,,,,,,,,,,,,132.7517382999995,0.0017382999994879356,5,3.209687600000507,159.2242065999999,159.2242065999999,159.2242065999999,159.2242065999999,159.2242065999999,159.2242065999999,159.2242065999999,159.2242065999999,159.2242065999999,159.2242065999999,009,P002,2025_Jan_18_1029,ConditionRich,2021.2.3,59.94819277195499,
136.0,136.75,37,0.75,Stimuli/P002/things_starfish_01b.jpg,0,0.0,0.0,0,60,60,60,,,,,,,,,,,,,136.01928129999942,0.019281299999420298,None,,162.47704189999968,162.47704189999968,162.47704189999968,162.47704189999968,162.47704189999968,162.47704189999968,162.47704189999968,162.47704189999968,162.47704189999968,162.47704189999968,009,P002,2025_Jan_18_1029,ConditionRich,2021.2.3,59.94819277195499,
136.75,140.0,41,0.0,Stimuli/Blank.png,0,0.0,0.0,0,61,61,61,,,,,,,,,,,,,136.75317059999998,0.0031705999999758205,5,1.2232074000003195,163.21102679999967,163.21102679999967,163.21102679999967,163.21102679999967,163.21102679999967,163.21102679999967,163.21102679999967,163.21102679999967,163.21102679999967,163.21102679999967,009,P002,2025_Jan_18_1029,ConditionRich,2021.2.3,59.94819277195499,
140.0,140.75,14,0.75,Stimuli/P002/sun_bfgxassmmvhtarcc.jpg,0,0.0,0.0,0,62,62,62,,,,,,,,,,,,,140.00588059999973,0.005880599999727565,None,,166.46388729999944,166.46388729999944,166.46388729999944,166.46388729999944,166.46388729999944,166.46388729999944,166.46388729999944,166.46388729999944,166.46388729999944,166.46388729999944,009,P002,2025_Jan_18_1029,ConditionRich,2021.2.3,59.94819277195499,
140.75,144.0,41,0.0,Stimuli/Blank.png,1,0.25,1.0,0,63,63,63,,,,,,,,,,,,,140.75743039999998,0.007430399999975634,5,3.2194079000000784,167.21455499999956,167.21455499999956,167.21455499999956,167.21455499999956,167.21455499999956,167.21455499999956,167.4480752999998,168.1987409000003,167.21455499999956,167.21455499999956,009,P002,2025_Jan_18_1029,ConditionRich,2021.2.3,59.94819277195499,
144.0,144.75,20,0.75,Stimuli/P002/sun_dkgctqgpvxbaoyks.jpg,0,0.0,0.0,0,64,64,64,,,,,,,,,,,,,144.00901189999968,0.009011899999677553,None,,170.46741159999965,170.46741159999965,170.46741159999965,170.46741159999965,170.46741159999965,170.46741159999965,170.46741159999965,170.46741159999965,170.46741159999965,170.46741159999965,009,P002,2025_Jan_18_1029,ConditionRich,2021.2.3,59.94819277195499,
144.75,148.0,41,0.0,Stimuli/Blank.png,0,0.0,0.0,0,65,65,65,,,,,,,,,,,,,144.76194609999948,0.011946099999477156,5,3.199196600000505,171.23477019999973,171.23477019999973,171.23477019999973,171.23477019999973,171.23477019999973,171.23477019999973,171.23477019999973,171.23477019999973,171.23477019999973,171.23477019999973,009,P002,2025_Jan_18_1029,ConditionRich,2021.2.3,59.94819277195499,
148.0,148.75,10,0.75,Stimuli/P002/sun_aykefnhciwsffcrj.jpg,0,0.0,0.0,0,66,66,66,,,,,,,,,,,,,148.0292454999999,0.029245499999888125,None,,174.48761269999977,174.48761269999977,174.48761269999977,174.48761269999977,174.48761269999977,174.48761269999977,174.48761269999977,174.48761269999977,174.48761269999977,174.48761269999977,009,P002,2025_Jan_18_1029,ConditionRich,2021.2.3,59.94819277195499,
148.75,152.0,41,0.0,Stimuli/Blank.png,0,0.0,0.0,0,67,67,67,,,,,,,,,,,,,148.7633619999997,0.013361999999688123,5,1.21229620000031,175.22159079999983,175.22159079999983,175.22159079999983,175.22159079999983,175.22159079999983,175.22159079999983,175.22159079999983,175.22159079999983,175.22159079999983,175.22159079999983,009,P002,2025_Jan_18_1029,ConditionRich,2021.2.3,59.94819277195499,
152.0,152.75,28,0.75,Stimuli/P002/things_girl_01b.jpg,0,0.0,0.0,0,68,68,68,,,,,,,,,,,,,152.00185950000014,0.0018595000001369044,None,,178.47445330000028,178.47445330000028,178.47445330000028,178.47445330000028,178.47445330000028,178.47445330000028,178.47445330000028,178.47445330000028,178.47445330000028,178.47445330000028,009,P002,2025_Jan_18_1029,ConditionRich,2021.2.3,59.94819277195499,
152.75,156.0,41,0.0,Stimuli/Blank.png,0,0.0,0.0,0,69,69,69,,,,,,,,,,,,,152.7669133999998,0.01691339999979391,5,1.2089246000005005,179.22511549999945,179.22511549999945,179.22511549999945,179.22511549999945,179.22511549999945,179.22511549999945,179.22511549999945,179.22511549999945,179.22511549999945,179.22511549999945,009,P002,2025_Jan_18_1029,ConditionRich,2021.2.3,59.94819277195499,
156.0,156.75,35,0.75,Stimuli/P002/things_pepperoni_01b.jpg,0,0.0,0.0,0,70,70,70,,,,,,,,,,,,,156.00296460000027,0.002964600000268547,None,,182.46129909999945,182.46129909999945,182.46129909999945,182.46129909999945,182.46129909999945,182.46129909999945,182.46129909999945,182.46129909999945,182.46129909999945,182.46129909999945,009,P002,2025_Jan_18_1029,ConditionRich,2021.2.3,59.94819277195499,
156.75,160.0,41,0.0,Stimuli/Blank.png,0,0.0,0.0,0,71,71,71,,,,,,,,,,,,,156.75626459999967,0.006264599999667553,5,3.205269799999769,183.22864909999953,183.22864909999953,183.22864909999953,183.22864909999953,183.22864909999953,183.22864909999953,183.22864909999953,183.22864909999953,183.22864909999953,183.22864909999953,009,P002,2025_Jan_18_1029,ConditionRich,2021.2.3,59.94819277195499,
160.0,160.75,26,0.75,Stimuli/P002/things_dish_01b.jpg,0,0.0,0.0,0,72,72,72,,,,,,,,,,,,,160.02289670000027,0.022896700000273995,None,,186.48150170000008,186.48150170000008,186.48150170000008,186.48150170000008,186.48150170000008,186.48150170000008,186.48150170000008,186.48150170000008,186.48150170000008,186.48150170000008,009,P002,2025_Jan_18_1029,ConditionRich,2021.2.3,59.94819277195499,
160.75,164.0,41,0.0,Stimuli/Blank.png,0,0.0,0.0,0,73,73,73,,,,,,,,,,,,,160.7568795999996,0.006879599999592756,5,3.2182818000001134,187.21547920000012,187.21547920000012,187.21547920000012,187.21547920000012,187.21547920000012,187.21547920000012,187.21547920000012,187.21547920000012,187.21547920000012,187.21547920000012,009,P002,2025_Jan_18_1029,ConditionRich,2021.2.3,59.94819277195499,
164.0,164.75,13,0.75,Stimuli/P002/sun_bfdmlbkyioxnkodb.jpg,0,0.0,0.0,0,74,74,74,,,,,,,,,,,,,164.01009059999978,0.0100905999997849,None,,190.48503849999997,190.48503849999997,190.48503849999997,190.48503849999997,190.48503849999997,190.48503849999997,190.48503849999997,190.48503849999997,190.48503849999997,190.48503849999997,009,P002,2025_Jan_18_1029,ConditionRich,2021.2.3,59.94819277195499,
164.75,168.0,41,0.0,Stimuli/Blank.png,1,0.25,1.0,0,75,75,75,,,,,,,,,,,,,164.77794499999982,0.02794499999981781,5,3.198213200000282,191.23568669999986,191.23568669999986,191.23568669999986,191.23568669999986,191.23568669999986,191.23568669999986,191.46922649999942,192.2198424999997,191.23568669999986,191.23568669999986,009,P002,2025_Jan_18_1029,ConditionRich,2021.2.3,59.94819277195499,
168.0,168.75,18,0.75,Stimuli/P002/sun_bzjegfvyrvqtunza.jpg,0,0.0,0.0,0,76,76,76,,,,,,,,,,,,,168.01373450000028,0.013734500000282424,None,,194.47184039999956,194.47184039999956,194.47184039999956,194.47184039999956,194.47184039999956,194.47184039999956,194.47184039999956,194.47184039999956,194.47184039999956,194.47184039999956,009,P002,2025_Jan_18_1029,ConditionRich,2021.2.3,59.94819277195499,
168.75,172.0,41,0.0,Stimuli/Blank.png,0,0.0,0.0,0,77,77,77,,,,,,,,,,,,,168.76404709999952,0.014047099999515922,5,1.2114452999994683,195.22254189999967,195.22254189999967,195.22254189999967,195.22254189999967,195.22254189999967,195.22254189999967,195.22254189999967,195.22254189999967,195.22254189999967,195.22254189999967,009,P002,2025_Jan_18_1029,ConditionRich,2021.2.3,59.94819277195499,
172.0,172.75,8,0.75,Stimuli/P002/sun_asqboyqakusycvwd.jpg,0,0.0,0.0,0,78,78,78,,,,,,,,,,,,,172.00092339999992,0.0009233999999196385,None,,198.45871129999978,198.45871129999978,198.45871129999978,198.45871129999978,198.45871129999978,198.45871129999978,198.45871129999978,198.45871129999978,198.45871129999978,198.45871129999978,009,P002,2025_Jan_18_1029,ConditionRich,2021.2.3,59.94819277195499,
172.75,176.0,41,0.0,Stimuli/Blank.png,0,0.0,0.0,0,79,79,79,,,,,,,,,,,,,172.75115279999955,0.0011527999995450955,5,1.2244284999997035,199.20936830000028,199.20936830000028,199.20936830000028,199.20936830000028,199.20936830000028,199.20936830000028,199.20936830000028,199.20936830000028,199.20936830000028,199.20936830000028,009,P002,2025_Jan_18_1029,ConditionRich,2021.2.3,59.94819277195499,
176.0,176.75,40,0.75,Stimuli/P002/things_worm_01b.jpg,0,0.0,0.0,0,80,80,80,,,,,,,,,,,,,176.0069480000002,0.006948000000193133,None,,202.47891939999954,202.47891939999954,202.47891939999954,202.47891939999954,202.47891939999954,202.47891939999954,202.47891939999954,202.47891939999954,202.47891939999954,202.47891939999954,009,P002,2025_Jan_18_1029,ConditionRich,2021.2.3,59.94819277195499,
176.75,180.0,41,0.0,Stimuli/Blank.png,0,0.0,0.0,0,81,81,81,,,,,,,,,,,,,176.77219090000017,0.022190900000168767,5,3.204180699999597,203.22958019999987,203.22958019999987,203.22958019999987,203.22958019999987,203.22958019999987,203.22958019999987,203.22958019999987,203.22958019999987,203.22958019999987,203.22958019999987,009,P002,2025_Jan_18_1029,ConditionRich,2021.2.3,59.94819277195499,
180.0,196.0,0,0.0,Stimuli/Blank.png,1,11.0,11.75,0,82,82,82,,,,,,,,,,,,,180.00778879999962,0.007788799999616458,5,13.967929299999923,206.4657570999998,206.4657570999998,206.4657570999998,206.4657570999998,206.4657570999998,206.4657570999998,217.44206549999944,218.19272499999988,206.4657570999998,206.4657570999998,009,P002,2025_Jan_18_1029,ConditionRich,2021.2.3,59.94819277195499,
196.0,196.75,22,0.75,Stimuli/P002/things_boy_01b.jpg,0,0.0,0.0,0,83,83,83,,,,,,,,,,,,,196.00746040000013,0.007460400000127265,None,,222.4798410000003,222.4798410000003,222.4798410000003,222.4798410000003,222.4798410000003,222.4798410000003,222.4798410000003,222.4798410000003,222.4798410000003,222.4798410000003,009,P002,2025_Jan_18_1029,ConditionRich,2021.2.3,59.94819277195499,
196.75,200.0,41,0.0,Stimuli/Blank.png,0,0.0,0.0,0,84,84,84,,,,,,,,,,,,,196.7722673999997,0.022267399999691406,5,3.2032531000004383,223.2305008000003,223.2305008000003,223.2305008000003,223.2305008000003,223.2305008000003,223.2305008000003,223.2305008000003,223.2305008000003,223.2305008000003,223.2305008000003,009,P002,2025_Jan_18_1029,ConditionRich,2021.2.3,59.94819277195499,
200.0,200.75,14,0.75,Stimuli/P002/sun_bfgxassmmvhtarcc.jpg,0,0.0,0.0,0,85,85,85,,,,,,,,,,,,,200.00847319999957,0.00847319999957108,None,,226.4833792999998,226.4833792999998,226.4833792999998,226.4833792999998,226.4833792999998,226.4833792999998,226.4833792999998,226.4833792999998,226.4833792999998,226.4833792999998,009,P002,2025_Jan_18_1029,ConditionRich,2021.2.3,59.94819277195499,
200.75,204.0,41,0.0,Stimuli/Blank.png,0,0.0,0.0,0,86,86,86,,,,,,,,,,,,,200.7768092999995,0.026809299999513314,5,3.199738199999956,227.23403229999985,227.23403229999985,227.23403229999985,227.23403229999985,227.23403229999985,227.23403229999985,227.23403229999985,227.23403229999985,227.23403229999985,227.23403229999985,009,P002,2025_Jan_18_1029,ConditionRich,2021.2.3,59.94819277195499,
204.0,204.75,15,0.75,Stimuli/P002/sun_bfzoxbkvsfqxsyle.jpg,0,0.0,0.0,0,87,87,87,,,,,,,,,,,,,204.01229580000017,0.012295800000174495,None,,230.4702067999997,230.4702067999997,230.4702067999997,230.4702067999997,230.4702067999997,230.4702067999997,230.4702067999997,230.4702067999997,230.4702067999997,230.4702067999997,009,P002,2025_Jan_18_1029,ConditionRich,2021.2.3,59.94819277195499,
204.75,208.0,41,0.0,Stimuli/Blank.png,0,0.0,0.0,0,88,88,88,,,,,,,,,,,,,204.7631793999999,0.013179399999899033,5,1.212831499999993,231.22086599999966,231.22086599999966,231.22086599999966,231.22086599999966,231.22086599999966,231.22086599999966,231.22086599999966,231.22086599999966,231.22086599999966,231.22086599999966,009,P002,2025_Jan_18_1029,ConditionRich,2021.2.3,59.94819277195499,
208.0,208.75,21,0.75,Stimuli/P002/things_baby_01b.jpg,0,0.0,0.0,0,89,89,89,,,,,,,,,,,,,207.99871499999972,-0.0012850000002799788,None,,234.4570477999996,234.4570477999996,234.4570477999996,234.4570477999996,234.4570477999996,234.4570477999996,234.4570477999996,234.4570477999996,234.4570477999996,234.4570477999996,009,P002,2025_Jan_18_1029,ConditionRich,2021.2.3,59.94819277195499,
208.75,212.0,41,0.0,Stimuli/Blank.png,1,2.25,3.0,0,90,90,90,,,,,,,,,,,,,208.75160270000015,0.0016027000001486158,5,3.2092861000000994,235.22440989999996,235.22440989999996,235.22440989999996,235.22440989999996,235.22440989999996,235.22440989999996,237.45969280000008,238.2103422,235.22440989999996,235.22440989999996,009,P002,2025_Jan_18_1029,ConditionRich,2021.2.3,59.94819277195499,
212.0,212.75,8,0.75,Stimuli/P002/sun_asqboyqakusycvwd.jpg,0,0.0,0.0,0,91,91,91,,,,,,,,,,,,,212.01896690000012,0.018966900000123132,None,,238.49393830000008,238.49393830000008,238.49393830000008,238.49393830000008,238.49393830000008,238.49393830000008,238.49393830000008,238.49393830000008,238.49393830000008,238.49393830000008,009,P002,2025_Jan_18_1029,ConditionRich,2021.2.3,59.94819277195499,
212.75,216.0,41,0.0,Stimuli/Blank.png,0,0.0,0.0,0,92,92,92,,,,,,,,,,,,,212.7698349000002,0.01983490000020538,5,1.205923999999868,239.2279865999999,239.2279865999999,239.2279865999999,239.2279865999999,239.2279865999999,239.2279865999999,239.2279865999999,239.2279865999999,239.2279865999999,239.2279865999999,009,P002,2025_Jan_18_1029,ConditionRich,2021.2.3,59.94819277195499,
216.0,216.75,34,0.75,Stimuli/P002/things_parrot_01b.jpg,0,0.0,0.0,0,93,93,93,,,,,,,,,,,,,216.00588289999996,0.0058828999999605,None,,242.46408969999993,242.46408969999993,242.46408969999993,242.46408969999993,242.46408969999993,242.46408969999993,242.46408969999993,242.46408969999993,242.46408969999993,242.46408969999993,009,P002,2025_Jan_18_1029,ConditionRich,2021.2.3,59.94819277195499,
216.75,220.0,41,0.0,Stimuli/Blank.png,0,0.0,0.0,0,94,94,94,,,,,,,,,,,,,216.75675090000004,0.006750900000042748,5,3.2188547999994626,243.21476079999957,243.21476079999957,243.21476079999957,243.21476079999957,243.21476079999957,243.21476079999957,243.21476079999957,243.21476079999957,243.21476079999957,243.21476079999957,009,P002,2025_Jan_18_1029,ConditionRich,2021.2.3,59.94819277195499,
220.0,220.75,33,0.75,Stimuli/P002/things_pan_01b.jpg,0,0.0,0.0,0,95,95,95,,,,,,,,,,,,,220.01156009999977,0.01156009999976959,None,,246.48430980000012,246.48430980000012,246.48430980000012,246.48430980000012,246.48430980000012,246.48430980000012,246.48430980000012,246.48430980000012,246.48430980000012,246.48430980000012,009,P002,2025_Jan_18_1029,ConditionRich,2021.2.3,59.94819277195499,
220.75,224.0,41,0.0,Stimuli/Blank.png,1,0.25,1.0,0,96,96,96,,,,,,,,,,,,,220.77716549999968,0.027165499999682652,5,3.198645899999974,247.23496259999956,247.23496259999956,247.23496259999956,247.23496259999956,247.23496259999956,247.23496259999956,247.46848760000012,248.21915629999967,247.23496259999956,247.23496259999956,009,P002,2025_Jan_18_1029,ConditionRich,2021.2.3,59.94819277195499,
224.0,224.75,24,0.75,Stimuli/P002/things_cornucopia_01b.jpg,0,0.0,0.0,0,97,97,97,,,,,,,,,,,,,224.01283869999952,0.012838699999520031,None,,250.47113609999997,250.47113609999997,250.47113609999997,250.47113609999997,250.47113609999997,250.47113609999997,250.47113609999997,250.47113609999997,250.47113609999997,250.47113609999997,009,P002,2025_Jan_18_1029,ConditionRich,2021.2.3,59.94819277195499,
224.75,228.0,41,0.0,Stimuli/Blank.png,0,0.0,0.0,0,98,98,98,,,,,,,,,,,,,224.76376600000003,0.013766000000032363,5,1.211784600000101,251.22180209999988,251.22180209999988,251.22180209999988,251.22180209999988,251.22180209999988,251.22180209999988,251.22180209999988,251.22180209999988,251.22180209999988,251.22180209999988,009,P002,2025_Jan_18_1029,ConditionRich,2021.2.3,59.94819277195499,
228.0,228.75,27,0.75,Stimuli/P002/things_dynamite_01b.jpg,0,0.0,0.0,0,99,99,99,,,,,,,,,,,,,228.00252089999958,0.002520899999581161,None,,254.4746726000003,254.4746726000003,254.4746726000003,254.4746726000003,254.4746726000003,254.4746726000003,254.4746726000003,254.4746726000003,254.4746726000003,254.4746726000003,009,P002,2025_Jan_18_1029,ConditionRich,2021.2.3,59.94819277195499,
228.75,232.0,41,0.0,Stimuli/Blank.png,1,1.25,2.0,0,100,100,100,,,,,,,,,,,,,228.76708020000024,0.0170802000002368,1,1.6583275000002686,255.22532450000017,255.22532450000017,255.22532450000017,255.22532450000017,255.22532450000017,255.22532450000017,256.45973909999975,257.2105320999999,255.22532450000017,255.22532450000017,009,P002,2025_Jan_18_1029,ConditionRich,2021.2.3,59.94819277195499,
232.0,232.75,1,0.75,Stimuli/P002/sun_agpgdwkhzgvzdaea.jpg,0,0.0,0.0,0,101,101,101,,,,,,,,,,,,,232.00313769999957,0.0031376999995700317,None,,258.4615468000002,258.4615468000002,258.4615468000002,258.4615468000002,258.4615468000002,258.4615468000002,258.4615468000002,258.4615468000002,258.4615468000002,258.4615468000002,009,P002,2025_Jan_18_1029,ConditionRich,2021.2.3,59.94819277195499,
232.75,236.0,41,0.0,Stimuli/Blank.png,1,0.25,1.0,0,102,102,102,,,,,,,,,,,,,232.7560811000003,0.006081100000301376,5,3.2049738000005163,259.2288662000001,259.2288662000001,259.2288662000001,259.2288662000001,259.2288662000001,259.2288662000001,259.46238559999983,260.21306319999985,259.2288662000001,259.2288662000001,009,P002,2025_Jan_18_1029,ConditionRich,2021.2.3,59.94819277195499,
236.0,236.75,2,0.75,Stimuli/P002/sun_akmxsxepquhynflp.jpg,0,0.0,0.0,0,103,103,103,,,,,,,,,,,,,236.02378419999968,0.023784199999681732,None,,262.48170279999977,262.48170279999977,262.48170279999977,262.48170279999977,262.48170279999977,262.48170279999977,262.48170279999977,262.48170279999977,262.48170279999977,262.48170279999977,009,P002,2025_Jan_18_1029,ConditionRich,2021.2.3,59.94819277195499,
236.75,240.0,41,0.0,Stimuli/Blank.png,0,0.0,0.0,0,104,104,104,,,,,,,,,,,,,236.75721449999946,0.007214499999463442,5,3.217911400000048,263.2156864999997,263.2156864999997,263.2156864999997,263.2156864999997,263.2156864999997,263.2156864999997,263.2156864999997,263.2156864999997,263.2156864999997,263.2156864999997,009,P002,2025_Jan_18_1029,ConditionRich,2021.2.3,59.94819277195499,
240.0,240.75,28,0.75,Stimuli/P002/things_girl_01b.jpg,0,0.0,0.0,0,105,105,105,,,,,,,,,,,,,240.01026600000023,0.010266000000228814,None,,266.4685523999997,266.4685523999997,266.4685523999997,266.4685523999997,266.4685523999997,266.4685523999997,266.4685523999997,266.4685523999997,266.4685523999997,266.4685523999997,009,P002,2025_Jan_18_1029,ConditionRich,2021.2.3,59.94819277195499,
240.75,244.0,41,0.0,Stimuli/Blank.png,0,0.0,0.0,0,106,106,106,,,,,,,,,,,,,240.76188269999966,0.011882699999659962,5,3.215284499999143,267.21921049999946,267.21921049999946,267.21921049999946,267.21921049999946,267.21921049999946,267.21921049999946,267.21921049999946,267.21921049999946,267.21921049999946,267.21921049999946,009,P002,2025_Jan_18_1029,ConditionRich,2021.2.3,59.94819277195499,
244.0,244.75,17,0.75,Stimuli/P002/sun_bshgmgbmpvjkxfis.jpg,0,0.0,0.0,0,107,107,107,,,,,,,,,,,,,244.0143435,0.014343499999995402,None,,270.48874369999976,270.48874369999976,270.48874369999976,270.48874369999976,270.48874369999976,270.48874369999976,270.48874369999976,270.48874369999976,270.48874369999976,270.48874369999976,009,P002,2025_Jan_18_1029,ConditionRich,2021.2.3,59.94819277195499,
244.75,248.0,41,0.0,Stimuli/Blank.png,0,0.0,0.0,0,108,108,108,,,,,,,,,,,,,244.78200149999975,0.032001499999751104,5,1.1942680000001928,271.23941509999986,271.23941509999986,271.23941509999986,271.23941509999986,271.23941509999986,271.23941509999986,271.23941509999986,271.23941509999986,271.23941509999986,271.23941509999986,009,P002,2025_Jan_18_1029,ConditionRich,2021.2.3,59.94819277195499,
248.0,248.75,9,0.75,Stimuli/P002/sun_awtltwwpwbepuuqv.jpg,0,0.0,0.0,0,109,109,109,,,,,,,,,,,,,248.00108799999998,0.0010879999999815482,None,,274.4589162000002,274.4589162000002,274.4589162000002,274.4589162000002,274.4589162000002,274.4589162000002,274.4589162000002,274.4589162000002,274.4589162000002,274.4589162000002,009,P002,2025_Jan_18_1029,ConditionRich,2021.2.3,59.94819277195499,
248.75,252.0,41,0.0,Stimuli/Blank.png,0,0.0,0.0,0,110,110,110,,,,,,,,,,,,,248.75239839999995,0.002398399999947287,5,1.224924899999678,275.20958169999994,275.20958169999994,275.20958169999994,275.20958169999994,275.20958169999994,275.20958169999994,275.20958169999994,275.20958169999994,275.20958169999994,275.20958169999994,009,P002,2025_Jan_18_1029,ConditionRich,2021.2.3,59.94819277195499,
252.0,252.75,35,0.75,Stimuli/P002/things_pepperoni_01b.jpg,0,0.0,0.0,0,111,111,111,,,,,,,,,,,,,252.00635839999995,0.00635839999995369,None,,278.4791196999995,278.4791196999995,278.4791196999995,278.4791196999995,278.4791196999995,278.4791196999995,278.4791196999995,278.4791196999995,278.4791196999995,278.4791196999995,009,P002,2025_Jan_18_1029,ConditionRich,2021.2.3,59.94819277195499,
252.75,256.0,41,0.0,Stimuli/Blank.png,1,2.25,3.0,0,112,112,112,,,,,,,,,,,,,252.77268269999968,0.022682699999677425,5,3.1880425999997897,279.24648030000026,279.24648030000026,279.24648030000026,279.24648030000026,279.24648030000026,279.24648030000026,281.4650684999997,282.2157747000001,279.24648030000026,279.24648030000026,009,P002,2025_Jan_18_1029,ConditionRich,2021.2.3,59.94819277195499,
256.0,256.75,19,0.75,Stimuli/P002/sun_bzyyqqczvrnvukdn.jpg,0,0.0,0.0,0,113,113,113,,,,,,,,,,,,,256.02485830000023,0.024858300000232703,None,,282.48264459999973,282.48264459999973,282.48264459999973,282.48264459999973,282.48264459999973,282.48264459999973,282.48264459999973,282.48264459999973,282.48264459999973,282.48264459999973,009,P002,2025_Jan_18_1029,ConditionRich,2021.2.3,59.94819277195499,
256.75,260.0,41,0.0,Stimuli/Blank.png,0,0.0,0.0,0,114,114,114,,,,,,,,,,,,,256.75882509999974,0.008825099999739905,5,3.217936899999586,283.21661270000004,283.21661270000004,283.21661270000004,283.21661270000004,283.21661270000004,283.21661270000004,283.21661270000004,283.21661270000004,283.21661270000004,283.21661270000004,009,P002,2025_Jan_18_1029,ConditionRich,2021.2.3,59.94819277195499,
260.0,260.75,39,0.75,Stimuli/P002/things_woman_01b.jpg,0,0.0,0.0,0,115,115,115,,,,,,,,,,,,,260.0115337999996,0.01153379999959725,None,,286.4694811999998,286.4694811999998,286.4694811999998,286.4694811999998,286.4694811999998,286.4694811999998,286.4694811999998,286.4694811999998,286.4694811999998,286.4694811999998,009,P002,2025_Jan_18_1029,ConditionRich,2021.2.3,59.94819277195499,
260.75,264.0,41,0.0,Stimuli/Blank.png,0,0.0,0.0,0,116,116,116,,,,,,,,,,,,,260.7615433000001,0.011543300000084855,5,3.2143146999997043,287.22014169999966,287.22014169999966,287.22014169999966,287.22014169999966,287.22014169999966,287.22014169999966,287.22014169999966,287.22014169999966,287.22014169999966,287.22014169999966,009,P002,2025_Jan_18_1029,ConditionRich,2021.2.3,59.94819277195499,
264.0,264.75,23,0.75,Stimuli/P002/things_chick_01b.jpg,0,0.0,0.0,0,117,117,117,,,,,,,,,,,,,264.0153379000003,0.015337900000304217,None,,290.47300780000023,290.47300780000023,290.47300780000023,290.47300780000023,290.47300780000023,290.47300780000023,290.47300780000023,290.47300780000023,290.47300780000023,290.47300780000023,009,P002,2025_Jan_18_1029,ConditionRich,2021.2.3,59.94819277195499,
264.75,268.0,41,0.0,Stimuli/Blank.png,0,0.0,0.0,0,118,118,118,,,,,,,,,,,,,264.7509651999999,0.0009651999998823158,5,3.2108030999997936,291.22367849999955,291.22367849999955,291.22367849999955,291.22367849999955,291.22367849999955,291.22367849999955,291.22367849999955,291.22367849999955,291.22367849999955,291.22367849999955,009,P002,2025_Jan_18_1029,ConditionRich,2021.2.3,59.94819277195499,
268.0,268.75,3,0.75,Stimuli/P002/sun_amarqtinchblqmah.jpg,0,0.0,0.0,0,119,119,119,,,,,,,,,,,,,268.01827779999985,0.018277799999850686,None,,294.47653360000004,294.47653360000004,294.47653360000004,294.47653360000004,294.47653360000004,294.47653360000004,294.47653360000004,294.47653360000004,294.47653360000004,294.47653360000004,009,P002,2025_Jan_18_1029,ConditionRich,2021.2.3,59.94819277195499,
268.75,272.0,41,0.0,Stimuli/Blank.png,0,0.0,0.0,0,120,120,120,,,,,,,,,,,,,268.7522339999996,0.0022339999995892867,5,1.223899700000402,295.2105056999999,295.2105056999999,295.2105056999999,295.2105056999999,295.2105056999999,295.2105056999999,295.2105056999999,295.2105056999999,295.2105056999999,295.2105056999999,009,P002,2025_Jan_18_1029,ConditionRich,2021.2.3,59.94819277195499,
272.0,272.75,5,0.75,Stimuli/P002/sun_apwzcrxhvvnrexjh.jpg,0,0.0,0.0,0,121,121,121,,,,,,,,,,,,,272.00562889999946,0.00562889999946492,None,,298.4800464,298.4800464,298.4800464,298.4800464,298.4800464,298.4800464,298.4800464,298.4800464,298.4800464,298.4800464,009,P002,2025_Jan_18_1029,ConditionRich,2021.2.3,59.94819277195499,
272.75,276.0,41,0.0,Stimuli/Blank.png,0,0.0,0.0,0,122,122,122,,,,,,,,,,,,,272.7730279999996,0.023027999999612803,5,3.20374720000018,299.2307106999997,299.2307106999997,299.2307106999997,299.2307106999997,299.2307106999997,299.2307106999997,299.2307106999997,299.2307106999997,299.2307106999997,299.2307106999997,009,P002,2025_Jan_18_1029,ConditionRich,2021.2.3,59.94819277195499,
276.0,292.0,0,0.0,Stimuli/Blank.png,1,7.0,7.75,0,123,123,123,,,,,,,,,,,,,276.0113148999999,0.01131489999988844,5,15.950785399999404,302.4835889999995,302.4835889999995,302.4835889999995,302.4835889999995,302.4835889999995,302.4835889999995,309.45641220000016,310.2070652000002,302.4835889999995,302.4835889999995,009,P002,2025_Jan_18_1029,ConditionRich,2021.2.3,59.94819277195499,
292.0,292.75,18,0.75,Stimuli/P002/sun_bzjegfvyrvqtunza.jpg,0,0.0,0.0,0,124,124,124,,,,,,,,,,,,,292.02262429999973,0.02262429999973392,None,,318.4809798999995,318.4809798999995,318.4809798999995,318.4809798999995,318.4809798999995,318.4809798999995,318.4809798999995,318.4809798999995,318.4809798999995,318.4809798999995,009,P002,2025_Jan_18_1029,ConditionRich,2021.2.3,59.94819277195499,
292.75,296.0,41,0.0,Stimuli/Blank.png,0,0.0,0.0,0,125,125,125,,,,,,,,,,,,,292.7566019999995,0.006601999999475083,5,3.219392799999696,319.2149615999997,319.2149615999997,319.2149615999997,319.2149615999997,319.2149615999997,319.2149615999997,319.2149615999997,319.2149615999997,319.2149615999997,319.2149615999997,009,P002,2025_Jan_18_1029,ConditionRich,2021.2.3,59.94819277195499,
296.0,296.75,12,0.75,Stimuli/P002/sun_bdxvmnlyovhqognn.jpg,0,0.0,0.0,0,126,126,126,,,,,,,,,,,,,296.01150849999976,0.011508499999763444,None,,322.48451099999966,322.48451099999966,322.48451099999966,322.48451099999966,322.48451099999966,322.48451099999966,322.48451099999966,322.48451099999966,322.48451099999966,322.48451099999966,009,P002,2025_Jan_18_1029,ConditionRich,2021.2.3,59.94819277195499,
296.75,300.0,41,0.0,Stimuli/Blank.png,0,0.0,0.0,0,127,127,127,,,,,,,,,,,,,296.7773003000002,0.027300300000206335,5,3.199287300000833,323.2351625000001,323.2351625000001,323.2351625000001,323.2351625000001,323.2351625000001,323.2351625000001,323.2351625000001,323.2351625000001,323.2351625000001,323.2351625000001,009,P002,2025_Jan_18_1029,ConditionRich,2021.2.3,59.94819277195499,
300.0,300.75,37,0.75,Stimuli/P002/things_starfish_01b.jpg,0,0.0,0.0,0,128,128,128,,,,,,,,,,,,,300.0160012999995,0.01600129999951605,None,,326.48803789999965,326.48803789999965,326.48803789999965,326.48803789999965,326.48803789999965,326.48803789999965,326.48803789999965,326.48803789999965,326.48803789999965,326.48803789999965,009,P002,2025_Jan_18_1029,ConditionRich,2021.2.3,59.94819277195499,
300.75,304.0,41,0.0,Stimuli/Blank.png,0,0.0,0.0,0,129,129,129,,,,,,,,,,,,,300.7658418000001,0.01584180000008928,5,3.195673899999747,327.2386881000002,327.2386881000002,327.2386881000002,327.2386881000002,327.2386881000002,327.2386881000002,327.2386881000002,327.2386881000002,327.2386881000002,327.2386881000002,009,P002,2025_Jan_18_1029,ConditionRich,2021.2.3,59.94819277195499,
304.0,304.75,38,0.75,Stimuli/P002/things_windowsill_01b.jpg,0,0.0,0.0,0,130,130,130,,,,,,,,,,,,,304.01667720000023,0.016677200000231096,None,,330.4748655000003,330.4748655000003,330.4748655000003,330.4748655000003,330.4748655000003,330.4748655000003,330.4748655000003,330.4748655000003,330.4748655000003,330.4748655000003,009,P002,2025_Jan_18_1029,ConditionRich,2021.2.3,59.94819277195499,
304.75,308.0,41,0.0,Stimuli/Blank.png,0,0.0,0.0,0,131,131,131,,,,,,,,,,,,,304.7504710000003,0.0004710000002887682,5,1.2255969999996523,331.20884579999984,331.20884579999984,331.20884579999984,331.20884579999984,331.20884579999984,331.20884579999984,331.20884579999984,331.20884579999984,331.20884579999984,331.20884579999984,009,P002,2025_Jan_18_1029,ConditionRich,2021.2.3,59.94819277195499,
308.0,308.75,31,0.75,Stimuli/P002/things_man_01b.jpg,0,0.0,0.0,0,132,132,132,,,,,,,,,,,,,308.00597000000016,0.005970000000161235,None,,334.4784910999997,334.4784910999997,334.4784910999997,334.4784910999997,334.4784910999997,334.4784910999997,334.4784910999997,334.4784910999997,334.4784910999997,334.4784910999997,009,P002,2025_Jan_18_1029,ConditionRich,2021.2.3,59.94819277195499,
308.75,312.0,41,0.0,Stimuli/Blank.png,1,1.25,2.0,0,133,133,133,,,,,,,,,,,,,308.77121569999963,0.021215699999629578,1,1.5652698999992936,335.22904930000004,335.22904930000004,335.22904930000004,335.22904930000004,335.22904930000004,335.22904930000004,336.4634606999998,337.2141338000001,335.22904930000004,335.22904930000004,009,P002,2025_Jan_18_1029,ConditionRich,2021.2.3,59.94819277195499,
312.0,312.75,4,0.75,Stimuli/P002/sun_aonjwqswdblhlpkm.jpg,0,0.0,0.0,0,134,134,134,,,,,,,,,,,,,312.0073941999999,0.007394199999907869,None,,338.46523439999964,338.46523439999964,338.46523439999964,338.46523439999964,338.46523439999964,338.46523439999964,338.46523439999964,338.46523439999964,338.46523439999964,338.46523439999964,009,P002,2025_Jan_18_1029,ConditionRich,2021.2.3,59.94819277195499,
312.75,316.0,41,0.0,Stimuli/Blank.png,0,0.0,0.0,0,135,135,135,,,,,,,,,,,,,312.75826549999965,0.008265499999652093,5,3.218451200000345,339.2159204999998,339.2159204999998,339.2159204999998,339.2159204999998,339.2159204999998,339.2159204999998,339.2159204999998,339.2159204999998,339.2159204999998,339.2159204999998,009,P002,2025_Jan_18_1029,ConditionRich,2021.2.3,59.94819277195499,
316.0,316.75,26,0.75,Stimuli/P002/things_dish_01b.jpg,0,0.0,0.0,0,136,136,136,,,,,,,,,,,,,316.01160400000026,0.011604000000261294,None,,342.4687627000003,342.4687627000003,342.4687627000003,342.4687627000003,342.4687627000003,342.4687627000003,342.4687627000003,342.4687627000003,342.4687627000003,342.4687627000003,009,P002,2025_Jan_18_1029,ConditionRich,2021.2.3,59.94819277195499,
316.75,320.0,41,0.0,Stimuli/Blank.png,0,0.0,0.0,0,137,137,137,,,,,,,,,,,,,316.7615525000001,0.011552500000107102,5,3.2148548000004666,343.21942320000016,343.21942320000016,343.21942320000016,343.21942320000016,343.21942320000016,343.21942320000016,343.21942320000016,343.21942320000016,343.21942320000016,343.21942320000016,009,P002,2025_Jan_18_1029,ConditionRich,2021.2.3,59.94819277195499,
320.0,320.75,36,0.75,Stimuli/P002/things_stalagmite_01b.jpg,0,0.0,0.0,0,138,138,138,,,,,,,,,,,,,320.01634699999977,0.01634699999976874,None,,346.48897039999974,346.48897039999974,346.48897039999974,346.48897039999974,346.48897039999974,346.48897039999974,346.48897039999974,346.48897039999974,346.48897039999974,346.48897039999974,009,P002,2025_Jan_18_1029,ConditionRich,2021.2.3,59.94819277195499,
320.75,324.0,41,0.0,Stimuli/Blank.png,0,0.0,0.0,0,139,139,139,,,,,,,,,,,,,320.7671123,0.017112300000007963,5,3.1946285000003627,347.2396262000002,347.2396262000002,347.2396262000002,347.2396262000002,347.2396262000002,347.2396262000002,347.2396262000002,347.2396262000002,347.2396262000002,347.2396262000002,009,P002,2025_Jan_18_1029,ConditionRich,2021.2.3,59.94819277195499,
324.0,324.75,20,0.75,Stimuli/P002/sun_dkgctqgpvxbaoyks.jpg,0,0.0,0.0,0,140,140,140,,,,,,,,,,,,,324.0175068999997,0.017506899999716552,None,,350.47579679999944,350.47579679999944,350.47579679999944,350.47579679999944,350.47579679999944,350.47579679999944,350.47579679999944,350.47579679999944,350.47579679999944,350.47579679999944,009,P002,2025_Jan_18_1029,ConditionRich,2021.2.3,59.94819277195499,
324.75,328.0,41,0.0,Stimuli/Blank.png,0,0.0,0.0,0,141,141,141,,,,,,,,,,,,,324.75129300000026,0.0012930000002597808,5,1.2245006999992256,351.2097824000002,351.2097824000002,351.2097824000002,351.2097824000002,351.2097824000002,351.2097824000002,351.2097824000002,351.2097824000002,351.2097824000002,351.2097824000002,009,P002,2025_Jan_18_1029,ConditionRich,2021.2.3,59.94819277195499,
328.0,328.75,32,0.75,Stimuli/P002/things_oyster_01b.jpg,0,0.0,0.0,0,142,142,142,,,,,,,,,,,,,328.00454530000025,0.004545300000245334,None,,354.4793407999996,354.4793407999996,354.4793407999996,354.4793407999996,354.4793407999996,354.4793407999996,354.4793407999996,354.4793407999996,354.4793407999996,354.4793407999996,009,P002,2025_Jan_18_1029,ConditionRich,2021.2.3,59.94819277195499,
328.75,332.0,41,0.0,Stimuli/Blank.png,0,0.0,0.0,0,143,143,143,,,,,,,,,,,,,328.77141389999997,0.021413899999970454,5,3.204293599999801,355.2299846999995,355.2299846999995,355.2299846999995,355.2299846999995,355.2299846999995,355.2299846999995,355.2299846999995,355.2299846999995,355.2299846999995,355.2299846999995,009,P002,2025_Jan_18_1029,ConditionRich,2021.2.3,59.94819277195499,
332.0,332.75,40,0.75,Stimuli/P002/things_worm_01b.jpg,0,0.0,0.0,0,144,144,144,,,,,,,,,,,,,332.00851479999983,0.008514799999829847,None,,358.4828473999996,358.4828473999996,358.4828473999996,358.4828473999996,358.4828473999996,358.4828473999996,358.4828473999996,358.4828473999996,358.4828473999996,358.4828473999996,009,P002,2025_Jan_18_1029,ConditionRich,2021.2.3,59.94819277195499,
332.75,336.0,41,0.0,Stimuli/Blank.png,1,1.25,2.0,0,145,145,145,,,,,,,,,,,,,332.7756338999998,0.025633899999775167,5,3.200816399999894,359.2335065999996,359.2335065999996,359.2335065999996,359.2335065999996,359.2335065999996,359.2335065999996,360.46794539999973,361.2185840000002,359.2335065999996,359.2335065999996,009,P002,2025_Jan_18_1029,ConditionRich,2021.2.3,59.94819277195499,
336.0,336.75,10,0.75,Stimuli/P002/sun_aykefnhciwsffcrj.jpg,0,0.0,0.0,0,146,146,146,,,,,,,,,,,,,336.0119152999996,0.011915299999600393,None,,362.4696845999997,362.4696845999997,362.4696845999997,362.4696845999997,362.4696845999997,362.4696845999997,362.4696845999997,362.4696845999997,362.4696845999997,362.4696845999997,009,P002,2025_Jan_18_1029,ConditionRich,2021.2.3,59.94819277195499,
336.75,340.0,41,0.0,Stimuli/Blank.png,0,0.0,0.0,0,147,147,147,,,,,,,,,,,,,336.76228530000026,0.012285300000257848,5,3.2138826999998855,363.2203466000001,363.2203466000001,363.2203466000001,363.2203466000001,363.2203466000001,363.2203466000001,363.2203466000001,363.2203466000001,363.2203466000001,363.2203466000001,009,P002,2025_Jan_18_1029,ConditionRich,2021.2.3,59.94819277195499,
340.0,340.75,29,0.75,Stimuli/P002/things_grinder_01b.jpg,0,0.0,0.0,0,148,148,148,,,,,,,,,,,,,340.01547589999973,0.015475899999728426,None,,366.4732296000002,366.4732296000002,366.4732296000002,366.4732296000002,366.4732296000002,366.4732296000002,366.4732296000002,366.4732296000002,366.4732296000002,366.4732296000002,009,P002,2025_Jan_18_1029,ConditionRich,2021.2.3,59.94819277195499,
340.75,344.0,41,0.0,Stimuli/Blank.png,1,0.25,1.0,0,149,149,149,,,,,,,,,,,,,340.75082199999997,0.0008219999999710126,5,3.2102899000001344,367.2238908999998,367.2238908999998,367.2238908999998,367.2238908999998,367.2238908999998,367.2238908999998,367.4574044000001,368.2080321000003,367.2238908999998,367.2238908999998,009,P002,2025_Jan_18_1029,ConditionRich,2021.2.3,59.94819277195499,
344.0,344.75,11,0.75,Stimuli/P002/sun_bbfdgdyeqdnadvvi.jpg,0,0.0,0.0,0,150,150,150,,,,,,,,,,,,,344.0213401000001,0.02134010000008857,None,,370.49342290000004,370.49342290000004,370.49342290000004,370.49342290000004,370.49342290000004,370.49342290000004,370.49342290000004,370.49342290000004,370.49342290000004,370.49342290000004,009,P002,2025_Jan_18_1029,ConditionRich,2021.2.3,59.94819277195499,
344.75,348.0,41,0.0,Stimuli/Blank.png,1,0.25,1.0,0,151,151,151,,,,,,,,,,,,,344.7711225000003,0.021122500000274158,5,3.190001399999346,371.2441179999996,371.2441179999996,371.2441179999996,371.2441179999996,371.2441179999996,371.2441179999996,371.4776111000001,372.22826069999974,371.2441179999996,371.2441179999996,009,P002,2025_Jan_18_1029,ConditionRich,2021.2.3,59.94819277195499,
348.0,348.75,16,0.75,Stimuli/P002/sun_biqyomkjbujnppuf.jpg,0,0.0,0.0,0,152,152,152,,,,,,,,,,,,,348.0223231,0.022323099999994156,None,,374.4802626999999,374.4802626999999,374.4802626999999,374.4802626999999,374.4802626999999,374.4802626999999,374.4802626999999,374.4802626999999,374.4802626999999,374.4802626999999,009,P002,2025_Jan_18_1029,ConditionRich,2021.2.3,59.94819277195499,
348.75,352.0,41,0.0,Stimuli/Blank.png,0,0.0,0.0,0,153,153,153,,,,,,,,,,,,,348.7565104999994,0.0065104999994218815,5,3.21986410000045,375.2142418000003,375.2142418000003,375.2142418000003,375.2142418000003,375.2142418000003,375.2142418000003,375.2142418000003,375.2142418000003,375.2142418000003,375.2142418000003,009,P002,2025_Jan_18_1029,ConditionRich,2021.2.3,59.94819277195499,
352.0,352.75,25,0.75,Stimuli/P002/things_curry_01b.jpg,1,0.0,0.75,0,154,154,154,,,,,,,,,,,,,352.01091219999944,0.010912199999438599,1,0.6767964999999094,378.4837802000002,378.4837802000002,378.4837802000002,378.4837802000002,378.4837802000002,378.4837802000002,378.4837802000002,379.2177719000001,378.4837802000002,378.4837802000002,009,P002,2025_Jan_18_1029,ConditionRich,2021.2.3,59.94819277195499,
352.75,356.0,41,0.0,Stimuli/Blank.png,0,0.0,0.0,0,155,155,155,,,,,,,,,,,,,352.77741569999944,0.027415699999437493,5,3.1831159000003026,379.25113539999984,379.25113539999984,379.25113539999984,379.25113539999984,379.25113539999984,379.25113539999984,379.25113539999984,379.25113539999984,379.25113539999984,379.25113539999984,009,P002,2025_Jan_18_1029,ConditionRich,2021.2.3,59.94819277195499,
356.0,356.75,7,0.75,Stimuli/P002/sun_arlesyjqxmqmcccl.jpg,0,0.0,0.0,0,156,156,156,,,,,,,,,,,,,356.0301241999996,0.030124199999590928,None,,382.5039987,382.5039987,382.5039987,382.5039987,382.5039987,382.5039987,382.5039987,382.5039987,382.5039987,382.5039987,009,P002,2025_Jan_18_1029,ConditionRich,2021.2.3,59.94819277195499,
356.75,360.0,41,0.0,Stimuli/Blank.png,0,0.0,0.0,0,157,157,157,,,,,,,,,,,,,356.77959550000014,0.029595500000141328,5,1.1961676999999327,383.23795879999943,383.23795879999943,383.23795879999943,383.23795879999943,383.23795879999943,383.23795879999943,383.23795879999943,383.23795879999943,383.23795879999943,383.23795879999943,009,P002,2025_Jan_18_1029,ConditionRich,2021.2.3,59.94819277195499,
360.0,360.75,13,0.75,Stimuli/P002/sun_bfdmlbkyioxnkodb.jpg,0,0.0,0.0,0,158,158,158,,,,,,,,,,,,,360.0020642999998,0.002064299999801733,None,,386.4741518000001,386.4741518000001,386.4741518000001,386.4741518000001,386.4741518000001,386.4741518000001,386.4741518000001,386.4741518000001,386.4741518000001,386.4741518000001,009,P002,2025_Jan_18_1029,ConditionRich,2021.2.3,59.94819277195499,
360.75,364.0,41,0.0,Stimuli/Blank.png,0,0.0,0.0,0,159,159,159,,,,,,,,,,,,,360.76681970000027,0.016819700000269222,5,1.209364600000299,387.2247953999995,387.2247953999995,387.2247953999995,387.2247953999995,387.2247953999995,387.2247953999995,387.2247953999995,387.2247953999995,387.2247953999995,387.2247953999995,009,P002,2025_Jan_18_1029,ConditionRich,2021.2.3,59.94819277195499,
364.0,364.75,30,0.75,Stimuli/P002/things_iguana_01b.jpg,0,0.0,0.0,0,160,160,160,,,,,,,,,,,,,364.00307599999996,0.0030759999999645515,None,,390.4776691999996,390.4776691999996,390.4776691999996,390.4776691999996,390.4776691999996,390.4776691999996,390.4776691999996,390.4776691999996,390.4776691999996,390.4776691999996,009,P002,2025_Jan_18_1029,ConditionRich,2021.2.3,59.94819277195499,
364.75,368.0,41,0.0,Stimuli/Blank.png,0,0.0,0.0,0,161,161,161,,,,,,,,,,,,,364.77030209999975,0.02030209999975341,5,1.2060645000001387,391.22832199999993,391.22832199999993,391.22832199999993,391.22832199999993,391.22832199999993,391.22832199999993,391.22832199999993,391.22832199999993,391.22832199999993,391.22832199999993,009,P002,2025_Jan_18_1029,ConditionRich,2021.2.3,59.94819277195499,
368.0,368.75,6,0.75,Stimuli/P002/sun_aqbaaqeojrexbmcr.jpg,0,0.0,0.0,0,162,162,162,,,,,,,,,,,,,368.00649449999946,0.006494499999462278,None,,394.4645038999997,394.4645038999997,394.4645038999997,394.4645038999997,394.4645038999997,394.4645038999997,394.4645038999997,394.4645038999997,394.4645038999997,394.4645038999997,009,P002,2025_Jan_18_1029,ConditionRich,2021.2.3,59.94819277195499,
368.75,372.0,41,0.0,Stimuli/Blank.png,0,0.0,0.0,0,163,163,163,,,,,,,,,,,,,368.7572110000001,0.007211000000097556,5,3.2189636000002793,395.21515629999976,395.21515629999976,395.21515629999976,395.21515629999976,395.21515629999976,395.21515629999976,395.21515629999976,395.21515629999976,395.21515629999976,395.21515629999976,009,P002,2025_Jan_18_1029,ConditionRich,2021.2.3,59.94819277195499,
372.0,388.0,0,0.0,Stimuli/Blank.png,1,6.0,6.75,0,164,164,164,,,,,,,,,,,,,372.01068549999945,0.010685499999453896,5,13.966051200000038,398.4680351999996,398.4680351999996,398.4680351999996,398.4680351999996,398.4680351999996,398.4680351999996,404.45666710000023,405.20731799999976,398.4680351999996,398.4680351999996,009,P002,2025_Jan_18_1029,ConditionRich,2021.2.3,59.94819277195499,
