eventStartTime,eventEndTime,eventCond,imSize,imFile,responseEvent,fixRespStart,fixRespEnd,Events.thisRepN,Events.thisTrialN,Events.thisN,Events.thisIndex,Instructions.started,Instructions.stopped,participantReadyResponse.keys,participantReadyResponse.rt,participantReadyResponse.started,participantReadyResponse.stopped,startWaitforTrigger,triggerResponse.keys,triggerResponse.rt,triggerResponse.started,triggerResponse.stopped,globalTimer,actualStartTime,startTimingDiff,participantResponse.keys,participantResponse.rt,participantResponse.started,participantResponse.stopped,image.started,image.stopped,fixationOutside.started,fixationOutside.stopped,fixationResponse.started,fixationResponse.stopped,fixationInside.started,fixationInside.stopped,session,participant,date,expName,psychopyVersion,frameRate,
,,,,,,,,,,,,11.062916400000177,None,1,2.713824999999815,11.062916400000177,None,,,,,,,,,,,,,,,,,,,,,005,P002,2025_Jan_18_0952,ConditionRich,2021.2.3,59.93665893873726,
,,,,,,,,,,,,,,,,,,13.781237000000147,5,12.757801499999914,13.793968099999802,None,,,,,,,,,,,,,,,,005,P002,2025_Jan_18_0952,ConditionRich,2021.2.3,59.93665893873726,
0.0,4.0,0,0.0,Stimuli/Blank.png,0,0,0.0,0,0,0,0,,,,,,,,,,,,26.559266499999467,0.038189900000361376,0.038189900000361376,5,3.929727200000343,26.621946899999784,None,26.621946899999784,None,26.621946899999784,None,26.621946899999784,26.621946899999784,26.621946899999784,None,005,P002,2025_Jan_18_0952,ConditionRich,2021.2.3,59.93665893873726,
4.0,7.75,17,0.75,Stimuli/P002/sun_bshgmgbmpvjkxfis.jpg,0,0,0.0,0,1,1,1,,,,,,,,,,,,,4.02297980000003,0.02297980000003008,5,1.9424576999999772,30.609179699999913,30.609179699999913,30.609179699999913,30.609179699999913,30.609179699999913,30.609179699999913,30.609179699999913,30.609179699999913,30.609179699999913,30.609179699999913,005,P002,2025_Jan_18_0952,ConditionRich,2021.2.3,59.93665893873726,
7.75,8.0,41,0.0,Stimuli/Blank.png,0,0,0.0,0,2,2,2,,,,,,,,,,,,,7.771981300000334,0.02198130000033416,None,,34.34591240000009,34.34591240000009,34.34591240000009,34.34591240000009,34.34591240000009,34.34591240000009,34.34591240000009,34.34591240000009,34.34591240000009,34.34591240000009,005,P002,2025_Jan_18_0952,ConditionRich,2021.2.3,59.93665893873726,
8.0,11.75,22,0.75,Stimuli/P002/things_boy_01b.jpg,0,0,0.0,0,3,3,3,,,,,,,,,,,,,8.005542400000195,0.0055424000001949025,5,1.9729405999996743,34.57892709999942,34.57892709999942,34.57892709999942,34.57892709999942,34.57892709999942,34.57892709999942,34.57892709999942,34.57892709999942,34.57892709999942,34.57892709999942,005,P002,2025_Jan_18_0952,ConditionRich,2021.2.3,59.93665893873726,
11.75,12.0,41,0.0,Stimuli/Blank.png,0,0,0.0,0,4,4,4,,,,,,,,,,,,,11.761306600000353,0.011306600000352773,5,0.2029710000006162,38.34891549999975,38.34891549999975,38.34891549999975,38.34891549999975,38.34891549999975,38.34891549999975,38.34891549999975,38.34891549999975,38.34891549999975,38.34891549999975,005,P002,2025_Jan_18_0952,ConditionRich,2021.2.3,59.93665893873726,
12.0,15.75,1,0.75,Stimuli/P002/sun_agpgdwkhzgvzdaea.jpg,1,3,3.75,0,5,5,5,,,,,,,,,,,,,12.026054800000566,0.026054800000565592,1,3.416530100000273,38.59912910000003,38.59912910000003,38.59912910000003,38.59912910000003,38.59912910000003,38.59912910000003,41.58512729999984,None,38.59912910000003,38.59912910000003,005,P002,2025_Jan_18_0952,ConditionRich,2021.2.3,59.93665893873726,
15.75,16.0,41,0.0,Stimuli/Blank.png,0,0,0.0,0,6,6,6,,,,,,,,,,,,,15.762344100000519,0.012344100000518665,5,0.21588830000018788,42.335753999999724,42.335753999999724,42.335753999999724,42.335753999999724,42.335753999999724,42.335753999999724,42.335753999999724,42.335753999999724,42.335753999999724,42.335753999999724,005,P002,2025_Jan_18_0952,ConditionRich,2021.2.3,59.93665893873726,
16.0,19.75,14,0.75,Stimuli/P002/sun_bfgxassmmvhtarcc.jpg,0,0,0.0,0,7,7,7,,,,,,,,,,,,,16.012335299999904,0.012335299999904237,5,1.9490405000005921,42.602662999999666,42.602662999999666,42.602662999999666,42.602662999999666,42.602662999999666,42.602662999999666,42.602662999999666,42.602662999999666,42.602662999999666,42.602662999999666,005,P002,2025_Jan_18_0952,ConditionRich,2021.2.3,59.93665893873726,
19.75,20.0,41,0.0,Stimuli/Blank.png,0,0,0.0,0,8,8,8,,,,,,,,,,,,,19.785040700000536,0.03504070000053616,5,0.17908119999992778,46.37264249999953,46.37264249999953,46.37264249999953,46.37264249999953,46.37264249999953,46.37264249999953,46.37264249999953,46.37264249999953,46.37264249999953,46.37264249999953,005,P002,2025_Jan_18_0952,ConditionRich,2021.2.3,59.93665893873726,
20.0,23.75,19,0.75,Stimuli/P002/sun_bzyyqqczvrnvukdn.jpg,1,3,3.75,0,9,9,9,,,,,,,,,,,,,20.015949100000398,0.015949100000398175,1,3.3211635000006936,46.58949719999964,46.58949719999964,46.58949719999964,46.58949719999964,46.58949719999964,46.58949719999964,49.57550410000022,None,46.58949719999964,46.58949719999964,005,P002,2025_Jan_18_0952,ConditionRich,2021.2.3,59.93665893873726,
23.75,24.0,41,0.0,Stimuli/Blank.png,0,0,0.0,0,10,10,10,,,,,,,,,,,,,23.75485910000043,0.004859100000430772,5,0.20894359999965673,50.34280469999976,50.34280469999976,50.34280469999976,50.34280469999976,50.34280469999976,50.34280469999976,50.34280469999976,50.34280469999976,50.34280469999976,50.34280469999976,005,P002,2025_Jan_18_0952,ConditionRich,2021.2.3,59.93665893873726,
24.0,27.75,36,0.75,Stimuli/P002/things_stalagmite_01b.jpg,0,0,0.0,0,11,11,11,,,,,,,,,,,,,24.019780300000093,0.01978030000009312,5,1.958705099999861,50.59303120000004,50.59303120000004,50.59303120000004,50.59303120000004,50.59303120000004,50.59303120000004,50.59303120000004,50.59303120000004,50.59303120000004,50.59303120000004,005,P002,2025_Jan_18_0952,ConditionRich,2021.2.3,59.93665893873726,
27.75,28.0,41,0.0,Stimuli/Blank.png,0,0,0.0,0,12,12,12,,,,,,,,,,,,,27.756309399999736,0.006309399999736343,None,,54.32964799999991,54.32964799999991,54.32964799999991,54.32964799999991,54.32964799999991,54.32964799999991,54.32964799999991,54.32964799999991,54.32964799999991,54.32964799999991,005,P002,2025_Jan_18_0952,ConditionRich,2021.2.3,59.93665893873726,
28.0,31.75,4,0.75,Stimuli/P002/sun_aonjwqswdblhlpkm.jpg,0,0,0.0,0,13,13,13,,,,,,,,,,,,,28.006601099999898,0.006601099999897997,5,1.9719467000004443,54.57986569999957,54.57986569999957,54.57986569999957,54.57986569999957,54.57986569999957,54.57986569999957,54.57986569999957,54.57986569999957,54.57986569999957,54.57986569999957,005,P002,2025_Jan_18_0952,ConditionRich,2021.2.3,59.93665893873726,
31.75,32.0,41,0.0,Stimuli/Blank.png,0,0,0.0,0,14,14,14,,,,,,,,,,,,,31.75960759999998,0.009607599999981176,None,,58.3331720999995,58.3331720999995,58.3331720999995,58.3331720999995,58.3331720999995,58.3331720999995,58.3331720999995,58.3331720999995,58.3331720999995,58.3331720999995,005,P002,2025_Jan_18_0952,ConditionRich,2021.2.3,59.93665893873726,
32.0,35.75,11,0.75,Stimuli/P002/sun_bbfdgdyeqdnadvvi.jpg,0,0,0.0,0,15,15,15,,,,,,,,,,,,,32.009739199999785,0.009739199999785342,5,1.9682418000002144,58.583388600000035,58.583388600000035,58.583388600000035,58.583388600000035,58.583388600000035,58.583388600000035,58.583388600000035,58.583388600000035,58.583388600000035,58.583388600000035,005,P002,2025_Jan_18_0952,ConditionRich,2021.2.3,59.93665893873726,
35.75,36.0,41,0.0,Stimuli/Blank.png,0,0,0.0,0,16,16,16,,,,,,,,,,,,,35.763214499999776,0.013214499999776308,5,0.2148022999999739,62.33673610000005,62.33673610000005,62.33673610000005,62.33673610000005,62.33673610000005,62.33673610000005,62.33673610000005,62.33673610000005,62.33673610000005,62.33673610000005,005,P002,2025_Jan_18_0952,ConditionRich,2021.2.3,59.93665893873726,
36.0,39.75,6,0.75,Stimuli/P002/sun_aqbaaqeojrexbmcr.jpg,0,0,0.0,0,17,17,17,,,,,,,,,,,,,36.013565799999924,0.013565799999923911,5,1.9647283000003881,62.58690999999999,62.58690999999999,62.58690999999999,62.58690999999999,62.58690999999999,62.58690999999999,62.58690999999999,62.58690999999999,62.58690999999999,62.58690999999999,005,P002,2025_Jan_18_0952,ConditionRich,2021.2.3,59.93665893873726,
39.75,40.0,41,0.0,Stimuli/Blank.png,0,0,0.0,0,18,18,18,,,,,,,,,,,,,39.75124510000023,0.0012451000002329238,None,,66.32353839999996,66.32353839999996,66.32353839999996,66.32353839999996,66.32353839999996,66.32353839999996,66.32353839999996,66.32353839999996,66.32353839999996,66.32353839999996,005,P002,2025_Jan_18_0952,ConditionRich,2021.2.3,59.93665893873726,
40.0,43.75,25,0.75,Stimuli/P002/things_curry_01b.jpg,0,0,0.0,0,19,19,19,,,,,,,,,,,,,40.00054090000049,0.0005409000004874542,5,1.9610863999996582,66.5904344999999,66.5904344999999,66.5904344999999,66.5904344999999,66.5904344999999,66.5904344999999,66.5904344999999,66.5904344999999,66.5904344999999,66.5904344999999,005,P002,2025_Jan_18_0952,ConditionRich,2021.2.3,59.93665893873726,
43.75,44.0,41,0.0,Stimuli/Blank.png,0,0,0.0,0,20,20,20,,,,,,,,,,,,,43.770676099999946,0.020676099999946018,None,,70.3437426999999,70.3437426999999,70.3437426999999,70.3437426999999,70.3437426999999,70.3437426999999,70.3437426999999,70.3437426999999,70.3437426999999,70.3437426999999,005,P002,2025_Jan_18_0952,ConditionRich,2021.2.3,59.93665893873726,
44.0,47.75,29,0.75,Stimuli/P002/things_grinder_01b.jpg,0,0,0.0,0,21,21,21,,,,,,,,,,,,,44.00541280000016,0.005412800000158313,5,1.9575688999993872,70.5939816,70.5939816,70.5939816,70.5939816,70.5939816,70.5939816,70.5939816,70.5939816,70.5939816,70.5939816,005,P002,2025_Jan_18_0952,ConditionRich,2021.2.3,59.93665893873726,
47.75,48.0,41,0.0,Stimuli/Blank.png,0,0,0.0,0,22,22,22,,,,,,,,,,,,,47.77539919999981,0.025399199999810662,5,0.18755330000021786,74.36394469999959,74.36394469999959,74.36394469999959,74.36394469999959,74.36394469999959,74.36394469999959,74.36394469999959,74.36394469999959,74.36394469999959,74.36394469999959,005,P002,2025_Jan_18_0952,ConditionRich,2021.2.3,59.93665893873726,
48.0,51.75,23,0.75,Stimuli/P002/things_chick_01b.jpg,0,0,0.0,0,23,23,23,,,,,,,,,,,,,48.02475570000024,0.02475570000024163,5,1.9540188999999373,74.59748679999939,74.59748679999939,74.59748679999939,74.59748679999939,74.59748679999939,74.59748679999939,74.59748679999939,74.59748679999939,74.59748679999939,74.59748679999939,005,P002,2025_Jan_18_0952,ConditionRich,2021.2.3,59.93665893873726,
51.75,52.0,41,0.0,Stimuli/Blank.png,0,0,0.0,0,24,24,24,,,,,,,,,,,,,51.76106810000056,0.011068100000557024,5,0.21741070000007312,78.33411809999961,78.33411809999961,78.33411809999961,78.33411809999961,78.33411809999961,78.33411809999961,78.33411809999961,78.33411809999961,78.33411809999961,78.33411809999961,005,P002,2025_Jan_18_0952,ConditionRich,2021.2.3,59.93665893873726,
52.0,55.75,9,0.75,Stimuli/P002/sun_awtltwwpwbepuuqv.jpg,0,0,0.0,0,25,25,25,,,,,,,,,,,,,52.01057029999993,0.010570299999926647,5,1.9671139000001858,78.5843218,78.5843218,78.5843218,78.5843218,78.5843218,78.5843218,78.5843218,78.5843218,78.5843218,78.5843218,005,P002,2025_Jan_18_0952,ConditionRich,2021.2.3,59.93665893873726,
55.75,56.0,41,0.0,Stimuli/Blank.png,0,0,0.0,0,26,26,26,,,,,,,,,,,,,55.7652149000005,0.015214900000501075,5,0.21395459999985178,82.33763079999972,82.33763079999972,82.33763079999972,82.33763079999972,82.33763079999972,82.33763079999972,82.33763079999972,82.33763079999972,82.33763079999972,82.33763079999972,005,P002,2025_Jan_18_0952,ConditionRich,2021.2.3,59.93665893873726,
56.0,59.75,27,0.75,Stimuli/P002/things_dynamite_01b.jpg,0,0,0.0,0,27,27,27,,,,,,,,,,,,,56.01385610000034,0.013856100000339211,5,1.9636342000003424,82.58784130000004,82.58784130000004,82.58784130000004,82.58784130000004,82.58784130000004,82.58784130000004,82.58784130000004,82.58784130000004,82.58784130000004,82.58784130000004,005,P002,2025_Jan_18_0952,ConditionRich,2021.2.3,59.93665893873726,
59.75,60.0,41,0.0,Stimuli/Blank.png,0,0,0.0,0,28,28,28,,,,,,,,,,,,,59.75115840000035,0.001158400000349502,None,,86.32446459999937,86.32446459999937,86.32446459999937,86.32446459999937,86.32446459999937,86.32446459999937,86.32446459999937,86.32446459999937,86.32446459999937,86.32446459999937,005,P002,2025_Jan_18_0952,ConditionRich,2021.2.3,59.93665893873726,
60.0,63.75,33,0.75,Stimuli/P002/things_pan_01b.jpg,1,1,1.75,0,29,29,29,,,,,,,,,,,,,60.00093680000009,0.0009368000000904431,5,1.97795909999968,86.57467910000014,86.57467910000014,86.57467910000014,86.57467910000014,86.57467910000014,86.57467910000014,87.55893389999983,88.3095986999997,86.57467910000014,86.57467910000014,005,P002,2025_Jan_18_0952,ConditionRich,2021.2.3,59.93665893873726,
63.75,64.0,41,0.0,Stimuli/Blank.png,0,0,0.0,0,30,30,30,,,,,,,,,,,,,63.75529610000012,0.0052961000001232605,None,,90.32907729999988,90.32907729999988,90.32907729999988,90.32907729999988,90.32907729999988,90.32907729999988,90.32907729999988,90.32907729999988,90.32907729999988,90.32907729999988,005,P002,2025_Jan_18_0952,ConditionRich,2021.2.3,59.93665893873726,
64.0,67.75,38,0.75,Stimuli/P002/things_windowsill_01b.jpg,0,0,0.0,0,31,31,31,,,,,,,,,,,,,64.00494440000057,0.004944400000567839,5,1.97322769999937,90.57820709999942,90.57820709999942,90.57820709999942,90.57820709999942,90.57820709999942,90.57820709999942,90.57820709999942,90.57820709999942,90.57820709999942,90.57820709999942,005,P002,2025_Jan_18_0952,ConditionRich,2021.2.3,59.93665893873726,
67.75,68.0,41,0.0,Stimuli/Blank.png,0,0,0.0,0,32,32,32,,,,,,,,,,,,,67.75927550000051,0.009275500000512693,None,,94.33152090000021,94.33152090000021,94.33152090000021,94.33152090000021,94.33152090000021,94.33152090000021,94.33152090000021,94.33152090000021,94.33152090000021,94.33152090000021,005,P002,2025_Jan_18_0952,ConditionRich,2021.2.3,59.93665893873726,
68.0,71.75,18,0.75,Stimuli/P002/sun_bzjegfvyrvqtunza.jpg,0,0,0.0,0,33,33,33,,,,,,,,,,,,,68.00847820000035,0.008478200000354263,5,1.9707416000001103,94.58173609999994,94.58173609999994,94.58173609999994,94.58173609999994,94.58173609999994,94.58173609999994,94.58173609999994,94.58173609999994,94.58173609999994,94.58173609999994,005,P002,2025_Jan_18_0952,ConditionRich,2021.2.3,59.93665893873726,
71.75,72.0,41,0.0,Stimuli/Blank.png,0,0,0.0,0,34,34,34,,,,,,,,,,,,,71.76179180000054,0.011791800000537478,5,0.21735200000057375,98.33512640000026,98.33512640000026,98.33512640000026,98.33512640000026,98.33512640000026,98.33512640000026,98.33512640000026,98.33512640000026,98.33512640000026,98.33512640000026,005,P002,2025_Jan_18_0952,ConditionRich,2021.2.3,59.93665893873726,
72.0,75.75,35,0.75,Stimuli/P002/things_pepperoni_01b.jpg,0,0,0.0,0,35,35,35,,,,,,,,,,,,,72.01188760000059,0.011887600000591192,5,1.9504637999998522,98.60193139999956,98.60193139999956,98.60193139999956,98.60193139999956,98.60193139999956,98.60193139999956,98.60193139999956,98.60193139999956,98.60193139999956,98.60193139999956,005,P002,2025_Jan_18_0952,ConditionRich,2021.2.3,59.93665893873726,
75.75,76.0,41,0.0,Stimuli/Blank.png,0,0,0.0,0,36,36,36,,,,,,,,,,,,,75.78210959999979,0.03210959999978513,5,0.19701029999941966,102.35531040000023,102.35531040000023,102.35531040000023,102.35531040000023,102.35531040000023,102.35531040000023,102.35531040000023,102.35531040000023,102.35531040000023,102.35531040000023,005,P002,2025_Jan_18_0952,ConditionRich,2021.2.3,59.93665893873726,
76.0,79.75,21,0.75,Stimuli/P002/things_baby_01b.jpg,1,2,2.75,0,37,37,37,,,,,,,,,,,,,76.01542520000021,0.01542520000020886,1,2.3837352999998984,102.58877930000017,102.58877930000017,102.58877930000017,102.58877930000017,102.58877930000017,102.58877930000017,104.57384850000017,105.32455539999955,102.58877930000017,102.58877930000017,005,P002,2025_Jan_18_0952,ConditionRich,2021.2.3,59.93665893873726,
79.75,80.0,41,0.0,Stimuli/Blank.png,0,0,0.0,0,38,38,38,,,,,,,,,,,,,79.75208170000042,0.002081700000417186,None,,106.32539869999982,106.32539869999982,106.32539869999982,106.32539869999982,106.32539869999982,106.32539869999982,106.32539869999982,106.32539869999982,106.32539869999982,106.32539869999982,005,P002,2025_Jan_18_0952,ConditionRich,2021.2.3,59.93665893873726,
80.0,83.75,7,0.75,Stimuli/P002/sun_arlesyjqxmqmcccl.jpg,1,0,0.75,0,39,39,39,,,,,,,,,,,,,80.00229149999996,0.002291499999955704,5,1.97700900000018,106.57561329999953,106.57561329999953,106.57561329999953,106.57561329999953,106.57561329999953,106.57561329999953,106.57561329999953,107.30959650000023,106.57561329999953,106.57561329999953,005,P002,2025_Jan_18_0952,ConditionRich,2021.2.3,59.93665893873726,
83.75,84.0,41,0.0,Stimuli/Blank.png,0,0,0.0,0,40,40,40,,,,,,,,,,,,,83.75599229999989,0.005992299999888928,None,,110.32891680000012,110.32891680000012,110.32891680000012,110.32891680000012,110.32891680000012,110.32891680000012,110.32891680000012,110.32891680000012,110.32891680000012,110.32891680000012,005,P002,2025_Jan_18_0952,ConditionRich,2021.2.3,59.93665893873726,
84.0,100.0,0,0.0,Stimuli/Blank.png,1,9,9.75,0,41,41,41,,,,,,,,,,,,,84.00623300000007,0.006233000000065658,5,13.973140000000058,110.5791537999994,110.5791537999994,110.5791537999994,110.5791537999994,110.5791537999994,110.5791537999994,119.57042189999993,120.32108309999967,110.5791537999994,110.5791537999994,005,P002,2025_Jan_18_0952,ConditionRich,2021.2.3,59.93665893873726,
100.0,103.75,24,0.75,Stimuli/P002/things_cornucopia_01b.jpg,0,0,0.0,0,42,42,42,,,,,,,,,,,,,100.00539600000047,0.0053960000004735775,5,1.9590623999993113,126.59324649999962,126.59324649999962,126.59324649999962,126.59324649999962,126.59324649999962,126.59324649999962,126.59324649999962,126.59324649999962,126.59324649999962,126.59324649999962,005,P002,2025_Jan_18_0952,ConditionRich,2021.2.3,59.93665893873726,
103.75,104.0,41,0.0,Stimuli/Blank.png,0,0,0.0,0,43,43,43,,,,,,,,,,,,,103.77311509999981,0.023115099999813538,None,,130.3465415999999,130.3465415999999,130.3465415999999,130.3465415999999,130.3465415999999,130.3465415999999,130.3465415999999,130.3465415999999,130.3465415999999,130.3465415999999,005,P002,2025_Jan_18_0952,ConditionRich,2021.2.3,59.93665893873726,
104.0,107.75,3,0.75,Stimuli/P002/sun_amarqtinchblqmah.jpg,0,0,0.0,0,44,44,44,,,,,,,,,,,,,104.00660080000034,0.006600800000342133,5,1.9558253999994122,130.59674689999974,130.59674689999974,130.59674689999974,130.59674689999974,130.59674689999974,130.59674689999974,130.59674689999974,130.59674689999974,130.59674689999974,130.59674689999974,005,P002,2025_Jan_18_0952,ConditionRich,2021.2.3,59.93665893873726,
107.75,108.0,41,0.0,Stimuli/Blank.png,0,0,0.0,0,45,45,45,,,,,,,,,,,,,107.7765443999997,0.02654439999969327,None,,134.35027489999993,134.35027489999993,134.35027489999993,134.35027489999993,134.35027489999993,134.35027489999993,134.35027489999993,134.35027489999993,134.35027489999993,134.35027489999993,005,P002,2025_Jan_18_0952,ConditionRich,2021.2.3,59.93665893873726,
108.0,111.75,10,0.75,Stimuli/P002/sun_aykefnhciwsffcrj.jpg,0,0,0.0,0,46,46,46,,,,,,,,,,,,,108.01064440000027,0.01064440000027389,5,1.9687315000001036,134.58371259999967,134.58371259999967,134.58371259999967,134.58371259999967,134.58371259999967,134.58371259999967,134.58371259999967,134.58371259999967,134.58371259999967,134.58371259999967,005,P002,2025_Jan_18_0952,ConditionRich,2021.2.3,59.93665893873726,
111.75,112.0,41,0.0,Stimuli/Blank.png,0,0,0.0,0,47,47,47,,,,,,,,,,,,,111.76574679999976,0.015746799999760697,5,0.19869800000014948,138.35358579999956,138.35358579999956,138.35358579999956,138.35358579999956,138.35358579999956,138.35358579999956,138.35358579999956,138.35358579999956,138.35358579999956,138.35358579999956,005,P002,2025_Jan_18_0952,ConditionRich,2021.2.3,59.93665893873726,
112.0,115.75,40,0.75,Stimuli/P002/things_worm_01b.jpg,0,0,0.0,0,48,48,48,,,,,,,,,,,,,112.01391760000024,0.013917600000240782,5,1.965181599999596,138.58712060000016,138.58712060000016,138.58712060000016,138.58712060000016,138.58712060000016,138.58712060000016,138.58712060000016,138.58712060000016,138.58712060000016,138.58712060000016,005,P002,2025_Jan_18_0952,ConditionRich,2021.2.3,59.93665893873726,
115.75,116.0,41,0.0,Stimuli/Blank.png,0,0,0.0,0,49,49,49,,,,,,,,,,,,,115.75016359999972,0.0001635999997233739,None,,142.32373689999986,142.32373689999986,142.32373689999986,142.32373689999986,142.32373689999986,142.32373689999986,142.32373689999986,142.32373689999986,142.32373689999986,142.32373689999986,005,P002,2025_Jan_18_0952,ConditionRich,2021.2.3,59.93665893873726,
116.0,119.75,16,0.75,Stimuli/P002/sun_biqyomkjbujnppuf.jpg,0,0,0.0,0,50,50,50,,,,,,,,,,,,,116.00093340000058,0.000933400000576512,5,1.978461900000184,142.57396270000027,142.57396270000027,142.57396270000027,142.57396270000027,142.57396270000027,142.57396270000027,142.57396270000027,142.57396270000027,142.57396270000027,142.57396270000027,005,P002,2025_Jan_18_0952,ConditionRich,2021.2.3,59.93665893873726,
119.75,120.0,41,0.0,Stimuli/Blank.png,0,0,0.0,0,51,51,51,,,,,,,,,,,,,119.7541256000004,0.004125600000406848,None,,146.3272634999994,146.3272634999994,146.3272634999994,146.3272634999994,146.3272634999994,146.3272634999994,146.3272634999994,146.3272634999994,146.3272634999994,146.3272634999994,005,P002,2025_Jan_18_0952,ConditionRich,2021.2.3,59.93665893873726,
120.0,123.75,12,0.75,Stimuli/P002/sun_bdxvmnlyovhqognn.jpg,1,1,1.75,0,52,52,52,,,,,,,,,,,,,120.00418420000005,0.004184200000054261,5,1.9747827000001053,146.5775168,146.5775168,146.5775168,146.5775168,146.5775168,146.5775168,147.5617059999995,148.3123458,146.5775168,146.5775168,005,P002,2025_Jan_18_0952,ConditionRich,2021.2.3,59.93665893873726,
123.75,124.0,41,0.0,Stimuli/Blank.png,0,0,0.0,0,53,53,53,,,,,,,,,,,,,123.76004639999974,0.010046399999737332,5,0.20401609999953507,150.34850899999947,150.34850899999947,150.34850899999947,150.34850899999947,150.34850899999947,150.34850899999947,150.34850899999947,150.34850899999947,150.34850899999947,150.34850899999947,005,P002,2025_Jan_18_0952,ConditionRich,2021.2.3,59.93665893873726,
124.0,127.75,30,0.75,Stimuli/P002/things_iguana_01b.jpg,1,0,0.75,0,54,54,54,,,,,,,,,,,,,124.02376670000012,0.02376670000012382,5,1.9548040999998193,150.59769030000007,150.59769030000007,150.59769030000007,150.59769030000007,150.59769030000007,150.59769030000007,150.59769030000007,151.33169970000017,150.59769030000007,150.59769030000007,005,P002,2025_Jan_18_0952,ConditionRich,2021.2.3,59.93665893873726,
127.75,128.0,41,0.0,Stimuli/Blank.png,0,0,0.0,0,55,55,55,,,,,,,,,,,,,127.76101060000019,0.011010600000190607,5,0.21786059999976715,154.33432360000006,154.33432360000006,154.33432360000006,154.33432360000006,154.33432360000006,154.33432360000006,154.33432360000006,154.33432360000006,154.33432360000006,154.33432360000006,005,P002,2025_Jan_18_0952,ConditionRich,2021.2.3,59.93665893873726,
128.0,131.75,2,0.75,Stimuli/P002/sun_akmxsxepquhynflp.jpg,0,0,0.0,0,56,56,56,,,,,,,,,,,,,128.01126720000047,0.011267200000474986,5,1.967656299999362,154.58452669999951,154.58452669999951,154.58452669999951,154.58452669999951,154.58452669999951,154.58452669999951,154.58452669999951,154.58452669999951,154.58452669999951,154.58452669999951,005,P002,2025_Jan_18_0952,ConditionRich,2021.2.3,59.93665893873726,
131.75,132.0,41,0.0,Stimuli/Blank.png,0,0,0.0,0,57,57,57,,,,,,,,,,,,,131.76534390000052,0.015343900000516442,5,0.2144774000007601,158.33783909999966,158.33783909999966,158.33783909999966,158.33783909999966,158.33783909999966,158.33783909999966,158.33783909999966,158.33783909999966,158.33783909999966,158.33783909999966,005,P002,2025_Jan_18_0952,ConditionRich,2021.2.3,59.93665893873726,
132.0,135.75,28,0.75,Stimuli/P002/things_girl_01b.jpg,0,0,0.0,0,58,58,58,,,,,,,,,,,,,132.01419030000034,0.01419030000033672,5,1.9642612999996345,158.58806019999975,158.58806019999975,158.58806019999975,158.58806019999975,158.58806019999975,158.58806019999975,158.58806019999975,158.58806019999975,158.58806019999975,158.58806019999975,005,P002,2025_Jan_18_0952,ConditionRich,2021.2.3,59.93665893873726,
135.75,136.0,41,0.0,Stimuli/Blank.png,0,0,0.0,0,59,59,59,,,,,,,,,,,,,135.75102179999976,0.0010217999997621519,None,,162.3246798,162.3246798,162.3246798,162.3246798,162.3246798,162.3246798,162.3246798,162.3246798,162.3246798,162.3246798,005,P002,2025_Jan_18_0952,ConditionRich,2021.2.3,59.93665893873726,
136.0,139.75,5,0.75,Stimuli/P002/sun_apwzcrxhvvnrexjh.jpg,0,0,0.0,0,60,60,60,,,,,,,,,,,,,136.00131510000028,0.0013151000002835644,5,1.9774446000001262,162.5749049999995,162.5749049999995,162.5749049999995,162.5749049999995,162.5749049999995,162.5749049999995,162.5749049999995,162.5749049999995,162.5749049999995,162.5749049999995,005,P002,2025_Jan_18_0952,ConditionRich,2021.2.3,59.93665893873726,
139.75,140.0,41,0.0,Stimuli/Blank.png,0,0,0.0,0,61,61,61,,,,,,,,,,,,,139.75501750000058,0.005017500000576547,None,,166.32820600000014,166.32820600000014,166.32820600000014,166.32820600000014,166.32820600000014,166.32820600000014,166.32820600000014,166.32820600000014,166.32820600000014,166.32820600000014,005,P002,2025_Jan_18_0952,ConditionRich,2021.2.3,59.93665893873726,
140.0,143.75,15,0.75,Stimuli/P002/sun_bfzoxbkvsfqxsyle.jpg,1,1,1.75,0,62,62,62,,,,,,,,,,,,,140.00533600000017,0.005336000000170316,5,1.9737073000005694,166.57842999999957,166.57842999999957,166.57842999999957,166.57842999999957,166.57842999999957,166.57842999999957,167.5626218999996,168.3132813000002,166.57842999999957,166.57842999999957,005,P002,2025_Jan_18_0952,ConditionRich,2021.2.3,59.93665893873726,
143.75,144.0,41,0.0,Stimuli/Blank.png,0,0,0.0,0,63,63,63,,,,,,,,,,,,,143.76040939999984,0.010409399999844027,5,0.2040060999997877,170.34840590000022,170.34840590000022,170.34840590000022,170.34840590000022,170.34840590000022,170.34840590000022,170.34840590000022,170.34840590000022,170.34840590000022,170.34840590000022,005,P002,2025_Jan_18_0952,ConditionRich,2021.2.3,59.93665893873726,
144.0,147.75,32,0.75,Stimuli/P002/things_oyster_01b.jpg,1,3,3.75,0,64,64,64,,,,,,,,,,,,,144.0248048000003,0.024804800000310934,1,3.4125491999993756,170.59862669999984,170.59862669999984,170.59862669999984,170.59862669999984,170.59862669999984,170.59862669999984,173.58458809999956,None,170.59862669999984,170.59862669999984,005,P002,2025_Jan_18_0952,ConditionRich,2021.2.3,59.93665893873726,
147.75,148.0,41,0.0,Stimuli/Blank.png,0,0,0.0,0,65,65,65,,,,,,,,,,,,,147.76206100000036,0.012061000000358035,5,0.21680859999923996,174.33532169999944,174.33532169999944,174.33532169999944,174.33532169999944,174.33532169999944,174.33532169999944,174.33532169999944,174.33532169999944,174.33532169999944,174.33532169999944,005,P002,2025_Jan_18_0952,ConditionRich,2021.2.3,59.93665893873726,
148.0,151.75,39,0.75,Stimuli/P002/things_woman_01b.jpg,0,0,0.0,0,66,66,66,,,,,,,,,,,,,148.0122209000001,0.01222090000010212,5,1.9667905999995128,174.58546920000026,174.58546920000026,174.58546920000026,174.58546920000026,174.58546920000026,174.58546920000026,174.58546920000026,174.58546920000026,174.58546920000026,174.58546920000026,005,P002,2025_Jan_18_0952,ConditionRich,2021.2.3,59.93665893873726,
151.75,152.0,41,0.0,Stimuli/Blank.png,0,0,0.0,0,67,67,67,,,,,,,,,,,,,151.7658792000002,0.01587920000019949,None,,178.33876859999964,178.33876859999964,178.33876859999964,178.33876859999964,178.33876859999964,178.33876859999964,178.33876859999964,178.33876859999964,178.33876859999964,178.33876859999964,005,P002,2025_Jan_18_0952,ConditionRich,2021.2.3,59.93665893873726,
152.0,155.75,31,0.75,Stimuli/P002/things_man_01b.jpg,0,0,0.0,0,68,68,68,,,,,,,,,,,,,151.99913149999975,-0.0008685000002515153,5,1.9797798999998122,178.57236149999972,178.57236149999972,178.57236149999972,178.57236149999972,178.57236149999972,178.57236149999972,178.57236149999972,178.57236149999972,178.57236149999972,178.57236149999972,005,P002,2025_Jan_18_0952,ConditionRich,2021.2.3,59.93665893873726,
155.75,156.0,41,0.0,Stimuli/Blank.png,0,0,0.0,0,69,69,69,,,,,,,,,,,,,155.75194040000042,0.001940400000421505,None,,182.32570309999937,182.32570309999937,182.32570309999937,182.32570309999937,182.32570309999937,182.32570309999937,182.32570309999937,182.32570309999937,182.32570309999937,182.32570309999937,005,P002,2025_Jan_18_0952,ConditionRich,2021.2.3,59.93665893873726,
156.0,159.75,8,0.75,Stimuli/P002/sun_asqboyqakusycvwd.jpg,1,0,0.75,0,70,70,70,,,,,,,,,,,,,156.00284960000045,0.002849600000445207,5,1.959780199999841,182.59251519999998,182.59251519999998,182.59251519999998,182.59251519999998,182.59251519999998,182.59251519999998,182.59251519999998,183.30984799999987,182.59251519999998,182.59251519999998,005,P002,2025_Jan_18_0952,ConditionRich,2021.2.3,59.93665893873726,
159.75,160.0,41,0.0,Stimuli/Blank.png,0,0,0.0,0,71,71,71,,,,,,,,,,,,,159.77429910000046,0.024299100000462204,5,0.18966090000049007,186.3624992999994,186.3624992999994,186.3624992999994,186.3624992999994,186.3624992999994,186.3624992999994,186.3624992999994,186.3624992999994,186.3624992999994,186.3624992999994,005,P002,2025_Jan_18_0952,ConditionRich,2021.2.3,59.93665893873726,
160.0,163.75,13,0.75,Stimuli/P002/sun_bfdmlbkyioxnkodb.jpg,0,0,0.0,0,72,72,72,,,,,,,,,,,,,160.02213649999976,0.022136499999760417,5,1.9560115000003861,186.5960385999997,186.5960385999997,186.5960385999997,186.5960385999997,186.5960385999997,186.5960385999997,186.5960385999997,186.5960385999997,186.5960385999997,186.5960385999997,005,P002,2025_Jan_18_0952,ConditionRich,2021.2.3,59.93665893873726,
163.75,164.0,41,0.0,Stimuli/Blank.png,0,0,0.0,0,73,73,73,,,,,,,,,,,,,163.7601881999999,0.010188199999902281,None,,190.33266379999986,190.33266379999986,190.33266379999986,190.33266379999986,190.33266379999986,190.33266379999986,190.33266379999986,190.33266379999986,190.33266379999986,190.33266379999986,005,P002,2025_Jan_18_0952,ConditionRich,2021.2.3,59.93665893873726,
164.0,167.75,20,0.75,Stimuli/P002/sun_dkgctqgpvxbaoyks.jpg,0,0,0.0,0,74,74,74,,,,,,,,,,,,,164.00902169999972,0.009021699999721022,5,1.969278000000486,190.58288600000014,190.58288600000014,190.58288600000014,190.58288600000014,190.58288600000014,190.58288600000014,190.58288600000014,190.58288600000014,190.58288600000014,190.58288600000014,005,P002,2025_Jan_18_0952,ConditionRich,2021.2.3,59.93665893873726,
167.75,168.0,41,0.0,Stimuli/Blank.png,0,0,0.0,0,75,75,75,,,,,,,,,,,,,167.76310420000027,0.013104200000270794,5,0.21589579999999842,194.33619089999956,194.33619089999956,194.33619089999956,194.33619089999956,194.33619089999956,194.33619089999956,194.33619089999956,194.33619089999956,194.33619089999956,194.33619089999956,005,P002,2025_Jan_18_0952,ConditionRich,2021.2.3,59.93665893873726,
168.0,171.75,37,0.75,Stimuli/P002/things_starfish_01b.jpg,0,0,0.0,0,76,76,76,,,,,,,,,,,,,168.0154781000001,0.015478100000109407,5,1.9489269000005152,194.6030879,194.6030879,194.6030879,194.6030879,194.6030879,194.6030879,194.6030879,194.6030879,194.6030879,194.6030879,005,P002,2025_Jan_18_0952,ConditionRich,2021.2.3,59.93665893873726,
171.75,172.0,41,0.0,Stimuli/Blank.png,0,0,0.0,0,77,77,77,,,,,,,,,,,,,171.76638360000015,0.01638360000015382,None,,198.3397970999995,198.3397970999995,198.3397970999995,198.3397970999995,198.3397970999995,198.3397970999995,198.3397970999995,198.3397970999995,198.3397970999995,198.3397970999995,005,P002,2025_Jan_18_0952,ConditionRich,2021.2.3,59.93665893873726,
172.0,175.75,26,0.75,Stimuli/P002/things_dish_01b.jpg,0,0,0.0,0,78,78,78,,,,,,,,,,,,,172.00032230000033,0.0003223000003345078,5,1.9621268000000782,198.58994449999955,198.58994449999955,198.58994449999955,198.58994449999955,198.58994449999955,198.58994449999955,198.58994449999955,198.58994449999955,198.58994449999955,198.58994449999955,005,P002,2025_Jan_18_0952,ConditionRich,2021.2.3,59.93665893873726,
175.75,176.0,41,0.0,Stimuli/Blank.png,0,0,0.0,0,79,79,79,,,,,,,,,,,,,175.76971670000057,0.01971670000057202,None,,202.3432296000001,202.3432296000001,202.3432296000001,202.3432296000001,202.3432296000001,202.3432296000001,202.3432296000001,202.3432296000001,202.3432296000001,202.3432296000001,005,P002,2025_Jan_18_0952,ConditionRich,2021.2.3,59.93665893873726,
176.0,179.75,34,0.75,Stimuli/P002/things_parrot_01b.jpg,0,0,0.0,0,80,80,80,,,,,,,,,,,,,176.00373330000002,0.0037333000000217,5,1.9586633999997503,202.59344640000018,202.59344640000018,202.59344640000018,202.59344640000018,202.59344640000018,202.59344640000018,202.59344640000018,202.59344640000018,202.59344640000018,202.59344640000018,005,P002,2025_Jan_18_0952,ConditionRich,2021.2.3,59.93665893873726,
179.75,180.0,41,0.0,Stimuli/Blank.png,0,0,0.0,0,81,81,81,,,,,,,,,,,,,179.77503239999987,0.025032399999872723,5,0.18852239999978337,206.3634394999999,206.3634394999999,206.3634394999999,206.3634394999999,206.3634394999999,206.3634394999999,206.3634394999999,206.3634394999999,206.3634394999999,206.3634394999999,005,P002,2025_Jan_18_0952,ConditionRich,2021.2.3,59.93665893873726,
180.0,196.0,0,0.0,Stimuli/Blank.png,1,11,11.75,0,82,82,82,,,,,,,,,,,,,180.02387180000005,0.023871800000051735,5,13.95523299999968,206.59691999999995,206.59691999999995,206.59691999999995,206.59691999999995,206.59691999999995,206.59691999999995,217.57329729999947,218.32394569999997,206.59691999999995,206.59691999999995,005,P002,2025_Jan_18_0952,ConditionRich,2021.2.3,59.93665893873726,
196.0,199.75,23,0.75,Stimuli/P002/things_chick_01b.jpg,0,0,0.0,0,83,83,83,,,,,,,,,,,,,196.00529749999987,0.005297499999869615,5,1.9743014999994557,222.57771479999974,222.57771479999974,222.57771479999974,222.57771479999974,222.57771479999974,222.57771479999974,222.57771479999974,222.57771479999974,222.57771479999974,222.57771479999974,005,P002,2025_Jan_18_0952,ConditionRich,2021.2.3,59.93665893873726,
199.75,200.0,41,0.0,Stimuli/Blank.png,0,0,0.0,0,84,84,84,,,,,,,,,,,,,199.75787459999992,0.007874599999922793,None,,226.33104569999978,226.33104569999978,226.33104569999978,226.33104569999978,226.33104569999978,226.33104569999978,226.33104569999978,226.33104569999978,226.33104569999978,226.33104569999978,005,P002,2025_Jan_18_0952,ConditionRich,2021.2.3,59.93665893873726,
200.0,203.75,38,0.75,Stimuli/P002/things_windowsill_01b.jpg,0,0,0.0,0,85,85,85,,,,,,,,,,,,,200.01033030000053,0.010330300000532588,5,1.954237799999646,226.59796050000023,226.59796050000023,226.59796050000023,226.59796050000023,226.59796050000023,226.59796050000023,226.59796050000023,226.59796050000023,226.59796050000023,226.59796050000023,005,P002,2025_Jan_18_0952,ConditionRich,2021.2.3,59.93665893873726,
203.75,204.0,41,0.0,Stimuli/Blank.png,0,0,0.0,0,86,86,86,,,,,,,,,,,,,203.78026580000005,0.030265800000051968,5,0.18411730000025273,230.36787399999957,230.36787399999957,230.36787399999957,230.36787399999957,230.36787399999957,230.36787399999957,230.36787399999957,230.36787399999957,230.36787399999957,230.36787399999957,005,P002,2025_Jan_18_0952,ConditionRich,2021.2.3,59.93665893873726,
204.0,207.75,5,0.75,Stimuli/P002/sun_apwzcrxhvvnrexjh.jpg,0,0,0.0,0,87,87,87,,,,,,,,,,,,,204.0306403000004,0.030640300000413845,5,1.9338055999996868,230.6181134999997,230.6181134999997,230.6181134999997,230.6181134999997,230.6181134999997,230.6181134999997,230.6181134999997,230.6181134999997,230.6181134999997,230.6181134999997,005,P002,2025_Jan_18_0952,ConditionRich,2021.2.3,59.93665893873726,
207.75,208.0,41,0.0,Stimuli/Blank.png,0,0,0.0,0,88,88,88,,,,,,,,,,,,,207.76524400000017,0.015244000000166125,5,0.21398020000015094,234.33806360000017,234.33806360000017,234.33806360000017,234.33806360000017,234.33806360000017,234.33806360000017,234.33806360000017,234.33806360000017,234.33806360000017,234.33806360000017,005,P002,2025_Jan_18_0952,ConditionRich,2021.2.3,59.93665893873726,
208.0,211.75,24,0.75,Stimuli/P002/things_cornucopia_01b.jpg,0,0,0.0,0,89,89,89,,,,,,,,,,,,,208.01572959999976,0.015729599999758648,5,1.9469128000000637,234.60497039999973,234.60497039999973,234.60497039999973,234.60497039999973,234.60497039999973,234.60497039999973,234.60497039999973,234.60497039999973,234.60497039999973,234.60497039999973,005,P002,2025_Jan_18_0952,ConditionRich,2021.2.3,59.93665893873726,
211.75,212.0,41,0.0,Stimuli/Blank.png,0,0,0.0,0,90,90,90,,,,,,,,,,,,,211.76867440000024,0.018674400000236346,None,,238.3415817999994,238.3415817999994,238.3415817999994,238.3415817999994,238.3415817999994,238.3415817999994,238.3415817999994,238.3415817999994,238.3415817999994,238.3415817999994,005,P002,2025_Jan_18_0952,ConditionRich,2021.2.3,59.93665893873726,
212.0,215.75,25,0.75,Stimuli/P002/things_curry_01b.jpg,0,0,0.0,0,91,91,91,,,,,,,,,,,,,212.0014323000005,0.001432300000487885,5,1.9600903000000471,238.59180190000006,238.59180190000006,238.59180190000006,238.59180190000006,238.59180190000006,238.59180190000006,238.59180190000006,238.59180190000006,238.59180190000006,238.59180190000006,005,P002,2025_Jan_18_0952,ConditionRich,2021.2.3,59.93665893873726,
215.75,216.0,41,0.0,Stimuli/Blank.png,0,0,0.0,0,92,92,92,,,,,,,,,,,,,215.7718087000003,0.021808700000292447,None,,242.34509739999976,242.34509739999976,242.34509739999976,242.34509739999976,242.34509739999976,242.34509739999976,242.34509739999976,242.34509739999976,242.34509739999976,242.34509739999976,005,P002,2025_Jan_18_0952,ConditionRich,2021.2.3,59.93665893873726,
216.0,219.75,11,0.75,Stimuli/P002/sun_bbfdgdyeqdnadvvi.jpg,0,0,0.0,0,93,93,93,,,,,,,,,,,,,216.00525819999984,0.005258199999843782,5,1.9735455000000002,242.5786403000002,242.5786403000002,242.5786403000002,242.5786403000002,242.5786403000002,242.5786403000002,242.5786403000002,242.5786403000002,242.5786403000002,242.5786403000002,005,P002,2025_Jan_18_0952,ConditionRich,2021.2.3,59.93665893873726,
219.75,220.0,41,0.0,Stimuli/Blank.png,0,0,0.0,0,94,94,94,,,,,,,,,,,,,219.7587825999999,0.00878259999990405,None,,246.33195249999972,246.33195249999972,246.33195249999972,246.33195249999972,246.33195249999972,246.33195249999972,246.33195249999972,246.33195249999972,246.33195249999972,246.33195249999972,005,P002,2025_Jan_18_0952,ConditionRich,2021.2.3,59.93665893873726,
220.0,223.75,26,0.75,Stimuli/P002/things_dish_01b.jpg,0,0,0.0,0,95,95,95,,,,,,,,,,,,,220.00905409999996,0.009054099999957543,5,1.9531238999998095,246.59883949999949,246.59883949999949,246.59883949999949,246.59883949999949,246.59883949999949,246.59883949999949,246.59883949999949,246.59883949999949,246.59883949999949,246.59883949999949,005,P002,2025_Jan_18_0952,ConditionRich,2021.2.3,59.93665893873726,
223.75,224.0,41,0.0,Stimuli/Blank.png,0,0,0.0,0,96,96,96,,,,,,,,,,,,,223.77850080000007,0.028500800000074378,5,0.19971290000012232,250.35214899999937,250.35214899999937,250.35214899999937,250.35214899999937,250.35214899999937,250.35214899999937,250.35214899999937,250.35214899999937,250.35214899999937,250.35214899999937,005,P002,2025_Jan_18_0952,ConditionRich,2021.2.3,59.93665893873726,
224.0,227.75,21,0.75,Stimuli/P002/things_baby_01b.jpg,0,0,0.0,0,97,97,97,,,,,,,,,,,,,224.01255670000046,0.012556700000459387,5,1.9494870999997147,250.60235809999995,250.60235809999995,250.60235809999995,250.60235809999995,250.60235809999995,250.60235809999995,250.60235809999995,250.60235809999995,250.60235809999995,250.60235809999995,005,P002,2025_Jan_18_0952,ConditionRich,2021.2.3,59.93665893873726,
227.75,228.0,41,0.0,Stimuli/Blank.png,0,0,0.0,0,98,98,98,,,,,,,,,,,,,227.76603539999996,0.016035399999964284,None,,254.33898109999973,254.33898109999973,254.33898109999973,254.33898109999973,254.33898109999973,254.33898109999973,254.33898109999973,254.33898109999973,254.33898109999973,254.33898109999973,005,P002,2025_Jan_18_0952,ConditionRich,2021.2.3,59.93665893873726,
228.0,231.75,1,0.75,Stimuli/P002/sun_agpgdwkhzgvzdaea.jpg,0,0,0.0,0,99,99,99,,,,,,,,,,,,,227.99984480000057,-0.00015519999942625873,5,1.9626336000001174,254.58922699999948,254.58922699999948,254.58922699999948,254.58922699999948,254.58922699999948,254.58922699999948,254.58922699999948,254.58922699999948,254.58922699999948,254.58922699999948,005,P002,2025_Jan_18_0952,ConditionRich,2021.2.3,59.93665893873726,
231.75,232.0,41,0.0,Stimuli/Blank.png,0,0,0.0,0,100,100,100,,,,,,,,,,,,,231.77010109999992,0.020101099999919825,None,,258.34251419999964,258.34251419999964,258.34251419999964,258.34251419999964,258.34251419999964,258.34251419999964,258.34251419999964,258.34251419999964,258.34251419999964,258.34251419999964,005,P002,2025_Jan_18_0952,ConditionRich,2021.2.3,59.93665893873726,
232.0,235.75,20,0.75,Stimuli/P002/sun_dkgctqgpvxbaoyks.jpg,0,0,0.0,0,101,101,101,,,,,,,,,,,,,232.00498400000015,0.0049840000001495355,5,1.9593383999999787,258.59273719999965,258.59273719999965,258.59273719999965,258.59273719999965,258.59273719999965,258.59273719999965,258.59273719999965,258.59273719999965,258.59273719999965,258.59273719999965,005,P002,2025_Jan_18_0952,ConditionRich,2021.2.3,59.93665893873726,
235.75,236.0,41,0.0,Stimuli/Blank.png,0,0,0.0,0,102,102,102,,,,,,,,,,,,,235.7751530000005,0.02515300000050047,5,0.18912420000015118,262.36271959999976,262.36271959999976,262.36271959999976,262.36271959999976,262.36271959999976,262.36271959999976,262.36271959999976,262.36271959999976,262.36271959999976,262.36271959999976,005,P002,2025_Jan_18_0952,ConditionRich,2021.2.3,59.93665893873726,
236.0,239.75,3,0.75,Stimuli/P002/sun_amarqtinchblqmah.jpg,0,0,0.0,0,103,103,103,,,,,,,,,,,,,236.02469910000036,0.024699100000361796,5,1.93885870000031,262.6129629999996,262.6129629999996,262.6129629999996,262.6129629999996,262.6129629999996,262.6129629999996,262.6129629999996,262.6129629999996,262.6129629999996,262.6129629999996,005,P002,2025_Jan_18_0952,ConditionRich,2021.2.3,59.93665893873726,
239.75,240.0,41,0.0,Stimuli/Blank.png,0,0,0.0,0,104,104,104,,,,,,,,,,,,,239.77653660000033,0.02653660000032687,None,,266.34963400000015,266.34963400000015,266.34963400000015,266.34963400000015,266.34963400000015,266.34963400000015,266.34963400000015,266.34963400000015,266.34963400000015,266.34963400000015,005,P002,2025_Jan_18_0952,ConditionRich,2021.2.3,59.93665893873726,
240.0,243.75,32,0.75,Stimuli/P002/things_oyster_01b.jpg,1,0,0.75,0,105,105,105,,,,,,,,,,,,,240.00975430000017,0.00975430000016786,5,1.9686938000004375,266.5830853999996,266.5830853999996,266.5830853999996,266.5830853999996,266.5830853999996,266.5830853999996,266.5830853999996,267.3170702999996,266.5830853999996,266.5830853999996,005,P002,2025_Jan_18_0952,ConditionRich,2021.2.3,59.93665893873726,
243.75,244.0,41,0.0,Stimuli/Blank.png,0,0,0.0,0,106,106,106,,,,,,,,,,,,,243.7655203000004,0.015520300000389398,5,0.1975737000002482,270.3542278999994,270.3542278999994,270.3542278999994,270.3542278999994,270.3542278999994,270.3542278999994,270.3542278999994,270.3542278999994,270.3542278999994,270.3542278999994,005,P002,2025_Jan_18_0952,ConditionRich,2021.2.3,59.93665893873726,
244.0,247.75,27,0.75,Stimuli/P002/things_dynamite_01b.jpg,0,0,0.0,0,107,107,107,,,,,,,,,,,,,244.02956090000043,0.02956090000043332,5,1.9485133999996833,270.6033010000001,270.6033010000001,270.6033010000001,270.6033010000001,270.6033010000001,270.6033010000001,270.6033010000001,270.6033010000001,270.6033010000001,270.6033010000001,005,P002,2025_Jan_18_0952,ConditionRich,2021.2.3,59.93665893873726,
247.75,248.0,41,0.0,Stimuli/Blank.png,0,0,0.0,0,108,108,108,,,,,,,,,,,,,247.74983520000023,-0.00016479999976581894,None,,274.3232386999998,274.3232386999998,274.3232386999998,274.3232386999998,274.3232386999998,274.3232386999998,274.3232386999998,274.3232386999998,274.3232386999998,274.3232386999998,005,P002,2025_Jan_18_0952,ConditionRich,2021.2.3,59.93665893873726,
248.0,251.75,15,0.75,Stimuli/P002/sun_bfzoxbkvsfqxsyle.jpg,0,0,0.0,0,109,109,109,,,,,,,,,,,,,248.00027950000003,0.0002795000000332948,5,1.9783071000001655,274.5734567999998,274.5734567999998,274.5734567999998,274.5734567999998,274.5734567999998,274.5734567999998,274.5734567999998,274.5734567999998,274.5734567999998,274.5734567999998,005,P002,2025_Jan_18_0952,ConditionRich,2021.2.3,59.93665893873726,
251.75,252.0,41,0.0,Stimuli/Blank.png,0,0,0.0,0,110,110,110,,,,,,,,,,,,,251.7536780999999,0.003678099999888218,None,,278.3267697000001,278.3267697000001,278.3267697000001,278.3267697000001,278.3267697000001,278.3267697000001,278.3267697000001,278.3267697000001,278.3267697000001,278.3267697000001,005,P002,2025_Jan_18_0952,ConditionRich,2021.2.3,59.93665893873726,
252.0,255.75,34,0.75,Stimuli/P002/things_parrot_01b.jpg,1,1,1.75,0,111,111,111,,,,,,,,,,,,,252.0046252000002,0.004625200000191398,5,1.9581442999997307,278.5936772999994,278.5936772999994,278.5936772999994,278.5936772999994,278.5936772999994,278.5936772999994,279.5612831999997,280.31183669999973,278.5936772999994,278.5936772999994,005,P002,2025_Jan_18_0952,ConditionRich,2021.2.3,59.93665893873726,
255.75,256.0,41,0.0,Stimuli/Blank.png,0,0,0.0,0,112,112,112,,,,,,,,,,,,,255.77376389999972,0.023763899999721616,None,,282.34696189999977,282.34696189999977,282.34696189999977,282.34696189999977,282.34696189999977,282.34696189999977,282.34696189999977,282.34696189999977,282.34696189999977,282.34696189999977,005,P002,2025_Jan_18_0952,ConditionRich,2021.2.3,59.93665893873726,
256.0,259.75,35,0.75,Stimuli/P002/things_pepperoni_01b.jpg,0,0,0.0,0,113,113,113,,,,,,,,,,,,,256.00914509999984,0.009145099999841477,5,1.954664099999718,282.5971916999997,282.5971916999997,282.5971916999997,282.5971916999997,282.5971916999997,282.5971916999997,282.5971916999997,282.5971916999997,282.5971916999997,282.5971916999997,005,P002,2025_Jan_18_0952,ConditionRich,2021.2.3,59.93665893873726,
259.75,260.0,41,0.0,Stimuli/Blank.png,0,0,0.0,0,114,114,114,,,,,,,,,,,,,259.7790385999997,0.02903859999969427,5,0.18463080000037735,286.3671763000002,286.3671763000002,286.3671763000002,286.3671763000002,286.3671763000002,286.3671763000002,286.3671763000002,286.3671763000002,286.3671763000002,286.3671763000002,005,P002,2025_Jan_18_0952,ConditionRich,2021.2.3,59.93665893873726,
260.0,263.75,10,0.75,Stimuli/P002/sun_aykefnhciwsffcrj.jpg,0,0,0.0,0,115,115,115,,,,,,,,,,,,,260.02949100000023,0.029491000000234635,5,1.9343472999998994,286.61739729999954,286.61739729999954,286.61739729999954,286.61739729999954,286.61739729999954,286.61739729999954,286.61739729999954,286.61739729999954,286.61739729999954,286.61739729999954,005,P002,2025_Jan_18_0952,ConditionRich,2021.2.3,59.93665893873726,
263.75,264.0,41,0.0,Stimuli/Blank.png,0,0,0.0,0,116,116,116,,,,,,,,,,,,,263.76488659999995,0.014886599999954342,5,0.19776089999959368,290.3540382000001,290.3540382000001,290.3540382000001,290.3540382000001,290.3540382000001,290.3540382000001,290.3540382000001,290.3540382000001,290.3540382000001,290.3540382000001,005,P002,2025_Jan_18_0952,ConditionRich,2021.2.3,59.93665893873726,
264.0,267.75,36,0.75,Stimuli/P002/things_stalagmite_01b.jpg,1,1,1.75,0,117,117,117,,,,,,,,,,,,,264.0305521,0.03055210000002262,5,1.9476111999993009,290.60423040000023,290.60423040000023,290.60423040000023,290.60423040000023,290.60423040000023,290.60423040000023,291.5884248000002,292.3390852000002,290.60423040000023,290.60423040000023,005,P002,2025_Jan_18_0952,ConditionRich,2021.2.3,59.93665893873726,
267.75,268.0,41,0.0,Stimuli/Blank.png,0,0,0.0,0,118,118,118,,,,,,,,,,,,,267.75046889999976,0.00046889999975974206,None,,294.32417179999993,294.32417179999993,294.32417179999993,294.32417179999993,294.32417179999993,294.32417179999993,294.32417179999993,294.32417179999993,294.32417179999993,294.32417179999993,005,P002,2025_Jan_18_0952,ConditionRich,2021.2.3,59.93665893873726,
268.0,271.75,30,0.75,Stimuli/P002/things_iguana_01b.jpg,1,0,0.75,0,119,119,119,,,,,,,,,,,,,268.0006535000002,0.0006535000002259039,5,1.977481699999771,294.57439669999985,294.57439669999985,294.57439669999985,294.57439669999985,294.57439669999985,294.57439669999985,294.57439669999985,295.3083317999999,294.57439669999985,294.57439669999985,005,P002,2025_Jan_18_0952,ConditionRich,2021.2.3,59.93665893873726,
271.75,272.0,41,0.0,Stimuli/Blank.png,0,0,0.0,0,120,120,120,,,,,,,,,,,,,271.7545858000003,0.004585800000313611,None,,298.32769499999995,298.32769499999995,298.32769499999995,298.32769499999995,298.32769499999995,298.32769499999995,298.32769499999995,298.32769499999995,298.32769499999995,298.32769499999995,005,P002,2025_Jan_18_0952,ConditionRich,2021.2.3,59.93665893873726,
272.0,275.75,17,0.75,Stimuli/P002/sun_bshgmgbmpvjkxfis.jpg,1,2,2.75,0,121,121,121,,,,,,,,,,,,,272.00546490000033,0.005464900000333728,1,2.291053099999772,298.59461889999966,298.59461889999966,298.59461889999966,298.59461889999966,298.59461889999966,298.59461889999966,300.56298609999976,301.31364659999963,298.59461889999966,298.59461889999966,005,P002,2025_Jan_18_0952,ConditionRich,2021.2.3,59.93665893873726,
275.75,276.0,41,0.0,Stimuli/Blank.png,0,0,0.0,0,122,122,122,,,,,,,,,,,,,275.7754534000005,0.025453400000515103,None,,302.34790749999956,302.34790749999956,302.34790749999956,302.34790749999956,302.34790749999956,302.34790749999956,302.34790749999956,302.34790749999956,302.34790749999956,302.34790749999956,005,P002,2025_Jan_18_0952,ConditionRich,2021.2.3,59.93665893873726,
276.0,292.0,0,0.0,Stimuli/Blank.png,1,12,12.75,0,123,123,123,,,,,,,,,,,,,276.00826320000033,0.008263200000328652,5,13.971302200000537,302.58149289999983,302.58149289999983,302.58149289999983,302.58149289999983,302.58149289999983,302.58149289999983,314.55868910000027,315.30934960000013,302.58149289999983,302.58149289999983,005,P002,2025_Jan_18_0952,ConditionRich,2021.2.3,59.93665893873726,
292.0,295.75,29,0.75,Stimuli/P002/things_grinder_01b.jpg,0,0,0.0,0,124,124,124,,,,,,,,,,,,,292.00572230000034,0.005722300000343239,5,1.957350700000461,318.5955583999994,318.5955583999994,318.5955583999994,318.5955583999994,318.5955583999994,318.5955583999994,318.5955583999994,318.5955583999994,318.5955583999994,318.5955583999994,005,P002,2025_Jan_18_0952,ConditionRich,2021.2.3,59.93665893873726,
295.75,296.0,41,0.0,Stimuli/Blank.png,0,0,0.0,0,125,125,125,,,,,,,,,,,,,295.77538920000006,0.025389200000063283,None,,322.34883459999946,322.34883459999946,322.34883459999946,322.34883459999946,322.34883459999946,322.34883459999946,322.34883459999946,322.34883459999946,322.34883459999946,322.34883459999946,005,P002,2025_Jan_18_0952,ConditionRich,2021.2.3,59.93665893873726,
296.0,299.75,33,0.75,Stimuli/P002/things_pan_01b.jpg,0,0,0.0,0,126,126,126,,,,,,,,,,,,,296.0086060000003,0.008606000000327185,5,1.9702353000002404,322.58239739999954,322.58239739999954,322.58239739999954,322.58239739999954,322.58239739999954,322.58239739999954,322.58239739999954,322.58239739999954,322.58239739999954,322.58239739999954,005,P002,2025_Jan_18_0952,ConditionRich,2021.2.3,59.93665893873726,
299.75,300.0,41,0.0,Stimuli/Blank.png,0,0,0.0,0,127,127,127,,,,,,,,,,,,,299.7624553000005,0.01245530000051076,5,0.2168800999997984,326.33572000000004,326.33572000000004,326.33572000000004,326.33572000000004,326.33572000000004,326.33572000000004,326.33572000000004,326.33572000000004,326.33572000000004,326.33572000000004,005,P002,2025_Jan_18_0952,ConditionRich,2021.2.3,59.93665893873726,
300.0,303.75,7,0.75,Stimuli/P002/sun_arlesyjqxmqmcccl.jpg,0,0,0.0,0,128,128,128,,,,,,,,,,,,,300.01484189999974,0.014841899999737507,5,1.9501381000000038,326.60257999999976,326.60257999999976,326.60257999999976,326.60257999999976,326.60257999999976,326.60257999999976,326.60257999999976,326.60257999999976,326.60257999999976,326.60257999999976,005,P002,2025_Jan_18_0952,ConditionRich,2021.2.3,59.93665893873726,
303.75,304.0,41,0.0,Stimuli/Blank.png,0,0,0.0,0,129,129,129,,,,,,,,,,,,,303.7654037000002,0.0154037000002063,5,0.21361900000010792,330.33919779999997,330.33919779999997,330.33919779999997,330.33919779999997,330.33919779999997,330.33919779999997,330.33919779999997,330.33919779999997,330.33919779999997,330.33919779999997,005,P002,2025_Jan_18_0952,ConditionRich,2021.2.3,59.93665893873726,
304.0,307.75,2,0.75,Stimuli/P002/sun_akmxsxepquhynflp.jpg,0,0,0.0,0,130,130,130,,,,,,,,,,,,,304.0159859000005,0.015985900000487163,5,1.9631936000005226,330.5894232999999,330.5894232999999,330.5894232999999,330.5894232999999,330.5894232999999,330.5894232999999,330.5894232999999,330.5894232999999,330.5894232999999,330.5894232999999,005,P002,2025_Jan_18_0952,ConditionRich,2021.2.3,59.93665893873726,
307.75,308.0,41,0.0,Stimuli/Blank.png,0,0,0.0,0,131,131,131,,,,,,,,,,,,,307.7548832000002,0.004883200000222132,5,0.2097807999998622,334.34272899999996,334.34272899999996,334.34272899999996,334.34272899999996,334.34272899999996,334.34272899999996,334.34272899999996,334.34272899999996,334.34272899999996,334.34272899999996,005,P002,2025_Jan_18_0952,ConditionRich,2021.2.3,59.93665893873726,
308.0,311.75,18,0.75,Stimuli/P002/sun_bzjegfvyrvqtunza.jpg,0,0,0.0,0,132,132,132,,,,,,,,,,,,,308.02046880000034,0.020468800000344345,5,1.9429816000001665,334.60962819999986,334.60962819999986,334.60962819999986,334.60962819999986,334.60962819999986,334.60962819999986,334.60962819999986,334.60962819999986,334.60962819999986,334.60962819999986,005,P002,2025_Jan_18_0952,ConditionRich,2021.2.3,59.93665893873726,
311.75,312.0,41,0.0,Stimuli/Blank.png,0,0,0.0,0,133,133,133,,,,,,,,,,,,,311.77255760000025,0.02255760000025475,None,,338.34629399999994,338.34629399999994,338.34629399999994,338.34629399999994,338.34629399999994,338.34629399999994,338.34629399999994,338.34629399999994,338.34629399999994,338.34629399999994,005,P002,2025_Jan_18_0952,ConditionRich,2021.2.3,59.93665893873726,
312.0,315.75,39,0.75,Stimuli/P002/things_woman_01b.jpg,0,0,0.0,0,134,134,134,,,,,,,,,,,,,312.00887049999983,0.008870499999829917,5,1.9561407999999574,338.59646220000013,338.59646220000013,338.59646220000013,338.59646220000013,338.59646220000013,338.59646220000013,338.59646220000013,338.59646220000013,338.59646220000013,338.59646220000013,005,P002,2025_Jan_18_0952,ConditionRich,2021.2.3,59.93665893873726,
315.75,316.0,41,0.0,Stimuli/Blank.png,0,0,0.0,0,135,135,135,,,,,,,,,,,,,315.7772322999999,0.02723229999992327,None,,342.34978219999994,342.34978219999994,342.34978219999994,342.34978219999994,342.34978219999994,342.34978219999994,342.34978219999994,342.34978219999994,342.34978219999994,342.34978219999994,005,P002,2025_Jan_18_0952,ConditionRich,2021.2.3,59.93665893873726,
316.0,319.75,28,0.75,Stimuli/P002/things_girl_01b.jpg,0,0,0.0,0,136,136,136,,,,,,,,,,,,,316.0097295000005,0.009729500000503322,5,1.9692264000004798,342.5833193999997,342.5833193999997,342.5833193999997,342.5833193999997,342.5833193999997,342.5833193999997,342.5833193999997,342.5833193999997,342.5833193999997,342.5833193999997,005,P002,2025_Jan_18_0952,ConditionRich,2021.2.3,59.93665893873726,
319.75,320.0,41,0.0,Stimuli/Blank.png,0,0,0.0,0,137,137,137,,,,,,,,,,,,,319.7633274,0.013327399999980116,5,0.21604260000003705,346.33660749999945,346.33660749999945,346.33660749999945,346.33660749999945,346.33660749999945,346.33660749999945,346.33660749999945,346.33660749999945,346.33660749999945,346.33660749999945,005,P002,2025_Jan_18_0952,ConditionRich,2021.2.3,59.93665893873726,
320.0,323.75,22,0.75,Stimuli/P002/things_boy_01b.jpg,0,0,0.0,0,138,138,138,,,,,,,,,,,,,320.0142265000004,0.014226500000404485,5,1.9490176999997857,346.6035119999997,346.6035119999997,346.6035119999997,346.6035119999997,346.6035119999997,346.6035119999997,346.6035119999997,346.6035119999997,346.6035119999997,346.6035119999997,005,P002,2025_Jan_18_0952,ConditionRich,2021.2.3,59.93665893873726,
323.75,324.0,41,0.0,Stimuli/Blank.png,0,0,0.0,0,139,139,139,,,,,,,,,,,,,323.76643760000024,0.016437600000244856,None,,350.3401377,350.3401377,350.3401377,350.3401377,350.3401377,350.3401377,350.3401377,350.3401377,350.3401377,350.3401377,005,P002,2025_Jan_18_0952,ConditionRich,2021.2.3,59.93665893873726,
324.0,327.75,31,0.75,Stimuli/P002/things_man_01b.jpg,0,0,0.0,0,140,140,140,,,,,,,,,,,,,324.00075749999996,0.0007574999999633292,5,1.9789976000001843,350.5736748999998,350.5736748999998,350.5736748999998,350.5736748999998,350.5736748999998,350.5736748999998,350.5736748999998,350.5736748999998,350.5736748999998,350.5736748999998,005,P002,2025_Jan_18_0952,ConditionRich,2021.2.3,59.93665893873726,
327.75,328.0,41,0.0,Stimuli/Blank.png,0,0,0.0,0,141,141,141,,,,,,,,,,,,,327.7533662000005,0.003366200000527897,None,,354.32697740000003,354.32697740000003,354.32697740000003,354.32697740000003,354.32697740000003,354.32697740000003,354.32697740000003,354.32697740000003,354.32697740000003,354.32697740000003,005,P002,2025_Jan_18_0952,ConditionRich,2021.2.3,59.93665893873726,
328.0,331.75,37,0.75,Stimuli/P002/things_starfish_01b.jpg,0,0,0.0,0,142,142,142,,,,,,,,,,,,,328.0042579000001,0.0042579000000841916,5,1.9585723000000144,354.5938919,354.5938919,354.5938919,354.5938919,354.5938919,354.5938919,354.5938919,354.5938919,354.5938919,354.5938919,005,P002,2025_Jan_18_0952,ConditionRich,2021.2.3,59.93665893873726,
331.75,332.0,41,0.0,Stimuli/Blank.png,0,0,0.0,0,143,143,143,,,,,,,,,,,,,331.7750323999999,0.025032399999872723,None,,358.3471916999997,358.3471916999997,358.3471916999997,358.3471916999997,358.3471916999997,358.3471916999997,358.3471916999997,358.3471916999997,358.3471916999997,358.3471916999997,005,P002,2025_Jan_18_0952,ConditionRich,2021.2.3,59.93665893873726,
332.0,335.75,8,0.75,Stimuli/P002/sun_asqboyqakusycvwd.jpg,0,0,0.0,0,144,144,144,,,,,,,,,,,,,332.00968079999984,0.009680799999841838,None,,358.5974139,358.5974139,358.5974139,358.5974139,358.5974139,358.5974139,358.5974139,358.5974139,358.5974139,358.5974139,005,P002,2025_Jan_18_0952,ConditionRich,2021.2.3,59.93665893873726,
335.75,336.0,41,0.0,Stimuli/Blank.png,0,0,0.0,0,145,145,145,,,,,,,,,,,,,335.77967460000036,0.02967460000036226,None,,362.3673939999999,362.3673939999999,362.3673939999999,362.3673939999999,362.3673939999999,362.3673939999999,362.3673939999999,362.3673939999999,362.3673939999999,362.3673939999999,005,P002,2025_Jan_18_0952,ConditionRich,2021.2.3,59.93665893873726,
336.0,339.75,9,0.75,Stimuli/P002/sun_awtltwwpwbepuuqv.jpg,0,0,0.0,0,146,146,146,,,,,,,,,,,,,336.0300408000003,0.030040800000278978,5,1.9349173999999039,362.61761920000026,362.61761920000026,362.61761920000026,362.61761920000026,362.61761920000026,362.61761920000026,362.61761920000026,362.61761920000026,362.61761920000026,362.61761920000026,005,P002,2025_Jan_18_0952,ConditionRich,2021.2.3,59.93665893873726,
339.75,340.0,41,0.0,Stimuli/Blank.png,0,0,0.0,0,147,147,147,,,,,,,,,,,,,339.76476,0.014760000000023865,5,0.19825399999990623,366.35425810000015,366.35425810000015,366.35425810000015,366.35425810000015,366.35425810000015,366.35425810000015,366.35425810000015,366.35425810000015,366.35425810000015,366.35425810000015,005,P002,2025_Jan_18_0952,ConditionRich,2021.2.3,59.93665893873726,
340.0,343.75,4,0.75,Stimuli/P002/sun_aonjwqswdblhlpkm.jpg,1,0,0.75,0,148,148,148,,,,,,,,,,,,,340.0314639999997,0.031463999999687076,5,1.948095299999295,366.60444670000015,366.60444670000015,366.60444670000015,366.60444670000015,366.60444670000015,366.60444670000015,366.60444670000015,367.3384183999997,366.60444670000015,366.60444670000015,005,P002,2025_Jan_18_0952,ConditionRich,2021.2.3,59.93665893873726,
343.75,344.0,41,0.0,Stimuli/Blank.png,0,0,0.0,0,149,149,149,,,,,,,,,,,,,343.7504925000003,0.0004925000002913293,None,,370.32449610000003,370.32449610000003,370.32449610000003,370.32449610000003,370.32449610000003,370.32449610000003,370.32449610000003,370.32449610000003,370.32449610000003,370.32449610000003,005,P002,2025_Jan_18_0952,ConditionRich,2021.2.3,59.93665893873726,
344.0,347.75,19,0.75,Stimuli/P002/sun_bzyyqqczvrnvukdn.jpg,0,0,0.0,0,150,150,150,,,,,,,,,,,,,344.0037044999999,0.003704499999912514,5,1.9611259999992399,370.5912970999998,370.5912970999998,370.5912970999998,370.5912970999998,370.5912970999998,370.5912970999998,370.5912970999998,370.5912970999998,370.5912970999998,370.5912970999998,005,P002,2025_Jan_18_0952,ConditionRich,2021.2.3,59.93665893873726,
347.75,348.0,41,0.0,Stimuli/Blank.png,0,0,0.0,0,151,151,151,,,,,,,,,,,,,347.7737970999997,0.02379709999968327,5,0.19120860000020912,374.36127659999966,374.36127659999966,374.36127659999966,374.36127659999966,374.36127659999966,374.36127659999966,374.36127659999966,374.36127659999966,374.36127659999966,374.36127659999966,005,P002,2025_Jan_18_0952,ConditionRich,2021.2.3,59.93665893873726,
348.0,351.75,6,0.75,Stimuli/P002/sun_aqbaaqeojrexbmcr.jpg,1,1,1.75,0,152,152,152,,,,,,,,,,,,,348.02112430000034,0.021124300000337826,5,1.941186299999572,374.6114972999994,374.6114972999994,374.6114972999994,374.6114972999994,374.6114972999994,374.6114972999994,375.5790017999998,376.3296610999996,374.6114972999994,374.6114972999994,005,P002,2025_Jan_18_0952,ConditionRich,2021.2.3,59.93665893873726,
351.75,352.0,41,0.0,Stimuli/Blank.png,0,0,0.0,0,153,153,153,,,,,,,,,,,,,351.7745500000001,0.024550000000090222,None,,378.3481178000002,378.3481178000002,378.3481178000002,378.3481178000002,378.3481178000002,378.3481178000002,378.3481178000002,378.3481178000002,378.3481178000002,378.3481178000002,005,P002,2025_Jan_18_0952,ConditionRich,2021.2.3,59.93665893873726,
352.0,355.75,13,0.75,Stimuli/P002/sun_bfdmlbkyioxnkodb.jpg,1,2,2.75,0,154,154,154,,,,,,,,,,,,,352.00850679999985,0.008506799999850045,1,2.7630842999997185,378.59836449999966,378.59836449999966,378.59836449999966,378.59836449999966,378.59836449999966,378.59836449999966,380.5667304999997,381.3173922999995,378.59836449999966,378.59836449999966,005,P002,2025_Jan_18_0952,ConditionRich,2021.2.3,59.93665893873726,
355.75,356.0,41,0.0,Stimuli/Blank.png,0,0,0.0,0,155,155,155,,,,,,,,,,,,,355.7784585999998,0.028458599999794387,5,0.20069209999928717,382.35165309999957,382.35165309999957,382.35165309999957,382.35165309999957,382.35165309999957,382.35165309999957,382.35165309999957,382.35165309999957,382.35165309999957,382.35165309999957,005,P002,2025_Jan_18_0952,ConditionRich,2021.2.3,59.93665893873726,
356.0,359.75,14,0.75,Stimuli/P002/sun_bfgxassmmvhtarcc.jpg,0,0,0.0,0,156,156,156,,,,,,,,,,,,,356.0113597999998,0.011359799999809184,5,1.9673347999996622,382.58517289999963,382.58517289999963,382.58517289999963,382.58517289999963,382.58517289999963,382.58517289999963,382.58517289999963,382.58517289999963,382.58517289999963,382.58517289999963,005,P002,2025_Jan_18_0952,ConditionRich,2021.2.3,59.93665893873726,
359.75,360.0,41,0.0,Stimuli/Blank.png,0,0,0.0,0,157,157,157,,,,,,,,,,,,,359.7647379,0.014737900000000081,5,0.2140254999994795,386.3384864999998,386.3384864999998,386.3384864999998,386.3384864999998,386.3384864999998,386.3384864999998,386.3384864999998,386.3384864999998,386.3384864999998,386.3384864999998,005,P002,2025_Jan_18_0952,ConditionRich,2021.2.3,59.93665893873726,
360.0,363.75,40,0.75,Stimuli/P002/things_worm_01b.jpg,0,0,0.0,0,158,158,158,,,,,,,,,,,,,360.01506100000006,0.015061000000059721,5,1.9470208000002458,386.6053974999995,386.6053974999995,386.6053974999995,386.6053974999995,386.6053974999995,386.6053974999995,386.6053974999995,386.6053974999995,386.6053974999995,386.6053974999995,005,P002,2025_Jan_18_0952,ConditionRich,2021.2.3,59.93665893873726,
363.75,364.0,41,0.0,Stimuli/Blank.png,0,0,0.0,0,159,159,159,,,,,,,,,,,,,363.7687138000001,0.018713800000114134,None,,390.34200619999956,390.34200619999956,390.34200619999956,390.34200619999956,390.34200619999956,390.34200619999956,390.34200619999956,390.34200619999956,390.34200619999956,390.34200619999956,005,P002,2025_Jan_18_0952,ConditionRich,2021.2.3,59.93665893873726,
364.0,367.75,16,0.75,Stimuli/P002/sun_biqyomkjbujnppuf.jpg,1,3,3.75,0,160,160,160,,,,,,,,,,,,,364.0043114,0.0043114000000059605,1,3.3352698000007877,390.59223029999976,390.59223029999976,390.59223029999976,390.59223029999976,390.59223029999976,390.59223029999976,393.57821799999965,394.32888079999975,390.59223029999976,390.59223029999976,005,P002,2025_Jan_18_0952,ConditionRich,2021.2.3,59.93665893873726,
367.75,368.0,41,0.0,Stimuli/Blank.png,0,0,0.0,0,161,161,161,,,,,,,,,,,,,367.77387629999976,0.023876299999756156,5,0.19012560000010126,394.36224109999966,394.36224109999966,394.36224109999966,394.36224109999966,394.36224109999966,394.36224109999966,394.36224109999966,394.36224109999966,394.36224109999966,394.36224109999966,005,P002,2025_Jan_18_0952,ConditionRich,2021.2.3,59.93665893873726,
368.0,371.75,12,0.75,Stimuli/P002/sun_bdxvmnlyovhqognn.jpg,0,0,0.0,0,162,162,162,,,,,,,,,,,,,368.0242472,0.0242471999999907,5,1.9402153999999427,394.6124251000001,394.6124251000001,394.6124251000001,394.6124251000001,394.6124251000001,394.6124251000001,394.6124251000001,394.6124251000001,394.6124251000001,394.6124251000001,005,P002,2025_Jan_18_0952,ConditionRich,2021.2.3,59.93665893873726,
371.75,372.0,41,0.0,Stimuli/Blank.png,0,0,0.0,0,163,163,163,,,,,,,,,,,,,371.7751368999998,0.025136899999779416,None,,398.3490528000002,398.3490528000002,398.3490528000002,398.3490528000002,398.3490528000002,398.3490528000002,398.3490528000002,398.3490528000002,398.3490528000002,398.3490528000002,005,P002,2025_Jan_18_0952,ConditionRich,2021.2.3,59.93665893873726,
372.0,388.0,0,0.0,Stimuli/Blank.png,1,4,4.75,0,164,164,164,,,,,,,,,,,,,372.0094251999999,0.009425199999895995,5,13.96979150000061,398.5825913999997,398.5825913999997,398.5825913999997,398.5825913999997,398.5825913999997,398.5825913999997,402.56942139999956,403.3201362,398.5825913999997,398.5825913999997,005,P002,2025_Jan_18_0952,ConditionRich,2021.2.3,59.93665893873726,
