eventStartTime,eventEndTime,eventCond,imSize,imFile,responseEvent,fixRespStart,fixRespEnd,Events.thisRepN,Events.thisTrialN,Events.thisN,Events.thisIndex,Instructions.started,Instructions.stopped,participantReadyResponse.keys,participantReadyResponse.rt,participantReadyResponse.started,participantReadyResponse.stopped,startWaitforTrigger,triggerResponse.keys,triggerResponse.rt,triggerResponse.started,triggerResponse.stopped,globalTimer,actualStartTime,startTimingDiff,participantResponse.keys,participantResponse.rt,participantResponse.started,participantResponse.stopped,image.started,image.stopped,fixationOutside.started,fixationOutside.stopped,fixationResponse.started,fixationResponse.stopped,fixationInside.started,fixationInside.stopped,session,participant,date,expName,psychopyVersion,frameRate,
,,,,,,,,,,,,13.977687000000515,None,1,9.548021999999946,13.977687000000515,None,,,,,,,,,,,,,,,,,,,,,008,P002,2025_Jan_18_1021,ConditionRich,2021.2.3,59.932743475418526,
,,,,,,,,,,,,,,,,,,23.534181199999693,5,14.250826899999993,23.54712380000001,None,,,,,,,,,,,,,,,,008,P002,2025_Jan_18_1021,ConditionRich,2021.2.3,59.932743475418526,
0.0,4.0,0,0.0,Stimuli/Blank.png,0,0,0.0,0,0,0,0,,,,,,,,,,,,37.81350879999991,0.033556100000168954,0.033556100000168954,5,3.9380058999995526,37.85968839999987,None,37.85968839999987,None,37.85968839999987,None,37.85968839999987,37.85968839999987,37.85968839999987,None,008,P002,2025_Jan_18_1021,ConditionRich,2021.2.3,59.932743475418526,
4.0,7.75,27,0.75,Stimuli/P002/things_dynamite_01b.jpg,0,0,0.0,0,1,1,1,,,,,,,,,,,,,4.003415799999857,0.003415799999856972,5,1.9674979000001258,41.83014439999988,41.83014439999988,41.83014439999988,41.83014439999988,41.83014439999988,41.83014439999988,41.83014439999988,41.83014439999988,41.83014439999988,41.83014439999988,008,P002,2025_Jan_18_1021,ConditionRich,2021.2.3,59.932743475418526,
7.75,8.0,41,0.0,Stimuli/Blank.png,0,0,0.0,0,2,2,2,,,,,,,,,,,,,7.755554899999879,0.005554899999879126,5,0.21433539999998175,45.58341130000008,45.58341130000008,45.58341130000008,45.58341130000008,45.58341130000008,45.58341130000008,45.58341130000008,45.58341130000008,45.58341130000008,45.58341130000008,008,P002,2025_Jan_18_1021,ConditionRich,2021.2.3,59.932743475418526,
8.0,11.75,32,0.75,Stimuli/P002/things_oyster_01b.jpg,0,0,0.0,0,3,3,3,,,,,,,,,,,,,8.005836600000293,0.0058366000002934015,5,1.9643464999999196,45.83338819999972,45.83338819999972,45.83338819999972,45.83338819999972,45.83338819999972,45.83338819999972,45.83338819999972,45.83338819999972,45.83338819999972,45.83338819999972,008,P002,2025_Jan_18_1021,ConditionRich,2021.2.3,59.932743475418526,
11.75,12.0,41,0.0,Stimuli/Blank.png,0,0,0.0,0,4,4,4,,,,,,,,,,,,,11.76128929999959,0.011289299999589275,5,0.19423679999999877,49.60337729999992,49.60337729999992,49.60337729999992,49.60337729999992,49.60337729999992,49.60337729999992,49.60337729999992,49.60337729999992,49.60337729999992,49.60337729999992,008,P002,2025_Jan_18_1021,ConditionRich,2021.2.3,59.932743475418526,
12.0,15.75,5,0.75,Stimuli/P002/sun_apwzcrxhvvnrexjh.jpg,0,0,0.0,0,5,5,5,,,,,,,,,,,,,12.02563259999988,0.025632599999880767,5,1.9441953000005014,49.85358350000024,49.85358350000024,49.85358350000024,49.85358350000024,49.85358350000024,49.85358350000024,49.85358350000024,49.85358350000024,49.85358350000024,49.85358350000024,008,P002,2025_Jan_18_1021,ConditionRich,2021.2.3,59.932743475418526,
15.75,16.0,41,0.0,Stimuli/Blank.png,0,0,0.0,0,6,6,6,,,,,,,,,,,,,15.762319999999818,0.01231999999981781,5,0.20757589999993797,53.59019999999964,53.59019999999964,53.59019999999964,53.59019999999964,53.59019999999964,53.59019999999964,53.59019999999964,53.59019999999964,53.59019999999964,53.59019999999964,008,P002,2025_Jan_18_1021,ConditionRich,2021.2.3,59.932743475418526,
16.0,19.75,30,0.75,Stimuli/P002/things_iguana_01b.jpg,1,2,2.75,0,7,7,7,,,,,,,,,,,,,16.01264160000028,0.01264160000027914,1,2.3014126999996734,53.85714480000024,53.85714480000024,53.85714480000024,53.85714480000024,53.85714480000024,53.85714480000024,55.82549800000015,56.57615950000036,53.85714480000024,53.85714480000024,008,P002,2025_Jan_18_1021,ConditionRich,2021.2.3,59.932743475418526,
19.75,20.0,41,0.0,Stimuli/Blank.png,0,0,0.0,0,8,8,8,,,,,,,,,,,,,19.76705729999958,0.01705729999957839,None,,57.593733200000315,57.593733200000315,57.593733200000315,57.593733200000315,57.593733200000315,57.593733200000315,57.593733200000315,57.593733200000315,57.593733200000315,57.593733200000315,008,P002,2025_Jan_18_1021,ConditionRich,2021.2.3,59.932743475418526,
20.0,23.75,6,0.75,Stimuli/P002/sun_aqbaaqeojrexbmcr.jpg,0,0,0.0,0,9,9,9,,,,,,,,,,,,,20.00044220000018,0.0004422000001795823,5,1.9537246999998388,57.843946300000425,57.843946300000425,57.843946300000425,57.843946300000425,57.843946300000425,57.843946300000425,57.843946300000425,57.843946300000425,57.843946300000425,57.843946300000425,008,P002,2025_Jan_18_1021,ConditionRich,2021.2.3,59.932743475418526,
23.75,24.0,41,0.0,Stimuli/Blank.png,0,0,0.0,0,10,10,10,,,,,,,,,,,,,23.771281600000293,0.02128160000029311,5,0.1838023999998768,61.61393920000046,61.61393920000046,61.61393920000046,61.61393920000046,61.61393920000046,61.61393920000046,61.61393920000046,61.61393920000046,61.61393920000046,61.61393920000046,008,P002,2025_Jan_18_1021,ConditionRich,2021.2.3,59.932743475418526,
24.0,27.75,40,0.75,Stimuli/P002/things_worm_01b.jpg,1,2,2.75,0,11,11,11,,,,,,,,,,,,,24.019648600000437,0.019648600000437,1,2.404361200000494,61.84747179999977,61.84747179999977,61.84747179999977,61.84747179999977,61.84747179999977,61.84747179999977,63.83255089999966,64.58321090000027,61.84747179999977,61.84747179999977,008,P002,2025_Jan_18_1021,ConditionRich,2021.2.3,59.932743475418526,
27.75,28.0,41,0.0,Stimuli/Blank.png,0,0,0.0,0,12,12,12,,,,,,,,,,,,,27.756050300000425,0.006050300000424613,5,0.21358479999980773,65.58409060000031,65.58409060000031,65.58409060000031,65.58409060000031,65.58409060000031,65.58409060000031,65.58409060000031,65.58409060000031,65.58409060000031,65.58409060000031,008,P002,2025_Jan_18_1021,ConditionRich,2021.2.3,59.932743475418526,
28.0,31.75,28,0.75,Stimuli/P002/things_girl_01b.jpg,0,0,0.0,0,13,13,13,,,,,,,,,,,,,28.00664119999965,0.006641199999648961,5,1.963258499999938,65.83431870000004,65.83431870000004,65.83431870000004,65.83431870000004,65.83431870000004,65.83431870000004,65.83431870000004,65.83431870000004,65.83431870000004,65.83431870000004,008,P002,2025_Jan_18_1021,ConditionRich,2021.2.3,59.932743475418526,
31.75,32.0,41,0.0,Stimuli/Blank.png,0,0,0.0,0,14,14,14,,,,,,,,,,,,,31.760062199999993,0.010062199999993027,5,0.20988669999951526,69.58761200000026,69.58761200000026,69.58761200000026,69.58761200000026,69.58761200000026,69.58761200000026,69.58761200000026,69.58761200000026,69.58761200000026,69.58761200000026,008,P002,2025_Jan_18_1021,ConditionRich,2021.2.3,59.932743475418526,
32.0,35.75,8,0.75,Stimuli/P002/sun_asqboyqakusycvwd.jpg,0,0,0.0,0,15,15,15,,,,,,,,,,,,,32.01023569999961,0.010235699999611825,5,1.9599104999997508,69.83783959999982,69.83783959999982,69.83783959999982,69.83783959999982,69.83783959999982,69.83783959999982,69.83783959999982,69.83783959999982,69.83783959999982,69.83783959999982,008,P002,2025_Jan_18_1021,ConditionRich,2021.2.3,59.932743475418526,
35.75,36.0,41,0.0,Stimuli/Blank.png,0,0,0.0,0,16,16,16,,,,,,,,,,,,,35.76464229999965,0.014642299999650277,5,0.20636580000063987,73.59113799999977,73.59113799999977,73.59113799999977,73.59113799999977,73.59113799999977,73.59113799999977,73.59113799999977,73.59113799999977,73.59113799999977,73.59113799999977,008,P002,2025_Jan_18_1021,ConditionRich,2021.2.3,59.932743475418526,
36.0,39.75,4,0.75,Stimuli/P002/sun_aonjwqswdblhlpkm.jpg,0,0,0.0,0,17,17,17,,,,,,,,,,,,,36.01387760000034,0.013877600000341772,5,1.956473499999447,73.84136109999963,73.84136109999963,73.84136109999963,73.84136109999963,73.84136109999963,73.84136109999963,73.84136109999963,73.84136109999963,73.84136109999963,73.84136109999963,008,P002,2025_Jan_18_1021,ConditionRich,2021.2.3,59.932743475418526,
39.75,40.0,41,0.0,Stimuli/Blank.png,0,0,0.0,0,18,18,18,,,,,,,,,,,,,39.750316399999974,0.0003163999999742373,None,,77.57801240000026,77.57801240000026,77.57801240000026,77.57801240000026,77.57801240000026,77.57801240000026,77.57801240000026,77.57801240000026,77.57801240000026,77.57801240000026,008,P002,2025_Jan_18_1021,ConditionRich,2021.2.3,59.932743475418526,
40.0,43.75,35,0.75,Stimuli/P002/things_pepperoni_01b.jpg,1,2,2.75,0,19,19,19,,,,,,,,,,,,,40.00070719999985,0.0007071999998515821,1,2.573787799999991,77.8282306000001,77.8282306000001,77.8282306000001,77.8282306000001,77.8282306000001,77.8282306000001,79.81324479999967,80.5639369999999,77.8282306000001,77.8282306000001,008,P002,2025_Jan_18_1021,ConditionRich,2021.2.3,59.932743475418526,
43.75,44.0,41,0.0,Stimuli/Blank.png,0,0,0.0,0,20,20,20,,,,,,,,,,,,,43.755645399999594,0.005645399999593792,5,0.19931070000075124,81.59818910000013,81.59818910000013,81.59818910000013,81.59818910000013,81.59818910000013,81.59818910000013,81.59818910000013,81.59818910000013,81.59818910000013,81.59818910000013,008,P002,2025_Jan_18_1021,ConditionRich,2021.2.3,59.932743475418526,
44.0,47.75,7,0.75,Stimuli/P002/sun_arlesyjqxmqmcccl.jpg,0,0,0.0,0,21,21,21,,,,,,,,,,,,,44.02089590000014,0.02089590000014141,5,1.9491561000004367,81.84840540000005,81.84840540000005,81.84840540000005,81.84840540000005,81.84840540000005,81.84840540000005,81.84840540000005,81.84840540000005,81.84840540000005,81.84840540000005,008,P002,2025_Jan_18_1021,ConditionRich,2021.2.3,59.932743475418526,
47.75,48.0,41,0.0,Stimuli/Blank.png,0,0,0.0,0,22,22,22,,,,,,,,,,,,,47.75687589999961,0.006875899999613466,5,0.21244900000056077,85.58505119999973,85.58505119999973,85.58505119999973,85.58505119999973,85.58505119999973,85.58505119999973,85.58505119999973,85.58505119999973,85.58505119999973,85.58505119999973,008,P002,2025_Jan_18_1021,ConditionRich,2021.2.3,59.932743475418526,
48.0,51.75,34,0.75,Stimuli/P002/things_parrot_01b.jpg,0,0,0.0,0,23,23,23,,,,,,,,,,,,,48.00755990000016,0.007559900000160269,5,1.9454968000000008,85.85194159999992,85.85194159999992,85.85194159999992,85.85194159999992,85.85194159999992,85.85194159999992,85.85194159999992,85.85194159999992,85.85194159999992,85.85194159999992,008,P002,2025_Jan_18_1021,ConditionRich,2021.2.3,59.932743475418526,
51.75,52.0,41,0.0,Stimuli/Blank.png,0,0,0.0,0,24,24,24,,,,,,,,,,,,,51.777108999999655,0.02710899999965477,5,0.19242469999971945,89.60522880000008,89.60522880000008,89.60522880000008,89.60522880000008,89.60522880000008,89.60522880000008,89.60522880000008,89.60522880000008,89.60522880000008,89.60522880000008,008,P002,2025_Jan_18_1021,ConditionRich,2021.2.3,59.932743475418526,
52.0,55.75,20,0.75,Stimuli/P002/sun_dkgctqgpvxbaoyks.jpg,0,0,0.0,0,25,25,25,,,,,,,,,,,,,52.01137870000002,0.011378700000022945,5,1.958756099999846,89.83876640000017,89.83876640000017,89.83876640000017,89.83876640000017,89.83876640000017,89.83876640000017,89.83876640000017,89.83876640000017,89.83876640000017,89.83876640000017,008,P002,2025_Jan_18_1021,ConditionRich,2021.2.3,59.932743475418526,
55.75,56.0,41,0.0,Stimuli/Blank.png,0,0,0.0,0,26,26,26,,,,,,,,,,,,,55.764168300000165,0.01416830000016489,5,0.20557560000088415,93.59212269999989,93.59212269999989,93.59212269999989,93.59212269999989,93.59212269999989,93.59212269999989,93.59212269999989,93.59212269999989,93.59212269999989,93.59212269999989,008,P002,2025_Jan_18_1021,ConditionRich,2021.2.3,59.932743475418526,
56.0,59.75,11,0.75,Stimuli/P002/sun_bbfdgdyeqdnadvvi.jpg,0,0,0.0,0,27,27,27,,,,,,,,,,,,,56.01449690000027,0.014496900000267487,5,1.9551244999993287,93.84229460000006,93.84229460000006,93.84229460000006,93.84229460000006,93.84229460000006,93.84229460000006,93.84229460000006,93.84229460000006,93.84229460000006,93.84229460000006,008,P002,2025_Jan_18_1021,ConditionRich,2021.2.3,59.932743475418526,
59.75,60.0,41,0.0,Stimuli/Blank.png,0,0,0.0,0,28,28,28,,,,,,,,,,,,,59.752104000000145,0.002104000000144879,None,,97.57899480000015,97.57899480000015,97.57899480000015,97.57899480000015,97.57899480000015,97.57899480000015,97.57899480000015,97.57899480000015,97.57899480000015,97.57899480000015,008,P002,2025_Jan_18_1021,ConditionRich,2021.2.3,59.932743475418526,
60.0,63.75,15,0.75,Stimuli/P002/sun_bfzoxbkvsfqxsyle.jpg,0,0,0.0,0,29,29,29,,,,,,,,,,,,,60.00182349999977,0.0018234999997730483,5,1.9683208999995259,97.82913180000014,97.82913180000014,97.82913180000014,97.82913180000014,97.82913180000014,97.82913180000014,97.82913180000014,97.82913180000014,97.82913180000014,97.82913180000014,008,P002,2025_Jan_18_1021,ConditionRich,2021.2.3,59.932743475418526,
63.75,64.0,41,0.0,Stimuli/Blank.png,0,0,0.0,0,30,30,30,,,,,,,,,,,,,63.75610549999965,0.0061054999996486,5,0.1984098000002632,101.59913549999965,101.59913549999965,101.59913549999965,101.59913549999965,101.59913549999965,101.59913549999965,101.59913549999965,101.59913549999965,101.59913549999965,101.59913549999965,008,P002,2025_Jan_18_1021,ConditionRich,2021.2.3,59.932743475418526,
64.0,67.75,33,0.75,Stimuli/P002/things_pan_01b.jpg,0,0,0.0,0,31,31,31,,,,,,,,,,,,,64.02122599999984,0.021225999999842315,5,1.94812599999932,101.84933830000045,101.84933830000045,101.84933830000045,101.84933830000045,101.84933830000045,101.84933830000045,101.84933830000045,101.84933830000045,101.84933830000045,101.84933830000045,008,P002,2025_Jan_18_1021,ConditionRich,2021.2.3,59.932743475418526,
67.75,68.0,41,0.0,Stimuli/Blank.png,0,0,0.0,0,32,32,32,,,,,,,,,,,,,67.7612452000003,0.011245200000303157,5,0.19472989999940182,105.60273099999995,105.60273099999995,105.60273099999995,105.60273099999995,105.60273099999995,105.60273099999995,105.60273099999995,105.60273099999995,105.60273099999995,105.60273099999995,008,P002,2025_Jan_18_1021,ConditionRich,2021.2.3,59.932743475418526,
68.0,71.75,23,0.75,Stimuli/P002/things_chick_01b.jpg,0,0,0.0,0,33,33,33,,,,,,,,,,,,,68.02515029999995,0.02515029999995022,5,1.9445243000000119,105.85285939999994,105.85285939999994,105.85285939999994,105.85285939999994,105.85285939999994,105.85285939999994,105.85285939999994,105.85285939999994,105.85285939999994,105.85285939999994,008,P002,2025_Jan_18_1021,ConditionRich,2021.2.3,59.932743475418526,
71.75,72.0,41,0.0,Stimuli/Blank.png,0,0,0.0,0,34,34,34,,,,,,,,,,,,,71.76227300000028,0.012273000000277534,5,0.20797500000026048,109.58948070000042,109.58948070000042,109.58948070000042,109.58948070000042,109.58948070000042,109.58948070000042,109.58948070000042,109.58948070000042,109.58948070000042,109.58948070000042,008,P002,2025_Jan_18_1021,ConditionRich,2021.2.3,59.932743475418526,
72.0,75.75,22,0.75,Stimuli/P002/things_boy_01b.jpg,1,2,2.75,0,35,35,35,,,,,,,,,,,,,72.0115353000001,0.011535300000105053,1,2.3887181999998575,109.83970399999998,109.83970399999998,109.83970399999998,109.83970399999998,109.83970399999998,109.83970399999998,111.8247749000002,112.57541889999993,109.83970399999998,109.83970399999998,008,P002,2025_Jan_18_1021,ConditionRich,2021.2.3,59.932743475418526,
75.75,76.0,41,0.0,Stimuli/Blank.png,0,0,0.0,0,36,36,36,,,,,,,,,,,,,75.76608039999974,0.016080399999736983,None,,113.59301680000044,113.59301680000044,113.59301680000044,113.59301680000044,113.59301680000044,113.59301680000044,113.59301680000044,113.59301680000044,113.59301680000044,113.59301680000044,008,P002,2025_Jan_18_1021,ConditionRich,2021.2.3,59.932743475418526,
76.0,79.75,1,0.75,Stimuli/P002/sun_agpgdwkhzgvzdaea.jpg,0,0,0.0,0,37,37,37,,,,,,,,,,,,,75.99874470000032,-0.0012552999996842118,5,1.971104500000365,113.82654720000028,113.82654720000028,113.82654720000028,113.82654720000028,113.82654720000028,113.82654720000028,113.82654720000028,113.82654720000028,113.82654720000028,113.82654720000028,008,P002,2025_Jan_18_1021,ConditionRich,2021.2.3,59.932743475418526,
79.75,80.0,41,0.0,Stimuli/Blank.png,0,0,0.0,0,38,38,38,,,,,,,,,,,,,79.75272949999999,0.0027294999999867287,5,0.21749449999970238,117.57991560000028,117.57991560000028,117.57991560000028,117.57991560000028,117.57991560000028,117.57991560000028,117.57991560000028,117.57991560000028,117.57991560000028,117.57991560000028,008,P002,2025_Jan_18_1021,ConditionRich,2021.2.3,59.932743475418526,
80.0,83.75,9,0.75,Stimuli/P002/sun_awtltwwpwbepuuqv.jpg,0,0,0.0,0,39,39,39,,,,,,,,,,,,,80.00183290000041,0.0018329000004086993,5,1.9673110000003362,117.83006879999994,117.83006879999994,117.83006879999994,117.83006879999994,117.83006879999994,117.83006879999994,117.83006879999994,117.83006879999994,117.83006879999994,117.83006879999994,008,P002,2025_Jan_18_1021,ConditionRich,2021.2.3,59.932743475418526,
83.75,84.0,41,0.0,Stimuli/Blank.png,0,0,0.0,0,40,40,40,,,,,,,,,,,,,83.75591079999958,0.005910799999583105,5,0.2141117999999551,121.5833859000004,121.5833859000004,121.5833859000004,121.5833859000004,121.5833859000004,121.5833859000004,121.5833859000004,121.5833859000004,121.5833859000004,121.5833859000004,008,P002,2025_Jan_18_1021,ConditionRich,2021.2.3,59.932743475418526,
84.0,100.0,0,0.0,Stimuli/Blank.png,1,1,1.75,0,41,41,41,,,,,,,,,,,,,84.0057225999999,0.005722599999899103,5,15.963756299999659,121.83359410000048,121.83359410000048,121.83359410000048,121.83359410000048,121.83359410000048,121.83359410000048,122.81777750000037,123.56866450000052,121.83359410000048,121.83359410000048,008,P002,2025_Jan_18_1021,ConditionRich,2021.2.3,59.932743475418526,
100.0,103.75,12,0.75,Stimuli/P002/sun_bdxvmnlyovhqognn.jpg,0,0,0.0,0,42,42,42,,,,,,,,,,,,,100.00309319999997,0.0030931999999666004,5,1.9662658000006559,137.83100000000013,137.83100000000013,137.83100000000013,137.83100000000013,137.83100000000013,137.83100000000013,137.83100000000013,137.83100000000013,137.83100000000013,137.83100000000013,008,P002,2025_Jan_18_1021,ConditionRich,2021.2.3,59.932743475418526,
103.75,104.0,41,0.0,Stimuli/Blank.png,0,0,0.0,0,43,43,43,,,,,,,,,,,,,103.75662569999986,0.006625699999858625,5,0.21311059999970894,141.58430490000046,141.58430490000046,141.58430490000046,141.58430490000046,141.58430490000046,141.58430490000046,141.58430490000046,141.58430490000046,141.58430490000046,141.58430490000046,008,P002,2025_Jan_18_1021,ConditionRich,2021.2.3,59.932743475418526,
104.0,107.75,26,0.75,Stimuli/P002/things_dish_01b.jpg,0,0,0.0,0,44,44,44,,,,,,,,,,,,,104.0064427999996,0.006442799999604176,5,1.9626060000000507,141.83464360000016,141.83464360000016,141.83464360000016,141.83464360000016,141.83464360000016,141.83464360000016,141.83464360000016,141.83464360000016,141.83464360000016,141.83464360000016,008,P002,2025_Jan_18_1021,ConditionRich,2021.2.3,59.932743475418526,
107.75,108.0,41,0.0,Stimuli/Blank.png,0,0,0.0,0,45,45,45,,,,,,,,,,,,,107.7607767999998,0.010776799999803188,5,0.20969519999925978,145.58783829999993,145.58783829999993,145.58783829999993,145.58783829999993,145.58783829999993,145.58783829999993,145.58783829999993,145.58783829999993,145.58783829999993,145.58783829999993,008,P002,2025_Jan_18_1021,ConditionRich,2021.2.3,59.932743475418526,
108.0,111.75,25,0.75,Stimuli/P002/things_curry_01b.jpg,0,0,0.0,0,46,46,46,,,,,,,,,,,,,108.01044829999955,0.010448299999552546,5,1.9594404999998005,145.83804520000012,145.83804520000012,145.83804520000012,145.83804520000012,145.83804520000012,145.83804520000012,145.83804520000012,145.83804520000012,145.83804520000012,145.83804520000012,008,P002,2025_Jan_18_1021,ConditionRich,2021.2.3,59.932743475418526,
111.75,112.0,41,0.0,Stimuli/Blank.png,0,0,0.0,0,47,47,47,,,,,,,,,,,,,111.7640879999999,0.014087999999901513,5,0.20598100000006525,149.59134600000016,149.59134600000016,149.59134600000016,149.59134600000016,149.59134600000016,149.59134600000016,149.59134600000016,149.59134600000016,149.59134600000016,149.59134600000016,008,P002,2025_Jan_18_1021,ConditionRich,2021.2.3,59.932743475418526,
112.0,115.75,37,0.75,Stimuli/P002/things_starfish_01b.jpg,0,0,0.0,0,48,48,48,,,,,,,,,,,,,112.01442789999965,0.014427899999645888,5,1.95569500000056,149.84156619999976,149.84156619999976,149.84156619999976,149.84156619999976,149.84156619999976,149.84156619999976,149.84156619999976,149.84156619999976,149.84156619999976,149.84156619999976,008,P002,2025_Jan_18_1021,ConditionRich,2021.2.3,59.932743475418526,
115.75,116.0,41,0.0,Stimuli/Blank.png,0,0,0.0,0,49,49,49,,,,,,,,,,,,,115.75101189999987,0.0010118999998667277,None,,153.57820110000011,153.57820110000011,153.57820110000011,153.57820110000011,153.57820110000011,153.57820110000011,153.57820110000011,153.57820110000011,153.57820110000011,153.57820110000011,008,P002,2025_Jan_18_1021,ConditionRich,2021.2.3,59.932743475418526,
116.0,119.75,14,0.75,Stimuli/P002/sun_bfgxassmmvhtarcc.jpg,1,2,2.75,0,50,50,50,,,,,,,,,,,,,116.00061490000007,0.0006149000000732485,1,2.3538385000001654,153.82841160000044,153.82841160000044,153.82841160000044,153.82841160000044,153.82841160000044,153.82841160000044,155.8134903,156.56418870000016,153.82841160000044,153.82841160000044,008,P002,2025_Jan_18_1021,ConditionRich,2021.2.3,59.932743475418526,
119.75,120.0,41,0.0,Stimuli/Blank.png,0,0,0.0,0,51,51,51,,,,,,,,,,,,,119.75469460000022,0.004694600000220817,5,0.21550389999993058,157.5817208999997,157.5817208999997,157.5817208999997,157.5817208999997,157.5817208999997,157.5817208999997,157.5817208999997,157.5817208999997,157.5817208999997,157.5817208999997,008,P002,2025_Jan_18_1021,ConditionRich,2021.2.3,59.932743475418526,
120.0,123.75,17,0.75,Stimuli/P002/sun_bshgmgbmpvjkxfis.jpg,1,2,2.75,0,52,52,52,,,,,,,,,,,,,120.0045710000004,0.004571000000396452,1,2.4003248999997595,157.83193440000014,157.83193440000014,157.83193440000014,157.83193440000014,157.83193440000014,157.83193440000014,159.8172443000003,160.56766849999985,157.83193440000014,157.83193440000014,008,P002,2025_Jan_18_1021,ConditionRich,2021.2.3,59.932743475418526,
123.75,124.0,41,0.0,Stimuli/Blank.png,0,0,0.0,0,53,53,53,,,,,,,,,,,,,123.75798599999962,0.007985999999618798,5,0.2120230000000447,161.58525199999985,161.58525199999985,161.58525199999985,161.58525199999985,161.58525199999985,161.58525199999985,161.58525199999985,161.58525199999985,161.58525199999985,161.58525199999985,008,P002,2025_Jan_18_1021,ConditionRich,2021.2.3,59.932743475418526,
124.0,127.75,18,0.75,Stimuli/P002/sun_bzjegfvyrvqtunza.jpg,0,0,0.0,0,54,54,54,,,,,,,,,,,,,124.00753439999971,0.0075343999997130595,5,1.9452495999994426,161.85215059999973,161.85215059999973,161.85215059999973,161.85215059999973,161.85215059999973,161.85215059999973,161.85215059999973,161.85215059999973,161.85215059999973,161.85215059999973,008,P002,2025_Jan_18_1021,ConditionRich,2021.2.3,59.932743475418526,
127.75,128.0,41,0.0,Stimuli/Blank.png,0,0,0.0,0,55,55,55,,,,,,,,,,,,,127.77796810000018,0.02796810000018013,5,0.19220239999958721,165.60543830000006,165.60543830000006,165.60543830000006,165.60543830000006,165.60543830000006,165.60543830000006,165.60543830000006,165.60543830000006,165.60543830000006,165.60543830000006,008,P002,2025_Jan_18_1021,ConditionRich,2021.2.3,59.932743475418526,
128.0,131.75,13,0.75,Stimuli/P002/sun_bfdmlbkyioxnkodb.jpg,0,0,0.0,0,56,56,56,,,,,,,,,,,,,128.0112740000004,0.011274000000412343,5,1.9415275000001202,165.85567869999977,165.85567869999977,165.85567869999977,165.85567869999977,165.85567869999977,165.85567869999977,165.85567869999977,165.85567869999977,165.85567869999977,165.85567869999977,008,P002,2025_Jan_18_1021,ConditionRich,2021.2.3,59.932743475418526,
131.75,132.0,41,0.0,Stimuli/Blank.png,0,0,0.0,0,57,57,57,,,,,,,,,,,,,131.78117660000044,0.031176600000435428,5,0.1885455000001457,169.60895989999972,169.60895989999972,169.60895989999972,169.60895989999972,169.60895989999972,169.60895989999972,169.60895989999972,169.60895989999972,169.60895989999972,169.60895989999972,008,P002,2025_Jan_18_1021,ConditionRich,2021.2.3,59.932743475418526,
132.0,135.75,2,0.75,Stimuli/P002/sun_akmxsxepquhynflp.jpg,0,0,0.0,0,58,58,58,,,,,,,,,,,,,132.01447029999963,0.014470299999629788,5,1.9549493999993501,169.8425057000004,169.8425057000004,169.8425057000004,169.8425057000004,169.8425057000004,169.8425057000004,169.8425057000004,169.8425057000004,169.8425057000004,169.8425057000004,008,P002,2025_Jan_18_1021,ConditionRich,2021.2.3,59.932743475418526,
135.75,136.0,41,0.0,Stimuli/Blank.png,0,0,0.0,0,59,59,59,,,,,,,,,,,,,135.7515602000003,0.0015602000003127614,5,0.2180767999998352,173.57912620000025,173.57912620000025,173.57912620000025,173.57912620000025,173.57912620000025,173.57912620000025,173.57912620000025,173.57912620000025,173.57912620000025,173.57912620000025,008,P002,2025_Jan_18_1021,ConditionRich,2021.2.3,59.932743475418526,
136.0,139.75,24,0.75,Stimuli/P002/things_cornucopia_01b.jpg,1,0,0.75,0,60,60,60,,,,,,,,,,,,,136.00175209999998,0.0017520999999760534,5,1.9678464999997232,173.8293432999999,173.8293432999999,173.8293432999999,173.8293432999999,173.8293432999999,173.8293432999999,173.8293432999999,174.56331219999993,173.8293432999999,173.8293432999999,008,P002,2025_Jan_18_1021,ConditionRich,2021.2.3,59.932743475418526,
139.75,140.0,41,0.0,Stimuli/Blank.png,0,0,0.0,0,61,61,61,,,,,,,,,,,,,139.75497559999985,0.00497559999985242,5,0.21463039999980538,177.58264450000024,177.58264450000024,177.58264450000024,177.58264450000024,177.58264450000024,177.58264450000024,177.58264450000024,177.58264450000024,177.58264450000024,177.58264450000024,008,P002,2025_Jan_18_1021,ConditionRich,2021.2.3,59.932743475418526,
140.0,143.75,21,0.75,Stimuli/P002/things_baby_01b.jpg,0,0,0.0,0,62,62,62,,,,,,,,,,,,,140.00524599999972,0.005245999999715423,5,1.964255000000776,177.8328674000004,177.8328674000004,177.8328674000004,177.8328674000004,177.8328674000004,177.8328674000004,177.8328674000004,177.8328674000004,177.8328674000004,177.8328674000004,008,P002,2025_Jan_18_1021,ConditionRich,2021.2.3,59.932743475418526,
143.75,144.0,41,0.0,Stimuli/Blank.png,0,0,0.0,0,63,63,63,,,,,,,,,,,,,143.7596665000001,0.009666500000093947,5,0.2110233999992488,181.5861743000005,181.5861743000005,181.5861743000005,181.5861743000005,181.5861743000005,181.5861743000005,181.5861743000005,181.5861743000005,181.5861743000005,181.5861743000005,008,P002,2025_Jan_18_1021,ConditionRich,2021.2.3,59.932743475418526,
144.0,147.75,39,0.75,Stimuli/P002/things_woman_01b.jpg,1,0,0.75,0,64,64,64,,,,,,,,,,,,,144.00834209999994,0.008342099999936181,5,1.9609153999999762,181.83639330000005,181.83639330000005,181.83639330000005,181.83639330000005,181.83639330000005,181.83639330000005,181.83639330000005,182.57041089999984,181.83639330000005,181.83639330000005,008,P002,2025_Jan_18_1021,ConditionRich,2021.2.3,59.932743475418526,
147.75,148.0,41,0.0,Stimuli/Blank.png,0,0,0.0,0,65,65,65,,,,,,,,,,,,,147.76238879999983,0.012388799999826006,5,0.20763710000028368,185.58969780000007,185.58969780000007,185.58969780000007,185.58969780000007,185.58969780000007,185.58969780000007,185.58969780000007,185.58969780000007,185.58969780000007,185.58969780000007,008,P002,2025_Jan_18_1021,ConditionRich,2021.2.3,59.932743475418526,
148.0,151.75,29,0.75,Stimuli/P002/things_grinder_01b.jpg,0,0,0.0,0,66,66,66,,,,,,,,,,,,,148.01276359999974,0.012763599999743747,5,1.9407454000001962,185.85661470000014,185.85661470000014,185.85661470000014,185.85661470000014,185.85661470000014,185.85661470000014,185.85661470000014,185.85661470000014,185.85661470000014,185.85661470000014,008,P002,2025_Jan_18_1021,ConditionRich,2021.2.3,59.932743475418526,
151.75,152.0,41,0.0,Stimuli/Blank.png,0,0,0.0,0,67,67,67,,,,,,,,,,,,,151.76589140000033,0.01589140000032785,None,,189.5932187999997,189.5932187999997,189.5932187999997,189.5932187999997,189.5932187999997,189.5932187999997,189.5932187999997,189.5932187999997,189.5932187999997,189.5932187999997,008,P002,2025_Jan_18_1021,ConditionRich,2021.2.3,59.932743475418526,
152.0,155.75,38,0.75,Stimuli/P002/things_windowsill_01b.jpg,0,0,0.0,0,68,68,68,,,,,,,,,,,,,151.9995799999997,-0.000420000000303844,5,1.9536667000002126,189.84343660000013,189.84343660000013,189.84343660000013,189.84343660000013,189.84343660000013,189.84343660000013,189.84343660000013,189.84343660000013,189.84343660000013,189.84343660000013,008,P002,2025_Jan_18_1021,ConditionRich,2021.2.3,59.932743475418526,
155.75,156.0,41,0.0,Stimuli/Blank.png,0,0,0.0,0,69,69,69,,,,,,,,,,,,,155.77080409999962,0.02080409999962285,5,0.18387499999971624,193.6134278999998,193.6134278999998,193.6134278999998,193.6134278999998,193.6134278999998,193.6134278999998,193.6134278999998,193.6134278999998,193.6134278999998,193.6134278999998,008,P002,2025_Jan_18_1021,ConditionRich,2021.2.3,59.932743475418526,
156.0,159.75,31,0.75,Stimuli/P002/things_man_01b.jpg,1,2,2.75,0,70,70,70,,,,,,,,,,,,,156.0194373000004,0.019437300000390678,1,2.4012233000003107,193.8469844000001,193.8469844000001,193.8469844000001,193.8469844000001,193.8469844000001,193.8469844000001,195.8320429000005,196.5826993999999,193.8469844000001,193.8469844000001,008,P002,2025_Jan_18_1021,ConditionRich,2021.2.3,59.932743475418526,
159.75,160.0,41,0.0,Stimuli/Blank.png,0,0,0.0,0,71,71,71,,,,,,,,,,,,,159.7557813000003,0.005781300000307965,5,0.21347900000000664,197.5835861000005,197.5835861000005,197.5835861000005,197.5835861000005,197.5835861000005,197.5835861000005,197.5835861000005,197.5835861000005,197.5835861000005,197.5835861000005,008,P002,2025_Jan_18_1021,ConditionRich,2021.2.3,59.932743475418526,
160.0,163.75,36,0.75,Stimuli/P002/things_stalagmite_01b.jpg,0,0,0.0,0,72,72,72,,,,,,,,,,,,,160.00583279999955,0.0058327999995526625,5,1.9632581999994727,197.8337991999997,197.8337991999997,197.8337991999997,197.8337991999997,197.8337991999997,197.8337991999997,197.8337991999997,197.8337991999997,197.8337991999997,197.8337991999997,008,P002,2025_Jan_18_1021,ConditionRich,2021.2.3,59.932743475418526,
163.75,164.0,41,0.0,Stimuli/Blank.png,0,0,0.0,0,73,73,73,,,,,,,,,,,,,163.75961780000034,0.009617800000341958,5,0.2099439000003258,201.5871059000001,201.5871059000001,201.5871059000001,201.5871059000001,201.5871059000001,201.5871059000001,201.5871059000001,201.5871059000001,201.5871059000001,201.5871059000001,008,P002,2025_Jan_18_1021,ConditionRich,2021.2.3,59.932743475418526,
164.0,167.75,19,0.75,Stimuli/P002/sun_bzyyqqczvrnvukdn.jpg,0,0,0.0,0,74,74,74,,,,,,,,,,,,,164.00985899999978,0.009858999999778462,5,1.959918800000196,201.83732839999993,201.83732839999993,201.83732839999993,201.83732839999993,201.83732839999993,201.83732839999993,201.83732839999993,201.83732839999993,201.83732839999993,201.83732839999993,008,P002,2025_Jan_18_1021,ConditionRich,2021.2.3,59.932743475418526,
167.75,168.0,41,0.0,Stimuli/Blank.png,0,0,0.0,0,75,75,75,,,,,,,,,,,,,167.76276940000025,0.012769400000252062,5,0.20673859999988053,205.59063030000016,205.59063030000016,205.59063030000016,205.59063030000016,205.59063030000016,205.59063030000016,205.59063030000016,205.59063030000016,205.59063030000016,205.59063030000016,008,P002,2025_Jan_18_1021,ConditionRich,2021.2.3,59.932743475418526,
168.0,171.75,16,0.75,Stimuli/P002/sun_biqyomkjbujnppuf.jpg,0,0,0.0,0,76,76,76,,,,,,,,,,,,,168.0135620000001,0.013562000000092667,5,1.9565000000002328,205.84084189999976,205.84084189999976,205.84084189999976,205.84084189999976,205.84084189999976,205.84084189999976,205.84084189999976,205.84084189999976,205.84084189999976,205.84084189999976,008,P002,2025_Jan_18_1021,ConditionRich,2021.2.3,59.932743475418526,
171.75,172.0,41,0.0,Stimuli/Blank.png,0,0,0.0,0,77,77,77,,,,,,,,,,,,,171.75005909999982,5.909999981668079e-05,None,,209.57747420000032,209.57747420000032,209.57747420000032,209.57747420000032,209.57747420000032,209.57747420000032,209.57747420000032,209.57747420000032,209.57747420000032,209.57747420000032,008,P002,2025_Jan_18_1021,ConditionRich,2021.2.3,59.932743475418526,
172.0,175.75,3,0.75,Stimuli/P002/sun_amarqtinchblqmah.jpg,0,0,0.0,0,78,78,78,,,,,,,,,,,,,171.9997530999999,-0.0002469000000928645,5,1.9694736000001285,209.82769319999989,209.82769319999989,209.82769319999989,209.82769319999989,209.82769319999989,209.82769319999989,209.82769319999989,209.82769319999989,209.82769319999989,209.82769319999989,008,P002,2025_Jan_18_1021,ConditionRich,2021.2.3,59.932743475418526,
175.75,176.0,41,0.0,Stimuli/Blank.png,0,0,0.0,0,79,79,79,,,,,,,,,,,,,175.75373659999968,0.0037365999996836763,5,0.21605300000010175,213.58099200000015,213.58099200000015,213.58099200000015,213.58099200000015,213.58099200000015,213.58099200000015,213.58099200000015,213.58099200000015,213.58099200000015,213.58099200000015,008,P002,2025_Jan_18_1021,ConditionRich,2021.2.3,59.932743475418526,
176.0,179.75,10,0.75,Stimuli/P002/sun_aykefnhciwsffcrj.jpg,0,0,0.0,0,80,80,80,,,,,,,,,,,,,176.0061771999999,0.006177199999910954,5,1.9491650999998456,213.8478987999997,213.8478987999997,213.8478987999997,213.8478987999997,213.8478987999997,213.8478987999997,213.8478987999997,213.8478987999997,213.8478987999997,213.8478987999997,008,P002,2025_Jan_18_1021,ConditionRich,2021.2.3,59.932743475418526,
179.75,180.0,41,0.0,Stimuli/Blank.png,0,0,0.0,0,81,81,81,,,,,,,,,,,,,179.77618840000014,0.026188400000137335,5,0.17925650000051974,217.61788369999977,217.61788369999977,217.61788369999977,217.61788369999977,217.61788369999977,217.61788369999977,217.61788369999977,217.61788369999977,217.61788369999977,217.61788369999977,008,P002,2025_Jan_18_1021,ConditionRich,2021.2.3,59.932743475418526,
180.0,196.0,0,0.0,Stimuli/Blank.png,1,6,6.75,0,82,82,82,,,,,,,,,,,,,180.02549809999982,0.025498099999822443,5,15.92897400000038,217.86811209999996,217.86811209999996,217.86811209999996,217.86811209999996,217.86811209999996,217.86811209999996,223.8400646,224.5907186000004,217.86811209999996,217.86811209999996,008,P002,2025_Jan_18_1021,ConditionRich,2021.2.3,59.932743475418526,
196.0,199.75,4,0.75,Stimuli/P002/sun_aonjwqswdblhlpkm.jpg,1,3,3.75,0,83,83,83,,,,,,,,,,,,,196.02126800000042,0.021268000000418397,1,3.3803193000003375,233.84882639999978,233.84882639999978,233.84882639999978,233.84882639999978,233.84882639999978,233.84882639999978,236.8348302000004,None,233.84882639999978,233.84882639999978,008,P002,2025_Jan_18_1021,ConditionRich,2021.2.3,59.932743475418526,
199.75,200.0,41,0.0,Stimuli/Blank.png,0,0,0.0,0,84,84,84,,,,,,,,,,,,,199.75830179999957,0.008301799999571813,5,0.21253969999997935,237.58546529999967,237.58546529999967,237.58546529999967,237.58546529999967,237.58546529999967,237.58546529999967,237.58546529999967,237.58546529999967,237.58546529999967,237.58546529999967,008,P002,2025_Jan_18_1021,ConditionRich,2021.2.3,59.932743475418526,
200.0,203.75,8,0.75,Stimuli/P002/sun_asqboyqakusycvwd.jpg,1,3,3.75,0,85,85,85,,,,,,,,,,,,,200.00776940000014,0.007769400000142923,1,3.3503126999994493,237.835685,237.835685,237.835685,237.835685,237.835685,237.835685,240.8216398000004,241.5723054,237.835685,237.835685,008,P002,2025_Jan_18_1021,ConditionRich,2021.2.3,59.932743475418526,
203.75,204.0,41,0.0,Stimuli/Blank.png,0,0,0.0,0,86,86,86,,,,,,,,,,,,,203.76177610000013,0.011776100000133738,5,0.2091406999998071,241.58897530000013,241.58897530000013,241.58897530000013,241.58897530000013,241.58897530000013,241.58897530000013,241.58897530000013,241.58897530000013,241.58897530000013,241.58897530000013,008,P002,2025_Jan_18_1021,ConditionRich,2021.2.3,59.932743475418526,
204.0,207.75,9,0.75,Stimuli/P002/sun_awtltwwpwbepuuqv.jpg,0,0,0.0,0,87,87,87,,,,,,,,,,,,,204.01120830000036,0.011208300000362215,5,1.9588098999993235,241.83919400000013,241.83919400000013,241.83919400000013,241.83919400000013,241.83919400000013,241.83919400000013,241.83919400000013,241.83919400000013,241.83919400000013,241.83919400000013,008,P002,2025_Jan_18_1021,ConditionRich,2021.2.3,59.932743475418526,
207.75,208.0,41,0.0,Stimuli/Blank.png,0,0,0.0,0,88,88,88,,,,,,,,,,,,,207.76550210000005,0.015502100000048813,None,,245.59250410000004,245.59250410000004,245.59250410000004,245.59250410000004,245.59250410000004,245.59250410000004,245.59250410000004,245.59250410000004,245.59250410000004,245.59250410000004,008,P002,2025_Jan_18_1021,ConditionRich,2021.2.3,59.932743475418526,
208.0,211.75,40,0.75,Stimuli/P002/things_worm_01b.jpg,0,0,0.0,0,89,89,89,,,,,,,,,,,,,208.0009301,0.0009301000000050408,5,1.9552960000000894,245.84272560000045,245.84272560000045,245.84272560000045,245.84272560000045,245.84272560000045,245.84272560000045,245.84272560000045,245.84272560000045,245.84272560000045,245.84272560000045,008,P002,2025_Jan_18_1021,ConditionRich,2021.2.3,59.932743475418526,
211.75,212.0,41,0.0,Stimuli/Blank.png,0,0,0.0,0,90,90,90,,,,,,,,,,,,,211.76943430000028,0.019434300000284566,None,,249.59602470000027,249.59602470000027,249.59602470000027,249.59602470000027,249.59602470000027,249.59602470000027,249.59602470000027,249.59602470000027,249.59602470000027,249.59602470000027,008,P002,2025_Jan_18_1021,ConditionRich,2021.2.3,59.932743475418526,
212.0,215.75,16,0.75,Stimuli/P002/sun_biqyomkjbujnppuf.jpg,0,0,0.0,0,91,91,91,,,,,,,,,,,,,212.00229200000012,0.002292000000124972,5,1.951663599999847,249.84625239999968,249.84625239999968,249.84625239999968,249.84625239999968,249.84625239999968,249.84625239999968,249.84625239999968,249.84625239999968,249.84625239999968,249.84625239999968,008,P002,2025_Jan_18_1021,ConditionRich,2021.2.3,59.932743475418526,
215.75,216.0,41,0.0,Stimuli/Blank.png,0,0,0.0,0,92,92,92,,,,,,,,,,,,,215.77199420000034,0.021994200000335695,5,0.19847120000031282,253.5995423000004,253.5995423000004,253.5995423000004,253.5995423000004,253.5995423000004,253.5995423000004,253.5995423000004,253.5995423000004,253.5995423000004,253.5995423000004,008,P002,2025_Jan_18_1021,ConditionRich,2021.2.3,59.932743475418526,
216.0,219.75,34,0.75,Stimuli/P002/things_parrot_01b.jpg,0,0,0.0,0,93,93,93,,,,,,,,,,,,,216.0058343999999,0.005834399999912421,5,1.96485389999998,253.8330850000002,253.8330850000002,253.8330850000002,253.8330850000002,253.8330850000002,253.8330850000002,253.8330850000002,253.8330850000002,253.8330850000002,253.8330850000002,008,P002,2025_Jan_18_1021,ConditionRich,2021.2.3,59.932743475418526,
219.75,220.0,41,0.0,Stimuli/Blank.png,0,0,0.0,0,94,94,94,,,,,,,,,,,,,219.76103330000024,0.011033300000235613,5,0.19485989999975573,257.60307040000043,257.60307040000043,257.60307040000043,257.60307040000043,257.60307040000043,257.60307040000043,257.60307040000043,257.60307040000043,257.60307040000043,257.60307040000043,008,P002,2025_Jan_18_1021,ConditionRich,2021.2.3,59.932743475418526,
220.0,223.75,25,0.75,Stimuli/P002/things_curry_01b.jpg,0,0,0.0,0,95,95,95,,,,,,,,,,,,,220.02557549999983,0.025575499999831663,5,1.9446336999999403,257.85329639999964,257.85329639999964,257.85329639999964,257.85329639999964,257.85329639999964,257.85329639999964,257.85329639999964,257.85329639999964,257.85329639999964,257.85329639999964,008,P002,2025_Jan_18_1021,ConditionRich,2021.2.3,59.932743475418526,
223.75,224.0,41,0.0,Stimuli/Blank.png,0,0,0.0,0,96,96,96,,,,,,,,,,,,,223.7628907999997,0.012890799999695446,5,0.2080885000004855,261.5899212000004,261.5899212000004,261.5899212000004,261.5899212000004,261.5899212000004,261.5899212000004,261.5899212000004,261.5899212000004,261.5899212000004,261.5899212000004,008,P002,2025_Jan_18_1021,ConditionRich,2021.2.3,59.932743475418526,
224.0,227.75,36,0.75,Stimuli/P002/things_stalagmite_01b.jpg,0,0,0.0,0,97,97,97,,,,,,,,,,,,,224.01230570000007,0.012305700000069919,5,1.9580382000003738,261.8401210000002,261.8401210000002,261.8401210000002,261.8401210000002,261.8401210000002,261.8401210000002,261.8401210000002,261.8401210000002,261.8401210000002,261.8401210000002,008,P002,2025_Jan_18_1021,ConditionRich,2021.2.3,59.932743475418526,
227.75,228.0,41,0.0,Stimuli/Blank.png,0,0,0.0,0,98,98,98,,,,,,,,,,,,,227.76599460000034,0.015994600000340142,None,,265.5934440000001,265.5934440000001,265.5934440000001,265.5934440000001,265.5934440000001,265.5934440000001,265.5934440000001,265.5934440000001,265.5934440000001,265.5934440000001,008,P002,2025_Jan_18_1021,ConditionRich,2021.2.3,59.932743475418526,
228.0,231.75,13,0.75,Stimuli/P002/sun_bfdmlbkyioxnkodb.jpg,0,0,0.0,0,99,99,99,,,,,,,,,,,,,227.9997457999998,-0.0002542000001994893,5,1.9709156999997504,265.8269676,265.8269676,265.8269676,265.8269676,265.8269676,265.8269676,265.8269676,265.8269676,265.8269676,265.8269676,008,P002,2025_Jan_18_1021,ConditionRich,2021.2.3,59.932743475418526,
231.75,232.0,41,0.0,Stimuli/Blank.png,0,0,0.0,0,100,100,100,,,,,,,,,,,,,231.75268179999966,0.002681799999663781,5,0.21763359999931708,269.58027180000045,269.58027180000045,269.58027180000045,269.58027180000045,269.58027180000045,269.58027180000045,269.58027180000045,269.58027180000045,269.58027180000045,269.58027180000045,008,P002,2025_Jan_18_1021,ConditionRich,2021.2.3,59.932743475418526,
232.0,235.75,24,0.75,Stimuli/P002/things_cornucopia_01b.jpg,0,0,0.0,0,101,101,101,,,,,,,,,,,,,232.00511449999976,0.005114499999763211,5,1.9507697999997617,269.84717809999984,269.84717809999984,269.84717809999984,269.84717809999984,269.84717809999984,269.84717809999984,269.84717809999984,269.84717809999984,269.84717809999984,269.84717809999984,008,P002,2025_Jan_18_1021,ConditionRich,2021.2.3,59.932743475418526,
235.75,236.0,41,0.0,Stimuli/Blank.png,0,0,0.0,0,102,102,102,,,,,,,,,,,,,235.7751927999998,0.025192799999786075,5,0.1805991000001086,273.6171968999997,273.6171968999997,273.6171968999997,273.6171968999997,273.6171968999997,273.6171968999997,273.6171968999997,273.6171968999997,273.6171968999997,273.6171968999997,008,P002,2025_Jan_18_1021,ConditionRich,2021.2.3,59.932743475418526,
236.0,239.75,28,0.75,Stimuli/P002/things_girl_01b.jpg,0,0,0.0,0,103,103,103,,,,,,,,,,,,,236.02544539999963,0.025445399999625806,5,1.9304733999997552,273.8673824999996,273.8673824999996,273.8673824999996,273.8673824999996,273.8673824999996,273.8673824999996,273.8673824999996,273.8673824999996,273.8673824999996,273.8673824999996,008,P002,2025_Jan_18_1021,ConditionRich,2021.2.3,59.932743475418526,
239.75,240.0,41,0.0,Stimuli/Blank.png,0,0,0.0,0,104,104,104,,,,,,,,,,,,,239.7763685,0.02636849999998958,5,0.19417760000033013,277.6040165000004,277.6040165000004,277.6040165000004,277.6040165000004,277.6040165000004,277.6040165000004,277.6040165000004,277.6040165000004,277.6040165000004,277.6040165000004,008,P002,2025_Jan_18_1021,ConditionRich,2021.2.3,59.932743475418526,
240.0,243.75,38,0.75,Stimuli/P002/things_windowsill_01b.jpg,0,0,0.0,0,105,105,105,,,,,,,,,,,,,240.0103712,0.010371200000008685,5,1.960231400000339,277.8375461000005,277.8375461000005,277.8375461000005,277.8375461000005,277.8375461000005,277.8375461000005,277.8375461000005,277.8375461000005,277.8375461000005,277.8375461000005,008,P002,2025_Jan_18_1021,ConditionRich,2021.2.3,59.932743475418526,
243.75,244.0,41,0.0,Stimuli/Blank.png,0,0,0.0,0,106,106,106,,,,,,,,,,,,,243.76355109999986,0.013551099999858707,5,0.2069753000005221,281.59083740000005,281.59083740000005,281.59083740000005,281.59083740000005,281.59083740000005,281.59083740000005,281.59083740000005,281.59083740000005,281.59083740000005,281.59083740000005,008,P002,2025_Jan_18_1021,ConditionRich,2021.2.3,59.932743475418526,
244.0,247.75,6,0.75,Stimuli/P002/sun_aqbaaqeojrexbmcr.jpg,1,3,3.75,0,107,107,107,,,,,,,,,,,,,244.01522879999993,0.015228799999931653,1,3.377329799999643,281.85774390000006,281.85774390000006,281.85774390000006,281.85774390000006,281.85774390000006,281.85774390000006,284.84375890000047,None,281.85774390000006,281.85774390000006,008,P002,2025_Jan_18_1021,ConditionRich,2021.2.3,59.932743475418526,
247.75,248.0,41,0.0,Stimuli/Blank.png,0,0,0.0,0,108,108,108,,,,,,,,,,,,,247.76727500000015,0.01727500000015425,None,,285.59436000000005,285.59436000000005,285.59436000000005,285.59436000000005,285.59436000000005,285.59436000000005,285.59436000000005,285.59436000000005,285.59436000000005,285.59436000000005,008,P002,2025_Jan_18_1021,ConditionRich,2021.2.3,59.932743475418526,
248.0,251.75,22,0.75,Stimuli/P002/things_boy_01b.jpg,0,0,0.0,0,109,109,109,,,,,,,,,,,,,248.00052760000017,0.0005276000001686043,5,1.9699802000004638,285.82789950000006,285.82789950000006,285.82789950000006,285.82789950000006,285.82789950000006,285.82789950000006,285.82789950000006,285.82789950000006,285.82789950000006,285.82789950000006,008,P002,2025_Jan_18_1021,ConditionRich,2021.2.3,59.932743475418526,
251.75,252.0,41,0.0,Stimuli/Blank.png,0,0,0.0,0,110,110,110,,,,,,,,,,,,,251.75542200000018,0.00542200000018056,5,0.19989050000003772,289.5979033000003,289.5979033000003,289.5979033000003,289.5979033000003,289.5979033000003,289.5979033000003,289.5979033000003,289.5979033000003,289.5979033000003,289.5979033000003,008,P002,2025_Jan_18_1021,ConditionRich,2021.2.3,59.932743475418526,
252.0,255.75,27,0.75,Stimuli/P002/things_dynamite_01b.jpg,0,0,0.0,0,111,111,111,,,,,,,,,,,,,252.0205592000002,0.020559200000207056,5,1.9497885000000679,289.8481013999999,289.8481013999999,289.8481013999999,289.8481013999999,289.8481013999999,289.8481013999999,289.8481013999999,289.8481013999999,289.8481013999999,289.8481013999999,008,P002,2025_Jan_18_1021,ConditionRich,2021.2.3,59.932743475418526,
255.75,256.0,41,0.0,Stimuli/Blank.png,0,0,0.0,0,112,112,112,,,,,,,,,,,,,255.75713650000034,0.007136500000342494,5,0.21299079999971582,293.5847303999999,293.5847303999999,293.5847303999999,293.5847303999999,293.5847303999999,293.5847303999999,293.5847303999999,293.5847303999999,293.5847303999999,293.5847303999999,008,P002,2025_Jan_18_1021,ConditionRich,2021.2.3,59.932743475418526,
256.0,259.75,32,0.75,Stimuli/P002/things_oyster_01b.jpg,0,0,0.0,0,113,113,113,,,,,,,,,,,,,256.0073675000003,0.007367500000327709,5,1.9629521999995632,293.83495180000045,293.83495180000045,293.83495180000045,293.83495180000045,293.83495180000045,293.83495180000045,293.83495180000045,293.83495180000045,293.83495180000045,293.83495180000045,008,P002,2025_Jan_18_1021,ConditionRich,2021.2.3,59.932743475418526,
259.75,260.0,41,0.0,Stimuli/Blank.png,0,0,0.0,0,114,114,114,,,,,,,,,,,,,259.7603406999997,0.010340699999687786,5,0.2096602999999959,297.58825049999996,297.58825049999996,297.58825049999996,297.58825049999996,297.58825049999996,297.58825049999996,297.58825049999996,297.58825049999996,297.58825049999996,297.58825049999996,008,P002,2025_Jan_18_1021,ConditionRich,2021.2.3,59.932743475418526,
260.0,263.75,39,0.75,Stimuli/P002/things_woman_01b.jpg,1,0,0.75,0,115,115,115,,,,,,,,,,,,,260.0107608999997,0.010760899999695539,5,1.9593186000001879,297.83847349999996,297.83847349999996,297.83847349999996,297.83847349999996,297.83847349999996,297.83847349999996,297.83847349999996,298.57245349999994,297.83847349999996,297.83847349999996,008,P002,2025_Jan_18_1021,ConditionRich,2021.2.3,59.932743475418526,
263.75,264.0,41,0.0,Stimuli/Blank.png,0,0,0.0,0,116,116,116,,,,,,,,,,,,,263.76442880000013,0.014428800000132469,5,0.20624080000015965,301.59177269999964,301.59177269999964,301.59177269999964,301.59177269999964,301.59177269999964,301.59177269999964,301.59177269999964,301.59177269999964,301.59177269999964,301.59177269999964,008,P002,2025_Jan_18_1021,ConditionRich,2021.2.3,59.932743475418526,
264.0,267.75,5,0.75,Stimuli/P002/sun_apwzcrxhvvnrexjh.jpg,0,0,0.0,0,117,117,117,,,,,,,,,,,,,264.0146983000004,0.014698300000418385,5,1.9393090000003212,301.85868630000004,301.85868630000004,301.85868630000004,301.85868630000004,301.85868630000004,301.85868630000004,301.85868630000004,301.85868630000004,301.85868630000004,301.85868630000004,008,P002,2025_Jan_18_1021,ConditionRich,2021.2.3,59.932743475418526,
267.75,268.0,41,0.0,Stimuli/Blank.png,0,0,0.0,0,118,118,118,,,,,,,,,,,,,267.7701519000002,0.02015190000020084,5,0.18572459999995772,305.61200370000006,305.61200370000006,305.61200370000006,305.61200370000006,305.61200370000006,305.61200370000006,305.61200370000006,305.61200370000006,305.61200370000006,305.61200370000006,008,P002,2025_Jan_18_1021,ConditionRich,2021.2.3,59.932743475418526,
268.0,271.75,1,0.75,Stimuli/P002/sun_agpgdwkhzgvzdaea.jpg,0,0,0.0,0,119,119,119,,,,,,,,,,,,,268.01743499999975,0.01743499999975029,5,1.935449100000369,305.8622083999999,305.8622083999999,305.8622083999999,305.8622083999999,305.8622083999999,305.8622083999999,305.8622083999999,305.8622083999999,305.8622083999999,305.8622083999999,008,P002,2025_Jan_18_1021,ConditionRich,2021.2.3,59.932743475418526,
271.75,272.0,41,0.0,Stimuli/Blank.png,0,0,0.0,0,120,120,120,,,,,,,,,,,,,271.77084099999956,0.020840999999563792,5,0.1990038000003551,309.59881419999965,309.59881419999965,309.59881419999965,309.59881419999965,309.59881419999965,309.59881419999965,309.59881419999965,309.59881419999965,309.59881419999965,309.59881419999965,008,P002,2025_Jan_18_1021,ConditionRich,2021.2.3,59.932743475418526,
272.0,275.75,10,0.75,Stimuli/P002/sun_aykefnhciwsffcrj.jpg,0,0,0.0,0,121,121,121,,,,,,,,,,,,,272.00569540000015,0.005695400000149675,5,1.9654405000001134,309.8323677999997,309.8323677999997,309.8323677999997,309.8323677999997,309.8323677999997,309.8323677999997,309.8323677999997,309.8323677999997,309.8323677999997,309.8323677999997,008,P002,2025_Jan_18_1021,ConditionRich,2021.2.3,59.932743475418526,
275.75,276.0,41,0.0,Stimuli/Blank.png,0,0,0.0,0,122,122,122,,,,,,,,,,,,,275.76019449999967,0.01019449999967037,5,0.19536709999920276,313.6023659000002,313.6023659000002,313.6023659000002,313.6023659000002,313.6023659000002,313.6023659000002,313.6023659000002,313.6023659000002,313.6023659000002,313.6023659000002,008,P002,2025_Jan_18_1021,ConditionRich,2021.2.3,59.932743475418526,
276.0,292.0,0,0.0,Stimuli/Blank.png,1,4,4.75,0,123,123,123,,,,,,,,,,,,,276.0259186000003,0.025918600000295555,5,15.945174399999814,313.8525746000005,313.8525746000005,313.8525746000005,313.8525746000005,313.8525746000005,313.8525746000005,317.8394430999997,318.59010390000003,313.8525746000005,313.8525746000005,008,P002,2025_Jan_18_1021,ConditionRich,2021.2.3,59.932743475418526,
292.0,295.75,20,0.75,Stimuli/P002/sun_dkgctqgpvxbaoyks.jpg,0,0,0.0,0,124,124,124,,,,,,,,,,,,,292.0056752999999,0.005675299999893468,5,1.9642987000006542,329.8332928,329.8332928,329.8332928,329.8332928,329.8332928,329.8332928,329.8332928,329.8332928,329.8332928,329.8332928,008,P002,2025_Jan_18_1021,ConditionRich,2021.2.3,59.932743475418526,
295.75,296.0,41,0.0,Stimuli/Blank.png,0,0,0.0,0,125,125,125,,,,,,,,,,,,,295.75922470000023,0.009224700000231678,5,0.21118839999962802,333.5865966000001,333.5865966000001,333.5865966000001,333.5865966000001,333.5865966000001,333.5865966000001,333.5865966000001,333.5865966000001,333.5865966000001,333.5865966000001,008,P002,2025_Jan_18_1021,ConditionRich,2021.2.3,59.932743475418526,
296.0,299.75,19,0.75,Stimuli/P002/sun_bzyyqqczvrnvukdn.jpg,0,0,0.0,0,126,126,126,,,,,,,,,,,,,296.00892360000034,0.008923600000343868,5,1.9609801999995398,333.83681720000004,333.83681720000004,333.83681720000004,333.83681720000004,333.83681720000004,333.83681720000004,333.83681720000004,333.83681720000004,333.83681720000004,333.83681720000004,008,P002,2025_Jan_18_1021,ConditionRich,2021.2.3,59.932743475418526,
299.75,300.0,41,0.0,Stimuli/Blank.png,0,0,0.0,0,127,127,127,,,,,,,,,,,,,299.76231310000003,0.012313100000028498,5,0.2075329999997848,337.5901194999997,337.5901194999997,337.5901194999997,337.5901194999997,337.5901194999997,337.5901194999997,337.5901194999997,337.5901194999997,337.5901194999997,337.5901194999997,008,P002,2025_Jan_18_1021,ConditionRich,2021.2.3,59.932743475418526,
300.0,303.75,7,0.75,Stimuli/P002/sun_arlesyjqxmqmcccl.jpg,1,0,0.75,0,128,128,128,,,,,,,,,,,,,300.0147815,0.014781500000026426,5,1.940531700000065,337.85702630000014,337.85702630000014,337.85702630000014,337.85702630000014,337.85702630000014,337.85702630000014,337.85702630000014,338.59102359999997,337.85702630000014,337.85702630000014,008,P002,2025_Jan_18_1021,ConditionRich,2021.2.3,59.932743475418526,
303.75,304.0,41,0.0,Stimuli/Blank.png,0,0,0.0,0,129,129,129,,,,,,,,,,,,,303.7660396000001,0.01603960000011284,None,,341.5936479000002,341.5936479000002,341.5936479000002,341.5936479000002,341.5936479000002,341.5936479000002,341.5936479000002,341.5936479000002,341.5936479000002,341.5936479000002,008,P002,2025_Jan_18_1021,ConditionRich,2021.2.3,59.932743475418526,
304.0,307.75,12,0.75,Stimuli/P002/sun_bdxvmnlyovhqognn.jpg,0,0,0.0,0,130,130,130,,,,,,,,,,,,,304.0003512000003,0.00035120000029564835,5,1.953756699999758,341.8438779999997,341.8438779999997,341.8438779999997,341.8438779999997,341.8438779999997,341.8438779999997,341.8438779999997,341.8438779999997,341.8438779999997,341.8438779999997,008,P002,2025_Jan_18_1021,ConditionRich,2021.2.3,59.932743475418526,
307.75,308.0,41,0.0,Stimuli/Blank.png,0,0,0.0,0,131,131,131,,,,,,,,,,,,,307.7702941999996,0.020294199999625562,5,0.20041020000007848,345.59717460000047,345.59717460000047,345.59717460000047,345.59717460000047,345.59717460000047,345.59717460000047,345.59717460000047,345.59717460000047,345.59717460000047,345.59717460000047,008,P002,2025_Jan_18_1021,ConditionRich,2021.2.3,59.932743475418526,
308.0,311.75,30,0.75,Stimuli/P002/things_iguana_01b.jpg,0,0,0.0,0,132,132,132,,,,,,,,,,,,,308.0051276000004,0.005127600000378152,5,1.9502940999991552,345.8473942999999,345.8473942999999,345.8473942999999,345.8473942999999,345.8473942999999,345.8473942999999,345.8473942999999,345.8473942999999,345.8473942999999,345.8473942999999,008,P002,2025_Jan_18_1021,ConditionRich,2021.2.3,59.932743475418526,
311.75,312.0,41,0.0,Stimuli/Blank.png,0,0,0.0,0,133,133,133,,,,,,,,,,,,,311.7751331999998,0.025133199999800127,5,0.1803274000003512,349.6173907000002,349.6173907000002,349.6173907000002,349.6173907000002,349.6173907000002,349.6173907000002,349.6173907000002,349.6173907000002,349.6173907000002,349.6173907000002,008,P002,2025_Jan_18_1021,ConditionRich,2021.2.3,59.932743475418526,
312.0,315.75,29,0.75,Stimuli/P002/things_grinder_01b.jpg,0,0,0.0,0,134,134,134,,,,,,,,,,,,,312.0233859,0.023385899999993853,5,1.9466831999998249,349.8509064,349.8509064,349.8509064,349.8509064,349.8509064,349.8509064,349.8509064,349.8509064,349.8509064,349.8509064,008,P002,2025_Jan_18_1021,ConditionRich,2021.2.3,59.932743475418526,
315.75,316.0,41,0.0,Stimuli/Blank.png,0,0,0.0,0,135,135,135,,,,,,,,,,,,,315.7604688000001,0.010468800000126066,5,0.2099780999997165,353.5875382000004,353.5875382000004,353.5875382000004,353.5875382000004,353.5875382000004,353.5875382000004,353.5875382000004,353.5875382000004,353.5875382000004,353.5875382000004,008,P002,2025_Jan_18_1021,ConditionRich,2021.2.3,59.932743475418526,
316.0,319.75,35,0.75,Stimuli/P002/things_pepperoni_01b.jpg,0,0,0.0,0,136,136,136,,,,,,,,,,,,,316.01023819999955,0.01023819999954867,5,1.960292899999331,353.83775220000007,353.83775220000007,353.83775220000007,353.83775220000007,353.83775220000007,353.83775220000007,353.83775220000007,353.83775220000007,353.83775220000007,353.83775220000007,008,P002,2025_Jan_18_1021,ConditionRich,2021.2.3,59.932743475418526,
319.75,320.0,41,0.0,Stimuli/Blank.png,0,0,0.0,0,137,137,137,,,,,,,,,,,,,319.7640663000002,0.014066300000195042,5,0.20675109999956476,357.59106320000046,357.59106320000046,357.59106320000046,357.59106320000046,357.59106320000046,357.59106320000046,357.59106320000046,357.59106320000046,357.59106320000046,357.59106320000046,008,P002,2025_Jan_18_1021,ConditionRich,2021.2.3,59.932743475418526,
320.0,323.75,21,0.75,Stimuli/P002/things_baby_01b.jpg,0,0,0.0,0,138,138,138,,,,,,,,,,,,,320.01406099999986,0.014060999999855994,5,1.9395782000001418,357.8579534999999,357.8579534999999,357.8579534999999,357.8579534999999,357.8579534999999,357.8579534999999,357.8579534999999,357.8579534999999,357.8579534999999,357.8579534999999,008,P002,2025_Jan_18_1021,ConditionRich,2021.2.3,59.932743475418526,
323.75,324.0,41,0.0,Stimuli/Blank.png,0,0,0.0,0,139,139,139,,,,,,,,,,,,,323.76731930000005,0.017319300000053772,None,,361.5945842000001,361.5945842000001,361.5945842000001,361.5945842000001,361.5945842000001,361.5945842000001,361.5945842000001,361.5945842000001,361.5945842000001,361.5945842000001,008,P002,2025_Jan_18_1021,ConditionRich,2021.2.3,59.932743475418526,
324.0,327.75,26,0.75,Stimuli/P002/things_dish_01b.jpg,1,1,1.75,0,140,140,140,,,,,,,,,,,,,324.0007767999996,0.0007767999995849095,5,1.9694057999995493,361.8281181000002,361.8281181000002,361.8281181000002,361.8281181000002,361.8281181000002,361.8281181000002,362.81231190000017,363.5629928999997,361.8281181000002,361.8281181000002,008,P002,2025_Jan_18_1021,ConditionRich,2021.2.3,59.932743475418526,
327.75,328.0,41,0.0,Stimuli/Blank.png,0,0,0.0,0,141,141,141,,,,,,,,,,,,,327.7542279999998,0.004227999999784515,5,0.2160433999997622,365.58142810000027,365.58142810000027,365.58142810000027,365.58142810000027,365.58142810000027,365.58142810000027,365.58142810000027,365.58142810000027,365.58142810000027,365.58142810000027,008,P002,2025_Jan_18_1021,ConditionRich,2021.2.3,59.932743475418526,
328.0,331.75,2,0.75,Stimuli/P002/sun_akmxsxepquhynflp.jpg,0,0,0.0,0,142,142,142,,,,,,,,,,,,,328.0041047000004,0.00410470000042551,5,1.9659793000000718,365.83163820000027,365.83163820000027,365.83163820000027,365.83163820000027,365.83163820000027,365.83163820000027,365.83163820000027,365.83163820000027,365.83163820000027,365.83163820000027,008,P002,2025_Jan_18_1021,ConditionRich,2021.2.3,59.932743475418526,
331.75,332.0,41,0.0,Stimuli/Blank.png,0,0,0.0,0,143,143,143,,,,,,,,,,,,,331.75965350000024,0.009653500000240456,5,0.19588310000017373,369.60164989999976,369.60164989999976,369.60164989999976,369.60164989999976,369.60164989999976,369.60164989999976,369.60164989999976,369.60164989999976,369.60164989999976,369.60164989999976,008,P002,2025_Jan_18_1021,ConditionRich,2021.2.3,59.932743475418526,
332.0,335.75,23,0.75,Stimuli/P002/things_chick_01b.jpg,0,0,0.0,0,144,144,144,,,,,,,,,,,,,332.0244408999997,0.024440899999717658,5,1.9457984000000579,369.8518538999997,369.8518538999997,369.8518538999997,369.8518538999997,369.8518538999997,369.8518538999997,369.8518538999997,369.8518538999997,369.8518538999997,369.8518538999997,008,P002,2025_Jan_18_1021,ConditionRich,2021.2.3,59.932743475418526,
335.75,336.0,41,0.0,Stimuli/Blank.png,0,0,0.0,0,145,145,145,,,,,,,,,,,,,335.7609749000003,0.01097490000029211,5,0.20907859999988432,373.5884630999999,373.5884630999999,373.5884630999999,373.5884630999999,373.5884630999999,373.5884630999999,373.5884630999999,373.5884630999999,373.5884630999999,373.5884630999999,008,P002,2025_Jan_18_1021,ConditionRich,2021.2.3,59.932743475418526,
336.0,339.75,3,0.75,Stimuli/P002/sun_amarqtinchblqmah.jpg,0,0,0.0,0,146,146,146,,,,,,,,,,,,,336.0113234999999,0.011323499999889464,5,1.9588398999994752,373.83868410000014,373.83868410000014,373.83868410000014,373.83868410000014,373.83868410000014,373.83868410000014,373.83868410000014,373.83868410000014,373.83868410000014,373.83868410000014,008,P002,2025_Jan_18_1021,ConditionRich,2021.2.3,59.932743475418526,
339.75,340.0,41,0.0,Stimuli/Blank.png,0,0,0.0,0,147,147,147,,,,,,,,,,,,,339.76424469999984,0.014244699999835575,5,0.20533939999950235,377.5920971000005,377.5920971000005,377.5920971000005,377.5920971000005,377.5920971000005,377.5920971000005,377.5920971000005,377.5920971000005,377.5920971000005,377.5920971000005,008,P002,2025_Jan_18_1021,ConditionRich,2021.2.3,59.932743475418526,
340.0,343.75,17,0.75,Stimuli/P002/sun_bshgmgbmpvjkxfis.jpg,0,0,0.0,0,148,148,148,,,,,,,,,,,,,340.0141424000003,0.014142400000309863,5,1.9555648000005021,377.84220730000015,377.84220730000015,377.84220730000015,377.84220730000015,377.84220730000015,377.84220730000015,377.84220730000015,377.84220730000015,377.84220730000015,377.84220730000015,008,P002,2025_Jan_18_1021,ConditionRich,2021.2.3,59.932743475418526,
343.75,344.0,41,0.0,Stimuli/Blank.png,0,0,0.0,0,149,149,149,,,,,,,,,,,,,343.75170890000027,0.0017089000002670218,None,,381.5788247999999,381.5788247999999,381.5788247999999,381.5788247999999,381.5788247999999,381.5788247999999,381.5788247999999,381.5788247999999,381.5788247999999,381.5788247999999,008,P002,2025_Jan_18_1021,ConditionRich,2021.2.3,59.932743475418526,
344.0,347.75,11,0.75,Stimuli/P002/sun_bbfdgdyeqdnadvvi.jpg,0,0,0.0,0,150,150,150,,,,,,,,,,,,,344.0015292999997,0.0015292999996745493,5,1.9683939000005921,381.82906,381.82906,381.82906,381.82906,381.82906,381.82906,381.82906,381.82906,381.82906,381.82906,008,P002,2025_Jan_18_1021,ConditionRich,2021.2.3,59.932743475418526,
347.75,348.0,41,0.0,Stimuli/Blank.png,0,0,0.0,0,151,151,151,,,,,,,,,,,,,347.75559129999965,0.005591299999650801,5,0.21518229999946925,385.58236659999966,385.58236659999966,385.58236659999966,385.58236659999966,385.58236659999966,385.58236659999966,385.58236659999966,385.58236659999966,385.58236659999966,385.58236659999966,008,P002,2025_Jan_18_1021,ConditionRich,2021.2.3,59.932743475418526,
348.0,351.75,31,0.75,Stimuli/P002/things_man_01b.jpg,0,0,0.0,0,152,152,152,,,,,,,,,,,,,348.0054651999999,0.005465199999889592,5,1.9650172000001476,385.8325762000004,385.8325762000004,385.8325762000004,385.8325762000004,385.8325762000004,385.8325762000004,385.8325762000004,385.8325762000004,385.8325762000004,385.8325762000004,008,P002,2025_Jan_18_1021,ConditionRich,2021.2.3,59.932743475418526,
351.75,352.0,41,0.0,Stimuli/Blank.png,0,0,0.0,0,153,153,153,,,,,,,,,,,,,351.7600427999996,0.010042799999609997,5,0.19501520000085293,389.60257809999985,389.60257809999985,389.60257809999985,389.60257809999985,389.60257809999985,389.60257809999985,389.60257809999985,389.60257809999985,389.60257809999985,389.60257809999985,008,P002,2025_Jan_18_1021,ConditionRich,2021.2.3,59.932743475418526,
352.0,355.75,18,0.75,Stimuli/P002/sun_bzjegfvyrvqtunza.jpg,0,0,0.0,0,154,154,154,,,,,,,,,,,,,352.02599029999965,0.025990299999648414,5,1.9279023999997662,389.8694789000001,389.8694789000001,389.8694789000001,389.8694789000001,389.8694789000001,389.8694789000001,389.8694789000001,389.8694789000001,389.8694789000001,389.8694789000001,008,P002,2025_Jan_18_1021,ConditionRich,2021.2.3,59.932743475418526,
355.75,356.0,41,0.0,Stimuli/Blank.png,0,0,0.0,0,155,155,155,,,,,,,,,,,,,355.78042900000037,0.030429000000367523,5,0.17468240000016522,393.62276850000035,393.62276850000035,393.62276850000035,393.62276850000035,393.62276850000035,393.62276850000035,393.62276850000035,393.62276850000035,393.62276850000035,393.62276850000035,008,P002,2025_Jan_18_1021,ConditionRich,2021.2.3,59.932743475418526,
356.0,359.75,15,0.75,Stimuli/P002/sun_bfzoxbkvsfqxsyle.jpg,0,0,0.0,0,156,156,156,,,,,,,,,,,,,356.02931139999964,0.029311399999642163,5,1.9413629999999102,393.8563143000001,393.8563143000001,393.8563143000001,393.8563143000001,393.8563143000001,393.8563143000001,393.8563143000001,393.8563143000001,393.8563143000001,393.8563143000001,008,P002,2025_Jan_18_1021,ConditionRich,2021.2.3,59.932743475418526,
359.75,360.0,41,0.0,Stimuli/Blank.png,0,0,0.0,0,157,157,157,,,,,,,,,,,,,359.7493450000002,-0.0006549999998242129,None,,397.5762493000002,397.5762493000002,397.5762493000002,397.5762493000002,397.5762493000002,397.5762493000002,397.5762493000002,397.5762493000002,397.5762493000002,397.5762493000002,008,P002,2025_Jan_18_1021,ConditionRich,2021.2.3,59.932743475418526,
360.0,363.75,33,0.75,Stimuli/P002/things_pan_01b.jpg,1,2,2.75,0,158,158,158,,,,,,,,,,,,,359.9998206999999,-0.0001793000001271139,1,2.4170711999995547,397.8264654000004,397.8264654000004,397.8264654000004,397.8264654000004,397.8264654000004,397.8264654000004,399.81153879999965,400.56219340000007,397.8264654000004,397.8264654000004,008,P002,2025_Jan_18_1021,ConditionRich,2021.2.3,59.932743475418526,
363.75,364.0,41,0.0,Stimuli/Blank.png,0,0,0.0,0,159,159,159,,,,,,,,,,,,,363.75211469999977,0.0021146999997654348,5,0.2175959000005605,401.57976810000036,401.57976810000036,401.57976810000036,401.57976810000036,401.57976810000036,401.57976810000036,401.57976810000036,401.57976810000036,401.57976810000036,401.57976810000036,008,P002,2025_Jan_18_1021,ConditionRich,2021.2.3,59.932743475418526,
364.0,367.75,37,0.75,Stimuli/P002/things_starfish_01b.jpg,1,3,3.75,0,160,160,160,,,,,,,,,,,,,364.00451539999995,0.004515399999945657,1,3.4046902000000046,401.8466758000004,401.8466758000004,401.8466758000004,401.8466758000004,401.8466758000004,401.8466758000004,404.8326654000002,405.5833332000002,401.8466758000004,401.8466758000004,008,P002,2025_Jan_18_1021,ConditionRich,2021.2.3,59.932743475418526,
367.75,368.0,41,0.0,Stimuli/Blank.png,0,0,0.0,0,161,161,161,,,,,,,,,,,,,367.7744310999997,0.02443109999967419,5,0.18088839999927586,405.61665919999996,405.61665919999996,405.61665919999996,405.61665919999996,405.61665919999996,405.61665919999996,405.61665919999996,405.61665919999996,405.61665919999996,405.61665919999996,008,P002,2025_Jan_18_1021,ConditionRich,2021.2.3,59.932743475418526,
368.0,371.75,14,0.75,Stimuli/P002/sun_bfgxassmmvhtarcc.jpg,0,0,0.0,0,162,162,162,,,,,,,,,,,,,368.0247135999998,0.024713599999813596,5,1.930493199999546,405.8668749999997,405.8668749999997,405.8668749999997,405.8668749999997,405.8668749999997,405.8668749999997,405.8668749999997,405.8668749999997,405.8668749999997,405.8668749999997,008,P002,2025_Jan_18_1021,ConditionRich,2021.2.3,59.932743475418526,
371.75,372.0,41,0.0,Stimuli/Blank.png,0,0,0.0,0,163,163,163,,,,,,,,,,,,,371.7757044,0.025704399999995076,5,0.1940177999995285,409.60348580000027,409.60348580000027,409.60348580000027,409.60348580000027,409.60348580000027,409.60348580000027,409.60348580000027,409.60348580000027,409.60348580000027,409.60348580000027,008,P002,2025_Jan_18_1021,ConditionRich,2021.2.3,59.932743475418526,
372.0,388.0,0,0.0,Stimuli/Blank.png,1,2,2.75,0,164,164,164,,,,,,,,,,,,,372.0101009,0.010100899999997637,5,13.960374299999785,409.8370407000002,409.8370407000002,409.8370407000002,409.8370407000002,409.8370407000002,409.8370407000002,411.8221093000002,412.57279610000023,409.8370407000002,409.8370407000002,008,P002,2025_Jan_18_1021,ConditionRich,2021.2.3,59.932743475418526,
