eventStartTime,eventEndTime,eventCond,imSize,imFile,responseEvent,fixRespStart,fixRespEnd,Events.thisRepN,Events.thisTrialN,Events.thisN,Events.thisIndex,Instructions.started,Instructions.stopped,participantReadyResponse.keys,participantReadyResponse.rt,participantReadyResponse.started,participantReadyResponse.stopped,startWaitforTrigger,triggerResponse.keys,triggerResponse.rt,triggerResponse.started,triggerResponse.stopped,globalTimer,actualStartTime,startTimingDiff,participantResponse.keys,participantResponse.rt,participantResponse.started,participantResponse.stopped,image.started,image.stopped,fixationOutside.started,fixationOutside.stopped,fixationResponse.started,fixationResponse.stopped,fixationInside.started,fixationInside.stopped,session,participant,date,expName,psychopyVersion,frameRate,
,,,,,,,,,,,,11.006524099999751,None,1,7.040660499999831,11.006524099999751,None,,,,,,,,,,,,,,,,,,,,,003,P002,2025_Jan_18_0931,ConditionRich,2021.2.3,59.92717649518156,
,,,,,,,,,,,,,,,,,,18.05451479999965,5,14.508898600000066,18.067406499999834,None,,,,,,,,,,,,,,,,003,P002,2025_Jan_18_0931,ConditionRich,2021.2.3,59.92717649518156,
0.0,4.0,0,0.0,Stimuli/Blank.png,0,0.0,0.0,0,0,0,0,,,,,,,,,,,,32.58416080000006,0.0355930000000626,0.0355930000000626,5,3.929368500000237,32.646880699999656,None,32.646880699999656,None,32.646880699999656,None,32.646880699999656,32.646880699999656,32.646880699999656,None,003,P002,2025_Jan_18_0931,ConditionRich,2021.2.3,59.92717649518156,
4.0,4.75,39,0.75,Stimuli/P002/things_woman_01b.jpg,0,0.0,0.0,0,1,1,1,,,,,,,,,,,,,4.020259200000055,0.02025920000005499,None,,36.63404820000005,36.63404820000005,36.63404820000005,36.63404820000005,36.63404820000005,36.63404820000005,36.63404820000005,36.63404820000005,36.63404820000005,36.63404820000005,003,P002,2025_Jan_18_0931,ConditionRich,2021.2.3,59.92717649518156,
4.75,8.0,41,0.0,Stimuli/Blank.png,0,0.0,0.0,0,2,2,2,,,,,,,,,,,,,4.769548300000224,0.019548300000224117,5,1.2083153000003222,37.367969899999935,37.367969899999935,37.367969899999935,37.367969899999935,37.367969899999935,37.367969899999935,37.367969899999935,37.367969899999935,37.367969899999935,37.367969899999935,003,P002,2025_Jan_18_0931,ConditionRich,2021.2.3,59.92717649518156,
8.0,8.75,4,0.75,Stimuli/P002/sun_aonjwqswdblhlpkm.jpg,0,0.0,0.0,0,3,3,3,,,,,,,,,,,,,8.005090999999993,0.005090999999993073,None,,40.6038724,40.6038724,40.6038724,40.6038724,40.6038724,40.6038724,40.6038724,40.6038724,40.6038724,40.6038724,003,P002,2025_Jan_18_0931,ConditionRich,2021.2.3,59.92717649518156,
8.75,12.0,41,0.0,Stimuli/Blank.png,0,0.0,0.0,0,4,4,4,,,,,,,,,,,,,8.756424799999877,0.006424799999876996,5,1.2215430999999626,41.354519999999866,41.354519999999866,41.354519999999866,41.354519999999866,41.354519999999866,41.354519999999866,41.354519999999866,41.354519999999866,41.354519999999866,41.354519999999866,003,P002,2025_Jan_18_0931,ConditionRich,2021.2.3,59.92717649518156,
12.0,12.75,30,0.75,Stimuli/P002/things_iguana_01b.jpg,0,0.0,0.0,0,5,5,5,,,,,,,,,,,,,12.008930700000292,0.008930700000291836,None,,44.607390399999986,44.607390399999986,44.607390399999986,44.607390399999986,44.607390399999986,44.607390399999986,44.607390399999986,44.607390399999986,44.607390399999986,44.607390399999986,003,P002,2025_Jan_18_0931,ConditionRich,2021.2.3,59.92717649518156,
12.75,16.0,41,0.0,Stimuli/Blank.png,0,0.0,0.0,0,6,6,6,,,,,,,,,,,,,12.760562500000106,0.010562500000105501,5,3.2022973999996793,45.37475309999991,45.37475309999991,45.37475309999991,45.37475309999991,45.37475309999991,45.37475309999991,45.37475309999991,45.37475309999991,45.37475309999991,45.37475309999991,003,P002,2025_Jan_18_0931,ConditionRich,2021.2.3,59.92717649518156,
16.0,16.75,9,0.75,Stimuli/P002/sun_awtltwwpwbepuuqv.jpg,0,0.0,0.0,0,7,7,7,,,,,,,,,,,,,16.029587699999865,0.029587699999865436,None,,48.644284699999844,48.644284699999844,48.644284699999844,48.644284699999844,48.644284699999844,48.644284699999844,48.644284699999844,48.644284699999844,48.644284699999844,48.644284699999844,003,P002,2025_Jan_18_0931,ConditionRich,2021.2.3,59.92717649518156,
16.75,20.0,41,0.0,Stimuli/Blank.png,0,0.0,0.0,0,8,8,8,,,,,,,,,,,,,16.78001170000016,0.03001170000015918,5,1.1979280000000472,49.37824529999989,49.37824529999989,49.37824529999989,49.37824529999989,49.37824529999989,49.37824529999989,49.37824529999989,49.37824529999989,49.37824529999989,49.37824529999989,003,P002,2025_Jan_18_0931,ConditionRich,2021.2.3,59.92717649518156,
20.0,20.75,28,0.75,Stimuli/P002/things_girl_01b.jpg,0,0.0,0.0,0,9,9,9,,,,,,,,,,,,,20.00005880000026,5.880000026081689e-05,None,,52.614445499999874,52.614445499999874,52.614445499999874,52.614445499999874,52.614445499999874,52.614445499999874,52.614445499999874,52.614445499999874,52.614445499999874,52.614445499999874,003,P002,2025_Jan_18_0931,ConditionRich,2021.2.3,59.92717649518156,
20.75,24.0,41,0.0,Stimuli/Blank.png,0,0.0,0.0,0,10,10,10,,,,,,,,,,,,,20.766614800000298,0.01661480000029769,5,1.21201579999979,53.36507189999975,53.36507189999975,53.36507189999975,53.36507189999975,53.36507189999975,53.36507189999975,53.36507189999975,53.36507189999975,53.36507189999975,53.36507189999975,003,P002,2025_Jan_18_0931,ConditionRich,2021.2.3,59.92717649518156,
24.0,24.75,5,0.75,Stimuli/P002/sun_apwzcrxhvvnrexjh.jpg,0,0.0,0.0,0,11,11,11,,,,,,,,,,,,,24.00467239999989,0.004672399999890331,None,,56.61794639999971,56.61794639999971,56.61794639999971,56.61794639999971,56.61794639999971,56.61794639999971,56.61794639999971,56.61794639999971,56.61794639999971,56.61794639999971,003,P002,2025_Jan_18_0931,ConditionRich,2021.2.3,59.92717649518156,
24.75,28.0,41,0.0,Stimuli/Blank.png,0,0.0,0.0,0,12,12,12,,,,,,,,,,,,,24.770594000000074,0.02059400000007372,5,1.2084257999999863,57.36861229999977,57.36861229999977,57.36861229999977,57.36861229999977,57.36861229999977,57.36861229999977,57.36861229999977,57.36861229999977,57.36861229999977,57.36861229999977,003,P002,2025_Jan_18_0931,ConditionRich,2021.2.3,59.92717649518156,
28.0,28.75,10,0.75,Stimuli/P002/sun_aykefnhciwsffcrj.jpg,0,0.0,0.0,0,13,13,13,,,,,,,,,,,,,28.006726099999923,0.006726099999923463,None,,60.6214872999999,60.6214872999999,60.6214872999999,60.6214872999999,60.6214872999999,60.6214872999999,60.6214872999999,60.6214872999999,60.6214872999999,60.6214872999999,003,P002,2025_Jan_18_0931,ConditionRich,2021.2.3,59.92717649518156,
28.75,32.0,41,0.0,Stimuli/Blank.png,0,0.0,0.0,0,14,14,14,,,,,,,,,,,,,28.77421050000021,0.024210500000208413,5,1.205130399999689,61.372142899999744,61.372142899999744,61.372142899999744,61.372142899999744,61.372142899999744,61.372142899999744,61.372142899999744,61.372142899999744,61.372142899999744,61.372142899999744,003,P002,2025_Jan_18_0931,ConditionRich,2021.2.3,59.92717649518156,
32.0,32.75,25,0.75,Stimuli/P002/things_curry_01b.jpg,0,0.0,0.0,0,15,15,15,,,,,,,,,,,,,32.010162200000195,0.010162200000195298,None,,64.60831430000007,64.60831430000007,64.60831430000007,64.60831430000007,64.60831430000007,64.60831430000007,64.60831430000007,64.60831430000007,64.60831430000007,64.60831430000007,003,P002,2025_Jan_18_0931,ConditionRich,2021.2.3,59.92717649518156,
32.75,36.0,41,0.0,Stimuli/Blank.png,0,0.0,0.0,0,16,16,16,,,,,,,,,,,,,32.76097770000024,0.010977700000239565,5,3.21800310000026,65.35897569999997,65.35897569999997,65.35897569999997,65.35897569999997,65.35897569999997,65.35897569999997,65.35897569999997,65.35897569999997,65.35897569999997,65.35897569999997,003,P002,2025_Jan_18_0931,ConditionRich,2021.2.3,59.92717649518156,
36.0,36.75,1,0.75,Stimuli/P002/sun_agpgdwkhzgvzdaea.jpg,0,0.0,0.0,0,17,17,17,,,,,,,,,,,,,36.01423079999995,0.01423079999995025,None,,68.62851379999984,68.62851379999984,68.62851379999984,68.62851379999984,68.62851379999984,68.62851379999984,68.62851379999984,68.62851379999984,68.62851379999984,68.62851379999984,003,P002,2025_Jan_18_0931,ConditionRich,2021.2.3,59.92717649518156,
36.75,40.0,41,0.0,Stimuli/Blank.png,0,0.0,0.0,0,18,18,18,,,,,,,,,,,,,36.780737000000045,0.030737000000044645,5,1.1979363999998895,69.37917590000006,69.37917590000006,69.37917590000006,69.37917590000006,69.37917590000006,69.37917590000006,69.37917590000006,69.37917590000006,69.37917590000006,69.37917590000006,003,P002,2025_Jan_18_0931,ConditionRich,2021.2.3,59.92717649518156,
40.0,40.75,38,0.75,Stimuli/P002/things_windowsill_01b.jpg,0,0.0,0.0,0,19,19,19,,,,,,,,,,,,,39.99992680000014,-7.31999998606625e-05,None,,72.59867140000006,72.59867140000006,72.59867140000006,72.59867140000006,72.59867140000006,72.59867140000006,72.59867140000006,72.59867140000006,72.59867140000006,72.59867140000006,003,P002,2025_Jan_18_0931,ConditionRich,2021.2.3,59.92717649518156,
40.75,44.0,41,0.0,Stimuli/Blank.png,1,1.25,2.0,0,20,20,20,,,,,,,,,,,,,40.75082070000008,0.0008207000000766129,1,1.6326335999997355,73.34933610000007,73.34933610000007,73.34933610000007,73.34933610000007,73.34933610000007,73.34933610000007,74.58375690000003,75.33446069999991,73.34933610000007,73.34933610000007,003,P002,2025_Jan_18_0931,ConditionRich,2021.2.3,59.92717649518156,
44.0,44.75,32,0.75,Stimuli/P002/things_oyster_01b.jpg,0,0.0,0.0,0,21,21,21,,,,,,,,,,,,,44.00432810000029,0.004328100000293489,None,,76.60219949999964,76.60219949999964,76.60219949999964,76.60219949999964,76.60219949999964,76.60219949999964,76.60219949999964,76.60219949999964,76.60219949999964,76.60219949999964,003,P002,2025_Jan_18_0931,ConditionRich,2021.2.3,59.92717649518156,
44.75,48.0,41,0.0,Stimuli/Blank.png,0,0.0,0.0,0,22,22,22,,,,,,,,,,,,,44.754236799999944,0.004236799999944196,5,1.224068299999999,77.35286180000003,77.35286180000003,77.35286180000003,77.35286180000003,77.35286180000003,77.35286180000003,77.35286180000003,77.35286180000003,77.35286180000003,77.35286180000003,003,P002,2025_Jan_18_0931,ConditionRich,2021.2.3,59.92717649518156,
48.0,48.75,17,0.75,Stimuli/P002/sun_bshgmgbmpvjkxfis.jpg,0,0.0,0.0,0,23,23,23,,,,,,,,,,,,,48.00744910000003,0.0074491000000307395,None,,80.60572309999998,80.60572309999998,80.60572309999998,80.60572309999998,80.60572309999998,80.60572309999998,80.60572309999998,80.60572309999998,80.60572309999998,80.60572309999998,003,P002,2025_Jan_18_0931,ConditionRich,2021.2.3,59.92717649518156,
48.75,52.0,41,0.0,Stimuli/Blank.png,0,0.0,0.0,0,24,24,24,,,,,,,,,,,,,48.76060319999988,0.010603199999877688,5,3.2038915000002817,81.37307099999998,81.37307099999998,81.37307099999998,81.37307099999998,81.37307099999998,81.37307099999998,81.37307099999998,81.37307099999998,81.37307099999998,81.37307099999998,003,P002,2025_Jan_18_0931,ConditionRich,2021.2.3,59.92717649518156,
52.0,52.75,40,0.75,Stimuli/P002/things_worm_01b.jpg,0,0.0,0.0,0,25,25,25,,,,,,,,,,,,,52.02792580000005,0.027925800000048184,None,,84.62595979999969,84.62595979999969,84.62595979999969,84.62595979999969,84.62595979999969,84.62595979999969,84.62595979999969,84.62595979999969,84.62595979999969,84.62595979999969,003,P002,2025_Jan_18_0931,ConditionRich,2021.2.3,59.92717649518156,
52.75,56.0,41,0.0,Stimuli/Blank.png,0,0.0,0.0,0,26,26,26,,,,,,,,,,,,,52.761478200000056,0.01147820000005595,5,3.2171527000000424,85.3599076999999,85.3599076999999,85.3599076999999,85.3599076999999,85.3599076999999,85.3599076999999,85.3599076999999,85.3599076999999,85.3599076999999,85.3599076999999,003,P002,2025_Jan_18_0931,ConditionRich,2021.2.3,59.92717649518156,
56.0,56.75,16,0.75,Stimuli/P002/sun_biqyomkjbujnppuf.jpg,0,0.0,0.0,0,27,27,27,,,,,,,,,,,,,56.0146264,0.014626399999997375,None,,88.61277029999974,88.61277029999974,88.61277029999974,88.61277029999974,88.61277029999974,88.61277029999974,88.61277029999974,88.61277029999974,88.61277029999974,88.61277029999974,003,P002,2025_Jan_18_0931,ConditionRich,2021.2.3,59.92717649518156,
56.75,60.0,41,0.0,Stimuli/Blank.png,0,0.0,0.0,0,28,28,28,,,,,,,,,,,,,56.76541320000024,0.015413200000239158,5,1.2135293000001184,89.36342979999972,89.36342979999972,89.36342979999972,89.36342979999972,89.36342979999972,89.36342979999972,89.36342979999972,89.36342979999972,89.36342979999972,89.36342979999972,003,P002,2025_Jan_18_0931,ConditionRich,2021.2.3,59.92717649518156,
60.0,60.75,19,0.75,Stimuli/P002/sun_bzyyqqczvrnvukdn.jpg,0,0.0,0.0,0,29,29,29,,,,,,,,,,,,,60.00177269999995,0.0017726999999467807,None,,92.59961339999973,92.59961339999973,92.59961339999973,92.59961339999973,92.59961339999973,92.59961339999973,92.59961339999973,92.59961339999973,92.59961339999973,92.59961339999973,003,P002,2025_Jan_18_0931,ConditionRich,2021.2.3,59.92717649518156,
60.75,64.0,41,0.0,Stimuli/Blank.png,1,2.25,3.0,0,30,30,30,,,,,,,,,,,,,60.751697499999864,0.001697499999863794,1,2.5956309999996847,93.35028719999991,93.35028719999991,93.35028719999991,93.35028719999991,93.35028719999991,93.35028719999991,95.58556520000002,96.33626209999966,93.35028719999991,93.35028719999991,003,P002,2025_Jan_18_0931,ConditionRich,2021.2.3,59.92717649518156,
64.0,64.75,31,0.75,Stimuli/P002/things_man_01b.jpg,0,0.0,0.0,0,31,31,31,,,,,,,,,,,,,64.00439860000006,0.00439860000005865,None,,96.60313240000005,96.60313240000005,96.60313240000005,96.60313240000005,96.60313240000005,96.60313240000005,96.60313240000005,96.60313240000005,96.60313240000005,96.60313240000005,003,P002,2025_Jan_18_0931,ConditionRich,2021.2.3,59.92717649518156,
64.75,68.0,41,0.0,Stimuli/Blank.png,0,0.0,0.0,0,32,32,32,,,,,,,,,,,,,64.75553530000025,0.005535300000246934,5,1.2232222000002366,97.35379059999968,97.35379059999968,97.35379059999968,97.35379059999968,97.35379059999968,97.35379059999968,97.35379059999968,97.35379059999968,97.35379059999968,97.35379059999968,003,P002,2025_Jan_18_0931,ConditionRich,2021.2.3,59.92717649518156,
68.0,68.75,34,0.75,Stimuli/P002/things_parrot_01b.jpg,0,0.0,0.0,0,33,33,33,,,,,,,,,,,,,68.01085830000011,0.010858300000109011,None,,100.62334049999981,100.62334049999981,100.62334049999981,100.62334049999981,100.62334049999981,100.62334049999981,100.62334049999981,100.62334049999981,100.62334049999981,100.62334049999981,003,P002,2025_Jan_18_0931,ConditionRich,2021.2.3,59.92717649518156,
68.75,72.0,41,0.0,Stimuli/Blank.png,0,0.0,0.0,0,34,34,34,,,,,,,,,,,,,68.77566220000017,0.025662200000169832,5,3.2029116999997314,101.37399389999973,101.37399389999973,101.37399389999973,101.37399389999973,101.37399389999973,101.37399389999973,101.37399389999973,101.37399389999973,101.37399389999973,101.37399389999973,003,P002,2025_Jan_18_0931,ConditionRich,2021.2.3,59.92717649518156,
72.0,72.75,23,0.75,Stimuli/P002/things_chick_01b.jpg,0,0.0,0.0,0,35,35,35,,,,,,,,,,,,,72.01196449999998,0.011964499999976397,None,,104.61021439999968,104.61021439999968,104.61021439999968,104.61021439999968,104.61021439999968,104.61021439999968,104.61021439999968,104.61021439999968,104.61021439999968,104.61021439999968,003,P002,2025_Jan_18_0931,ConditionRich,2021.2.3,59.92717649518156,
72.75,76.0,41,0.0,Stimuli/Blank.png,0,0.0,0.0,0,36,36,36,,,,,,,,,,,,,72.76482160000023,0.014821600000232138,5,3.19944119999991,105.3775284999997,105.3775284999997,105.3775284999997,105.3775284999997,105.3775284999997,105.3775284999997,105.3775284999997,105.3775284999997,105.3775284999997,105.3775284999997,003,P002,2025_Jan_18_0931,ConditionRich,2021.2.3,59.92717649518156,
76.0,76.75,7,0.75,Stimuli/P002/sun_arlesyjqxmqmcccl.jpg,1,0.0,0.75,0,37,37,37,,,,,,,,,,,,,76.01510189999999,0.015101899999990565,1,0.6321733999998287,108.61370799999986,108.61370799999986,108.61370799999986,108.61370799999986,108.61370799999986,108.61370799999986,108.61370799999986,None,108.61370799999986,108.61370799999986,003,P002,2025_Jan_18_0931,ConditionRich,2021.2.3,59.92717649518156,
76.75,80.0,41,0.0,Stimuli/Blank.png,0,0.0,0.0,0,38,38,38,,,,,,,,,,,,,76.7499743000003,-2.569999969637138e-05,5,1.229193099999975,109.3476854999999,109.3476854999999,109.3476854999999,109.3476854999999,109.3476854999999,109.3476854999999,109.3476854999999,109.3476854999999,109.3476854999999,109.3476854999999,003,P002,2025_Jan_18_0931,ConditionRich,2021.2.3,59.92717649518156,
80.0,80.75,15,0.75,Stimuli/P002/sun_bfzoxbkvsfqxsyle.jpg,0,0.0,0.0,0,39,39,39,,,,,,,,,,,,,80.00183330000027,0.0018333000002712652,None,,112.60054330000003,112.60054330000003,112.60054330000003,112.60054330000003,112.60054330000003,112.60054330000003,112.60054330000003,112.60054330000003,112.60054330000003,112.60054330000003,003,P002,2025_Jan_18_0931,ConditionRich,2021.2.3,59.92717649518156,
80.75,84.0,41,0.0,Stimuli/Blank.png,1,1.25,2.0,0,40,40,40,,,,,,,,,,,,,80.7525071,0.002507100000002538,1,1.5965891999999258,113.35127859999966,113.35127859999966,113.35127859999966,113.35127859999966,113.35127859999966,113.35127859999966,114.58562159999974,115.33631250000008,113.35127859999966,113.35127859999966,003,P002,2025_Jan_18_0931,ConditionRich,2021.2.3,59.92717649518156,
84.0,100.0,0,0.0,Stimuli/Blank.png,1,7.0,7.75,0,41,41,41,,,,,,,,,,,,,84.00587130000031,0.005871300000308111,5,13.972742299999936,116.60407709999981,116.60407709999981,116.60407709999981,116.60407709999981,116.60407709999981,116.60407709999981,123.59354589999975,124.34420769999997,116.60407709999981,116.60407709999981,003,P002,2025_Jan_18_0931,ConditionRich,2021.2.3,59.92717649518156,
100.0,100.75,29,0.75,Stimuli/P002/things_grinder_01b.jpg,0,0.0,0.0,0,42,42,42,,,,,,,,,,,,,100.00515150000001,0.005151500000010856,None,,132.61816379999982,132.61816379999982,132.61816379999982,132.61816379999982,132.61816379999982,132.61816379999982,132.61816379999982,132.61816379999982,132.61816379999982,132.61816379999982,003,P002,2025_Jan_18_0931,ConditionRich,2021.2.3,59.92717649518156,
100.75,104.0,41,0.0,Stimuli/Blank.png,1,1.25,2.0,0,43,43,43,,,,,,,,,,,,,100.77090679999992,0.020906799999920622,1,1.6229516999997031,133.36882109999988,133.36882109999988,133.36882109999988,133.36882109999988,133.36882109999988,133.36882109999988,134.60322749999978,135.35389609999993,133.36882109999988,133.36882109999988,003,P002,2025_Jan_18_0931,ConditionRich,2021.2.3,59.92717649518156,
104.0,104.75,26,0.75,Stimuli/P002/things_dish_01b.jpg,0,0.0,0.0,0,44,44,44,,,,,,,,,,,,,104.00632279999991,0.006322799999907147,None,,136.6049992999997,136.6049992999997,136.6049992999997,136.6049992999997,136.6049992999997,136.6049992999997,136.6049992999997,136.6049992999997,136.6049992999997,136.6049992999997,003,P002,2025_Jan_18_0931,ConditionRich,2021.2.3,59.92717649518156,
104.75,108.0,41,0.0,Stimuli/Blank.png,0,0.0,0.0,0,45,45,45,,,,,,,,,,,,,104.75929380000025,0.009293800000250485,5,3.204422799999975,137.37234689999968,137.37234689999968,137.37234689999968,137.37234689999968,137.37234689999968,137.37234689999968,137.37234689999968,137.37234689999968,137.37234689999968,137.37234689999968,003,P002,2025_Jan_18_0931,ConditionRich,2021.2.3,59.92717649518156,
108.0,108.75,22,0.75,Stimuli/P002/things_boy_01b.jpg,1,0.0,0.75,0,46,46,46,,,,,,,,,,,,,108.02963510000018,0.029635100000177772,1,0.41755079999984446,140.6423338999998,140.6423338999998,140.6423338999998,140.6423338999998,140.6423338999998,140.6423338999998,140.6423338999998,None,140.6423338999998,140.6423338999998,003,P002,2025_Jan_18_0931,ConditionRich,2021.2.3,59.92717649518156,
108.75,112.0,41,0.0,Stimuli/Blank.png,0,0.0,0.0,0,47,47,47,,,,,,,,,,,,,108.77802169999995,0.028021699999953853,5,3.2010049000000436,141.37584359999983,141.37584359999983,141.37584359999983,141.37584359999983,141.37584359999983,141.37584359999983,141.37584359999983,141.37584359999983,141.37584359999983,141.37584359999983,003,P002,2025_Jan_18_0931,ConditionRich,2021.2.3,59.92717649518156,
112.0,112.75,37,0.75,Stimuli/P002/things_starfish_01b.jpg,0,0.0,0.0,0,48,48,48,,,,,,,,,,,,,112.01397470000029,0.013974700000289886,None,,144.62873039999977,144.62873039999977,144.62873039999977,144.62873039999977,144.62873039999977,144.62873039999977,144.62873039999977,144.62873039999977,144.62873039999977,144.62873039999977,003,P002,2025_Jan_18_0931,ConditionRich,2021.2.3,59.92717649518156,
112.75,116.0,41,0.0,Stimuli/Blank.png,0,0.0,0.0,0,49,49,49,,,,,,,,,,,,,112.7813242000002,0.0313242000001992,5,1.1974366999997983,145.3793897999999,145.3793897999999,145.3793897999999,145.3793897999999,145.3793897999999,145.3793897999999,145.3793897999999,145.3793897999999,145.3793897999999,145.3793897999999,003,P002,2025_Jan_18_0931,ConditionRich,2021.2.3,59.92717649518156,
116.0,116.75,18,0.75,Stimuli/P002/sun_bzjegfvyrvqtunza.jpg,0,0.0,0.0,0,50,50,50,,,,,,,,,,,,,116.00027180000006,0.0002718000000641041,None,,148.59888909999972,148.59888909999972,148.59888909999972,148.59888909999972,148.59888909999972,148.59888909999972,148.59888909999972,148.59888909999972,148.59888909999972,148.59888909999972,003,P002,2025_Jan_18_0931,ConditionRich,2021.2.3,59.92717649518156,
116.75,120.0,41,0.0,Stimuli/Blank.png,0,0.0,0.0,0,51,51,51,,,,,,,,,,,,,116.75100019999991,0.001000199999907636,5,1.2272036000003936,149.34954679999964,149.34954679999964,149.34954679999964,149.34954679999964,149.34954679999964,149.34954679999964,149.34954679999964,149.34954679999964,149.34954679999964,149.34954679999964,003,P002,2025_Jan_18_0931,ConditionRich,2021.2.3,59.92717649518156,
120.0,120.75,21,0.75,Stimuli/P002/things_baby_01b.jpg,0,0.0,0.0,0,52,52,52,,,,,,,,,,,,,120.00483660000009,0.004836600000089675,None,,152.6190692,152.6190692,152.6190692,152.6190692,152.6190692,152.6190692,152.6190692,152.6190692,152.6190692,152.6190692,003,P002,2025_Jan_18_0931,ConditionRich,2021.2.3,59.92717649518156,
120.75,124.0,41,0.0,Stimuli/Blank.png,1,2.25,3.0,0,53,53,53,,,,,,,,,,,,,120.77181900000005,0.021819000000050437,1,2.6200779999999213,153.3697592999997,153.3697592999997,153.3697592999997,153.3697592999997,153.3697592999997,153.3697592999997,155.60504420000007,156.35571320000008,153.3697592999997,153.3697592999997,003,P002,2025_Jan_18_0931,ConditionRich,2021.2.3,59.92717649518156,
124.0,124.75,13,0.75,Stimuli/P002/sun_bfdmlbkyioxnkodb.jpg,0,0.0,0.0,0,54,54,54,,,,,,,,,,,,,124.01015129999996,0.010151299999961338,None,,156.6226259,156.6226259,156.6226259,156.6226259,156.6226259,156.6226259,156.6226259,156.6226259,156.6226259,156.6226259,003,P002,2025_Jan_18_0931,ConditionRich,2021.2.3,59.92717649518156,
124.75,128.0,41,0.0,Stimuli/Blank.png,0,0.0,0.0,0,55,55,55,,,,,,,,,,,,,124.77500559999999,0.02500559999998586,5,3.203457399999934,157.37328249999973,157.37328249999973,157.37328249999973,157.37328249999973,157.37328249999973,157.37328249999973,157.37328249999973,157.37328249999973,157.37328249999973,157.37328249999973,003,P002,2025_Jan_18_0931,ConditionRich,2021.2.3,59.92717649518156,
128.0,128.75,8,0.75,Stimuli/P002/sun_asqboyqakusycvwd.jpg,0,0.0,0.0,0,56,56,56,,,,,,,,,,,,,128.01083139999992,0.010831399999915448,None,,160.6094533999999,160.6094533999999,160.6094533999999,160.6094533999999,160.6094533999999,160.6094533999999,160.6094533999999,160.6094533999999,160.6094533999999,160.6094533999999,003,P002,2025_Jan_18_0931,ConditionRich,2021.2.3,59.92717649518156,
128.75,132.0,41,0.0,Stimuli/Blank.png,0,0.0,0.0,0,57,57,57,,,,,,,,,,,,,128.76207860000022,0.01207860000022265,5,3.216648499999792,161.3601246999997,161.3601246999997,161.3601246999997,161.3601246999997,161.3601246999997,161.3601246999997,161.3601246999997,161.3601246999997,161.3601246999997,161.3601246999997,003,P002,2025_Jan_18_0931,ConditionRich,2021.2.3,59.92717649518156,
132.0,132.75,12,0.75,Stimuli/P002/sun_bdxvmnlyovhqognn.jpg,0,0.0,0.0,0,58,58,58,,,,,,,,,,,,,132.01477030000024,0.014770300000236603,None,,164.61298169999964,164.61298169999964,164.61298169999964,164.61298169999964,164.61298169999964,164.61298169999964,164.61298169999964,164.61298169999964,164.61298169999964,164.61298169999964,003,P002,2025_Jan_18_0931,ConditionRich,2021.2.3,59.92717649518156,
132.75,136.0,41,0.0,Stimuli/Blank.png,0,0.0,0.0,0,59,59,59,,,,,,,,,,,,,132.76497419999987,0.014974199999869597,5,1.2130004000000554,165.36364259999982,165.36364259999982,165.36364259999982,165.36364259999982,165.36364259999982,165.36364259999982,165.36364259999982,165.36364259999982,165.36364259999982,165.36364259999982,003,P002,2025_Jan_18_0931,ConditionRich,2021.2.3,59.92717649518156,
136.0,136.75,2,0.75,Stimuli/P002/sun_akmxsxepquhynflp.jpg,0,0.0,0.0,0,60,60,60,,,,,,,,,,,,,136.00127520000024,0.0012752000002365094,None,,168.61650239999972,168.61650239999972,168.61650239999972,168.61650239999972,168.61650239999972,168.61650239999972,168.61650239999972,168.61650239999972,168.61650239999972,168.61650239999972,003,P002,2025_Jan_18_0931,ConditionRich,2021.2.3,59.92717649518156,
136.75,140.0,41,0.0,Stimuli/Blank.png,0,0.0,0.0,0,61,61,61,,,,,,,,,,,,,136.7696890000002,0.019689000000198575,5,1.2096310000001722,169.36717039999985,169.36717039999985,169.36717039999985,169.36717039999985,169.36717039999985,169.36717039999985,169.36717039999985,169.36717039999985,169.36717039999985,169.36717039999985,003,P002,2025_Jan_18_0931,ConditionRich,2021.2.3,59.92717649518156,
140.0,140.75,33,0.75,Stimuli/P002/things_pan_01b.jpg,0,0.0,0.0,0,62,62,62,,,,,,,,,,,,,140.0054771,0.00547710000000734,None,,172.6033413,172.6033413,172.6033413,172.6033413,172.6033413,172.6033413,172.6033413,172.6033413,172.6033413,172.6033413,003,P002,2025_Jan_18_0931,ConditionRich,2021.2.3,59.92717649518156,
140.75,144.0,41,0.0,Stimuli/Blank.png,0,0.0,0.0,0,63,63,63,,,,,,,,,,,,,140.7555255000002,0.005525500000203465,5,1.2229050000000825,173.35400789999994,173.35400789999994,173.35400789999994,173.35400789999994,173.35400789999994,173.35400789999994,173.35400789999994,173.35400789999994,173.35400789999994,173.35400789999994,003,P002,2025_Jan_18_0931,ConditionRich,2021.2.3,59.92717649518156,
144.0,144.75,14,0.75,Stimuli/P002/sun_bfgxassmmvhtarcc.jpg,0,0.0,0.0,0,64,64,64,,,,,,,,,,,,,144.00879900000018,0.008799000000180968,None,,176.60686699999997,176.60686699999997,176.60686699999997,176.60686699999997,176.60686699999997,176.60686699999997,176.60686699999997,176.60686699999997,176.60686699999997,176.60686699999997,003,P002,2025_Jan_18_0931,ConditionRich,2021.2.3,59.92717649518156,
144.75,148.0,41,0.0,Stimuli/Blank.png,0,0.0,0.0,0,65,65,65,,,,,,,,,,,,,144.75931050000008,0.009310500000083266,5,3.2190738999997848,177.3575354999998,177.3575354999998,177.3575354999998,177.3575354999998,177.3575354999998,177.3575354999998,177.3575354999998,177.3575354999998,177.3575354999998,177.3575354999998,003,P002,2025_Jan_18_0931,ConditionRich,2021.2.3,59.92717649518156,
148.0,148.75,24,0.75,Stimuli/P002/things_cornucopia_01b.jpg,0,0.0,0.0,0,66,66,66,,,,,,,,,,,,,148.0117167000003,0.011716700000306446,None,,180.61039540000002,180.61039540000002,180.61039540000002,180.61039540000002,180.61039540000002,180.61039540000002,180.61039540000002,180.61039540000002,180.61039540000002,180.61039540000002,003,P002,2025_Jan_18_0931,ConditionRich,2021.2.3,59.92717649518156,
148.75,152.0,41,0.0,Stimuli/Blank.png,0,0.0,0.0,0,67,67,67,,,,,,,,,,,,,148.76256599999988,0.01256599999987884,5,3.2156527000001915,181.36104829999977,181.36104829999977,181.36104829999977,181.36104829999977,181.36104829999977,181.36104829999977,181.36104829999977,181.36104829999977,181.36104829999977,181.36104829999977,003,P002,2025_Jan_18_0931,ConditionRich,2021.2.3,59.92717649518156,
152.0,152.75,3,0.75,Stimuli/P002/sun_amarqtinchblqmah.jpg,0,0.0,0.0,0,68,68,68,,,,,,,,,,,,,152.01544060000015,0.015440600000147242,None,,184.61390919999985,184.61390919999985,184.61390919999985,184.61390919999985,184.61390919999985,184.61390919999985,184.61390919999985,184.61390919999985,184.61390919999985,184.61390919999985,003,P002,2025_Jan_18_0931,ConditionRich,2021.2.3,59.92717649518156,
152.75,156.0,41,0.0,Stimuli/Blank.png,0,0.0,0.0,0,69,69,69,,,,,,,,,,,,,152.75007210000012,7.210000012491946e-05,5,3.2121557000000394,185.3645889999998,185.3645889999998,185.3645889999998,185.3645889999998,185.3645889999998,185.3645889999998,185.3645889999998,185.3645889999998,185.3645889999998,185.3645889999998,003,P002,2025_Jan_18_0931,ConditionRich,2021.2.3,59.92717649518156,
156.0,156.75,36,0.75,Stimuli/P002/things_stalagmite_01b.jpg,0,0.0,0.0,0,70,70,70,,,,,,,,,,,,,156.0190075999999,0.01900759999989532,None,,188.61743039999965,188.61743039999965,188.61743039999965,188.61743039999965,188.61743039999965,188.61743039999965,188.61743039999965,188.61743039999965,188.61743039999965,188.61743039999965,003,P002,2025_Jan_18_0931,ConditionRich,2021.2.3,59.92717649518156,
156.75,160.0,41,0.0,Stimuli/Blank.png,0,0.0,0.0,0,71,71,71,,,,,,,,,,,,,156.7530200000001,0.003020000000105938,5,1.225123100000019,189.35141999999996,189.35141999999996,189.35141999999996,189.35141999999996,189.35141999999996,189.35141999999996,189.35141999999996,189.35141999999996,189.35141999999996,189.35141999999996,003,P002,2025_Jan_18_0931,ConditionRich,2021.2.3,59.92717649518156,
160.0,160.75,35,0.75,Stimuli/P002/things_pepperoni_01b.jpg,0,0.0,0.0,0,72,72,72,,,,,,,,,,,,,160.00641470000028,0.006414700000277662,None,,192.62096669999983,192.62096669999983,192.62096669999983,192.62096669999983,192.62096669999983,192.62096669999983,192.62096669999983,192.62096669999983,192.62096669999983,192.62096669999983,003,P002,2025_Jan_18_0931,ConditionRich,2021.2.3,59.92717649518156,
160.75,164.0,41,0.0,Stimuli/Blank.png,0,0.0,0.0,0,73,73,73,,,,,,,,,,,,,160.7738204000002,0.023820400000204245,5,1.2051791999997477,193.37162669999998,193.37162669999998,193.37162669999998,193.37162669999998,193.37162669999998,193.37162669999998,193.37162669999998,193.37162669999998,193.37162669999998,193.37162669999998,003,P002,2025_Jan_18_0931,ConditionRich,2021.2.3,59.92717649518156,
164.0,164.75,6,0.75,Stimuli/P002/sun_aqbaaqeojrexbmcr.jpg,0,0.0,0.0,0,74,74,74,,,,,,,,,,,,,164.01052710000022,0.010527100000217615,None,,196.6244732,196.6244732,196.6244732,196.6244732,196.6244732,196.6244732,196.6244732,196.6244732,196.6244732,196.6244732,003,P002,2025_Jan_18_0931,ConditionRich,2021.2.3,59.92717649518156,
164.75,168.0,41,0.0,Stimuli/Blank.png,0,0.0,0.0,0,75,75,75,,,,,,,,,,,,,164.77879699999994,0.028796999999940454,5,3.1847257999997964,197.3918375999997,197.3918375999997,197.3918375999997,197.3918375999997,197.3918375999997,197.3918375999997,197.3918375999997,197.3918375999997,197.3918375999997,197.3918375999997,003,P002,2025_Jan_18_0931,ConditionRich,2021.2.3,59.92717649518156,
168.0,168.75,11,0.75,Stimuli/P002/sun_bbfdgdyeqdnadvvi.jpg,0,0.0,0.0,0,76,76,76,,,,,,,,,,,,,168.0296315999999,0.02963159999990239,None,,200.62799919999998,200.62799919999998,200.62799919999998,200.62799919999998,200.62799919999998,200.62799919999998,200.62799919999998,200.62799919999998,200.62799919999998,200.62799919999998,003,P002,2025_Jan_18_0931,ConditionRich,2021.2.3,59.92717649518156,
168.75,172.0,41,0.0,Stimuli/Blank.png,1,0.25,1.0,0,77,77,77,,,,,,,,,,,,,168.76362569999992,0.013625699999920471,5,1.2145198999996865,201.36198399999967,201.36198399999967,201.36198399999967,201.36198399999967,201.36198399999967,201.36198399999967,201.59549949999973,202.34620399999994,201.36198399999967,201.36198399999967,003,P002,2025_Jan_18_0931,ConditionRich,2021.2.3,59.92717649518156,
172.0,172.75,20,0.75,Stimuli/P002/sun_dkgctqgpvxbaoyks.jpg,0,0.0,0.0,0,78,78,78,,,,,,,,,,,,,172.00002640000002,2.6400000024295878e-05,None,,204.59817179999982,204.59817179999982,204.59817179999982,204.59817179999982,204.59817179999982,204.59817179999982,204.59817179999982,204.59817179999982,204.59817179999982,204.59817179999982,003,P002,2025_Jan_18_0931,ConditionRich,2021.2.3,59.92717649518156,
172.75,176.0,41,0.0,Stimuli/Blank.png,1,0.25,1.0,0,79,79,79,,,,,,,,,,,,,172.75066259999994,0.0006625999999414489,5,1.2277149999999892,205.34881719999976,205.34881719999976,205.34881719999976,205.34881719999976,205.34881719999976,205.34881719999976,205.58241539999972,206.33300659999986,205.34881719999976,205.34881719999976,003,P002,2025_Jan_18_0931,ConditionRich,2021.2.3,59.92717649518156,
176.0,176.75,27,0.75,Stimuli/P002/things_dynamite_01b.jpg,0,0.0,0.0,0,80,80,80,,,,,,,,,,,,,176.0038738000003,0.003873800000292249,None,,208.61836029999995,208.61836029999995,208.61836029999995,208.61836029999995,208.61836029999995,208.61836029999995,208.61836029999995,208.61836029999995,208.61836029999995,208.61836029999995,003,P002,2025_Jan_18_0931,ConditionRich,2021.2.3,59.92717649518156,
176.75,180.0,41,0.0,Stimuli/Blank.png,0,0.0,0.0,0,81,81,81,,,,,,,,,,,,,176.7715336000001,0.02153360000011162,5,1.2075080999998136,209.36901979999993,209.36901979999993,209.36901979999993,209.36901979999993,209.36901979999993,209.36901979999993,209.36901979999993,209.36901979999993,209.36901979999993,209.36901979999993,003,P002,2025_Jan_18_0931,ConditionRich,2021.2.3,59.92717649518156,
180.0,196.0,0,0.0,Stimuli/Blank.png,1,13.0,13.75,0,82,82,82,,,,,,,,,,,,,180.00971299999992,0.009712999999919703,5,15.95471409999982,212.62189949999993,212.62189949999993,212.62189949999993,212.62189949999993,212.62189949999993,212.62189949999993,225.59996210000008,226.35066060000008,212.62189949999993,212.62189949999993,003,P002,2025_Jan_18_0931,ConditionRich,2021.2.3,59.92717649518156,
196.0,196.75,4,0.75,Stimuli/P002/sun_aonjwqswdblhlpkm.jpg,1,0.0,0.75,0,83,83,83,,,,,,,,,,,,,196.0214347000001,0.021434700000099838,1,0.4422996000002968,228.61929759999975,228.61929759999975,228.61929759999975,228.61929759999975,228.61929759999975,228.61929759999975,228.61929759999975,None,228.61929759999975,228.61929759999975,003,P002,2025_Jan_18_0931,ConditionRich,2021.2.3,59.92717649518156,
196.75,200.0,41,0.0,Stimuli/Blank.png,0,0.0,0.0,0,84,84,84,,,,,,,,,,,,,196.755357,0.005357000000003609,5,1.223424100000102,229.3532750999998,229.3532750999998,229.3532750999998,229.3532750999998,229.3532750999998,229.3532750999998,229.3532750999998,229.3532750999998,229.3532750999998,229.3532750999998,003,P002,2025_Jan_18_0931,ConditionRich,2021.2.3,59.92717649518156,
200.0,200.75,3,0.75,Stimuli/P002/sun_amarqtinchblqmah.jpg,0,0.0,0.0,0,85,85,85,,,,,,,,,,,,,200.00943970000026,0.00943970000025729,None,,232.62282060000007,232.62282060000007,232.62282060000007,232.62282060000007,232.62282060000007,232.62282060000007,232.62282060000007,232.62282060000007,232.62282060000007,232.62282060000007,003,P002,2025_Jan_18_0931,ConditionRich,2021.2.3,59.92717649518156,
200.75,204.0,41,0.0,Stimuli/Blank.png,0,0.0,0.0,0,86,86,86,,,,,,,,,,,,,200.77527439999994,0.025274399999943853,5,3.2030923000002076,233.37349339999992,233.37349339999992,233.37349339999992,233.37349339999992,233.37349339999992,233.37349339999992,233.37349339999992,233.37349339999992,233.37349339999992,233.37349339999992,003,P002,2025_Jan_18_0931,ConditionRich,2021.2.3,59.92717649518156,
204.0,204.75,21,0.75,Stimuli/P002/things_baby_01b.jpg,0,0.0,0.0,0,87,87,87,,,,,,,,,,,,,204.01141880000023,0.011418800000228657,None,,236.62634919999982,236.62634919999982,236.62634919999982,236.62634919999982,236.62634919999982,236.62634919999982,236.62634919999982,236.62634919999982,236.62634919999982,236.62634919999982,003,P002,2025_Jan_18_0931,ConditionRich,2021.2.3,59.92717649518156,
204.75,208.0,41,0.0,Stimuli/Blank.png,0,0.0,0.0,0,88,88,88,,,,,,,,,,,,,204.77897680000024,0.028976800000236835,5,3.199495200000001,237.37701309999966,237.37701309999966,237.37701309999966,237.37701309999966,237.37701309999966,237.37701309999966,237.37701309999966,237.37701309999966,237.37701309999966,237.37701309999966,003,P002,2025_Jan_18_0931,ConditionRich,2021.2.3,59.92717649518156,
208.0,208.75,12,0.75,Stimuli/P002/sun_bdxvmnlyovhqognn.jpg,0,0.0,0.0,0,89,89,89,,,,,,,,,,,,,208.0148893999999,0.014889399999901798,None,,240.6131790999998,240.6131790999998,240.6131790999998,240.6131790999998,240.6131790999998,240.6131790999998,240.6131790999998,240.6131790999998,240.6131790999998,240.6131790999998,003,P002,2025_Jan_18_0931,ConditionRich,2021.2.3,59.92717649518156,
208.75,212.0,41,0.0,Stimuli/Blank.png,0,0.0,0.0,0,90,90,90,,,,,,,,,,,,,208.7658005000003,0.01580050000029587,5,1.2125574000001507,241.36384429999998,241.36384429999998,241.36384429999998,241.36384429999998,241.36384429999998,241.36384429999998,241.36384429999998,241.36384429999998,241.36384429999998,241.36384429999998,003,P002,2025_Jan_18_0931,ConditionRich,2021.2.3,59.92717649518156,
212.0,212.75,32,0.75,Stimuli/P002/things_oyster_01b.jpg,0,0.0,0.0,0,91,91,91,,,,,,,,,,,,,212.00394730000016,0.003947300000163523,None,,244.61670749999985,244.61670749999985,244.61670749999985,244.61670749999985,244.61670749999985,244.61670749999985,244.61670749999985,244.61670749999985,244.61670749999985,244.61670749999985,003,P002,2025_Jan_18_0931,ConditionRich,2021.2.3,59.92717649518156,
212.75,216.0,41,0.0,Stimuli/Blank.png,1,0.25,1.0,0,92,92,92,,,,,,,,,,,,,212.7686974000003,0.018697400000291964,5,1.2091858000003413,245.3673592,245.3673592,245.3673592,245.3673592,245.3673592,245.3673592,245.6009242,246.35156329999973,245.3673592,245.3673592,003,P002,2025_Jan_18_0931,ConditionRich,2021.2.3,59.92717649518156,
216.0,216.75,33,0.75,Stimuli/P002/things_pan_01b.jpg,0,0.0,0.0,0,93,93,93,,,,,,,,,,,,,216.00485070000013,0.004850700000133656,None,,248.60355049999998,248.60355049999998,248.60355049999998,248.60355049999998,248.60355049999998,248.60355049999998,248.60355049999998,248.60355049999998,248.60355049999998,248.60355049999998,003,P002,2025_Jan_18_0931,ConditionRich,2021.2.3,59.92717649518156,
216.75,220.0,41,0.0,Stimuli/Blank.png,0,0.0,0.0,0,94,94,94,,,,,,,,,,,,,216.7559110000002,0.005911000000196509,5,1.2219297000001461,249.35470199999963,249.35470199999963,249.35470199999963,249.35470199999963,249.35470199999963,249.35470199999963,249.35470199999963,249.35470199999963,249.35470199999963,249.35470199999963,003,P002,2025_Jan_18_0931,ConditionRich,2021.2.3,59.92717649518156,
220.0,220.75,20,0.75,Stimuli/P002/sun_dkgctqgpvxbaoyks.jpg,0,0.0,0.0,0,95,95,95,,,,,,,,,,,,,220.00865169999997,0.008651699999973061,None,,252.60707860000002,252.60707860000002,252.60707860000002,252.60707860000002,252.60707860000002,252.60707860000002,252.60707860000002,252.60707860000002,252.60707860000002,252.60707860000002,003,P002,2025_Jan_18_0931,ConditionRich,2021.2.3,59.92717649518156,
220.75,224.0,41,0.0,Stimuli/Blank.png,0,0.0,0.0,0,96,96,96,,,,,,,,,,,,,220.76005750000013,0.010057500000129949,5,3.2185684999999467,253.35772819999966,253.35772819999966,253.35772819999966,253.35772819999966,253.35772819999966,253.35772819999966,253.35772819999966,253.35772819999966,253.35772819999966,253.35772819999966,003,P002,2025_Jan_18_0931,ConditionRich,2021.2.3,59.92717649518156,
224.0,224.75,24,0.75,Stimuli/P002/things_cornucopia_01b.jpg,0,0.0,0.0,0,97,97,97,,,,,,,,,,,,,224.0143782,0.01437820000001011,None,,256.62727449999966,256.62727449999966,256.62727449999966,256.62727449999966,256.62727449999966,256.62727449999966,256.62727449999966,256.62727449999966,256.62727449999966,256.62727449999966,003,P002,2025_Jan_18_0931,ConditionRich,2021.2.3,59.92717649518156,
224.75,228.0,41,0.0,Stimuli/Blank.png,0,0.0,0.0,0,98,98,98,,,,,,,,,,,,,224.7792145000003,0.029214500000307453,5,3.198510400000032,257.3779291999999,257.3779291999999,257.3779291999999,257.3779291999999,257.3779291999999,257.3779291999999,257.3779291999999,257.3779291999999,257.3779291999999,257.3779291999999,003,P002,2025_Jan_18_0931,ConditionRich,2021.2.3,59.92717649518156,
228.0,228.75,30,0.75,Stimuli/P002/things_iguana_01b.jpg,0,0.0,0.0,0,99,99,99,,,,,,,,,,,,,228.0157637000002,0.01576370000020688,None,,260.6308184999998,260.6308184999998,260.6308184999998,260.6308184999998,260.6308184999998,260.6308184999998,260.6308184999998,260.6308184999998,260.6308184999998,260.6308184999998,003,P002,2025_Jan_18_0931,ConditionRich,2021.2.3,59.92717649518156,
228.75,232.0,41,0.0,Stimuli/Blank.png,1,2.25,3.0,0,100,100,100,,,,,,,,,,,,,228.7686417,0.018641699999989214,5,3.1950329000001148,261.3814576999998,261.3814576999998,261.3814576999998,261.3814576999998,261.3814576999998,261.3814576999998,263.61675179999975,264.36741379999967,261.3814576999998,261.3814576999998,003,P002,2025_Jan_18_0931,ConditionRich,2021.2.3,59.92717649518156,
232.0,232.75,39,0.75,Stimuli/P002/things_woman_01b.jpg,0,0.0,0.0,0,101,101,101,,,,,,,,,,,,,232.02016619999995,0.02016619999994873,None,,264.6343139999999,264.6343139999999,264.6343139999999,264.6343139999999,264.6343139999999,264.6343139999999,264.6343139999999,264.6343139999999,264.6343139999999,264.6343139999999,003,P002,2025_Jan_18_0931,ConditionRich,2021.2.3,59.92717649518156,
232.75,236.0,41,0.0,Stimuli/Blank.png,0,0.0,0.0,0,102,102,102,,,,,,,,,,,,,232.77021259999992,0.02021259999992253,5,1.2081780000003164,265.36829209999996,265.36829209999996,265.36829209999996,265.36829209999996,265.36829209999996,265.36829209999996,265.36829209999996,265.36829209999996,265.36829209999996,265.36829209999996,003,P002,2025_Jan_18_0931,ConditionRich,2021.2.3,59.92717649518156,
236.0,236.75,28,0.75,Stimuli/P002/things_girl_01b.jpg,0,0.0,0.0,0,103,103,103,,,,,,,,,,,,,236.00879170000007,0.008791700000074343,None,,268.6211586999998,268.6211586999998,268.6211586999998,268.6211586999998,268.6211586999998,268.6211586999998,268.6211586999998,268.6211586999998,268.6211586999998,268.6211586999998,003,P002,2025_Jan_18_0931,ConditionRich,2021.2.3,59.92717649518156,
236.75,240.0,41,0.0,Stimuli/Blank.png,0,0.0,0.0,0,104,104,104,,,,,,,,,,,,,236.774136,0.024135999999998603,5,1.2057329000003847,269.37183389999973,269.37183389999973,269.37183389999973,269.37183389999973,269.37183389999973,269.37183389999973,269.37183389999973,269.37183389999973,269.37183389999973,269.37183389999973,003,P002,2025_Jan_18_0931,ConditionRich,2021.2.3,59.92717649518156,
240.0,240.75,2,0.75,Stimuli/P002/sun_akmxsxepquhynflp.jpg,0,0.0,0.0,0,105,105,105,,,,,,,,,,,,,240.00969710000027,0.0096971000002668,None,,272.60800070000005,272.60800070000005,272.60800070000005,272.60800070000005,272.60800070000005,272.60800070000005,272.60800070000005,272.60800070000005,272.60800070000005,272.60800070000005,003,P002,2025_Jan_18_0931,ConditionRich,2021.2.3,59.92717649518156,
240.75,244.0,41,0.0,Stimuli/Blank.png,0,0.0,0.0,0,106,106,106,,,,,,,,,,,,,240.76063729999987,0.010637299999871175,5,3.2187168000000383,273.3586676,273.3586676,273.3586676,273.3586676,273.3586676,273.3586676,273.3586676,273.3586676,273.3586676,273.3586676,003,P002,2025_Jan_18_0931,ConditionRich,2021.2.3,59.92717649518156,
244.0,244.75,9,0.75,Stimuli/P002/sun_awtltwwpwbepuuqv.jpg,0,0.0,0.0,0,107,107,107,,,,,,,,,,,,,244.01366570000027,0.013665700000274228,None,,276.62820310000006,276.62820310000006,276.62820310000006,276.62820310000006,276.62820310000006,276.62820310000006,276.62820310000006,276.62820310000006,276.62820310000006,276.62820310000006,003,P002,2025_Jan_18_0931,ConditionRich,2021.2.3,59.92717649518156,
244.75,248.0,41,0.0,Stimuli/Blank.png,0,0.0,0.0,0,108,108,108,,,,,,,,,,,,,244.78064480000012,0.030644800000118266,5,1.1983150999999452,277.37893080000003,277.37893080000003,277.37893080000003,277.37893080000003,277.37893080000003,277.37893080000003,277.37893080000003,277.37893080000003,277.37893080000003,277.37893080000003,003,P002,2025_Jan_18_0931,ConditionRich,2021.2.3,59.92717649518156,
248.0,248.75,16,0.75,Stimuli/P002/sun_biqyomkjbujnppuf.jpg,0,0.0,0.0,0,109,109,109,,,,,,,,,,,,,248.00008900000012,8.900000011635711e-05,None,,280.59838179999997,280.59838179999997,280.59838179999997,280.59838179999997,280.59838179999997,280.59838179999997,280.59838179999997,280.59838179999997,280.59838179999997,280.59838179999997,003,P002,2025_Jan_18_0931,ConditionRich,2021.2.3,59.92717649518156,
248.75,252.0,41,0.0,Stimuli/Blank.png,0,0.0,0.0,0,110,110,110,,,,,,,,,,,,,248.75088760000017,0.0008876000001691864,5,1.2284503999999288,281.3490277000001,281.3490277000001,281.3490277000001,281.3490277000001,281.3490277000001,281.3490277000001,281.3490277000001,281.3490277000001,281.3490277000001,281.3490277000001,003,P002,2025_Jan_18_0931,ConditionRich,2021.2.3,59.92717649518156,
252.0,252.75,29,0.75,Stimuli/P002/things_grinder_01b.jpg,0,0.0,0.0,0,111,111,111,,,,,,,,,,,,,252.00324920000003,0.0032492000000274857,None,,284.6018906999998,284.6018906999998,284.6018906999998,284.6018906999998,284.6018906999998,284.6018906999998,284.6018906999998,284.6018906999998,284.6018906999998,284.6018906999998,003,P002,2025_Jan_18_0931,ConditionRich,2021.2.3,59.92717649518156,
252.75,256.0,41,0.0,Stimuli/Blank.png,0,0.0,0.0,0,112,112,112,,,,,,,,,,,,,252.75515070000029,0.005150700000285724,5,1.2247287000000142,285.3525550999998,285.3525550999998,285.3525550999998,285.3525550999998,285.3525550999998,285.3525550999998,285.3525550999998,285.3525550999998,285.3525550999998,285.3525550999998,003,P002,2025_Jan_18_0931,ConditionRich,2021.2.3,59.92717649518156,
256.0,256.75,7,0.75,Stimuli/P002/sun_arlesyjqxmqmcccl.jpg,0,0.0,0.0,0,113,113,113,,,,,,,,,,,,,256.0071705999999,0.007170599999881233,None,,288.60541109999986,288.60541109999986,288.60541109999986,288.60541109999986,288.60541109999986,288.60541109999986,288.60541109999986,288.60541109999986,288.60541109999986,288.60541109999986,003,P002,2025_Jan_18_0931,ConditionRich,2021.2.3,59.92717649518156,
256.75,260.0,41,0.0,Stimuli/Blank.png,0,0.0,0.0,0,114,114,114,,,,,,,,,,,,,256.75816970000005,0.008169700000053126,5,3.2212068999997427,289.3560680999999,289.3560680999999,289.3560680999999,289.3560680999999,289.3560680999999,289.3560680999999,289.3560680999999,289.3560680999999,289.3560680999999,289.3560680999999,003,P002,2025_Jan_18_0931,ConditionRich,2021.2.3,59.92717649518156,
260.0,260.75,11,0.75,Stimuli/P002/sun_bbfdgdyeqdnadvvi.jpg,0,0.0,0.0,0,115,115,115,,,,,,,,,,,,,260.01019410000026,0.010194100000262551,None,,292.60893629999964,292.60893629999964,292.60893629999964,292.60893629999964,292.60893629999964,292.60893629999964,292.60893629999964,292.60893629999964,292.60893629999964,292.60893629999964,003,P002,2025_Jan_18_0931,ConditionRich,2021.2.3,59.92717649518156,
260.75,264.0,41,0.0,Stimuli/Blank.png,0,0.0,0.0,0,116,116,116,,,,,,,,,,,,,260.76113209999994,0.011132099999940692,5,3.217723300000216,293.3595925999998,293.3595925999998,293.3595925999998,293.3595925999998,293.3595925999998,293.3595925999998,293.3595925999998,293.3595925999998,293.3595925999998,293.3595925999998,003,P002,2025_Jan_18_0931,ConditionRich,2021.2.3,59.92717649518156,
264.0,264.75,34,0.75,Stimuli/P002/things_parrot_01b.jpg,0,0.0,0.0,0,117,117,117,,,,,,,,,,,,,264.0150985999999,0.01509859999987384,None,,296.6291176999998,296.6291176999998,296.6291176999998,296.6291176999998,296.6291176999998,296.6291176999998,296.6291176999998,296.6291176999998,296.6291176999998,296.6291176999998,003,P002,2025_Jan_18_0931,ConditionRich,2021.2.3,59.92717649518156,
264.75,268.0,41,0.0,Stimuli/Blank.png,1,1.25,2.0,0,118,118,118,,,,,,,,,,,,,264.764537,0.014537000000018452,1,1.5961906000002273,297.3631416999997,297.3631416999997,297.3631416999997,297.3631416999997,297.3631416999997,297.3631416999997,298.5975533999999,299.3482921,297.3631416999997,297.3631416999997,003,P002,2025_Jan_18_0931,ConditionRich,2021.2.3,59.92717649518156,
268.0,268.75,23,0.75,Stimuli/P002/things_chick_01b.jpg,0,0.0,0.0,0,119,119,119,,,,,,,,,,,,,268.0005903000001,0.0005903000001126202,None,,300.59929829999965,300.59929829999965,300.59929829999965,300.59929829999965,300.59929829999965,300.59929829999965,300.59929829999965,300.59929829999965,300.59929829999965,300.59929829999965,003,P002,2025_Jan_18_0931,ConditionRich,2021.2.3,59.92717649518156,
268.75,272.0,41,0.0,Stimuli/Blank.png,0,0.0,0.0,0,120,120,120,,,,,,,,,,,,,268.7534172999999,0.0034172999999100284,5,3.2105719000001045,301.36664169999995,301.36664169999995,301.36664169999995,301.36664169999995,301.36664169999995,301.36664169999995,301.36664169999995,301.36664169999995,301.36664169999995,301.36664169999995,003,P002,2025_Jan_18_0931,ConditionRich,2021.2.3,59.92717649518156,
272.0,272.75,31,0.75,Stimuli/P002/things_man_01b.jpg,0,0.0,0.0,0,121,121,121,,,,,,,,,,,,,272.0210886,0.02108859999998458,None,,304.63618769999994,304.63618769999994,304.63618769999994,304.63618769999994,304.63618769999994,304.63618769999994,304.63618769999994,304.63618769999994,304.63618769999994,304.63618769999994,003,P002,2025_Jan_18_0931,ConditionRich,2021.2.3,59.92717649518156,
272.75,276.0,41,0.0,Stimuli/Blank.png,1,1.25,2.0,0,122,122,122,,,,,,,,,,,,,272.7721790999999,0.022179099999902974,1,1.6040803000000778,305.3701609,305.3701609,305.3701609,305.3701609,305.3701609,305.3701609,306.6046280999999,307.3552569999997,305.3701609,305.3701609,003,P002,2025_Jan_18_0931,ConditionRich,2021.2.3,59.92717649518156,
276.0,292.0,0,0.0,Stimuli/Blank.png,1,3.0,3.75,0,123,123,123,,,,,,,,,,,,,276.0091677999999,0.009167799999886483,5,13.970928300000196,308.6063458999997,308.6063458999997,308.6063458999997,308.6063458999997,308.6063458999997,308.6063458999997,311.5923023999999,312.3429566,308.6063458999997,308.6063458999997,003,P002,2025_Jan_18_0931,ConditionRich,2021.2.3,59.92717649518156,
292.0,292.75,6,0.75,Stimuli/P002/sun_aqbaaqeojrexbmcr.jpg,0,0.0,0.0,0,124,124,124,,,,,,,,,,,,,292.00584019999997,0.005840199999965989,None,,324.6204408999997,324.6204408999997,324.6204408999997,324.6204408999997,324.6204408999997,324.6204408999997,324.6204408999997,324.6204408999997,324.6204408999997,324.6204408999997,003,P002,2025_Jan_18_0931,ConditionRich,2021.2.3,59.92717649518156,
292.75,296.0,41,0.0,Stimuli/Blank.png,0,0.0,0.0,0,125,125,125,,,,,,,,,,,,,292.77328669999997,0.02328669999997146,5,1.2062627999998767,325.3711054999999,325.3711054999999,325.3711054999999,325.3711054999999,325.3711054999999,325.3711054999999,325.3711054999999,325.3711054999999,325.3711054999999,325.3711054999999,003,P002,2025_Jan_18_0931,ConditionRich,2021.2.3,59.92717649518156,
296.0,296.75,27,0.75,Stimuli/P002/things_dynamite_01b.jpg,0,0.0,0.0,0,126,126,126,,,,,,,,,,,,,296.01002500000004,0.010025000000041473,None,,328.6239722999999,328.6239722999999,328.6239722999999,328.6239722999999,328.6239722999999,328.6239722999999,328.6239722999999,328.6239722999999,328.6239722999999,328.6239722999999,003,P002,2025_Jan_18_0931,ConditionRich,2021.2.3,59.92717649518156,
296.75,300.0,41,0.0,Stimuli/Blank.png,0,0.0,0.0,0,127,127,127,,,,,,,,,,,,,296.77828850000014,0.028288500000144268,5,3.18590549999999,329.3913014999998,329.3913014999998,329.3913014999998,329.3913014999998,329.3913014999998,329.3913014999998,329.3913014999998,329.3913014999998,329.3913014999998,329.3913014999998,003,P002,2025_Jan_18_0931,ConditionRich,2021.2.3,59.92717649518156,
300.0,300.75,13,0.75,Stimuli/P002/sun_bfdmlbkyioxnkodb.jpg,0,0.0,0.0,0,128,128,128,,,,,,,,,,,,,300.02959980000014,0.02959980000014184,None,,332.62747739999986,332.62747739999986,332.62747739999986,332.62747739999986,332.62747739999986,332.62747739999986,332.62747739999986,332.62747739999986,332.62747739999986,332.62747739999986,003,P002,2025_Jan_18_0931,ConditionRich,2021.2.3,59.92717649518156,
300.75,304.0,41,0.0,Stimuli/Blank.png,0,0.0,0.0,0,129,129,129,,,,,,,,,,,,,300.7639916000003,0.013991600000281323,5,1.2156222999997226,333.3614327999999,333.3614327999999,333.3614327999999,333.3614327999999,333.3614327999999,333.3614327999999,333.3614327999999,333.3614327999999,333.3614327999999,333.3614327999999,003,P002,2025_Jan_18_0931,ConditionRich,2021.2.3,59.92717649518156,
304.0,304.75,37,0.75,Stimuli/P002/things_starfish_01b.jpg,0,0.0,0.0,0,130,130,130,,,,,,,,,,,,,303.9998034,-0.00019659999998111743,None,,336.59763099999964,336.59763099999964,336.59763099999964,336.59763099999964,336.59763099999964,336.59763099999964,336.59763099999964,336.59763099999964,336.59763099999964,336.59763099999964,003,P002,2025_Jan_18_0931,ConditionRich,2021.2.3,59.92717649518156,
304.75,308.0,41,0.0,Stimuli/Blank.png,0,0.0,0.0,0,131,131,131,,,,,,,,,,,,,304.7496885999999,-0.0003114000001005479,5,1.2287152999997488,337.34829549999995,337.34829549999995,337.34829549999995,337.34829549999995,337.34829549999995,337.34829549999995,337.34829549999995,337.34829549999995,337.34829549999995,337.34829549999995,003,P002,2025_Jan_18_0931,ConditionRich,2021.2.3,59.92717649518156,
308.0,308.75,25,0.75,Stimuli/P002/things_curry_01b.jpg,0,0.0,0.0,0,132,132,132,,,,,,,,,,,,,308.00291590000006,0.0029159000000618107,None,,340.6011524999999,340.6011524999999,340.6011524999999,340.6011524999999,340.6011524999999,340.6011524999999,340.6011524999999,340.6011524999999,340.6011524999999,340.6011524999999,003,P002,2025_Jan_18_0931,ConditionRich,2021.2.3,59.92717649518156,
308.75,312.0,41,0.0,Stimuli/Blank.png,1,2.25,3.0,0,133,133,133,,,,,,,,,,,,,308.7534544,0.0034544000000096275,1,2.642177300000185,341.35182510000004,341.35182510000004,341.35182510000004,341.35182510000004,341.35182510000004,341.35182510000004,343.5870878999999,344.3377866999999,341.35182510000004,341.35182510000004,003,P002,2025_Jan_18_0931,ConditionRich,2021.2.3,59.92717649518156,
312.0,312.75,36,0.75,Stimuli/P002/things_stalagmite_01b.jpg,0,0.0,0.0,0,134,134,134,,,,,,,,,,,,,312.00860550000016,0.008605500000157917,None,,344.62137200000006,344.62137200000006,344.62137200000006,344.62137200000006,344.62137200000006,344.62137200000006,344.62137200000006,344.62137200000006,344.62137200000006,344.62137200000006,003,P002,2025_Jan_18_0931,ConditionRich,2021.2.3,59.92717649518156,
312.75,316.0,41,0.0,Stimuli/Blank.png,1,0.25,1.0,0,135,135,135,,,,,,,,,,,,,312.7738161000002,0.023816100000203733,5,1.2049788999997872,345.3720325999998,345.3720325999998,345.3720325999998,345.3720325999998,345.3720325999998,345.3720325999998,345.60557979999976,346.356217,345.3720325999998,345.3720325999998,003,P002,2025_Jan_18_0931,ConditionRich,2021.2.3,59.92717649518156,
316.0,316.75,19,0.75,Stimuli/P002/sun_bzyyqqczvrnvukdn.jpg,0,0.0,0.0,0,136,136,136,,,,,,,,,,,,,316.00960280000027,0.009602800000266143,None,,348.60820399999966,348.60820399999966,348.60820399999966,348.60820399999966,348.60820399999966,348.60820399999966,348.60820399999966,348.60820399999966,348.60820399999966,348.60820399999966,003,P002,2025_Jan_18_0931,ConditionRich,2021.2.3,59.92717649518156,
316.75,320.0,41,0.0,Stimuli/Blank.png,0,0.0,0.0,0,137,137,137,,,,,,,,,,,,,316.76054969999996,0.01054969999995592,5,3.2182464999996228,349.35887219999995,349.35887219999995,349.35887219999995,349.35887219999995,349.35887219999995,349.35887219999995,349.35887219999995,349.35887219999995,349.35887219999995,349.35887219999995,003,P002,2025_Jan_18_0931,ConditionRich,2021.2.3,59.92717649518156,
320.0,320.75,14,0.75,Stimuli/P002/sun_bfgxassmmvhtarcc.jpg,0,0.0,0.0,0,138,138,138,,,,,,,,,,,,,320.01402940000025,0.0140294000002541,None,,352.62843079999993,352.62843079999993,352.62843079999993,352.62843079999993,352.62843079999993,352.62843079999993,352.62843079999993,352.62843079999993,352.62843079999993,352.62843079999993,003,P002,2025_Jan_18_0931,ConditionRich,2021.2.3,59.92717649518156,
320.75,324.0,41,0.0,Stimuli/Blank.png,0,0.0,0.0,0,139,139,139,,,,,,,,,,,,,320.78107610000006,0.03107610000006389,5,1.198036900000261,353.37908149999976,353.37908149999976,353.37908149999976,353.37908149999976,353.37908149999976,353.37908149999976,353.37908149999976,353.37908149999976,353.37908149999976,353.37908149999976,003,P002,2025_Jan_18_0931,ConditionRich,2021.2.3,59.92717649518156,
324.0,324.75,10,0.75,Stimuli/P002/sun_aykefnhciwsffcrj.jpg,0,0.0,0.0,0,140,140,140,,,,,,,,,,,,,324.0006341000003,0.0006341000002976216,None,,356.5985962,356.5985962,356.5985962,356.5985962,356.5985962,356.5985962,356.5985962,356.5985962,356.5985962,356.5985962,003,P002,2025_Jan_18_0931,ConditionRich,2021.2.3,59.92717649518156,
324.75,328.0,41,0.0,Stimuli/Blank.png,0,0.0,0.0,0,141,141,141,,,,,,,,,,,,,324.7509623000001,0.0009623000000829052,5,1.2279415999996672,357.3492312999997,357.3492312999997,357.3492312999997,357.3492312999997,357.3492312999997,357.3492312999997,357.3492312999997,357.3492312999997,357.3492312999997,357.3492312999997,003,P002,2025_Jan_18_0931,ConditionRich,2021.2.3,59.92717649518156,
328.0,328.75,1,0.75,Stimuli/P002/sun_agpgdwkhzgvzdaea.jpg,0,0.0,0.0,0,142,142,142,,,,,,,,,,,,,328.00409360000003,0.004093600000032893,None,,360.6020865999999,360.6020865999999,360.6020865999999,360.6020865999999,360.6020865999999,360.6020865999999,360.6020865999999,360.6020865999999,360.6020865999999,360.6020865999999,003,P002,2025_Jan_18_0931,ConditionRich,2021.2.3,59.92717649518156,
328.75,332.0,41,0.0,Stimuli/Blank.png,0,0.0,0.0,0,143,143,143,,,,,,,,,,,,,328.7540097000001,0.004009700000096927,5,1.2242773000002671,361.3527503,361.3527503,361.3527503,361.3527503,361.3527503,361.3527503,361.3527503,361.3527503,361.3527503,361.3527503,003,P002,2025_Jan_18_0931,ConditionRich,2021.2.3,59.92717649518156,
332.0,332.75,15,0.75,Stimuli/P002/sun_bfzoxbkvsfqxsyle.jpg,0,0.0,0.0,0,144,144,144,,,,,,,,,,,,,332.0097654000001,0.009765400000105728,None,,364.6223095999999,364.6223095999999,364.6223095999999,364.6223095999999,364.6223095999999,364.6223095999999,364.6223095999999,364.6223095999999,364.6223095999999,364.6223095999999,003,P002,2025_Jan_18_0931,ConditionRich,2021.2.3,59.92717649518156,
332.75,336.0,41,0.0,Stimuli/Blank.png,1,1.25,2.0,0,145,145,145,,,,,,,,,,,,,332.7747534,0.024753400000008696,5,3.2040436000002046,365.37295349999977,365.37295349999977,365.37295349999977,365.37295349999977,365.37295349999977,365.37295349999977,366.6074172999997,367.3580729999999,365.37295349999977,365.37295349999977,003,P002,2025_Jan_18_0931,ConditionRich,2021.2.3,59.92717649518156,
336.0,336.75,8,0.75,Stimuli/P002/sun_asqboyqakusycvwd.jpg,0,0.0,0.0,0,146,146,146,,,,,,,,,,,,,336.01111279999986,0.011112799999864365,None,,368.6091290999998,368.6091290999998,368.6091290999998,368.6091290999998,368.6091290999998,368.6091290999998,368.6091290999998,368.6091290999998,368.6091290999998,368.6091290999998,003,P002,2025_Jan_18_0931,ConditionRich,2021.2.3,59.92717649518156,
336.75,340.0,41,0.0,Stimuli/Blank.png,0,0.0,0.0,0,147,147,147,,,,,,,,,,,,,336.76099680000016,0.010996800000157236,5,3.217257199999949,369.35979499999985,369.35979499999985,369.35979499999985,369.35979499999985,369.35979499999985,369.35979499999985,369.35979499999985,369.35979499999985,369.35979499999985,369.35979499999985,003,P002,2025_Jan_18_0931,ConditionRich,2021.2.3,59.92717649518156,
340.0,340.75,26,0.75,Stimuli/P002/things_dish_01b.jpg,0,0.0,0.0,0,148,148,148,,,,,,,,,,,,,340.0144024000001,0.014402400000108173,None,,372.61265879999974,372.61265879999974,372.61265879999974,372.61265879999974,372.61265879999974,372.61265879999974,372.61265879999974,372.61265879999974,372.61265879999974,372.61265879999974,003,P002,2025_Jan_18_0931,ConditionRich,2021.2.3,59.92717649518156,
340.75,344.0,41,0.0,Stimuli/Blank.png,0,0.0,0.0,0,149,149,149,,,,,,,,,,,,,340.7652959000002,0.015295900000182883,5,1.213646400000016,373.36331440000004,373.36331440000004,373.36331440000004,373.36331440000004,373.36331440000004,373.36331440000004,373.36331440000004,373.36331440000004,373.36331440000004,373.36331440000004,003,P002,2025_Jan_18_0931,ConditionRich,2021.2.3,59.92717649518156,
344.0,344.75,40,0.75,Stimuli/P002/things_worm_01b.jpg,0,0.0,0.0,0,150,150,150,,,,,,,,,,,,,344.0036164000003,0.003616400000282738,None,,376.6162070999999,376.6162070999999,376.6162070999999,376.6162070999999,376.6162070999999,376.6162070999999,376.6162070999999,376.6162070999999,376.6162070999999,376.6162070999999,003,P002,2025_Jan_18_0931,ConditionRich,2021.2.3,59.92717649518156,
344.75,348.0,41,0.0,Stimuli/Blank.png,0,0.0,0.0,0,151,151,151,,,,,,,,,,,,,344.76890570000023,0.018905700000232173,5,1.2100188999997954,377.3668497999997,377.3668497999997,377.3668497999997,377.3668497999997,377.3668497999997,377.3668497999997,377.3668497999997,377.3668497999997,377.3668497999997,377.3668497999997,003,P002,2025_Jan_18_0931,ConditionRich,2021.2.3,59.92717649518156,
348.0,348.75,5,0.75,Stimuli/P002/sun_apwzcrxhvvnrexjh.jpg,0,0.0,0.0,0,152,152,152,,,,,,,,,,,,,348.0046808000002,0.004680800000187446,None,,380.6030203,380.6030203,380.6030203,380.6030203,380.6030203,380.6030203,380.6030203,380.6030203,380.6030203,380.6030203,003,P002,2025_Jan_18_0931,ConditionRich,2021.2.3,59.92717649518156,
348.75,352.0,41,0.0,Stimuli/Blank.png,0,0.0,0.0,0,153,153,153,,,,,,,,,,,,,348.75546650000024,0.005466500000238739,5,1.2234981000001426,381.35367989999986,381.35367989999986,381.35367989999986,381.35367989999986,381.35367989999986,381.35367989999986,381.35367989999986,381.35367989999986,381.35367989999986,381.35367989999986,003,P002,2025_Jan_18_0931,ConditionRich,2021.2.3,59.92717649518156,
352.0,352.75,17,0.75,Stimuli/P002/sun_bshgmgbmpvjkxfis.jpg,0,0.0,0.0,0,154,154,154,,,,,,,,,,,,,352.0084262999999,0.008426299999882758,None,,384.6065487999999,384.6065487999999,384.6065487999999,384.6065487999999,384.6065487999999,384.6065487999999,384.6065487999999,384.6065487999999,384.6065487999999,384.6065487999999,003,P002,2025_Jan_18_0931,ConditionRich,2021.2.3,59.92717649518156,
352.75,356.0,41,0.0,Stimuli/Blank.png,1,2.25,3.0,0,155,155,155,,,,,,,,,,,,,352.7589114000002,0.008911400000215508,5,3.2197636000000784,385.3572067,385.3572067,385.3572067,385.3572067,385.3572067,385.3572067,387.5925490999998,388.3431996999998,385.3572067,385.3572067,003,P002,2025_Jan_18_0931,ConditionRich,2021.2.3,59.92717649518156,
356.0,356.75,38,0.75,Stimuli/P002/things_windowsill_01b.jpg,0,0.0,0.0,0,156,156,156,,,,,,,,,,,,,356.0138511,0.013851100000010774,None,,388.6267751999999,388.6267751999999,388.6267751999999,388.6267751999999,388.6267751999999,388.6267751999999,388.6267751999999,388.6267751999999,388.6267751999999,388.6267751999999,003,P002,2025_Jan_18_0931,ConditionRich,2021.2.3,59.92717649518156,
356.75,360.0,41,0.0,Stimuli/Blank.png,0,0.0,0.0,0,157,157,157,,,,,,,,,,,,,356.77868690000014,0.02868690000013885,5,3.1995864999998958,389.3774049999997,389.3774049999997,389.3774049999997,389.3774049999997,389.3774049999997,389.3774049999997,389.3774049999997,389.3774049999997,389.3774049999997,389.3774049999997,003,P002,2025_Jan_18_0931,ConditionRich,2021.2.3,59.92717649518156,
360.0,360.75,18,0.75,Stimuli/P002/sun_bzjegfvyrvqtunza.jpg,0,0.0,0.0,0,158,158,158,,,,,,,,,,,,,360.01532350000025,0.015323500000249624,None,,392.6302803999997,392.6302803999997,392.6302803999997,392.6302803999997,392.6302803999997,392.6302803999997,392.6302803999997,392.6302803999997,392.6302803999997,392.6302803999997,003,P002,2025_Jan_18_0931,ConditionRich,2021.2.3,59.92717649518156,
360.75,364.0,41,0.0,Stimuli/Blank.png,0,0.0,0.0,0,159,159,159,,,,,,,,,,,,,360.7680792000001,0.01807920000010199,5,3.195871299999908,393.3809336999998,393.3809336999998,393.3809336999998,393.3809336999998,393.3809336999998,393.3809336999998,393.3809336999998,393.3809336999998,393.3809336999998,393.3809336999998,003,P002,2025_Jan_18_0931,ConditionRich,2021.2.3,59.92717649518156,
364.0,364.75,22,0.75,Stimuli/P002/things_boy_01b.jpg,0,0.0,0.0,0,160,160,160,,,,,,,,,,,,,364.0193629999999,0.019362999999884778,None,,396.6171125000001,396.6171125000001,396.6171125000001,396.6171125000001,396.6171125000001,396.6171125000001,396.6171125000001,396.6171125000001,396.6171125000001,396.6171125000001,003,P002,2025_Jan_18_0931,ConditionRich,2021.2.3,59.92717649518156,
364.75,368.0,41,0.0,Stimuli/Blank.png,0,0.0,0.0,0,161,161,161,,,,,,,,,,,,,364.7532162000002,0.0032162000002244895,5,1.2259131000000707,397.3510874999997,397.3510874999997,397.3510874999997,397.3510874999997,397.3510874999997,397.3510874999997,397.3510874999997,397.3510874999997,397.3510874999997,397.3510874999997,003,P002,2025_Jan_18_0931,ConditionRich,2021.2.3,59.92717649518156,
368.0,368.75,35,0.75,Stimuli/P002/things_pepperoni_01b.jpg,0,0.0,0.0,0,162,162,162,,,,,,,,,,,,,368.00602630000003,0.00602630000003046,None,,400.60395229999995,400.60395229999995,400.60395229999995,400.60395229999995,400.60395229999995,400.60395229999995,400.60395229999995,400.60395229999995,400.60395229999995,400.60395229999995,003,P002,2025_Jan_18_0931,ConditionRich,2021.2.3,59.92717649518156,
368.75,372.0,41,0.0,Stimuli/Blank.png,1,1.25,2.0,0,163,163,163,,,,,,,,,,,,,368.7586145999999,0.008614599999873462,5,3.2056155000000217,401.3712968,401.3712968,401.3712968,401.3712968,401.3712968,401.3712968,402.6057003000001,403.35636829999976,401.3712968,401.3712968,003,P002,2025_Jan_18_0931,ConditionRich,2021.2.3,59.92717649518156,
372.0,388.0,0,0.0,Stimuli/Blank.png,1,12.0,12.75,0,164,164,164,,,,,,,,,,,,,372.0255992000002,0.025599200000215205,5,13.952594599999884,404.6241599,404.6241599,404.6241599,404.6241599,404.6241599,404.6241599,416.60136009999997,417.3520186999999,404.6241599,404.6241599,003,P002,2025_Jan_18_0931,ConditionRich,2021.2.3,59.92717649518156,
