eventStartTime,eventEndTime,eventCond,imSize,imFile,responseEvent,fixRespStart,fixRespEnd,Events.thisRepN,Events.thisTrialN,Events.thisN,Events.thisIndex,Instructions.started,Instructions.stopped,participantReadyResponse.keys,participantReadyResponse.rt,participantReadyResponse.started,participantReadyResponse.stopped,startWaitforTrigger,triggerResponse.keys,triggerResponse.rt,triggerResponse.started,triggerResponse.stopped,globalTimer,actualStartTime,startTimingDiff,participantResponse.keys,participantResponse.rt,participantResponse.started,participantResponse.stopped,image.started,image.stopped,fixationOutside.started,fixationOutside.stopped,fixationResponse.started,fixationResponse.stopped,fixationInside.started,fixationInside.stopped,session,participant,date,expName,psychopyVersion,frameRate,
,,,,,,,,,,,,11.319846999999754,None,1,3.5274051999999756,11.319846999999754,None,,,,,,,,,,,,,,,,,,,,,002,P002,2025_Jan_18_0924,ConditionRich,2021.2.3,59.93134265378933,
,,,,,,,,,,,,,,,,,,14.859730799999852,5,14.351520200000323,14.872642499999984,None,,,,,,,,,,,,,,,,002,P002,2025_Jan_18_0924,ConditionRich,2021.2.3,59.93134265378933,
0.0,4.0,0,0.0,Stimuli/Blank.png,0,0,0.0,0,0,0,0,,,,,,,,,,,,29.238982599999872,0.0361190999997234,0.0361190999997234,5,3.9219811999996637,29.30196029999979,None,29.30196029999979,None,29.30196029999979,None,29.30196029999979,29.30196029999979,29.30196029999979,None,002,P002,2025_Jan_18_0924,ConditionRich,2021.2.3,59.93134265378933,
4.0,7.75,6,0.75,Stimuli/P002/sun_aqbaaqeojrexbmcr.jpg,0,0,0.0,0,1,1,1,,,,,,,,,,,,,4.021153599999707,0.021153599999706785,5,1.934723099999701,33.2891783,33.2891783,33.2891783,33.2891783,33.2891783,33.2891783,33.2891783,33.2891783,33.2891783,33.2891783,002,P002,2025_Jan_18_0924,ConditionRich,2021.2.3,59.93134265378933,
7.75,8.0,41,0.0,Stimuli/Blank.png,0,0,0.0,0,2,2,2,,,,,,,,,,,,,7.772645900000043,0.022645900000043184,5,0.19813599999997678,37.0257216,37.0257216,37.0257216,37.0257216,37.0257216,37.0257216,37.0257216,37.0257216,37.0257216,37.0257216,002,P002,2025_Jan_18_0924,ConditionRich,2021.2.3,59.93134265378933,
8.0,11.75,32,0.75,Stimuli/P002/things_oyster_01b.jpg,0,0,0.0,0,3,3,3,,,,,,,,,,,,,8.005929599999945,0.005929599999944912,5,1.964903399999912,37.25896919999968,37.25896919999968,37.25896919999968,37.25896919999968,37.25896919999968,37.25896919999968,37.25896919999968,37.25896919999968,37.25896919999968,37.25896919999968,002,P002,2025_Jan_18_0924,ConditionRich,2021.2.3,59.93134265378933,
11.75,12.0,41,0.0,Stimuli/Blank.png,0,0,0.0,0,4,4,4,,,,,,,,,,,,,11.76175719999992,0.011757199999919976,5,0.194898799999919,41.02895839999974,41.02895839999974,41.02895839999974,41.02895839999974,41.02895839999974,41.02895839999974,41.02895839999974,41.02895839999974,41.02895839999974,41.02895839999974,002,P002,2025_Jan_18_0924,ConditionRich,2021.2.3,59.93134265378933,
12.0,15.75,36,0.75,Stimuli/P002/things_stalagmite_01b.jpg,1,3,3.75,0,5,5,5,,,,,,,,,,,,,12.02599519999967,0.02599519999967015,1,3.468640300000061,41.27916989999994,41.27916989999994,41.27916989999994,41.27916989999994,41.27916989999994,41.27916989999994,44.265167499999734,None,41.27916989999994,41.27916989999994,002,P002,2025_Jan_18_0924,ConditionRich,2021.2.3,59.93134265378933,
15.75,16.0,41,0.0,Stimuli/Blank.png,0,0,0.0,0,6,6,6,,,,,,,,,,,,,15.762714599999981,0.012714599999981147,5,0.20797640000000683,45.01587449999988,45.01587449999988,45.01587449999988,45.01587449999988,45.01587449999988,45.01587449999988,45.01587449999988,45.01587449999988,45.01587449999988,45.01587449999988,002,P002,2025_Jan_18_0924,ConditionRich,2021.2.3,59.93134265378933,
16.0,19.75,7,0.75,Stimuli/P002/sun_arlesyjqxmqmcccl.jpg,1,0,0.75,0,7,7,7,,,,,,,,,,,,,16.012845299999753,0.012845299999753479,5,1.9414200999999593,45.28269479999972,45.28269479999972,45.28269479999972,45.28269479999972,45.28269479999972,45.28269479999972,45.28269479999972,45.999999000000116,45.28269479999972,45.28269479999972,002,P002,2025_Jan_18_0924,ConditionRich,2021.2.3,59.93134265378933,
19.75,20.0,41,0.0,Stimuli/Blank.png,0,0,0.0,0,8,8,8,,,,,,,,,,,,,19.76589329999979,0.015893299999788724,None,,49.019318399999975,49.019318399999975,49.019318399999975,49.019318399999975,49.019318399999975,49.019318399999975,49.019318399999975,49.019318399999975,49.019318399999975,49.019318399999975,002,P002,2025_Jan_18_0924,ConditionRich,2021.2.3,59.93134265378933,
20.0,23.75,31,0.75,Stimuli/P002/things_man_01b.jpg,0,0,0.0,0,9,9,9,,,,,,,,,,,,,19.999182799999744,-0.0008172000002559798,5,1.9710536999996293,49.252855400000044,49.252855400000044,49.252855400000044,49.252855400000044,49.252855400000044,49.252855400000044,49.252855400000044,49.252855400000044,49.252855400000044,49.252855400000044,002,P002,2025_Jan_18_0924,ConditionRich,2021.2.3,59.93134265378933,
23.75,24.0,41,0.0,Stimuli/Blank.png,0,0,0.0,0,10,10,10,,,,,,,,,,,,,23.75299589999986,0.00299589999985983,5,0.21765169999980571,53.00615519999974,53.00615519999974,53.00615519999974,53.00615519999974,53.00615519999974,53.00615519999974,53.00615519999974,53.00615519999974,53.00615519999974,53.00615519999974,002,P002,2025_Jan_18_0924,ConditionRich,2021.2.3,59.93134265378933,
24.0,27.75,24,0.75,Stimuli/P002/things_cornucopia_01b.jpg,0,0,0.0,0,11,11,11,,,,,,,,,,,,,24.00552549999975,0.0055254999997487175,5,1.9506955000001653,53.27306379999982,53.27306379999982,53.27306379999982,53.27306379999982,53.27306379999982,53.27306379999982,53.27306379999982,53.27306379999982,53.27306379999982,53.27306379999982,002,P002,2025_Jan_18_0924,ConditionRich,2021.2.3,59.93134265378933,
27.75,28.0,41,0.0,Stimuli/Blank.png,0,0,0.0,0,12,12,12,,,,,,,,,,,,,27.77355639999996,0.023556399999961286,5,0.19744330000003174,57.026333199999954,57.026333199999954,57.026333199999954,57.026333199999954,57.026333199999954,57.026333199999954,57.026333199999954,57.026333199999954,57.026333199999954,57.026333199999954,002,P002,2025_Jan_18_0924,ConditionRich,2021.2.3,59.93134265378933,
28.0,31.75,12,0.75,Stimuli/P002/sun_bdxvmnlyovhqognn.jpg,0,0,0.0,0,13,13,13,,,,,,,,,,,,,28.007155199999943,0.007155199999942852,5,1.9638912999998865,57.25991070000009,57.25991070000009,57.25991070000009,57.25991070000009,57.25991070000009,57.25991070000009,57.25991070000009,57.25991070000009,57.25991070000009,57.25991070000009,002,P002,2025_Jan_18_0924,ConditionRich,2021.2.3,59.93134265378933,
31.75,32.0,41,0.0,Stimuli/Blank.png,0,0,0.0,0,14,14,14,,,,,,,,,,,,,31.759976599999845,0.009976599999845348,5,0.21073120000028212,61.01320480000004,61.01320480000004,61.01320480000004,61.01320480000004,61.01320480000004,61.01320480000004,61.01320480000004,61.01320480000004,61.01320480000004,61.01320480000004,002,P002,2025_Jan_18_0924,ConditionRich,2021.2.3,59.93134265378933,
32.0,35.75,14,0.75,Stimuli/P002/sun_bfgxassmmvhtarcc.jpg,0,0,0.0,0,15,15,15,,,,,,,,,,,,,32.01066009999977,0.010660099999768136,5,1.9605541999999332,61.263430399999834,61.263430399999834,61.263430399999834,61.263430399999834,61.263430399999834,61.263430399999834,61.263430399999834,61.263430399999834,61.263430399999834,61.263430399999834,002,P002,2025_Jan_18_0924,ConditionRich,2021.2.3,59.93134265378933,
35.75,36.0,41,0.0,Stimuli/Blank.png,0,0,0.0,0,16,16,16,,,,,,,,,,,,,35.76550249999991,0.015502499999911379,5,0.19038220000038564,65.03341529999989,65.03341529999989,65.03341529999989,65.03341529999989,65.03341529999989,65.03341529999989,65.03341529999989,65.03341529999989,65.03341529999989,65.03341529999989,002,P002,2025_Jan_18_0924,ConditionRich,2021.2.3,59.93134265378933,
36.0,39.75,37,0.75,Stimuli/P002/things_starfish_01b.jpg,0,0,0.0,0,17,17,17,,,,,,,,,,,,,36.01366199999984,0.01366199999984019,5,1.957064800000353,65.26695229999996,65.26695229999996,65.26695229999996,65.26695229999996,65.26695229999996,65.26695229999996,65.26695229999996,65.26695229999996,65.26695229999996,65.26695229999996,002,P002,2025_Jan_18_0924,ConditionRich,2021.2.3,59.93134265378933,
39.75,40.0,41,0.0,Stimuli/Blank.png,0,0,0.0,0,18,18,18,,,,,,,,,,,,,39.75002719999975,2.719999974942766e-05,None,,69.00356389999979,69.00356389999979,69.00356389999979,69.00356389999979,69.00356389999979,69.00356389999979,69.00356389999979,69.00356389999979,69.00356389999979,69.00356389999979,002,P002,2025_Jan_18_0924,ConditionRich,2021.2.3,59.93134265378933,
40.0,43.75,18,0.75,Stimuli/P002/sun_bzjegfvyrvqtunza.jpg,0,0,0.0,0,19,19,19,,,,,,,,,,,,,40.000234499999806,0.00023449999980584835,5,1.9700517000001128,69.25378619999992,69.25378619999992,69.25378619999992,69.25378619999992,69.25378619999992,69.25378619999992,69.25378619999992,69.25378619999992,69.25378619999992,69.25378619999992,002,P002,2025_Jan_18_0924,ConditionRich,2021.2.3,59.93134265378933,
43.75,44.0,41,0.0,Stimuli/Blank.png,0,0,0.0,0,20,20,20,,,,,,,,,,,,,43.75395649999973,0.003956499999731022,5,0.21691080000027796,73.00711779999983,73.00711779999983,73.00711779999983,73.00711779999983,73.00711779999983,73.00711779999983,73.00711779999983,73.00711779999983,73.00711779999983,73.00711779999983,002,P002,2025_Jan_18_0924,ConditionRich,2021.2.3,59.93134265378933,
44.0,47.75,38,0.75,Stimuli/P002/things_windowsill_01b.jpg,1,0,0.75,0,21,21,21,,,,,,,,,,,,,44.00402619999977,0.004026199999771052,5,1.9664502999999058,73.25731059999998,73.25731059999998,73.25731059999998,73.25731059999998,73.25731059999998,73.25731059999998,73.25731059999998,73.99130779999996,73.25731059999998,73.25731059999998,002,P002,2025_Jan_18_0924,ConditionRich,2021.2.3,59.93134265378933,
47.75,48.0,41,0.0,Stimuli/Blank.png,0,0,0.0,0,22,22,22,,,,,,,,,,,,,47.75789940000004,0.007899400000042078,5,0.21323460000030536,77.01060899999993,77.01060899999993,77.01060899999993,77.01060899999993,77.01060899999993,77.01060899999993,77.01060899999993,77.01060899999993,77.01060899999993,77.01060899999993,002,P002,2025_Jan_18_0924,ConditionRich,2021.2.3,59.93134265378933,
48.0,51.75,17,0.75,Stimuli/P002/sun_bshgmgbmpvjkxfis.jpg,0,0,0.0,0,23,23,23,,,,,,,,,,,,,48.00882419999971,0.008824199999708071,5,1.946373599999788,77.27750779999997,77.27750779999997,77.27750779999997,77.27750779999997,77.27750779999997,77.27750779999997,77.27750779999997,77.27750779999997,77.27750779999997,77.27750779999997,002,P002,2025_Jan_18_0924,ConditionRich,2021.2.3,59.93134265378933,
51.75,52.0,41,0.0,Stimuli/Blank.png,0,0,0.0,0,24,24,24,,,,,,,,,,,,,51.780311600000005,0.030311600000004546,5,0.17622530000016923,81.04750319999994,81.04750319999994,81.04750319999994,81.04750319999994,81.04750319999994,81.04750319999994,81.04750319999994,81.04750319999994,81.04750319999994,81.04750319999994,002,P002,2025_Jan_18_0924,ConditionRich,2021.2.3,59.93134265378933,
52.0,55.75,23,0.75,Stimuli/P002/things_chick_01b.jpg,0,0,0.0,0,25,25,25,,,,,,,,,,,,,52.027707400000054,0.027707400000053894,5,1.926011400000334,81.29772430000003,81.29772430000003,81.29772430000003,81.29772430000003,81.29772430000003,81.29772430000003,81.29772430000003,81.29772430000003,81.29772430000003,81.29772430000003,002,P002,2025_Jan_18_0924,ConditionRich,2021.2.3,59.93134265378933,
55.75,56.0,41,0.0,Stimuli/Blank.png,0,0,0.0,0,26,26,26,,,,,,,,,,,,,55.78174760000002,0.03174760000001697,5,0.1896524999997382,85.03431439999986,85.03431439999986,85.03431439999986,85.03431439999986,85.03431439999986,85.03431439999986,85.03431439999986,85.03431439999986,85.03431439999986,85.03431439999986,002,P002,2025_Jan_18_0924,ConditionRich,2021.2.3,59.93134265378933,
56.0,59.75,39,0.75,Stimuli/P002/things_woman_01b.jpg,0,0,0.0,0,27,27,27,,,,,,,,,,,,,56.015222600000016,0.015222600000015518,5,1.956074599999738,85.2678777000001,85.2678777000001,85.2678777000001,85.2678777000001,85.2678777000001,85.2678777000001,85.2678777000001,85.2678777000001,85.2678777000001,85.2678777000001,002,P002,2025_Jan_18_0924,ConditionRich,2021.2.3,59.93134265378933,
59.75,60.0,41,0.0,Stimuli/Blank.png,0,0,0.0,0,28,28,28,,,,,,,,,,,,,59.75158590000001,0.0015859000000091328,None,,89.0044997,89.0044997,89.0044997,89.0044997,89.0044997,89.0044997,89.0044997,89.0044997,89.0044997,89.0044997,002,P002,2025_Jan_18_0924,ConditionRich,2021.2.3,59.93134265378933,
60.0,63.75,19,0.75,Stimuli/P002/sun_bzyyqqczvrnvukdn.jpg,0,0,0.0,0,29,29,29,,,,,,,,,,,,,60.001774999999725,0.0017749999997249688,5,1.9689272000000528,89.25471870000001,89.25471870000001,89.25471870000001,89.25471870000001,89.25471870000001,89.25471870000001,89.25471870000001,89.25471870000001,89.25471870000001,89.25471870000001,002,P002,2025_Jan_18_0924,ConditionRich,2021.2.3,59.93134265378933,
63.75,64.0,41,0.0,Stimuli/Blank.png,0,0,0.0,0,30,30,30,,,,,,,,,,,,,63.754822500000046,0.004822500000045693,5,0.21573829999988448,93.00802859999976,93.00802859999976,93.00802859999976,93.00802859999976,93.00802859999976,93.00802859999976,93.00802859999976,93.00802859999976,93.00802859999976,93.00802859999976,002,P002,2025_Jan_18_0924,ConditionRich,2021.2.3,59.93134265378933,
64.0,67.75,13,0.75,Stimuli/P002/sun_bfdmlbkyioxnkodb.jpg,0,0,0.0,0,31,31,31,,,,,,,,,,,,,64.00503929999968,0.005039299999680225,5,1.9655189999998584,93.25824479999983,93.25824479999983,93.25824479999983,93.25824479999983,93.25824479999983,93.25824479999983,93.25824479999983,93.25824479999983,93.25824479999983,93.25824479999983,002,P002,2025_Jan_18_0924,ConditionRich,2021.2.3,59.93134265378933,
67.75,68.0,41,0.0,Stimuli/Blank.png,0,0,0.0,0,32,32,32,,,,,,,,,,,,,67.76083389999985,0.010833899999852292,5,0.1953683000001547,97.0282342999999,97.0282342999999,97.0282342999999,97.0282342999999,97.0282342999999,97.0282342999999,97.0282342999999,97.0282342999999,97.0282342999999,97.0282342999999,002,P002,2025_Jan_18_0924,ConditionRich,2021.2.3,59.93134265378933,
68.0,71.75,16,0.75,Stimuli/P002/sun_biqyomkjbujnppuf.jpg,1,2,2.75,0,33,33,33,,,,,,,,,,,,,68.0248047,0.02480470000000423,1,2.529226500000277,97.27843189999976,97.27843189999976,97.27843189999976,97.27843189999976,97.27843189999976,97.27843189999976,99.26352420000012,100.01418719999992,97.27843189999976,97.27843189999976,002,P002,2025_Jan_18_0924,ConditionRich,2021.2.3,59.93134265378933,
71.75,72.0,41,0.0,Stimuli/Blank.png,0,0,0.0,0,34,34,34,,,,,,,,,,,,,71.76182149999977,0.011821499999769003,5,0.208746699999665,101.01507159999983,101.01507159999983,101.01507159999983,101.01507159999983,101.01507159999983,101.01507159999983,101.01507159999983,101.01507159999983,101.01507159999983,101.01507159999983,002,P002,2025_Jan_18_0924,ConditionRich,2021.2.3,59.93134265378933,
72.0,75.75,33,0.75,Stimuli/P002/things_pan_01b.jpg,0,0,0.0,0,35,35,35,,,,,,,,,,,,,72.01207699999986,0.012076999999862892,5,1.9417613999999048,101.2819770000001,101.2819770000001,101.2819770000001,101.2819770000001,101.2819770000001,101.2819770000001,101.2819770000001,101.2819770000001,101.2819770000001,101.2819770000001,002,P002,2025_Jan_18_0924,ConditionRich,2021.2.3,59.93134265378933,
75.75,76.0,41,0.0,Stimuli/Blank.png,0,0,0.0,0,36,36,36,,,,,,,,,,,,,75.78173160000006,0.03173160000005737,5,0.1886331999999129,105.03527759999997,105.03527759999997,105.03527759999997,105.03527759999997,105.03527759999997,105.03527759999997,105.03527759999997,105.03527759999997,105.03527759999997,105.03527759999997,002,P002,2025_Jan_18_0924,ConditionRich,2021.2.3,59.93134265378933,
76.0,79.75,3,0.75,Stimuli/P002/sun_amarqtinchblqmah.jpg,0,0,0.0,0,37,37,37,,,,,,,,,,,,,76.01625250000006,0.016252500000064174,5,1.9383989000002657,105.28548659999979,105.28548659999979,105.28548659999979,105.28548659999979,105.28548659999979,105.28548659999979,105.28548659999979,105.28548659999979,105.28548659999979,105.28548659999979,002,P002,2025_Jan_18_0924,ConditionRich,2021.2.3,59.93134265378933,
79.75,80.0,41,0.0,Stimuli/Blank.png,0,0,0.0,0,38,38,38,,,,,,,,,,,,,79.77141600000004,0.021416000000044733,5,0.18482730000005176,109.0387998000001,109.0387998000001,109.0387998000001,109.0387998000001,109.0387998000001,109.0387998000001,109.0387998000001,109.0387998000001,109.0387998000001,109.0387998000001,002,P002,2025_Jan_18_0924,ConditionRich,2021.2.3,59.93134265378933,
80.0,83.75,4,0.75,Stimuli/P002/sun_aonjwqswdblhlpkm.jpg,1,0,0.75,0,39,39,39,,,,,,,,,,,,,80.02081469999985,0.020814699999846198,5,1.934815399999934,109.28903309999987,109.28903309999987,109.28903309999987,109.28903309999987,109.28903309999987,109.28903309999987,109.28903309999987,110.02298939999991,109.28903309999987,109.28903309999987,002,P002,2025_Jan_18_0924,ConditionRich,2021.2.3,59.93134265378933,
83.75,84.0,41,0.0,Stimuli/Blank.png,0,0,0.0,0,40,40,40,,,,,,,,,,,,,83.77258369999981,0.02258369999981369,5,0.1978633999997328,113.02572419999979,113.02572419999979,113.02572419999979,113.02572419999979,113.02572419999979,113.02572419999979,113.02572419999979,113.02572419999979,113.02572419999979,113.02572419999979,002,P002,2025_Jan_18_0924,ConditionRich,2021.2.3,59.93134265378933,
84.0,100.0,0,0.0,Stimuli/Blank.png,1,6,6.75,0,41,41,41,,,,,,,,,,,,,84.00585009999986,0.005850099999861413,5,15.964338000000225,113.25918210000009,113.25918210000009,113.25918210000009,113.25918210000009,113.25918210000009,113.25918210000009,119.24777749999976,119.99843469999996,113.25918210000009,113.25918210000009,002,P002,2025_Jan_18_0924,ConditionRich,2021.2.3,59.93134265378933,
100.0,103.75,35,0.75,Stimuli/P002/things_pepperoni_01b.jpg,0,0,0.0,0,42,42,42,,,,,,,,,,,,,100.00371619999987,0.0037161999998716055,5,1.9502712000003157,129.2732649999998,129.2732649999998,129.2732649999998,129.2732649999998,129.2732649999998,129.2732649999998,129.2732649999998,129.2732649999998,129.2732649999998,129.2732649999998,002,P002,2025_Jan_18_0924,ConditionRich,2021.2.3,59.93134265378933,
103.75,104.0,41,0.0,Stimuli/Blank.png,0,0,0.0,0,43,43,43,,,,,,,,,,,,,103.7751561,0.02515610000000379,5,0.18049699999983204,133.04325329999983,133.04325329999983,133.04325329999983,133.04325329999983,133.04325329999983,133.04325329999983,133.04325329999983,133.04325329999983,133.04325329999983,133.04325329999983,002,P002,2025_Jan_18_0924,ConditionRich,2021.2.3,59.93134265378933,
104.0,107.75,29,0.75,Stimuli/P002/things_grinder_01b.jpg,1,2,2.75,0,44,44,44,,,,,,,,,,,,,104.02556379999987,0.025563799999872572,1,2.3662491000000045,133.2934796999998,133.2934796999998,133.2934796999998,133.2934796999998,133.2934796999998,133.2934796999998,135.27855499999987,136.02925460000006,133.2934796999998,133.2934796999998,002,P002,2025_Jan_18_0924,ConditionRich,2021.2.3,59.93134265378933,
107.75,108.0,41,0.0,Stimuli/Blank.png,0,0,0.0,0,45,45,45,,,,,,,,,,,,,107.7775388,0.027538800000002084,5,0.1933222000002388,137.03014649999977,137.03014649999977,137.03014649999977,137.03014649999977,137.03014649999977,137.03014649999977,137.03014649999977,137.03014649999977,137.03014649999977,137.03014649999977,002,P002,2025_Jan_18_0924,ConditionRich,2021.2.3,59.93134265378933,
108.0,111.75,22,0.75,Stimuli/P002/things_boy_01b.jpg,0,0,0.0,0,46,46,46,,,,,,,,,,,,,108.01082999999971,0.010829999999714346,5,1.9600263000002087,137.2636309999998,137.2636309999998,137.2636309999998,137.2636309999998,137.2636309999998,137.2636309999998,137.2636309999998,137.2636309999998,137.2636309999998,137.2636309999998,002,P002,2025_Jan_18_0924,ConditionRich,2021.2.3,59.93134265378933,
111.75,112.0,41,0.0,Stimuli/Blank.png,0,0,0.0,0,47,47,47,,,,,,,,,,,,,111.7637421999998,0.013742199999796867,5,0.20664750000014465,141.0169323,141.0169323,141.0169323,141.0169323,141.0169323,141.0169323,141.0169323,141.0169323,141.0169323,141.0169323,002,P002,2025_Jan_18_0924,ConditionRich,2021.2.3,59.93134265378933,
112.0,115.75,34,0.75,Stimuli/P002/things_parrot_01b.jpg,0,0,0.0,0,48,48,48,,,,,,,,,,,,,112.01395689999981,0.013956899999811867,5,1.956294699999944,141.26715149999973,141.26715149999973,141.26715149999973,141.26715149999973,141.26715149999973,141.26715149999973,141.26715149999973,141.26715149999973,141.26715149999973,141.26715149999973,002,P002,2025_Jan_18_0924,ConditionRich,2021.2.3,59.93134265378933,
115.75,116.0,41,0.0,Stimuli/Blank.png,0,0,0.0,0,49,49,49,,,,,,,,,,,,,115.7517315,0.001731500000005326,5,0.20300640000004933,145.02046960000007,145.02046960000007,145.02046960000007,145.02046960000007,145.02046960000007,145.02046960000007,145.02046960000007,145.02046960000007,145.02046960000007,145.02046960000007,002,P002,2025_Jan_18_0924,ConditionRich,2021.2.3,59.93134265378933,
116.0,119.75,21,0.75,Stimuli/P002/things_baby_01b.jpg,0,0,0.0,0,50,50,50,,,,,,,,,,,,,116.0172650999998,0.01726509999980408,5,1.936131099999784,145.28736900000013,145.28736900000013,145.28736900000013,145.28736900000013,145.28736900000013,145.28736900000013,145.28736900000013,145.28736900000013,145.28736900000013,145.28736900000013,002,P002,2025_Jan_18_0924,ConditionRich,2021.2.3,59.93134265378933,
119.75,120.0,41,0.0,Stimuli/Blank.png,0,0,0.0,0,51,51,51,,,,,,,,,,,,,119.77076319999969,0.020763199999692006,5,0.19957660000000033,149.02397849999988,149.02397849999988,149.02397849999988,149.02397849999988,149.02397849999988,149.02397849999988,149.02397849999988,149.02397849999988,149.02397849999988,149.02397849999988,002,P002,2025_Jan_18_0924,ConditionRich,2021.2.3,59.93134265378933,
120.0,123.75,11,0.75,Stimuli/P002/sun_bbfdgdyeqdnadvvi.jpg,0,0,0.0,0,52,52,52,,,,,,,,,,,,,120.00399049999987,0.003990499999872554,5,1.965934599999855,149.2575155999998,149.2575155999998,149.2575155999998,149.2575155999998,149.2575155999998,149.2575155999998,149.2575155999998,149.2575155999998,149.2575155999998,149.2575155999998,002,P002,2025_Jan_18_0924,ConditionRich,2021.2.3,59.93134265378933,
123.75,124.0,41,0.0,Stimuli/Blank.png,0,0,0.0,0,53,53,53,,,,,,,,,,,,,123.76016839999966,0.010168399999656685,5,0.19601090000014665,153.0275062999999,153.0275062999999,153.0275062999999,153.0275062999999,153.0275062999999,153.0275062999999,153.0275062999999,153.0275062999999,153.0275062999999,153.0275062999999,002,P002,2025_Jan_18_0924,ConditionRich,2021.2.3,59.93134265378933,
124.0,127.75,8,0.75,Stimuli/P002/sun_asqboyqakusycvwd.jpg,0,0,0.0,0,54,54,54,,,,,,,,,,,,,124.02434049999965,0.02434049999965282,5,1.9458958000000166,153.27771919999986,153.27771919999986,153.27771919999986,153.27771919999986,153.27771919999986,153.27771919999986,153.27771919999986,153.27771919999986,153.27771919999986,153.27771919999986,002,P002,2025_Jan_18_0924,ConditionRich,2021.2.3,59.93134265378933,
127.75,128.0,41,0.0,Stimuli/Blank.png,0,0,0.0,0,55,55,55,,,,,,,,,,,,,127.76140170000008,0.011401700000078563,5,0.20907530000022234,157.01434879999988,157.01434879999988,157.01434879999988,157.01434879999988,157.01434879999988,157.01434879999988,157.01434879999988,157.01434879999988,157.01434879999988,157.01434879999988,002,P002,2025_Jan_18_0924,ConditionRich,2021.2.3,59.93134265378933,
128.0,131.75,26,0.75,Stimuli/P002/things_dish_01b.jpg,1,0,0.75,0,56,56,56,,,,,,,,,,,,,128.01164010000002,0.011640100000022358,5,1.9588488000003963,157.2645649000001,157.2645649000001,157.2645649000001,157.2645649000001,157.2645649000001,157.2645649000001,157.2645649000001,157.9985287999998,157.2645649000001,157.2645649000001,002,P002,2025_Jan_18_0924,ConditionRich,2021.2.3,59.93134265378933,
131.75,132.0,41,0.0,Stimuli/Blank.png,0,0,0.0,0,57,57,57,,,,,,,,,,,,,131.76458869999988,0.014588699999876553,5,0.20655280000028142,161.0178646999998,161.0178646999998,161.0178646999998,161.0178646999998,161.0178646999998,161.0178646999998,161.0178646999998,161.0178646999998,161.0178646999998,161.0178646999998,002,P002,2025_Jan_18_0924,ConditionRich,2021.2.3,59.93134265378933,
132.0,135.75,28,0.75,Stimuli/P002/things_girl_01b.jpg,1,3,3.75,0,58,58,58,,,,,,,,,,,,,132.01484429999982,0.014844299999822397,1,3.4064438999998856,161.2680863999999,161.2680863999999,161.2680863999999,161.2680863999999,161.2680863999999,161.2680863999999,164.25403779999988,None,161.2680863999999,161.2680863999999,002,P002,2025_Jan_18_0924,ConditionRich,2021.2.3,59.93134265378933,
135.75,136.0,41,0.0,Stimuli/Blank.png,0,0,0.0,0,59,59,59,,,,,,,,,,,,,135.7515083999997,0.0015083999996932107,None,,165.00470259999975,165.00470259999975,165.00470259999975,165.00470259999975,165.00470259999975,165.00470259999975,165.00470259999975,165.00470259999975,165.00470259999975,165.00470259999975,002,P002,2025_Jan_18_0924,ConditionRich,2021.2.3,59.93134265378933,
136.0,139.75,25,0.75,Stimuli/P002/things_curry_01b.jpg,1,3,3.75,0,60,60,60,,,,,,,,,,,,,136.0016925,0.0016924999999901047,1,3.342465600000196,165.25492619999977,165.25492619999977,165.25492619999977,165.25492619999977,165.25492619999977,165.25492619999977,168.2408789000001,168.99155299999984,165.25492619999977,165.25492619999977,002,P002,2025_Jan_18_0924,ConditionRich,2021.2.3,59.93134265378933,
139.75,140.0,41,0.0,Stimuli/Blank.png,0,0,0.0,0,61,61,61,,,,,,,,,,,,,139.75561070000003,0.00561070000003383,5,0.21627090000038152,169.0082314000001,169.0082314000001,169.0082314000001,169.0082314000001,169.0082314000001,169.0082314000001,169.0082314000001,169.0082314000001,169.0082314000001,169.0082314000001,002,P002,2025_Jan_18_0924,ConditionRich,2021.2.3,59.93134265378933,
140.0,143.75,15,0.75,Stimuli/P002/sun_bfzoxbkvsfqxsyle.jpg,1,1,1.75,0,62,62,62,,,,,,,,,,,,,140.00483899999972,0.004838999999719817,5,1.9659433000001627,169.2584466999997,169.2584466999997,169.2584466999997,169.2584466999997,169.2584466999997,169.2584466999997,170.24268080000002,170.9933016,169.2584466999997,169.2584466999997,002,P002,2025_Jan_18_0924,ConditionRich,2021.2.3,59.93134265378933,
143.75,144.0,41,0.0,Stimuli/Blank.png,0,0,0.0,0,63,63,63,,,,,,,,,,,,,143.76114979999966,0.011149799999657262,5,0.1959037999999964,173.02843399999983,173.02843399999983,173.02843399999983,173.02843399999983,173.02843399999983,173.02843399999983,173.02843399999983,173.02843399999983,173.02843399999983,173.02843399999983,002,P002,2025_Jan_18_0924,ConditionRich,2021.2.3,59.93134265378933,
144.0,147.75,2,0.75,Stimuli/P002/sun_akmxsxepquhynflp.jpg,0,0,0.0,0,64,64,64,,,,,,,,,,,,,144.02613810000003,0.026138100000025588,5,1.9291833000002043,173.29535369999985,173.29535369999985,173.29535369999985,173.29535369999985,173.29535369999985,173.29535369999985,173.29535369999985,173.29535369999985,173.29535369999985,173.29535369999985,002,P002,2025_Jan_18_0924,ConditionRich,2021.2.3,59.93134265378933,
147.75,148.0,41,0.0,Stimuli/Blank.png,0,0,0.0,0,65,65,65,,,,,,,,,,,,,147.78101639999977,0.031016399999771238,5,0.17577239999991434,177.0486418999999,177.0486418999999,177.0486418999999,177.0486418999999,177.0486418999999,177.0486418999999,177.0486418999999,177.0486418999999,177.0486418999999,177.0486418999999,002,P002,2025_Jan_18_0924,ConditionRich,2021.2.3,59.93134265378933,
148.0,151.75,5,0.75,Stimuli/P002/sun_apwzcrxhvvnrexjh.jpg,0,0,0.0,0,66,66,66,,,,,,,,,,,,,148.03092909999987,0.030929099999866594,5,1.9254436999999598,177.29888970000002,177.29888970000002,177.29888970000002,177.29888970000002,177.29888970000002,177.29888970000002,177.29888970000002,177.29888970000002,177.29888970000002,177.29888970000002,002,P002,2025_Jan_18_0924,ConditionRich,2021.2.3,59.93134265378933,
151.75,152.0,41,0.0,Stimuli/Blank.png,0,0,0.0,0,67,67,67,,,,,,,,,,,,,151.7655735999997,0.015573599999697763,None,,181.0187987999998,181.0187987999998,181.0187987999998,181.0187987999998,181.0187987999998,181.0187987999998,181.0187987999998,181.0187987999998,181.0187987999998,181.0187987999998,002,P002,2025_Jan_18_0924,ConditionRich,2021.2.3,59.93134265378933,
152.0,155.75,40,0.75,Stimuli/P002/things_worm_01b.jpg,0,0,0.0,0,68,68,68,,,,,,,,,,,,,151.99953379999988,-0.0004662000001189881,5,1.9721055999998498,181.25234120000005,181.25234120000005,181.25234120000005,181.25234120000005,181.25234120000005,181.25234120000005,181.25234120000005,181.25234120000005,181.25234120000005,181.25234120000005,002,P002,2025_Jan_18_0924,ConditionRich,2021.2.3,59.93134265378933,
155.75,156.0,41,0.0,Stimuli/Blank.png,0,0,0.0,0,69,69,69,,,,,,,,,,,,,155.7526340999998,0.0026340999997955805,None,,185.0056338999998,185.0056338999998,185.0056338999998,185.0056338999998,185.0056338999998,185.0056338999998,185.0056338999998,185.0056338999998,185.0056338999998,185.0056338999998,002,P002,2025_Jan_18_0924,ConditionRich,2021.2.3,59.93134265378933,
156.0,159.75,9,0.75,Stimuli/P002/sun_awtltwwpwbepuuqv.jpg,0,0,0.0,0,70,70,70,,,,,,,,,,,,,156.00272360000008,0.0027236000000812055,5,1.9686930000002576,185.2558584999997,185.2558584999997,185.2558584999997,185.2558584999997,185.2558584999997,185.2558584999997,185.2558584999997,185.2558584999997,185.2558584999997,185.2558584999997,002,P002,2025_Jan_18_0924,ConditionRich,2021.2.3,59.93134265378933,
159.75,160.0,41,0.0,Stimuli/Blank.png,0,0,0.0,0,71,71,71,,,,,,,,,,,,,159.75604169999997,0.0060416999999688414,5,0.21526780000021972,189.0091671,189.0091671,189.0091671,189.0091671,189.0091671,189.0091671,189.0091671,189.0091671,189.0091671,189.0091671,002,P002,2025_Jan_18_0924,ConditionRich,2021.2.3,59.93134265378933,
160.0,163.75,27,0.75,Stimuli/P002/things_dynamite_01b.jpg,0,0,0.0,0,72,72,72,,,,,,,,,,,,,160.00616509999963,0.006165099999634549,5,1.964974400000301,189.25938450000012,189.25938450000012,189.25938450000012,189.25938450000012,189.25938450000012,189.25938450000012,189.25938450000012,189.25938450000012,189.25938450000012,189.25938450000012,002,P002,2025_Jan_18_0924,ConditionRich,2021.2.3,59.93134265378933,
163.75,164.0,41,0.0,Stimuli/Blank.png,0,0,0.0,0,73,73,73,,,,,,,,,,,,,163.7604498999999,0.010449899999912304,5,0.19508270000005723,193.02938089999998,193.02938089999998,193.02938089999998,193.02938089999998,193.02938089999998,193.02938089999998,193.02938089999998,193.02938089999998,193.02938089999998,193.02938089999998,002,P002,2025_Jan_18_0924,ConditionRich,2021.2.3,59.93134265378933,
164.0,167.75,30,0.75,Stimuli/P002/things_iguana_01b.jpg,0,0,0.0,0,74,74,74,,,,,,,,,,,,,164.02612580000005,0.026125800000045274,5,1.9446772000001147,193.27958499999977,193.27958499999977,193.27958499999977,193.27958499999977,193.27958499999977,193.27958499999977,193.27958499999977,193.27958499999977,193.27958499999977,193.27958499999977,002,P002,2025_Jan_18_0924,ConditionRich,2021.2.3,59.93134265378933,
167.75,168.0,41,0.0,Stimuli/Blank.png,0,0,0.0,0,75,75,75,,,,,,,,,,,,,167.76289689999976,0.012896899999759626,5,0.20811540000022433,197.01630399999976,197.01630399999976,197.01630399999976,197.01630399999976,197.01630399999976,197.01630399999976,197.01630399999976,197.01630399999976,197.01630399999976,197.01630399999976,002,P002,2025_Jan_18_0924,ConditionRich,2021.2.3,59.93134265378933,
168.0,171.75,1,0.75,Stimuli/P002/sun_agpgdwkhzgvzdaea.jpg,0,0,0.0,0,76,76,76,,,,,,,,,,,,,168.01540879999993,0.015408799999931944,5,1.9414600999998584,197.28310899999997,197.28310899999997,197.28310899999997,197.28310899999997,197.28310899999997,197.28310899999997,197.28310899999997,197.28310899999997,197.28310899999997,197.28310899999997,002,P002,2025_Jan_18_0924,ConditionRich,2021.2.3,59.93134265378933,
171.75,172.0,41,0.0,Stimuli/Blank.png,0,0,0.0,0,77,77,77,,,,,,,,,,,,,171.76637630000005,0.016376300000047195,None,,201.0197287000001,201.0197287000001,201.0197287000001,201.0197287000001,201.0197287000001,201.0197287000001,201.0197287000001,201.0197287000001,201.0197287000001,201.0197287000001,002,P002,2025_Jan_18_0924,ConditionRich,2021.2.3,59.93134265378933,
172.0,175.75,10,0.75,Stimuli/P002/sun_aykefnhciwsffcrj.jpg,0,0,0.0,0,78,78,78,,,,,,,,,,,,,171.99963179999986,-0.00036820000013904064,5,1.9710963999996238,201.25327179999977,201.25327179999977,201.25327179999977,201.25327179999977,201.25327179999977,201.25327179999977,201.25327179999977,201.25327179999977,201.25327179999977,201.25327179999977,002,P002,2025_Jan_18_0924,ConditionRich,2021.2.3,59.93134265378933,
175.75,176.0,41,0.0,Stimuli/Blank.png,0,0,0.0,0,79,79,79,,,,,,,,,,,,,175.7535668999999,0.0035668999998961226,5,0.21771220000027824,205.0065681000001,205.0065681000001,205.0065681000001,205.0065681000001,205.0065681000001,205.0065681000001,205.0065681000001,205.0065681000001,205.0065681000001,205.0065681000001,002,P002,2025_Jan_18_0924,ConditionRich,2021.2.3,59.93134265378933,
176.0,179.75,20,0.75,Stimuli/P002/sun_dkgctqgpvxbaoyks.jpg,0,0,0.0,0,80,80,80,,,,,,,,,,,,,176.00599639999973,0.005996399999730784,5,1.9508519999999407,205.2735014,205.2735014,205.2735014,205.2735014,205.2735014,205.2735014,205.2735014,205.2735014,205.2735014,205.2735014,002,P002,2025_Jan_18_0924,ConditionRich,2021.2.3,59.93134265378933,
179.75,180.0,41,0.0,Stimuli/Blank.png,0,0,0.0,0,81,81,81,,,,,,,,,,,,,179.7754845999998,0.025484599999799684,5,0.1808937999999216,209.04346329999998,209.04346329999998,209.04346329999998,209.04346329999998,209.04346329999998,209.04346329999998,209.04346329999998,209.04346329999998,209.04346329999998,209.04346329999998,002,P002,2025_Jan_18_0924,ConditionRich,2021.2.3,59.93134265378933,
180.0,196.0,0,0.0,Stimuli/Blank.png,1,12,12.75,0,82,82,82,,,,,,,,,,,,,180.0260392,0.026039200000013807,5,15.947475099999792,209.27696590000005,209.27696590000005,209.27696590000005,209.27696590000005,209.27696590000005,209.27696590000005,221.27087829999982,222.02153999999973,209.27696590000005,209.27696590000005,002,P002,2025_Jan_18_0924,ConditionRich,2021.2.3,59.93134265378933,
196.0,199.75,23,0.75,Stimuli/P002/things_chick_01b.jpg,0,0,0.0,0,83,83,83,,,,,,,,,,,,,196.00542760000008,0.005427600000075472,5,1.9497781000000032,225.27442369999972,225.27442369999972,225.27442369999972,225.27442369999972,225.27442369999972,225.27442369999972,225.27442369999972,225.27442369999972,225.27442369999972,225.27442369999972,002,P002,2025_Jan_18_0924,ConditionRich,2021.2.3,59.93134265378933,
199.75,200.0,41,0.0,Stimuli/Blank.png,0,0,0.0,0,84,84,84,,,,,,,,,,,,,199.77430659999982,0.02430659999981799,5,0.19650579999961337,229.02770409999994,229.02770409999994,229.02770409999994,229.02770409999994,229.02770409999994,229.02770409999994,229.02770409999994,229.02770409999994,229.02770409999994,229.02770409999994,002,P002,2025_Jan_18_0924,ConditionRich,2021.2.3,59.93134265378933,
200.0,203.75,20,0.75,Stimuli/P002/sun_dkgctqgpvxbaoyks.jpg,0,0,0.0,0,85,85,85,,,,,,,,,,,,,200.01083870000002,0.010838700000022072,5,1.946246500000143,229.27792969999973,229.27792969999973,229.27792969999973,229.27792969999973,229.27792969999973,229.27792969999973,229.27792969999973,229.27792969999973,229.27792969999973,229.27792969999973,002,P002,2025_Jan_18_0924,ConditionRich,2021.2.3,59.93134265378933,
203.75,204.0,41,0.0,Stimuli/Blank.png,0,0,0.0,0,86,86,86,,,,,,,,,,,,,203.7808339999997,0.030833999999686057,5,0.17651070000010805,233.04792769999995,233.04792769999995,233.04792769999995,233.04792769999995,233.04792769999995,233.04792769999995,233.04792769999995,233.04792769999995,233.04792769999995,233.04792769999995,002,P002,2025_Jan_18_0924,ConditionRich,2021.2.3,59.93134265378933,
204.0,207.75,7,0.75,Stimuli/P002/sun_arlesyjqxmqmcccl.jpg,0,0,0.0,0,87,87,87,,,,,,,,,,,,,204.0307883999999,0.030788399999892135,5,1.925950300000295,233.29816269999992,233.29816269999992,233.29816269999992,233.29816269999992,233.29816269999992,233.29816269999992,233.29816269999992,233.29816269999992,233.29816269999992,233.29816269999992,002,P002,2025_Jan_18_0924,ConditionRich,2021.2.3,59.93134265378933,
207.75,208.0,41,0.0,Stimuli/Blank.png,0,0,0.0,0,88,88,88,,,,,,,,,,,,,207.76519719999988,0.01519719999987501,5,0.18962699999974575,237.03477459999976,237.03477459999976,237.03477459999976,237.03477459999976,237.03477459999976,237.03477459999976,237.03477459999976,237.03477459999976,237.03477459999976,237.03477459999976,002,P002,2025_Jan_18_0924,ConditionRich,2021.2.3,59.93134265378933,
208.0,211.75,16,0.75,Stimuli/P002/sun_biqyomkjbujnppuf.jpg,0,0,0.0,0,89,89,89,,,,,,,,,,,,,208.03200879999986,0.03200879999985773,5,1.9227484999996705,237.3016702,237.3016702,237.3016702,237.3016702,237.3016702,237.3016702,237.3016702,237.3016702,237.3016702,237.3016702,002,P002,2025_Jan_18_0924,ConditionRich,2021.2.3,59.93134265378933,
211.75,212.0,41,0.0,Stimuli/Blank.png,0,0,0.0,0,90,90,90,,,,,,,,,,,,,211.7709233999999,0.02092339999990145,5,0.1858841999996912,241.03828199999998,241.03828199999998,241.03828199999998,241.03828199999998,241.03828199999998,241.03828199999998,241.03828199999998,241.03828199999998,241.03828199999998,241.03828199999998,002,P002,2025_Jan_18_0924,ConditionRich,2021.2.3,59.93134265378933,
212.0,215.75,9,0.75,Stimuli/P002/sun_awtltwwpwbepuuqv.jpg,1,2,2.75,0,91,91,91,,,,,,,,,,,,,212.02030719999993,0.0203071999999338,1,2.342784699999811,241.28850349999993,241.28850349999993,241.28850349999993,241.28850349999993,241.28850349999993,241.28850349999993,243.27356509999981,244.02428259999988,241.28850349999993,241.28850349999993,002,P002,2025_Jan_18_0924,ConditionRich,2021.2.3,59.93134265378933,
215.75,216.0,41,0.0,Stimuli/Blank.png,0,0,0.0,0,92,92,92,,,,,,,,,,,,,215.77228109999987,0.022281099999872822,5,0.19912999999996828,245.0251175999997,245.0251175999997,245.0251175999997,245.0251175999997,245.0251175999997,245.0251175999997,245.0251175999997,245.0251175999997,245.0251175999997,245.0251175999997,002,P002,2025_Jan_18_0924,ConditionRich,2021.2.3,59.93134265378933,
216.0,219.75,11,0.75,Stimuli/P002/sun_bbfdgdyeqdnadvvi.jpg,0,0,0.0,0,93,93,93,,,,,,,,,,,,,216.0058879999997,0.005887999999686144,5,1.965474500000255,245.2586581999999,245.2586581999999,245.2586581999999,245.2586581999999,245.2586581999999,245.2586581999999,245.2586581999999,245.2586581999999,245.2586581999999,245.2586581999999,002,P002,2025_Jan_18_0924,ConditionRich,2021.2.3,59.93134265378933,
219.75,220.0,41,0.0,Stimuli/Blank.png,0,0,0.0,0,94,94,94,,,,,,,,,,,,,219.7585571999998,0.008557199999813747,5,0.2123262000000068,249.01195899999993,249.01195899999993,249.01195899999993,249.01195899999993,249.01195899999993,249.01195899999993,249.01195899999993,249.01195899999993,249.01195899999993,249.01195899999993,002,P002,2025_Jan_18_0924,ConditionRich,2021.2.3,59.93134265378933,
220.0,223.75,19,0.75,Stimuli/P002/sun_bzyyqqczvrnvukdn.jpg,0,0,0.0,0,95,95,95,,,,,,,,,,,,,220.0095081999998,0.009508199999800127,5,1.9453951000000416,249.27886779999972,249.27886779999972,249.27886779999972,249.27886779999972,249.27886779999972,249.27886779999972,249.27886779999972,249.27886779999972,249.27886779999972,249.27886779999972,002,P002,2025_Jan_18_0924,ConditionRich,2021.2.3,59.93134265378933,
223.75,224.0,41,0.0,Stimuli/Blank.png,0,0,0.0,0,96,96,96,,,,,,,,,,,,,223.77945839999984,0.029458399999839457,5,0.1918786999999611,253.03218079999988,253.03218079999988,253.03218079999988,253.03218079999988,253.03218079999988,253.03218079999988,253.03218079999988,253.03218079999988,253.03218079999988,253.03218079999988,002,P002,2025_Jan_18_0924,ConditionRich,2021.2.3,59.93134265378933,
224.0,227.75,27,0.75,Stimuli/P002/things_dynamite_01b.jpg,0,0,0.0,0,97,97,97,,,,,,,,,,,,,224.01251719999982,0.01251719999982015,5,1.941973599999983,253.2823917999999,253.2823917999999,253.2823917999999,253.2823917999999,253.2823917999999,253.2823917999999,253.2823917999999,253.2823917999999,253.2823917999999,253.2823917999999,002,P002,2025_Jan_18_0924,ConditionRich,2021.2.3,59.93134265378933,
227.75,228.0,41,0.0,Stimuli/Blank.png,0,0,0.0,0,98,98,98,,,,,,,,,,,,,227.76614589999963,0.016145899999628455,None,,257.0190988999998,257.0190988999998,257.0190988999998,257.0190988999998,257.0190988999998,257.0190988999998,257.0190988999998,257.0190988999998,257.0190988999998,257.0190988999998,002,P002,2025_Jan_18_0924,ConditionRich,2021.2.3,59.93134265378933,
228.0,231.75,14,0.75,Stimuli/P002/sun_bfgxassmmvhtarcc.jpg,0,0,0.0,0,99,99,99,,,,,,,,,,,,,228.00005340000007,5.340000006981427e-05,5,1.9716129000003093,257.2525464,257.2525464,257.2525464,257.2525464,257.2525464,257.2525464,257.2525464,257.2525464,257.2525464,257.2525464,002,P002,2025_Jan_18_0924,ConditionRich,2021.2.3,59.93134265378933,
231.75,232.0,41,0.0,Stimuli/Blank.png,0,0,0.0,0,100,100,100,,,,,,,,,,,,,231.75235029999976,0.0023502999997617735,5,0.21822389999988445,261.0058423999999,261.0058423999999,261.0058423999999,261.0058423999999,261.0058423999999,261.0058423999999,261.0058423999999,261.0058423999999,261.0058423999999,261.0058423999999,002,P002,2025_Jan_18_0924,ConditionRich,2021.2.3,59.93134265378933,
232.0,235.75,40,0.75,Stimuli/P002/things_worm_01b.jpg,0,0,0.0,0,101,101,101,,,,,,,,,,,,,232.00409899999977,0.004098999999769148,5,1.9513613000003716,261.27274309999984,261.27274309999984,261.27274309999984,261.27274309999984,261.27274309999984,261.27274309999984,261.27274309999984,261.27274309999984,261.27274309999984,261.27274309999984,002,P002,2025_Jan_18_0924,ConditionRich,2021.2.3,59.93134265378933,
235.75,236.0,41,0.0,Stimuli/Blank.png,0,0,0.0,0,102,102,102,,,,,,,,,,,,,235.77328929999976,0.02328929999976026,5,0.19785540000020774,265.02612640000007,265.02612640000007,265.02612640000007,265.02612640000007,265.02612640000007,265.02612640000007,265.02612640000007,265.02612640000007,265.02612640000007,265.02612640000007,002,P002,2025_Jan_18_0924,ConditionRich,2021.2.3,59.93134265378933,
236.0,239.75,18,0.75,Stimuli/P002/sun_bzjegfvyrvqtunza.jpg,0,0,0.0,0,103,103,103,,,,,,,,,,,,,236.006531,0.006530999999995402,5,1.9478371000000152,265.27627970000003,265.27627970000003,265.27627970000003,265.27627970000003,265.27627970000003,265.27627970000003,265.27627970000003,265.27627970000003,265.27627970000003,265.27627970000003,002,P002,2025_Jan_18_0924,ConditionRich,2021.2.3,59.93134265378933,
239.75,240.0,41,0.0,Stimuli/Blank.png,0,0,0.0,0,104,104,104,,,,,,,,,,,,,239.77631029999975,0.026310299999749986,5,0.19463180000002467,269.0295775999998,269.0295775999998,269.0295775999998,269.0295775999998,269.0295775999998,269.0295775999998,269.0295775999998,269.0295775999998,269.0295775999998,269.0295775999998,002,P002,2025_Jan_18_0924,ConditionRich,2021.2.3,59.93134265378933,
240.0,243.75,31,0.75,Stimuli/P002/things_man_01b.jpg,0,0,0.0,0,105,105,105,,,,,,,,,,,,,240.00984500000004,0.009845000000041182,5,1.9610265000001164,269.2631111999999,269.2631111999999,269.2631111999999,269.2631111999999,269.2631111999999,269.2631111999999,269.2631111999999,269.2631111999999,269.2631111999999,269.2631111999999,002,P002,2025_Jan_18_0924,ConditionRich,2021.2.3,59.93134265378933,
243.75,244.0,41,0.0,Stimuli/Blank.png,0,0,0.0,0,106,106,106,,,,,,,,,,,,,243.76581229999965,0.01581229999965217,5,0.19100190000017392,273.0331011999997,273.0331011999997,273.0331011999997,273.0331011999997,273.0331011999997,273.0331011999997,273.0331011999997,273.0331011999997,273.0331011999997,273.0331011999997,002,P002,2025_Jan_18_0924,ConditionRich,2021.2.3,59.93134265378933,
244.0,247.75,25,0.75,Stimuli/P002/things_curry_01b.jpg,1,1,1.75,0,107,107,107,,,,,,,,,,,,,244.0159346999999,0.015934699999888835,5,1.9407658000000083,273.2833222999998,273.2833222999998,273.2833222999998,273.2833222999998,273.2833222999998,273.2833222999998,274.2675239,275.0182268999997,273.2833222999998,273.2833222999998,002,P002,2025_Jan_18_0924,ConditionRich,2021.2.3,59.93134265378933,
247.75,248.0,41,0.0,Stimuli/Blank.png,0,0,0.0,0,108,108,108,,,,,,,,,,,,,247.76728400000002,0.01728400000001784,None,,277.0199548999999,277.0199548999999,277.0199548999999,277.0199548999999,277.0199548999999,277.0199548999999,277.0199548999999,277.0199548999999,277.0199548999999,277.0199548999999,002,P002,2025_Jan_18_0924,ConditionRich,2021.2.3,59.93134265378933,
248.0,251.75,36,0.75,Stimuli/P002/things_stalagmite_01b.jpg,1,3,3.75,0,109,109,109,,,,,,,,,,,,,247.99999750000006,-2.499999936844688e-06,1,3.366540200000145,277.2534754999997,277.2534754999997,277.2534754999997,277.2534754999997,277.2534754999997,277.2534754999997,280.2394768999998,280.99013779999996,277.2534754999997,277.2534754999997,002,P002,2025_Jan_18_0924,ConditionRich,2021.2.3,59.93134265378933,
251.75,252.0,41,0.0,Stimuli/Blank.png,0,0,0.0,0,110,110,110,,,,,,,,,,,,,251.75445469999977,0.004454699999769218,5,0.217149199999767,281.00679219999984,281.00679219999984,281.00679219999984,281.00679219999984,281.00679219999984,281.00679219999984,281.00679219999984,281.00679219999984,281.00679219999984,281.00679219999984,002,P002,2025_Jan_18_0924,ConditionRich,2021.2.3,59.93134265378933,
252.0,255.75,39,0.75,Stimuli/P002/things_woman_01b.jpg,0,0,0.0,0,111,111,111,,,,,,,,,,,,,252.00416700000005,0.004167000000052212,5,1.9670968999998877,281.25699989999976,281.25699989999976,281.25699989999976,281.25699989999976,281.25699989999976,281.25699989999976,281.25699989999976,281.25699989999976,281.25699989999976,281.25699989999976,002,P002,2025_Jan_18_0924,ConditionRich,2021.2.3,59.93134265378933,
255.75,256.0,41,0.0,Stimuli/Blank.png,0,0,0.0,0,112,112,112,,,,,,,,,,,,,255.75712489999978,0.0071248999997806095,5,0.21370690000003378,285.01030249999985,285.01030249999985,285.01030249999985,285.01030249999985,285.01030249999985,285.01030249999985,285.01030249999985,285.01030249999985,285.01030249999985,285.01030249999985,002,P002,2025_Jan_18_0924,ConditionRich,2021.2.3,59.93134265378933,
256.0,259.75,1,0.75,Stimuli/P002/sun_agpgdwkhzgvzdaea.jpg,1,2,2.75,0,113,113,113,,,,,,,,,,,,,256.0095736999997,0.009573699999691598,1,2.3540133000001333,285.2772098999999,285.2772098999999,285.2772098999999,285.2772098999999,285.2772098999999,285.2772098999999,287.26227419999987,288.01294289999987,285.2772098999999,285.2772098999999,002,P002,2025_Jan_18_0924,ConditionRich,2021.2.3,59.93134265378933,
259.75,260.0,41,0.0,Stimuli/Blank.png,0,0,0.0,0,114,114,114,,,,,,,,,,,,,259.7800293999999,0.03002939999987575,5,0.17699309999989055,289.04719239999986,289.04719239999986,289.04719239999986,289.04719239999986,289.04719239999986,289.04719239999986,289.04719239999986,289.04719239999986,289.04719239999986,289.04719239999986,002,P002,2025_Jan_18_0924,ConditionRich,2021.2.3,59.93134265378933,
260.0,263.75,5,0.75,Stimuli/P002/sun_apwzcrxhvvnrexjh.jpg,0,0,0.0,0,115,115,115,,,,,,,,,,,,,260.02729550000004,0.027295500000036554,5,1.9432003999995686,289.28072539999994,289.28072539999994,289.28072539999994,289.28072539999994,289.28072539999994,289.28072539999994,289.28072539999994,289.28072539999994,289.28072539999994,289.28072539999994,002,P002,2025_Jan_18_0924,ConditionRich,2021.2.3,59.93134265378933,
263.75,264.0,41,0.0,Stimuli/Blank.png,0,0,0.0,0,116,116,116,,,,,,,,,,,,,263.7639801,0.013980100000026141,5,0.20688440000003538,293.0173522,293.0173522,293.0173522,293.0173522,293.0173522,293.0173522,293.0173522,293.0173522,293.0173522,293.0173522,002,P002,2025_Jan_18_0924,ConditionRich,2021.2.3,59.93134265378933,
264.0,267.75,6,0.75,Stimuli/P002/sun_aqbaaqeojrexbmcr.jpg,0,0,0.0,0,117,117,117,,,,,,,,,,,,,264.0150036,0.015003600000000006,5,1.9395822999999837,293.2843315,293.2843315,293.2843315,293.2843315,293.2843315,293.2843315,293.2843315,293.2843315,293.2843315,293.2843315,002,P002,2025_Jan_18_0924,ConditionRich,2021.2.3,59.93134265378933,
267.75,268.0,41,0.0,Stimuli/Blank.png,0,0,0.0,0,118,118,118,,,,,,,,,,,,,267.7672287999999,0.01722879999988436,None,,297.0208738000001,297.0208738000001,297.0208738000001,297.0208738000001,297.0208738000001,297.0208738000001,297.0208738000001,297.0208738000001,297.0208738000001,297.0208738000001,002,P002,2025_Jan_18_0924,ConditionRich,2021.2.3,59.93134265378933,
268.0,271.75,21,0.75,Stimuli/P002/things_baby_01b.jpg,0,0,0.0,0,119,119,119,,,,,,,,,,,,,268.00168570000005,0.0016857000000527478,5,1.9528221999999005,297.2710982999997,297.2710982999997,297.2710982999997,297.2710982999997,297.2710982999997,297.2710982999997,297.2710982999997,297.2710982999997,297.2710982999997,297.2710982999997,002,P002,2025_Jan_18_0924,ConditionRich,2021.2.3,59.93134265378933,
271.75,272.0,41,0.0,Stimuli/Blank.png,0,0,0.0,0,120,120,120,,,,,,,,,,,,,271.77164919999996,0.02164919999995618,5,0.19956739999997808,301.0244619,301.0244619,301.0244619,301.0244619,301.0244619,301.0244619,301.0244619,301.0244619,301.0244619,301.0244619,002,P002,2025_Jan_18_0924,ConditionRich,2021.2.3,59.93134265378933,
272.0,275.75,33,0.75,Stimuli/P002/things_pan_01b.jpg,0,0,0.0,0,121,121,121,,,,,,,,,,,,,272.00548979999985,0.00548979999985022,5,1.966091399999641,301.25794129999986,301.25794129999986,301.25794129999986,301.25794129999986,301.25794129999986,301.25794129999986,301.25794129999986,301.25794129999986,301.25794129999986,301.25794129999986,002,P002,2025_Jan_18_0924,ConditionRich,2021.2.3,59.93134265378933,
275.75,276.0,41,0.0,Stimuli/Blank.png,0,0,0.0,0,122,122,122,,,,,,,,,,,,,275.75821529999985,0.008215299999847048,5,0.2127267999999276,305.0112264999998,305.0112264999998,305.0112264999998,305.0112264999998,305.0112264999998,305.0112264999998,305.0112264999998,305.0112264999998,305.0112264999998,305.0112264999998,002,P002,2025_Jan_18_0924,ConditionRich,2021.2.3,59.93134265378933,
276.0,292.0,0,0.0,Stimuli/Blank.png,1,12,12.75,0,123,123,123,,,,,,,,,,,,,276.0107089999997,0.010708999999678781,5,15.945875899999919,305.2781424,305.2781424,305.2781424,305.2781424,305.2781424,305.2781424,317.2553780999997,318.0060034999997,305.2781424,305.2781424,002,P002,2025_Jan_18_0924,ConditionRich,2021.2.3,59.93134265378933,
292.0,295.75,2,0.75,Stimuli/P002/sun_akmxsxepquhynflp.jpg,0,0,0.0,0,124,124,124,,,,,,,,,,,,,292.02463080000007,0.02463080000006812,5,1.931659899999886,321.2922284000001,321.2922284000001,321.2922284000001,321.2922284000001,321.2922284000001,321.2922284000001,321.2922284000001,321.2922284000001,321.2922284000001,321.2922284000001,002,P002,2025_Jan_18_0924,ConditionRich,2021.2.3,59.93134265378933,
295.75,296.0,41,0.0,Stimuli/Blank.png,0,0,0.0,0,125,125,125,,,,,,,,,,,,,295.7759410999997,0.025941099999727157,5,0.19516859999976077,325.0288483999998,325.0288483999998,325.0288483999998,325.0288483999998,325.0288483999998,325.0288483999998,325.0288483999998,325.0288483999998,325.0288483999998,325.0288483999998,002,P002,2025_Jan_18_0924,ConditionRich,2021.2.3,59.93134265378933,
296.0,299.75,12,0.75,Stimuli/P002/sun_bdxvmnlyovhqognn.jpg,0,0,0.0,0,126,126,126,,,,,,,,,,,,,296.0099737999999,0.009973799999897892,5,1.9449380000000929,325.2790697999999,325.2790697999999,325.2790697999999,325.2790697999999,325.2790697999999,325.2790697999999,325.2790697999999,325.2790697999999,325.2790697999999,325.2790697999999,002,P002,2025_Jan_18_0924,ConditionRich,2021.2.3,59.93134265378933,
299.75,300.0,41,0.0,Stimuli/Blank.png,0,0,0.0,0,127,127,127,,,,,,,,,,,,,299.77983449999965,0.029834499999651598,5,0.19159940000008646,329.0323773,329.0323773,329.0323773,329.0323773,329.0323773,329.0323773,329.0323773,329.0323773,329.0323773,329.0323773,002,P002,2025_Jan_18_0924,ConditionRich,2021.2.3,59.93134265378933,
300.0,303.75,13,0.75,Stimuli/P002/sun_bfdmlbkyioxnkodb.jpg,0,0,0.0,0,128,128,128,,,,,,,,,,,,,300.01474629999984,0.01474629999984245,5,1.9415171000000555,329.2825966999999,329.2825966999999,329.2825966999999,329.2825966999999,329.2825966999999,329.2825966999999,329.2825966999999,329.2825966999999,329.2825966999999,329.2825966999999,002,P002,2025_Jan_18_0924,ConditionRich,2021.2.3,59.93134265378933,
303.75,304.0,41,0.0,Stimuli/Blank.png,0,0,0.0,0,129,129,129,,,,,,,,,,,,,303.7660858999998,0.01608589999977994,None,,333.0192167,333.0192167,333.0192167,333.0192167,333.0192167,333.0192167,333.0192167,333.0192167,333.0192167,333.0192167,002,P002,2025_Jan_18_0924,ConditionRich,2021.2.3,59.93134265378933,
304.0,307.75,34,0.75,Stimuli/P002/things_parrot_01b.jpg,0,0,0.0,0,130,130,130,,,,,,,,,,,,,304.00002779999977,2.7799999770650174e-05,5,1.954456299999947,333.26945509999996,333.26945509999996,333.26945509999996,333.26945509999996,333.26945509999996,333.26945509999996,333.26945509999996,333.26945509999996,333.26945509999996,333.26945509999996,002,P002,2025_Jan_18_0924,ConditionRich,2021.2.3,59.93134265378933,
307.75,308.0,41,0.0,Stimuli/Blank.png,0,0,0.0,0,131,131,131,,,,,,,,,,,,,307.76982279999993,0.019822799999928975,5,0.20108219999974608,337.0227454999999,337.0227454999999,337.0227454999999,337.0227454999999,337.0227454999999,337.0227454999999,337.0227454999999,337.0227454999999,337.0227454999999,337.0227454999999,002,P002,2025_Jan_18_0924,ConditionRich,2021.2.3,59.93134265378933,
308.0,311.75,38,0.75,Stimuli/P002/things_windowsill_01b.jpg,0,0,0.0,0,132,132,132,,,,,,,,,,,,,308.0057145999999,0.005714599999919301,5,1.9508794999997008,337.2729602999998,337.2729602999998,337.2729602999998,337.2729602999998,337.2729602999998,337.2729602999998,337.2729602999998,337.2729602999998,337.2729602999998,337.2729602999998,002,P002,2025_Jan_18_0924,ConditionRich,2021.2.3,59.93134265378933,
311.75,312.0,41,0.0,Stimuli/Blank.png,0,0,0.0,0,133,133,133,,,,,,,,,,,,,311.77541949999977,0.025419499999770778,5,0.18093769999995857,341.04294579999987,341.04294579999987,341.04294579999987,341.04294579999987,341.04294579999987,341.04294579999987,341.04294579999987,341.04294579999987,341.04294579999987,341.04294579999987,002,P002,2025_Jan_18_0924,ConditionRich,2021.2.3,59.93134265378933,
312.0,315.75,10,0.75,Stimuli/P002/sun_aykefnhciwsffcrj.jpg,0,0,0.0,0,134,134,134,,,,,,,,,,,,,312.0257902999997,0.025790299999698618,5,1.9307764999998653,341.29317009999977,341.29317009999977,341.29317009999977,341.29317009999977,341.29317009999977,341.29317009999977,341.29317009999977,341.29317009999977,341.29317009999977,341.29317009999977,002,P002,2025_Jan_18_0924,ConditionRich,2021.2.3,59.93134265378933,
315.75,316.0,41,0.0,Stimuli/Blank.png,0,0,0.0,0,135,135,135,,,,,,,,,,,,,315.7765838,0.026583800000025803,5,0.19394700000020748,345.0298534999997,345.0298534999997,345.0298534999997,345.0298534999997,345.0298534999997,345.0298534999997,345.0298534999997,345.0298534999997,345.0298534999997,345.0298534999997,002,P002,2025_Jan_18_0924,ConditionRich,2021.2.3,59.93134265378933,
316.0,319.75,4,0.75,Stimuli/P002/sun_aonjwqswdblhlpkm.jpg,0,0,0.0,0,136,136,136,,,,,,,,,,,,,316.0098671999999,0.00986719999991692,5,1.9605484000003344,345.263336,345.263336,345.263336,345.263336,345.263336,345.263336,345.263336,345.263336,345.263336,345.263336,002,P002,2025_Jan_18_0924,ConditionRich,2021.2.3,59.93134265378933,
319.75,320.0,41,0.0,Stimuli/Blank.png,0,0,0.0,0,137,137,137,,,,,,,,,,,,,319.76301669999975,0.013016699999752745,5,0.20704690000002302,349.0166690000001,349.0166690000001,349.0166690000001,349.0166690000001,349.0166690000001,349.0166690000001,349.0166690000001,349.0166690000001,349.0166690000001,349.0166690000001,002,P002,2025_Jan_18_0924,ConditionRich,2021.2.3,59.93134265378933,
320.0,323.75,26,0.75,Stimuli/P002/things_dish_01b.jpg,1,3,3.75,0,138,138,138,,,,,,,,,,,,,320.0142920999997,0.014292099999693164,1,3.345374300000003,349.28351900000007,349.28351900000007,349.28351900000007,349.28351900000007,349.28351900000007,349.28351900000007,352.2528100999998,353.00350290000006,349.28351900000007,349.28351900000007,002,P002,2025_Jan_18_0924,ConditionRich,2021.2.3,59.93134265378933,
323.75,324.0,41,0.0,Stimuli/Blank.png,0,0,0.0,0,139,139,139,,,,,,,,,,,,,323.7673497999999,0.017349799999919924,None,,353.02016000000003,353.02016000000003,353.02016000000003,353.02016000000003,353.02016000000003,353.02016000000003,353.02016000000003,353.02016000000003,353.02016000000003,353.02016000000003,002,P002,2025_Jan_18_0924,ConditionRich,2021.2.3,59.93134265378933,
324.0,327.75,24,0.75,Stimuli/P002/things_cornucopia_01b.jpg,1,1,1.75,0,140,140,140,,,,,,,,,,,,,324.00013409999974,0.00013409999974101083,5,1.9701563000003262,353.25368279999975,353.25368279999975,353.25368279999975,353.25368279999975,353.25368279999975,353.25368279999975,354.23788539999987,354.9885810999999,353.25368279999975,353.25368279999975,002,P002,2025_Jan_18_0924,ConditionRich,2021.2.3,59.93134265378933,
327.75,328.0,41,0.0,Stimuli/Blank.png,0,0,0.0,0,141,141,141,,,,,,,,,,,,,327.75423649999993,0.004236499999933585,5,0.21702730000015436,357.006989,357.006989,357.006989,357.006989,357.006989,357.006989,357.006989,357.006989,357.006989,357.006989,002,P002,2025_Jan_18_0924,ConditionRich,2021.2.3,59.93134265378933,
328.0,331.75,29,0.75,Stimuli/P002/things_grinder_01b.jpg,0,0,0.0,0,142,142,142,,,,,,,,,,,,,328.00503419999995,0.0050341999999545806,5,1.9499316000001272,357.27390609999975,357.27390609999975,357.27390609999975,357.27390609999975,357.27390609999975,357.27390609999975,357.27390609999975,357.27390609999975,357.27390609999975,357.27390609999975,002,P002,2025_Jan_18_0924,ConditionRich,2021.2.3,59.93134265378933,
331.75,332.0,41,0.0,Stimuli/Blank.png,0,0,0.0,0,143,143,143,,,,,,,,,,,,,331.77503119999983,0.025031199999830278,5,0.19648210000013933,361.02720039999986,361.02720039999986,361.02720039999986,361.02720039999986,361.02720039999986,361.02720039999986,361.02720039999986,361.02720039999986,361.02720039999986,361.02720039999986,002,P002,2025_Jan_18_0924,ConditionRich,2021.2.3,59.93134265378933,
332.0,335.75,35,0.75,Stimuli/P002/things_pepperoni_01b.jpg,0,0,0.0,0,144,144,144,,,,,,,,,,,,,332.0099560999997,0.009956099999726575,5,1.9464297999998053,361.2774174000001,361.2774174000001,361.2774174000001,361.2774174000001,361.2774174000001,361.2774174000001,361.2774174000001,361.2774174000001,361.2774174000001,361.2774174000001,002,P002,2025_Jan_18_0924,ConditionRich,2021.2.3,59.93134265378933,
335.75,336.0,41,0.0,Stimuli/Blank.png,0,0,0.0,0,145,145,145,,,,,,,,,,,,,335.77968029999965,0.02968029999965438,5,0.17647870000018884,365.0473978,365.0473978,365.0473978,365.0473978,365.0473978,365.0473978,365.0473978,365.0473978,365.0473978,365.0473978,002,P002,2025_Jan_18_0924,ConditionRich,2021.2.3,59.93134265378933,
336.0,339.75,37,0.75,Stimuli/P002/things_starfish_01b.jpg,1,3,3.75,0,146,146,146,,,,,,,,,,,,,336.0280926999999,0.028092699999888282,1,3.353950199999872,365.2809379999999,365.2809379999999,365.2809379999999,365.2809379999999,365.2809379999999,365.2809379999999,368.2668887,None,365.2809379999999,365.2809379999999,002,P002,2025_Jan_18_0924,ConditionRich,2021.2.3,59.93134265378933,
339.75,340.0,41,0.0,Stimuli/Blank.png,0,0,0.0,0,147,147,147,,,,,,,,,,,,,339.7652751999999,0.015275199999905453,5,0.20613020000018878,369.0175595999999,369.0175595999999,369.0175595999999,369.0175595999999,369.0175595999999,369.0175595999999,369.0175595999999,369.0175595999999,369.0175595999999,369.0175595999999,002,P002,2025_Jan_18_0924,ConditionRich,2021.2.3,59.93134265378933,
340.0,343.75,8,0.75,Stimuli/P002/sun_asqboyqakusycvwd.jpg,0,0,0.0,0,148,148,148,,,,,,,,,,,,,340.01494539999976,0.014945399999760411,5,1.9559979000000567,369.2677506,369.2677506,369.2677506,369.2677506,369.2677506,369.2677506,369.2677506,369.2677506,369.2677506,369.2677506,002,P002,2025_Jan_18_0924,ConditionRich,2021.2.3,59.93134265378933,
343.75,344.0,41,0.0,Stimuli/Blank.png,0,0,0.0,0,149,149,149,,,,,,,,,,,,,343.75096259999964,0.0009625999996387691,None,,373.00439259999985,373.00439259999985,373.00439259999985,373.00439259999985,373.00439259999985,373.00439259999985,373.00439259999985,373.00439259999985,373.00439259999985,373.00439259999985,002,P002,2025_Jan_18_0924,ConditionRich,2021.2.3,59.93134265378933,
344.0,347.75,30,0.75,Stimuli/P002/things_iguana_01b.jpg,1,1,1.75,0,150,150,150,,,,,,,,,,,,,344.00133559999995,0.0013355999999475898,5,1.952339800000118,373.27131039999995,373.27131039999995,373.27131039999995,373.27131039999995,373.27131039999995,373.27131039999995,374.2388443,374.98949679999987,373.27131039999995,373.27131039999995,002,P002,2025_Jan_18_0924,ConditionRich,2021.2.3,59.93134265378933,
347.75,348.0,41,0.0,Stimuli/Blank.png,0,0,0.0,0,151,151,151,,,,,,,,,,,,,347.77187609999964,0.021876099999644794,5,0.19916049999983443,377.0245993999997,377.0245993999997,377.0245993999997,377.0245993999997,377.0245993999997,377.0245993999997,377.0245993999997,377.0245993999997,377.0245993999997,377.0245993999997,002,P002,2025_Jan_18_0924,ConditionRich,2021.2.3,59.93134265378933,
348.0,351.75,17,0.75,Stimuli/P002/sun_bshgmgbmpvjkxfis.jpg,0,0,0.0,0,152,152,152,,,,,,,,,,,,,348.0053874,0.005387400000017806,5,1.965537300000051,377.25814679999985,377.25814679999985,377.25814679999985,377.25814679999985,377.25814679999985,377.25814679999985,377.25814679999985,377.25814679999985,377.25814679999985,377.25814679999985,002,P002,2025_Jan_18_0924,ConditionRich,2021.2.3,59.93134265378933,
351.75,352.0,41,0.0,Stimuli/Blank.png,0,0,0.0,0,153,153,153,,,,,,,,,,,,,351.75880089999964,0.008800899999641842,5,0.21221689999993032,381.01144939999995,381.01144939999995,381.01144939999995,381.01144939999995,381.01144939999995,381.01144939999995,381.01144939999995,381.01144939999995,381.01144939999995,381.01144939999995,002,P002,2025_Jan_18_0924,ConditionRich,2021.2.3,59.93134265378933,
352.0,355.75,28,0.75,Stimuli/P002/things_girl_01b.jpg,0,0,0.0,0,154,154,154,,,,,,,,,,,,,352.00878429999966,0.008784299999661016,5,1.9621305999999095,381.26167129999976,381.26167129999976,381.26167129999976,381.26167129999976,381.26167129999976,381.26167129999976,381.26167129999976,381.26167129999976,381.26167129999976,381.26167129999976,002,P002,2025_Jan_18_0924,ConditionRich,2021.2.3,59.93134265378933,
355.75,356.0,41,0.0,Stimuli/Blank.png,0,0,0.0,0,155,155,155,,,,,,,,,,,,,355.7617875000001,0.011787500000082218,5,0.20864790000041467,385.0150426,385.0150426,385.0150426,385.0150426,385.0150426,385.0150426,385.0150426,385.0150426,385.0150426,385.0150426,002,P002,2025_Jan_18_0924,ConditionRich,2021.2.3,59.93134265378933,
356.0,359.75,15,0.75,Stimuli/P002/sun_bfzoxbkvsfqxsyle.jpg,0,0,0.0,0,156,156,156,,,,,,,,,,,,,356.0145216000001,0.01452160000008007,5,1.9420310999998946,385.2818750000001,385.2818750000001,385.2818750000001,385.2818750000001,385.2818750000001,385.2818750000001,385.2818750000001,385.2818750000001,385.2818750000001,385.2818750000001,002,P002,2025_Jan_18_0924,ConditionRich,2021.2.3,59.93134265378933,
359.75,360.0,41,0.0,Stimuli/Blank.png,0,0,0.0,0,157,157,157,,,,,,,,,,,,,359.7649443,0.014944300000024668,5,0.2064172000000326,389.0184860999998,389.0184860999998,389.0184860999998,389.0184860999998,389.0184860999998,389.0184860999998,389.0184860999998,389.0184860999998,389.0184860999998,389.0184860999998,002,P002,2025_Jan_18_0924,ConditionRich,2021.2.3,59.93134265378933,
360.0,363.75,3,0.75,Stimuli/P002/sun_amarqtinchblqmah.jpg,0,0,0.0,0,158,158,158,,,,,,,,,,,,,360.01541799999995,0.01541799999995419,5,1.955877099999725,389.2687136999998,389.2687136999998,389.2687136999998,389.2687136999998,389.2687136999998,389.2687136999998,389.2687136999998,389.2687136999998,389.2687136999998,389.2687136999998,002,P002,2025_Jan_18_0924,ConditionRich,2021.2.3,59.93134265378933,
363.75,364.0,41,0.0,Stimuli/Blank.png,0,0,0.0,0,159,159,159,,,,,,,,,,,,,363.7544098999997,0.0044098999997004285,5,0.20260989999997037,393.0220215999998,393.0220215999998,393.0220215999998,393.0220215999998,393.0220215999998,393.0220215999998,393.0220215999998,393.0220215999998,393.0220215999998,393.0220215999998,002,P002,2025_Jan_18_0924,ConditionRich,2021.2.3,59.93134265378933,
364.0,367.75,32,0.75,Stimuli/P002/things_oyster_01b.jpg,0,0,0.0,0,160,160,160,,,,,,,,,,,,,364.0202122999999,0.02021229999991192,5,1.935725999999704,393.28894760000003,393.28894760000003,393.28894760000003,393.28894760000003,393.28894760000003,393.28894760000003,393.28894760000003,393.28894760000003,393.28894760000003,393.28894760000003,002,P002,2025_Jan_18_0924,ConditionRich,2021.2.3,59.93134265378933,
367.75,368.0,41,0.0,Stimuli/Blank.png,0,0,0.0,0,161,161,161,,,,,,,,,,,,,367.7726287999999,0.02262879999989309,5,0.19913210000004256,397.02555989999973,397.02555989999973,397.02555989999973,397.02555989999973,397.02555989999973,397.02555989999973,397.02555989999973,397.02555989999973,397.02555989999973,397.02555989999973,002,P002,2025_Jan_18_0924,ConditionRich,2021.2.3,59.93134265378933,
368.0,371.75,22,0.75,Stimuli/P002/things_boy_01b.jpg,0,0,0.0,0,162,162,162,,,,,,,,,,,,,368.00646819999974,0.006468199999744684,5,1.948829299999943,397.2757723999998,397.2757723999998,397.2757723999998,397.2757723999998,397.2757723999998,397.2757723999998,397.2757723999998,397.2757723999998,397.2757723999998,397.2757723999998,002,P002,2025_Jan_18_0924,ConditionRich,2021.2.3,59.93134265378933,
371.75,372.0,41,0.0,Stimuli/Blank.png,0,0,0.0,0,163,163,163,,,,,,,,,,,,,371.7758976,0.025897600000007515,5,0.19568070000013904,401.0290605,401.0290605,401.0290605,401.0290605,401.0290605,401.0290605,401.0290605,401.0290605,401.0290605,401.0290605,002,P002,2025_Jan_18_0924,ConditionRich,2021.2.3,59.93134265378933,
372.0,388.0,0,0.0,Stimuli/Blank.png,1,5,5.75,0,164,164,164,,,,,,,,,,,,,372.0099243999998,0.009924399999817979,5,13.961891800000103,401.26260969999976,401.26260969999976,401.26260969999976,401.26260969999976,401.26260969999976,401.26260969999976,406.2503541000001,407.0009756999998,401.26260969999976,401.26260969999976,002,P002,2025_Jan_18_0924,ConditionRich,2021.2.3,59.93134265378933,
