eventStartTime,eventEndTime,eventCond,imSize,imFile,responseEvent,fixRespStart,fixRespEnd,Events.thisRepN,Events.thisTrialN,Events.thisN,Events.thisIndex,Instructions.started,Instructions.stopped,participantReadyResponse.keys,participantReadyResponse.rt,participantReadyResponse.started,participantReadyResponse.stopped,startWaitforTrigger,triggerResponse.keys,triggerResponse.rt,triggerResponse.started,triggerResponse.stopped,globalTimer,actualStartTime,startTimingDiff,participantResponse.keys,participantResponse.rt,participantResponse.started,participantResponse.stopped,image.started,image.stopped,fixationOutside.started,fixationOutside.stopped,fixationResponse.started,fixationResponse.stopped,fixationInside.started,fixationInside.stopped,session,participant,date,expName,psychopyVersion,frameRate,
,,,,,,,,,,,,13.060836000000563,None,1,13.018304700000044,13.060836000000563,None,,,,,,,,,,,,,,,,,,,,,006,P002,2025_Jan_18_0959,ConditionRich,2021.2.3,59.93899409185422,
,,,,,,,,,,,,,,,,,,26.086200700000518,5,24.46733690000019,26.09881100000075,None,,,,,,,,,,,,,,,,006,P002,2025_Jan_18_0959,ConditionRich,2021.2.3,59.93899409185422,
0.0,4.0,0,0.0,Stimuli/Blank.png,0,0.0,0.0,0,0,0,0,,,,,,,,,,,,50.57356140000047,0.04044210000029125,0.04044210000029125,5,3.9289631999999983,50.63703910000004,None,50.63703910000004,None,50.63703910000004,None,50.63703910000004,50.63703910000004,50.63703910000004,None,006,P002,2025_Jan_18_0959,ConditionRich,2021.2.3,59.93899409185422,
4.0,4.75,20,0.75,Stimuli/P002/sun_dkgctqgpvxbaoyks.jpg,0,0.0,0.0,0,1,1,1,,,,,,,,,,,,,4.019901099999515,0.01990109999951528,None,,54.60746900000049,54.60746900000049,54.60746900000049,54.60746900000049,54.60746900000049,54.60746900000049,54.60746900000049,54.60746900000049,54.60746900000049,54.60746900000049,006,P002,2025_Jan_18_0959,ConditionRich,2021.2.3,59.93899409185422,
4.75,8.0,41,0.0,Stimuli/Blank.png,0,0.0,0.0,0,2,2,2,,,,,,,,,,,,,4.753501700000015,0.003501700000015262,5,1.224425400000655,55.34147150000081,55.34147150000081,55.34147150000081,55.34147150000081,55.34147150000081,55.34147150000081,55.34147150000081,55.34147150000081,55.34147150000081,55.34147150000081,006,P002,2025_Jan_18_0959,ConditionRich,2021.2.3,59.93899409185422,
8.0,8.75,23,0.75,Stimuli/P002/things_chick_01b.jpg,0,0.0,0.0,0,3,3,3,,,,,,,,,,,,,8.006704999999783,0.0067049999997834675,None,,58.59403790000033,58.59403790000033,58.59403790000033,58.59403790000033,58.59403790000033,58.59403790000033,58.59403790000033,58.59403790000033,58.59403790000033,58.59403790000033,006,P002,2025_Jan_18_0959,ConditionRich,2021.2.3,59.93899409185422,
8.75,12.0,41,0.0,Stimuli/Blank.png,0,0.0,0.0,0,4,4,4,,,,,,,,,,,,,8.75683570000001,0.006835700000010547,5,1.221275799999603,59.3446926000006,59.3446926000006,59.3446926000006,59.3446926000006,59.3446926000006,59.3446926000006,59.3446926000006,59.3446926000006,59.3446926000006,59.3446926000006,006,P002,2025_Jan_18_0959,ConditionRich,2021.2.3,59.93899409185422,
12.0,12.75,5,0.75,Stimuli/P002/sun_apwzcrxhvvnrexjh.jpg,0,0.0,0.0,0,5,5,5,,,,,,,,,,,,,12.009808300000259,0.009808300000258896,None,,62.59756910000033,62.59756910000033,62.59756910000033,62.59756910000033,62.59756910000033,62.59756910000033,62.59756910000033,62.59756910000033,62.59756910000033,62.59756910000033,006,P002,2025_Jan_18_0959,ConditionRich,2021.2.3,59.93899409185422,
12.75,16.0,41,0.0,Stimuli/Blank.png,0,0.0,0.0,0,6,6,6,,,,,,,,,,,,,12.763061900000139,0.013061900000138849,5,3.2011161000000357,63.36491240000032,63.36491240000032,63.36491240000032,63.36491240000032,63.36491240000032,63.36491240000032,63.36491240000032,63.36491240000032,63.36491240000032,63.36491240000032,006,P002,2025_Jan_18_0959,ConditionRich,2021.2.3,59.93899409185422,
16.0,16.75,15,0.75,Stimuli/P002/sun_bfzoxbkvsfqxsyle.jpg,0,0.0,0.0,0,7,7,7,,,,,,,,,,,,,16.013059099999737,0.013059099999736645,None,,66.60108890000083,66.60108890000083,66.60108890000083,66.60108890000083,66.60108890000083,66.60108890000083,66.60108890000083,66.60108890000083,66.60108890000083,66.60108890000083,006,P002,2025_Jan_18_0959,ConditionRich,2021.2.3,59.93899409185422,
16.75,20.0,41,0.0,Stimuli/Blank.png,0,0.0,0.0,0,8,8,8,,,,,,,,,,,,,16.76399880000008,0.013998800000081246,5,1.2142019999992044,67.35174700000061,67.35174700000061,67.35174700000061,67.35174700000061,67.35174700000061,67.35174700000061,67.35174700000061,67.35174700000061,67.35174700000061,67.35174700000061,006,P002,2025_Jan_18_0959,ConditionRich,2021.2.3,59.93899409185422,
20.0,20.75,26,0.75,Stimuli/P002/things_dish_01b.jpg,0,0.0,0.0,0,9,9,9,,,,,,,,,,,,,20.002599599999485,0.0025995999994847807,None,,70.6046064000002,70.6046064000002,70.6046064000002,70.6046064000002,70.6046064000002,70.6046064000002,70.6046064000002,70.6046064000002,70.6046064000002,70.6046064000002,006,P002,2025_Jan_18_0959,ConditionRich,2021.2.3,59.93899409185422,
20.75,24.0,41,0.0,Stimuli/Blank.png,0,0.0,0.0,0,10,10,10,,,,,,,,,,,,,20.7679092999997,0.017909299999701034,5,3.1939566999999442,71.37195740000061,71.37195740000061,71.37195740000061,71.37195740000061,71.37195740000061,71.37195740000061,71.37195740000061,71.37195740000061,71.37195740000061,71.37195740000061,006,P002,2025_Jan_18_0959,ConditionRich,2021.2.3,59.93899409185422,
24.0,24.75,22,0.75,Stimuli/P002/things_boy_01b.jpg,0,0.0,0.0,0,11,11,11,,,,,,,,,,,,,24.02089840000008,0.020898400000078254,None,,74.62481360000038,74.62481360000038,74.62481360000038,74.62481360000038,74.62481360000038,74.62481360000038,74.62481360000038,74.62481360000038,74.62481360000038,74.62481360000038,006,P002,2025_Jan_18_0959,ConditionRich,2021.2.3,59.93899409185422,
24.75,28.0,41,0.0,Stimuli/Blank.png,1,1.25,2.0,0,12,12,12,,,,,,,,,,,,,24.771808700000292,0.021808700000292447,1,1.57304589999967,75.35880830000042,75.35880830000042,75.35880830000042,75.35880830000042,75.35880830000042,75.35880830000042,76.59321070000078,77.34387010000046,75.35880830000042,75.35880830000042,006,P002,2025_Jan_18_0959,ConditionRich,2021.2.3,59.93899409185422,
28.0,28.75,8,0.75,Stimuli/P002/sun_asqboyqakusycvwd.jpg,0,0.0,0.0,0,13,13,13,,,,,,,,,,,,,28.007719299999735,0.007719299999735085,None,,78.61165010000059,78.61165010000059,78.61165010000059,78.61165010000059,78.61165010000059,78.61165010000059,78.61165010000059,78.61165010000059,78.61165010000059,78.61165010000059,006,P002,2025_Jan_18_0959,ConditionRich,2021.2.3,59.93899409185422,
28.75,32.0,41,0.0,Stimuli/Blank.png,0,0.0,0.0,0,14,14,14,,,,,,,,,,,,,28.77693679999993,0.026936799999930372,5,3.1868556999997963,79.37900510000054,79.37900510000054,79.37900510000054,79.37900510000054,79.37900510000054,79.37900510000054,79.37900510000054,79.37900510000054,79.37900510000054,79.37900510000054,006,P002,2025_Jan_18_0959,ConditionRich,2021.2.3,59.93899409185422,
32.0,32.75,36,0.75,Stimuli/P002/things_stalagmite_01b.jpg,0,0.0,0.0,0,15,15,15,,,,,,,,,,,,,32.02710829999978,0.027108299999781593,None,,82.61519240000052,82.61519240000052,82.61519240000052,82.61519240000052,82.61519240000052,82.61519240000052,82.61519240000052,82.61519240000052,82.61519240000052,82.61519240000052,006,P002,2025_Jan_18_0959,ConditionRich,2021.2.3,59.93899409185422,
32.75,36.0,41,0.0,Stimuli/Blank.png,0,0.0,0.0,0,16,16,16,,,,,,,,,,,,,32.76196919999984,0.011969199999839475,5,3.2167214000000968,83.34916200000043,83.34916200000043,83.34916200000043,83.34916200000043,83.34916200000043,83.34916200000043,83.34916200000043,83.34916200000043,83.34916200000043,83.34916200000043,006,P002,2025_Jan_18_0959,ConditionRich,2021.2.3,59.93899409185422,
36.0,36.75,33,0.75,Stimuli/P002/things_pan_01b.jpg,0,0.0,0.0,0,17,17,17,,,,,,,,,,,,,36.014621199999965,0.014621199999965029,None,,86.60202340000069,86.60202340000069,86.60202340000069,86.60202340000069,86.60202340000069,86.60202340000069,86.60202340000069,86.60202340000069,86.60202340000069,86.60202340000069,006,P002,2025_Jan_18_0959,ConditionRich,2021.2.3,59.93899409185422,
36.75,40.0,41,0.0,Stimuli/Blank.png,0,0.0,0.0,0,18,18,18,,,,,,,,,,,,,36.76674529999946,0.01674529999945662,5,3.1967075000002296,87.3693886000001,87.3693886000001,87.3693886000001,87.3693886000001,87.3693886000001,87.3693886000001,87.3693886000001,87.3693886000001,87.3693886000001,87.3693886000001,006,P002,2025_Jan_18_0959,ConditionRich,2021.2.3,59.93899409185422,
40.0,40.75,18,0.75,Stimuli/P002/sun_bzjegfvyrvqtunza.jpg,0,0.0,0.0,0,19,19,19,,,,,,,,,,,,,40.01781080000001,0.017810800000006566,None,,90.6055522000006,90.6055522000006,90.6055522000006,90.6055522000006,90.6055522000006,90.6055522000006,90.6055522000006,90.6055522000006,90.6055522000006,90.6055522000006,006,P002,2025_Jan_18_0959,ConditionRich,2021.2.3,59.93899409185422,
40.75,44.0,41,0.0,Stimuli/Blank.png,0,0.0,0.0,0,20,20,20,,,,,,,,,,,,,40.7525085999996,0.002508599999600847,5,1.2262861999997767,91.33953680000013,91.33953680000013,91.33953680000013,91.33953680000013,91.33953680000013,91.33953680000013,91.33953680000013,91.33953680000013,91.33953680000013,91.33953680000013,006,P002,2025_Jan_18_0959,ConditionRich,2021.2.3,59.93899409185422,
44.0,44.75,19,0.75,Stimuli/P002/sun_bzyyqqczvrnvukdn.jpg,0,0.0,0.0,0,21,21,21,,,,,,,,,,,,,44.00412520000009,0.004125200000089535,None,,94.59239140000045,94.59239140000045,94.59239140000045,94.59239140000045,94.59239140000045,94.59239140000045,94.59239140000045,94.59239140000045,94.59239140000045,94.59239140000045,006,P002,2025_Jan_18_0959,ConditionRich,2021.2.3,59.93899409185422,
44.75,48.0,41,0.0,Stimuli/Blank.png,0,0.0,0.0,0,22,22,22,,,,,,,,,,,,,44.75781769999958,0.007817699999577599,5,3.2061126999997214,95.35973439999998,95.35973439999998,95.35973439999998,95.35973439999998,95.35973439999998,95.35973439999998,95.35973439999998,95.35973439999998,95.35973439999998,95.35973439999998,006,P002,2025_Jan_18_0959,ConditionRich,2021.2.3,59.93899409185422,
48.0,48.75,28,0.75,Stimuli/P002/things_girl_01b.jpg,1,0.0,0.75,0,23,23,23,,,,,,,,,,,,,48.02685769999971,0.02685769999970944,1,0.4365863000002719,98.62927630000013,98.62927630000013,98.62927630000013,98.62927630000013,98.62927630000013,98.62927630000013,98.62927630000013,None,98.62927630000013,98.62927630000013,006,P002,2025_Jan_18_0959,ConditionRich,2021.2.3,59.93899409185422,
48.75,52.0,41,0.0,Stimuli/Blank.png,0,0.0,0.0,0,24,24,24,,,,,,,,,,,,,48.77639699999963,0.026396999999633408,5,3.2027743999997256,99.36325430000034,99.36325430000034,99.36325430000034,99.36325430000034,99.36325430000034,99.36325430000034,99.36325430000034,99.36325430000034,99.36325430000034,99.36325430000034,006,P002,2025_Jan_18_0959,ConditionRich,2021.2.3,59.93899409185422,
52.0,52.75,27,0.75,Stimuli/P002/things_dynamite_01b.jpg,0,0.0,0.0,0,25,25,25,,,,,,,,,,,,,52.01156079999964,0.011560799999642768,None,,102.59943100000055,102.59943100000055,102.59943100000055,102.59943100000055,102.59943100000055,102.59943100000055,102.59943100000055,102.59943100000055,102.59943100000055,102.59943100000055,006,P002,2025_Jan_18_0959,ConditionRich,2021.2.3,59.93899409185422,
52.75,56.0,41,0.0,Stimuli/Blank.png,1,1.25,2.0,0,26,26,26,,,,,,,,,,,,,52.76313579999987,0.013135799999872688,5,3.1990108999998483,103.3667959000004,103.3667959000004,103.3667959000004,103.3667959000004,103.3667959000004,103.3667959000004,104.5845076000005,105.33521370000017,103.3667959000004,103.3667959000004,006,P002,2025_Jan_18_0959,ConditionRich,2021.2.3,59.93899409185422,
56.0,56.75,40,0.75,Stimuli/P002/things_worm_01b.jpg,1,0.0,0.75,0,27,27,27,,,,,,,,,,,,,56.01545389999956,0.015453899999556597,1,0.4341577999994115,106.60296020000078,106.60296020000078,106.60296020000078,106.60296020000078,106.60296020000078,106.60296020000078,106.60296020000078,None,106.60296020000078,106.60296020000078,006,P002,2025_Jan_18_0959,ConditionRich,2021.2.3,59.93899409185422,
56.75,60.0,41,0.0,Stimuli/Blank.png,0,0.0,0.0,0,28,28,28,,,,,,,,,,,,,56.74964649999947,-0.00035350000052858377,5,1.2289912000005643,107.33694680000008,107.33694680000008,107.33694680000008,107.33694680000008,107.33694680000008,107.33694680000008,107.33694680000008,107.33694680000008,107.33694680000008,107.33694680000008,006,P002,2025_Jan_18_0959,ConditionRich,2021.2.3,59.93899409185422,
60.0,60.75,9,0.75,Stimuli/P002/sun_awtltwwpwbepuuqv.jpg,0,0.0,0.0,0,29,29,29,,,,,,,,,,,,,60.00287549999939,0.0028754999993907404,None,,110.60647730000073,110.60647730000073,110.60647730000073,110.60647730000073,110.60647730000073,110.60647730000073,110.60647730000073,110.60647730000073,110.60647730000073,110.60647730000073,006,P002,2025_Jan_18_0959,ConditionRich,2021.2.3,59.93899409185422,
60.75,64.0,41,0.0,Stimuli/Blank.png,0,0.0,0.0,0,30,30,30,,,,,,,,,,,,,60.769175299999915,0.019175299999915296,5,1.2086544000003414,111.35714240000016,111.35714240000016,111.35714240000016,111.35714240000016,111.35714240000016,111.35714240000016,111.35714240000016,111.35714240000016,111.35714240000016,111.35714240000016,006,P002,2025_Jan_18_0959,ConditionRich,2021.2.3,59.93899409185422,
64.0,64.75,3,0.75,Stimuli/P002/sun_amarqtinchblqmah.jpg,0,0.0,0.0,0,31,31,31,,,,,,,,,,,,,64.00504300000011,0.005043000000114262,None,,114.59332090000044,114.59332090000044,114.59332090000044,114.59332090000044,114.59332090000044,114.59332090000044,114.59332090000044,114.59332090000044,114.59332090000044,114.59332090000044,006,P002,2025_Jan_18_0959,ConditionRich,2021.2.3,59.93899409185422,
64.75,68.0,41,0.0,Stimuli/Blank.png,0,0.0,0.0,0,32,32,32,,,,,,,,,,,,,64.75660779999998,0.006607799999983399,5,1.2220789000002696,115.34399140000005,115.34399140000005,115.34399140000005,115.34399140000005,115.34399140000005,115.34399140000005,115.34399140000005,115.34399140000005,115.34399140000005,115.34399140000005,006,P002,2025_Jan_18_0959,ConditionRich,2021.2.3,59.93899409185422,
68.0,68.75,11,0.75,Stimuli/P002/sun_bbfdgdyeqdnadvvi.jpg,0,0.0,0.0,0,33,33,33,,,,,,,,,,,,,68.01021089999995,0.010210899999947287,None,,118.61358330000076,118.61358330000076,118.61358330000076,118.61358330000076,118.61358330000076,118.61358330000076,118.61358330000076,118.61358330000076,118.61358330000076,118.61358330000076,006,P002,2025_Jan_18_0959,ConditionRich,2021.2.3,59.93899409185422,
68.75,72.0,41,0.0,Stimuli/Blank.png,0,0.0,0.0,0,34,34,34,,,,,,,,,,,,,68.77659549999953,0.026595499999530148,5,3.2016480000002048,119.36418640000011,119.36418640000011,119.36418640000011,119.36418640000011,119.36418640000011,119.36418640000011,119.36418640000011,119.36418640000011,119.36418640000011,119.36418640000011,006,P002,2025_Jan_18_0959,ConditionRich,2021.2.3,59.93899409185422,
72.0,72.75,12,0.75,Stimuli/P002/sun_bdxvmnlyovhqognn.jpg,0,0.0,0.0,0,35,35,35,,,,,,,,,,,,,72.01313190000019,0.01313190000018949,None,,122.6003666000006,122.6003666000006,122.6003666000006,122.6003666000006,122.6003666000006,122.6003666000006,122.6003666000006,122.6003666000006,122.6003666000006,122.6003666000006,006,P002,2025_Jan_18_0959,ConditionRich,2021.2.3,59.93899409185422,
72.75,76.0,41,0.0,Stimuli/Blank.png,0,0.0,0.0,0,36,36,36,,,,,,,,,,,,,72.76381369999945,0.013813699999445817,5,1.2146954999998343,123.35102440000082,123.35102440000082,123.35102440000082,123.35102440000082,123.35102440000082,123.35102440000082,123.35102440000082,123.35102440000082,123.35102440000082,123.35102440000082,006,P002,2025_Jan_18_0959,ConditionRich,2021.2.3,59.93899409185422,
76.0,76.75,31,0.75,Stimuli/P002/things_man_01b.jpg,1,0.0,0.75,0,37,37,37,,,,,,,,,,,,,76.00216369999998,0.002163699999982782,1,0.42699330000050395,126.60388610000064,126.60388610000064,126.60388610000064,126.60388610000064,126.60388610000064,126.60388610000064,126.60388610000064,127.33797260000028,126.60388610000064,126.60388610000064,006,P002,2025_Jan_18_0959,ConditionRich,2021.2.3,59.93899409185422,
76.75,80.0,41,0.0,Stimuli/Blank.png,0,0.0,0.0,0,38,38,38,,,,,,,,,,,,,76.76751069999955,0.017510699999547796,5,1.2113268999992215,127.35462910000024,127.35462910000024,127.35462910000024,127.35462910000024,127.35462910000024,127.35462910000024,127.35462910000024,127.35462910000024,127.35462910000024,127.35462910000024,006,P002,2025_Jan_18_0959,ConditionRich,2021.2.3,59.93899409185422,
80.0,80.75,14,0.75,Stimuli/P002/sun_bfgxassmmvhtarcc.jpg,0,0.0,0.0,0,39,39,39,,,,,,,,,,,,,80.00338680000004,0.003386800000043877,None,,130.59074170000076,130.59074170000076,130.59074170000076,130.59074170000076,130.59074170000076,130.59074170000076,130.59074170000076,130.59074170000076,130.59074170000076,130.59074170000076,006,P002,2025_Jan_18_0959,ConditionRich,2021.2.3,59.93899409185422,
80.75,84.0,41,0.0,Stimuli/Blank.png,0,0.0,0.0,0,40,40,40,,,,,,,,,,,,,80.7532226000003,0.0032226000002992805,5,1.2245533999994223,131.34139210000012,131.34139210000012,131.34139210000012,131.34139210000012,131.34139210000012,131.34139210000012,131.34139210000012,131.34139210000012,131.34139210000012,131.34139210000012,006,P002,2025_Jan_18_0959,ConditionRich,2021.2.3,59.93899409185422,
84.0,100.0,0,0.0,Stimuli/Blank.png,1,8.0,8.75,0,41,41,41,,,,,,,,,,,,,84.00599650000004,0.005996500000037486,5,13.971409599999788,134.59425480000027,134.59425480000027,134.59425480000027,134.59425480000027,134.59425480000027,134.59425480000027,142.5846188000005,143.33532990000003,134.59425480000027,134.59425480000027,006,P002,2025_Jan_18_0959,ConditionRich,2021.2.3,59.93899409185422,
100.0,100.75,34,0.75,Stimuli/P002/things_parrot_01b.jpg,0,0.0,0.0,0,42,42,42,,,,,,,,,,,,,100.00439920000008,0.0043992000000798726,None,,150.5916700000007,150.5916700000007,150.5916700000007,150.5916700000007,150.5916700000007,150.5916700000007,150.5916700000007,150.5916700000007,150.5916700000007,150.5916700000007,006,P002,2025_Jan_18_0959,ConditionRich,2021.2.3,59.93899409185422,
100.75,104.0,41,0.0,Stimuli/Blank.png,0,0.0,0.0,0,43,43,43,,,,,,,,,,,,,100.75428659999943,0.004286599999431928,5,1.2235677999997279,151.34232530000008,151.34232530000008,151.34232530000008,151.34232530000008,151.34232530000008,151.34232530000008,151.34232530000008,151.34232530000008,151.34232530000008,151.34232530000008,006,P002,2025_Jan_18_0959,ConditionRich,2021.2.3,59.93899409185422,
104.0,104.75,25,0.75,Stimuli/P002/things_curry_01b.jpg,0,0.0,0.0,0,44,44,44,,,,,,,,,,,,,104.00731780000024,0.007317800000237185,None,,154.59519180000007,154.59519180000007,154.59519180000007,154.59519180000007,154.59519180000007,154.59519180000007,154.59519180000007,154.59519180000007,154.59519180000007,154.59519180000007,006,P002,2025_Jan_18_0959,ConditionRich,2021.2.3,59.93899409185422,
104.75,108.0,41,0.0,Stimuli/Blank.png,0,0.0,0.0,0,45,45,45,,,,,,,,,,,,,104.75836900000013,0.008369000000129745,5,3.2199247000007745,155.34584370000084,155.34584370000084,155.34584370000084,155.34584370000084,155.34584370000084,155.34584370000084,155.34584370000084,155.34584370000084,155.34584370000084,155.34584370000084,006,P002,2025_Jan_18_0959,ConditionRich,2021.2.3,59.93899409185422,
108.0,108.75,1,0.75,Stimuli/P002/sun_agpgdwkhzgvzdaea.jpg,0,0.0,0.0,0,46,46,46,,,,,,,,,,,,,108.01053439999941,0.010534399999414745,None,,158.59871700000076,158.59871700000076,158.59871700000076,158.59871700000076,158.59871700000076,158.59871700000076,158.59871700000076,158.59871700000076,158.59871700000076,158.59871700000076,006,P002,2025_Jan_18_0959,ConditionRich,2021.2.3,59.93899409185422,
108.75,112.0,41,0.0,Stimuli/Blank.png,0,0.0,0.0,0,47,47,47,,,,,,,,,,,,,108.76247549999971,0.012475499999709427,5,3.216188499999589,159.34937960000025,159.34937960000025,159.34937960000025,159.34937960000025,159.34937960000025,159.34937960000025,159.34937960000025,159.34937960000025,159.34937960000025,159.34937960000025,006,P002,2025_Jan_18_0959,ConditionRich,2021.2.3,59.93899409185422,
112.0,112.75,4,0.75,Stimuli/P002/sun_aonjwqswdblhlpkm.jpg,0,0.0,0.0,0,48,48,48,,,,,,,,,,,,,112.01457370000026,0.014573700000255485,None,,162.6022354000006,162.6022354000006,162.6022354000006,162.6022354000006,162.6022354000006,162.6022354000006,162.6022354000006,162.6022354000006,162.6022354000006,162.6022354000006,006,P002,2025_Jan_18_0959,ConditionRich,2021.2.3,59.93899409185422,
112.75,116.0,41,0.0,Stimuli/Blank.png,0,0.0,0.0,0,49,49,49,,,,,,,,,,,,,112.76712309999948,0.017123099999480473,5,3.1959851000001436,163.36959070000012,163.36959070000012,163.36959070000012,163.36959070000012,163.36959070000012,163.36959070000012,163.36959070000012,163.36959070000012,163.36959070000012,163.36959070000012,006,P002,2025_Jan_18_0959,ConditionRich,2021.2.3,59.93899409185422,
116.0,116.75,17,0.75,Stimuli/P002/sun_bshgmgbmpvjkxfis.jpg,0,0.0,0.0,0,50,50,50,,,,,,,,,,,,,116.01812830000017,0.018128300000171294,None,,166.60575270000027,166.60575270000027,166.60575270000027,166.60575270000027,166.60575270000027,166.60575270000027,166.60575270000027,166.60575270000027,166.60575270000027,166.60575270000027,006,P002,2025_Jan_18_0959,ConditionRich,2021.2.3,59.93899409185422,
116.75,120.0,41,0.0,Stimuli/Blank.png,0,0.0,0.0,0,51,51,51,,,,,,,,,,,,,116.75209970000014,0.0020997000001443666,5,1.2258710999994946,167.33973460000016,167.33973460000016,167.33973460000016,167.33973460000016,167.33973460000016,167.33973460000016,167.33973460000016,167.33973460000016,167.33973460000016,167.33973460000016,006,P002,2025_Jan_18_0959,ConditionRich,2021.2.3,59.93899409185422,
120.0,120.75,10,0.75,Stimuli/P002/sun_aykefnhciwsffcrj.jpg,0,0.0,0.0,0,52,52,52,,,,,,,,,,,,,120.00482740000007,0.004827400000067428,None,,170.59259510000084,170.59259510000084,170.59259510000084,170.59259510000084,170.59259510000084,170.59259510000084,170.59259510000084,170.59259510000084,170.59259510000084,170.59259510000084,006,P002,2025_Jan_18_0959,ConditionRich,2021.2.3,59.93899409185422,
120.75,124.0,41,0.0,Stimuli/Blank.png,1,1.25,2.0,0,53,53,53,,,,,,,,,,,,,120.75796629999968,0.007966299999679904,5,3.2055701999997837,171.35997700000007,171.35997700000007,171.35997700000007,171.35997700000007,171.35997700000007,171.35997700000007,172.5943995000007,173.34506450000026,171.35997700000007,171.35997700000007,006,P002,2025_Jan_18_0959,ConditionRich,2021.2.3,59.93899409185422,
124.0,124.75,7,0.75,Stimuli/P002/sun_arlesyjqxmqmcccl.jpg,0,0.0,0.0,0,54,54,54,,,,,,,,,,,,,124.02735049999956,0.027350499999556632,None,,174.62949260000005,174.62949260000005,174.62949260000005,174.62949260000005,174.62949260000005,174.62949260000005,174.62949260000005,174.62949260000005,174.62949260000005,174.62949260000005,006,P002,2025_Jan_18_0959,ConditionRich,2021.2.3,59.93899409185422,
124.75,128.0,41,0.0,Stimuli/Blank.png,0,0.0,0.0,0,55,55,55,,,,,,,,,,,,,124.77610699999968,0.026106999999683467,5,3.2021664999992936,175.36346130000038,175.36346130000038,175.36346130000038,175.36346130000038,175.36346130000038,175.36346130000038,175.36346130000038,175.36346130000038,175.36346130000038,175.36346130000038,006,P002,2025_Jan_18_0959,ConditionRich,2021.2.3,59.93899409185422,
128.0,128.75,32,0.75,Stimuli/P002/things_oyster_01b.jpg,0,0.0,0.0,0,56,56,56,,,,,,,,,,,,,128.01226880000013,0.012268800000128977,None,,178.59964910000053,178.59964910000053,178.59964910000053,178.59964910000053,178.59964910000053,178.59964910000053,178.59964910000053,178.59964910000053,178.59964910000053,178.59964910000053,006,P002,2025_Jan_18_0959,ConditionRich,2021.2.3,59.93899409185422,
128.75,132.0,41,0.0,Stimuli/Blank.png,1,1.25,2.0,0,57,57,57,,,,,,,,,,,,,128.76224559999991,0.012245599999914702,5,3.2152451000001747,179.3503021000006,179.3503021000006,179.3503021000006,179.3503021000006,179.3503021000006,179.3503021000006,180.58472560000064,181.33541970000078,179.3503021000006,179.3503021000006,006,P002,2025_Jan_18_0959,ConditionRich,2021.2.3,59.93899409185422,
132.0,132.75,2,0.75,Stimuli/P002/sun_akmxsxepquhynflp.jpg,0,0.0,0.0,0,58,58,58,,,,,,,,,,,,,132.01558719999957,0.015587199999572476,None,,182.6031653,182.6031653,182.6031653,182.6031653,182.6031653,182.6031653,182.6031653,182.6031653,182.6031653,182.6031653,006,P002,2025_Jan_18_0959,ConditionRich,2021.2.3,59.93899409185422,
132.75,136.0,41,0.0,Stimuli/Blank.png,0,0.0,0.0,0,59,59,59,,,,,,,,,,,,,132.7515467000003,0.0015467000002900022,5,3.211710100000346,183.35383060000004,183.35383060000004,183.35383060000004,183.35383060000004,183.35383060000004,183.35383060000004,183.35383060000004,183.35383060000004,183.35383060000004,183.35383060000004,006,P002,2025_Jan_18_0959,ConditionRich,2021.2.3,59.93899409185422,
136.0,136.75,35,0.75,Stimuli/P002/things_pepperoni_01b.jpg,0,0.0,0.0,0,60,60,60,,,,,,,,,,,,,136.01892859999953,0.01892859999952634,None,,186.62337540000044,186.62337540000044,186.62337540000044,186.62337540000044,186.62337540000044,186.62337540000044,186.62337540000044,186.62337540000044,186.62337540000044,186.62337540000044,006,P002,2025_Jan_18_0959,ConditionRich,2021.2.3,59.93899409185422,
136.75,140.0,41,0.0,Stimuli/Blank.png,1,0.25,1.0,0,61,61,61,,,,,,,,,,,,,136.7717743000003,0.02177430000028835,5,3.191416100000424,187.37403059999997,187.37403059999997,187.37403059999997,187.37403059999997,187.37403059999997,187.37403059999997,187.60755920000065,188.3582522000006,187.37403059999997,187.37403059999997,006,P002,2025_Jan_18_0959,ConditionRich,2021.2.3,59.93899409185422,
140.0,140.75,30,0.75,Stimuli/P002/things_iguana_01b.jpg,0,0.0,0.0,0,62,62,62,,,,,,,,,,,,,140.02208619999965,0.02208619999964867,None,,190.6102187000006,190.6102187000006,190.6102187000006,190.6102187000006,190.6102187000006,190.6102187000006,190.6102187000006,190.6102187000006,190.6102187000006,190.6102187000006,006,P002,2025_Jan_18_0959,ConditionRich,2021.2.3,59.93899409185422,
140.75,144.0,41,0.0,Stimuli/Blank.png,1,0.25,1.0,0,63,63,63,,,,,,,,,,,,,140.75604509999994,0.00604509999993752,5,1.221306000000368,191.34419049999997,191.34419049999997,191.34419049999997,191.34419049999997,191.34419049999997,191.34419049999997,191.57771400000001,192.3283865000003,191.34419049999997,191.34419049999997,006,P002,2025_Jan_18_0959,ConditionRich,2021.2.3,59.93899409185422,
144.0,144.75,21,0.75,Stimuli/P002/things_baby_01b.jpg,0,0.0,0.0,0,64,64,64,,,,,,,,,,,,,144.00967570000012,0.009675700000116194,None,,194.59705350000058,194.59705350000058,194.59705350000058,194.59705350000058,194.59705350000058,194.59705350000058,194.59705350000058,194.59705350000058,194.59705350000058,194.59705350000058,006,P002,2025_Jan_18_0959,ConditionRich,2021.2.3,59.93899409185422,
144.75,148.0,41,0.0,Stimuli/Blank.png,0,0.0,0.0,0,65,65,65,,,,,,,,,,,,,144.76168159999997,0.011681599999974424,5,3.2011678999997457,195.36439530000007,195.36439530000007,195.36439530000007,195.36439530000007,195.36439530000007,195.36439530000007,195.36439530000007,195.36439530000007,195.36439530000007,195.36439530000007,006,P002,2025_Jan_18_0959,ConditionRich,2021.2.3,59.93899409185422,
148.0,148.75,16,0.75,Stimuli/P002/sun_biqyomkjbujnppuf.jpg,0,0.0,0.0,0,66,66,66,,,,,,,,,,,,,148.0316286999996,0.03162869999960094,None,,198.63390890000028,198.63390890000028,198.63390890000028,198.63390890000028,198.63390890000028,198.63390890000028,198.63390890000028,198.63390890000028,198.63390890000028,198.63390890000028,006,P002,2025_Jan_18_0959,ConditionRich,2021.2.3,59.93899409185422,
148.75,152.0,41,0.0,Stimuli/Blank.png,0,0.0,0.0,0,67,67,67,,,,,,,,,,,,,148.78182449999986,0.031824499999856926,5,3.1808130999997957,199.38460640000085,199.38460640000085,199.38460640000085,199.38460640000085,199.38460640000085,199.38460640000085,199.38460640000085,199.38460640000085,199.38460640000085,199.38460640000085,006,P002,2025_Jan_18_0959,ConditionRich,2021.2.3,59.93899409185422,
152.0,152.75,37,0.75,Stimuli/P002/things_starfish_01b.jpg,0,0.0,0.0,0,68,68,68,,,,,,,,,,,,,152.01592410000012,0.015924100000120234,None,,202.6040954,202.6040954,202.6040954,202.6040954,202.6040954,202.6040954,202.6040954,202.6040954,202.6040954,202.6040954,006,P002,2025_Jan_18_0959,ConditionRich,2021.2.3,59.93899409185422,
152.75,156.0,41,0.0,Stimuli/Blank.png,0,0.0,0.0,0,69,69,69,,,,,,,,,,,,,152.75272649999988,0.002726499999880616,5,3.2106545999995433,203.3547623000004,203.3547623000004,203.3547623000004,203.3547623000004,203.3547623000004,203.3547623000004,203.3547623000004,203.3547623000004,203.3547623000004,203.3547623000004,006,P002,2025_Jan_18_0959,ConditionRich,2021.2.3,59.93899409185422,
156.0,156.75,6,0.75,Stimuli/P002/sun_aqbaaqeojrexbmcr.jpg,0,0.0,0.0,0,70,70,70,,,,,,,,,,,,,156.02016019999974,0.020160199999736506,None,,206.60761590000038,206.60761590000038,206.60761590000038,206.60761590000038,206.60761590000038,206.60761590000038,206.60761590000038,206.60761590000038,206.60761590000038,206.60761590000038,006,P002,2025_Jan_18_0959,ConditionRich,2021.2.3,59.93899409185422,
156.75,160.0,41,0.0,Stimuli/Blank.png,0,0.0,0.0,0,71,71,71,,,,,,,,,,,,,156.75412890000007,0.004128900000068825,5,1.2241033999998763,207.34159490000002,207.34159490000002,207.34159490000002,207.34159490000002,207.34159490000002,207.34159490000002,207.34159490000002,207.34159490000002,207.34159490000002,207.34159490000002,006,P002,2025_Jan_18_0959,ConditionRich,2021.2.3,59.93899409185422,
160.0,160.75,39,0.75,Stimuli/P002/things_woman_01b.jpg,0,0.0,0.0,0,72,72,72,,,,,,,,,,,,,160.00630069999988,0.0063006999998833635,None,,210.5944599000004,210.5944599000004,210.5944599000004,210.5944599000004,210.5944599000004,210.5944599000004,210.5944599000004,210.5944599000004,210.5944599000004,210.5944599000004,006,P002,2025_Jan_18_0959,ConditionRich,2021.2.3,59.93899409185422,
160.75,164.0,41,0.0,Stimuli/Blank.png,0,0.0,0.0,0,73,73,73,,,,,,,,,,,,,160.7572726999997,0.007272699999703036,5,1.2214014999999563,211.34512090000044,211.34512090000044,211.34512090000044,211.34512090000044,211.34512090000044,211.34512090000044,211.34512090000044,211.34512090000044,211.34512090000044,211.34512090000044,006,P002,2025_Jan_18_0959,ConditionRich,2021.2.3,59.93899409185422,
164.0,164.75,29,0.75,Stimuli/P002/things_grinder_01b.jpg,0,0.0,0.0,0,74,74,74,,,,,,,,,,,,,164.01063329999943,0.010633299999426526,None,,214.5979827000001,214.5979827000001,214.5979827000001,214.5979827000001,214.5979827000001,214.5979827000001,214.5979827000001,214.5979827000001,214.5979827000001,214.5979827000001,006,P002,2025_Jan_18_0959,ConditionRich,2021.2.3,59.93899409185422,
164.75,168.0,41,0.0,Stimuli/Blank.png,0,0.0,0.0,0,75,75,75,,,,,,,,,,,,,164.7610284000002,0.011028400000213878,5,3.217856700000084,215.34864319999997,215.34864319999997,215.34864319999997,215.34864319999997,215.34864319999997,215.34864319999997,215.34864319999997,215.34864319999997,215.34864319999997,215.34864319999997,006,P002,2025_Jan_18_0959,ConditionRich,2021.2.3,59.93899409185422,
168.0,168.75,13,0.75,Stimuli/P002/sun_bfdmlbkyioxnkodb.jpg,0,0.0,0.0,0,76,76,76,,,,,,,,,,,,,168.01381070000025,0.013810700000249199,None,,218.6015053000001,218.6015053000001,218.6015053000001,218.6015053000001,218.6015053000001,218.6015053000001,218.6015053000001,218.6015053000001,218.6015053000001,218.6015053000001,006,P002,2025_Jan_18_0959,ConditionRich,2021.2.3,59.93899409185422,
168.75,172.0,41,0.0,Stimuli/Blank.png,1,2.25,3.0,0,77,77,77,,,,,,,,,,,,,168.76627629999984,0.016276299999844923,5,3.197726899999907,219.36885430000075,219.36885430000075,219.36885430000075,219.36885430000075,219.36885430000075,219.36885430000075,221.60415310000008,222.35480420000022,219.36885430000075,219.36885430000075,006,P002,2025_Jan_18_0959,ConditionRich,2021.2.3,59.93899409185422,
172.0,172.75,24,0.75,Stimuli/P002/things_cornucopia_01b.jpg,0,0.0,0.0,0,78,78,78,,,,,,,,,,,,,172.01768230000016,0.017682300000160467,None,,222.60503140000037,222.60503140000037,222.60503140000037,222.60503140000037,222.60503140000037,222.60503140000037,222.60503140000037,222.60503140000037,222.60503140000037,222.60503140000037,006,P002,2025_Jan_18_0959,ConditionRich,2021.2.3,59.93899409185422,
172.75,176.0,41,0.0,Stimuli/Blank.png,0,0.0,0.0,0,79,79,79,,,,,,,,,,,,,172.75134979999984,0.0013497999998435262,5,1.2273811999993995,223.33901220000007,223.33901220000007,223.33901220000007,223.33901220000007,223.33901220000007,223.33901220000007,223.33901220000007,223.33901220000007,223.33901220000007,223.33901220000007,006,P002,2025_Jan_18_0959,ConditionRich,2021.2.3,59.93899409185422,
176.0,176.75,38,0.75,Stimuli/P002/things_windowsill_01b.jpg,0,0.0,0.0,0,80,80,80,,,,,,,,,,,,,176.0040412999997,0.004041299999698822,None,,226.60858050000024,226.60858050000024,226.60858050000024,226.60858050000024,226.60858050000024,226.60858050000024,226.60858050000024,226.60858050000024,226.60858050000024,226.60858050000024,006,P002,2025_Jan_18_0959,ConditionRich,2021.2.3,59.93899409185422,
176.75,180.0,41,0.0,Stimuli/Blank.png,0,0.0,0.0,0,81,81,81,,,,,,,,,,,,,176.7719661000001,0.021966100000099686,5,1.2073936000006142,227.3592146000001,227.3592146000001,227.3592146000001,227.3592146000001,227.3592146000001,227.3592146000001,227.3592146000001,227.3592146000001,227.3592146000001,227.3592146000001,006,P002,2025_Jan_18_0959,ConditionRich,2021.2.3,59.93899409185422,
180.0,196.0,0,0.0,Stimuli/Blank.png,1,10.0,10.75,0,82,82,82,,,,,,,,,,,,,180.00806199999988,0.008061999999881664,5,13.970943399999669,230.59539180000047,230.59539180000047,230.59539180000047,230.59539180000047,230.59539180000047,230.59539180000047,240.58753930000057,241.33817309999995,230.59539180000047,230.59539180000047,006,P002,2025_Jan_18_0959,ConditionRich,2021.2.3,59.93899409185422,
196.0,196.75,21,0.75,Stimuli/P002/things_baby_01b.jpg,0,0.0,0.0,0,83,83,83,,,,,,,,,,,,,196.00699919999988,0.0069991999998819665,None,,246.60949060000075,246.60949060000075,246.60949060000075,246.60949060000075,246.60949060000075,246.60949060000075,246.60949060000075,246.60949060000075,246.60949060000075,246.60949060000075,006,P002,2025_Jan_18_0959,ConditionRich,2021.2.3,59.93899409185422,
196.75,200.0,41,0.0,Stimuli/Blank.png,0,0.0,0.0,0,84,84,84,,,,,,,,,,,,,196.77216059999955,0.022160599999551778,5,1.206433699999252,247.3601430000008,247.3601430000008,247.3601430000008,247.3601430000008,247.3601430000008,247.3601430000008,247.3601430000008,247.3601430000008,247.3601430000008,247.3601430000008,006,P002,2025_Jan_18_0959,ConditionRich,2021.2.3,59.93899409185422,
200.0,200.75,32,0.75,Stimuli/P002/things_oyster_01b.jpg,0,0.0,0.0,0,85,85,85,,,,,,,,,,,,,200.00902330000008,0.00902330000008078,None,,250.61300240000037,250.61300240000037,250.61300240000037,250.61300240000037,250.61300240000037,250.61300240000037,250.61300240000037,250.61300240000037,250.61300240000037,250.61300240000037,006,P002,2025_Jan_18_0959,ConditionRich,2021.2.3,59.93899409185422,
200.75,204.0,41,0.0,Stimuli/Blank.png,0,0.0,0.0,0,86,86,86,,,,,,,,,,,,,200.77670089999992,0.026700899999923422,5,3.2026185999993686,251.36367430000064,251.36367430000064,251.36367430000064,251.36367430000064,251.36367430000064,251.36367430000064,251.36367430000064,251.36367430000064,251.36367430000064,251.36367430000064,006,P002,2025_Jan_18_0959,ConditionRich,2021.2.3,59.93899409185422,
204.0,204.75,23,0.75,Stimuli/P002/things_chick_01b.jpg,0,0.0,0.0,0,87,87,87,,,,,,,,,,,,,204.01217670000005,0.012176700000054552,None,,254.5998496000002,254.5998496000002,254.5998496000002,254.5998496000002,254.5998496000002,254.5998496000002,254.5998496000002,254.5998496000002,254.5998496000002,254.5998496000002,006,P002,2025_Jan_18_0959,ConditionRich,2021.2.3,59.93899409185422,
204.75,208.0,41,0.0,Stimuli/Blank.png,1,1.25,2.0,0,88,88,88,,,,,,,,,,,,,204.76324029999978,0.013240299999779381,1,1.6066219999993336,255.35058610000033,255.35058610000033,255.35058610000033,255.35058610000033,255.35058610000033,255.35058610000033,256.5849130000006,257.3356244000006,255.35058610000033,255.35058610000033,006,P002,2025_Jan_18_0959,ConditionRich,2021.2.3,59.93899409185422,
208.0,208.75,17,0.75,Stimuli/P002/sun_bshgmgbmpvjkxfis.jpg,0,0.0,0.0,0,89,89,89,,,,,,,,,,,,,207.9988575999996,-0.0011424000003898982,None,,258.5866943000001,258.5866943000001,258.5866943000001,258.5866943000001,258.5866943000001,258.5866943000001,258.5866943000001,258.5866943000001,258.5866943000001,258.5866943000001,006,P002,2025_Jan_18_0959,ConditionRich,2021.2.3,59.93899409185422,
208.75,212.0,41,0.0,Stimuli/Blank.png,0,0.0,0.0,0,90,90,90,,,,,,,,,,,,,208.74977769999987,-0.00022230000013223616,5,1.2290669999993042,259.33734430000004,259.33734430000004,259.33734430000004,259.33734430000004,259.33734430000004,259.33734430000004,259.33734430000004,259.33734430000004,259.33734430000004,259.33734430000004,006,P002,2025_Jan_18_0959,ConditionRich,2021.2.3,59.93899409185422,
212.0,212.75,11,0.75,Stimuli/P002/sun_bbfdgdyeqdnadvvi.jpg,0,0.0,0.0,0,91,91,91,,,,,,,,,,,,,212.00284180000017,0.0028418000001693144,None,,262.5902111000005,262.5902111000005,262.5902111000005,262.5902111000005,262.5902111000005,262.5902111000005,262.5902111000005,262.5902111000005,262.5902111000005,262.5902111000005,006,P002,2025_Jan_18_0959,ConditionRich,2021.2.3,59.93899409185422,
212.75,216.0,41,0.0,Stimuli/Blank.png,1,2.25,3.0,0,92,92,92,,,,,,,,,,,,,212.7527639,0.0027638999999908265,1,2.803376500000013,263.34087350000027,263.34087350000027,263.34087350000027,263.34087350000027,263.34087350000027,263.34087350000027,265.5762106000002,266.32686470000044,263.34087350000027,263.34087350000027,006,P002,2025_Jan_18_0959,ConditionRich,2021.2.3,59.93899409185422,
216.0,216.75,13,0.75,Stimuli/P002/sun_bfdmlbkyioxnkodb.jpg,0,0.0,0.0,0,93,93,93,,,,,,,,,,,,,216.00593920000028,0.0059392000002844725,None,,266.59374470000057,266.59374470000057,266.59374470000057,266.59374470000057,266.59374470000057,266.59374470000057,266.59374470000057,266.59374470000057,266.59374470000057,266.59374470000057,006,P002,2025_Jan_18_0959,ConditionRich,2021.2.3,59.93899409185422,
216.75,220.0,41,0.0,Stimuli/Blank.png,0,0.0,0.0,0,94,94,94,,,,,,,,,,,,,216.7567595999999,0.006759599999895727,5,1.2219208000005892,267.3443941000005,267.3443941000005,267.3443941000005,267.3443941000005,267.3443941000005,267.3443941000005,267.3443941000005,267.3443941000005,267.3443941000005,267.3443941000005,006,P002,2025_Jan_18_0959,ConditionRich,2021.2.3,59.93899409185422,
220.0,220.75,8,0.75,Stimuli/P002/sun_asqboyqakusycvwd.jpg,0,0.0,0.0,0,95,95,95,,,,,,,,,,,,,220.00985140000012,0.009851400000115973,None,,270.5972302,270.5972302,270.5972302,270.5972302,270.5972302,270.5972302,270.5972302,270.5972302,270.5972302,270.5972302,006,P002,2025_Jan_18_0959,ConditionRich,2021.2.3,59.93899409185422,
220.75,224.0,41,0.0,Stimuli/Blank.png,0,0.0,0.0,0,96,96,96,,,,,,,,,,,,,220.75987220000025,0.009872200000245357,5,3.218331899999612,271.3479698000001,271.3479698000001,271.3479698000001,271.3479698000001,271.3479698000001,271.3479698000001,271.3479698000001,271.3479698000001,271.3479698000001,271.3479698000001,006,P002,2025_Jan_18_0959,ConditionRich,2021.2.3,59.93899409185422,
224.0,224.75,30,0.75,Stimuli/P002/things_iguana_01b.jpg,0,0.0,0.0,0,97,97,97,,,,,,,,,,,,,224.01282999999967,0.012829999999667052,None,,274.60077640000054,274.60077640000054,274.60077640000054,274.60077640000054,274.60077640000054,274.60077640000054,274.60077640000054,274.60077640000054,274.60077640000054,274.60077640000054,006,P002,2025_Jan_18_0959,ConditionRich,2021.2.3,59.93899409185422,
224.75,228.0,41,0.0,Stimuli/Blank.png,1,0.25,1.0,0,98,98,98,,,,,,,,,,,,,224.76612769999974,0.016127699999742617,5,3.1980781000002025,275.3681344000006,275.3681344000006,275.3681344000006,275.3681344000006,275.3681344000006,275.3681344000006,275.60170220000055,276.35233680000056,275.3681344000006,275.3681344000006,006,P002,2025_Jan_18_0959,ConditionRich,2021.2.3,59.93899409185422,
228.0,228.75,1,0.75,Stimuli/P002/sun_agpgdwkhzgvzdaea.jpg,0,0.0,0.0,0,99,99,99,,,,,,,,,,,,,228.01715739999963,0.017157399999632617,None,,278.62097790000007,278.62097790000007,278.62097790000007,278.62097790000007,278.62097790000007,278.62097790000007,278.62097790000007,278.62097790000007,278.62097790000007,278.62097790000007,006,P002,2025_Jan_18_0959,ConditionRich,2021.2.3,59.93899409185422,
228.75,232.0,41,0.0,Stimuli/Blank.png,0,0.0,0.0,0,100,100,100,,,,,,,,,,,,,228.76766450000014,0.017664500000137195,5,1.2114538000005268,279.35496130000047,279.35496130000047,279.35496130000047,279.35496130000047,279.35496130000047,279.35496130000047,279.35496130000047,279.35496130000047,279.35496130000047,279.35496130000047,006,P002,2025_Jan_18_0959,ConditionRich,2021.2.3,59.93899409185422,
232.0,232.75,4,0.75,Stimuli/P002/sun_aonjwqswdblhlpkm.jpg,1,0.0,0.75,0,101,101,101,,,,,,,,,,,,,232.00468339999952,0.004683399999521498,1,0.49229139999988547,282.60782030000064,282.60782030000064,282.60782030000064,282.60782030000064,282.60782030000064,282.60782030000064,282.60782030000064,283.3418352000008,282.60782030000064,282.60782030000064,006,P002,2025_Jan_18_0959,ConditionRich,2021.2.3,59.93899409185422,
232.75,236.0,41,0.0,Stimuli/Blank.png,0,0.0,0.0,0,102,102,102,,,,,,,,,,,,,232.7715615999996,0.02156159999958618,5,1.2079359999997905,283.35849430000053,283.35849430000053,283.35849430000053,283.35849430000053,283.35849430000053,283.35849430000053,283.35849430000053,283.35849430000053,283.35849430000053,283.35849430000053,006,P002,2025_Jan_18_0959,ConditionRich,2021.2.3,59.93899409185422,
236.0,236.75,25,0.75,Stimuli/P002/things_curry_01b.jpg,0,0.0,0.0,0,103,103,103,,,,,,,,,,,,,236.00691889999962,0.0069188999996185885,None,,286.59465870000076,286.59465870000076,286.59465870000076,286.59465870000076,286.59465870000076,286.59465870000076,286.59465870000076,286.59465870000076,286.59465870000076,286.59465870000076,006,P002,2025_Jan_18_0959,ConditionRich,2021.2.3,59.93899409185422,
236.75,240.0,41,0.0,Stimuli/Blank.png,0,0.0,0.0,0,104,104,104,,,,,,,,,,,,,236.7581928999998,0.008192899999812653,5,1.220751900000323,287.3453902000001,287.3453902000001,287.3453902000001,287.3453902000001,287.3453902000001,287.3453902000001,287.3453902000001,287.3453902000001,287.3453902000001,287.3453902000001,006,P002,2025_Jan_18_0959,ConditionRich,2021.2.3,59.93899409185422,
240.0,240.75,28,0.75,Stimuli/P002/things_girl_01b.jpg,0,0.0,0.0,0,105,105,105,,,,,,,,,,,,,240.0109811000002,0.010981100000208244,None,,290.59826300000077,290.59826300000077,290.59826300000077,290.59826300000077,290.59826300000077,290.59826300000077,290.59826300000077,290.59826300000077,290.59826300000077,290.59826300000077,006,P002,2025_Jan_18_0959,ConditionRich,2021.2.3,59.93899409185422,
240.75,244.0,41,0.0,Stimuli/Blank.png,0,0.0,0.0,0,106,106,106,,,,,,,,,,,,,240.76190320000023,0.011903200000233483,5,3.2172750999998243,291.3488582,291.3488582,291.3488582,291.3488582,291.3488582,291.3488582,291.3488582,291.3488582,291.3488582,291.3488582,006,P002,2025_Jan_18_0959,ConditionRich,2021.2.3,59.93899409185422,
244.0,244.75,6,0.75,Stimuli/P002/sun_aqbaaqeojrexbmcr.jpg,0,0.0,0.0,0,107,107,107,,,,,,,,,,,,,244.01635979999992,0.016359799999918323,None,,294.61839410000084,294.61839410000084,294.61839410000084,294.61839410000084,294.61839410000084,294.61839410000084,294.61839410000084,294.61839410000084,294.61839410000084,294.61839410000084,006,P002,2025_Jan_18_0959,ConditionRich,2021.2.3,59.93899409185422,
244.75,248.0,41,0.0,Stimuli/Blank.png,0,0.0,0.0,0,108,108,108,,,,,,,,,,,,,244.7671319000001,0.017131900000094902,5,3.1970776999996815,295.36905340000067,295.36905340000067,295.36905340000067,295.36905340000067,295.36905340000067,295.36905340000067,295.36905340000067,295.36905340000067,295.36905340000067,295.36905340000067,006,P002,2025_Jan_18_0959,ConditionRich,2021.2.3,59.93899409185422,
248.0,248.75,40,0.75,Stimuli/P002/things_worm_01b.jpg,0,0.0,0.0,0,109,109,109,,,,,,,,,,,,,248.01760469999954,0.017604699999537843,None,,298.6219321000008,298.6219321000008,298.6219321000008,298.6219321000008,298.6219321000008,298.6219321000008,298.6219321000008,298.6219321000008,298.6219321000008,298.6219321000008,006,P002,2025_Jan_18_0959,ConditionRich,2021.2.3,59.93899409185422,
248.75,252.0,41,0.0,Stimuli/Blank.png,0,0.0,0.0,0,110,110,110,,,,,,,,,,,,,248.76854360000016,0.018543600000157312,5,1.210251900000003,299.3558872000003,299.3558872000003,299.3558872000003,299.3558872000003,299.3558872000003,299.3558872000003,299.3558872000003,299.3558872000003,299.3558872000003,299.3558872000003,006,P002,2025_Jan_18_0959,ConditionRich,2021.2.3,59.93899409185422,
252.0,252.75,29,0.75,Stimuli/P002/things_grinder_01b.jpg,0,0.0,0.0,0,111,111,111,,,,,,,,,,,,,252.00628419999975,0.006284199999754492,None,,302.6087626000008,302.6087626000008,302.6087626000008,302.6087626000008,302.6087626000008,302.6087626000008,302.6087626000008,302.6087626000008,302.6087626000008,302.6087626000008,006,P002,2025_Jan_18_0959,ConditionRich,2021.2.3,59.93899409185422,
252.75,256.0,41,0.0,Stimuli/Blank.png,0,0.0,0.0,0,112,112,112,,,,,,,,,,,,,252.77184570000009,0.021845700000085344,5,1.206909700000324,303.35941450000064,303.35941450000064,303.35941450000064,303.35941450000064,303.35941450000064,303.35941450000064,303.35941450000064,303.35941450000064,303.35941450000064,303.35941450000064,006,P002,2025_Jan_18_0959,ConditionRich,2021.2.3,59.93899409185422,
256.0,256.75,24,0.75,Stimuli/P002/things_cornucopia_01b.jpg,0,0.0,0.0,0,113,113,113,,,,,,,,,,,,,256.0079956999998,0.007995699999810313,None,,306.61228870000014,306.61228870000014,306.61228870000014,306.61228870000014,306.61228870000014,306.61228870000014,306.61228870000014,306.61228870000014,306.61228870000014,306.61228870000014,006,P002,2025_Jan_18_0959,ConditionRich,2021.2.3,59.93899409185422,
256.75,260.0,41,0.0,Stimuli/Blank.png,0,0.0,0.0,0,114,114,114,,,,,,,,,,,,,256.77500510000027,0.02500510000027134,5,3.2033512999996674,307.3629359000006,307.3629359000006,307.3629359000006,307.3629359000006,307.3629359000006,307.3629359000006,307.3629359000006,307.3629359000006,307.3629359000006,307.3629359000006,006,P002,2025_Jan_18_0959,ConditionRich,2021.2.3,59.93899409185422,
260.0,260.75,9,0.75,Stimuli/P002/sun_awtltwwpwbepuuqv.jpg,0,0.0,0.0,0,115,115,115,,,,,,,,,,,,,260.01162620000014,0.011626200000137032,None,,310.5991137000001,310.5991137000001,310.5991137000001,310.5991137000001,310.5991137000001,310.5991137000001,310.5991137000001,310.5991137000001,310.5991137000001,310.5991137000001,006,P002,2025_Jan_18_0959,ConditionRich,2021.2.3,59.93899409185422,
260.75,264.0,41,0.0,Stimuli/Blank.png,0,0.0,0.0,0,116,116,116,,,,,,,,,,,,,260.7624434999998,0.01244349999979022,5,3.2162313999997423,311.34977120000076,311.34977120000076,311.34977120000076,311.34977120000076,311.34977120000076,311.34977120000076,311.34977120000076,311.34977120000076,311.34977120000076,311.34977120000076,006,P002,2025_Jan_18_0959,ConditionRich,2021.2.3,59.93899409185422,
264.0,264.75,15,0.75,Stimuli/P002/sun_bfzoxbkvsfqxsyle.jpg,0,0.0,0.0,0,117,117,117,,,,,,,,,,,,,264.01479409999956,0.014794099999562604,None,,314.60263680000025,314.60263680000025,314.60263680000025,314.60263680000025,314.60263680000025,314.60263680000025,314.60263680000025,314.60263680000025,314.60263680000025,314.60263680000025,006,P002,2025_Jan_18_0959,ConditionRich,2021.2.3,59.93899409185422,
264.75,268.0,41,0.0,Stimuli/Blank.png,0,0.0,0.0,0,118,118,118,,,,,,,,,,,,,264.76572119999946,0.015721199999461533,5,1.2129330999996455,315.3532969000007,315.3532969000007,315.3532969000007,315.3532969000007,315.3532969000007,315.3532969000007,315.3532969000007,315.3532969000007,315.3532969000007,315.3532969000007,006,P002,2025_Jan_18_0959,ConditionRich,2021.2.3,59.93899409185422,
268.0,268.75,7,0.75,Stimuli/P002/sun_arlesyjqxmqmcccl.jpg,0,0.0,0.0,0,119,119,119,,,,,,,,,,,,,268.0022672999994,0.002267299999402894,None,,318.60617700000057,318.60617700000057,318.60617700000057,318.60617700000057,318.60617700000057,318.60617700000057,318.60617700000057,318.60617700000057,318.60617700000057,318.60617700000057,006,P002,2025_Jan_18_0959,ConditionRich,2021.2.3,59.93899409185422,
268.75,272.0,41,0.0,Stimuli/Blank.png,0,0.0,0.0,0,120,120,120,,,,,,,,,,,,,268.76944860000003,0.019448600000032457,5,1.2094632999996975,319.3568215000005,319.3568215000005,319.3568215000005,319.3568215000005,319.3568215000005,319.3568215000005,319.3568215000005,319.3568215000005,319.3568215000005,319.3568215000005,006,P002,2025_Jan_18_0959,ConditionRich,2021.2.3,59.93899409185422,
272.0,272.75,3,0.75,Stimuli/P002/sun_amarqtinchblqmah.jpg,0,0.0,0.0,0,121,121,121,,,,,,,,,,,,,272.0056861000003,0.005686100000275474,None,,322.5930020000005,322.5930020000005,322.5930020000005,322.5930020000005,322.5930020000005,322.5930020000005,322.5930020000005,322.5930020000005,322.5930020000005,322.5930020000005,006,P002,2025_Jan_18_0959,ConditionRich,2021.2.3,59.93899409185422,
272.75,276.0,41,0.0,Stimuli/Blank.png,0,0.0,0.0,0,122,122,122,,,,,,,,,,,,,272.7555139999995,0.005513999999493535,5,1.2223326000002999,323.3436644000003,323.3436644000003,323.3436644000003,323.3436644000003,323.3436644000003,323.3436644000003,323.3436644000003,323.3436644000003,323.3436644000003,323.3436644000003,006,P002,2025_Jan_18_0959,ConditionRich,2021.2.3,59.93899409185422,
276.0,292.0,0,0.0,Stimuli/Blank.png,1,1.0,1.75,0,123,123,123,,,,,,,,,,,,,276.0090971999998,0.00909719999981462,5,13.969681600000513,326.5965378000001,326.5965378000001,326.5965378000001,326.5965378000001,326.5965378000001,326.5965378000001,327.5807254000001,328.3313839000002,326.5965378000001,326.5965378000001,006,P002,2025_Jan_18_0959,ConditionRich,2021.2.3,59.93899409185422,
292.0,292.75,31,0.75,Stimuli/P002/things_man_01b.jpg,0,0.0,0.0,0,124,124,124,,,,,,,,,,,,,292.00650829999995,0.006508299999950395,None,,342.61062800000036,342.61062800000036,342.61062800000036,342.61062800000036,342.61062800000036,342.61062800000036,342.61062800000036,342.61062800000036,342.61062800000036,342.61062800000036,006,P002,2025_Jan_18_0959,ConditionRich,2021.2.3,59.93899409185422,
292.75,296.0,41,0.0,Stimuli/Blank.png,0,0.0,0.0,0,125,125,125,,,,,,,,,,,,,292.77583479999976,0.025834799999756797,5,3.188025800000105,343.37796230000004,343.37796230000004,343.37796230000004,343.37796230000004,343.37796230000004,343.37796230000004,343.37796230000004,343.37796230000004,343.37796230000004,343.37796230000004,006,P002,2025_Jan_18_0959,ConditionRich,2021.2.3,59.93899409185422,
296.0,296.75,26,0.75,Stimuli/P002/things_dish_01b.jpg,0,0.0,0.0,0,126,126,126,,,,,,,,,,,,,296.0275528000002,0.02755280000019411,None,,346.6308389000005,346.6308389000005,346.6308389000005,346.6308389000005,346.6308389000005,346.6308389000005,346.6308389000005,346.6308389000005,346.6308389000005,346.6308389000005,006,P002,2025_Jan_18_0959,ConditionRich,2021.2.3,59.93899409185422,
296.75,300.0,41,0.0,Stimuli/Blank.png,0,0.0,0.0,0,127,127,127,,,,,,,,,,,,,296.77700079999977,0.027000799999768788,5,3.201221099999202,347.3647946000001,347.3647946000001,347.3647946000001,347.3647946000001,347.3647946000001,347.3647946000001,347.3647946000001,347.3647946000001,347.3647946000001,347.3647946000001,006,P002,2025_Jan_18_0959,ConditionRich,2021.2.3,59.93899409185422,
300.0,300.75,27,0.75,Stimuli/P002/things_dynamite_01b.jpg,0,0.0,0.0,0,128,128,128,,,,,,,,,,,,,300.01327349999974,0.013273499999741034,None,,350.617663,350.617663,350.617663,350.617663,350.617663,350.617663,350.617663,350.617663,350.617663,350.617663,006,P002,2025_Jan_18_0959,ConditionRich,2021.2.3,59.93899409185422,
300.75,304.0,41,0.0,Stimuli/Blank.png,0,0.0,0.0,0,129,129,129,,,,,,,,,,,,,300.7807278999999,0.030727899999874353,5,1.197744999999486,351.36832740000045,351.36832740000045,351.36832740000045,351.36832740000045,351.36832740000045,351.36832740000045,351.36832740000045,351.36832740000045,351.36832740000045,351.36832740000045,006,P002,2025_Jan_18_0959,ConditionRich,2021.2.3,59.93899409185422,
304.0,304.75,20,0.75,Stimuli/P002/sun_dkgctqgpvxbaoyks.jpg,0,0.0,0.0,0,130,130,130,,,,,,,,,,,,,303.99961019999955,-0.00038980000044830376,None,,354.58782260000044,354.58782260000044,354.58782260000044,354.58782260000044,354.58782260000044,354.58782260000044,354.58782260000044,354.58782260000044,354.58782260000044,354.58782260000044,006,P002,2025_Jan_18_0959,ConditionRich,2021.2.3,59.93899409185422,
304.75,308.0,41,0.0,Stimuli/Blank.png,0,0.0,0.0,0,131,131,131,,,,,,,,,,,,,304.75053949999983,0.0005394999998316052,5,1.227512399999796,355.3384896000007,355.3384896000007,355.3384896000007,355.3384896000007,355.3384896000007,355.3384896000007,355.3384896000007,355.3384896000007,355.3384896000007,355.3384896000007,006,P002,2025_Jan_18_0959,ConditionRich,2021.2.3,59.93899409185422,
308.0,308.75,22,0.75,Stimuli/P002/things_boy_01b.jpg,0,0.0,0.0,0,132,132,132,,,,,,,,,,,,,308.0060053999996,0.006005399999594374,None,,358.608029,358.608029,358.608029,358.608029,358.608029,358.608029,358.608029,358.608029,358.608029,358.608029,006,P002,2025_Jan_18_0959,ConditionRich,2021.2.3,59.93899409185422,
308.75,312.0,41,0.0,Stimuli/Blank.png,0,0.0,0.0,0,133,133,133,,,,,,,,,,,,,308.7717150999997,0.02171509999971022,5,1.2075807999999597,359.3586901000008,359.3586901000008,359.3586901000008,359.3586901000008,359.3586901000008,359.3586901000008,359.3586901000008,359.3586901000008,359.3586901000008,359.3586901000008,006,P002,2025_Jan_18_0959,ConditionRich,2021.2.3,59.93899409185422,
312.0,312.75,36,0.75,Stimuli/P002/things_stalagmite_01b.jpg,0,0.0,0.0,0,134,134,134,,,,,,,,,,,,,312.0074990000003,0.007499000000279921,None,,362.59487440000066,362.59487440000066,362.59487440000066,362.59487440000066,362.59487440000066,362.59487440000066,362.59487440000066,362.59487440000066,362.59487440000066,362.59487440000066,006,P002,2025_Jan_18_0959,ConditionRich,2021.2.3,59.93899409185422,
312.75,316.0,41,0.0,Stimuli/Blank.png,0,0.0,0.0,0,135,135,135,,,,,,,,,,,,,312.7574058,0.007405800000015006,5,3.2203663000000233,363.34552800000074,363.34552800000074,363.34552800000074,363.34552800000074,363.34552800000074,363.34552800000074,363.34552800000074,363.34552800000074,363.34552800000074,363.34552800000074,006,P002,2025_Jan_18_0959,ConditionRich,2021.2.3,59.93899409185422,
316.0,316.75,16,0.75,Stimuli/P002/sun_biqyomkjbujnppuf.jpg,0,0.0,0.0,0,136,136,136,,,,,,,,,,,,,316.01058769999963,0.010587699999632605,None,,366.5983883000008,366.5983883000008,366.5983883000008,366.5983883000008,366.5983883000008,366.5983883000008,366.5983883000008,366.5983883000008,366.5983883000008,366.5983883000008,006,P002,2025_Jan_18_0959,ConditionRich,2021.2.3,59.93899409185422,
316.75,320.0,41,0.0,Stimuli/Blank.png,0,0.0,0.0,0,137,137,137,,,,,,,,,,,,,316.76148589999957,0.011485899999570393,5,3.2168269999992845,367.34905190000063,367.34905190000063,367.34905190000063,367.34905190000063,367.34905190000063,367.34905190000063,367.34905190000063,367.34905190000063,367.34905190000063,367.34905190000063,006,P002,2025_Jan_18_0959,ConditionRich,2021.2.3,59.93899409185422,
320.0,320.75,5,0.75,Stimuli/P002/sun_apwzcrxhvvnrexjh.jpg,1,0.0,0.75,0,138,138,138,,,,,,,,,,,,,320.0163040999996,0.016304099999615573,1,0.3982139999998253,370.6185985000002,370.6185985000002,370.6185985000002,370.6185985000002,370.6185985000002,370.6185985000002,370.6185985000002,None,370.6185985000002,370.6185985000002,006,P002,2025_Jan_18_0959,ConditionRich,2021.2.3,59.93899409185422,
320.75,324.0,41,0.0,Stimuli/Blank.png,0,0.0,0.0,0,139,139,139,,,,,,,,,,,,,320.76570769999944,0.015707699999438773,5,1.2134163000000626,371.35257420000016,371.35257420000016,371.35257420000016,371.35257420000016,371.35257420000016,371.35257420000016,371.35257420000016,371.35257420000016,371.35257420000016,371.35257420000016,006,P002,2025_Jan_18_0959,ConditionRich,2021.2.3,59.93899409185422,
324.0,324.75,14,0.75,Stimuli/P002/sun_bfgxassmmvhtarcc.jpg,0,0.0,0.0,0,140,140,140,,,,,,,,,,,,,324.0014629999996,0.0014629999996031984,None,,374.58875330000046,374.58875330000046,374.58875330000046,374.58875330000046,374.58875330000046,374.58875330000046,374.58875330000046,374.58875330000046,374.58875330000046,374.58875330000046,006,P002,2025_Jan_18_0959,ConditionRich,2021.2.3,59.93899409185422,
324.75,328.0,41,0.0,Stimuli/Blank.png,1,1.25,2.0,0,141,141,141,,,,,,,,,,,,,324.75126,0.0012600000000020373,1,1.6684433000000354,375.3394130000006,375.3394130000006,375.3394130000006,375.3394130000006,375.3394130000006,375.3394130000006,376.5738284000008,377.3245362000007,375.3394130000006,375.3394130000006,006,P002,2025_Jan_18_0959,ConditionRich,2021.2.3,59.93899409185422,
328.0,328.75,12,0.75,Stimuli/P002/sun_bdxvmnlyovhqognn.jpg,0,0.0,0.0,0,142,142,142,,,,,,,,,,,,,328.006523,0.0065230000000156,None,,378.60896460000004,378.60896460000004,378.60896460000004,378.60896460000004,378.60896460000004,378.60896460000004,378.60896460000004,378.60896460000004,378.60896460000004,378.60896460000004,006,P002,2025_Jan_18_0959,ConditionRich,2021.2.3,59.93899409185422,
328.75,332.0,41,0.0,Stimuli/Blank.png,0,0.0,0.0,0,143,143,143,,,,,,,,,,,,,328.7722439999998,0.022243999999773223,5,1.2064589999999953,379.3596178000007,379.3596178000007,379.3596178000007,379.3596178000007,379.3596178000007,379.3596178000007,379.3596178000007,379.3596178000007,379.3596178000007,379.3596178000007,006,P002,2025_Jan_18_0959,ConditionRich,2021.2.3,59.93899409185422,
332.0,332.75,39,0.75,Stimuli/P002/things_woman_01b.jpg,0,0.0,0.0,0,144,144,144,,,,,,,,,,,,,332.0083077999998,0.008307799999784038,None,,382.61248630000046,382.61248630000046,382.61248630000046,382.61248630000046,382.61248630000046,382.61248630000046,382.61248630000046,382.61248630000046,382.61248630000046,382.61248630000046,006,P002,2025_Jan_18_0959,ConditionRich,2021.2.3,59.93899409185422,
332.75,336.0,41,0.0,Stimuli/Blank.png,1,1.25,2.0,0,145,145,145,,,,,,,,,,,,,332.7752822000002,0.025282200000219746,5,3.2028907999992953,383.36313560000053,383.36313560000053,383.36313560000053,383.36313560000053,383.36313560000053,383.36313560000053,384.5975819000005,385.34821140000076,383.36313560000053,383.36313560000053,006,P002,2025_Jan_18_0959,ConditionRich,2021.2.3,59.93899409185422,
336.0,336.75,18,0.75,Stimuli/P002/sun_bzjegfvyrvqtunza.jpg,0,0.0,0.0,0,146,146,146,,,,,,,,,,,,,336.0113202000002,0.011320200000227487,None,,386.59931700000016,386.59931700000016,386.59931700000016,386.59931700000016,386.59931700000016,386.59931700000016,386.59931700000016,386.59931700000016,386.59931700000016,386.59931700000016,006,P002,2025_Jan_18_0959,ConditionRich,2021.2.3,59.93899409185422,
336.75,340.0,41,0.0,Stimuli/Blank.png,0,0.0,0.0,0,147,147,147,,,,,,,,,,,,,336.7623488999998,0.01234889999977895,5,3.2159469999996873,387.34997999999996,387.34997999999996,387.34997999999996,387.34997999999996,387.34997999999996,387.34997999999996,387.34997999999996,387.34997999999996,387.34997999999996,387.34997999999996,006,P002,2025_Jan_18_0959,ConditionRich,2021.2.3,59.93899409185422,
340.0,340.75,2,0.75,Stimuli/P002/sun_akmxsxepquhynflp.jpg,0,0.0,0.0,0,148,148,148,,,,,,,,,,,,,340.0157145000003,0.015714500000285625,None,,390.61952930000007,390.61952930000007,390.61952930000007,390.61952930000007,390.61952930000007,390.61952930000007,390.61952930000007,390.61952930000007,390.61952930000007,390.61952930000007,006,P002,2025_Jan_18_0959,ConditionRich,2021.2.3,59.93899409185422,
340.75,344.0,41,0.0,Stimuli/Blank.png,0,0.0,0.0,0,149,149,149,,,,,,,,,,,,,340.76528489999964,0.01528489999964222,5,1.2123658999998952,391.35349980000046,391.35349980000046,391.35349980000046,391.35349980000046,391.35349980000046,391.35349980000046,391.35349980000046,391.35349980000046,391.35349980000046,391.35349980000046,006,P002,2025_Jan_18_0959,ConditionRich,2021.2.3,59.93899409185422,
344.0,344.75,10,0.75,Stimuli/P002/sun_aykefnhciwsffcrj.jpg,0,0.0,0.0,0,150,150,150,,,,,,,,,,,,,344.0022463999994,0.0022463999994215555,None,,394.60637730000053,394.60637730000053,394.60637730000053,394.60637730000053,394.60637730000053,394.60637730000053,394.60637730000053,394.60637730000053,394.60637730000053,394.60637730000053,006,P002,2025_Jan_18_0959,ConditionRich,2021.2.3,59.93899409185422,
344.75,348.0,41,0.0,Stimuli/Blank.png,0,0.0,0.0,0,151,151,151,,,,,,,,,,,,,344.76887689999967,0.01887689999966824,5,1.2090508999999656,395.3570180000006,395.3570180000006,395.3570180000006,395.3570180000006,395.3570180000006,395.3570180000006,395.3570180000006,395.3570180000006,395.3570180000006,395.3570180000006,006,P002,2025_Jan_18_0959,ConditionRich,2021.2.3,59.93899409185422,
348.0,348.75,35,0.75,Stimuli/P002/things_pepperoni_01b.jpg,0,0.0,0.0,0,152,152,152,,,,,,,,,,,,,348.0052982999996,0.005298299999594747,None,,398.5932044000001,398.5932044000001,398.5932044000001,398.5932044000001,398.5932044000001,398.5932044000001,398.5932044000001,398.5932044000001,398.5932044000001,398.5932044000001,006,P002,2025_Jan_18_0959,ConditionRich,2021.2.3,59.93899409185422,
348.75,352.0,41,0.0,Stimuli/Blank.png,0,0.0,0.0,0,153,153,153,,,,,,,,,,,,,348.75721129999965,0.00721129999965342,5,1.221869599999991,399.34396260000085,399.34396260000085,399.34396260000085,399.34396260000085,399.34396260000085,399.34396260000085,399.34396260000085,399.34396260000085,399.34396260000085,399.34396260000085,006,P002,2025_Jan_18_0959,ConditionRich,2021.2.3,59.93899409185422,
352.0,352.75,34,0.75,Stimuli/P002/things_parrot_01b.jpg,0,0.0,0.0,0,154,154,154,,,,,,,,,,,,,352.0111130999994,0.011113099999420228,None,,402.6134096000005,402.6134096000005,402.6134096000005,402.6134096000005,402.6134096000005,402.6134096000005,402.6134096000005,402.6134096000005,402.6134096000005,402.6134096000005,006,P002,2025_Jan_18_0959,ConditionRich,2021.2.3,59.93899409185422,
352.75,356.0,41,0.0,Stimuli/Blank.png,1,2.25,3.0,0,155,155,155,,,,,,,,,,,,,352.77724190000026,0.02724190000026283,5,3.185077000000092,403.3807605000002,403.3807605000002,403.3807605000002,403.3807605000002,403.3807605000002,403.3807605000002,405.59941810000055,406.3500726000002,403.3807605000002,403.3807605000002,006,P002,2025_Jan_18_0959,ConditionRich,2021.2.3,59.93899409185422,
356.0,356.75,38,0.75,Stimuli/P002/things_windowsill_01b.jpg,0,0.0,0.0,0,156,156,156,,,,,,,,,,,,,356.0309944999999,0.03099449999990611,None,,406.63361310000073,406.63361310000073,406.63361310000073,406.63361310000073,406.63361310000073,406.63361310000073,406.63361310000073,406.63361310000073,406.63361310000073,406.63361310000073,006,P002,2025_Jan_18_0959,ConditionRich,2021.2.3,59.93899409185422,
356.75,360.0,41,0.0,Stimuli/Blank.png,0,0.0,0.0,0,157,157,157,,,,,,,,,,,,,356.78041630000007,0.030416300000069896,5,1.1981195000007574,407.36760680000043,407.36760680000043,407.36760680000043,407.36760680000043,407.36760680000043,407.36760680000043,407.36760680000043,407.36760680000043,407.36760680000043,407.36760680000043,006,P002,2025_Jan_18_0959,ConditionRich,2021.2.3,59.93899409185422,
360.0,360.75,19,0.75,Stimuli/P002/sun_bzyyqqczvrnvukdn.jpg,0,0.0,0.0,0,158,158,158,,,,,,,,,,,,,360.0011380999995,0.0011380999994798913,None,,410.6037709000002,410.6037709000002,410.6037709000002,410.6037709000002,410.6037709000002,410.6037709000002,410.6037709000002,410.6037709000002,410.6037709000002,410.6037709000002,006,P002,2025_Jan_18_0959,ConditionRich,2021.2.3,59.93899409185422,
360.75,364.0,41,0.0,Stimuli/Blank.png,0,0.0,0.0,0,159,159,159,,,,,,,,,,,,,360.7670128999998,0.017012899999826914,5,1.2114343000002918,411.35443190000024,411.35443190000024,411.35443190000024,411.35443190000024,411.35443190000024,411.35443190000024,411.35443190000024,411.35443190000024,411.35443190000024,411.35443190000024,006,P002,2025_Jan_18_0959,ConditionRich,2021.2.3,59.93899409185422,
364.0,364.75,33,0.75,Stimuli/P002/things_pan_01b.jpg,0,0.0,0.0,0,160,160,160,,,,,,,,,,,,,364.0024205999998,0.0024205999998230254,None,,414.5906126,414.5906126,414.5906126,414.5906126,414.5906126,414.5906126,414.5906126,414.5906126,414.5906126,414.5906126,006,P002,2025_Jan_18_0959,ConditionRich,2021.2.3,59.93899409185422,
364.75,368.0,41,0.0,Stimuli/Blank.png,0,0.0,0.0,0,161,161,161,,,,,,,,,,,,,364.75337560000025,0.003375600000254053,5,1.2246290000002773,415.34132710000085,415.34132710000085,415.34132710000085,415.34132710000085,415.34132710000085,415.34132710000085,415.34132710000085,415.34132710000085,415.34132710000085,415.34132710000085,006,P002,2025_Jan_18_0959,ConditionRich,2021.2.3,59.93899409185422,
368.0,368.75,37,0.75,Stimuli/P002/things_starfish_01b.jpg,0,0.0,0.0,0,162,162,162,,,,,,,,,,,,,368.00727449999977,0.007274499999766704,None,,418.6108105000003,418.6108105000003,418.6108105000003,418.6108105000003,418.6108105000003,418.6108105000003,418.6108105000003,418.6108105000003,418.6108105000003,418.6108105000003,006,P002,2025_Jan_18_0959,ConditionRich,2021.2.3,59.93899409185422,
368.75,372.0,41,0.0,Stimuli/Blank.png,1,0.25,1.0,0,163,163,163,,,,,,,,,,,,,368.77328099999977,0.023280999999769847,5,3.2042614000001777,419.3614770000004,419.3614770000004,419.3614770000004,419.3614770000004,419.3614770000004,419.3614770000004,419.59498390000044,420.34567830000015,419.3614770000004,419.3614770000004,006,P002,2025_Jan_18_0959,ConditionRich,2021.2.3,59.93899409185422,
372.0,388.0,0,0.0,Stimuli/Blank.png,1,13.0,13.75,0,164,164,164,,,,,,,,,,,,,372.00978359999954,0.009783599999536818,5,13.969143999999687,422.59765700000025,422.59765700000025,422.59765700000025,422.59765700000025,422.59765700000025,422.59765700000025,435.57587090000015,436.3764949000006,422.59765700000025,422.59765700000025,006,P002,2025_Jan_18_0959,ConditionRich,2021.2.3,59.93899409185422,
