eventStartTime,eventEndTime,eventCond,imSize,imFile,responseEvent,fixRespStart,fixRespEnd,Events.thisRepN,Events.thisTrialN,Events.thisN,Events.thisIndex,Instructions.started,Instructions.stopped,participantReadyResponse.keys,participantReadyResponse.rt,participantReadyResponse.started,participantReadyResponse.stopped,startWaitforTrigger,triggerResponse.keys,triggerResponse.rt,triggerResponse.started,triggerResponse.stopped,globalTimer,actualStartTime,startTimingDiff,participantResponse.keys,participantResponse.rt,participantResponse.started,participantResponse.stopped,image.started,image.stopped,fixationOutside.started,fixationOutside.stopped,fixationResponse.started,fixationResponse.stopped,fixationInside.started,fixationInside.stopped,session,participant,date,expName,psychopyVersion,frameRate,
,,,,,,,,,,,,35.85164590000022,None,1,1.6517917999999554,35.85164590000022,None,,,,,,,,,,,,,,,,,,,,,001,P002,2025_Jan_18_0916,ConditionRich,2021.2.3,59.93863482558472,
,,,,,,,,,,,,,,,,,,37.5064126000002,5,14.892113899999913,37.51933480000025,None,,,,,,,,,,,,,,,,001,P002,2025_Jan_18_0916,ConditionRich,2021.2.3,59.93863482558472,
0.0,4.0,0,0.0,Stimuli/Blank.png,0,0,0.0,0,0,0,0,,,,,,,,,,,,52.419008900000335,0.04792859999997745,0.04792859999997745,5,1.929012099999909,52.48244199999999,None,52.48244199999999,None,52.48244199999999,None,52.48244199999999,52.48244199999999,52.48244199999999,None,001,P002,2025_Jan_18_0916,ConditionRich,2021.2.3,59.93863482558472,
4.0,4.75,27,0.75,Stimuli/P002/things_dynamite_01b.jpg,0,0,0.0,0,1,1,1,,,,,,,,,,,,,4.003901099999894,0.0039010999998936313,None,,56.45295150000038,56.45295150000038,56.45295150000038,56.45295150000038,56.45295150000038,56.45295150000038,56.45295150000038,56.45295150000038,56.45295150000038,56.45295150000038,001,P002,2025_Jan_18_0916,ConditionRich,2021.2.3,59.93863482558472,
4.75,5.0,41,0.0,Stimuli/Blank.png,0,0,0.0,0,2,2,2,,,,,,,,,,,,,4.771177199999784,0.021177199999783625,None,,57.20357160000003,57.20357160000003,57.20357160000003,57.20357160000003,57.20357160000003,57.20357160000003,57.20357160000003,57.20357160000003,57.20357160000003,57.20357160000003,001,P002,2025_Jan_18_0916,ConditionRich,2021.2.3,59.93863482558472,
5.0,5.75,27,0.75,Stimuli/P002/things_dynamite_01b.jpg,0,0,0.0,0,3,3,3,,,,,,,,,,,,,5.003381799999715,0.00338179999971544,None,,57.4368058,57.4368058,57.4368058,57.4368058,57.4368058,57.4368058,57.4368058,57.4368058,57.4368058,57.4368058,001,P002,2025_Jan_18_0916,ConditionRich,2021.2.3,59.93863482558472,
5.75,6.0,41,0.0,Stimuli/Blank.png,0,0,0.0,0,4,4,4,,,,,,,,,,,,,5.754387899999983,0.004387899999983347,None,,58.1874670000002,58.1874670000002,58.1874670000002,58.1874670000002,58.1874670000002,58.1874670000002,58.1874670000002,58.1874670000002,58.1874670000002,58.1874670000002,001,P002,2025_Jan_18_0916,ConditionRich,2021.2.3,59.93863482558472,
6.0,6.75,27,0.75,Stimuli/P002/things_dynamite_01b.jpg,0,0,0.0,0,5,5,5,,,,,,,,,,,,,6.0068687999996655,0.006868799999665498,None,,58.45437250000032,58.45437250000032,58.45437250000032,58.45437250000032,58.45437250000032,58.45437250000032,58.45437250000032,58.45437250000032,58.45437250000032,58.45437250000032,001,P002,2025_Jan_18_0916,ConditionRich,2021.2.3,59.93863482558472,
6.75,7.0,41,0.0,Stimuli/Blank.png,0,0,0.0,0,6,6,6,,,,,,,,,,,,,6.77235440000004,0.022354400000040187,None,,59.20504300000039,59.20504300000039,59.20504300000039,59.20504300000039,59.20504300000039,59.20504300000039,59.20504300000039,59.20504300000039,59.20504300000039,59.20504300000039,001,P002,2025_Jan_18_0916,ConditionRich,2021.2.3,59.93863482558472,
7.0,7.75,27,0.75,Stimuli/P002/things_dynamite_01b.jpg,0,0,0.0,0,7,7,7,,,,,,,,,,,,,7.007885299999998,0.007885299999998097,None,,59.45525429999998,59.45525429999998,59.45525429999998,59.45525429999998,59.45525429999998,59.45525429999998,59.45525429999998,59.45525429999998,59.45525429999998,59.45525429999998,001,P002,2025_Jan_18_0916,ConditionRich,2021.2.3,59.93863482558472,
7.75,8.0,41,0.0,Stimuli/Blank.png,0,0,0.0,0,8,8,8,,,,,,,,,,,,,7.772732999999789,0.022732999999789172,None,,60.205912700000226,60.205912700000226,60.205912700000226,60.205912700000226,60.205912700000226,60.205912700000226,60.205912700000226,60.205912700000226,60.205912700000226,60.205912700000226,001,P002,2025_Jan_18_0916,ConditionRich,2021.2.3,59.93863482558472,
8.0,8.75,2,0.75,Stimuli/P002/sun_akmxsxepquhynflp.jpg,1,0,0.75,0,9,9,9,,,,,,,,,,,,,8.005910699999731,0.0059106999997311505,1,0.4998265000003812,60.43944730000021,60.43944730000021,60.43944730000021,60.43944730000021,60.43944730000021,60.43944730000021,60.43944730000021,61.173447800000304,60.43944730000021,60.43944730000021,001,P002,2025_Jan_18_0916,ConditionRich,2021.2.3,59.93863482558472,
8.75,9.0,41,0.0,Stimuli/Blank.png,0,0,0.0,0,10,10,10,,,,,,,,,,,,,8.757588799999667,0.007588799999666662,None,,61.19011950000004,61.19011950000004,61.19011950000004,61.19011950000004,61.19011950000004,61.19011950000004,61.19011950000004,61.19011950000004,61.19011950000004,61.19011950000004,001,P002,2025_Jan_18_0916,ConditionRich,2021.2.3,59.93863482558472,
9.0,9.75,2,0.75,Stimuli/P002/sun_akmxsxepquhynflp.jpg,0,0,0.0,0,11,11,11,,,,,,,,,,,,,9.00728429999981,0.007284299999810173,None,,61.44032680000009,61.44032680000009,61.44032680000009,61.44032680000009,61.44032680000009,61.44032680000009,61.44032680000009,61.44032680000009,61.44032680000009,61.44032680000009,001,P002,2025_Jan_18_0916,ConditionRich,2021.2.3,59.93863482558472,
9.75,10.0,41,0.0,Stimuli/Blank.png,0,0,0.0,0,12,12,12,,,,,,,,,,,,,9.757277700000031,0.007277700000031473,None,,62.19099570000026,62.19099570000026,62.19099570000026,62.19099570000026,62.19099570000026,62.19099570000026,62.19099570000026,62.19099570000026,62.19099570000026,62.19099570000026,001,P002,2025_Jan_18_0916,ConditionRich,2021.2.3,59.93863482558472,
10.0,10.75,2,0.75,Stimuli/P002/sun_akmxsxepquhynflp.jpg,0,0,0.0,0,13,13,13,,,,,,,,,,,,,10.00752519999969,0.0075251999996908125,None,,62.441206800000145,62.441206800000145,62.441206800000145,62.441206800000145,62.441206800000145,62.441206800000145,62.441206800000145,62.441206800000145,62.441206800000145,62.441206800000145,001,P002,2025_Jan_18_0916,ConditionRich,2021.2.3,59.93863482558472,
10.75,11.0,41,0.0,Stimuli/Blank.png,0,0,0.0,0,14,14,14,,,,,,,,,,,,,10.758726900000056,0.008726900000056048,None,,63.191876500000035,63.191876500000035,63.191876500000035,63.191876500000035,63.191876500000035,63.191876500000035,63.191876500000035,63.191876500000035,63.191876500000035,63.191876500000035,001,P002,2025_Jan_18_0916,ConditionRich,2021.2.3,59.93863482558472,
11.0,11.75,2,0.75,Stimuli/P002/sun_akmxsxepquhynflp.jpg,0,0,0.0,0,15,15,15,,,,,,,,,,,,,11.009043099999872,0.009043099999871629,None,,63.458774500000345,63.458774500000345,63.458774500000345,63.458774500000345,63.458774500000345,63.458774500000345,63.458774500000345,63.458774500000345,63.458774500000345,63.458774500000345,001,P002,2025_Jan_18_0916,ConditionRich,2021.2.3,59.93863482558472,
11.75,12.0,41,0.0,Stimuli/Blank.png,0,0,0.0,0,16,16,16,,,,,,,,,,,,,11.776407899999867,0.026407899999867368,5,0.2018113999997695,64.20944300000019,64.20944300000019,64.20944300000019,64.20944300000019,64.20944300000019,64.20944300000019,64.20944300000019,64.20944300000019,64.20944300000019,64.20944300000019,001,P002,2025_Jan_18_0916,ConditionRich,2021.2.3,59.93863482558472,
12.0,12.75,36,0.75,Stimuli/P002/things_stalagmite_01b.jpg,0,0,0.0,0,17,17,17,,,,,,,,,,,,,12.01019879999967,0.010198799999670882,None,,64.44297560000041,64.44297560000041,64.44297560000041,64.44297560000041,64.44297560000041,64.44297560000041,64.44297560000041,64.44297560000041,64.44297560000041,64.44297560000041,001,P002,2025_Jan_18_0916,ConditionRich,2021.2.3,59.93863482558472,
12.75,13.0,41,0.0,Stimuli/Blank.png,0,0,0.0,0,18,18,18,,,,,,,,,,,,,12.760421099999803,0.010421099999803118,None,,65.19363720000001,65.19363720000001,65.19363720000001,65.19363720000001,65.19363720000001,65.19363720000001,65.19363720000001,65.19363720000001,65.19363720000001,65.19363720000001,001,P002,2025_Jan_18_0916,ConditionRich,2021.2.3,59.93863482558472,
13.0,13.75,36,0.75,Stimuli/P002/things_stalagmite_01b.jpg,0,0,0.0,0,19,19,19,,,,,,,,,,,,,13.012652799999614,0.012652799999614217,None,,65.4605359000002,65.4605359000002,65.4605359000002,65.4605359000002,65.4605359000002,65.4605359000002,65.4605359000002,65.4605359000002,65.4605359000002,65.4605359000002,001,P002,2025_Jan_18_0916,ConditionRich,2021.2.3,59.93863482558472,
13.75,14.0,41,0.0,Stimuli/Blank.png,0,0,0.0,0,20,20,20,,,,,,,,,,,,,13.777842299999975,0.027842299999974784,5,0.20021159999987503,66.21118860000024,66.21118860000024,66.21118860000024,66.21118860000024,66.21118860000024,66.21118860000024,66.21118860000024,66.21118860000024,66.21118860000024,66.21118860000024,001,P002,2025_Jan_18_0916,ConditionRich,2021.2.3,59.93863482558472,
14.0,14.75,36,0.75,Stimuli/P002/things_stalagmite_01b.jpg,0,0,0.0,0,21,21,21,,,,,,,,,,,,,14.011963499999638,0.011963499999637861,None,,66.44474780000019,66.44474780000019,66.44474780000019,66.44474780000019,66.44474780000019,66.44474780000019,66.44474780000019,66.44474780000019,66.44474780000019,66.44474780000019,001,P002,2025_Jan_18_0916,ConditionRich,2021.2.3,59.93863482558472,
14.75,15.0,41,0.0,Stimuli/Blank.png,0,0,0.0,0,22,22,22,,,,,,,,,,,,,14.762561199999709,0.01256119999970906,None,,67.19539710000026,67.19539710000026,67.19539710000026,67.19539710000026,67.19539710000026,67.19539710000026,67.19539710000026,67.19539710000026,67.19539710000026,67.19539710000026,001,P002,2025_Jan_18_0916,ConditionRich,2021.2.3,59.93863482558472,
15.0,15.75,36,0.75,Stimuli/P002/things_stalagmite_01b.jpg,0,0,0.0,0,23,23,23,,,,,,,,,,,,,15.013475599999765,0.013475599999765109,None,,67.46230530000003,67.46230530000003,67.46230530000003,67.46230530000003,67.46230530000003,67.46230530000003,67.46230530000003,67.46230530000003,67.46230530000003,67.46230530000003,001,P002,2025_Jan_18_0916,ConditionRich,2021.2.3,59.93863482558472,
15.75,16.0,41,0.0,Stimuli/Blank.png,0,0,0.0,0,24,24,24,,,,,,,,,,,,,15.781798199999685,0.031798199999684584,5,0.18159280000008948,68.22963920000029,68.22963920000029,68.22963920000029,68.22963920000029,68.22963920000029,68.22963920000029,68.22963920000029,68.22963920000029,68.22963920000029,68.22963920000029,001,P002,2025_Jan_18_0916,ConditionRich,2021.2.3,59.93863482558472,
16.0,16.75,9,0.75,Stimuli/P002/sun_awtltwwpwbepuuqv.jpg,0,0,0.0,0,25,25,25,,,,,,,,,,,,,16.03227160000006,0.03227160000005824,None,,68.47987469999998,68.47987469999998,68.47987469999998,68.47987469999998,68.47987469999998,68.47987469999998,68.47987469999998,68.47987469999998,68.47987469999998,68.47987469999998,001,P002,2025_Jan_18_0916,ConditionRich,2021.2.3,59.93863482558472,
16.75,17.0,41,0.0,Stimuli/Blank.png,0,0,0.0,0,26,26,26,,,,,,,,,,,,,16.764080899999954,0.014080899999953544,None,,69.19716779999999,69.19716779999999,69.19716779999999,69.19716779999999,69.19716779999999,69.19716779999999,69.19716779999999,69.19716779999999,69.19716779999999,69.19716779999999,001,P002,2025_Jan_18_0916,ConditionRich,2021.2.3,59.93863482558472,
17.0,17.75,9,0.75,Stimuli/P002/sun_awtltwwpwbepuuqv.jpg,0,0,0.0,0,27,27,27,,,,,,,,,,,,,17.014366399999744,0.014366399999744317,None,,69.44737750000013,69.44737750000013,69.44737750000013,69.44737750000013,69.44737750000013,69.44737750000013,69.44737750000013,69.44737750000013,69.44737750000013,69.44737750000013,001,P002,2025_Jan_18_0916,ConditionRich,2021.2.3,59.93863482558472,
17.75,18.0,41,0.0,Stimuli/Blank.png,0,0,0.0,0,28,28,28,,,,,,,,,,,,,17.764308999999685,0.014308999999684602,5,0.21321209999996427,70.19803730000012,70.19803730000012,70.19803730000012,70.19803730000012,70.19803730000012,70.19803730000012,70.19803730000012,70.19803730000012,70.19803730000012,70.19803730000012,001,P002,2025_Jan_18_0916,ConditionRich,2021.2.3,59.93863482558472,
18.0,18.75,9,0.75,Stimuli/P002/sun_awtltwwpwbepuuqv.jpg,0,0,0.0,0,29,29,29,,,,,,,,,,,,,18.014588900000035,0.01458890000003521,None,,70.4482522000003,70.4482522000003,70.4482522000003,70.4482522000003,70.4482522000003,70.4482522000003,70.4482522000003,70.4482522000003,70.4482522000003,70.4482522000003,001,P002,2025_Jan_18_0916,ConditionRich,2021.2.3,59.93863482558472,
18.75,19.0,41,0.0,Stimuli/Blank.png,0,0,0.0,0,30,30,30,,,,,,,,,,,,,18.76759459999994,0.01759459999993851,None,,71.21560580000005,71.21560580000005,71.21560580000005,71.21560580000005,71.21560580000005,71.21560580000005,71.21560580000005,71.21560580000005,71.21560580000005,71.21560580000005,001,P002,2025_Jan_18_0916,ConditionRich,2021.2.3,59.93863482558472,
19.0,19.75,9,0.75,Stimuli/P002/sun_awtltwwpwbepuuqv.jpg,0,0,0.0,0,31,31,31,,,,,,,,,,,,,19.016513699999905,0.01651369999990493,None,,71.46581620000006,71.46581620000006,71.46581620000006,71.46581620000006,71.46581620000006,71.46581620000006,71.46581620000006,71.46581620000006,71.46581620000006,71.46581620000006,001,P002,2025_Jan_18_0916,ConditionRich,2021.2.3,59.93863482558472,
19.75,20.0,41,0.0,Stimuli/Blank.png,0,0,0.0,0,32,32,32,,,,,,,,,,,,,19.767513399999643,0.017513399999643298,None,,72.19979770000009,72.19979770000009,72.19979770000009,72.19979770000009,72.19979770000009,72.19979770000009,72.19979770000009,72.19979770000009,72.19979770000009,72.19979770000009,001,P002,2025_Jan_18_0916,ConditionRich,2021.2.3,59.93863482558472,
20.0,20.75,24,0.75,Stimuli/P002/things_cornucopia_01b.jpg,0,0,0.0,0,33,33,33,,,,,,,,,,,,,20.000356799999736,0.0003567999997358129,None,,72.46669930000007,72.46669930000007,72.46669930000007,72.46669930000007,72.46669930000007,72.46669930000007,72.46669930000007,72.46669930000007,72.46669930000007,72.46669930000007,001,P002,2025_Jan_18_0916,ConditionRich,2021.2.3,59.93863482558472,
20.75,21.0,41,0.0,Stimuli/Blank.png,0,0,0.0,0,34,34,34,,,,,,,,,,,,,20.785130199999912,0.03513019999991229,None,,73.2173684000004,73.2173684000004,73.2173684000004,73.2173684000004,73.2173684000004,73.2173684000004,73.2173684000004,73.2173684000004,73.2173684000004,73.2173684000004,001,P002,2025_Jan_18_0916,ConditionRich,2021.2.3,59.93863482558472,
21.0,21.75,24,0.75,Stimuli/P002/things_cornucopia_01b.jpg,0,0,0.0,0,35,35,35,,,,,,,,,,,,,21.00144599999976,0.001445999999759806,None,,73.45090310000023,73.45090310000023,73.45090310000023,73.45090310000023,73.45090310000023,73.45090310000023,73.45090310000023,73.45090310000023,73.45090310000023,73.45090310000023,001,P002,2025_Jan_18_0916,ConditionRich,2021.2.3,59.93863482558472,
21.75,22.0,41,0.0,Stimuli/Blank.png,0,0,0.0,0,36,36,36,,,,,,,,,,,,,21.768397599999844,0.018397599999843806,None,,74.20156440000028,74.20156440000028,74.20156440000028,74.20156440000028,74.20156440000028,74.20156440000028,74.20156440000028,74.20156440000028,74.20156440000028,74.20156440000028,001,P002,2025_Jan_18_0916,ConditionRich,2021.2.3,59.93863482558472,
22.0,22.75,24,0.75,Stimuli/P002/things_cornucopia_01b.jpg,0,0,0.0,0,37,37,37,,,,,,,,,,,,,22.002667799999927,0.002667799999926501,None,,74.45177850000027,74.45177850000027,74.45177850000027,74.45177850000027,74.45177850000027,74.45177850000027,74.45177850000027,74.45177850000027,74.45177850000027,74.45177850000027,001,P002,2025_Jan_18_0916,ConditionRich,2021.2.3,59.93863482558472,
22.75,23.0,41,0.0,Stimuli/Blank.png,0,0,0.0,0,38,38,38,,,,,,,,,,,,,22.77175109999962,0.021751099999619328,None,,75.21911940000018,75.21911940000018,75.21911940000018,75.21911940000018,75.21911940000018,75.21911940000018,75.21911940000018,75.21911940000018,75.21911940000018,75.21911940000018,001,P002,2025_Jan_18_0916,ConditionRich,2021.2.3,59.93863482558472,
23.0,23.75,24,0.75,Stimuli/P002/things_cornucopia_01b.jpg,0,0,0.0,0,39,39,39,,,,,,,,,,,,,23.019784799999798,0.019784799999797542,None,,75.46933950000039,75.46933950000039,75.46933950000039,75.46933950000039,75.46933950000039,75.46933950000039,75.46933950000039,75.46933950000039,75.46933950000039,75.46933950000039,001,P002,2025_Jan_18_0916,ConditionRich,2021.2.3,59.93863482558472,
23.75,24.0,41,0.0,Stimuli/Blank.png,0,0,0.0,0,40,40,40,,,,,,,,,,,,,23.77206359999991,0.022063599999910366,5,0.1911857999998574,76.22000290000005,76.22000290000005,76.22000290000005,76.22000290000005,76.22000290000005,76.22000290000005,76.22000290000005,76.22000290000005,76.22000290000005,76.22000290000005,001,P002,2025_Jan_18_0916,ConditionRich,2021.2.3,59.93863482558472,
24.0,24.75,3,0.75,Stimuli/P002/sun_amarqtinchblqmah.jpg,0,0,0.0,0,41,41,41,,,,,,,,,,,,,24.020524000000023,0.02052400000002308,None,,76.47027300000036,76.47027300000036,76.47027300000036,76.47027300000036,76.47027300000036,76.47027300000036,76.47027300000036,76.47027300000036,76.47027300000036,76.47027300000036,001,P002,2025_Jan_18_0916,ConditionRich,2021.2.3,59.93863482558472,
24.75,25.0,41,0.0,Stimuli/Blank.png,0,0,0.0,0,42,42,42,,,,,,,,,,,,,24.770734700000048,0.02073470000004818,None,,77.20421710000028,77.20421710000028,77.20421710000028,77.20421710000028,77.20421710000028,77.20421710000028,77.20421710000028,77.20421710000028,77.20421710000028,77.20421710000028,001,P002,2025_Jan_18_0916,ConditionRich,2021.2.3,59.93863482558472,
25.0,25.75,3,0.75,Stimuli/P002/sun_amarqtinchblqmah.jpg,0,0,0.0,0,43,43,43,,,,,,,,,,,,,25.004827899999782,0.004827899999781948,None,,77.45442279999997,77.45442279999997,77.45442279999997,77.45442279999997,77.45442279999997,77.45442279999997,77.45442279999997,77.45442279999997,77.45442279999997,77.45442279999997,001,P002,2025_Jan_18_0916,ConditionRich,2021.2.3,59.93863482558472,
25.75,26.0,41,0.0,Stimuli/Blank.png,0,0,0.0,0,44,44,44,,,,,,,,,,,,,25.77234389999967,0.022343899999668793,5,0.18970509999962815,78.22176450000006,78.22176450000006,78.22176450000006,78.22176450000006,78.22176450000006,78.22176450000006,78.22176450000006,78.22176450000006,78.22176450000006,78.22176450000006,001,P002,2025_Jan_18_0916,ConditionRich,2021.2.3,59.93863482558472,
26.0,26.75,3,0.75,Stimuli/P002/sun_amarqtinchblqmah.jpg,0,0,0.0,0,45,45,45,,,,,,,,,,,,,26.022318399999676,0.02231839999967633,None,,78.45528680000007,78.45528680000007,78.45528680000007,78.45528680000007,78.45528680000007,78.45528680000007,78.45528680000007,78.45528680000007,78.45528680000007,78.45528680000007,001,P002,2025_Jan_18_0916,ConditionRich,2021.2.3,59.93863482558472,
26.75,27.0,41,0.0,Stimuli/Blank.png,0,0,0.0,0,46,46,46,,,,,,,,,,,,,26.756398699999863,0.006398699999863311,None,,79.18927910000002,79.18927910000002,79.18927910000002,79.18927910000002,79.18927910000002,79.18927910000002,79.18927910000002,79.18927910000002,79.18927910000002,79.18927910000002,001,P002,2025_Jan_18_0916,ConditionRich,2021.2.3,59.93863482558472,
27.0,27.75,3,0.75,Stimuli/P002/sun_amarqtinchblqmah.jpg,0,0,0.0,0,47,47,47,,,,,,,,,,,,,27.00643850000006,0.006438500000058411,None,,79.43949870000006,79.43949870000006,79.43949870000006,79.43949870000006,79.43949870000006,79.43949870000006,79.43949870000006,79.43949870000006,79.43949870000006,79.43949870000006,001,P002,2025_Jan_18_0916,ConditionRich,2021.2.3,59.93863482558472,
27.75,28.0,41,0.0,Stimuli/Blank.png,0,0,0.0,0,48,48,48,,,,,,,,,,,,,27.75709199999983,0.007091999999829568,None,,80.19015770000033,80.19015770000033,80.19015770000033,80.19015770000033,80.19015770000033,80.19015770000033,80.19015770000033,80.19015770000033,80.19015770000033,80.19015770000033,001,P002,2025_Jan_18_0916,ConditionRich,2021.2.3,59.93863482558472,
28.0,28.75,12,0.75,Stimuli/P002/sun_bdxvmnlyovhqognn.jpg,0,0,0.0,0,49,49,49,,,,,,,,,,,,,28.00744739999982,0.0074473999998190266,None,,80.47375650000004,80.47375650000004,80.47375650000004,80.47375650000004,80.47375650000004,80.47375650000004,80.47375650000004,80.47375650000004,80.47375650000004,80.47375650000004,001,P002,2025_Jan_18_0916,ConditionRich,2021.2.3,59.93863482558472,
28.75,29.0,41,0.0,Stimuli/Blank.png,0,0,0.0,0,50,50,50,,,,,,,,,,,,,28.791484800000035,0.04148480000003474,None,,81.22440300000017,81.22440300000017,81.22440300000017,81.22440300000017,81.22440300000017,81.22440300000017,81.22440300000017,81.22440300000017,81.22440300000017,81.22440300000017,001,P002,2025_Jan_18_0916,ConditionRich,2021.2.3,59.93863482558472,
29.0,29.75,12,0.75,Stimuli/P002/sun_bdxvmnlyovhqognn.jpg,0,0,0.0,0,51,51,51,,,,,,,,,,,,,29.008344699999725,0.00834469999972498,None,,81.44126320000032,81.44126320000032,81.44126320000032,81.44126320000032,81.44126320000032,81.44126320000032,81.44126320000032,81.44126320000032,81.44126320000032,81.44126320000032,001,P002,2025_Jan_18_0916,ConditionRich,2021.2.3,59.93863482558472,
29.75,30.0,41,0.0,Stimuli/Blank.png,0,0,0.0,0,52,52,52,,,,,,,,,,,,,29.7583396,0.008339599999999336,None,,82.19191980000005,82.19191980000005,82.19191980000005,82.19191980000005,82.19191980000005,82.19191980000005,82.19191980000005,82.19191980000005,82.19191980000005,82.19191980000005,001,P002,2025_Jan_18_0916,ConditionRich,2021.2.3,59.93863482558472,
30.0,30.75,12,0.75,Stimuli/P002/sun_bdxvmnlyovhqognn.jpg,0,0,0.0,0,53,53,53,,,,,,,,,,,,,30.008538199999748,0.00853819999974803,None,,82.44213800000034,82.44213800000034,82.44213800000034,82.44213800000034,82.44213800000034,82.44213800000034,82.44213800000034,82.44213800000034,82.44213800000034,82.44213800000034,001,P002,2025_Jan_18_0916,ConditionRich,2021.2.3,59.93863482558472,
30.75,31.0,41,0.0,Stimuli/Blank.png,0,0,0.0,0,54,54,54,,,,,,,,,,,,,30.761587499999678,0.011587499999677675,None,,83.20948620000036,83.20948620000036,83.20948620000036,83.20948620000036,83.20948620000036,83.20948620000036,83.20948620000036,83.20948620000036,83.20948620000036,83.20948620000036,001,P002,2025_Jan_18_0916,ConditionRich,2021.2.3,59.93863482558472,
31.0,31.75,12,0.75,Stimuli/P002/sun_bdxvmnlyovhqognn.jpg,0,0,0.0,0,55,55,55,,,,,,,,,,,,,31.027493399999912,0.02749339999991207,None,,83.47640300000012,83.47640300000012,83.47640300000012,83.47640300000012,83.47640300000012,83.47640300000012,83.47640300000012,83.47640300000012,83.47640300000012,83.47640300000012,001,P002,2025_Jan_18_0916,ConditionRich,2021.2.3,59.93863482558472,
31.75,32.0,41,0.0,Stimuli/Blank.png,0,0,0.0,0,56,56,56,,,,,,,,,,,,,31.777494099999785,0.02749409999978525,5,0.2007672999998249,84.21037569999999,84.21037569999999,84.21037569999999,84.21037569999999,84.21037569999999,84.21037569999999,84.21037569999999,84.21037569999999,84.21037569999999,84.21037569999999,001,P002,2025_Jan_18_0916,ConditionRich,2021.2.3,59.93863482558472,
32.0,32.75,28,0.75,Stimuli/P002/things_girl_01b.jpg,0,0,0.0,0,57,57,57,,,,,,,,,,,,,32.012401899999986,0.012401899999986199,None,,84.47727759999998,84.47727759999998,84.47727759999998,84.47727759999998,84.47727759999998,84.47727759999998,84.47727759999998,84.47727759999998,84.47727759999998,84.47727759999998,001,P002,2025_Jan_18_0916,ConditionRich,2021.2.3,59.93863482558472,
32.75,33.0,41,0.0,Stimuli/Blank.png,0,0,0.0,0,58,58,58,,,,,,,,,,,,,32.795085299999755,0.04508529999975508,None,,85.22792770000024,85.22792770000024,85.22792770000024,85.22792770000024,85.22792770000024,85.22792770000024,85.22792770000024,85.22792770000024,85.22792770000024,85.22792770000024,001,P002,2025_Jan_18_0916,ConditionRich,2021.2.3,59.93863482558472,
33.0,33.75,28,0.75,Stimuli/P002/things_girl_01b.jpg,0,0,0.0,0,59,59,59,,,,,,,,,,,,,33.012057299999924,0.012057299999923998,None,,85.46145510000042,85.46145510000042,85.46145510000042,85.46145510000042,85.46145510000042,85.46145510000042,85.46145510000042,85.46145510000042,85.46145510000042,85.46145510000042,001,P002,2025_Jan_18_0916,ConditionRich,2021.2.3,59.93863482558472,
33.75,34.0,41,0.0,Stimuli/Blank.png,0,0,0.0,0,60,60,60,,,,,,,,,,,,,33.778410099999746,0.028410099999746308,5,0.19902589999992415,86.21212050000031,86.21212050000031,86.21212050000031,86.21212050000031,86.21212050000031,86.21212050000031,86.21212050000031,86.21212050000031,86.21212050000031,86.21212050000031,001,P002,2025_Jan_18_0916,ConditionRich,2021.2.3,59.93863482558472,
34.0,34.75,28,0.75,Stimuli/P002/things_girl_01b.jpg,0,0,0.0,0,61,61,61,,,,,,,,,,,,,34.012833599999794,0.012833599999794387,None,,86.44566130000021,86.44566130000021,86.44566130000021,86.44566130000021,86.44566130000021,86.44566130000021,86.44566130000021,86.44566130000021,86.44566130000021,86.44566130000021,001,P002,2025_Jan_18_0916,ConditionRich,2021.2.3,59.93863482558472,
34.75,35.0,41,0.0,Stimuli/Blank.png,0,0,0.0,0,62,62,62,,,,,,,,,,,,,34.762935299999754,0.012935299999753624,None,,87.19632000000001,87.19632000000001,87.19632000000001,87.19632000000001,87.19632000000001,87.19632000000001,87.19632000000001,87.19632000000001,87.19632000000001,87.19632000000001,001,P002,2025_Jan_18_0916,ConditionRich,2021.2.3,59.93863482558472,
35.0,35.75,28,0.75,Stimuli/P002/things_girl_01b.jpg,0,0,0.0,0,63,63,63,,,,,,,,,,,,,35.01310799999965,0.01310799999964729,None,,87.44653670000025,87.44653670000025,87.44653670000025,87.44653670000025,87.44653670000025,87.44653670000025,87.44653670000025,87.44653670000025,87.44653670000025,87.44653670000025,001,P002,2025_Jan_18_0916,ConditionRich,2021.2.3,59.93863482558472,
35.75,36.0,41,0.0,Stimuli/Blank.png,0,0,0.0,0,64,64,64,,,,,,,,,,,,,35.76419080000005,0.01419080000005124,5,0.21388660000002346,88.19726700000001,88.19726700000001,88.19726700000001,88.19726700000001,88.19726700000001,88.19726700000001,88.19726700000001,88.19726700000001,88.19726700000001,88.19726700000001,001,P002,2025_Jan_18_0916,ConditionRich,2021.2.3,59.93863482558472,
36.0,36.75,32,0.75,Stimuli/P002/things_oyster_01b.jpg,0,0,0.0,0,65,65,65,,,,,,,,,,,,,36.01442159999988,0.014421599999877799,None,,88.48079740000003,88.48079740000003,88.48079740000003,88.48079740000003,88.48079740000003,88.48079740000003,88.48079740000003,88.48079740000003,88.48079740000003,88.48079740000003,001,P002,2025_Jan_18_0916,ConditionRich,2021.2.3,59.93863482558472,
36.75,37.0,41,0.0,Stimuli/Blank.png,0,0,0.0,0,66,66,66,,,,,,,,,,,,,36.79800290000003,0.0480029000000286,None,,89.2314550000001,89.2314550000001,89.2314550000001,89.2314550000001,89.2314550000001,89.2314550000001,89.2314550000001,89.2314550000001,89.2314550000001,89.2314550000001,001,P002,2025_Jan_18_0916,ConditionRich,2021.2.3,59.93863482558472,
37.0,37.75,32,0.75,Stimuli/P002/things_oyster_01b.jpg,0,0,0.0,0,67,67,67,,,,,,,,,,,,,37.015305799999624,0.01530579999962356,None,,89.44830360000014,89.44830360000014,89.44830360000014,89.44830360000014,89.44830360000014,89.44830360000014,89.44830360000014,89.44830360000014,89.44830360000014,89.44830360000014,001,P002,2025_Jan_18_0916,ConditionRich,2021.2.3,59.93863482558472,
37.75,38.0,41,0.0,Stimuli/Blank.png,0,0,0.0,0,68,68,68,,,,,,,,,,,,,37.749290199999905,-0.0007098000000951288,None,,90.18235540000023,90.18235540000023,90.18235540000023,90.18235540000023,90.18235540000023,90.18235540000023,90.18235540000023,90.18235540000023,90.18235540000023,90.18235540000023,001,P002,2025_Jan_18_0916,ConditionRich,2021.2.3,59.93863482558472,
38.0,38.75,32,0.75,Stimuli/P002/things_oyster_01b.jpg,0,0,0.0,0,69,69,69,,,,,,,,,,,,,38.001607899999726,0.0016078999997262144,None,,90.44917480000004,90.44917480000004,90.44917480000004,90.44917480000004,90.44917480000004,90.44917480000004,90.44917480000004,90.44917480000004,90.44917480000004,90.44917480000004,001,P002,2025_Jan_18_0916,ConditionRich,2021.2.3,59.93863482558472,
38.75,39.0,41,0.0,Stimuli/Blank.png,0,0,0.0,0,70,70,70,,,,,,,,,,,,,38.767166899999665,0.017166899999665475,None,,91.2165455000004,91.2165455000004,91.2165455000004,91.2165455000004,91.2165455000004,91.2165455000004,91.2165455000004,91.2165455000004,91.2165455000004,91.2165455000004,001,P002,2025_Jan_18_0916,ConditionRich,2021.2.3,59.93863482558472,
39.0,39.75,32,0.75,Stimuli/P002/things_oyster_01b.jpg,0,0,0.0,0,71,71,71,,,,,,,,,,,,,39.017486299999746,0.017486299999745825,None,,91.46676090000028,91.46676090000028,91.46676090000028,91.46676090000028,91.46676090000028,91.46676090000028,91.46676090000028,91.46676090000028,91.46676090000028,91.46676090000028,001,P002,2025_Jan_18_0916,ConditionRich,2021.2.3,59.93863482558472,
39.75,40.0,41,0.0,Stimuli/Blank.png,0,0,0.0,0,72,72,72,,,,,,,,,,,,,39.76792290000003,0.017922900000030495,None,,92.20071750000034,92.20071750000034,92.20071750000034,92.20071750000034,92.20071750000034,92.20071750000034,92.20071750000034,92.20071750000034,92.20071750000034,92.20071750000034,001,P002,2025_Jan_18_0916,ConditionRich,2021.2.3,59.93863482558472,
40.0,40.75,26,0.75,Stimuli/P002/things_dish_01b.jpg,0,0,0.0,0,73,73,73,,,,,,,,,,,,,40.00219059999972,0.0021905999997215986,None,,92.45095050000009,92.45095050000009,92.45095050000009,92.45095050000009,92.45095050000009,92.45095050000009,92.45095050000009,92.45095050000009,92.45095050000009,92.45095050000009,001,P002,2025_Jan_18_0916,ConditionRich,2021.2.3,59.93863482558472,
40.75,41.0,41,0.0,Stimuli/Blank.png,0,0,0.0,0,74,74,74,,,,,,,,,,,,,40.76868650000006,0.018686500000058004,None,,93.20168360000025,93.20168360000025,93.20168360000025,93.20168360000025,93.20168360000025,93.20168360000025,93.20168360000025,93.20168360000025,93.20168360000025,93.20168360000025,001,P002,2025_Jan_18_0916,ConditionRich,2021.2.3,59.93863482558472,
41.0,41.75,26,0.75,Stimuli/P002/things_dish_01b.jpg,0,0,0.0,0,75,75,75,,,,,,,,,,,,,41.002514699999665,0.0025146999996650266,None,,93.45183940000015,93.45183940000015,93.45183940000015,93.45183940000015,93.45183940000015,93.45183940000015,93.45183940000015,93.45183940000015,93.45183940000015,93.45183940000015,001,P002,2025_Jan_18_0916,ConditionRich,2021.2.3,59.93863482558472,
41.75,42.0,41,0.0,Stimuli/Blank.png,0,0,0.0,0,76,76,76,,,,,,,,,,,,,41.76958579999973,0.019585799999731535,None,,94.20249430000013,94.20249430000013,94.20249430000013,94.20249430000013,94.20249430000013,94.20249430000013,94.20249430000013,94.20249430000013,94.20249430000013,94.20249430000013,001,P002,2025_Jan_18_0916,ConditionRich,2021.2.3,59.93863482558472,
42.0,42.75,26,0.75,Stimuli/P002/things_dish_01b.jpg,0,0,0.0,0,77,77,77,,,,,,,,,,,,,42.00328259999969,0.0032825999996930477,None,,94.4360244000004,94.4360244000004,94.4360244000004,94.4360244000004,94.4360244000004,94.4360244000004,94.4360244000004,94.4360244000004,94.4360244000004,94.4360244000004,001,P002,2025_Jan_18_0916,ConditionRich,2021.2.3,59.93863482558472,
42.75,43.0,41,0.0,Stimuli/Blank.png,0,0,0.0,0,78,78,78,,,,,,,,,,,,,42.754061999999976,0.004061999999976251,None,,95.1866841000001,95.1866841000001,95.1866841000001,95.1866841000001,95.1866841000001,95.1866841000001,95.1866841000001,95.1866841000001,95.1866841000001,95.1866841000001,001,P002,2025_Jan_18_0916,ConditionRich,2021.2.3,59.93863482558472,
43.0,43.75,26,0.75,Stimuli/P002/things_dish_01b.jpg,1,0,0.75,0,79,79,79,,,,,,,,,,,,,43.003287,0.003287000000000262,1,0.5255010000000766,95.43690670000024,95.43690670000024,95.43690670000024,95.43690670000024,95.43690670000024,95.43690670000024,95.43690670000024,96.17087290000018,95.43690670000024,95.43690670000024,001,P002,2025_Jan_18_0916,ConditionRich,2021.2.3,59.93863482558472,
43.75,44.0,41,0.0,Stimuli/Blank.png,0,0,0.0,0,80,80,80,,,,,,,,,,,,,43.75431839999965,0.004318399999647227,None,,96.18756190000022,96.18756190000022,96.18756190000022,96.18756190000022,96.18756190000022,96.18756190000022,96.18756190000022,96.18756190000022,96.18756190000022,96.18756190000022,001,P002,2025_Jan_18_0916,ConditionRich,2021.2.3,59.93863482558472,
44.0,44.75,1,0.75,Stimuli/P002/sun_agpgdwkhzgvzdaea.jpg,0,0,0.0,0,81,81,81,,,,,,,,,,,,,44.00513289999981,0.005132899999807705,None,,96.45446670000001,96.45446670000001,96.45446670000001,96.45446670000001,96.45446670000001,96.45446670000001,96.45446670000001,96.45446670000001,96.45446670000001,96.45446670000001,001,P002,2025_Jan_18_0916,ConditionRich,2021.2.3,59.93863482558472,
44.75,45.0,41,0.0,Stimuli/Blank.png,0,0,0.0,0,82,82,82,,,,,,,,,,,,,44.77214969999977,0.022149699999772565,None,,97.20513180000034,97.20513180000034,97.20513180000034,97.20513180000034,97.20513180000034,97.20513180000034,97.20513180000034,97.20513180000034,97.20513180000034,97.20513180000034,001,P002,2025_Jan_18_0916,ConditionRich,2021.2.3,59.93863482558472,
45.0,45.75,1,0.75,Stimuli/P002/sun_agpgdwkhzgvzdaea.jpg,0,0,0.0,0,83,83,83,,,,,,,,,,,,,45.0079295999999,0.007929599999897619,None,,97.45535120000022,97.45535120000022,97.45535120000022,97.45535120000022,97.45535120000022,97.45535120000022,97.45535120000022,97.45535120000022,97.45535120000022,97.45535120000022,001,P002,2025_Jan_18_0916,ConditionRich,2021.2.3,59.93863482558472,
45.75,46.0,41,0.0,Stimuli/Blank.png,0,0,0.0,0,84,84,84,,,,,,,,,,,,,45.77310999999963,0.023109999999633146,None,,98.2060078000004,98.2060078000004,98.2060078000004,98.2060078000004,98.2060078000004,98.2060078000004,98.2060078000004,98.2060078000004,98.2060078000004,98.2060078000004,001,P002,2025_Jan_18_0916,ConditionRich,2021.2.3,59.93863482558472,
46.0,46.75,1,0.75,Stimuli/P002/sun_agpgdwkhzgvzdaea.jpg,0,0,0.0,0,85,85,85,,,,,,,,,,,,,46.006425000000036,0.006425000000035652,None,,98.43956810000009,98.43956810000009,98.43956810000009,98.43956810000009,98.43956810000009,98.43956810000009,98.43956810000009,98.43956810000009,98.43956810000009,98.43956810000009,001,P002,2025_Jan_18_0916,ConditionRich,2021.2.3,59.93863482558472,
46.75,47.0,41,0.0,Stimuli/Blank.png,0,0,0.0,0,86,86,86,,,,,,,,,,,,,46.757245599999806,0.007245599999805563,None,,99.19020090000004,99.19020090000004,99.19020090000004,99.19020090000004,99.19020090000004,99.19020090000004,99.19020090000004,99.19020090000004,99.19020090000004,99.19020090000004,001,P002,2025_Jan_18_0916,ConditionRich,2021.2.3,59.93863482558472,
47.0,47.75,1,0.75,Stimuli/P002/sun_agpgdwkhzgvzdaea.jpg,0,0,0.0,0,87,87,87,,,,,,,,,,,,,47.008112099999835,0.008112099999834754,None,,99.4571232000003,99.4571232000003,99.4571232000003,99.4571232000003,99.4571232000003,99.4571232000003,99.4571232000003,99.4571232000003,99.4571232000003,99.4571232000003,001,P002,2025_Jan_18_0916,ConditionRich,2021.2.3,59.93863482558472,
47.75,48.0,41,0.0,Stimuli/Blank.png,0,0,0.0,0,88,88,88,,,,,,,,,,,,,47.77431200000001,0.024312000000008993,None,,100.20776990000013,100.20776990000013,100.20776990000013,100.20776990000013,100.20776990000013,100.20776990000013,100.20776990000013,100.20776990000013,100.20776990000013,100.20776990000013,001,P002,2025_Jan_18_0916,ConditionRich,2021.2.3,59.93863482558472,
48.0,48.75,29,0.75,Stimuli/P002/things_grinder_01b.jpg,1,0,0.75,0,89,89,89,,,,,,,,,,,,,48.00768870000002,0.007688700000016979,1,0.4501982999995562,100.45800440000039,100.45800440000039,100.45800440000039,100.45800440000039,100.45800440000039,100.45800440000039,100.45800440000039,101.19200190000038,100.45800440000039,100.45800440000039,001,P002,2025_Jan_18_0916,ConditionRich,2021.2.3,59.93863482558472,
48.75,49.0,41,0.0,Stimuli/Blank.png,0,0,0.0,0,90,90,90,,,,,,,,,,,,,48.77811789999987,0.028117899999870133,None,,101.22533170000042,101.22533170000042,101.22533170000042,101.22533170000042,101.22533170000042,101.22533170000042,101.22533170000042,101.22533170000042,101.22533170000042,101.22533170000042,001,P002,2025_Jan_18_0916,ConditionRich,2021.2.3,59.93863482558472,
49.0,49.75,29,0.75,Stimuli/P002/things_grinder_01b.jpg,0,0,0.0,0,91,91,91,,,,,,,,,,,,,49.02531789999966,0.025317899999663496,None,,101.45886420000033,101.45886420000033,101.45886420000033,101.45886420000033,101.45886420000033,101.45886420000033,101.45886420000033,101.45886420000033,101.45886420000033,101.45886420000033,001,P002,2025_Jan_18_0916,ConditionRich,2021.2.3,59.93863482558472,
49.75,50.0,41,0.0,Stimuli/Blank.png,0,0,0.0,0,92,92,92,,,,,,,,,,,,,49.761799099999735,0.011799099999734608,5,0.20260929999994914,102.20951580000019,102.20951580000019,102.20951580000019,102.20951580000019,102.20951580000019,102.20951580000019,102.20951580000019,102.20951580000019,102.20951580000019,102.20951580000019,001,P002,2025_Jan_18_0916,ConditionRich,2021.2.3,59.93863482558472,
50.0,50.75,29,0.75,Stimuli/P002/things_grinder_01b.jpg,0,0,0.0,0,93,93,93,,,,,,,,,,,,,50.026140499999656,0.02614049999965573,None,,102.45974650000016,102.45974650000016,102.45974650000016,102.45974650000016,102.45974650000016,102.45974650000016,102.45974650000016,102.45974650000016,102.45974650000016,102.45974650000016,001,P002,2025_Jan_18_0916,ConditionRich,2021.2.3,59.93863482558472,
50.75,51.0,41,0.0,Stimuli/Blank.png,0,0,0.0,0,94,94,94,,,,,,,,,,,,,50.76206460000003,0.012064600000030623,None,,103.21041390000028,103.21041390000028,103.21041390000028,103.21041390000028,103.21041390000028,103.21041390000028,103.21041390000028,103.21041390000028,103.21041390000028,103.21041390000028,001,P002,2025_Jan_18_0916,ConditionRich,2021.2.3,59.93863482558472,
51.0,51.75,29,0.75,Stimuli/P002/things_grinder_01b.jpg,0,0,0.0,0,95,95,95,,,,,,,,,,,,,51.02737369999977,0.027373699999770906,None,,103.46062700000039,103.46062700000039,103.46062700000039,103.46062700000039,103.46062700000039,103.46062700000039,103.46062700000039,103.46062700000039,103.46062700000039,103.46062700000039,001,P002,2025_Jan_18_0916,ConditionRich,2021.2.3,59.93863482558472,
51.75,52.0,41,0.0,Stimuli/Blank.png,0,0,0.0,0,96,96,96,,,,,,,,,,,,,51.76142089999985,0.011420899999848189,5,0.21757449999995515,104.19460630000003,104.19460630000003,104.19460630000003,104.19460630000003,104.19460630000003,104.19460630000003,104.19460630000003,104.19460630000003,104.19460630000003,104.19460630000003,001,P002,2025_Jan_18_0916,ConditionRich,2021.2.3,59.93863482558472,
52.0,52.75,19,0.75,Stimuli/P002/sun_bzyyqqczvrnvukdn.jpg,0,0,0.0,0,97,97,97,,,,,,,,,,,,,52.01173639999979,0.011736399999790592,None,,104.46153410000034,104.46153410000034,104.46153410000034,104.46153410000034,104.46153410000034,104.46153410000034,104.46153410000034,104.46153410000034,104.46153410000034,104.46153410000034,001,P002,2025_Jan_18_0916,ConditionRich,2021.2.3,59.93863482558472,
52.75,53.0,41,0.0,Stimuli/Blank.png,0,0,0.0,0,98,98,98,,,,,,,,,,,,,52.77929069999982,0.02929069999981948,None,,105.21216660000027,105.21216660000027,105.21216660000027,105.21216660000027,105.21216660000027,105.21216660000027,105.21216660000027,105.21216660000027,105.21216660000027,105.21216660000027,001,P002,2025_Jan_18_0916,ConditionRich,2021.2.3,59.93863482558472,
53.0,53.75,19,0.75,Stimuli/P002/sun_bzyyqqczvrnvukdn.jpg,0,0,0.0,0,99,99,99,,,,,,,,,,,,,53.01277849999997,0.012778499999967607,None,,105.44575080000004,105.44575080000004,105.44575080000004,105.44575080000004,105.44575080000004,105.44575080000004,105.44575080000004,105.44575080000004,105.44575080000004,105.44575080000004,001,P002,2025_Jan_18_0916,ConditionRich,2021.2.3,59.93863482558472,
53.75,54.0,41,0.0,Stimuli/Blank.png,0,0,0.0,0,100,100,100,,,,,,,,,,,,,53.76362149999977,0.013621499999771913,5,0.21584989999973914,106.19636820000005,106.19636820000005,106.19636820000005,106.19636820000005,106.19636820000005,106.19636820000005,106.19636820000005,106.19636820000005,106.19636820000005,106.19636820000005,001,P002,2025_Jan_18_0916,ConditionRich,2021.2.3,59.93863482558472,
54.0,54.75,19,0.75,Stimuli/P002/sun_bzyyqqczvrnvukdn.jpg,0,0,0.0,0,101,101,101,,,,,,,,,,,,,54.013795299999856,0.01379529999985607,None,,106.44658830000026,106.44658830000026,106.44658830000026,106.44658830000026,106.44658830000026,106.44658830000026,106.44658830000026,106.44658830000026,106.44658830000026,106.44658830000026,001,P002,2025_Jan_18_0916,ConditionRich,2021.2.3,59.93863482558472,
54.75,55.0,41,0.0,Stimuli/Blank.png,0,0,0.0,0,102,102,102,,,,,,,,,,,,,54.76438929999995,0.01438929999994798,None,,107.19724489999999,107.19724489999999,107.19724489999999,107.19724489999999,107.19724489999999,107.19724489999999,107.19724489999999,107.19724489999999,107.19724489999999,107.19724489999999,001,P002,2025_Jan_18_0916,ConditionRich,2021.2.3,59.93863482558472,
55.0,55.75,19,0.75,Stimuli/P002/sun_bzyyqqczvrnvukdn.jpg,0,0,0.0,0,103,103,103,,,,,,,,,,,,,55.01440169999978,0.014401699999780249,None,,107.44746600000008,107.44746600000008,107.44746600000008,107.44746600000008,107.44746600000008,107.44746600000008,107.44746600000008,107.44746600000008,107.44746600000008,107.44746600000008,001,P002,2025_Jan_18_0916,ConditionRich,2021.2.3,59.93863482558472,
55.75,56.0,41,0.0,Stimuli/Blank.png,0,0,0.0,0,104,104,104,,,,,,,,,,,,,55.7653851,0.015385100000003149,5,0.21399390000033236,108.19813280000017,108.19813280000017,108.19813280000017,108.19813280000017,108.19813280000017,108.19813280000017,108.19813280000017,108.19813280000017,108.19813280000017,108.19813280000017,001,P002,2025_Jan_18_0916,ConditionRich,2021.2.3,59.93863482558472,
56.0,56.75,30,0.75,Stimuli/P002/things_iguana_01b.jpg,0,0,0.0,0,105,105,105,,,,,,,,,,,,,56.0147036999997,0.014703699999699893,None,,108.46502690000034,108.46502690000034,108.46502690000034,108.46502690000034,108.46502690000034,108.46502690000034,108.46502690000034,108.46502690000034,108.46502690000034,108.46502690000034,001,P002,2025_Jan_18_0916,ConditionRich,2021.2.3,59.93863482558472,
56.75,57.0,41,0.0,Stimuli/Blank.png,0,0,0.0,0,106,106,106,,,,,,,,,,,,,56.782444399999804,0.03244439999980386,None,,109.21570500000007,109.21570500000007,109.21570500000007,109.21570500000007,109.21570500000007,109.21570500000007,109.21570500000007,109.21570500000007,109.21570500000007,109.21570500000007,001,P002,2025_Jan_18_0916,ConditionRich,2021.2.3,59.93863482558472,
57.0,57.75,30,0.75,Stimuli/P002/things_iguana_01b.jpg,0,0,0.0,0,107,107,107,,,,,,,,,,,,,57.00001109999994,1.1099999937869143e-05,None,,109.44923200000039,109.44923200000039,109.44923200000039,109.44923200000039,109.44923200000039,109.44923200000039,109.44923200000039,109.44923200000039,109.44923200000039,109.44923200000039,001,P002,2025_Jan_18_0916,ConditionRich,2021.2.3,59.93863482558472,
57.75,58.0,41,0.0,Stimuli/Blank.png,0,0,0.0,0,108,108,108,,,,,,,,,,,,,57.76652009999998,0.01652009999997972,None,,110.19989400000031,110.19989400000031,110.19989400000031,110.19989400000031,110.19989400000031,110.19989400000031,110.19989400000031,110.19989400000031,110.19989400000031,110.19989400000031,001,P002,2025_Jan_18_0916,ConditionRich,2021.2.3,59.93863482558472,
58.0,58.75,30,0.75,Stimuli/P002/things_iguana_01b.jpg,0,0,0.0,0,109,109,109,,,,,,,,,,,,,58.002826099999766,0.0028260999997655745,None,,110.45010790000015,110.45010790000015,110.45010790000015,110.45010790000015,110.45010790000015,110.45010790000015,110.45010790000015,110.45010790000015,110.45010790000015,110.45010790000015,001,P002,2025_Jan_18_0916,ConditionRich,2021.2.3,59.93863482558472,
58.75,59.0,41,0.0,Stimuli/Blank.png,0,0,0.0,0,110,110,110,,,,,,,,,,,,,58.76772970000002,0.017729700000018056,None,,111.20077130000027,111.20077130000027,111.20077130000027,111.20077130000027,111.20077130000027,111.20077130000027,111.20077130000027,111.20077130000027,111.20077130000027,111.20077130000027,001,P002,2025_Jan_18_0916,ConditionRich,2021.2.3,59.93863482558472,
59.0,59.75,30,0.75,Stimuli/P002/things_iguana_01b.jpg,0,0,0.0,0,111,111,111,,,,,,,,,,,,,59.0015527999999,0.0015527999998994346,None,,111.43431480000027,111.43431480000027,111.43431480000027,111.43431480000027,111.43431480000027,111.43431480000027,111.43431480000027,111.43431480000027,111.43431480000027,111.43431480000027,001,P002,2025_Jan_18_0916,ConditionRich,2021.2.3,59.93863482558472,
59.75,60.0,41,0.0,Stimuli/Blank.png,0,0,0.0,0,112,112,112,,,,,,,,,,,,,59.75255049999987,0.002550499999870226,None,,112.18497880000041,112.18497880000041,112.18497880000041,112.18497880000041,112.18497880000041,112.18497880000041,112.18497880000041,112.18497880000041,112.18497880000041,112.18497880000041,001,P002,2025_Jan_18_0916,ConditionRich,2021.2.3,59.93863482558472,
60.0,60.75,13,0.75,Stimuli/P002/sun_bfdmlbkyioxnkodb.jpg,0,0,0.0,0,113,113,113,,,,,,,,,,,,,60.00233509999998,0.0023350999999820488,None,,112.45184450000033,112.45184450000033,112.45184450000033,112.45184450000033,112.45184450000033,112.45184450000033,112.45184450000033,112.45184450000033,112.45184450000033,112.45184450000033,001,P002,2025_Jan_18_0916,ConditionRich,2021.2.3,59.93863482558472,
60.75,61.0,41,0.0,Stimuli/Blank.png,0,0,0.0,0,114,114,114,,,,,,,,,,,,,60.77145329999985,0.02145329999984824,None,,113.21922820000009,113.21922820000009,113.21922820000009,113.21922820000009,113.21922820000009,113.21922820000009,113.21922820000009,113.21922820000009,113.21922820000009,113.21922820000009,001,P002,2025_Jan_18_0916,ConditionRich,2021.2.3,59.93863482558472,
61.0,61.75,13,0.75,Stimuli/P002/sun_bfdmlbkyioxnkodb.jpg,0,0,0.0,0,115,115,115,,,,,,,,,,,,,61.02176059999965,0.021760599999652186,None,,113.46943470000042,113.46943470000042,113.46943470000042,113.46943470000042,113.46943470000042,113.46943470000042,113.46943470000042,113.46943470000042,113.46943470000042,113.46943470000042,001,P002,2025_Jan_18_0916,ConditionRich,2021.2.3,59.93863482558472,
61.75,62.0,41,0.0,Stimuli/Blank.png,0,0,0.0,0,116,116,116,,,,,,,,,,,,,61.77275429999963,0.022754299999633076,5,0.19193630000017947,114.22012800000039,114.22012800000039,114.22012800000039,114.22012800000039,114.22012800000039,114.22012800000039,114.22012800000039,114.22012800000039,114.22012800000039,114.22012800000039,001,P002,2025_Jan_18_0916,ConditionRich,2021.2.3,59.93863482558472,
62.0,62.75,13,0.75,Stimuli/P002/sun_bfdmlbkyioxnkodb.jpg,0,0,0.0,0,117,117,117,,,,,,,,,,,,,62.02019259999997,0.020192599999973027,None,,114.47032190000027,114.47032190000027,114.47032190000027,114.47032190000027,114.47032190000027,114.47032190000027,114.47032190000027,114.47032190000027,114.47032190000027,114.47032190000027,001,P002,2025_Jan_18_0916,ConditionRich,2021.2.3,59.93863482558472,
62.75,63.0,41,0.0,Stimuli/Blank.png,0,0,0.0,0,118,118,118,,,,,,,,,,,,,62.77145989999963,0.02145989999962694,None,,115.2042993,115.2042993,115.2042993,115.2042993,115.2042993,115.2042993,115.2042993,115.2042993,115.2042993,115.2042993,001,P002,2025_Jan_18_0916,ConditionRich,2021.2.3,59.93863482558472,
63.0,63.75,13,0.75,Stimuli/P002/sun_bfdmlbkyioxnkodb.jpg,0,0,0.0,0,119,119,119,,,,,,,,,,,,,63.00425459999997,0.004254599999967468,None,,115.43782920000012,115.43782920000012,115.43782920000012,115.43782920000012,115.43782920000012,115.43782920000012,115.43782920000012,115.43782920000012,115.43782920000012,115.43782920000012,001,P002,2025_Jan_18_0916,ConditionRich,2021.2.3,59.93863482558472,
63.75,64.0,41,0.0,Stimuli/Blank.png,0,0,0.0,0,120,120,120,,,,,,,,,,,,,63.75524339999993,0.005243399999926623,None,,116.18849630000022,116.18849630000022,116.18849630000022,116.18849630000022,116.18849630000022,116.18849630000022,116.18849630000022,116.18849630000022,116.18849630000022,116.18849630000022,001,P002,2025_Jan_18_0916,ConditionRich,2021.2.3,59.93863482558472,
64.0,64.75,4,0.75,Stimuli/P002/sun_aonjwqswdblhlpkm.jpg,0,0,0.0,0,121,121,121,,,,,,,,,,,,,64.00557899999967,0.005578999999670486,None,,116.43871360000003,116.43871360000003,116.43871360000003,116.43871360000003,116.43871360000003,116.43871360000003,116.43871360000003,116.43871360000003,116.43871360000003,116.43871360000003,001,P002,2025_Jan_18_0916,ConditionRich,2021.2.3,59.93863482558472,
64.75,65.0,41,0.0,Stimuli/Blank.png,0,0,0.0,0,122,122,122,,,,,,,,,,,,,64.75721559999965,0.007215599999653932,None,,117.18938330000037,117.18938330000037,117.18938330000037,117.18938330000037,117.18938330000037,117.18938330000037,117.18938330000037,117.18938330000037,117.18938330000037,117.18938330000037,001,P002,2025_Jan_18_0916,ConditionRich,2021.2.3,59.93863482558472,
65.0,65.75,4,0.75,Stimuli/P002/sun_aonjwqswdblhlpkm.jpg,0,0,0.0,0,123,123,123,,,,,,,,,,,,,65.00651609999977,0.006516099999771541,None,,117.43959620000032,117.43959620000032,117.43959620000032,117.43959620000032,117.43959620000032,117.43959620000032,117.43959620000032,117.43959620000032,117.43959620000032,117.43959620000032,001,P002,2025_Jan_18_0916,ConditionRich,2021.2.3,59.93863482558472,
65.75,66.0,41,0.0,Stimuli/Blank.png,0,0,0.0,0,124,124,124,,,,,,,,,,,,,65.75818170000002,0.008181700000022829,5,0.20538649999980407,118.20695450000039,118.20695450000039,118.20695450000039,118.20695450000039,118.20695450000039,118.20695450000039,118.20695450000039,118.20695450000039,118.20695450000039,118.20695450000039,001,P002,2025_Jan_18_0916,ConditionRich,2021.2.3,59.93863482558472,
66.0,66.75,4,0.75,Stimuli/P002/sun_aonjwqswdblhlpkm.jpg,0,0,0.0,0,125,125,125,,,,,,,,,,,,,66.02396379999982,0.023963799999819457,None,,118.45715800000016,118.45715800000016,118.45715800000016,118.45715800000016,118.45715800000016,118.45715800000016,118.45715800000016,118.45715800000016,118.45715800000016,118.45715800000016,001,P002,2025_Jan_18_0916,ConditionRich,2021.2.3,59.93863482558472,
66.75,67.0,41,0.0,Stimuli/Blank.png,0,0,0.0,0,126,126,126,,,,,,,,,,,,,66.75804119999975,0.00804119999975228,None,,119.19113230000039,119.19113230000039,119.19113230000039,119.19113230000039,119.19113230000039,119.19113230000039,119.19113230000039,119.19113230000039,119.19113230000039,119.19113230000039,001,P002,2025_Jan_18_0916,ConditionRich,2021.2.3,59.93863482558472,
67.0,67.75,4,0.75,Stimuli/P002/sun_aonjwqswdblhlpkm.jpg,0,0,0.0,0,127,127,127,,,,,,,,,,,,,67.00826509999979,0.008265099999789527,None,,119.44135080000024,119.44135080000024,119.44135080000024,119.44135080000024,119.44135080000024,119.44135080000024,119.44135080000024,119.44135080000024,119.44135080000024,119.44135080000024,001,P002,2025_Jan_18_0916,ConditionRich,2021.2.3,59.93863482558472,
67.75,68.0,41,0.0,Stimuli/Blank.png,0,0,0.0,0,128,128,128,,,,,,,,,,,,,67.75912119999975,0.009121199999754026,None,,120.1920140000002,120.1920140000002,120.1920140000002,120.1920140000002,120.1920140000002,120.1920140000002,120.1920140000002,120.1920140000002,120.1920140000002,120.1920140000002,001,P002,2025_Jan_18_0916,ConditionRich,2021.2.3,59.93863482558472,
68.0,68.75,21,0.75,Stimuli/P002/things_baby_01b.jpg,0,0,0.0,0,129,129,129,,,,,,,,,,,,,68.00935089999984,0.009350899999844842,None,,120.45891100000017,120.45891100000017,120.45891100000017,120.45891100000017,120.45891100000017,120.45891100000017,120.45891100000017,120.45891100000017,120.45891100000017,120.45891100000017,001,P002,2025_Jan_18_0916,ConditionRich,2021.2.3,59.93863482558472,
68.75,69.0,41,0.0,Stimuli/Blank.png,0,0,0.0,0,130,130,130,,,,,,,,,,,,,68.7774016999997,0.027401699999700213,None,,121.20958350000001,121.20958350000001,121.20958350000001,121.20958350000001,121.20958350000001,121.20958350000001,121.20958350000001,121.20958350000001,121.20958350000001,121.20958350000001,001,P002,2025_Jan_18_0916,ConditionRich,2021.2.3,59.93863482558472,
69.0,69.75,21,0.75,Stimuli/P002/things_baby_01b.jpg,1,0,0.75,0,131,131,131,,,,,,,,,,,,,69.0102079999997,0.01020799999969313,1,0.6244012999995903,121.4598046000001,121.4598046000001,121.4598046000001,121.4598046000001,121.4598046000001,121.4598046000001,121.4598046000001,122.17708500000026,121.4598046000001,121.4598046000001,001,P002,2025_Jan_18_0916,ConditionRich,2021.2.3,59.93863482558472,
69.75,70.0,41,0.0,Stimuli/Blank.png,0,0,0.0,0,132,132,132,,,,,,,,,,,,,69.77718890000006,0.027188900000055582,5,0.20171019999997952,122.21045130000039,122.21045130000039,122.21045130000039,122.21045130000039,122.21045130000039,122.21045130000039,122.21045130000039,122.21045130000039,122.21045130000039,122.21045130000039,001,P002,2025_Jan_18_0916,ConditionRich,2021.2.3,59.93863482558472,
70.0,70.75,21,0.75,Stimuli/P002/things_baby_01b.jpg,0,0,0.0,0,133,133,133,,,,,,,,,,,,,70.0102896999997,0.010289699999702862,None,,122.44399229999999,122.44399229999999,122.44399229999999,122.44399229999999,122.44399229999999,122.44399229999999,122.44399229999999,122.44399229999999,122.44399229999999,122.44399229999999,001,P002,2025_Jan_18_0916,ConditionRich,2021.2.3,59.93863482558472,
70.75,71.0,41,0.0,Stimuli/Blank.png,0,0,0.0,0,134,134,134,,,,,,,,,,,,,70.76146979999976,0.011469799999758834,None,,123.19465260000015,123.19465260000015,123.19465260000015,123.19465260000015,123.19465260000015,123.19465260000015,123.19465260000015,123.19465260000015,123.19465260000015,123.19465260000015,001,P002,2025_Jan_18_0916,ConditionRich,2021.2.3,59.93863482558472,
71.0,71.75,21,0.75,Stimuli/P002/things_baby_01b.jpg,0,0,0.0,0,135,135,135,,,,,,,,,,,,,71.01223039999968,0.01223039999968023,None,,123.44487610000033,123.44487610000033,123.44487610000033,123.44487610000033,123.44487610000033,123.44487610000033,123.44487610000033,123.44487610000033,123.44487610000033,123.44487610000033,001,P002,2025_Jan_18_0916,ConditionRich,2021.2.3,59.93863482558472,
71.75,72.0,41,0.0,Stimuli/Blank.png,0,0,0.0,0,136,136,136,,,,,,,,,,,,,71.76277489999984,0.012774899999840272,5,0.2166362999996636,124.19553850000011,124.19553850000011,124.19553850000011,124.19553850000011,124.19553850000011,124.19553850000011,124.19553850000011,124.19553850000011,124.19553850000011,124.19553850000011,001,P002,2025_Jan_18_0916,ConditionRich,2021.2.3,59.93863482558472,
72.0,72.75,17,0.75,Stimuli/P002/sun_bshgmgbmpvjkxfis.jpg,0,0,0.0,0,137,137,137,,,,,,,,,,,,,72.0127524999998,0.012752499999805877,None,,124.46249100000023,124.46249100000023,124.46249100000023,124.46249100000023,124.46249100000023,124.46249100000023,124.46249100000023,124.46249100000023,124.46249100000023,124.46249100000023,001,P002,2025_Jan_18_0916,ConditionRich,2021.2.3,59.93863482558472,
72.75,73.0,41,0.0,Stimuli/Blank.png,0,0,0.0,0,138,138,138,,,,,,,,,,,,,72.78014219999977,0.030142199999772856,None,,125.21314940000002,125.21314940000002,125.21314940000002,125.21314940000002,125.21314940000002,125.21314940000002,125.21314940000002,125.21314940000002,125.21314940000002,125.21314940000002,001,P002,2025_Jan_18_0916,ConditionRich,2021.2.3,59.93863482558472,
73.0,73.75,17,0.75,Stimuli/P002/sun_bshgmgbmpvjkxfis.jpg,0,0,0.0,0,139,139,139,,,,,,,,,,,,,73.01353479999989,0.013534799999888492,None,,125.44663300000002,125.44663300000002,125.44663300000002,125.44663300000002,125.44663300000002,125.44663300000002,125.44663300000002,125.44663300000002,125.44663300000002,125.44663300000002,001,P002,2025_Jan_18_0916,ConditionRich,2021.2.3,59.93863482558472,
73.75,74.0,41,0.0,Stimuli/Blank.png,0,0,0.0,0,140,140,140,,,,,,,,,,,,,73.76521119999961,0.01521119999961229,5,0.21462990000009086,126.19732730000032,126.19732730000032,126.19732730000032,126.19732730000032,126.19732730000032,126.19732730000032,126.19732730000032,126.19732730000032,126.19732730000032,126.19732730000032,001,P002,2025_Jan_18_0916,ConditionRich,2021.2.3,59.93863482558472,
74.0,74.75,17,0.75,Stimuli/P002/sun_bshgmgbmpvjkxfis.jpg,1,0,0.75,0,141,141,141,,,,,,,,,,,,,74.01480949999996,0.014809499999955733,1,0.5564853999999286,126.44752010000002,126.44752010000002,126.44752010000002,126.44752010000002,126.44752010000002,126.44752010000002,126.44752010000002,127.18164210000032,126.44752010000002,126.44752010000002,001,P002,2025_Jan_18_0916,ConditionRich,2021.2.3,59.93863482558472,
74.75,75.0,41,0.0,Stimuli/Blank.png,0,0,0.0,0,142,142,142,,,,,,,,,,,,,74.76490719999993,0.01490719999992507,None,,127.1981493000003,127.1981493000003,127.1981493000003,127.1981493000003,127.1981493000003,127.1981493000003,127.1981493000003,127.1981493000003,127.1981493000003,127.1981493000003,001,P002,2025_Jan_18_0916,ConditionRich,2021.2.3,59.93863482558472,
75.0,75.75,17,0.75,Stimuli/P002/sun_bshgmgbmpvjkxfis.jpg,0,0,0.0,0,143,143,143,,,,,,,,,,,,,75.01518050000004,0.01518050000004223,None,,127.4483978000003,127.4483978000003,127.4483978000003,127.4483978000003,127.4483978000003,127.4483978000003,127.4483978000003,127.4483978000003,127.4483978000003,127.4483978000003,001,P002,2025_Jan_18_0916,ConditionRich,2021.2.3,59.93863482558472,
75.75,76.0,41,0.0,Stimuli/Blank.png,0,0,0.0,0,144,144,144,,,,,,,,,,,,,75.74920159999965,-0.00079840000034892,None,,128.1823827000003,128.1823827000003,128.1823827000003,128.1823827000003,128.1823827000003,128.1823827000003,128.1823827000003,128.1823827000003,128.1823827000003,128.1823827000003,001,P002,2025_Jan_18_0916,ConditionRich,2021.2.3,59.93863482558472,
76.0,76.75,15,0.75,Stimuli/P002/sun_bfzoxbkvsfqxsyle.jpg,0,0,0.0,0,145,145,145,,,,,,,,,,,,,76.0016741999998,0.0016741999997975654,None,,128.44931670000005,128.44931670000005,128.44931670000005,128.44931670000005,128.44931670000005,128.44931670000005,128.44931670000005,128.44931670000005,128.44931670000005,128.44931670000005,001,P002,2025_Jan_18_0916,ConditionRich,2021.2.3,59.93863482558472,
76.75,77.0,41,0.0,Stimuli/Blank.png,0,0,0.0,0,146,146,146,,,,,,,,,,,,,76.76755430000003,0.01755430000002889,None,,129.19994210000004,129.19994210000004,129.19994210000004,129.19994210000004,129.19994210000004,129.19994210000004,129.19994210000004,129.19994210000004,129.19994210000004,129.19994210000004,001,P002,2025_Jan_18_0916,ConditionRich,2021.2.3,59.93863482558472,
77.0,77.75,15,0.75,Stimuli/P002/sun_bfzoxbkvsfqxsyle.jpg,0,0,0.0,0,147,147,147,,,,,,,,,,,,,77.0009299999997,0.0009299999996983388,None,,129.4334831000001,129.4334831000001,129.4334831000001,129.4334831000001,129.4334831000001,129.4334831000001,129.4334831000001,129.4334831000001,129.4334831000001,129.4334831000001,001,P002,2025_Jan_18_0916,ConditionRich,2021.2.3,59.93863482558472,
77.75,78.0,41,0.0,Stimuli/Blank.png,0,0,0.0,0,148,148,148,,,,,,,,,,,,,77.75107029999981,0.0010702999998102314,None,,130.1841897000004,130.1841897000004,130.1841897000004,130.1841897000004,130.1841897000004,130.1841897000004,130.1841897000004,130.1841897000004,130.1841897000004,130.1841897000004,001,P002,2025_Jan_18_0916,ConditionRich,2021.2.3,59.93863482558472,
78.0,78.75,15,0.75,Stimuli/P002/sun_bfzoxbkvsfqxsyle.jpg,0,0,0.0,0,149,149,149,,,,,,,,,,,,,78.00197469999966,0.0019746999996641534,None,,130.43436510000038,130.43436510000038,130.43436510000038,130.43436510000038,130.43436510000038,130.43436510000038,130.43436510000038,130.43436510000038,130.43436510000038,130.43436510000038,001,P002,2025_Jan_18_0916,ConditionRich,2021.2.3,59.93863482558472,
78.75,79.0,41,0.0,Stimuli/Blank.png,0,0,0.0,0,150,150,150,,,,,,,,,,,,,78.75292609999997,0.002926099999967846,None,,131.18502669999998,131.18502669999998,131.18502669999998,131.18502669999998,131.18502669999998,131.18502669999998,131.18502669999998,131.18502669999998,131.18502669999998,131.18502669999998,001,P002,2025_Jan_18_0916,ConditionRich,2021.2.3,59.93863482558472,
79.0,79.75,15,0.75,Stimuli/P002/sun_bfzoxbkvsfqxsyle.jpg,0,0,0.0,0,151,151,151,,,,,,,,,,,,,79.00225539999974,0.0022553999997398932,None,,131.4352458000003,131.4352458000003,131.4352458000003,131.4352458000003,131.4352458000003,131.4352458000003,131.4352458000003,131.4352458000003,131.4352458000003,131.4352458000003,001,P002,2025_Jan_18_0916,ConditionRich,2021.2.3,59.93863482558472,
79.75,80.0,41,0.0,Stimuli/Blank.png,0,0,0.0,0,152,152,152,,,,,,,,,,,,,79.75280870000006,0.0028087000000596163,None,,132.18607500000007,132.18607500000007,132.18607500000007,132.18607500000007,132.18607500000007,132.18607500000007,132.18607500000007,132.18607500000007,132.18607500000007,132.18607500000007,001,P002,2025_Jan_18_0916,ConditionRich,2021.2.3,59.93863482558472,
80.0,80.75,22,0.75,Stimuli/P002/things_boy_01b.jpg,0,0,0.0,0,153,153,153,,,,,,,,,,,,,80.00304219999998,0.0030421999999816762,None,,132.4528005000002,132.4528005000002,132.4528005000002,132.4528005000002,132.4528005000002,132.4528005000002,132.4528005000002,132.4528005000002,132.4528005000002,132.4528005000002,001,P002,2025_Jan_18_0916,ConditionRich,2021.2.3,59.93863482558472,
80.75,81.0,41,0.0,Stimuli/Blank.png,0,0,0.0,0,154,154,154,,,,,,,,,,,,,80.77021819999982,0.020218199999817443,None,,133.20345610000004,133.20345610000004,133.20345610000004,133.20345610000004,133.20345610000004,133.20345610000004,133.20345610000004,133.20345610000004,133.20345610000004,133.20345610000004,001,P002,2025_Jan_18_0916,ConditionRich,2021.2.3,59.93863482558472,
81.0,81.75,22,0.75,Stimuli/P002/things_boy_01b.jpg,0,0,0.0,0,155,155,155,,,,,,,,,,,,,81.00372399999969,0.003723999999692751,None,,133.4369988000003,133.4369988000003,133.4369988000003,133.4369988000003,133.4369988000003,133.4369988000003,133.4369988000003,133.4369988000003,133.4369988000003,133.4369988000003,001,P002,2025_Jan_18_0916,ConditionRich,2021.2.3,59.93863482558472,
81.75,82.0,41,0.0,Stimuli/Blank.png,0,0,0.0,0,156,156,156,,,,,,,,,,,,,81.75653449999982,0.006534499999816035,5,0.2079241000001275,134.20434550000027,134.20434550000027,134.20434550000027,134.20434550000027,134.20434550000027,134.20434550000027,134.20434550000027,134.20434550000027,134.20434550000027,134.20434550000027,001,P002,2025_Jan_18_0916,ConditionRich,2021.2.3,59.93863482558472,
82.0,82.75,22,0.75,Stimuli/P002/things_boy_01b.jpg,0,0,0.0,0,157,157,157,,,,,,,,,,,,,82.02107669999987,0.021076699999866833,None,,134.4545552000004,134.4545552000004,134.4545552000004,134.4545552000004,134.4545552000004,134.4545552000004,134.4545552000004,134.4545552000004,134.4545552000004,134.4545552000004,001,P002,2025_Jan_18_0916,ConditionRich,2021.2.3,59.93863482558472,
82.75,83.0,41,0.0,Stimuli/Blank.png,0,0,0.0,0,158,158,158,,,,,,,,,,,,,82.7575684999997,0.007568499999706546,None,,135.20523250000042,135.20523250000042,135.20523250000042,135.20523250000042,135.20523250000042,135.20523250000042,135.20523250000042,135.20523250000042,135.20523250000042,135.20523250000042,001,P002,2025_Jan_18_0916,ConditionRich,2021.2.3,59.93863482558472,
83.0,83.75,22,0.75,Stimuli/P002/things_boy_01b.jpg,0,0,0.0,0,159,159,159,,,,,,,,,,,,,83.02201669999977,0.022016699999767297,None,,135.45544160000009,135.45544160000009,135.45544160000009,135.45544160000009,135.45544160000009,135.45544160000009,135.45544160000009,135.45544160000009,135.45544160000009,135.45544160000009,001,P002,2025_Jan_18_0916,ConditionRich,2021.2.3,59.93863482558472,
83.75,84.0,41,0.0,Stimuli/Blank.png,0,0,0.0,0,160,160,160,,,,,,,,,,,,,83.75595720000001,0.005957200000011653,None,,136.1894324,136.1894324,136.1894324,136.1894324,136.1894324,136.1894324,136.1894324,136.1894324,136.1894324,136.1894324,001,P002,2025_Jan_18_0916,ConditionRich,2021.2.3,59.93863482558472,
84.0,100.0,0,0.0,Stimuli/Blank.png,1,9,9.75,0,161,161,161,,,,,,,,,,,,,84.00647889999982,0.006478899999819987,5,13.972472999999809,136.43964590000041,136.43964590000041,136.43964590000041,136.43964590000041,136.43964590000041,136.43964590000041,145.4309271000002,146.1648623000001,136.43964590000041,136.43964590000041,001,P002,2025_Jan_18_0916,ConditionRich,2021.2.3,59.93863482558472,
100.0,100.75,10,0.75,Stimuli/P002/sun_aykefnhciwsffcrj.jpg,0,0,0.0,0,162,162,162,,,,,,,,,,,,,100.00348689999964,0.003486899999643356,None,,152.45373710000013,152.45373710000013,152.45373710000013,152.45373710000013,152.45373710000013,152.45373710000013,152.45373710000013,152.45373710000013,152.45373710000013,152.45373710000013,001,P002,2025_Jan_18_0916,ConditionRich,2021.2.3,59.93863482558472,
100.75,101.0,41,0.0,Stimuli/Blank.png,0,0,0.0,0,163,163,163,,,,,,,,,,,,,100.77216389999967,0.0221638999996685,None,,153.20441419999997,153.20441419999997,153.20441419999997,153.20441419999997,153.20441419999997,153.20441419999997,153.20441419999997,153.20441419999997,153.20441419999997,153.20441419999997,001,P002,2025_Jan_18_0916,ConditionRich,2021.2.3,59.93863482558472,
101.0,101.75,10,0.75,Stimuli/P002/sun_aykefnhciwsffcrj.jpg,0,0,0.0,0,164,164,164,,,,,,,,,,,,,101.00694509999994,0.006945099999938975,None,,153.45461130000012,153.45461130000012,153.45461130000012,153.45461130000012,153.45461130000012,153.45461130000012,153.45461130000012,153.45461130000012,153.45461130000012,153.45461130000012,001,P002,2025_Jan_18_0916,ConditionRich,2021.2.3,59.93863482558472,
101.75,102.0,41,0.0,Stimuli/Blank.png,0,0,0.0,0,165,165,165,,,,,,,,,,,,,101.77246949999972,0.02246949999971548,None,,154.2052762000003,154.2052762000003,154.2052762000003,154.2052762000003,154.2052762000003,154.2052762000003,154.2052762000003,154.2052762000003,154.2052762000003,154.2052762000003,001,P002,2025_Jan_18_0916,ConditionRich,2021.2.3,59.93863482558472,
102.0,102.75,10,0.75,Stimuli/P002/sun_aykefnhciwsffcrj.jpg,0,0,0.0,0,166,166,166,,,,,,,,,,,,,102.0051939,0.0051938999999947555,None,,154.43881520000014,154.43881520000014,154.43881520000014,154.43881520000014,154.43881520000014,154.43881520000014,154.43881520000014,154.43881520000014,154.43881520000014,154.43881520000014,001,P002,2025_Jan_18_0916,ConditionRich,2021.2.3,59.93863482558472,
102.75,103.0,41,0.0,Stimuli/Blank.png,0,0,0.0,0,167,167,167,,,,,,,,,,,,,102.75628789999973,0.0062878999997337814,None,,155.18946780000033,155.18946780000033,155.18946780000033,155.18946780000033,155.18946780000033,155.18946780000033,155.18946780000033,155.18946780000033,155.18946780000033,155.18946780000033,001,P002,2025_Jan_18_0916,ConditionRich,2021.2.3,59.93863482558472,
103.0,103.75,10,0.75,Stimuli/P002/sun_aykefnhciwsffcrj.jpg,0,0,0.0,0,168,168,168,,,,,,,,,,,,,103.00706249999985,0.007062499999847205,None,,155.43970450000006,155.43970450000006,155.43970450000006,155.43970450000006,155.43970450000006,155.43970450000006,155.43970450000006,155.43970450000006,155.43970450000006,155.43970450000006,001,P002,2025_Jan_18_0916,ConditionRich,2021.2.3,59.93863482558472,
103.75,104.0,41,0.0,Stimuli/Blank.png,0,0,0.0,0,169,169,169,,,,,,,,,,,,,103.75680250000005,0.0068025000000488944,None,,156.1903453,156.1903453,156.1903453,156.1903453,156.1903453,156.1903453,156.1903453,156.1903453,156.1903453,156.1903453,001,P002,2025_Jan_18_0916,ConditionRich,2021.2.3,59.93863482558472,
104.0,104.75,40,0.75,Stimuli/P002/things_worm_01b.jpg,0,0,0.0,0,170,170,170,,,,,,,,,,,,,104.00712449999992,0.007124499999918044,None,,156.4572594000001,156.4572594000001,156.4572594000001,156.4572594000001,156.4572594000001,156.4572594000001,156.4572594000001,156.4572594000001,156.4572594000001,156.4572594000001,001,P002,2025_Jan_18_0916,ConditionRich,2021.2.3,59.93863482558472,
104.75,105.0,41,0.0,Stimuli/Blank.png,0,0,0.0,0,171,171,171,,,,,,,,,,,,,104.77420819999998,0.024208199999975477,None,,157.20792040000015,157.20792040000015,157.20792040000015,157.20792040000015,157.20792040000015,157.20792040000015,157.20792040000015,157.20792040000015,157.20792040000015,157.20792040000015,001,P002,2025_Jan_18_0916,ConditionRich,2021.2.3,59.93863482558472,
105.0,105.75,40,0.75,Stimuli/P002/things_worm_01b.jpg,0,0,0.0,0,172,172,172,,,,,,,,,,,,,105.00869369999964,0.008693699999639648,None,,157.45806790000006,157.45806790000006,157.45806790000006,157.45806790000006,157.45806790000006,157.45806790000006,157.45806790000006,157.45806790000006,157.45806790000006,157.45806790000006,001,P002,2025_Jan_18_0916,ConditionRich,2021.2.3,59.93863482558472,
105.75,106.0,41,0.0,Stimuli/Blank.png,0,0,0.0,0,173,173,173,,,,,,,,,,,,,105.7760573999999,0.026057399999899644,None,,158.20879260000038,158.20879260000038,158.20879260000038,158.20879260000038,158.20879260000038,158.20879260000038,158.20879260000038,158.20879260000038,158.20879260000038,158.20879260000038,001,P002,2025_Jan_18_0916,ConditionRich,2021.2.3,59.93863482558472,
106.0,106.75,40,0.75,Stimuli/P002/things_worm_01b.jpg,0,0,0.0,0,174,174,174,,,,,,,,,,,,,106.00935619999973,0.009356199999729142,None,,158.44234270000015,158.44234270000015,158.44234270000015,158.44234270000015,158.44234270000015,158.44234270000015,158.44234270000015,158.44234270000015,158.44234270000015,158.44234270000015,001,P002,2025_Jan_18_0916,ConditionRich,2021.2.3,59.93863482558472,
106.75,107.0,41,0.0,Stimuli/Blank.png,0,0,0.0,0,175,175,175,,,,,,,,,,,,,106.7602124,0.010212400000000343,None,,159.1930000000002,159.1930000000002,159.1930000000002,159.1930000000002,159.1930000000002,159.1930000000002,159.1930000000002,159.1930000000002,159.1930000000002,159.1930000000002,001,P002,2025_Jan_18_0916,ConditionRich,2021.2.3,59.93863482558472,
107.0,107.75,40,0.75,Stimuli/P002/things_worm_01b.jpg,0,0,0.0,0,176,176,176,,,,,,,,,,,,,107.01247609999973,0.01247609999973065,None,,159.45990310000025,159.45990310000025,159.45990310000025,159.45990310000025,159.45990310000025,159.45990310000025,159.45990310000025,159.45990310000025,159.45990310000025,159.45990310000025,001,P002,2025_Jan_18_0916,ConditionRich,2021.2.3,59.93863482558472,
107.75,108.0,41,0.0,Stimuli/Blank.png,0,0,0.0,0,177,177,177,,,,,,,,,,,,,107.77748069999961,0.027480699999614444,None,,160.2105459000004,160.2105459000004,160.2105459000004,160.2105459000004,160.2105459000004,160.2105459000004,160.2105459000004,160.2105459000004,160.2105459000004,160.2105459000004,001,P002,2025_Jan_18_0916,ConditionRich,2021.2.3,59.93863482558472,
108.0,108.75,33,0.75,Stimuli/P002/things_pan_01b.jpg,0,0,0.0,0,178,178,178,,,,,,,,,,,,,108.01063290000002,0.010632900000018708,None,,160.46078410000018,160.46078410000018,160.46078410000018,160.46078410000018,160.46078410000018,160.46078410000018,160.46078410000018,160.46078410000018,160.46078410000018,160.46078410000018,001,P002,2025_Jan_18_0916,ConditionRich,2021.2.3,59.93863482558472,
108.75,109.0,41,0.0,Stimuli/Blank.png,0,0,0.0,0,179,179,179,,,,,,,,,,,,,108.77798359999997,0.027983599999970465,None,,161.2114330000004,161.2114330000004,161.2114330000004,161.2114330000004,161.2114330000004,161.2114330000004,161.2114330000004,161.2114330000004,161.2114330000004,161.2114330000004,001,P002,2025_Jan_18_0916,ConditionRich,2021.2.3,59.93863482558472,
109.0,109.75,33,0.75,Stimuli/P002/things_pan_01b.jpg,0,0,0.0,0,180,180,180,,,,,,,,,,,,,109.01216929999964,0.012169299999641225,None,,161.4449764000001,161.4449764000001,161.4449764000001,161.4449764000001,161.4449764000001,161.4449764000001,161.4449764000001,161.4449764000001,161.4449764000001,161.4449764000001,001,P002,2025_Jan_18_0916,ConditionRich,2021.2.3,59.93863482558472,
109.75,110.0,41,0.0,Stimuli/Blank.png,0,0,0.0,0,181,181,181,,,,,,,,,,,,,109.76295849999997,0.012958499999967898,5,0.21639409999988857,162.1956392000002,162.1956392000002,162.1956392000002,162.1956392000002,162.1956392000002,162.1956392000002,162.1956392000002,162.1956392000002,162.1956392000002,162.1956392000002,001,P002,2025_Jan_18_0916,ConditionRich,2021.2.3,59.93863482558472,
110.0,110.75,33,0.75,Stimuli/P002/things_pan_01b.jpg,0,0,0.0,0,182,182,182,,,,,,,,,,,,,110.01222779999989,0.012227799999891431,None,,162.44585000000006,162.44585000000006,162.44585000000006,162.44585000000006,162.44585000000006,162.44585000000006,162.44585000000006,162.44585000000006,162.44585000000006,162.44585000000006,001,P002,2025_Jan_18_0916,ConditionRich,2021.2.3,59.93863482558472,
110.75,111.0,41,0.0,Stimuli/Blank.png,0,0,0.0,0,183,183,183,,,,,,,,,,,,,110.76335679999966,0.013356799999655777,None,,163.19650769999998,163.19650769999998,163.19650769999998,163.19650769999998,163.19650769999998,163.19650769999998,163.19650769999998,163.19650769999998,163.19650769999998,163.19650769999998,001,P002,2025_Jan_18_0916,ConditionRich,2021.2.3,59.93863482558472,
111.0,111.75,33,0.75,Stimuli/P002/things_pan_01b.jpg,0,0,0.0,0,184,184,184,,,,,,,,,,,,,111.01373719999992,0.013737199999923178,None,,163.4467295000004,163.4467295000004,163.4467295000004,163.4467295000004,163.4467295000004,163.4467295000004,163.4467295000004,163.4467295000004,163.4467295000004,163.4467295000004,001,P002,2025_Jan_18_0916,ConditionRich,2021.2.3,59.93863482558472,
111.75,112.0,41,0.0,Stimuli/Blank.png,0,0,0.0,0,185,185,185,,,,,,,,,,,,,111.76661990000002,0.016619900000023335,5,0.1978039999999055,164.2140962000003,164.2140962000003,164.2140962000003,164.2140962000003,164.2140962000003,164.2140962000003,164.2140962000003,164.2140962000003,164.2140962000003,164.2140962000003,001,P002,2025_Jan_18_0916,ConditionRich,2021.2.3,59.93863482558472,
112.0,112.75,37,0.75,Stimuli/P002/things_starfish_01b.jpg,0,0,0.0,0,186,186,186,,,,,,,,,,,,,112.01714009999978,0.017140099999778613,None,,164.48098590000018,164.48098590000018,164.48098590000018,164.48098590000018,164.48098590000018,164.48098590000018,164.48098590000018,164.48098590000018,164.48098590000018,164.48098590000018,001,P002,2025_Jan_18_0916,ConditionRich,2021.2.3,59.93863482558472,
112.75,113.0,41,0.0,Stimuli/Blank.png,0,0,0.0,0,187,187,187,,,,,,,,,,,,,112.78349690000005,0.03349690000004557,None,,165.23165670000026,165.23165670000026,165.23165670000026,165.23165670000026,165.23165670000026,165.23165670000026,165.23165670000026,165.23165670000026,165.23165670000026,165.23165670000026,001,P002,2025_Jan_18_0916,ConditionRich,2021.2.3,59.93863482558472,
113.0,113.75,37,0.75,Stimuli/P002/things_starfish_01b.jpg,0,0,0.0,0,188,188,188,,,,,,,,,,,,,113.01767619999964,0.01767619999964154,None,,165.46517570000015,165.46517570000015,165.46517570000015,165.46517570000015,165.46517570000015,165.46517570000015,165.46517570000015,165.46517570000015,165.46517570000015,165.46517570000015,001,P002,2025_Jan_18_0916,ConditionRich,2021.2.3,59.93863482558472,
113.75,114.0,41,0.0,Stimuli/Blank.png,0,0,0.0,0,189,189,189,,,,,,,,,,,,,113.76625729999978,0.016257299999779207,None,,166.19916450000028,166.19916450000028,166.19916450000028,166.19916450000028,166.19916450000028,166.19916450000028,166.19916450000028,166.19916450000028,166.19916450000028,166.19916450000028,001,P002,2025_Jan_18_0916,ConditionRich,2021.2.3,59.93863482558472,
114.0,114.75,37,0.75,Stimuli/P002/things_starfish_01b.jpg,0,0,0.0,0,190,190,190,,,,,,,,,,,,,113.99909359999992,-0.0009064000000762462,None,,166.4326957000003,166.4326957000003,166.4326957000003,166.4326957000003,166.4326957000003,166.4326957000003,166.4326957000003,166.4326957000003,166.4326957000003,166.4326957000003,001,P002,2025_Jan_18_0916,ConditionRich,2021.2.3,59.93863482558472,
114.75,115.0,41,0.0,Stimuli/Blank.png,0,0,0.0,0,191,191,191,,,,,,,,,,,,,114.75005269999974,5.269999974188977e-05,None,,167.1833644000003,167.1833644000003,167.1833644000003,167.1833644000003,167.1833644000003,167.1833644000003,167.1833644000003,167.1833644000003,167.1833644000003,167.1833644000003,001,P002,2025_Jan_18_0916,ConditionRich,2021.2.3,59.93863482558472,
115.0,115.75,37,0.75,Stimuli/P002/things_starfish_01b.jpg,0,0,0.0,0,192,192,192,,,,,,,,,,,,,115.00234569999975,0.00234569999975065,None,,167.4502567000004,167.4502567000004,167.4502567000004,167.4502567000004,167.4502567000004,167.4502567000004,167.4502567000004,167.4502567000004,167.4502567000004,167.4502567000004,001,P002,2025_Jan_18_0916,ConditionRich,2021.2.3,59.93863482558472,
115.75,116.0,41,0.0,Stimuli/Blank.png,0,0,0.0,0,193,193,193,,,,,,,,,,,,,115.7679647,0.017964699999993172,None,,168.20091020000018,168.20091020000018,168.20091020000018,168.20091020000018,168.20091020000018,168.20091020000018,168.20091020000018,168.20091020000018,168.20091020000018,168.20091020000018,001,P002,2025_Jan_18_0916,ConditionRich,2021.2.3,59.93863482558472,
116.0,116.75,7,0.75,Stimuli/P002/sun_arlesyjqxmqmcccl.jpg,0,0,0.0,0,194,194,194,,,,,,,,,,,,,116.00192819999984,0.001928199999838398,None,,168.4513192000004,168.4513192000004,168.4513192000004,168.4513192000004,168.4513192000004,168.4513192000004,168.4513192000004,168.4513192000004,168.4513192000004,168.4513192000004,001,P002,2025_Jan_18_0916,ConditionRich,2021.2.3,59.93863482558472,
116.75,117.0,41,0.0,Stimuli/Blank.png,0,0,0.0,0,195,195,195,,,,,,,,,,,,,116.76851689999967,0.018516899999667658,None,,169.20179480000024,169.20179480000024,169.20179480000024,169.20179480000024,169.20179480000024,169.20179480000024,169.20179480000024,169.20179480000024,169.20179480000024,169.20179480000024,001,P002,2025_Jan_18_0916,ConditionRich,2021.2.3,59.93863482558472,
117.0,117.75,7,0.75,Stimuli/P002/sun_arlesyjqxmqmcccl.jpg,0,0,0.0,0,196,196,196,,,,,,,,,,,,,117.00241830000004,0.0024183000000448374,None,,169.43533760000037,169.43533760000037,169.43533760000037,169.43533760000037,169.43533760000037,169.43533760000037,169.43533760000037,169.43533760000037,169.43533760000037,169.43533760000037,001,P002,2025_Jan_18_0916,ConditionRich,2021.2.3,59.93863482558472,
117.75,118.0,41,0.0,Stimuli/Blank.png,0,0,0.0,0,197,197,197,,,,,,,,,,,,,117.75300419999985,0.0030041999998502433,None,,170.18601770000032,170.18601770000032,170.18601770000032,170.18601770000032,170.18601770000032,170.18601770000032,170.18601770000032,170.18601770000032,170.18601770000032,170.18601770000032,001,P002,2025_Jan_18_0916,ConditionRich,2021.2.3,59.93863482558472,
118.0,118.75,7,0.75,Stimuli/P002/sun_arlesyjqxmqmcccl.jpg,0,0,0.0,0,198,198,198,,,,,,,,,,,,,118.00350119999985,0.003501199999845994,None,,170.4528962000004,170.4528962000004,170.4528962000004,170.4528962000004,170.4528962000004,170.4528962000004,170.4528962000004,170.4528962000004,170.4528962000004,170.4528962000004,001,P002,2025_Jan_18_0916,ConditionRich,2021.2.3,59.93863482558472,
118.75,119.0,41,0.0,Stimuli/Blank.png,0,0,0.0,0,199,199,199,,,,,,,,,,,,,118.77078239999992,0.02078239999991638,None,,171.20357230000036,171.20357230000036,171.20357230000036,171.20357230000036,171.20357230000036,171.20357230000036,171.20357230000036,171.20357230000036,171.20357230000036,171.20357230000036,001,P002,2025_Jan_18_0916,ConditionRich,2021.2.3,59.93863482558472,
119.0,119.75,7,0.75,Stimuli/P002/sun_arlesyjqxmqmcccl.jpg,0,0,0.0,0,200,200,200,,,,,,,,,,,,,119.00409609999997,0.004096099999969738,None,,171.43709260000014,171.43709260000014,171.43709260000014,171.43709260000014,171.43709260000014,171.43709260000014,171.43709260000014,171.43709260000014,171.43709260000014,171.43709260000014,001,P002,2025_Jan_18_0916,ConditionRich,2021.2.3,59.93863482558472,
119.75,120.0,41,0.0,Stimuli/Blank.png,0,0,0.0,0,201,201,201,,,,,,,,,,,,,119.75632009999981,0.006320099999811646,5,0.20735730000023977,172.2044724000002,172.2044724000002,172.2044724000002,172.2044724000002,172.2044724000002,172.2044724000002,172.2044724000002,172.2044724000002,172.2044724000002,172.2044724000002,001,P002,2025_Jan_18_0916,ConditionRich,2021.2.3,59.93863482558472,
120.0,120.75,20,0.75,Stimuli/P002/sun_dkgctqgpvxbaoyks.jpg,0,0,0.0,0,202,202,202,,,,,,,,,,,,,120.02107239999987,0.02107239999986632,None,,172.45465390000027,172.45465390000027,172.45465390000027,172.45465390000027,172.45465390000027,172.45465390000027,172.45465390000027,172.45465390000027,172.45465390000027,172.45465390000027,001,P002,2025_Jan_18_0916,ConditionRich,2021.2.3,59.93863482558472,
120.75,121.0,41,0.0,Stimuli/Blank.png,0,0,0.0,0,203,203,203,,,,,,,,,,,,,120.75586380000004,0.005863800000042829,None,,173.18863170000031,173.18863170000031,173.18863170000031,173.18863170000031,173.18863170000031,173.18863170000031,173.18863170000031,173.18863170000031,173.18863170000031,173.18863170000031,001,P002,2025_Jan_18_0916,ConditionRich,2021.2.3,59.93863482558472,
121.0,121.75,20,0.75,Stimuli/P002/sun_dkgctqgpvxbaoyks.jpg,0,0,0.0,0,204,204,204,,,,,,,,,,,,,121.0058313999998,0.005831399999806308,None,,173.43885980000005,173.43885980000005,173.43885980000005,173.43885980000005,173.43885980000005,173.43885980000005,173.43885980000005,173.43885980000005,173.43885980000005,173.43885980000005,001,P002,2025_Jan_18_0916,ConditionRich,2021.2.3,59.93863482558472,
121.75,122.0,41,0.0,Stimuli/Blank.png,0,0,0.0,0,205,205,205,,,,,,,,,,,,,121.75730999999996,0.007309999999961292,None,,174.18952820000004,174.18952820000004,174.18952820000004,174.18952820000004,174.18952820000004,174.18952820000004,174.18952820000004,174.18952820000004,174.18952820000004,174.18952820000004,001,P002,2025_Jan_18_0916,ConditionRich,2021.2.3,59.93863482558472,
122.0,122.75,20,0.75,Stimuli/P002/sun_dkgctqgpvxbaoyks.jpg,0,0,0.0,0,206,206,206,,,,,,,,,,,,,122.00606429999971,0.006064299999707146,None,,174.43973540000025,174.43973540000025,174.43973540000025,174.43973540000025,174.43973540000025,174.43973540000025,174.43973540000025,174.43973540000025,174.43973540000025,174.43973540000025,001,P002,2025_Jan_18_0916,ConditionRich,2021.2.3,59.93863482558472,
122.75,123.0,41,0.0,Stimuli/Blank.png,0,0,0.0,0,207,207,207,,,,,,,,,,,,,122.75716519999969,0.0071651999996902305,None,,175.19039950000024,175.19039950000024,175.19039950000024,175.19039950000024,175.19039950000024,175.19039950000024,175.19039950000024,175.19039950000024,175.19039950000024,175.19039950000024,001,P002,2025_Jan_18_0916,ConditionRich,2021.2.3,59.93863482558472,
123.0,123.75,20,0.75,Stimuli/P002/sun_dkgctqgpvxbaoyks.jpg,1,0,0.75,0,208,208,208,,,,,,,,,,,,,123.00761889999967,0.007618899999670248,1,0.38321589999986827,175.4406140000001,175.4406140000001,175.4406140000001,175.4406140000001,175.4406140000001,175.4406140000001,175.4406140000001,176.1745936000002,175.4406140000001,175.4406140000001,001,P002,2025_Jan_18_0916,ConditionRich,2021.2.3,59.93863482558472,
123.75,124.0,41,0.0,Stimuli/Blank.png,0,0,0.0,0,209,209,209,,,,,,,,,,,,,123.75865189999968,0.00865189999967697,None,,176.1912768000002,176.1912768000002,176.1912768000002,176.1912768000002,176.1912768000002,176.1912768000002,176.1912768000002,176.1912768000002,176.1912768000002,176.1912768000002,001,P002,2025_Jan_18_0916,ConditionRich,2021.2.3,59.93863482558472,
124.0,124.75,35,0.75,Stimuli/P002/things_pepperoni_01b.jpg,0,0,0.0,0,210,210,210,,,,,,,,,,,,,124.00773369999979,0.007733699999789678,None,,176.45819440000014,176.45819440000014,176.45819440000014,176.45819440000014,176.45819440000014,176.45819440000014,176.45819440000014,176.45819440000014,176.45819440000014,176.45819440000014,001,P002,2025_Jan_18_0916,ConditionRich,2021.2.3,59.93863482558472,
124.75,125.0,41,0.0,Stimuli/Blank.png,0,0,0.0,0,211,211,211,,,,,,,,,,,,,124.77633239999977,0.02633239999977377,None,,177.20886259999997,177.20886259999997,177.20886259999997,177.20886259999997,177.20886259999997,177.20886259999997,177.20886259999997,177.20886259999997,177.20886259999997,177.20886259999997,001,P002,2025_Jan_18_0916,ConditionRich,2021.2.3,59.93863482558472,
125.0,125.75,35,0.75,Stimuli/P002/things_pepperoni_01b.jpg,0,0,0.0,0,212,212,212,,,,,,,,,,,,,125.00912509999989,0.009125099999891972,None,,177.4423899000003,177.4423899000003,177.4423899000003,177.4423899000003,177.4423899000003,177.4423899000003,177.4423899000003,177.4423899000003,177.4423899000003,177.4423899000003,001,P002,2025_Jan_18_0916,ConditionRich,2021.2.3,59.93863482558472,
125.75,126.0,41,0.0,Stimuli/Blank.png,0,0,0.0,0,213,213,213,,,,,,,,,,,,,125.76168909999978,0.011689099999784958,5,0.20206039999993664,178.2097490000001,178.2097490000001,178.2097490000001,178.2097490000001,178.2097490000001,178.2097490000001,178.2097490000001,178.2097490000001,178.2097490000001,178.2097490000001,001,P002,2025_Jan_18_0916,ConditionRich,2021.2.3,59.93863482558472,
126.0,126.75,35,0.75,Stimuli/P002/things_pepperoni_01b.jpg,0,0,0.0,0,214,214,214,,,,,,,,,,,,,126.02702849999969,0.027028499999687483,None,,178.45994130000008,178.45994130000008,178.45994130000008,178.45994130000008,178.45994130000008,178.45994130000008,178.45994130000008,178.45994130000008,178.45994130000008,178.45994130000008,001,P002,2025_Jan_18_0916,ConditionRich,2021.2.3,59.93863482558472,
126.75,127.0,41,0.0,Stimuli/Blank.png,0,0,0.0,0,215,215,215,,,,,,,,,,,,,126.76100359999964,0.011003599999639846,None,,179.19392110000035,179.19392110000035,179.19392110000035,179.19392110000035,179.19392110000035,179.19392110000035,179.19392110000035,179.19392110000035,179.19392110000035,179.19392110000035,001,P002,2025_Jan_18_0916,ConditionRich,2021.2.3,59.93863482558472,
127.0,127.75,35,0.75,Stimuli/P002/things_pepperoni_01b.jpg,0,0,0.0,0,216,216,216,,,,,,,,,,,,,127.01189079999995,0.011890799999946466,None,,179.44414150000011,179.44414150000011,179.44414150000011,179.44414150000011,179.44414150000011,179.44414150000011,179.44414150000011,179.44414150000011,179.44414150000011,179.44414150000011,001,P002,2025_Jan_18_0916,ConditionRich,2021.2.3,59.93863482558472,
127.75,128.0,41,0.0,Stimuli/Blank.png,0,0,0.0,0,217,217,217,,,,,,,,,,,,,127.76202639999974,0.012026399999740534,5,0.21724369999992632,180.19480010000007,180.19480010000007,180.19480010000007,180.19480010000007,180.19480010000007,180.19480010000007,180.19480010000007,180.19480010000007,180.19480010000007,180.19480010000007,001,P002,2025_Jan_18_0916,ConditionRich,2021.2.3,59.93863482558472,
128.0,128.75,25,0.75,Stimuli/P002/things_curry_01b.jpg,0,0,0.0,0,218,218,218,,,,,,,,,,,,,128.01142489999984,0.01142489999983809,None,,180.46171760000016,180.46171760000016,180.46171760000016,180.46171760000016,180.46171760000016,180.46171760000016,180.46171760000016,180.46171760000016,180.46171760000016,180.46171760000016,001,P002,2025_Jan_18_0916,ConditionRich,2021.2.3,59.93863482558472,
128.75,129.0,41,0.0,Stimuli/Blank.png,0,0,0.0,0,219,219,219,,,,,,,,,,,,,128.77943319999986,0.029433199999857607,None,,181.21237610000026,181.21237610000026,181.21237610000026,181.21237610000026,181.21237610000026,181.21237610000026,181.21237610000026,181.21237610000026,181.21237610000026,181.21237610000026,001,P002,2025_Jan_18_0916,ConditionRich,2021.2.3,59.93863482558472,
129.0,129.75,25,0.75,Stimuli/P002/things_curry_01b.jpg,0,0,0.0,0,220,220,220,,,,,,,,,,,,,129.0132690999999,0.013269099999888567,None,,181.4458982000001,181.4458982000001,181.4458982000001,181.4458982000001,181.4458982000001,181.4458982000001,181.4458982000001,181.4458982000001,181.4458982000001,181.4458982000001,001,P002,2025_Jan_18_0916,ConditionRich,2021.2.3,59.93863482558472,
129.75,130.0,41,0.0,Stimuli/Blank.png,0,0,0.0,0,221,221,221,,,,,,,,,,,,,129.76381679999986,0.013816799999858631,5,0.215262900000198,182.19655520000015,182.19655520000015,182.19655520000015,182.19655520000015,182.19655520000015,182.19655520000015,182.19655520000015,182.19655520000015,182.19655520000015,182.19655520000015,001,P002,2025_Jan_18_0916,ConditionRich,2021.2.3,59.93863482558472,
130.0,130.75,25,0.75,Stimuli/P002/things_curry_01b.jpg,0,0,0.0,0,222,222,222,,,,,,,,,,,,,130.01391379999995,0.01391379999995479,None,,182.44677980000006,182.44677980000006,182.44677980000006,182.44677980000006,182.44677980000006,182.44677980000006,182.44677980000006,182.44677980000006,182.44677980000006,182.44677980000006,001,P002,2025_Jan_18_0916,ConditionRich,2021.2.3,59.93863482558472,
130.75,131.0,41,0.0,Stimuli/Blank.png,0,0,0.0,0,223,223,223,,,,,,,,,,,,,130.76396139999997,0.013961399999971036,None,,183.1974363000004,183.1974363000004,183.1974363000004,183.1974363000004,183.1974363000004,183.1974363000004,183.1974363000004,183.1974363000004,183.1974363000004,183.1974363000004,001,P002,2025_Jan_18_0916,ConditionRich,2021.2.3,59.93863482558472,
131.0,131.75,25,0.75,Stimuli/P002/things_curry_01b.jpg,0,0,0.0,0,224,224,224,,,,,,,,,,,,,131.01625809999996,0.016258099999959086,None,,183.46434220000037,183.46434220000037,183.46434220000037,183.46434220000037,183.46434220000037,183.46434220000037,183.46434220000037,183.46434220000037,183.46434220000037,183.46434220000037,001,P002,2025_Jan_18_0916,ConditionRich,2021.2.3,59.93863482558472,
131.75,132.0,41,0.0,Stimuli/Blank.png,0,0,0.0,0,225,225,225,,,,,,,,,,,,,131.76723259999972,0.017232599999715603,5,0.19683579999991707,184.21500490000017,184.21500490000017,184.21500490000017,184.21500490000017,184.21500490000017,184.21500490000017,184.21500490000017,184.21500490000017,184.21500490000017,184.21500490000017,001,P002,2025_Jan_18_0916,ConditionRich,2021.2.3,59.93863482558472,
132.0,132.75,39,0.75,Stimuli/P002/things_woman_01b.jpg,0,0,0.0,0,226,226,226,,,,,,,,,,,,,132.0155568,0.015556800000013027,None,,184.46524390000013,184.46524390000013,184.46524390000013,184.46524390000013,184.46524390000013,184.46524390000013,184.46524390000013,184.46524390000013,184.46524390000013,184.46524390000013,001,P002,2025_Jan_18_0916,ConditionRich,2021.2.3,59.93863482558472,
132.75,133.0,41,0.0,Stimuli/Blank.png,0,0,0.0,0,227,227,227,,,,,,,,,,,,,132.7671304999999,0.0171304999998938,None,,185.1992137000002,185.1992137000002,185.1992137000002,185.1992137000002,185.1992137000002,185.1992137000002,185.1992137000002,185.1992137000002,185.1992137000002,185.1992137000002,001,P002,2025_Jan_18_0916,ConditionRich,2021.2.3,59.93863482558472,
133.0,133.75,39,0.75,Stimuli/P002/things_woman_01b.jpg,0,0,0.0,0,228,228,228,,,,,,,,,,,,,133.00043419999975,0.000434199999745033,None,,185.4327704000002,185.4327704000002,185.4327704000002,185.4327704000002,185.4327704000002,185.4327704000002,185.4327704000002,185.4327704000002,185.4327704000002,185.4327704000002,001,P002,2025_Jan_18_0916,ConditionRich,2021.2.3,59.93863482558472,
133.75,134.0,41,0.0,Stimuli/Blank.png,0,0,0.0,0,229,229,229,,,,,,,,,,,,,133.75188679999974,0.0018867999997382867,5,0.2118719999998575,186.2001022000004,186.2001022000004,186.2001022000004,186.2001022000004,186.2001022000004,186.2001022000004,186.2001022000004,186.2001022000004,186.2001022000004,186.2001022000004,001,P002,2025_Jan_18_0916,ConditionRich,2021.2.3,59.93863482558472,
134.0,134.75,39,0.75,Stimuli/P002/things_woman_01b.jpg,0,0,0.0,0,230,230,230,,,,,,,,,,,,,134.01712329999964,0.01712329999963913,None,,186.45030450000013,186.45030450000013,186.45030450000013,186.45030450000013,186.45030450000013,186.45030450000013,186.45030450000013,186.45030450000013,186.45030450000013,186.45030450000013,001,P002,2025_Jan_18_0916,ConditionRich,2021.2.3,59.93863482558472,
134.75,135.0,41,0.0,Stimuli/Blank.png,0,0,0.0,0,231,231,231,,,,,,,,,,,,,134.7511916999997,0.0011916999997083622,None,,187.18428210000002,187.18428210000002,187.18428210000002,187.18428210000002,187.18428210000002,187.18428210000002,187.18428210000002,187.18428210000002,187.18428210000002,187.18428210000002,001,P002,2025_Jan_18_0916,ConditionRich,2021.2.3,59.93863482558472,
135.0,135.75,39,0.75,Stimuli/P002/things_woman_01b.jpg,0,0,0.0,0,232,232,232,,,,,,,,,,,,,135.00204899999972,0.0020489999997153063,None,,187.43451440000035,187.43451440000035,187.43451440000035,187.43451440000035,187.43451440000035,187.43451440000035,187.43451440000035,187.43451440000035,187.43451440000035,187.43451440000035,001,P002,2025_Jan_18_0916,ConditionRich,2021.2.3,59.93863482558472,
135.75,136.0,41,0.0,Stimuli/Blank.png,0,0,0.0,0,233,233,233,,,,,,,,,,,,,135.75152839999964,0.0015283999996427156,None,,188.18515990000014,188.18515990000014,188.18515990000014,188.18515990000014,188.18515990000014,188.18515990000014,188.18515990000014,188.18515990000014,188.18515990000014,188.18515990000014,001,P002,2025_Jan_18_0916,ConditionRich,2021.2.3,59.93863482558472,
136.0,136.75,31,0.75,Stimuli/P002/things_man_01b.jpg,0,0,0.0,0,234,234,234,,,,,,,,,,,,,136.0022071999997,0.002207199999702425,None,,188.45210730000008,188.45210730000008,188.45210730000008,188.45210730000008,188.45210730000008,188.45210730000008,188.45210730000008,188.45210730000008,188.45210730000008,188.45210730000008,001,P002,2025_Jan_18_0916,ConditionRich,2021.2.3,59.93863482558472,
136.75,137.0,41,0.0,Stimuli/Blank.png,0,0,0.0,0,235,235,235,,,,,,,,,,,,,136.77137819999962,0.02137819999961721,None,,189.21941360000028,189.21941360000028,189.21941360000028,189.21941360000028,189.21941360000028,189.21941360000028,189.21941360000028,189.21941360000028,189.21941360000028,189.21941360000028,001,P002,2025_Jan_18_0916,ConditionRich,2021.2.3,59.93863482558472,
137.0,137.75,31,0.75,Stimuli/P002/things_man_01b.jpg,0,0,0.0,0,236,236,236,,,,,,,,,,,,,137.0197495999996,0.019749599999613565,None,,189.46963200000027,189.46963200000027,189.46963200000027,189.46963200000027,189.46963200000027,189.46963200000027,189.46963200000027,189.46963200000027,189.46963200000027,189.46963200000027,001,P002,2025_Jan_18_0916,ConditionRich,2021.2.3,59.93863482558472,
137.75,138.0,41,0.0,Stimuli/Blank.png,0,0,0.0,0,237,237,237,,,,,,,,,,,,,137.7712022999999,0.02120229999991352,None,,190.20361230000026,190.20361230000026,190.20361230000026,190.20361230000026,190.20361230000026,190.20361230000026,190.20361230000026,190.20361230000026,190.20361230000026,190.20361230000026,001,P002,2025_Jan_18_0916,ConditionRich,2021.2.3,59.93863482558472,
138.0,138.75,31,0.75,Stimuli/P002/things_man_01b.jpg,0,0,0.0,0,238,238,238,,,,,,,,,,,,,138.0040439999998,0.004043999999794323,None,,190.437144,190.437144,190.437144,190.437144,190.437144,190.437144,190.437144,190.437144,190.437144,190.437144,001,P002,2025_Jan_18_0916,ConditionRich,2021.2.3,59.93863482558472,
138.75,139.0,41,0.0,Stimuli/Blank.png,0,0,0.0,0,239,239,239,,,,,,,,,,,,,138.75499820000005,0.004998200000045472,None,,191.18780510000033,191.18780510000033,191.18780510000033,191.18780510000033,191.18780510000033,191.18780510000033,191.18780510000033,191.18780510000033,191.18780510000033,191.18780510000033,001,P002,2025_Jan_18_0916,ConditionRich,2021.2.3,59.93863482558472,
139.0,139.75,31,0.75,Stimuli/P002/things_man_01b.jpg,0,0,0.0,0,240,240,240,,,,,,,,,,,,,139.0074421999998,0.0074421999997866806,None,,191.45470690000002,191.45470690000002,191.45470690000002,191.45470690000002,191.45470690000002,191.45470690000002,191.45470690000002,191.45470690000002,191.45470690000002,191.45470690000002,001,P002,2025_Jan_18_0916,ConditionRich,2021.2.3,59.93863482558472,
139.75,140.0,41,0.0,Stimuli/Blank.png,0,0,0.0,0,241,241,241,,,,,,,,,,,,,139.77228809999997,0.022288099999968836,None,,192.2053595000002,192.2053595000002,192.2053595000002,192.2053595000002,192.2053595000002,192.2053595000002,192.2053595000002,192.2053595000002,192.2053595000002,192.2053595000002,001,P002,2025_Jan_18_0916,ConditionRich,2021.2.3,59.93863482558472,
140.0,140.75,16,0.75,Stimuli/P002/sun_biqyomkjbujnppuf.jpg,0,0,0.0,0,242,242,242,,,,,,,,,,,,,140.00559449999992,0.00559449999991557,None,,192.4556319000003,192.4556319000003,192.4556319000003,192.4556319000003,192.4556319000003,192.4556319000003,192.4556319000003,192.4556319000003,192.4556319000003,192.4556319000003,001,P002,2025_Jan_18_0916,ConditionRich,2021.2.3,59.93863482558472,
140.75,141.0,41,0.0,Stimuli/Blank.png,0,0,0.0,0,243,243,243,,,,,,,,,,,,,140.77313839999988,0.023138399999879766,None,,193.20624650000036,193.20624650000036,193.20624650000036,193.20624650000036,193.20624650000036,193.20624650000036,193.20624650000036,193.20624650000036,193.20624650000036,193.20624650000036,001,P002,2025_Jan_18_0916,ConditionRich,2021.2.3,59.93863482558472,
141.0,141.75,16,0.75,Stimuli/P002/sun_biqyomkjbujnppuf.jpg,0,0,0.0,0,244,244,244,,,,,,,,,,,,,141.0065308999997,0.0065308999996887,None,,193.43978349999998,193.43978349999998,193.43978349999998,193.43978349999998,193.43978349999998,193.43978349999998,193.43978349999998,193.43978349999998,193.43978349999998,193.43978349999998,001,P002,2025_Jan_18_0916,ConditionRich,2021.2.3,59.93863482558472,
141.75,142.0,41,0.0,Stimuli/Blank.png,0,0,0.0,0,245,245,245,,,,,,,,,,,,,141.7576171999999,0.007617199999913282,None,,194.1904528,194.1904528,194.1904528,194.1904528,194.1904528,194.1904528,194.1904528,194.1904528,194.1904528,194.1904528,001,P002,2025_Jan_18_0916,ConditionRich,2021.2.3,59.93863482558472,
142.0,142.75,16,0.75,Stimuli/P002/sun_biqyomkjbujnppuf.jpg,0,0,0.0,0,246,246,246,,,,,,,,,,,,,142.00785159999987,0.007851599999867176,None,,194.4406743000004,194.4406743000004,194.4406743000004,194.4406743000004,194.4406743000004,194.4406743000004,194.4406743000004,194.4406743000004,194.4406743000004,194.4406743000004,001,P002,2025_Jan_18_0916,ConditionRich,2021.2.3,59.93863482558472,
142.75,143.0,41,0.0,Stimuli/Blank.png,0,0,0.0,0,247,247,247,,,,,,,,,,,,,142.7586137999997,0.008613799999693583,None,,195.1913257000001,195.1913257000001,195.1913257000001,195.1913257000001,195.1913257000001,195.1913257000001,195.1913257000001,195.1913257000001,195.1913257000001,195.1913257000001,001,P002,2025_Jan_18_0916,ConditionRich,2021.2.3,59.93863482558472,
143.0,143.75,16,0.75,Stimuli/P002/sun_biqyomkjbujnppuf.jpg,1,0,0.75,0,248,248,248,,,,,,,,,,,,,143.00889879999977,0.008898799999769835,1,0.42285450000008495,195.4582306000002,195.4582306000002,195.4582306000002,195.4582306000002,195.4582306000002,195.4582306000002,195.4582306000002,196.1755237000002,195.4582306000002,195.4582306000002,001,P002,2025_Jan_18_0916,ConditionRich,2021.2.3,59.93863482558472,
143.75,144.0,41,0.0,Stimuli/Blank.png,0,0,0.0,0,249,249,249,,,,,,,,,,,,,143.77580169999965,0.0258016999996471,None,,196.20888190000005,196.20888190000005,196.20888190000005,196.20888190000005,196.20888190000005,196.20888190000005,196.20888190000005,196.20888190000005,196.20888190000005,196.20888190000005,001,P002,2025_Jan_18_0916,ConditionRich,2021.2.3,59.93863482558472,
144.0,144.75,8,0.75,Stimuli/P002/sun_asqboyqakusycvwd.jpg,0,0,0.0,0,250,250,250,,,,,,,,,,,,,144.0090212,0.009021200000006502,None,,196.4591144000001,196.4591144000001,196.4591144000001,196.4591144000001,196.4591144000001,196.4591144000001,196.4591144000001,196.4591144000001,196.4591144000001,196.4591144000001,001,P002,2025_Jan_18_0916,ConditionRich,2021.2.3,59.93863482558472,
144.75,145.0,41,0.0,Stimuli/Blank.png,0,0,0.0,0,251,251,251,,,,,,,,,,,,,144.7768590999999,0.02685909999991054,None,,197.20976550000023,197.20976550000023,197.20976550000023,197.20976550000023,197.20976550000023,197.20976550000023,197.20976550000023,197.20976550000023,197.20976550000023,197.20976550000023,001,P002,2025_Jan_18_0916,ConditionRich,2021.2.3,59.93863482558472,
145.0,145.75,8,0.75,Stimuli/P002/sun_asqboyqakusycvwd.jpg,0,0,0.0,0,252,252,252,,,,,,,,,,,,,145.01215309999998,0.012153099999977712,None,,197.4599876000002,197.4599876000002,197.4599876000002,197.4599876000002,197.4599876000002,197.4599876000002,197.4599876000002,197.4599876000002,197.4599876000002,197.4599876000002,001,P002,2025_Jan_18_0916,ConditionRich,2021.2.3,59.93863482558472,
145.75,146.0,41,0.0,Stimuli/Blank.png,0,0,0.0,0,253,253,253,,,,,,,,,,,,,145.77726429999984,0.02726429999984248,5,0.20113649999984773,198.21065130000034,198.21065130000034,198.21065130000034,198.21065130000034,198.21065130000034,198.21065130000034,198.21065130000034,198.21065130000034,198.21065130000034,198.21065130000034,001,P002,2025_Jan_18_0916,ConditionRich,2021.2.3,59.93863482558472,
146.0,146.75,8,0.75,Stimuli/P002/sun_asqboyqakusycvwd.jpg,0,0,0.0,0,254,254,254,,,,,,,,,,,,,146.01079749999963,0.01079749999962587,None,,198.44420420000006,198.44420420000006,198.44420420000006,198.44420420000006,198.44420420000006,198.44420420000006,198.44420420000006,198.44420420000006,198.44420420000006,198.44420420000006,001,P002,2025_Jan_18_0916,ConditionRich,2021.2.3,59.93863482558472,
146.75,147.0,41,0.0,Stimuli/Blank.png,0,0,0.0,0,255,255,255,,,,,,,,,,,,,146.76172569999972,0.011725699999715289,None,,199.19485759999998,199.19485759999998,199.19485759999998,199.19485759999998,199.19485759999998,199.19485759999998,199.19485759999998,199.19485759999998,199.19485759999998,199.19485759999998,001,P002,2025_Jan_18_0916,ConditionRich,2021.2.3,59.93863482558472,
147.0,147.75,8,0.75,Stimuli/P002/sun_asqboyqakusycvwd.jpg,0,0,0.0,0,256,256,256,,,,,,,,,,,,,147.01207279999971,0.012072799999714334,None,,199.4450635000003,199.4450635000003,199.4450635000003,199.4450635000003,199.4450635000003,199.4450635000003,199.4450635000003,199.4450635000003,199.4450635000003,199.4450635000003,001,P002,2025_Jan_18_0916,ConditionRich,2021.2.3,59.93863482558472,
147.75,148.0,41,0.0,Stimuli/Blank.png,0,0,0.0,0,257,257,257,,,,,,,,,,,,,147.76220639999974,0.012206399999740825,5,0.21614900000031412,200.1957266000004,200.1957266000004,200.1957266000004,200.1957266000004,200.1957266000004,200.1957266000004,200.1957266000004,200.1957266000004,200.1957266000004,200.1957266000004,001,P002,2025_Jan_18_0916,ConditionRich,2021.2.3,59.93863482558472,
148.0,148.75,34,0.75,Stimuli/P002/things_parrot_01b.jpg,0,0,0.0,0,258,258,258,,,,,,,,,,,,,148.01239029999988,0.012390299999879062,None,,200.46267430000034,200.46267430000034,200.46267430000034,200.46267430000034,200.46267430000034,200.46267430000034,200.46267430000034,200.46267430000034,200.46267430000034,200.46267430000034,001,P002,2025_Jan_18_0916,ConditionRich,2021.2.3,59.93863482558472,
148.75,149.0,41,0.0,Stimuli/Blank.png,0,0,0.0,0,259,259,259,,,,,,,,,,,,,148.78264509999963,0.032645099999626837,None,,201.22997310000028,201.22997310000028,201.22997310000028,201.22997310000028,201.22997310000028,201.22997310000028,201.22997310000028,201.22997310000028,201.22997310000028,201.22997310000028,001,P002,2025_Jan_18_0916,ConditionRich,2021.2.3,59.93863482558472,
149.0,149.75,34,0.75,Stimuli/P002/things_parrot_01b.jpg,0,0,0.0,0,260,260,260,,,,,,,,,,,,,149.0140695,0.014069500000005064,None,,201.44682710000006,201.44682710000006,201.44682710000006,201.44682710000006,201.44682710000006,201.44682710000006,201.44682710000006,201.44682710000006,201.44682710000006,201.44682710000006,001,P002,2025_Jan_18_0916,ConditionRich,2021.2.3,59.93863482558472,
149.75,150.0,41,0.0,Stimuli/Blank.png,0,0,0.0,0,261,261,261,,,,,,,,,,,,,149.76404379999985,0.014043799999853945,5,0.2142548000001625,202.19748700000036,202.19748700000036,202.19748700000036,202.19748700000036,202.19748700000036,202.19748700000036,202.19748700000036,202.19748700000036,202.19748700000036,202.19748700000036,001,P002,2025_Jan_18_0916,ConditionRich,2021.2.3,59.93863482558472,
