eventStartTime,eventEndTime,eventCond,imSize,imFile,responseEvent,fixRespStart,fixRespEnd,Events.thisRepN,Events.thisTrialN,Events.thisN,Events.thisIndex,Instructions.started,Instructions.stopped,participantReadyResponse.keys,participantReadyResponse.rt,participantReadyResponse.started,participantReadyResponse.stopped,startWaitforTrigger,triggerResponse.keys,triggerResponse.rt,triggerResponse.started,triggerResponse.stopped,globalTimer,actualStartTime,startTimingDiff,participantResponse.keys,participantResponse.rt,participantResponse.started,participantResponse.stopped,image.started,image.stopped,fixationOutside.started,fixationOutside.stopped,fixationResponse.started,fixationResponse.stopped,fixationInside.started,fixationInside.stopped,session,participant,date,expName,psychopyVersion,frameRate,
,,,,,,,,,,,,11.84479199999987,None,1,3.4056132999999136,11.84479199999987,None,,,,,,,,,,,,,,,,,,,,,004,P002,2025_Jan_18_0945,ConditionRich,2021.2.3,60.01125811205616,
,,,,,,,,,,,,,,,,,,15.264816699999756,5,13.596238199999789,15.278231199999937,None,,,,,,,,,,,,,,,,004,P002,2025_Jan_18_0945,ConditionRich,2021.2.3,60.01125811205616,
0.0,4.0,0,0.0,Stimuli/Blank.png,0,0,0.0,0,0,0,0,,,,,,,,,,,,28.876702399999886,0.05049360000020897,0.05049360000020897,5,1.9340855000000374,28.940259999999853,None,28.940259999999853,None,28.940259999999853,None,28.940259999999853,28.940259999999853,28.940259999999853,None,004,P002,2025_Jan_18_0945,ConditionRich,2021.2.3,60.01125811205616,
4.0,4.75,29,0.75,Stimuli/P002/things_grinder_01b.jpg,0,0,0.0,0,1,1,1,,,,,,,,,,,,,4.004184400000213,0.004184400000212918,None,,32.910682799999904,32.910682799999904,32.910682799999904,32.910682799999904,32.910682799999904,32.910682799999904,32.910682799999904,32.910682799999904,32.910682799999904,32.910682799999904,004,P002,2025_Jan_18_0945,ConditionRich,2021.2.3,60.01125811205616,
4.75,5.0,41,0.0,Stimuli/Blank.png,0,0,0.0,0,2,2,2,,,,,,,,,,,,,4.77065760000005,0.02065760000004957,None,,33.661432200000036,33.661432200000036,33.661432200000036,33.661432200000036,33.661432200000036,33.661432200000036,33.661432200000036,33.661432200000036,33.661432200000036,33.661432200000036,004,P002,2025_Jan_18_0945,ConditionRich,2021.2.3,60.01125811205616,
5.0,5.75,29,0.75,Stimuli/P002/things_grinder_01b.jpg,0,0,0.0,0,3,3,3,,,,,,,,,,,,,5.004653200000121,0.004653200000120705,None,,33.91130139999996,33.91130139999996,33.91130139999996,33.91130139999996,33.91130139999996,33.91130139999996,33.91130139999996,33.91130139999996,33.91130139999996,33.91130139999996,004,P002,2025_Jan_18_0945,ConditionRich,2021.2.3,60.01125811205616,
5.75,6.0,41,0.0,Stimuli/Blank.png,0,0,0.0,0,4,4,4,,,,,,,,,,,,,5.771131400000286,0.021131400000285794,None,,34.66196609999997,34.66196609999997,34.66196609999997,34.66196609999997,34.66196609999997,34.66196609999997,34.66196609999997,34.66196609999997,34.66196609999997,34.66196609999997,004,P002,2025_Jan_18_0945,ConditionRich,2021.2.3,60.01125811205616,
6.0,6.75,29,0.75,Stimuli/P002/things_grinder_01b.jpg,0,0,0.0,0,5,5,5,,,,,,,,,,,,,6.0049895000001925,0.004989500000192493,None,,34.912188199999946,34.912188199999946,34.912188199999946,34.912188199999946,34.912188199999946,34.912188199999946,34.912188199999946,34.912188199999946,34.912188199999946,34.912188199999946,004,P002,2025_Jan_18_0945,ConditionRich,2021.2.3,60.01125811205616,
6.75,7.0,41,0.0,Stimuli/Blank.png,0,0,0.0,0,6,6,6,,,,,,,,,,,,,6.772443199999998,0.022443199999997887,None,,35.66292539999995,35.66292539999995,35.66292539999995,35.66292539999995,35.66292539999995,35.66292539999995,35.66292539999995,35.66292539999995,35.66292539999995,35.66292539999995,004,P002,2025_Jan_18_0945,ConditionRich,2021.2.3,60.01125811205616,
7.0,7.75,29,0.75,Stimuli/P002/things_grinder_01b.jpg,0,0,0.0,0,7,7,7,,,,,,,,,,,,,7.005824900000334,0.00582490000033431,None,,35.89638509999986,35.89638509999986,35.89638509999986,35.89638509999986,35.89638509999986,35.89638509999986,35.89638509999986,35.89638509999986,35.89638509999986,35.89638509999986,004,P002,2025_Jan_18_0945,ConditionRich,2021.2.3,60.01125811205616,
7.75,8.0,41,0.0,Stimuli/Blank.png,0,0,0.0,0,8,8,8,,,,,,,,,,,,,7.755705200000193,0.005705200000193145,None,,36.64704070000016,36.64704070000016,36.64704070000016,36.64704070000016,36.64704070000016,36.64704070000016,36.64704070000016,36.64704070000016,36.64704070000016,36.64704070000016,004,P002,2025_Jan_18_0945,ConditionRich,2021.2.3,60.01125811205616,
8.0,8.75,5,0.75,Stimuli/P002/sun_apwzcrxhvvnrexjh.jpg,0,0,0.0,0,9,9,9,,,,,,,,,,,,,8.006736799999999,0.006736799999998766,None,,36.89727119999998,36.89727119999998,36.89727119999998,36.89727119999998,36.89727119999998,36.89727119999998,36.89727119999998,36.89727119999998,36.89727119999998,36.89727119999998,004,P002,2025_Jan_18_0945,ConditionRich,2021.2.3,60.01125811205616,
8.75,9.0,41,0.0,Stimuli/Blank.png,0,0,0.0,0,10,10,10,,,,,,,,,,,,,8.756728900000326,0.006728900000325666,None,,37.64792059999991,37.64792059999991,37.64792059999991,37.64792059999991,37.64792059999991,37.64792059999991,37.64792059999991,37.64792059999991,37.64792059999991,37.64792059999991,004,P002,2025_Jan_18_0945,ConditionRich,2021.2.3,60.01125811205616,
9.0,9.75,5,0.75,Stimuli/P002/sun_apwzcrxhvvnrexjh.jpg,0,0,0.0,0,11,11,11,,,,,,,,,,,,,9.007059800000206,0.007059800000206451,None,,37.91483629999993,37.91483629999993,37.91483629999993,37.91483629999993,37.91483629999993,37.91483629999993,37.91483629999993,37.91483629999993,37.91483629999993,37.91483629999993,004,P002,2025_Jan_18_0945,ConditionRich,2021.2.3,60.01125811205616,
9.75,10.0,41,0.0,Stimuli/Blank.png,0,0,0.0,0,12,12,12,,,,,,,,,,,,,9.775030000000243,0.02503000000024258,None,,38.665486299999884,38.665486299999884,38.665486299999884,38.665486299999884,38.665486299999884,38.665486299999884,38.665486299999884,38.665486299999884,38.665486299999884,38.665486299999884,004,P002,2025_Jan_18_0945,ConditionRich,2021.2.3,60.01125811205616,
10.0,10.75,5,0.75,Stimuli/P002/sun_apwzcrxhvvnrexjh.jpg,0,0,0.0,0,13,13,13,,,,,,,,,,,,,10.008827100000417,0.008827100000416976,None,,38.89899890000015,38.89899890000015,38.89899890000015,38.89899890000015,38.89899890000015,38.89899890000015,38.89899890000015,38.89899890000015,38.89899890000015,38.89899890000015,004,P002,2025_Jan_18_0945,ConditionRich,2021.2.3,60.01125811205616,
10.75,11.0,41,0.0,Stimuli/Blank.png,0,0,0.0,0,14,14,14,,,,,,,,,,,,,10.761302700000215,0.011302700000214827,None,,39.66639699999996,39.66639699999996,39.66639699999996,39.66639699999996,39.66639699999996,39.66639699999996,39.66639699999996,39.66639699999996,39.66639699999996,39.66639699999996,004,P002,2025_Jan_18_0945,ConditionRich,2021.2.3,60.01125811205616,
11.0,11.75,5,0.75,Stimuli/P002/sun_apwzcrxhvvnrexjh.jpg,0,0,0.0,0,15,15,15,,,,,,,,,,,,,11.026158600000144,0.02615860000014436,None,,39.91657170000008,39.91657170000008,39.91657170000008,39.91657170000008,39.91657170000008,39.91657170000008,39.91657170000008,39.91657170000008,39.91657170000008,39.91657170000008,004,P002,2025_Jan_18_0945,ConditionRich,2021.2.3,60.01125811205616,
11.75,12.0,41,0.0,Stimuli/Blank.png,0,0,0.0,0,16,16,16,,,,,,,,,,,,,11.759684800000286,0.009684800000286486,None,,40.65056539999978,40.65056539999978,40.65056539999978,40.65056539999978,40.65056539999978,40.65056539999978,40.65056539999978,40.65056539999978,40.65056539999978,40.65056539999978,004,P002,2025_Jan_18_0945,ConditionRich,2021.2.3,60.01125811205616,
12.0,12.75,24,0.75,Stimuli/P002/things_cornucopia_01b.jpg,0,0,0.0,0,17,17,17,,,,,,,,,,,,,12.01022090000015,0.010220900000149413,None,,40.900789899999836,40.900789899999836,40.900789899999836,40.900789899999836,40.900789899999836,40.900789899999836,40.900789899999836,40.900789899999836,40.900789899999836,40.900789899999836,004,P002,2025_Jan_18_0945,ConditionRich,2021.2.3,60.01125811205616,
12.75,13.0,41,0.0,Stimuli/Blank.png,0,0,0.0,0,18,18,18,,,,,,,,,,,,,12.760622400000102,0.010622400000102061,None,,41.65144499999997,41.65144499999997,41.65144499999997,41.65144499999997,41.65144499999997,41.65144499999997,41.65144499999997,41.65144499999997,41.65144499999997,41.65144499999997,004,P002,2025_Jan_18_0945,ConditionRich,2021.2.3,60.01125811205616,
13.0,13.75,24,0.75,Stimuli/P002/things_cornucopia_01b.jpg,0,0,0.0,0,19,19,19,,,,,,,,,,,,,13.01152600000023,0.011526000000230852,None,,41.91834250000011,41.91834250000011,41.91834250000011,41.91834250000011,41.91834250000011,41.91834250000011,41.91834250000011,41.91834250000011,41.91834250000011,41.91834250000011,004,P002,2025_Jan_18_0945,ConditionRich,2021.2.3,60.01125811205616,
13.75,14.0,41,0.0,Stimuli/Blank.png,0,0,0.0,0,20,20,20,,,,,,,,,,,,,13.77787780000017,0.027877800000169373,None,,42.66907200000014,42.66907200000014,42.66907200000014,42.66907200000014,42.66907200000014,42.66907200000014,42.66907200000014,42.66907200000014,42.66907200000014,42.66907200000014,004,P002,2025_Jan_18_0945,ConditionRich,2021.2.3,60.01125811205616,
14.0,14.75,24,0.75,Stimuli/P002/things_cornucopia_01b.jpg,0,0,0.0,0,21,21,21,,,,,,,,,,,,,14.011723000000075,0.011723000000074535,None,,42.90276210000002,42.90276210000002,42.90276210000002,42.90276210000002,42.90276210000002,42.90276210000002,42.90276210000002,42.90276210000002,42.90276210000002,42.90276210000002,004,P002,2025_Jan_18_0945,ConditionRich,2021.2.3,60.01125811205616,
14.75,15.0,41,0.0,Stimuli/Blank.png,0,0,0.0,0,22,22,22,,,,,,,,,,,,,14.762723300000289,0.012723300000288873,None,,43.653207700000166,43.653207700000166,43.653207700000166,43.653207700000166,43.653207700000166,43.653207700000166,43.653207700000166,43.653207700000166,43.653207700000166,43.653207700000166,004,P002,2025_Jan_18_0945,ConditionRich,2021.2.3,60.01125811205616,
15.0,15.75,24,0.75,Stimuli/P002/things_cornucopia_01b.jpg,0,0,0.0,0,23,23,23,,,,,,,,,,,,,15.012951200000316,0.012951200000316021,None,,43.92012019999993,43.92012019999993,43.92012019999993,43.92012019999993,43.92012019999993,43.92012019999993,43.92012019999993,43.92012019999993,43.92012019999993,43.92012019999993,004,P002,2025_Jan_18_0945,ConditionRich,2021.2.3,60.01125811205616,
15.75,16.0,41,0.0,Stimuli/Blank.png,0,0,0.0,0,24,24,24,,,,,,,,,,,,,15.779900100000305,0.02990010000030452,None,,44.67076640000005,44.67076640000005,44.67076640000005,44.67076640000005,44.67076640000005,44.67076640000005,44.67076640000005,44.67076640000005,44.67076640000005,44.67076640000005,004,P002,2025_Jan_18_0945,ConditionRich,2021.2.3,60.01125811205616,
16.0,16.75,13,0.75,Stimuli/P002/sun_bfdmlbkyioxnkodb.jpg,0,0,0.0,0,25,25,25,,,,,,,,,,,,,16.013224300000275,0.013224300000274525,None,,44.904302200000075,44.904302200000075,44.904302200000075,44.904302200000075,44.904302200000075,44.904302200000075,44.904302200000075,44.904302200000075,44.904302200000075,44.904302200000075,004,P002,2025_Jan_18_0945,ConditionRich,2021.2.3,60.01125811205616,
16.75,17.0,41,0.0,Stimuli/Blank.png,0,0,0.0,0,26,26,26,,,,,,,,,,,,,16.76615290000018,0.016152900000179216,None,,45.671657400000186,45.671657400000186,45.671657400000186,45.671657400000186,45.671657400000186,45.671657400000186,45.671657400000186,45.671657400000186,45.671657400000186,45.671657400000186,004,P002,2025_Jan_18_0945,ConditionRich,2021.2.3,60.01125811205616,
17.0,17.75,13,0.75,Stimuli/P002/sun_bfdmlbkyioxnkodb.jpg,0,0,0.0,0,27,27,27,,,,,,,,,,,,,17.014985900000283,0.014985900000283436,None,,45.92188709999982,45.92188709999982,45.92188709999982,45.92188709999982,45.92188709999982,45.92188709999982,45.92188709999982,45.92188709999982,45.92188709999982,45.92188709999982,004,P002,2025_Jan_18_0945,ConditionRich,2021.2.3,60.01125811205616,
17.75,18.0,41,0.0,Stimuli/Blank.png,0,0,0.0,0,28,28,28,,,,,,,,,,,,,17.765333700000156,0.015333700000155659,5,0.21852139999964493,46.655858499999795,46.655858499999795,46.655858499999795,46.655858499999795,46.655858499999795,46.655858499999795,46.655858499999795,46.655858499999795,46.655858499999795,46.655858499999795,004,P002,2025_Jan_18_0945,ConditionRich,2021.2.3,60.01125811205616,
18.0,18.75,13,0.75,Stimuli/P002/sun_bfdmlbkyioxnkodb.jpg,0,0,0.0,0,29,29,29,,,,,,,,,,,,,18.0148535000003,0.014853500000299391,None,,46.90606990000015,46.90606990000015,46.90606990000015,46.90606990000015,46.90606990000015,46.90606990000015,46.90606990000015,46.90606990000015,46.90606990000015,46.90606990000015,004,P002,2025_Jan_18_0945,ConditionRich,2021.2.3,60.01125811205616,
18.75,19.0,41,0.0,Stimuli/Blank.png,0,0,0.0,0,30,30,30,,,,,,,,,,,,,18.765733300000193,0.015733300000192685,None,,47.656730100000004,47.656730100000004,47.656730100000004,47.656730100000004,47.656730100000004,47.656730100000004,47.656730100000004,47.656730100000004,47.656730100000004,47.656730100000004,004,P002,2025_Jan_18_0945,ConditionRich,2021.2.3,60.01125811205616,
19.0,19.75,13,0.75,Stimuli/P002/sun_bfdmlbkyioxnkodb.jpg,0,0,0.0,0,31,31,31,,,,,,,,,,,,,18.999674600000162,-0.00032539999983782764,None,,47.89027739999983,47.89027739999983,47.89027739999983,47.89027739999983,47.89027739999983,47.89027739999983,47.89027739999983,47.89027739999983,47.89027739999983,47.89027739999983,004,P002,2025_Jan_18_0945,ConditionRich,2021.2.3,60.01125811205616,
19.75,20.0,41,0.0,Stimuli/Blank.png,0,0,0.0,0,32,32,32,,,,,,,,,,,,,19.751000100000056,0.0010001000000556814,None,,48.64093460000004,48.64093460000004,48.64093460000004,48.64093460000004,48.64093460000004,48.64093460000004,48.64093460000004,48.64093460000004,48.64093460000004,48.64093460000004,004,P002,2025_Jan_18_0945,ConditionRich,2021.2.3,60.01125811205616,
20.0,20.75,2,0.75,Stimuli/P002/sun_akmxsxepquhynflp.jpg,0,0,0.0,0,33,33,33,,,,,,,,,,,,,19.999787800000377,-0.00021219999962340808,None,,48.89114870000003,48.89114870000003,48.89114870000003,48.89114870000003,48.89114870000003,48.89114870000003,48.89114870000003,48.89114870000003,48.89114870000003,48.89114870000003,004,P002,2025_Jan_18_0945,ConditionRich,2021.2.3,60.01125811205616,
20.75,21.0,41,0.0,Stimuli/Blank.png,0,0,0.0,0,34,34,34,,,,,,,,,,,,,20.751148600000306,0.0011486000003060326,None,,49.641812200000004,49.641812200000004,49.641812200000004,49.641812200000004,49.641812200000004,49.641812200000004,49.641812200000004,49.641812200000004,49.641812200000004,49.641812200000004,004,P002,2025_Jan_18_0945,ConditionRich,2021.2.3,60.01125811205616,
21.0,21.75,2,0.75,Stimuli/P002/sun_akmxsxepquhynflp.jpg,0,0,0.0,0,35,35,35,,,,,,,,,,,,,21.00150020000001,0.0015002000000094995,None,,49.892062200000055,49.892062200000055,49.892062200000055,49.892062200000055,49.892062200000055,49.892062200000055,49.892062200000055,49.892062200000055,49.892062200000055,49.892062200000055,004,P002,2025_Jan_18_0945,ConditionRich,2021.2.3,60.01125811205616,
21.75,22.0,41,0.0,Stimuli/Blank.png,0,0,0.0,0,36,36,36,,,,,,,,,,,,,21.752275300000292,0.002275300000292191,None,,50.64268600000014,50.64268600000014,50.64268600000014,50.64268600000014,50.64268600000014,50.64268600000014,50.64268600000014,50.64268600000014,50.64268600000014,50.64268600000014,004,P002,2025_Jan_18_0945,ConditionRich,2021.2.3,60.01125811205616,
22.0,22.75,2,0.75,Stimuli/P002/sun_akmxsxepquhynflp.jpg,0,0,0.0,0,37,37,37,,,,,,,,,,,,,22.0016399000001,0.0016399000001001696,None,,50.892907599999944,50.892907599999944,50.892907599999944,50.892907599999944,50.892907599999944,50.892907599999944,50.892907599999944,50.892907599999944,50.892907599999944,50.892907599999944,004,P002,2025_Jan_18_0945,ConditionRich,2021.2.3,60.01125811205616,
22.75,23.0,41,0.0,Stimuli/Blank.png,0,0,0.0,0,38,38,38,,,,,,,,,,,,,22.75255720000041,0.0025572000004103757,None,,51.64365659999976,51.64365659999976,51.64365659999976,51.64365659999976,51.64365659999976,51.64365659999976,51.64365659999976,51.64365659999976,51.64365659999976,51.64365659999976,004,P002,2025_Jan_18_0945,ConditionRich,2021.2.3,60.01125811205616,
23.0,23.75,2,0.75,Stimuli/P002/sun_akmxsxepquhynflp.jpg,0,0,0.0,0,39,39,39,,,,,,,,,,,,,23.0028712000003,0.002871200000299723,None,,51.8937934999999,51.8937934999999,51.8937934999999,51.8937934999999,51.8937934999999,51.8937934999999,51.8937934999999,51.8937934999999,51.8937934999999,51.8937934999999,004,P002,2025_Jan_18_0945,ConditionRich,2021.2.3,60.01125811205616,
23.75,24.0,41,0.0,Stimuli/Blank.png,0,0,0.0,0,40,40,40,,,,,,,,,,,,,23.75385720000031,0.0038572000003114226,None,,52.64449569999988,52.64449569999988,52.64449569999988,52.64449569999988,52.64449569999988,52.64449569999988,52.64449569999988,52.64449569999988,52.64449569999988,52.64449569999988,004,P002,2025_Jan_18_0945,ConditionRich,2021.2.3,60.01125811205616,
24.0,24.75,3,0.75,Stimuli/P002/sun_amarqtinchblqmah.jpg,1,0,0.75,0,41,41,41,,,,,,,,,,,,,24.00558880000017,0.005588800000168703,1,0.45618259999992006,52.91136340000003,52.91136340000003,52.91136340000003,52.91136340000003,52.91136340000003,52.91136340000003,52.91136340000003,53.645329200000106,52.91136340000003,52.91136340000003,004,P002,2025_Jan_18_0945,ConditionRich,2021.2.3,60.01125811205616,
24.75,25.0,41,0.0,Stimuli/Blank.png,0,0,0.0,0,42,42,42,,,,,,,,,,,,,24.771599400000014,0.021599400000013702,None,,53.662021000000095,53.662021000000095,53.662021000000095,53.662021000000095,53.662021000000095,53.662021000000095,53.662021000000095,53.662021000000095,53.662021000000095,53.662021000000095,004,P002,2025_Jan_18_0945,ConditionRich,2021.2.3,60.01125811205616,
25.0,25.75,3,0.75,Stimuli/P002/sun_amarqtinchblqmah.jpg,0,0,0.0,0,43,43,43,,,,,,,,,,,,,25.004727300000013,0.0047273000000132015,None,,53.89555109999992,53.89555109999992,53.89555109999992,53.89555109999992,53.89555109999992,53.89555109999992,53.89555109999992,53.89555109999992,53.89555109999992,53.89555109999992,004,P002,2025_Jan_18_0945,ConditionRich,2021.2.3,60.01125811205616,
25.75,26.0,41,0.0,Stimuli/Blank.png,0,0,0.0,0,44,44,44,,,,,,,,,,,,,25.755578700000115,0.0055787000001146225,5,0.2114412999999331,54.662923599999885,54.662923599999885,54.662923599999885,54.662923599999885,54.662923599999885,54.662923599999885,54.662923599999885,54.662923599999885,54.662923599999885,54.662923599999885,004,P002,2025_Jan_18_0945,ConditionRich,2021.2.3,60.01125811205616,
26.0,26.75,3,0.75,Stimuli/P002/sun_amarqtinchblqmah.jpg,0,0,0.0,0,45,45,45,,,,,,,,,,,,,26.02228570000034,0.022285700000338693,None,,54.929804200000035,54.929804200000035,54.929804200000035,54.929804200000035,54.929804200000035,54.929804200000035,54.929804200000035,54.929804200000035,54.929804200000035,54.929804200000035,004,P002,2025_Jan_18_0945,ConditionRich,2021.2.3,60.01125811205616,
26.75,27.0,41,0.0,Stimuli/Blank.png,0,0,0.0,0,46,46,46,,,,,,,,,,,,,26.775419300000067,0.02541930000006687,None,,55.680463300000156,55.680463300000156,55.680463300000156,55.680463300000156,55.680463300000156,55.680463300000156,55.680463300000156,55.680463300000156,55.680463300000156,55.680463300000156,004,P002,2025_Jan_18_0945,ConditionRich,2021.2.3,60.01125811205616,
27.0,27.75,3,0.75,Stimuli/P002/sun_amarqtinchblqmah.jpg,0,0,0.0,0,47,47,47,,,,,,,,,,,,,27.022763400000258,0.022763400000258116,None,,55.913991800000076,55.913991800000076,55.913991800000076,55.913991800000076,55.913991800000076,55.913991800000076,55.913991800000076,55.913991800000076,55.913991800000076,55.913991800000076,004,P002,2025_Jan_18_0945,ConditionRich,2021.2.3,60.01125811205616,
27.75,28.0,41,0.0,Stimuli/Blank.png,0,0,0.0,0,48,48,48,,,,,,,,,,,,,27.756792000000132,0.006792000000132248,None,,56.647976299999755,56.647976299999755,56.647976299999755,56.647976299999755,56.647976299999755,56.647976299999755,56.647976299999755,56.647976299999755,56.647976299999755,56.647976299999755,004,P002,2025_Jan_18_0945,ConditionRich,2021.2.3,60.01125811205616,
28.0,28.75,17,0.75,Stimuli/P002/sun_bshgmgbmpvjkxfis.jpg,0,0,0.0,0,49,49,49,,,,,,,,,,,,,28.00789930000019,0.007899300000190124,None,,56.914882300000045,56.914882300000045,56.914882300000045,56.914882300000045,56.914882300000045,56.914882300000045,56.914882300000045,56.914882300000045,56.914882300000045,56.914882300000045,004,P002,2025_Jan_18_0945,ConditionRich,2021.2.3,60.01125811205616,
28.75,29.0,41,0.0,Stimuli/Blank.png,0,0,0.0,0,50,50,50,,,,,,,,,,,,,28.775674400000298,0.025674400000298192,None,,57.66554120000001,57.66554120000001,57.66554120000001,57.66554120000001,57.66554120000001,57.66554120000001,57.66554120000001,57.66554120000001,57.66554120000001,57.66554120000001,004,P002,2025_Jan_18_0945,ConditionRich,2021.2.3,60.01125811205616,
29.0,29.75,17,0.75,Stimuli/P002/sun_bshgmgbmpvjkxfis.jpg,0,0,0.0,0,51,51,51,,,,,,,,,,,,,29.010513900000205,0.010513900000205467,None,,57.91576010000017,57.91576010000017,57.91576010000017,57.91576010000017,57.91576010000017,57.91576010000017,57.91576010000017,57.91576010000017,57.91576010000017,57.91576010000017,004,P002,2025_Jan_18_0945,ConditionRich,2021.2.3,60.01125811205616,
29.75,30.0,41,0.0,Stimuli/Blank.png,0,0,0.0,0,52,52,52,,,,,,,,,,,,,29.775754000000234,0.025754000000233646,None,,58.6664310000001,58.6664310000001,58.6664310000001,58.6664310000001,58.6664310000001,58.6664310000001,58.6664310000001,58.6664310000001,58.6664310000001,58.6664310000001,004,P002,2025_Jan_18_0945,ConditionRich,2021.2.3,60.01125811205616,
30.0,30.75,17,0.75,Stimuli/P002/sun_bshgmgbmpvjkxfis.jpg,0,0,0.0,0,53,53,53,,,,,,,,,,,,,30.009577100000115,0.009577100000115024,None,,58.899960700000065,58.899960700000065,58.899960700000065,58.899960700000065,58.899960700000065,58.899960700000065,58.899960700000065,58.899960700000065,58.899960700000065,58.899960700000065,004,P002,2025_Jan_18_0945,ConditionRich,2021.2.3,60.01125811205616,
30.75,31.0,41,0.0,Stimuli/Blank.png,0,0,0.0,0,54,54,54,,,,,,,,,,,,,30.760128700000223,0.010128700000223034,None,,59.65063199999986,59.65063199999986,59.65063199999986,59.65063199999986,59.65063199999986,59.65063199999986,59.65063199999986,59.65063199999986,59.65063199999986,59.65063199999986,004,P002,2025_Jan_18_0945,ConditionRich,2021.2.3,60.01125811205616,
31.0,31.75,17,0.75,Stimuli/P002/sun_bshgmgbmpvjkxfis.jpg,0,0,0.0,0,55,55,55,,,,,,,,,,,,,31.01046000000042,0.010460000000421132,None,,59.90084879999995,59.90084879999995,59.90084879999995,59.90084879999995,59.90084879999995,59.90084879999995,59.90084879999995,59.90084879999995,59.90084879999995,59.90084879999995,004,P002,2025_Jan_18_0945,ConditionRich,2021.2.3,60.01125811205616,
31.75,32.0,41,0.0,Stimuli/Blank.png,0,0,0.0,0,56,56,56,,,,,,,,,,,,,31.761185300000307,0.011185300000306597,None,,60.65150829999993,60.65150829999993,60.65150829999993,60.65150829999993,60.65150829999993,60.65150829999993,60.65150829999993,60.65150829999993,60.65150829999993,60.65150829999993,004,P002,2025_Jan_18_0945,ConditionRich,2021.2.3,60.01125811205616,
32.0,32.75,26,0.75,Stimuli/P002/things_dish_01b.jpg,0,0,0.0,0,57,57,57,,,,,,,,,,,,,32.01113350000014,0.011133500000141794,None,,60.918396799999755,60.918396799999755,60.918396799999755,60.918396799999755,60.918396799999755,60.918396799999755,60.918396799999755,60.918396799999755,60.918396799999755,60.918396799999755,004,P002,2025_Jan_18_0945,ConditionRich,2021.2.3,60.01125811205616,
32.75,33.0,41,0.0,Stimuli/Blank.png,0,0,0.0,0,58,58,58,,,,,,,,,,,,,32.78011030000016,0.03011030000016035,None,,61.68575529999998,61.68575529999998,61.68575529999998,61.68575529999998,61.68575529999998,61.68575529999998,61.68575529999998,61.68575529999998,61.68575529999998,61.68575529999998,004,P002,2025_Jan_18_0945,ConditionRich,2021.2.3,60.01125811205616,
33.0,33.75,26,0.75,Stimuli/P002/things_dish_01b.jpg,0,0,0.0,0,59,59,59,,,,,,,,,,,,,33.03044680000039,0.030446800000390795,None,,61.93596209999987,61.93596209999987,61.93596209999987,61.93596209999987,61.93596209999987,61.93596209999987,61.93596209999987,61.93596209999987,61.93596209999987,61.93596209999987,004,P002,2025_Jan_18_0945,ConditionRich,2021.2.3,60.01125811205616,
33.75,34.0,41,0.0,Stimuli/Blank.png,0,0,0.0,0,60,60,60,,,,,,,,,,,,,33.78145530000029,0.031455300000288844,5,0.18799779999972088,62.6866328000001,62.6866328000001,62.6866328000001,62.6866328000001,62.6866328000001,62.6866328000001,62.6866328000001,62.6866328000001,62.6866328000001,62.6866328000001,004,P002,2025_Jan_18_0945,ConditionRich,2021.2.3,60.01125811205616,
34.0,34.75,26,0.75,Stimuli/P002/things_dish_01b.jpg,0,0,0.0,0,61,61,61,,,,,,,,,,,,,34.02930340000012,0.029303400000117108,None,,62.92016209999974,62.92016209999974,62.92016209999974,62.92016209999974,62.92016209999974,62.92016209999974,62.92016209999974,62.92016209999974,62.92016209999974,62.92016209999974,004,P002,2025_Jan_18_0945,ConditionRich,2021.2.3,60.01125811205616,
34.75,35.0,41,0.0,Stimuli/Blank.png,0,0,0.0,0,62,62,62,,,,,,,,,,,,,34.76539580000008,0.015395800000078452,None,,63.67082909999999,63.67082909999999,63.67082909999999,63.67082909999999,63.67082909999999,63.67082909999999,63.67082909999999,63.67082909999999,63.67082909999999,63.67082909999999,004,P002,2025_Jan_18_0945,ConditionRich,2021.2.3,60.01125811205616,
35.0,35.75,26,0.75,Stimuli/P002/things_dish_01b.jpg,0,0,0.0,0,63,63,63,,,,,,,,,,,,,35.029651000000285,0.02965100000028542,None,,63.92104059999974,63.92104059999974,63.92104059999974,63.92104059999974,63.92104059999974,63.92104059999974,63.92104059999974,63.92104059999974,63.92104059999974,63.92104059999974,004,P002,2025_Jan_18_0945,ConditionRich,2021.2.3,60.01125811205616,
35.75,36.0,41,0.0,Stimuli/Blank.png,0,0,0.0,0,64,64,64,,,,,,,,,,,,,35.76579740000034,0.015797400000337802,None,,64.67170989999977,64.67170989999977,64.67170989999977,64.67170989999977,64.67170989999977,64.67170989999977,64.67170989999977,64.67170989999977,64.67170989999977,64.67170989999977,004,P002,2025_Jan_18_0945,ConditionRich,2021.2.3,60.01125811205616,
36.0,36.75,7,0.75,Stimuli/P002/sun_arlesyjqxmqmcccl.jpg,0,0,0.0,0,65,65,65,,,,,,,,,,,,,36.01393670000016,0.013936700000158453,None,,64.90524259999984,64.90524259999984,64.90524259999984,64.90524259999984,64.90524259999984,64.90524259999984,64.90524259999984,64.90524259999984,64.90524259999984,64.90524259999984,004,P002,2025_Jan_18_0945,ConditionRich,2021.2.3,60.01125811205616,
36.75,37.0,41,0.0,Stimuli/Blank.png,0,0,0.0,0,66,66,66,,,,,,,,,,,,,36.765529600000264,0.0155296000002636,None,,65.65591050000012,65.65591050000012,65.65591050000012,65.65591050000012,65.65591050000012,65.65591050000012,65.65591050000012,65.65591050000012,65.65591050000012,65.65591050000012,004,P002,2025_Jan_18_0945,ConditionRich,2021.2.3,60.01125811205616,
37.0,37.75,7,0.75,Stimuli/P002/sun_arlesyjqxmqmcccl.jpg,0,0,0.0,0,67,67,67,,,,,,,,,,,,,37.00029310000036,0.00029310000036275596,None,,65.90613050000002,65.90613050000002,65.90613050000002,65.90613050000002,65.90613050000002,65.90613050000002,65.90613050000002,65.90613050000002,65.90613050000002,65.90613050000002,004,P002,2025_Jan_18_0945,ConditionRich,2021.2.3,60.01125811205616,
37.75,38.0,41,0.0,Stimuli/Blank.png,0,0,0.0,0,68,68,68,,,,,,,,,,,,,37.766413000000284,0.016413000000284228,None,,66.65675400000009,66.65675400000009,66.65675400000009,66.65675400000009,66.65675400000009,66.65675400000009,66.65675400000009,66.65675400000009,66.65675400000009,66.65675400000009,004,P002,2025_Jan_18_0945,ConditionRich,2021.2.3,60.01125811205616,
38.0,38.75,7,0.75,Stimuli/P002/sun_arlesyjqxmqmcccl.jpg,0,0,0.0,0,69,69,69,,,,,,,,,,,,,37.99956650000013,-0.00043349999987185583,None,,66.89031729999988,66.89031729999988,66.89031729999988,66.89031729999988,66.89031729999988,66.89031729999988,66.89031729999988,66.89031729999988,66.89031729999988,66.89031729999988,004,P002,2025_Jan_18_0945,ConditionRich,2021.2.3,60.01125811205616,
38.75,39.0,41,0.0,Stimuli/Blank.png,0,0,0.0,0,70,70,70,,,,,,,,,,,,,38.75121500000023,0.0012150000002293382,None,,67.64098729999978,67.64098729999978,67.64098729999978,67.64098729999978,67.64098729999978,67.64098729999978,67.64098729999978,67.64098729999978,67.64098729999978,67.64098729999978,004,P002,2025_Jan_18_0945,ConditionRich,2021.2.3,60.01125811205616,
39.0,39.75,7,0.75,Stimuli/P002/sun_arlesyjqxmqmcccl.jpg,0,0,0.0,0,71,71,71,,,,,,,,,,,,,39.000564000000395,0.0005640000003950263,None,,67.90790160000006,67.90790160000006,67.90790160000006,67.90790160000006,67.90790160000006,67.90790160000006,67.90790160000006,67.90790160000006,67.90790160000006,67.90790160000006,004,P002,2025_Jan_18_0945,ConditionRich,2021.2.3,60.01125811205616,
39.75,40.0,41,0.0,Stimuli/Blank.png,0,0,0.0,0,72,72,72,,,,,,,,,,,,,39.768036700000266,0.018036700000266137,None,,68.65855839999995,68.65855839999995,68.65855839999995,68.65855839999995,68.65855839999995,68.65855839999995,68.65855839999995,68.65855839999995,68.65855839999995,68.65855839999995,004,P002,2025_Jan_18_0945,ConditionRich,2021.2.3,60.01125811205616,
40.0,40.75,8,0.75,Stimuli/P002/sun_asqboyqakusycvwd.jpg,0,0,0.0,0,73,73,73,,,,,,,,,,,,,40.00074380000024,0.0007438000002366607,None,,68.89208000000008,68.89208000000008,68.89208000000008,68.89208000000008,68.89208000000008,68.89208000000008,68.89208000000008,68.89208000000008,68.89208000000008,68.89208000000008,004,P002,2025_Jan_18_0945,ConditionRich,2021.2.3,60.01125811205616,
40.75,41.0,41,0.0,Stimuli/Blank.png,0,0,0.0,0,74,74,74,,,,,,,,,,,,,40.75178800000003,0.0017880000000332075,None,,69.6427450000001,69.6427450000001,69.6427450000001,69.6427450000001,69.6427450000001,69.6427450000001,69.6427450000001,69.6427450000001,69.6427450000001,69.6427450000001,004,P002,2025_Jan_18_0945,ConditionRich,2021.2.3,60.01125811205616,
41.0,41.75,8,0.75,Stimuli/P002/sun_asqboyqakusycvwd.jpg,0,0,0.0,0,75,75,75,,,,,,,,,,,,,41.002108500000304,0.0021085000003040477,None,,69.90968049999992,69.90968049999992,69.90968049999992,69.90968049999992,69.90968049999992,69.90968049999992,69.90968049999992,69.90968049999992,69.90968049999992,69.90968049999992,004,P002,2025_Jan_18_0945,ConditionRich,2021.2.3,60.01125811205616,
41.75,42.0,41,0.0,Stimuli/Blank.png,0,0,0.0,0,76,76,76,,,,,,,,,,,,,41.76978270000018,0.01978270000017801,None,,70.66030199999977,70.66030199999977,70.66030199999977,70.66030199999977,70.66030199999977,70.66030199999977,70.66030199999977,70.66030199999977,70.66030199999977,70.66030199999977,004,P002,2025_Jan_18_0945,ConditionRich,2021.2.3,60.01125811205616,
42.0,42.75,8,0.75,Stimuli/P002/sun_asqboyqakusycvwd.jpg,0,0,0.0,0,77,77,77,,,,,,,,,,,,,42.00530000000026,0.005300000000261207,None,,70.91054870000016,70.91054870000016,70.91054870000016,70.91054870000016,70.91054870000016,70.91054870000016,70.91054870000016,70.91054870000016,70.91054870000016,70.91054870000016,004,P002,2025_Jan_18_0945,ConditionRich,2021.2.3,60.01125811205616,
42.75,43.0,41,0.0,Stimuli/Blank.png,0,0,0.0,0,78,78,78,,,,,,,,,,,,,42.771555900000294,0.02155590000029406,None,,71.66119149999986,71.66119149999986,71.66119149999986,71.66119149999986,71.66119149999986,71.66119149999986,71.66119149999986,71.66119149999986,71.66119149999986,71.66119149999986,004,P002,2025_Jan_18_0945,ConditionRich,2021.2.3,60.01125811205616,
43.0,43.75,8,0.75,Stimuli/P002/sun_asqboyqakusycvwd.jpg,0,0,0.0,0,79,79,79,,,,,,,,,,,,,43.00624590000007,0.006245900000067195,None,,71.91145270000015,71.91145270000015,71.91145270000015,71.91145270000015,71.91145270000015,71.91145270000015,71.91145270000015,71.91145270000015,71.91145270000015,71.91145270000015,004,P002,2025_Jan_18_0945,ConditionRich,2021.2.3,60.01125811205616,
43.75,44.0,41,0.0,Stimuli/Blank.png,0,0,0.0,0,80,80,80,,,,,,,,,,,,,43.77102200000036,0.021022000000357366,None,,72.66207010000016,72.66207010000016,72.66207010000016,72.66207010000016,72.66207010000016,72.66207010000016,72.66207010000016,72.66207010000016,72.66207010000016,72.66207010000016,004,P002,2025_Jan_18_0945,ConditionRich,2021.2.3,60.01125811205616,
44.0,44.75,10,0.75,Stimuli/P002/sun_aykefnhciwsffcrj.jpg,0,0,0.0,0,81,81,81,,,,,,,,,,,,,44.00586850000036,0.005868500000360655,None,,72.91228659999979,72.91228659999979,72.91228659999979,72.91228659999979,72.91228659999979,72.91228659999979,72.91228659999979,72.91228659999979,72.91228659999979,72.91228659999979,004,P002,2025_Jan_18_0945,ConditionRich,2021.2.3,60.01125811205616,
44.75,45.0,41,0.0,Stimuli/Blank.png,0,0,0.0,0,82,82,82,,,,,,,,,,,,,44.772307900000214,0.02230790000021443,None,,73.6629466999998,73.6629466999998,73.6629466999998,73.6629466999998,73.6629466999998,73.6629466999998,73.6629466999998,73.6629466999998,73.6629466999998,73.6629466999998,004,P002,2025_Jan_18_0945,ConditionRich,2021.2.3,60.01125811205616,
45.0,45.75,10,0.75,Stimuli/P002/sun_aykefnhciwsffcrj.jpg,0,0,0.0,0,83,83,83,,,,,,,,,,,,,45.00659949999999,0.006599499999992986,None,,73.91315699999996,73.91315699999996,73.91315699999996,73.91315699999996,73.91315699999996,73.91315699999996,73.91315699999996,73.91315699999996,73.91315699999996,73.91315699999996,004,P002,2025_Jan_18_0945,ConditionRich,2021.2.3,60.01125811205616,
45.75,46.0,41,0.0,Stimuli/Blank.png,0,0,0.0,0,84,84,84,,,,,,,,,,,,,45.7750046000001,0.025004600000102073,5,0.1947056999997585,74.68051120000018,74.68051120000018,74.68051120000018,74.68051120000018,74.68051120000018,74.68051120000018,74.68051120000018,74.68051120000018,74.68051120000018,74.68051120000018,004,P002,2025_Jan_18_0945,ConditionRich,2021.2.3,60.01125811205616,
46.0,46.75,10,0.75,Stimuli/P002/sun_aykefnhciwsffcrj.jpg,0,0,0.0,0,85,85,85,,,,,,,,,,,,,46.02326250000033,0.023262500000328146,None,,74.91404580000017,74.91404580000017,74.91404580000017,74.91404580000017,74.91404580000017,74.91404580000017,74.91404580000017,74.91404580000017,74.91404580000017,74.91404580000017,004,P002,2025_Jan_18_0945,ConditionRich,2021.2.3,60.01125811205616,
46.75,47.0,41,0.0,Stimuli/Blank.png,0,0,0.0,0,86,86,86,,,,,,,,,,,,,46.757324100000005,0.007324100000005274,None,,75.64803410000013,75.64803410000013,75.64803410000013,75.64803410000013,75.64803410000013,75.64803410000013,75.64803410000013,75.64803410000013,75.64803410000013,75.64803410000013,004,P002,2025_Jan_18_0945,ConditionRich,2021.2.3,60.01125811205616,
47.0,47.75,10,0.75,Stimuli/P002/sun_aykefnhciwsffcrj.jpg,0,0,0.0,0,87,87,87,,,,,,,,,,,,,47.0076140000001,0.00761400000010326,None,,75.91493709999986,75.91493709999986,75.91493709999986,75.91493709999986,75.91493709999986,75.91493709999986,75.91493709999986,75.91493709999986,75.91493709999986,75.91493709999986,004,P002,2025_Jan_18_0945,ConditionRich,2021.2.3,60.01125811205616,
47.75,48.0,41,0.0,Stimuli/Blank.png,0,0,0.0,0,88,88,88,,,,,,,,,,,,,47.774612400000024,0.024612400000023626,None,,76.66556360000004,76.66556360000004,76.66556360000004,76.66556360000004,76.66556360000004,76.66556360000004,76.66556360000004,76.66556360000004,76.66556360000004,76.66556360000004,004,P002,2025_Jan_18_0945,ConditionRich,2021.2.3,60.01125811205616,
48.0,48.75,14,0.75,Stimuli/P002/sun_bfgxassmmvhtarcc.jpg,0,0,0.0,0,89,89,89,,,,,,,,,,,,,48.00787960000025,0.00787960000025123,None,,76.89912809999987,76.89912809999987,76.89912809999987,76.89912809999987,76.89912809999987,76.89912809999987,76.89912809999987,76.89912809999987,76.89912809999987,76.89912809999987,004,P002,2025_Jan_18_0945,ConditionRich,2021.2.3,60.01125811205616,
48.75,49.0,41,0.0,Stimuli/Blank.png,0,0,0.0,0,90,90,90,,,,,,,,,,,,,48.76093770000034,0.010937700000340556,None,,77.66646700000001,77.66646700000001,77.66646700000001,77.66646700000001,77.66646700000001,77.66646700000001,77.66646700000001,77.66646700000001,77.66646700000001,77.66646700000001,004,P002,2025_Jan_18_0945,ConditionRich,2021.2.3,60.01125811205616,
49.0,49.75,14,0.75,Stimuli/P002/sun_bfgxassmmvhtarcc.jpg,0,0,0.0,0,91,91,91,,,,,,,,,,,,,49.025751100000434,0.025751100000434235,None,,77.91669390000015,77.91669390000015,77.91669390000015,77.91669390000015,77.91669390000015,77.91669390000015,77.91669390000015,77.91669390000015,77.91669390000015,77.91669390000015,004,P002,2025_Jan_18_0945,ConditionRich,2021.2.3,60.01125811205616,
49.75,50.0,41,0.0,Stimuli/Blank.png,0,0,0.0,0,92,92,92,,,,,,,,,,,,,49.760694100000364,0.010694100000364415,None,,78.65067799999997,78.65067799999997,78.65067799999997,78.65067799999997,78.65067799999997,78.65067799999997,78.65067799999997,78.65067799999997,78.65067799999997,78.65067799999997,004,P002,2025_Jan_18_0945,ConditionRich,2021.2.3,60.01125811205616,
50.0,50.75,14,0.75,Stimuli/P002/sun_bfgxassmmvhtarcc.jpg,1,0,0.75,0,93,93,93,,,,,,,,,,,,,50.01037940000015,0.010379400000147143,1,0.4154001000001699,78.90088920000017,78.90088920000017,78.90088920000017,78.90088920000017,78.90088920000017,78.90088920000017,78.90088920000017,79.63488670000015,78.90088920000017,78.90088920000017,004,P002,2025_Jan_18_0945,ConditionRich,2021.2.3,60.01125811205616,
50.75,51.0,41,0.0,Stimuli/Blank.png,0,0,0.0,0,94,94,94,,,,,,,,,,,,,50.76125140000022,0.011251400000219292,None,,79.66825010000002,79.66825010000002,79.66825010000002,79.66825010000002,79.66825010000002,79.66825010000002,79.66825010000002,79.66825010000002,79.66825010000002,79.66825010000002,004,P002,2025_Jan_18_0945,ConditionRich,2021.2.3,60.01125811205616,
51.0,51.75,14,0.75,Stimuli/P002/sun_bfgxassmmvhtarcc.jpg,0,0,0.0,0,95,95,95,,,,,,,,,,,,,51.027744600000005,0.027744600000005448,None,,79.91844779999974,79.91844779999974,79.91844779999974,79.91844779999974,79.91844779999974,79.91844779999974,79.91844779999974,79.91844779999974,79.91844779999974,79.91844779999974,004,P002,2025_Jan_18_0945,ConditionRich,2021.2.3,60.01125811205616,
51.75,52.0,41,0.0,Stimuli/Blank.png,0,0,0.0,0,96,96,96,,,,,,,,,,,,,51.76206840000032,0.012068400000316615,None,,80.65252409999994,80.65252409999994,80.65252409999994,80.65252409999994,80.65252409999994,80.65252409999994,80.65252409999994,80.65252409999994,80.65252409999994,80.65252409999994,004,P002,2025_Jan_18_0945,ConditionRich,2021.2.3,60.01125811205616,
52.0,52.75,19,0.75,Stimuli/P002/sun_bzyyqqczvrnvukdn.jpg,0,0,0.0,0,97,97,97,,,,,,,,,,,,,52.012161000000106,0.01216100000010556,None,,80.91934989999982,80.91934989999982,80.91934989999982,80.91934989999982,80.91934989999982,80.91934989999982,80.91934989999982,80.91934989999982,80.91934989999982,80.91934989999982,004,P002,2025_Jan_18_0945,ConditionRich,2021.2.3,60.01125811205616,
52.75,53.0,41,0.0,Stimuli/Blank.png,0,0,0.0,0,98,98,98,,,,,,,,,,,,,52.77979060000007,0.02979060000006939,None,,81.67000019999978,81.67000019999978,81.67000019999978,81.67000019999978,81.67000019999978,81.67000019999978,81.67000019999978,81.67000019999978,81.67000019999978,81.67000019999978,004,P002,2025_Jan_18_0945,ConditionRich,2021.2.3,60.01125811205616,
53.0,53.75,19,0.75,Stimuli/P002/sun_bzyyqqczvrnvukdn.jpg,0,0,0.0,0,99,99,99,,,,,,,,,,,,,53.01257220000025,0.012572200000249723,None,,81.90352900000016,81.90352900000016,81.90352900000016,81.90352900000016,81.90352900000016,81.90352900000016,81.90352900000016,81.90352900000016,81.90352900000016,81.90352900000016,004,P002,2025_Jan_18_0945,ConditionRich,2021.2.3,60.01125811205616,
53.75,54.0,41,0.0,Stimuli/Blank.png,0,0,0.0,0,100,100,100,,,,,,,,,,,,,53.76559300000008,0.015593000000080792,None,,82.67084590000013,82.67084590000013,82.67084590000013,82.67084590000013,82.67084590000013,82.67084590000013,82.67084590000013,82.67084590000013,82.67084590000013,82.67084590000013,004,P002,2025_Jan_18_0945,ConditionRich,2021.2.3,60.01125811205616,
54.0,54.75,19,0.75,Stimuli/P002/sun_bzyyqqczvrnvukdn.jpg,1,0,0.75,0,101,101,101,,,,,,,,,,,,,54.01444360000005,0.014443600000049628,1,0.46404290000009496,82.92109190000019,82.92109190000019,82.92109190000019,82.92109190000019,82.92109190000019,82.92109190000019,82.92109190000019,83.63844059999974,82.92109190000019,82.92109190000019,004,P002,2025_Jan_18_0945,ConditionRich,2021.2.3,60.01125811205616,
54.75,55.0,41,0.0,Stimuli/Blank.png,0,0,0.0,0,102,102,102,,,,,,,,,,,,,54.7810298000004,0.03102980000039679,None,,83.67175140000018,83.67175140000018,83.67175140000018,83.67175140000018,83.67175140000018,83.67175140000018,83.67175140000018,83.67175140000018,83.67175140000018,83.67175140000018,004,P002,2025_Jan_18_0945,ConditionRich,2021.2.3,60.01125811205616,
55.0,55.75,19,0.75,Stimuli/P002/sun_bzyyqqczvrnvukdn.jpg,0,0,0.0,0,103,103,103,,,,,,,,,,,,,55.01480930000025,0.014809300000251824,None,,83.92196849999982,83.92196849999982,83.92196849999982,83.92196849999982,83.92196849999982,83.92196849999982,83.92196849999982,83.92196849999982,83.92196849999982,83.92196849999982,004,P002,2025_Jan_18_0945,ConditionRich,2021.2.3,60.01125811205616,
55.75,56.0,41,0.0,Stimuli/Blank.png,0,0,0.0,0,104,104,104,,,,,,,,,,,,,55.782287,0.032286999999996624,None,,84.6727034999999,84.6727034999999,84.6727034999999,84.6727034999999,84.6727034999999,84.6727034999999,84.6727034999999,84.6727034999999,84.6727034999999,84.6727034999999,004,P002,2025_Jan_18_0945,ConditionRich,2021.2.3,60.01125811205616,
56.0,56.75,27,0.75,Stimuli/P002/things_dynamite_01b.jpg,0,0,0.0,0,105,105,105,,,,,,,,,,,,,55.999174100000346,-0.0008258999996542116,None,,84.90617229999998,84.90617229999998,84.90617229999998,84.90617229999998,84.90617229999998,84.90617229999998,84.90617229999998,84.90617229999998,84.90617229999998,84.90617229999998,004,P002,2025_Jan_18_0945,ConditionRich,2021.2.3,60.01125811205616,
56.75,57.0,41,0.0,Stimuli/Blank.png,0,0,0.0,0,106,106,106,,,,,,,,,,,,,56.76601100000016,0.016011000000162312,None,,85.65683249999984,85.65683249999984,85.65683249999984,85.65683249999984,85.65683249999984,85.65683249999984,85.65683249999984,85.65683249999984,85.65683249999984,85.65683249999984,004,P002,2025_Jan_18_0945,ConditionRich,2021.2.3,60.01125811205616,
57.0,57.75,27,0.75,Stimuli/P002/things_dynamite_01b.jpg,0,0,0.0,0,107,107,107,,,,,,,,,,,,,56.9993714000002,-0.000628599999799917,None,,85.89037030000009,85.89037030000009,85.89037030000009,85.89037030000009,85.89037030000009,85.89037030000009,85.89037030000009,85.89037030000009,85.89037030000009,85.89037030000009,004,P002,2025_Jan_18_0945,ConditionRich,2021.2.3,60.01125811205616,
57.75,58.0,41,0.0,Stimuli/Blank.png,0,0,0.0,0,108,108,108,,,,,,,,,,,,,57.75103890000037,0.0010389000003669935,None,,86.64103740000019,86.64103740000019,86.64103740000019,86.64103740000019,86.64103740000019,86.64103740000019,86.64103740000019,86.64103740000019,86.64103740000019,86.64103740000019,004,P002,2025_Jan_18_0945,ConditionRich,2021.2.3,60.01125811205616,
58.0,58.75,27,0.75,Stimuli/P002/things_dynamite_01b.jpg,0,0,0.0,0,109,109,109,,,,,,,,,,,,,57.99985460000016,-0.0001453999998375366,None,,86.89124839999977,86.89124839999977,86.89124839999977,86.89124839999977,86.89124839999977,86.89124839999977,86.89124839999977,86.89124839999977,86.89124839999977,86.89124839999977,004,P002,2025_Jan_18_0945,ConditionRich,2021.2.3,60.01125811205616,
58.75,59.0,41,0.0,Stimuli/Blank.png,0,0,0.0,0,110,110,110,,,,,,,,,,,,,58.75110500000028,0.0011050000002796878,None,,87.6419148,87.6419148,87.6419148,87.6419148,87.6419148,87.6419148,87.6419148,87.6419148,87.6419148,87.6419148,004,P002,2025_Jan_18_0945,ConditionRich,2021.2.3,60.01125811205616,
59.0,59.75,27,0.75,Stimuli/P002/things_dynamite_01b.jpg,0,0,0.0,0,111,111,111,,,,,,,,,,,,,59.00135420000015,0.0013542000001507404,None,,87.89212580000003,87.89212580000003,87.89212580000003,87.89212580000003,87.89212580000003,87.89212580000003,87.89212580000003,87.89212580000003,87.89212580000003,87.89212580000003,004,P002,2025_Jan_18_0945,ConditionRich,2021.2.3,60.01125811205616,
59.75,60.0,41,0.0,Stimuli/Blank.png,0,0,0.0,0,112,112,112,,,,,,,,,,,,,59.75149040000042,0.0014904000004207774,None,,88.64279249999981,88.64279249999981,88.64279249999981,88.64279249999981,88.64279249999981,88.64279249999981,88.64279249999981,88.64279249999981,88.64279249999981,88.64279249999981,004,P002,2025_Jan_18_0945,ConditionRich,2021.2.3,60.01125811205616,
60.0,60.75,4,0.75,Stimuli/P002/sun_aonjwqswdblhlpkm.jpg,0,0,0.0,0,113,113,113,,,,,,,,,,,,,60.0020542000002,0.0020542000002023997,None,,88.90969180000002,88.90969180000002,88.90969180000002,88.90969180000002,88.90969180000002,88.90969180000002,88.90969180000002,88.90969180000002,88.90969180000002,88.90969180000002,004,P002,2025_Jan_18_0945,ConditionRich,2021.2.3,60.01125811205616,
60.75,61.0,41,0.0,Stimuli/Blank.png,0,0,0.0,0,114,114,114,,,,,,,,,,,,,60.769891500000085,0.019891500000085216,None,,89.66036269999995,89.66036269999995,89.66036269999995,89.66036269999995,89.66036269999995,89.66036269999995,89.66036269999995,89.66036269999995,89.66036269999995,89.66036269999995,004,P002,2025_Jan_18_0945,ConditionRich,2021.2.3,60.01125811205616,
61.0,61.75,4,0.75,Stimuli/P002/sun_aonjwqswdblhlpkm.jpg,0,0,0.0,0,115,115,115,,,,,,,,,,,,,61.0051967000004,0.005196700000396959,None,,89.91057640000008,89.91057640000008,89.91057640000008,89.91057640000008,89.91057640000008,89.91057640000008,89.91057640000008,89.91057640000008,89.91057640000008,89.91057640000008,004,P002,2025_Jan_18_0945,ConditionRich,2021.2.3,60.01125811205616,
61.75,62.0,41,0.0,Stimuli/Blank.png,0,0,0.0,0,116,116,116,,,,,,,,,,,,,61.77151100000037,0.021511000000373315,5,0.1973166000002493,90.67794439999989,90.67794439999989,90.67794439999989,90.67794439999989,90.67794439999989,90.67794439999989,90.67794439999989,90.67794439999989,90.67794439999989,90.67794439999989,004,P002,2025_Jan_18_0945,ConditionRich,2021.2.3,60.01125811205616,
62.0,62.75,4,0.75,Stimuli/P002/sun_aonjwqswdblhlpkm.jpg,1,0,0.75,0,117,117,117,,,,,,,,,,,,,62.02035070000011,0.02035070000010819,1,0.47475470000017594,90.9114510999998,90.9114510999998,90.9114510999998,90.9114510999998,90.9114510999998,90.9114510999998,90.9114510999998,None,90.9114510999998,90.9114510999998,004,P002,2025_Jan_18_0945,ConditionRich,2021.2.3,60.01125811205616,
62.75,63.0,41,0.0,Stimuli/Blank.png,0,0,0.0,0,118,118,118,,,,,,,,,,,,,62.75549930000034,0.005499300000337826,None,,91.64544449999994,91.64544449999994,91.64544449999994,91.64544449999994,91.64544449999994,91.64544449999994,91.64544449999994,91.64544449999994,91.64544449999994,91.64544449999994,004,P002,2025_Jan_18_0945,ConditionRich,2021.2.3,60.01125811205616,
63.0,63.75,4,0.75,Stimuli/P002/sun_aonjwqswdblhlpkm.jpg,0,0,0.0,0,119,119,119,,,,,,,,,,,,,63.004713500000435,0.004713500000434578,None,,91.89565230000017,91.89565230000017,91.89565230000017,91.89565230000017,91.89565230000017,91.89565230000017,91.89565230000017,91.89565230000017,91.89565230000017,91.89565230000017,004,P002,2025_Jan_18_0945,ConditionRich,2021.2.3,60.01125811205616,
63.75,64.0,41,0.0,Stimuli/Blank.png,0,0,0.0,0,120,120,120,,,,,,,,,,,,,63.755635600000005,0.00563560000000507,None,,92.64632780000011,92.64632780000011,92.64632780000011,92.64632780000011,92.64632780000011,92.64632780000011,92.64632780000011,92.64632780000011,92.64632780000011,92.64632780000011,004,P002,2025_Jan_18_0945,ConditionRich,2021.2.3,60.01125811205616,
64.0,64.75,35,0.75,Stimuli/P002/things_pepperoni_01b.jpg,0,0,0.0,0,121,121,121,,,,,,,,,,,,,64.00598280000031,0.005982800000310817,None,,92.91322140000011,92.91322140000011,92.91322140000011,92.91322140000011,92.91322140000011,92.91322140000011,92.91322140000011,92.91322140000011,92.91322140000011,92.91322140000011,004,P002,2025_Jan_18_0945,ConditionRich,2021.2.3,60.01125811205616,
64.75,65.0,41,0.0,Stimuli/Blank.png,0,0,0.0,0,122,122,122,,,,,,,,,,,,,64.77543660000038,0.02543660000037562,None,,93.68057169999975,93.68057169999975,93.68057169999975,93.68057169999975,93.68057169999975,93.68057169999975,93.68057169999975,93.68057169999975,93.68057169999975,93.68057169999975,004,P002,2025_Jan_18_0945,ConditionRich,2021.2.3,60.01125811205616,
65.0,65.75,35,0.75,Stimuli/P002/things_pepperoni_01b.jpg,0,0,0.0,0,123,123,123,,,,,,,,,,,,,65.02537220000022,0.02537220000021989,None,,93.93077989999983,93.93077989999983,93.93077989999983,93.93077989999983,93.93077989999983,93.93077989999983,93.93077989999983,93.93077989999983,93.93077989999983,93.93077989999983,004,P002,2025_Jan_18_0945,ConditionRich,2021.2.3,60.01125811205616,
65.75,66.0,41,0.0,Stimuli/Blank.png,0,0,0.0,0,124,124,124,,,,,,,,,,,,,65.77636050000001,0.02636050000000978,5,0.1936494000001403,94.68143899999995,94.68143899999995,94.68143899999995,94.68143899999995,94.68143899999995,94.68143899999995,94.68143899999995,94.68143899999995,94.68143899999995,94.68143899999995,004,P002,2025_Jan_18_0945,ConditionRich,2021.2.3,60.01125811205616,
66.0,66.75,35,0.75,Stimuli/P002/things_pepperoni_01b.jpg,0,0,0.0,0,125,125,125,,,,,,,,,,,,,66.0237559000002,0.02375590000019656,None,,94.91497949999984,94.91497949999984,94.91497949999984,94.91497949999984,94.91497949999984,94.91497949999984,94.91497949999984,94.91497949999984,94.91497949999984,94.91497949999984,004,P002,2025_Jan_18_0945,ConditionRich,2021.2.3,60.01125811205616,
66.75,67.0,41,0.0,Stimuli/Blank.png,0,0,0.0,0,126,126,126,,,,,,,,,,,,,66.75864720000027,0.00864720000026864,None,,95.64895799999977,95.64895799999977,95.64895799999977,95.64895799999977,95.64895799999977,95.64895799999977,95.64895799999977,95.64895799999977,95.64895799999977,95.64895799999977,004,P002,2025_Jan_18_0945,ConditionRich,2021.2.3,60.01125811205616,
67.0,67.75,35,0.75,Stimuli/P002/things_pepperoni_01b.jpg,0,0,0.0,0,127,127,127,,,,,,,,,,,,,67.0109053000001,0.010905300000104035,None,,95.91586300000017,95.91586300000017,95.91586300000017,95.91586300000017,95.91586300000017,95.91586300000017,95.91586300000017,95.91586300000017,95.91586300000017,95.91586300000017,004,P002,2025_Jan_18_0945,ConditionRich,2021.2.3,60.01125811205616,
67.75,68.0,41,0.0,Stimuli/Blank.png,0,0,0.0,0,128,128,128,,,,,,,,,,,,,67.77595770000016,0.02595770000016273,None,,96.66651629999978,96.66651629999978,96.66651629999978,96.66651629999978,96.66651629999978,96.66651629999978,96.66651629999978,96.66651629999978,96.66651629999978,96.66651629999978,004,P002,2025_Jan_18_0945,ConditionRich,2021.2.3,60.01125811205616,
68.0,68.75,18,0.75,Stimuli/P002/sun_bzjegfvyrvqtunza.jpg,0,0,0.0,0,129,129,129,,,,,,,,,,,,,68.00986840000041,0.009868400000414113,None,,96.91673919999994,96.91673919999994,96.91673919999994,96.91673919999994,96.91673919999994,96.91673919999994,96.91673919999994,96.91673919999994,96.91673919999994,96.91673919999994,004,P002,2025_Jan_18_0945,ConditionRich,2021.2.3,60.01125811205616,
68.75,69.0,41,0.0,Stimuli/Blank.png,0,0,0.0,0,130,130,130,,,,,,,,,,,,,68.77638960000013,0.026389600000129576,None,,97.66740029999983,97.66740029999983,97.66740029999983,97.66740029999983,97.66740029999983,97.66740029999983,97.66740029999983,97.66740029999983,97.66740029999983,97.66740029999983,004,P002,2025_Jan_18_0945,ConditionRich,2021.2.3,60.01125811205616,
69.0,69.75,18,0.75,Stimuli/P002/sun_bzjegfvyrvqtunza.jpg,0,0,0.0,0,131,131,131,,,,,,,,,,,,,69.00959340000009,0.00959340000008524,None,,97.9009387000001,97.9009387000001,97.9009387000001,97.9009387000001,97.9009387000001,97.9009387000001,97.9009387000001,97.9009387000001,97.9009387000001,97.9009387000001,004,P002,2025_Jan_18_0945,ConditionRich,2021.2.3,60.01125811205616,
69.75,70.0,41,0.0,Stimuli/Blank.png,0,0,0.0,0,132,132,132,,,,,,,,,,,,,69.76100040000028,0.011000400000284571,None,,98.65161360000002,98.65161360000002,98.65161360000002,98.65161360000002,98.65161360000002,98.65161360000002,98.65161360000002,98.65161360000002,98.65161360000002,98.65161360000002,004,P002,2025_Jan_18_0945,ConditionRich,2021.2.3,60.01125811205616,
70.0,70.75,18,0.75,Stimuli/P002/sun_bzjegfvyrvqtunza.jpg,0,0,0.0,0,133,133,133,,,,,,,,,,,,,70.01091990000032,0.010919900000317284,None,,98.90182210000012,98.90182210000012,98.90182210000012,98.90182210000012,98.90182210000012,98.90182210000012,98.90182210000012,98.90182210000012,98.90182210000012,98.90182210000012,004,P002,2025_Jan_18_0945,ConditionRich,2021.2.3,60.01125811205616,
70.75,71.0,41,0.0,Stimuli/Blank.png,0,0,0.0,0,134,134,134,,,,,,,,,,,,,70.76187890000028,0.011878900000283465,None,,99.65248199999996,99.65248199999996,99.65248199999996,99.65248199999996,99.65248199999996,99.65248199999996,99.65248199999996,99.65248199999996,99.65248199999996,99.65248199999996,004,P002,2025_Jan_18_0945,ConditionRich,2021.2.3,60.01125811205616,
71.0,71.75,18,0.75,Stimuli/P002/sun_bzjegfvyrvqtunza.jpg,0,0,0.0,0,135,135,135,,,,,,,,,,,,,71.01220880000028,0.012208800000280462,None,,99.91938879999998,99.91938879999998,99.91938879999998,99.91938879999998,99.91938879999998,99.91938879999998,99.91938879999998,99.91938879999998,99.91938879999998,99.91938879999998,004,P002,2025_Jan_18_0945,ConditionRich,2021.2.3,60.01125811205616,
71.75,72.0,41,0.0,Stimuli/Blank.png,0,0,0.0,0,136,136,136,,,,,,,,,,,,,71.77893680000034,0.028936800000337826,None,,100.6700449,100.6700449,100.6700449,100.6700449,100.6700449,100.6700449,100.6700449,100.6700449,100.6700449,100.6700449,004,P002,2025_Jan_18_0945,ConditionRich,2021.2.3,60.01125811205616,
72.0,72.75,40,0.75,Stimuli/P002/things_worm_01b.jpg,0,0,0.0,0,137,137,137,,,,,,,,,,,,,72.0130293000002,0.013029300000198418,None,,100.90358590000005,100.90358590000005,100.90358590000005,100.90358590000005,100.90358590000005,100.90358590000005,100.90358590000005,100.90358590000005,100.90358590000005,100.90358590000005,004,P002,2025_Jan_18_0945,ConditionRich,2021.2.3,60.01125811205616,
72.75,73.0,41,0.0,Stimuli/Blank.png,0,0,0.0,0,138,138,138,,,,,,,,,,,,,72.76511290000008,0.015112900000076479,None,,101.67092999999977,101.67092999999977,101.67092999999977,101.67092999999977,101.67092999999977,101.67092999999977,101.67092999999977,101.67092999999977,101.67092999999977,101.67092999999977,004,P002,2025_Jan_18_0945,ConditionRich,2021.2.3,60.01125811205616,
73.0,73.75,40,0.75,Stimuli/P002/things_worm_01b.jpg,1,0,0.75,0,139,139,139,,,,,,,,,,,,,73.03106630000002,0.03106630000002042,1,0.4474095999999008,101.93782109999984,101.93782109999984,101.93782109999984,101.93782109999984,101.93782109999984,101.93782109999984,101.93782109999984,None,101.93782109999984,101.93782109999984,004,P002,2025_Jan_18_0945,ConditionRich,2021.2.3,60.01125811205616,
73.75,74.0,41,0.0,Stimuli/Blank.png,0,0,0.0,0,140,140,140,,,,,,,,,,,,,73.78051520000008,0.030515200000081677,None,,102.6718007999998,102.6718007999998,102.6718007999998,102.6718007999998,102.6718007999998,102.6718007999998,102.6718007999998,102.6718007999998,102.6718007999998,102.6718007999998,004,P002,2025_Jan_18_0945,ConditionRich,2021.2.3,60.01125811205616,
74.0,74.75,40,0.75,Stimuli/P002/things_worm_01b.jpg,0,0,0.0,0,141,141,141,,,,,,,,,,,,,74.01476460000003,0.014764600000034989,None,,102.90533520000008,102.90533520000008,102.90533520000008,102.90533520000008,102.90533520000008,102.90533520000008,102.90533520000008,102.90533520000008,102.90533520000008,102.90533520000008,004,P002,2025_Jan_18_0945,ConditionRich,2021.2.3,60.01125811205616,
74.75,75.0,41,0.0,Stimuli/Blank.png,0,0,0.0,0,142,142,142,,,,,,,,,,,,,74.76537890000009,0.015378900000087015,None,,103.65600949999998,103.65600949999998,103.65600949999998,103.65600949999998,103.65600949999998,103.65600949999998,103.65600949999998,103.65600949999998,103.65600949999998,103.65600949999998,004,P002,2025_Jan_18_0945,ConditionRich,2021.2.3,60.01125811205616,
75.0,75.75,40,0.75,Stimuli/P002/things_worm_01b.jpg,0,0,0.0,0,143,143,143,,,,,,,,,,,,,75.01570890000039,0.015708900000390713,None,,103.92289729999993,103.92289729999993,103.92289729999993,103.92289729999993,103.92289729999993,103.92289729999993,103.92289729999993,103.92289729999993,103.92289729999993,103.92289729999993,004,P002,2025_Jan_18_0945,ConditionRich,2021.2.3,60.01125811205616,
75.75,76.0,41,0.0,Stimuli/Blank.png,0,0,0.0,0,144,144,144,,,,,,,,,,,,,75.76631580000003,0.016315800000029412,None,,104.65688749999981,104.65688749999981,104.65688749999981,104.65688749999981,104.65688749999981,104.65688749999981,104.65688749999981,104.65688749999981,104.65688749999981,104.65688749999981,004,P002,2025_Jan_18_0945,ConditionRich,2021.2.3,60.01125811205616,
76.0,76.75,32,0.75,Stimuli/P002/things_oyster_01b.jpg,0,0,0.0,0,145,145,145,,,,,,,,,,,,,75.99957230000018,-0.0004276999998182873,None,,104.89042710000012,104.89042710000012,104.89042710000012,104.89042710000012,104.89042710000012,104.89042710000012,104.89042710000012,104.89042710000012,104.89042710000012,104.89042710000012,004,P002,2025_Jan_18_0945,ConditionRich,2021.2.3,60.01125811205616,
76.75,77.0,41,0.0,Stimuli/Blank.png,0,0,0.0,0,146,146,146,,,,,,,,,,,,,76.7510097000004,0.0010097000003952417,None,,105.64108510000005,105.64108510000005,105.64108510000005,105.64108510000005,105.64108510000005,105.64108510000005,105.64108510000005,105.64108510000005,105.64108510000005,105.64108510000005,004,P002,2025_Jan_18_0945,ConditionRich,2021.2.3,60.01125811205616,
77.0,77.75,32,0.75,Stimuli/P002/things_oyster_01b.jpg,0,0,0.0,0,147,147,147,,,,,,,,,,,,,77.00135880000016,0.0013588000001618639,None,,105.90798820000009,105.90798820000009,105.90798820000009,105.90798820000009,105.90798820000009,105.90798820000009,105.90798820000009,105.90798820000009,105.90798820000009,105.90798820000009,004,P002,2025_Jan_18_0945,ConditionRich,2021.2.3,60.01125811205616,
77.75,78.0,41,0.0,Stimuli/Blank.png,0,0,0.0,0,148,148,148,,,,,,,,,,,,,77.7677007000002,0.01770070000020496,None,,106.6586529000001,106.6586529000001,106.6586529000001,106.6586529000001,106.6586529000001,106.6586529000001,106.6586529000001,106.6586529000001,106.6586529000001,106.6586529000001,004,P002,2025_Jan_18_0945,ConditionRich,2021.2.3,60.01125811205616,
78.0,78.75,32,0.75,Stimuli/P002/things_oyster_01b.jpg,0,0,0.0,0,149,149,149,,,,,,,,,,,,,78.00126470000032,0.0012647000003198627,None,,106.90890159999981,106.90890159999981,106.90890159999981,106.90890159999981,106.90890159999981,106.90890159999981,106.90890159999981,106.90890159999981,106.90890159999981,106.90890159999981,004,P002,2025_Jan_18_0945,ConditionRich,2021.2.3,60.01125811205616,
78.75,79.0,41,0.0,Stimuli/Blank.png,0,0,0.0,0,150,150,150,,,,,,,,,,,,,78.7710705000004,0.021070500000405445,None,,107.67621180000015,107.67621180000015,107.67621180000015,107.67621180000015,107.67621180000015,107.67621180000015,107.67621180000015,107.67621180000015,107.67621180000015,107.67621180000015,004,P002,2025_Jan_18_0945,ConditionRich,2021.2.3,60.01125811205616,
79.0,79.75,32,0.75,Stimuli/P002/things_oyster_01b.jpg,0,0,0.0,0,151,151,151,,,,,,,,,,,,,79.02142309999999,0.0214230999999927,None,,107.92643640000006,107.92643640000006,107.92643640000006,107.92643640000006,107.92643640000006,107.92643640000006,107.92643640000006,107.92643640000006,107.92643640000006,107.92643640000006,004,P002,2025_Jan_18_0945,ConditionRich,2021.2.3,60.01125811205616,
79.75,80.0,41,0.0,Stimuli/Blank.png,0,0,0.0,0,152,152,152,,,,,,,,,,,,,79.76926840000033,0.019268400000328256,None,,108.66048069999988,108.66048069999988,108.66048069999988,108.66048069999988,108.66048069999988,108.66048069999988,108.66048069999988,108.66048069999988,108.66048069999988,108.66048069999988,004,P002,2025_Jan_18_0945,ConditionRich,2021.2.3,60.01125811205616,
80.0,80.75,9,0.75,Stimuli/P002/sun_awtltwwpwbepuuqv.jpg,0,0,0.0,0,153,153,153,,,,,,,,,,,,,80.0037368000003,0.0037368000002970803,None,,108.89394779999975,108.89394779999975,108.89394779999975,108.89394779999975,108.89394779999975,108.89394779999975,108.89394779999975,108.89394779999975,108.89394779999975,108.89394779999975,004,P002,2025_Jan_18_0945,ConditionRich,2021.2.3,60.01125811205616,
80.75,81.0,41,0.0,Stimuli/Blank.png,0,0,0.0,0,154,154,154,,,,,,,,,,,,,80.75364090000039,0.0036409000003914116,None,,109.6446148,109.6446148,109.6446148,109.6446148,109.6446148,109.6446148,109.6446148,109.6446148,109.6446148,109.6446148,004,P002,2025_Jan_18_0945,ConditionRich,2021.2.3,60.01125811205616,
81.0,81.75,9,0.75,Stimuli/P002/sun_awtltwwpwbepuuqv.jpg,0,0,0.0,0,155,155,155,,,,,,,,,,,,,81.00457010000036,0.004570100000364619,None,,109.91152060000013,109.91152060000013,109.91152060000013,109.91152060000013,109.91152060000013,109.91152060000013,109.91152060000013,109.91152060000013,109.91152060000013,109.91152060000013,004,P002,2025_Jan_18_0945,ConditionRich,2021.2.3,60.01125811205616,
81.75,82.0,41,0.0,Stimuli/Blank.png,0,0,0.0,0,156,156,156,,,,,,,,,,,,,81.77165100000002,0.02165100000001985,None,,110.66217090000009,110.66217090000009,110.66217090000009,110.66217090000009,110.66217090000009,110.66217090000009,110.66217090000009,110.66217090000009,110.66217090000009,110.66217090000009,004,P002,2025_Jan_18_0945,ConditionRich,2021.2.3,60.01125811205616,
82.0,82.75,9,0.75,Stimuli/P002/sun_awtltwwpwbepuuqv.jpg,0,0,0.0,0,157,157,157,,,,,,,,,,,,,82.00565330000018,0.005653300000176387,None,,110.9124084,110.9124084,110.9124084,110.9124084,110.9124084,110.9124084,110.9124084,110.9124084,110.9124084,110.9124084,004,P002,2025_Jan_18_0945,ConditionRich,2021.2.3,60.01125811205616,
82.75,83.0,41,0.0,Stimuli/Blank.png,0,0,0.0,0,158,158,158,,,,,,,,,,,,,82.77215330000035,0.022153300000354648,None,,111.66305039999997,111.66305039999997,111.66305039999997,111.66305039999997,111.66305039999997,111.66305039999997,111.66305039999997,111.66305039999997,111.66305039999997,111.66305039999997,004,P002,2025_Jan_18_0945,ConditionRich,2021.2.3,60.01125811205616,
83.0,83.75,9,0.75,Stimuli/P002/sun_awtltwwpwbepuuqv.jpg,0,0,0.0,0,159,159,159,,,,,,,,,,,,,83.00598530000025,0.005985300000247662,None,,111.89658689999987,111.89658689999987,111.89658689999987,111.89658689999987,111.89658689999987,111.89658689999987,111.89658689999987,111.89658689999987,111.89658689999987,111.89658689999987,004,P002,2025_Jan_18_0945,ConditionRich,2021.2.3,60.01125811205616,
83.75,84.0,41,0.0,Stimuli/Blank.png,0,0,0.0,0,160,160,160,,,,,,,,,,,,,83.7568081000004,0.006808100000398554,None,,112.64726699999983,112.64726699999983,112.64726699999983,112.64726699999983,112.64726699999983,112.64726699999983,112.64726699999983,112.64726699999983,112.64726699999983,112.64726699999983,004,P002,2025_Jan_18_0945,ConditionRich,2021.2.3,60.01125811205616,
84.0,100.0,0,0.0,Stimuli/Blank.png,1,5,5.75,0,161,161,161,,,,,,,,,,,,,84.0063527000002,0.0063527000002068235,5,13.97755270000016,112.89747570000009,112.89747570000009,112.89747570000009,112.89747570000009,112.89747570000009,112.89747570000009,117.88523399999985,118.63584869999977,112.89747570000009,112.89747570000009,004,P002,2025_Jan_18_0945,ConditionRich,2021.2.3,60.01125811205616,
100.0,100.75,21,0.75,Stimuli/P002/things_baby_01b.jpg,0,0,0.0,0,162,162,162,,,,,,,,,,,,,100.00493750000032,0.00493750000032378,None,,128.91155879999997,128.91155879999997,128.91155879999997,128.91155879999997,128.91155879999997,128.91155879999997,128.91155879999997,128.91155879999997,128.91155879999997,128.91155879999997,004,P002,2025_Jan_18_0945,ConditionRich,2021.2.3,60.01125811205616,
100.75,101.0,41,0.0,Stimuli/Blank.png,0,0,0.0,0,163,163,163,,,,,,,,,,,,,100.77153560000033,0.021535600000333943,None,,129.66222319999997,129.66222319999997,129.66222319999997,129.66222319999997,129.66222319999997,129.66222319999997,129.66222319999997,129.66222319999997,129.66222319999997,129.66222319999997,004,P002,2025_Jan_18_0945,ConditionRich,2021.2.3,60.01125811205616,
101.0,101.75,21,0.75,Stimuli/P002/things_baby_01b.jpg,0,0,0.0,0,164,164,164,,,,,,,,,,,,,101.00590760000023,0.005907600000227831,None,,129.9124394999999,129.9124394999999,129.9124394999999,129.9124394999999,129.9124394999999,129.9124394999999,129.9124394999999,129.9124394999999,129.9124394999999,129.9124394999999,004,P002,2025_Jan_18_0945,ConditionRich,2021.2.3,60.01125811205616,
101.75,102.0,41,0.0,Stimuli/Blank.png,0,0,0.0,0,165,165,165,,,,,,,,,,,,,101.77255869999999,0.022558699999990495,None,,130.66310329999988,130.66310329999988,130.66310329999988,130.66310329999988,130.66310329999988,130.66310329999988,130.66310329999988,130.66310329999988,130.66310329999988,130.66310329999988,004,P002,2025_Jan_18_0945,ConditionRich,2021.2.3,60.01125811205616,
102.0,102.75,21,0.75,Stimuli/P002/things_baby_01b.jpg,0,0,0.0,0,166,166,166,,,,,,,,,,,,,102.0055024000003,0.005502400000295893,None,,130.89661130000013,130.89661130000013,130.89661130000013,130.89661130000013,130.89661130000013,130.89661130000013,130.89661130000013,130.89661130000013,130.89661130000013,130.89661130000013,004,P002,2025_Jan_18_0945,ConditionRich,2021.2.3,60.01125811205616,
102.75,103.0,41,0.0,Stimuli/Blank.png,0,0,0.0,0,167,167,167,,,,,,,,,,,,,102.75643000000036,0.006430000000364089,None,,131.64729820000002,131.64729820000002,131.64729820000002,131.64729820000002,131.64729820000002,131.64729820000002,131.64729820000002,131.64729820000002,131.64729820000002,131.64729820000002,004,P002,2025_Jan_18_0945,ConditionRich,2021.2.3,60.01125811205616,
103.0,103.75,21,0.75,Stimuli/P002/things_baby_01b.jpg,0,0,0.0,0,168,168,168,,,,,,,,,,,,,103.00660850000031,0.006608500000311324,None,,131.89752629999975,131.89752629999975,131.89752629999975,131.89752629999975,131.89752629999975,131.89752629999975,131.89752629999975,131.89752629999975,131.89752629999975,131.89752629999975,004,P002,2025_Jan_18_0945,ConditionRich,2021.2.3,60.01125811205616,
103.75,104.0,41,0.0,Stimuli/Blank.png,0,0,0.0,0,169,169,169,,,,,,,,,,,,,103.7599295,0.00992949999999837,5,0.21026510000001508,132.6648707999998,132.6648707999998,132.6648707999998,132.6648707999998,132.6648707999998,132.6648707999998,132.6648707999998,132.6648707999998,132.6648707999998,132.6648707999998,004,P002,2025_Jan_18_0945,ConditionRich,2021.2.3,60.01125811205616,
104.0,104.75,11,0.75,Stimuli/P002/sun_bbfdgdyeqdnadvvi.jpg,0,0,0.0,0,170,170,170,,,,,,,,,,,,,104.0246401000004,0.02464010000039707,None,,132.93176240000003,132.93176240000003,132.93176240000003,132.93176240000003,132.93176240000003,132.93176240000003,132.93176240000003,132.93176240000003,132.93176240000003,132.93176240000003,004,P002,2025_Jan_18_0945,ConditionRich,2021.2.3,60.01125811205616,
104.75,105.0,41,0.0,Stimuli/Blank.png,0,0,0.0,0,171,171,171,,,,,,,,,,,,,104.77545559999999,0.02545559999998659,None,,133.66589239999985,133.66589239999985,133.66589239999985,133.66589239999985,133.66589239999985,133.66589239999985,133.66589239999985,133.66589239999985,133.66589239999985,133.66589239999985,004,P002,2025_Jan_18_0945,ConditionRich,2021.2.3,60.01125811205616,
105.0,105.75,11,0.75,Stimuli/P002/sun_bbfdgdyeqdnadvvi.jpg,0,0,0.0,0,172,172,172,,,,,,,,,,,,,105.01034140000002,0.01034140000001571,None,,133.91596290000007,133.91596290000007,133.91596290000007,133.91596290000007,133.91596290000007,133.91596290000007,133.91596290000007,133.91596290000007,133.91596290000007,133.91596290000007,004,P002,2025_Jan_18_0945,ConditionRich,2021.2.3,60.01125811205616,
105.75,106.0,41,0.0,Stimuli/Blank.png,0,0,0.0,0,173,173,173,,,,,,,,,,,,,105.77655680000044,0.026556800000435032,None,,134.66662739999992,134.66662739999992,134.66662739999992,134.66662739999992,134.66662739999992,134.66662739999992,134.66662739999992,134.66662739999992,134.66662739999992,134.66662739999992,004,P002,2025_Jan_18_0945,ConditionRich,2021.2.3,60.01125811205616,
106.0,106.75,11,0.75,Stimuli/P002/sun_bbfdgdyeqdnadvvi.jpg,0,0,0.0,0,174,174,174,,,,,,,,,,,,,106.01021420000006,0.010214200000064011,None,,134.91684189999978,134.91684189999978,134.91684189999978,134.91684189999978,134.91684189999978,134.91684189999978,134.91684189999978,134.91684189999978,134.91684189999978,134.91684189999978,004,P002,2025_Jan_18_0945,ConditionRich,2021.2.3,60.01125811205616,
106.75,107.0,41,0.0,Stimuli/Blank.png,0,0,0.0,0,175,175,175,,,,,,,,,,,,,106.77684540000018,0.026845400000183872,None,,135.66750520000005,135.66750520000005,135.66750520000005,135.66750520000005,135.66750520000005,135.66750520000005,135.66750520000005,135.66750520000005,135.66750520000005,135.66750520000005,004,P002,2025_Jan_18_0945,ConditionRich,2021.2.3,60.01125811205616,
107.0,107.75,11,0.75,Stimuli/P002/sun_bbfdgdyeqdnadvvi.jpg,0,0,0.0,0,176,176,176,,,,,,,,,,,,,107.01132960000041,0.01132960000040839,None,,135.91772469999978,135.91772469999978,135.91772469999978,135.91772469999978,135.91772469999978,135.91772469999978,135.91772469999978,135.91772469999978,135.91772469999978,135.91772469999978,004,P002,2025_Jan_18_0945,ConditionRich,2021.2.3,60.01125811205616,
107.75,108.0,41,0.0,Stimuli/Blank.png,0,0,0.0,0,177,177,177,,,,,,,,,,,,,107.77995470000042,0.02995470000041678,5,0.18993460000001505,136.68507339999996,136.68507339999996,136.68507339999996,136.68507339999996,136.68507339999996,136.68507339999996,136.68507339999996,136.68507339999996,136.68507339999996,136.68507339999996,004,P002,2025_Jan_18_0945,ConditionRich,2021.2.3,60.01125811205616,
108.0,108.75,28,0.75,Stimuli/P002/things_girl_01b.jpg,0,0,0.0,0,178,178,178,,,,,,,,,,,,,108.02888190000021,0.028881900000214955,None,,136.93528560000004,136.93528560000004,136.93528560000004,136.93528560000004,136.93528560000004,136.93528560000004,136.93528560000004,136.93528560000004,136.93528560000004,136.93528560000004,004,P002,2025_Jan_18_0945,ConditionRich,2021.2.3,60.01125811205616,
108.75,109.0,41,0.0,Stimuli/Blank.png,0,0,0.0,0,179,179,179,,,,,,,,,,,,,108.78032690000009,0.030326900000090973,None,,137.68595670000013,137.68595670000013,137.68595670000013,137.68595670000013,137.68595670000013,137.68595670000013,137.68595670000013,137.68595670000013,137.68595670000013,137.68595670000013,004,P002,2025_Jan_18_0945,ConditionRich,2021.2.3,60.01125811205616,
109.0,109.75,28,0.75,Stimuli/P002/things_girl_01b.jpg,0,0,0.0,0,180,180,180,,,,,,,,,,,,,109.02851580000015,0.028515800000150193,None,,137.91949149999982,137.91949149999982,137.91949149999982,137.91949149999982,137.91949149999982,137.91949149999982,137.91949149999982,137.91949149999982,137.91949149999982,137.91949149999982,004,P002,2025_Jan_18_0945,ConditionRich,2021.2.3,60.01125811205616,
109.75,110.0,41,0.0,Stimuli/Blank.png,0,0,0.0,0,181,181,181,,,,,,,,,,,,,109.7625366000002,0.01253660000020318,None,,138.65347029999975,138.65347029999975,138.65347029999975,138.65347029999975,138.65347029999975,138.65347029999975,138.65347029999975,138.65347029999975,138.65347029999975,138.65347029999975,004,P002,2025_Jan_18_0945,ConditionRich,2021.2.3,60.01125811205616,
110.0,110.75,28,0.75,Stimuli/P002/things_girl_01b.jpg,0,0,0.0,0,182,182,182,,,,,,,,,,,,,110.01279980000027,0.01279980000026626,None,,138.9036602000001,138.9036602000001,138.9036602000001,138.9036602000001,138.9036602000001,138.9036602000001,138.9036602000001,138.9036602000001,138.9036602000001,138.9036602000001,004,P002,2025_Jan_18_0945,ConditionRich,2021.2.3,60.01125811205616,
110.75,111.0,41,0.0,Stimuli/Blank.png,0,0,0.0,0,183,183,183,,,,,,,,,,,,,110.76354280000032,0.013542800000323041,None,,139.6543455000001,139.6543455000001,139.6543455000001,139.6543455000001,139.6543455000001,139.6543455000001,139.6543455000001,139.6543455000001,139.6543455000001,139.6543455000001,004,P002,2025_Jan_18_0945,ConditionRich,2021.2.3,60.01125811205616,
111.0,111.75,28,0.75,Stimuli/P002/things_girl_01b.jpg,0,0,0.0,0,184,184,184,,,,,,,,,,,,,111.01578990000007,0.01578990000007252,None,,139.9212523000001,139.9212523000001,139.9212523000001,139.9212523000001,139.9212523000001,139.9212523000001,139.9212523000001,139.9212523000001,139.9212523000001,139.9212523000001,004,P002,2025_Jan_18_0945,ConditionRich,2021.2.3,60.01125811205616,
111.75,112.0,41,0.0,Stimuli/Blank.png,0,0,0.0,0,185,185,185,,,,,,,,,,,,,111.76441840000007,0.014418400000067777,None,,140.6552246000001,140.6552246000001,140.6552246000001,140.6552246000001,140.6552246000001,140.6552246000001,140.6552246000001,140.6552246000001,140.6552246000001,140.6552246000001,004,P002,2025_Jan_18_0945,ConditionRich,2021.2.3,60.01125811205616,
112.0,112.75,30,0.75,Stimuli/P002/things_iguana_01b.jpg,0,0,0.0,0,186,186,186,,,,,,,,,,,,,112.01469970000016,0.01469970000016474,None,,140.90545190000012,140.90545190000012,140.90545190000012,140.90545190000012,140.90545190000012,140.90545190000012,140.90545190000012,140.90545190000012,140.90545190000012,140.90545190000012,004,P002,2025_Jan_18_0945,ConditionRich,2021.2.3,60.01125811205616,
112.75,113.0,41,0.0,Stimuli/Blank.png,0,0,0.0,0,187,187,187,,,,,,,,,,,,,112.76631720000023,0.016317200000230514,None,,141.67280960000016,141.67280960000016,141.67280960000016,141.67280960000016,141.67280960000016,141.67280960000016,141.67280960000016,141.67280960000016,141.67280960000016,141.67280960000016,004,P002,2025_Jan_18_0945,ConditionRich,2021.2.3,60.01125811205616,
113.0,113.75,30,0.75,Stimuli/P002/things_iguana_01b.jpg,1,0,0.75,0,188,188,188,,,,,,,,,,,,,113.01594130000012,0.015941300000122283,1,0.5279614999999467,141.92300710000018,141.92300710000018,141.92300710000018,141.92300710000018,141.92300710000018,141.92300710000018,141.92300710000018,142.64030169999978,141.92300710000018,141.92300710000018,004,P002,2025_Jan_18_0945,ConditionRich,2021.2.3,60.01125811205616,
113.75,114.0,41,0.0,Stimuli/Blank.png,0,0,0.0,0,189,189,189,,,,,,,,,,,,,113.76638660000026,0.016386600000259932,None,,142.6569900999998,142.6569900999998,142.6569900999998,142.6569900999998,142.6569900999998,142.6569900999998,142.6569900999998,142.6569900999998,142.6569900999998,142.6569900999998,004,P002,2025_Jan_18_0945,ConditionRich,2021.2.3,60.01125811205616,
114.0,114.75,30,0.75,Stimuli/P002/things_iguana_01b.jpg,0,0,0.0,0,190,190,190,,,,,,,,,,,,,114.00038880000011,0.000388800000109768,None,,142.90720139999985,142.90720139999985,142.90720139999985,142.90720139999985,142.90720139999985,142.90720139999985,142.90720139999985,142.90720139999985,142.90720139999985,142.90720139999985,004,P002,2025_Jan_18_0945,ConditionRich,2021.2.3,60.01125811205616,
114.75,115.0,41,0.0,Stimuli/Blank.png,0,0,0.0,0,191,191,191,,,,,,,,,,,,,114.767425,0.01742500000000291,None,,143.65788220000013,143.65788220000013,143.65788220000013,143.65788220000013,143.65788220000013,143.65788220000013,143.65788220000013,143.65788220000013,143.65788220000013,143.65788220000013,004,P002,2025_Jan_18_0945,ConditionRich,2021.2.3,60.01125811205616,
115.0,115.75,30,0.75,Stimuli/P002/things_iguana_01b.jpg,0,0,0.0,0,192,192,192,,,,,,,,,,,,,115.00082530000009,0.0008253000000877364,None,,143.9081043000001,143.9081043000001,143.9081043000001,143.9081043000001,143.9081043000001,143.9081043000001,143.9081043000001,143.9081043000001,143.9081043000001,143.9081043000001,004,P002,2025_Jan_18_0945,ConditionRich,2021.2.3,60.01125811205616,
115.75,116.0,41,0.0,Stimuli/Blank.png,0,0,0.0,0,193,193,193,,,,,,,,,,,,,115.76836330000015,0.01836330000014641,None,,144.6588081,144.6588081,144.6588081,144.6588081,144.6588081,144.6588081,144.6588081,144.6588081,144.6588081,144.6588081,004,P002,2025_Jan_18_0945,ConditionRich,2021.2.3,60.01125811205616,
116.0,116.75,20,0.75,Stimuli/P002/sun_dkgctqgpvxbaoyks.jpg,0,0,0.0,0,194,194,194,,,,,,,,,,,,,116.0017885000002,0.0017885000002024753,None,,144.892296,144.892296,144.892296,144.892296,144.892296,144.892296,144.892296,144.892296,144.892296,144.892296,004,P002,2025_Jan_18_0945,ConditionRich,2021.2.3,60.01125811205616,
116.75,117.0,41,0.0,Stimuli/Blank.png,0,0,0.0,0,195,195,195,,,,,,,,,,,,,116.7532642000001,0.003264200000103301,None,,145.64295730000003,145.64295730000003,145.64295730000003,145.64295730000003,145.64295730000003,145.64295730000003,145.64295730000003,145.64295730000003,145.64295730000003,145.64295730000003,004,P002,2025_Jan_18_0945,ConditionRich,2021.2.3,60.01125811205616,
117.0,117.75,20,0.75,Stimuli/P002/sun_dkgctqgpvxbaoyks.jpg,0,0,0.0,0,196,196,196,,,,,,,,,,,,,117.00273020000031,0.002730200000314653,None,,145.90985309999996,145.90985309999996,145.90985309999996,145.90985309999996,145.90985309999996,145.90985309999996,145.90985309999996,145.90985309999996,145.90985309999996,145.90985309999996,004,P002,2025_Jan_18_0945,ConditionRich,2021.2.3,60.01125811205616,
117.75,118.0,41,0.0,Stimuli/Blank.png,0,0,0.0,0,197,197,197,,,,,,,,,,,,,117.77052020000019,0.020520200000191835,None,,146.6605144,146.6605144,146.6605144,146.6605144,146.6605144,146.6605144,146.6605144,146.6605144,146.6605144,146.6605144,004,P002,2025_Jan_18_0945,ConditionRich,2021.2.3,60.01125811205616,
118.0,118.75,20,0.75,Stimuli/P002/sun_dkgctqgpvxbaoyks.jpg,1,0,0.75,0,198,198,198,,,,,,,,,,,,,118.00545920000013,0.005459200000132114,1,0.428326300000208,146.9107353999998,146.9107353999998,146.9107353999998,146.9107353999998,146.9107353999998,146.9107353999998,146.9107353999998,147.64472829999977,146.9107353999998,146.9107353999998,004,P002,2025_Jan_18_0945,ConditionRich,2021.2.3,60.01125811205616,
118.75,119.0,41,0.0,Stimuli/Blank.png,0,0,0.0,0,199,199,199,,,,,,,,,,,,,118.77091800000017,0.020918000000165193,None,,147.66140739999992,147.66140739999992,147.66140739999992,147.66140739999992,147.66140739999992,147.66140739999992,147.66140739999992,147.66140739999992,147.66140739999992,147.66140739999992,004,P002,2025_Jan_18_0945,ConditionRich,2021.2.3,60.01125811205616,
119.0,119.75,20,0.75,Stimuli/P002/sun_dkgctqgpvxbaoyks.jpg,0,0,0.0,0,200,200,200,,,,,,,,,,,,,119.00580639999998,0.005806399999983114,None,,147.9116057000001,147.9116057000001,147.9116057000001,147.9116057000001,147.9116057000001,147.9116057000001,147.9116057000001,147.9116057000001,147.9116057000001,147.9116057000001,004,P002,2025_Jan_18_0945,ConditionRich,2021.2.3,60.01125811205616,
119.75,120.0,41,0.0,Stimuli/Blank.png,0,0,0.0,0,201,201,201,,,,,,,,,,,,,119.77158370000006,0.02158370000006471,None,,148.66227660000004,148.66227660000004,148.66227660000004,148.66227660000004,148.66227660000004,148.66227660000004,148.66227660000004,148.66227660000004,148.66227660000004,148.66227660000004,004,P002,2025_Jan_18_0945,ConditionRich,2021.2.3,60.01125811205616,
120.0,120.75,37,0.75,Stimuli/P002/things_starfish_01b.jpg,1,0,0.75,0,202,202,202,,,,,,,,,,,,,120.00543500000003,0.0054350000000340515,1,0.582469399999809,148.91248919999998,148.91248919999998,148.91248919999998,148.91248919999998,148.91248919999998,148.91248919999998,148.91248919999998,149.6297952,148.91248919999998,148.91248919999998,004,P002,2025_Jan_18_0945,ConditionRich,2021.2.3,60.01125811205616,
120.75,121.0,41,0.0,Stimuli/Blank.png,0,0,0.0,0,203,203,203,,,,,,,,,,,,,120.77488690000018,0.024886900000183232,None,,149.67984849999993,149.67984849999993,149.67984849999993,149.67984849999993,149.67984849999993,149.67984849999993,149.67984849999993,149.67984849999993,149.67984849999993,149.67984849999993,004,P002,2025_Jan_18_0945,ConditionRich,2021.2.3,60.01125811205616,
121.0,121.75,37,0.75,Stimuli/P002/things_starfish_01b.jpg,0,0,0.0,0,204,204,204,,,,,,,,,,,,,121.02500790000022,0.025007900000218797,None,,149.9300631000001,149.9300631000001,149.9300631000001,149.9300631000001,149.9300631000001,149.9300631000001,149.9300631000001,149.9300631000001,149.9300631000001,149.9300631000001,004,P002,2025_Jan_18_0945,ConditionRich,2021.2.3,60.01125811205616,
121.75,122.0,41,0.0,Stimuli/Blank.png,0,0,0.0,0,205,205,205,,,,,,,,,,,,,121.77521360000037,0.025213600000370207,5,0.19427029999997103,150.68072189999975,150.68072189999975,150.68072189999975,150.68072189999975,150.68072189999975,150.68072189999975,150.68072189999975,150.68072189999975,150.68072189999975,150.68072189999975,004,P002,2025_Jan_18_0945,ConditionRich,2021.2.3,60.01125811205616,
122.0,122.75,37,0.75,Stimuli/P002/things_starfish_01b.jpg,0,0,0.0,0,206,206,206,,,,,,,,,,,,,122.02351480000016,0.023514800000157265,None,,150.9142582999998,150.9142582999998,150.9142582999998,150.9142582999998,150.9142582999998,150.9142582999998,150.9142582999998,150.9142582999998,150.9142582999998,150.9142582999998,004,P002,2025_Jan_18_0945,ConditionRich,2021.2.3,60.01125811205616,
122.75,123.0,41,0.0,Stimuli/Blank.png,0,0,0.0,0,207,207,207,,,,,,,,,,,,,122.75752470000043,0.007524700000431039,None,,151.64823699999988,151.64823699999988,151.64823699999988,151.64823699999988,151.64823699999988,151.64823699999988,151.64823699999988,151.64823699999988,151.64823699999988,151.64823699999988,004,P002,2025_Jan_18_0945,ConditionRich,2021.2.3,60.01125811205616,
123.0,123.75,37,0.75,Stimuli/P002/things_starfish_01b.jpg,0,0,0.0,0,208,208,208,,,,,,,,,,,,,123.0098995000003,0.009899500000301487,None,,151.91518210000004,151.91518210000004,151.91518210000004,151.91518210000004,151.91518210000004,151.91518210000004,151.91518210000004,151.91518210000004,151.91518210000004,151.91518210000004,004,P002,2025_Jan_18_0945,ConditionRich,2021.2.3,60.01125811205616,
123.75,124.0,41,0.0,Stimuli/Blank.png,0,0,0.0,0,209,209,209,,,,,,,,,,,,,123.77556240000013,0.025562400000126217,None,,152.66579980000006,152.66579980000006,152.66579980000006,152.66579980000006,152.66579980000006,152.66579980000006,152.66579980000006,152.66579980000006,152.66579980000006,152.66579980000006,004,P002,2025_Jan_18_0945,ConditionRich,2021.2.3,60.01125811205616,
124.0,124.75,22,0.75,Stimuli/P002/things_boy_01b.jpg,0,0,0.0,0,210,210,210,,,,,,,,,,,,,124.0083794000002,0.008379400000194437,None,,152.89933389999987,152.89933389999987,152.89933389999987,152.89933389999987,152.89933389999987,152.89933389999987,152.89933389999987,152.89933389999987,152.89933389999987,152.89933389999987,004,P002,2025_Jan_18_0945,ConditionRich,2021.2.3,60.01125811205616,
124.75,125.0,41,0.0,Stimuli/Blank.png,0,0,0.0,0,211,211,211,,,,,,,,,,,,,124.75934040000038,0.009340400000382942,None,,153.64998920000016,153.64998920000016,153.64998920000016,153.64998920000016,153.64998920000016,153.64998920000016,153.64998920000016,153.64998920000016,153.64998920000016,153.64998920000016,004,P002,2025_Jan_18_0945,ConditionRich,2021.2.3,60.01125811205616,
125.0,125.75,22,0.75,Stimuli/P002/things_boy_01b.jpg,0,0,0.0,0,212,212,212,,,,,,,,,,,,,125.01039820000005,0.010398200000054203,None,,153.91691039999978,153.91691039999978,153.91691039999978,153.91691039999978,153.91691039999978,153.91691039999978,153.91691039999978,153.91691039999978,153.91691039999978,153.91691039999978,004,P002,2025_Jan_18_0945,ConditionRich,2021.2.3,60.01125811205616,
125.75,126.0,41,0.0,Stimuli/Blank.png,0,0,0.0,0,213,213,213,,,,,,,,,,,,,125.77676350000002,0.026763500000015483,None,,154.66756149999992,154.66756149999992,154.66756149999992,154.66756149999992,154.66756149999992,154.66756149999992,154.66756149999992,154.66756149999992,154.66756149999992,154.66756149999992,004,P002,2025_Jan_18_0945,ConditionRich,2021.2.3,60.01125811205616,
126.0,126.75,22,0.75,Stimuli/P002/things_boy_01b.jpg,0,0,0.0,0,214,214,214,,,,,,,,,,,,,126.0105924000004,0.010592400000405178,None,,154.9177752999999,154.9177752999999,154.9177752999999,154.9177752999999,154.9177752999999,154.9177752999999,154.9177752999999,154.9177752999999,154.9177752999999,154.9177752999999,004,P002,2025_Jan_18_0945,ConditionRich,2021.2.3,60.01125811205616,
126.75,127.0,41,0.0,Stimuli/Blank.png,0,0,0.0,0,215,215,215,,,,,,,,,,,,,126.78000830000019,0.030008300000190502,None,,155.68512770000007,155.68512770000007,155.68512770000007,155.68512770000007,155.68512770000007,155.68512770000007,155.68512770000007,155.68512770000007,155.68512770000007,155.68512770000007,004,P002,2025_Jan_18_0945,ConditionRich,2021.2.3,60.01125811205616,
127.0,127.75,22,0.75,Stimuli/P002/things_boy_01b.jpg,0,0,0.0,0,216,216,216,,,,,,,,,,,,,127.02905800000008,0.0290580000000773,None,,155.9353412999999,155.9353412999999,155.9353412999999,155.9353412999999,155.9353412999999,155.9353412999999,155.9353412999999,155.9353412999999,155.9353412999999,155.9353412999999,004,P002,2025_Jan_18_0945,ConditionRich,2021.2.3,60.01125811205616,
127.75,128.0,41,0.0,Stimuli/Blank.png,0,0,0.0,0,217,217,217,,,,,,,,,,,,,127.78030040000021,0.030300400000214722,5,0.18919899999991685,156.68599989999984,156.68599989999984,156.68599989999984,156.68599989999984,156.68599989999984,156.68599989999984,156.68599989999984,156.68599989999984,156.68599989999984,156.68599989999984,004,P002,2025_Jan_18_0945,ConditionRich,2021.2.3,60.01125811205616,
128.0,128.75,12,0.75,Stimuli/P002/sun_bdxvmnlyovhqognn.jpg,0,0,0.0,0,218,218,218,,,,,,,,,,,,,128.03090620000012,0.03090620000011768,None,,156.9362228,156.9362228,156.9362228,156.9362228,156.9362228,156.9362228,156.9362228,156.9362228,156.9362228,156.9362228,004,P002,2025_Jan_18_0945,ConditionRich,2021.2.3,60.01125811205616,
128.75,129.0,41,0.0,Stimuli/Blank.png,0,0,0.0,0,219,219,219,,,,,,,,,,,,,128.7802326000001,0.030232600000090315,None,,157.6702049999999,157.6702049999999,157.6702049999999,157.6702049999999,157.6702049999999,157.6702049999999,157.6702049999999,157.6702049999999,157.6702049999999,157.6702049999999,004,P002,2025_Jan_18_0945,ConditionRich,2021.2.3,60.01125811205616,
129.0,129.75,12,0.75,Stimuli/P002/sun_bdxvmnlyovhqognn.jpg,0,0,0.0,0,220,220,220,,,,,,,,,,,,,129.01505510000015,0.015055100000154198,None,,157.9204264,157.9204264,157.9204264,157.9204264,157.9204264,157.9204264,157.9204264,157.9204264,157.9204264,157.9204264,004,P002,2025_Jan_18_0945,ConditionRich,2021.2.3,60.01125811205616,
129.75,130.0,41,0.0,Stimuli/Blank.png,0,0,0.0,0,221,221,221,,,,,,,,,,,,,129.7660732000004,0.016073200000391807,None,,158.67109389999996,158.67109389999996,158.67109389999996,158.67109389999996,158.67109389999996,158.67109389999996,158.67109389999996,158.67109389999996,158.67109389999996,158.67109389999996,004,P002,2025_Jan_18_0945,ConditionRich,2021.2.3,60.01125811205616,
130.0,130.75,12,0.75,Stimuli/P002/sun_bdxvmnlyovhqognn.jpg,0,0,0.0,0,222,222,222,,,,,,,,,,,,,130.01338480000004,0.013384800000039832,None,,158.90461959999993,158.90461959999993,158.90461959999993,158.90461959999993,158.90461959999993,158.90461959999993,158.90461959999993,158.90461959999993,158.90461959999993,158.90461959999993,004,P002,2025_Jan_18_0945,ConditionRich,2021.2.3,60.01125811205616,
130.75,131.0,41,0.0,Stimuli/Blank.png,0,0,0.0,0,223,223,223,,,,,,,,,,,,,130.7643677000001,0.014367700000093464,None,,159.6552784999999,159.6552784999999,159.6552784999999,159.6552784999999,159.6552784999999,159.6552784999999,159.6552784999999,159.6552784999999,159.6552784999999,159.6552784999999,004,P002,2025_Jan_18_0945,ConditionRich,2021.2.3,60.01125811205616,
131.0,131.75,12,0.75,Stimuli/P002/sun_bdxvmnlyovhqognn.jpg,0,0,0.0,0,224,224,224,,,,,,,,,,,,,131.01524720000043,0.015247200000430894,None,,159.92219509999995,159.92219509999995,159.92219509999995,159.92219509999995,159.92219509999995,159.92219509999995,159.92219509999995,159.92219509999995,159.92219509999995,159.92219509999995,004,P002,2025_Jan_18_0945,ConditionRich,2021.2.3,60.01125811205616,
131.75,132.0,41,0.0,Stimuli/Blank.png,0,0,0.0,0,225,225,225,,,,,,,,,,,,,131.76621870000008,0.0162187000000813,None,,160.65617029999976,160.65617029999976,160.65617029999976,160.65617029999976,160.65617029999976,160.65617029999976,160.65617029999976,160.65617029999976,160.65617029999976,160.65617029999976,004,P002,2025_Jan_18_0945,ConditionRich,2021.2.3,60.01125811205616,
132.0,132.75,34,0.75,Stimuli/P002/things_parrot_01b.jpg,0,0,0.0,0,226,226,226,,,,,,,,,,,,,131.9996897000001,-0.0003102999999100575,None,,160.90637800000013,160.90637800000013,160.90637800000013,160.90637800000013,160.90637800000013,160.90637800000013,160.90637800000013,160.90637800000013,160.90637800000013,160.90637800000013,004,P002,2025_Jan_18_0945,ConditionRich,2021.2.3,60.01125811205616,
132.75,133.0,41,0.0,Stimuli/Blank.png,0,0,0.0,0,227,227,227,,,,,,,,,,,,,132.76592040000014,0.015920400000140944,None,,161.65703660000008,161.65703660000008,161.65703660000008,161.65703660000008,161.65703660000008,161.65703660000008,161.65703660000008,161.65703660000008,161.65703660000008,161.65703660000008,004,P002,2025_Jan_18_0945,ConditionRich,2021.2.3,60.01125811205616,
133.0,133.75,34,0.75,Stimuli/P002/things_parrot_01b.jpg,0,0,0.0,0,228,228,228,,,,,,,,,,,,,133.0007174000002,0.0007174000002123648,None,,161.90726210000003,161.90726210000003,161.90726210000003,161.90726210000003,161.90726210000003,161.90726210000003,161.90726210000003,161.90726210000003,161.90726210000003,161.90726210000003,004,P002,2025_Jan_18_0945,ConditionRich,2021.2.3,60.01125811205616,
133.75,134.0,41,0.0,Stimuli/Blank.png,0,0,0.0,0,229,229,229,,,,,,,,,,,,,133.7671835000001,0.01718350000010105,None,,162.6579200000001,162.6579200000001,162.6579200000001,162.6579200000001,162.6579200000001,162.6579200000001,162.6579200000001,162.6579200000001,162.6579200000001,162.6579200000001,004,P002,2025_Jan_18_0945,ConditionRich,2021.2.3,60.01125811205616,
134.0,134.75,34,0.75,Stimuli/P002/things_parrot_01b.jpg,0,0,0.0,0,230,230,230,,,,,,,,,,,,,134.0004925000003,0.0004925000002913293,None,,162.89146089999986,162.89146089999986,162.89146089999986,162.89146089999986,162.89146089999986,162.89146089999986,162.89146089999986,162.89146089999986,162.89146089999986,162.89146089999986,004,P002,2025_Jan_18_0945,ConditionRich,2021.2.3,60.01125811205616,
134.75,135.0,41,0.0,Stimuli/Blank.png,0,0,0.0,0,231,231,231,,,,,,,,,,,,,134.7514688000001,0.0014688000001115142,None,,163.64212050000015,163.64212050000015,163.64212050000015,163.64212050000015,163.64212050000015,163.64212050000015,163.64212050000015,163.64212050000015,163.64212050000015,163.64212050000015,004,P002,2025_Jan_18_0945,ConditionRich,2021.2.3,60.01125811205616,
135.0,135.75,34,0.75,Stimuli/P002/things_parrot_01b.jpg,0,0,0.0,0,232,232,232,,,,,,,,,,,,,135.00191500000028,0.0019150000002809975,None,,163.90902670000014,163.90902670000014,163.90902670000014,163.90902670000014,163.90902670000014,163.90902670000014,163.90902670000014,163.90902670000014,163.90902670000014,163.90902670000014,004,P002,2025_Jan_18_0945,ConditionRich,2021.2.3,60.01125811205616,
135.75,136.0,41,0.0,Stimuli/Blank.png,0,0,0.0,0,233,233,233,,,,,,,,,,,,,135.769315,0.019315000000005966,None,,164.65969289999975,164.65969289999975,164.65969289999975,164.65969289999975,164.65969289999975,164.65969289999975,164.65969289999975,164.65969289999975,164.65969289999975,164.65969289999975,004,P002,2025_Jan_18_0945,ConditionRich,2021.2.3,60.01125811205616,
136.0,136.75,25,0.75,Stimuli/P002/things_curry_01b.jpg,0,0,0.0,0,234,234,234,,,,,,,,,,,,,136.00214860000006,0.002148600000055012,None,,164.90990599999986,164.90990599999986,164.90990599999986,164.90990599999986,164.90990599999986,164.90990599999986,164.90990599999986,164.90990599999986,164.90990599999986,164.90990599999986,004,P002,2025_Jan_18_0945,ConditionRich,2021.2.3,60.01125811205616,
136.75,137.0,41,0.0,Stimuli/Blank.png,0,0,0.0,0,235,235,235,,,,,,,,,,,,,136.77066410000043,0.020664100000431063,None,,165.66057490000003,165.66057490000003,165.66057490000003,165.66057490000003,165.66057490000003,165.66057490000003,165.66057490000003,165.66057490000003,165.66057490000003,165.66057490000003,004,P002,2025_Jan_18_0945,ConditionRich,2021.2.3,60.01125811205616,
137.0,137.75,25,0.75,Stimuli/P002/things_curry_01b.jpg,0,0,0.0,0,236,236,236,,,,,,,,,,,,,137.00343250000014,0.0034325000001445005,None,,165.89410309999994,165.89410309999994,165.89410309999994,165.89410309999994,165.89410309999994,165.89410309999994,165.89410309999994,165.89410309999994,165.89410309999994,165.89410309999994,004,P002,2025_Jan_18_0945,ConditionRich,2021.2.3,60.01125811205616,
137.75,138.0,41,0.0,Stimuli/Blank.png,0,0,0.0,0,237,237,237,,,,,,,,,,,,,137.75344050000012,0.0034405000001243025,None,,166.6447658000002,166.6447658000002,166.6447658000002,166.6447658000002,166.6447658000002,166.6447658000002,166.6447658000002,166.6447658000002,166.6447658000002,166.6447658000002,004,P002,2025_Jan_18_0945,ConditionRich,2021.2.3,60.01125811205616,
138.0,138.75,25,0.75,Stimuli/P002/things_curry_01b.jpg,0,0,0.0,0,238,238,238,,,,,,,,,,,,,138.0043495,0.004349499999989348,None,,166.9116656000001,166.9116656000001,166.9116656000001,166.9116656000001,166.9116656000001,166.9116656000001,166.9116656000001,166.9116656000001,166.9116656000001,166.9116656000001,004,P002,2025_Jan_18_0945,ConditionRich,2021.2.3,60.01125811205616,
138.75,139.0,41,0.0,Stimuli/Blank.png,0,0,0.0,0,239,239,239,,,,,,,,,,,,,138.7725757000003,0.022575700000288634,None,,167.6623343000001,167.6623343000001,167.6623343000001,167.6623343000001,167.6623343000001,167.6623343000001,167.6623343000001,167.6623343000001,167.6623343000001,167.6623343000001,004,P002,2025_Jan_18_0945,ConditionRich,2021.2.3,60.01125811205616,
139.0,139.75,25,0.75,Stimuli/P002/things_curry_01b.jpg,0,0,0.0,0,240,240,240,,,,,,,,,,,,,139.00533620000033,0.005336200000328972,None,,167.89586599999984,167.89586599999984,167.89586599999984,167.89586599999984,167.89586599999984,167.89586599999984,167.89586599999984,167.89586599999984,167.89586599999984,167.89586599999984,004,P002,2025_Jan_18_0945,ConditionRich,2021.2.3,60.01125811205616,
139.75,140.0,41,0.0,Stimuli/Blank.png,0,0,0.0,0,241,241,241,,,,,,,,,,,,,139.7562581000002,0.0062581000001955545,None,,168.64652560000013,168.64652560000013,168.64652560000013,168.64652560000013,168.64652560000013,168.64652560000013,168.64652560000013,168.64652560000013,168.64652560000013,168.64652560000013,004,P002,2025_Jan_18_0945,ConditionRich,2021.2.3,60.01125811205616,
140.0,140.75,39,0.75,Stimuli/P002/things_woman_01b.jpg,0,0,0.0,0,242,242,242,,,,,,,,,,,,,140.00544010000021,0.005440100000214443,None,,168.89680429999999,168.89680429999999,168.89680429999999,168.89680429999999,168.89680429999999,168.89680429999999,168.89680429999999,168.89680429999999,168.89680429999999,168.89680429999999,004,P002,2025_Jan_18_0945,ConditionRich,2021.2.3,60.01125811205616,
140.75,141.0,41,0.0,Stimuli/Blank.png,0,0,0.0,0,243,243,243,,,,,,,,,,,,,140.75684590000037,0.00684590000037133,None,,169.64749699999993,169.64749699999993,169.64749699999993,169.64749699999993,169.64749699999993,169.64749699999993,169.64749699999993,169.64749699999993,169.64749699999993,169.64749699999993,004,P002,2025_Jan_18_0945,ConditionRich,2021.2.3,60.01125811205616,
141.0,141.75,39,0.75,Stimuli/P002/things_woman_01b.jpg,0,0,0.0,0,244,244,244,,,,,,,,,,,,,141.00704059999998,0.007040599999982078,None,,169.91441729999997,169.91441729999997,169.91441729999997,169.91441729999997,169.91441729999997,169.91441729999997,169.91441729999997,169.91441729999997,169.91441729999997,169.91441729999997,004,P002,2025_Jan_18_0945,ConditionRich,2021.2.3,60.01125811205616,
141.75,142.0,41,0.0,Stimuli/Blank.png,0,0,0.0,0,245,245,245,,,,,,,,,,,,,141.7745189000002,0.024518900000202848,None,,170.6649735000001,170.6649735000001,170.6649735000001,170.6649735000001,170.6649735000001,170.6649735000001,170.6649735000001,170.6649735000001,170.6649735000001,170.6649735000001,004,P002,2025_Jan_18_0945,ConditionRich,2021.2.3,60.01125811205616,
142.0,142.75,39,0.75,Stimuli/P002/things_woman_01b.jpg,0,0,0.0,0,246,246,246,,,,,,,,,,,,,142.00815320000038,0.008153200000379002,None,,170.8985090000001,170.8985090000001,170.8985090000001,170.8985090000001,170.8985090000001,170.8985090000001,170.8985090000001,170.8985090000001,170.8985090000001,170.8985090000001,004,P002,2025_Jan_18_0945,ConditionRich,2021.2.3,60.01125811205616,
142.75,143.0,41,0.0,Stimuli/Blank.png,0,0,0.0,0,247,247,247,,,,,,,,,,,,,142.76019710000037,0.010197100000368664,None,,171.6658542,171.6658542,171.6658542,171.6658542,171.6658542,171.6658542,171.6658542,171.6658542,171.6658542,171.6658542,004,P002,2025_Jan_18_0945,ConditionRich,2021.2.3,60.01125811205616,
143.0,143.75,39,0.75,Stimuli/P002/things_woman_01b.jpg,0,0,0.0,0,248,248,248,,,,,,,,,,,,,143.02618580000035,0.026185800000348536,None,,171.93272399999978,171.93272399999978,171.93272399999978,171.93272399999978,171.93272399999978,171.93272399999978,171.93272399999978,171.93272399999978,171.93272399999978,171.93272399999978,004,P002,2025_Jan_18_0945,ConditionRich,2021.2.3,60.01125811205616,
143.75,144.0,41,0.0,Stimuli/Blank.png,0,0,0.0,0,249,249,249,,,,,,,,,,,,,143.77557970000043,0.02557970000043497,None,,172.66672800000015,172.66672800000015,172.66672800000015,172.66672800000015,172.66672800000015,172.66672800000015,172.66672800000015,172.66672800000015,172.66672800000015,172.66672800000015,004,P002,2025_Jan_18_0945,ConditionRich,2021.2.3,60.01125811205616,
144.0,144.75,16,0.75,Stimuli/P002/sun_biqyomkjbujnppuf.jpg,0,0,0.0,0,250,250,250,,,,,,,,,,,,,144.00893970000016,0.008939700000155426,None,,172.90026669999997,172.90026669999997,172.90026669999997,172.90026669999997,172.90026669999997,172.90026669999997,172.90026669999997,172.90026669999997,172.90026669999997,172.90026669999997,004,P002,2025_Jan_18_0945,ConditionRich,2021.2.3,60.01125811205616,
144.75,145.0,41,0.0,Stimuli/Blank.png,0,0,0.0,0,251,251,251,,,,,,,,,,,,,144.7605377,0.010537699999986216,None,,173.65095269999983,173.65095269999983,173.65095269999983,173.65095269999983,173.65095269999983,173.65095269999983,173.65095269999983,173.65095269999983,173.65095269999983,173.65095269999983,004,P002,2025_Jan_18_0945,ConditionRich,2021.2.3,60.01125811205616,
145.0,145.75,16,0.75,Stimuli/P002/sun_biqyomkjbujnppuf.jpg,0,0,0.0,0,252,252,252,,,,,,,,,,,,,145.01091020000013,0.01091020000012577,None,,173.91784830000006,173.91784830000006,173.91784830000006,173.91784830000006,173.91784830000006,173.91784830000006,173.91784830000006,173.91784830000006,173.91784830000006,173.91784830000006,004,P002,2025_Jan_18_0945,ConditionRich,2021.2.3,60.01125811205616,
145.75,146.0,41,0.0,Stimuli/Blank.png,0,0,0.0,0,253,253,253,,,,,,,,,,,,,145.78009940000038,0.030099400000381138,5,0.18964469999991707,174.68518760000006,174.68518760000006,174.68518760000006,174.68518760000006,174.68518760000006,174.68518760000006,174.68518760000006,174.68518760000006,174.68518760000006,174.68518760000006,004,P002,2025_Jan_18_0945,ConditionRich,2021.2.3,60.01125811205616,
146.0,146.75,16,0.75,Stimuli/P002/sun_biqyomkjbujnppuf.jpg,0,0,0.0,0,254,254,254,,,,,,,,,,,,,146.02741820000028,0.027418200000283832,None,,174.91871009999977,174.91871009999977,174.91871009999977,174.91871009999977,174.91871009999977,174.91871009999977,174.91871009999977,174.91871009999977,174.91871009999977,174.91871009999977,004,P002,2025_Jan_18_0945,ConditionRich,2021.2.3,60.01125811205616,
146.75,147.0,41,0.0,Stimuli/Blank.png,0,0,0.0,0,255,255,255,,,,,,,,,,,,,146.7613298000001,0.0113298000001123,None,,175.6526856999999,175.6526856999999,175.6526856999999,175.6526856999999,175.6526856999999,175.6526856999999,175.6526856999999,175.6526856999999,175.6526856999999,175.6526856999999,004,P002,2025_Jan_18_0945,ConditionRich,2021.2.3,60.01125811205616,
147.0,147.75,16,0.75,Stimuli/P002/sun_biqyomkjbujnppuf.jpg,0,0,0.0,0,256,256,256,,,,,,,,,,,,,147.01467020000018,0.014670200000182376,None,,175.9195961999999,175.9195961999999,175.9195961999999,175.9195961999999,175.9195961999999,175.9195961999999,175.9195961999999,175.9195961999999,175.9195961999999,175.9195961999999,004,P002,2025_Jan_18_0945,ConditionRich,2021.2.3,60.01125811205616,
147.75,148.0,41,0.0,Stimuli/Blank.png,0,0,0.0,0,257,257,257,,,,,,,,,,,,,147.78020340000012,0.030203400000118563,None,,176.67025969999986,176.67025969999986,176.67025969999986,176.67025969999986,176.67025969999986,176.67025969999986,176.67025969999986,176.67025969999986,176.67025969999986,176.67025969999986,004,P002,2025_Jan_18_0945,ConditionRich,2021.2.3,60.01125811205616,
148.0,148.75,38,0.75,Stimuli/P002/things_windowsill_01b.jpg,0,0,0.0,0,258,258,258,,,,,,,,,,,,,148.01286420000042,0.012864200000421988,None,,176.90380129999994,176.90380129999994,176.90380129999994,176.90380129999994,176.90380129999994,176.90380129999994,176.90380129999994,176.90380129999994,176.90380129999994,176.90380129999994,004,P002,2025_Jan_18_0945,ConditionRich,2021.2.3,60.01125811205616,
148.75,149.0,41,0.0,Stimuli/Blank.png,0,0,0.0,0,259,259,259,,,,,,,,,,,,,148.76596670000026,0.01596670000026279,None,,177.67115090000016,177.67115090000016,177.67115090000016,177.67115090000016,177.67115090000016,177.67115090000016,177.67115090000016,177.67115090000016,177.67115090000016,177.67115090000016,004,P002,2025_Jan_18_0945,ConditionRich,2021.2.3,60.01125811205616,
149.0,149.75,38,0.75,Stimuli/P002/things_windowsill_01b.jpg,0,0,0.0,0,260,260,260,,,,,,,,,,,,,149.01329570000007,0.01329570000007152,None,,177.90466789999982,177.90466789999982,177.90466789999982,177.90466789999982,177.90466789999982,177.90466789999982,177.90466789999982,177.90466789999982,177.90466789999982,177.90466789999982,004,P002,2025_Jan_18_0945,ConditionRich,2021.2.3,60.01125811205616,
149.75,150.0,41,0.0,Stimuli/Blank.png,0,0,0.0,0,261,261,261,,,,,,,,,,,,,149.76546010000038,0.015460100000382226,None,,178.65533210000012,178.65533210000012,178.65533210000012,178.65533210000012,178.65533210000012,178.65533210000012,178.65533210000012,178.65533210000012,178.65533210000012,178.65533210000012,004,P002,2025_Jan_18_0945,ConditionRich,2021.2.3,60.01125811205616,
150.0,150.75,38,0.75,Stimuli/P002/things_windowsill_01b.jpg,1,0,0.75,0,262,262,262,,,,,,,,,,,,,149.99882300000036,-0.001176999999643158,1,0.4264051999998628,178.90555859999995,178.90555859999995,178.90555859999995,178.90555859999995,178.90555859999995,178.90555859999995,178.90555859999995,179.62284739999996,178.90555859999995,178.90555859999995,004,P002,2025_Jan_18_0945,ConditionRich,2021.2.3,60.01125811205616,
