eventStartTime,eventEndTime,eventCond,imSize,imFile,responseEvent,fixRespStart,fixRespEnd,Events.thisRepN,Events.thisTrialN,Events.thisN,Events.thisIndex,Instructions.started,Instructions.stopped,participantReadyResponse.keys,participantReadyResponse.rt,participantReadyResponse.started,participantReadyResponse.stopped,startWaitforTrigger,triggerResponse.keys,triggerResponse.rt,triggerResponse.started,triggerResponse.stopped,globalTimer,actualStartTime,startTimingDiff,participantResponse.keys,participantResponse.rt,participantResponse.started,participantResponse.stopped,image.started,image.stopped,fixationOutside.started,fixationOutside.stopped,fixationResponse.started,fixationResponse.stopped,fixationInside.started,fixationInside.stopped,session,participant,date,expName,psychopyVersion,frameRate,
,,,,,,,,,,,,30.81920809999974,None,1,1.926711800000703,30.81920809999974,None,,,,,,,,,,,,,,,,,,,,,007,P002,2025_Jan_18_1014,ConditionRich,2021.2.3,59.92541682610541,
,,,,,,,,,,,,,,,,,,32.75583000000006,5,13.587677900000017,32.769058900000346,None,,,,,,,,,,,,,,,,007,P002,2025_Jan_18_1014,ConditionRich,2021.2.3,59.92541682610541,
0.0,4.0,0,0.0,Stimuli/Blank.png,0,0,0.0,0,0,0,0,,,,,,,,,,,,46.36822380000012,0.04414509999969596,0.04414509999969596,5,3.9257098000007318,46.43103549999978,None,46.43103549999978,None,46.43103549999978,None,46.43103549999978,46.43103549999978,46.43103549999978,None,007,P002,2025_Jan_18_1014,ConditionRich,2021.2.3,59.92541682610541,
4.0,4.75,24,0.75,Stimuli/P002/things_cornucopia_01b.jpg,0,0,0.0,0,1,1,1,,,,,,,,,,,,,4.0251886999994895,0.025188699999489472,None,,50.41819359999954,50.41819359999954,50.41819359999954,50.41819359999954,50.41819359999954,50.41819359999954,50.41819359999954,50.41819359999954,50.41819359999954,50.41819359999954,007,P002,2025_Jan_18_1014,ConditionRich,2021.2.3,59.92541682610541,
4.75,5.0,41,0.0,Stimuli/Blank.png,0,0,0.0,0,2,2,2,,,,,,,,,,,,,4.7720486999996865,0.022048699999686505,None,,51.16885219999949,51.16885219999949,51.16885219999949,51.16885219999949,51.16885219999949,51.16885219999949,51.16885219999949,51.16885219999949,51.16885219999949,51.16885219999949,007,P002,2025_Jan_18_1014,ConditionRich,2021.2.3,59.92541682610541,
5.0,5.75,24,0.75,Stimuli/P002/things_cornucopia_01b.jpg,0,0,0.0,0,3,3,3,,,,,,,,,,,,,5.021510399999897,0.021510399999897345,None,,51.41876189999948,51.41876189999948,51.41876189999948,51.41876189999948,51.41876189999948,51.41876189999948,51.41876189999948,51.41876189999948,51.41876189999948,51.41876189999948,007,P002,2025_Jan_18_1014,ConditionRich,2021.2.3,59.92541682610541,
5.75,6.0,41,0.0,Stimuli/Blank.png,0,0,0.0,0,4,4,4,,,,,,,,,,,,,5.771368800000346,0.0213688000003458,None,,52.15274200000022,52.15274200000022,52.15274200000022,52.15274200000022,52.15274200000022,52.15274200000022,52.15274200000022,52.15274200000022,52.15274200000022,52.15274200000022,007,P002,2025_Jan_18_1014,ConditionRich,2021.2.3,59.92541682610541,
6.0,6.75,24,0.75,Stimuli/P002/things_cornucopia_01b.jpg,0,0,0.0,0,5,5,5,,,,,,,,,,,,,6.0062386999998125,0.006238699999812525,None,,52.40297120000014,52.40297120000014,52.40297120000014,52.40297120000014,52.40297120000014,52.40297120000014,52.40297120000014,52.40297120000014,52.40297120000014,52.40297120000014,007,P002,2025_Jan_18_1014,ConditionRich,2021.2.3,59.92541682610541,
6.75,7.0,41,0.0,Stimuli/Blank.png,0,0,0.0,0,6,6,6,,,,,,,,,,,,,6.77178079999976,0.021780799999760347,None,,53.15362550000009,53.15362550000009,53.15362550000009,53.15362550000009,53.15362550000009,53.15362550000009,53.15362550000009,53.15362550000009,53.15362550000009,53.15362550000009,007,P002,2025_Jan_18_1014,ConditionRich,2021.2.3,59.92541682610541,
7.0,7.75,24,0.75,Stimuli/P002/things_cornucopia_01b.jpg,0,0,0.0,0,7,7,7,,,,,,,,,,,,,7.004669899999499,0.004669899999498739,None,,53.38715779999984,53.38715779999984,53.38715779999984,53.38715779999984,53.38715779999984,53.38715779999984,53.38715779999984,53.38715779999984,53.38715779999984,53.38715779999984,007,P002,2025_Jan_18_1014,ConditionRich,2021.2.3,59.92541682610541,
7.75,8.0,41,0.0,Stimuli/Blank.png,0,0,0.0,0,8,8,8,,,,,,,,,,,,,7.755667700000231,0.00566770000023098,None,,54.13782009999977,54.13782009999977,54.13782009999977,54.13782009999977,54.13782009999977,54.13782009999977,54.13782009999977,54.13782009999977,54.13782009999977,54.13782009999977,007,P002,2025_Jan_18_1014,ConditionRich,2021.2.3,59.92541682610541,
8.0,8.75,7,0.75,Stimuli/P002/sun_arlesyjqxmqmcccl.jpg,0,0,0.0,0,9,9,9,,,,,,,,,,,,,8.005919000000176,0.005919000000176311,None,,54.38803579999967,54.38803579999967,54.38803579999967,54.38803579999967,54.38803579999967,54.38803579999967,54.38803579999967,54.38803579999967,54.38803579999967,54.38803579999967,007,P002,2025_Jan_18_1014,ConditionRich,2021.2.3,59.92541682610541,
8.75,9.0,41,0.0,Stimuli/Blank.png,0,0,0.0,0,10,10,10,,,,,,,,,,,,,8.756539099999827,0.006539099999827158,None,,55.138710100000026,55.138710100000026,55.138710100000026,55.138710100000026,55.138710100000026,55.138710100000026,55.138710100000026,55.138710100000026,55.138710100000026,55.138710100000026,007,P002,2025_Jan_18_1014,ConditionRich,2021.2.3,59.92541682610541,
9.0,9.75,7,0.75,Stimuli/P002/sun_arlesyjqxmqmcccl.jpg,0,0,0.0,0,11,11,11,,,,,,,,,,,,,9.006884499999614,0.006884499999614491,None,,55.40562119999959,55.40562119999959,55.40562119999959,55.40562119999959,55.40562119999959,55.40562119999959,55.40562119999959,55.40562119999959,55.40562119999959,55.40562119999959,007,P002,2025_Jan_18_1014,ConditionRich,2021.2.3,59.92541682610541,
9.75,10.0,41,0.0,Stimuli/Blank.png,0,0,0.0,0,12,12,12,,,,,,,,,,,,,9.77623070000027,0.02623070000026928,5,0.18392140000014479,56.17294909999964,56.17294909999964,56.17294909999964,56.17294909999964,56.17294909999964,56.17294909999964,56.17294909999964,56.17294909999964,56.17294909999964,56.17294909999964,007,P002,2025_Jan_18_1014,ConditionRich,2021.2.3,59.92541682610541,
10.0,10.75,7,0.75,Stimuli/P002/sun_arlesyjqxmqmcccl.jpg,0,0,0.0,0,13,13,13,,,,,,,,,,,,,10.023577099999784,0.023577099999783968,None,,56.42317379999986,56.42317379999986,56.42317379999986,56.42317379999986,56.42317379999986,56.42317379999986,56.42317379999986,56.42317379999986,56.42317379999986,56.42317379999986,007,P002,2025_Jan_18_1014,ConditionRich,2021.2.3,59.92541682610541,
10.75,11.0,41,0.0,Stimuli/Blank.png,0,0,0.0,0,14,14,14,,,,,,,,,,,,,10.776878499999839,0.026878499999838823,None,,57.17382689999977,57.17382689999977,57.17382689999977,57.17382689999977,57.17382689999977,57.17382689999977,57.17382689999977,57.17382689999977,57.17382689999977,57.17382689999977,007,P002,2025_Jan_18_1014,ConditionRich,2021.2.3,59.92541682610541,
11.0,11.75,7,0.75,Stimuli/P002/sun_arlesyjqxmqmcccl.jpg,0,0,0.0,0,15,15,15,,,,,,,,,,,,,11.025792599999477,0.025792599999476806,None,,57.42404030000034,57.42404030000034,57.42404030000034,57.42404030000034,57.42404030000034,57.42404030000034,57.42404030000034,57.42404030000034,57.42404030000034,57.42404030000034,007,P002,2025_Jan_18_1014,ConditionRich,2021.2.3,59.92541682610541,
11.75,12.0,41,0.0,Stimuli/Blank.png,0,0,0.0,0,16,16,16,,,,,,,,,,,,,11.775774800000363,0.02577480000036303,5,0.1985818000002837,58.15803309999956,58.15803309999956,58.15803309999956,58.15803309999956,58.15803309999956,58.15803309999956,58.15803309999956,58.15803309999956,58.15803309999956,58.15803309999956,007,P002,2025_Jan_18_1014,ConditionRich,2021.2.3,59.92541682610541,
12.0,12.75,37,0.75,Stimuli/P002/things_starfish_01b.jpg,0,0,0.0,0,17,17,17,,,,,,,,,,,,,12.009580099999766,0.00958009999976639,None,,58.39156060000005,58.39156060000005,58.39156060000005,58.39156060000005,58.39156060000005,58.39156060000005,58.39156060000005,58.39156060000005,58.39156060000005,58.39156060000005,007,P002,2025_Jan_18_1014,ConditionRich,2021.2.3,59.92541682610541,
12.75,13.0,41,0.0,Stimuli/Blank.png,0,0,0.0,0,18,18,18,,,,,,,,,,,,,12.760605599999508,0.010605599999507831,None,,59.14223369999945,59.14223369999945,59.14223369999945,59.14223369999945,59.14223369999945,59.14223369999945,59.14223369999945,59.14223369999945,59.14223369999945,59.14223369999945,007,P002,2025_Jan_18_1014,ConditionRich,2021.2.3,59.92541682610541,
13.0,13.75,37,0.75,Stimuli/P002/things_starfish_01b.jpg,0,0,0.0,0,19,19,19,,,,,,,,,,,,,13.010478199999852,0.010478199999852222,None,,59.409125199999835,59.409125199999835,59.409125199999835,59.409125199999835,59.409125199999835,59.409125199999835,59.409125199999835,59.409125199999835,59.409125199999835,59.409125199999835,007,P002,2025_Jan_18_1014,ConditionRich,2021.2.3,59.92541682610541,
13.75,14.0,41,0.0,Stimuli/Blank.png,0,0,0.0,0,20,20,20,,,,,,,,,,,,,13.777775499999734,0.027775499999734166,5,0.196848399999908,60.15976140000021,60.15976140000021,60.15976140000021,60.15976140000021,60.15976140000021,60.15976140000021,60.15976140000021,60.15976140000021,60.15976140000021,60.15976140000021,007,P002,2025_Jan_18_1014,ConditionRich,2021.2.3,59.92541682610541,
14.0,14.75,37,0.75,Stimuli/P002/things_starfish_01b.jpg,0,0,0.0,0,21,21,21,,,,,,,,,,,,,14.010685700000067,0.0106857000000673,None,,60.39332540000032,60.39332540000032,60.39332540000032,60.39332540000032,60.39332540000032,60.39332540000032,60.39332540000032,60.39332540000032,60.39332540000032,60.39332540000032,007,P002,2025_Jan_18_1014,ConditionRich,2021.2.3,59.92541682610541,
14.75,15.0,41,0.0,Stimuli/Blank.png,0,0,0.0,0,22,22,22,,,,,,,,,,,,,14.761593299999731,0.011593299999731244,None,,61.14397809999991,61.14397809999991,61.14397809999991,61.14397809999991,61.14397809999991,61.14397809999991,61.14397809999991,61.14397809999991,61.14397809999991,61.14397809999991,007,P002,2025_Jan_18_1014,ConditionRich,2021.2.3,59.92541682610541,
15.0,15.75,37,0.75,Stimuli/P002/things_starfish_01b.jpg,0,0,0.0,0,23,23,23,,,,,,,,,,,,,15.012049699999807,0.012049699999806762,None,,61.39420119999977,61.39420119999977,61.39420119999977,61.39420119999977,61.39420119999977,61.39420119999977,61.39420119999977,61.39420119999977,61.39420119999977,61.39420119999977,007,P002,2025_Jan_18_1014,ConditionRich,2021.2.3,59.92541682610541,
15.75,16.0,41,0.0,Stimuli/Blank.png,0,0,0.0,0,24,24,24,,,,,,,,,,,,,15.762616899999557,0.012616899999557063,5,0.21188190000066243,62.14487110000027,62.14487110000027,62.14487110000027,62.14487110000027,62.14487110000027,62.14487110000027,62.14487110000027,62.14487110000027,62.14487110000027,62.14487110000027,007,P002,2025_Jan_18_1014,ConditionRich,2021.2.3,59.92541682610541,
16.0,16.75,4,0.75,Stimuli/P002/sun_aonjwqswdblhlpkm.jpg,0,0,0.0,0,25,25,25,,,,,,,,,,,,,16.012939399999595,0.01293939999959548,None,,62.41177280000011,62.41177280000011,62.41177280000011,62.41177280000011,62.41177280000011,62.41177280000011,62.41177280000011,62.41177280000011,62.41177280000011,62.41177280000011,007,P002,2025_Jan_18_1014,ConditionRich,2021.2.3,59.92541682610541,
16.75,17.0,41,0.0,Stimuli/Blank.png,0,0,0.0,0,26,26,26,,,,,,,,,,,,,16.78048949999993,0.030489499999930558,None,,63.162435899999764,63.162435899999764,63.162435899999764,63.162435899999764,63.162435899999764,63.162435899999764,63.162435899999764,63.162435899999764,63.162435899999764,63.162435899999764,007,P002,2025_Jan_18_1014,ConditionRich,2021.2.3,59.92541682610541,
17.0,17.75,4,0.75,Stimuli/P002/sun_aonjwqswdblhlpkm.jpg,0,0,0.0,0,27,27,27,,,,,,,,,,,,,17.015835600000173,0.015835600000173145,None,,63.41265909999947,63.41265909999947,63.41265909999947,63.41265909999947,63.41265909999947,63.41265909999947,63.41265909999947,63.41265909999947,63.41265909999947,63.41265909999947,007,P002,2025_Jan_18_1014,ConditionRich,2021.2.3,59.92541682610541,
17.75,18.0,41,0.0,Stimuli/Blank.png,0,0,0.0,0,28,28,28,,,,,,,,,,,,,17.765810699999747,0.015810699999747158,5,0.1933459000001676,64.16330329999982,64.16330329999982,64.16330329999982,64.16330329999982,64.16330329999982,64.16330329999982,64.16330329999982,64.16330329999982,64.16330329999982,64.16330329999982,007,P002,2025_Jan_18_1014,ConditionRich,2021.2.3,59.92541682610541,
18.0,18.75,4,0.75,Stimuli/P002/sun_aonjwqswdblhlpkm.jpg,0,0,0.0,0,29,29,29,,,,,,,,,,,,,18.01412629999959,0.01412629999958881,None,,64.39684829999987,64.39684829999987,64.39684829999987,64.39684829999987,64.39684829999987,64.39684829999987,64.39684829999987,64.39684829999987,64.39684829999987,64.39684829999987,007,P002,2025_Jan_18_1014,ConditionRich,2021.2.3,59.92541682610541,
18.75,19.0,41,0.0,Stimuli/Blank.png,0,0,0.0,0,30,30,30,,,,,,,,,,,,,18.76574890000029,0.015748900000289723,None,,65.14751689999957,65.14751689999957,65.14751689999957,65.14751689999957,65.14751689999957,65.14751689999957,65.14751689999957,65.14751689999957,65.14751689999957,65.14751689999957,007,P002,2025_Jan_18_1014,ConditionRich,2021.2.3,59.92541682610541,
19.0,19.75,4,0.75,Stimuli/P002/sun_aonjwqswdblhlpkm.jpg,0,0,0.0,0,31,31,31,,,,,,,,,,,,,18.998548800000208,-0.001451199999792152,None,,65.39773400000013,65.39773400000013,65.39773400000013,65.39773400000013,65.39773400000013,65.39773400000013,65.39773400000013,65.39773400000013,65.39773400000013,65.39773400000013,007,P002,2025_Jan_18_1014,ConditionRich,2021.2.3,59.92541682610541,
19.75,20.0,41,0.0,Stimuli/Blank.png,0,0,0.0,0,32,32,32,,,,,,,,,,,,,19.766408700000284,0.016408700000283716,None,,66.14838220000001,66.14838220000001,66.14838220000001,66.14838220000001,66.14838220000001,66.14838220000001,66.14838220000001,66.14838220000001,66.14838220000001,66.14838220000001,007,P002,2025_Jan_18_1014,ConditionRich,2021.2.3,59.92541682610541,
20.0,20.75,12,0.75,Stimuli/P002/sun_bdxvmnlyovhqognn.jpg,0,0,0.0,0,33,33,33,,,,,,,,,,,,,20.001847100000305,0.0018471000003046356,None,,66.39861199999996,66.39861199999996,66.39861199999996,66.39861199999996,66.39861199999996,66.39861199999996,66.39861199999996,66.39861199999996,66.39861199999996,66.39861199999996,007,P002,2025_Jan_18_1014,ConditionRich,2021.2.3,59.92541682610541,
20.75,21.0,41,0.0,Stimuli/Blank.png,0,0,0.0,0,34,34,34,,,,,,,,,,,,,20.766861600000084,0.016861600000083854,None,,67.1492631000001,67.1492631000001,67.1492631000001,67.1492631000001,67.1492631000001,67.1492631000001,67.1492631000001,67.1492631000001,67.1492631000001,67.1492631000001,007,P002,2025_Jan_18_1014,ConditionRich,2021.2.3,59.92541682610541,
21.0,21.75,12,0.75,Stimuli/P002/sun_bdxvmnlyovhqognn.jpg,0,0,0.0,0,35,35,35,,,,,,,,,,,,,21.000681700000314,0.0006817000003138673,None,,67.39950380000028,67.39950380000028,67.39950380000028,67.39950380000028,67.39950380000028,67.39950380000028,67.39950380000028,67.39950380000028,67.39950380000028,67.39950380000028,007,P002,2025_Jan_18_1014,ConditionRich,2021.2.3,59.92541682610541,
21.75,22.0,41,0.0,Stimuli/Blank.png,0,0,0.0,0,36,36,36,,,,,,,,,,,,,21.768171900000198,0.01817190000019764,None,,68.15023219999966,68.15023219999966,68.15023219999966,68.15023219999966,68.15023219999966,68.15023219999966,68.15023219999966,68.15023219999966,68.15023219999966,68.15023219999966,007,P002,2025_Jan_18_1014,ConditionRich,2021.2.3,59.92541682610541,
22.0,22.75,12,0.75,Stimuli/P002/sun_bdxvmnlyovhqognn.jpg,0,0,0.0,0,37,37,37,,,,,,,,,,,,,22.001950099999704,0.001950099999703525,None,,68.40036150000014,68.40036150000014,68.40036150000014,68.40036150000014,68.40036150000014,68.40036150000014,68.40036150000014,68.40036150000014,68.40036150000014,68.40036150000014,007,P002,2025_Jan_18_1014,ConditionRich,2021.2.3,59.92541682610541,
22.75,23.0,41,0.0,Stimuli/Blank.png,0,0,0.0,0,38,38,38,,,,,,,,,,,,,22.768407399999887,0.018407399999887275,None,,69.1511118999997,69.1511118999997,69.1511118999997,69.1511118999997,69.1511118999997,69.1511118999997,69.1511118999997,69.1511118999997,69.1511118999997,69.1511118999997,007,P002,2025_Jan_18_1014,ConditionRich,2021.2.3,59.92541682610541,
23.0,23.75,12,0.75,Stimuli/P002/sun_bdxvmnlyovhqognn.jpg,0,0,0.0,0,39,39,39,,,,,,,,,,,,,23.00187399999959,0.0018739999995887047,None,,69.38456640000004,69.38456640000004,69.38456640000004,69.38456640000004,69.38456640000004,69.38456640000004,69.38456640000004,69.38456640000004,69.38456640000004,69.38456640000004,007,P002,2025_Jan_18_1014,ConditionRich,2021.2.3,59.92541682610541,
23.75,24.0,41,0.0,Stimuli/Blank.png,0,0,0.0,0,40,40,40,,,,,,,,,,,,,23.752864099999897,0.0028640999998970074,None,,70.13522509999984,70.13522509999984,70.13522509999984,70.13522509999984,70.13522509999984,70.13522509999984,70.13522509999984,70.13522509999984,70.13522509999984,70.13522509999984,007,P002,2025_Jan_18_1014,ConditionRich,2021.2.3,59.92541682610541,
24.0,24.75,38,0.75,Stimuli/P002/things_windowsill_01b.jpg,0,0,0.0,0,41,41,41,,,,,,,,,,,,,24.003044899999622,0.00304489999962243,None,,70.38544699999966,70.38544699999966,70.38544699999966,70.38544699999966,70.38544699999966,70.38544699999966,70.38544699999966,70.38544699999966,70.38544699999966,70.38544699999966,007,P002,2025_Jan_18_1014,ConditionRich,2021.2.3,59.92541682610541,
24.75,25.0,41,0.0,Stimuli/Blank.png,0,0,0.0,0,42,42,42,,,,,,,,,,,,,24.754149899999902,0.004149899999902118,None,,71.13610439999957,71.13610439999957,71.13610439999957,71.13610439999957,71.13610439999957,71.13610439999957,71.13610439999957,71.13610439999957,71.13610439999957,71.13610439999957,007,P002,2025_Jan_18_1014,ConditionRich,2021.2.3,59.92541682610541,
25.0,25.75,38,0.75,Stimuli/P002/things_windowsill_01b.jpg,0,0,0.0,0,43,43,43,,,,,,,,,,,,,25.00351479999972,0.003514799999720708,None,,71.38631139999961,71.38631139999961,71.38631139999961,71.38631139999961,71.38631139999961,71.38631139999961,71.38631139999961,71.38631139999961,71.38631139999961,71.38631139999961,007,P002,2025_Jan_18_1014,ConditionRich,2021.2.3,59.92541682610541,
25.75,26.0,41,0.0,Stimuli/Blank.png,0,0,0.0,0,44,44,44,,,,,,,,,,,,,25.754544299999907,0.004544299999906798,None,,72.13699290000022,72.13699290000022,72.13699290000022,72.13699290000022,72.13699290000022,72.13699290000022,72.13699290000022,72.13699290000022,72.13699290000022,72.13699290000022,007,P002,2025_Jan_18_1014,ConditionRich,2021.2.3,59.92541682610541,
26.0,26.75,38,0.75,Stimuli/P002/things_windowsill_01b.jpg,0,0,0.0,0,45,45,45,,,,,,,,,,,,,26.00477729999966,0.00477729999965959,None,,72.38720339999963,72.38720339999963,72.38720339999963,72.38720339999963,72.38720339999963,72.38720339999963,72.38720339999963,72.38720339999963,72.38720339999963,72.38720339999963,007,P002,2025_Jan_18_1014,ConditionRich,2021.2.3,59.92541682610541,
26.75,27.0,41,0.0,Stimuli/Blank.png,0,0,0.0,0,46,46,46,,,,,,,,,,,,,26.756474300000264,0.006474300000263611,None,,73.13787739999952,73.13787739999952,73.13787739999952,73.13787739999952,73.13787739999952,73.13787739999952,73.13787739999952,73.13787739999952,73.13787739999952,73.13787739999952,007,P002,2025_Jan_18_1014,ConditionRich,2021.2.3,59.92541682610541,
27.0,27.75,38,0.75,Stimuli/P002/things_windowsill_01b.jpg,0,0,0.0,0,47,47,47,,,,,,,,,,,,,27.006413600000087,0.006413600000087172,None,,73.40478819999953,73.40478819999953,73.40478819999953,73.40478819999953,73.40478819999953,73.40478819999953,73.40478819999953,73.40478819999953,73.40478819999953,73.40478819999953,007,P002,2025_Jan_18_1014,ConditionRich,2021.2.3,59.92541682610541,
27.75,28.0,41,0.0,Stimuli/Blank.png,0,0,0.0,0,48,48,48,,,,,,,,,,,,,27.772831000000224,0.022831000000223867,5,0.20133549999991374,74.1555158000001,74.1555158000001,74.1555158000001,74.1555158000001,74.1555158000001,74.1555158000001,74.1555158000001,74.1555158000001,74.1555158000001,74.1555158000001,007,P002,2025_Jan_18_1014,ConditionRich,2021.2.3,59.92541682610541,
28.0,28.75,33,0.75,Stimuli/P002/things_pan_01b.jpg,0,0,0.0,0,49,49,49,,,,,,,,,,,,,28.00611300000037,0.006113000000368629,None,,74.38897199999974,74.38897199999974,74.38897199999974,74.38897199999974,74.38897199999974,74.38897199999974,74.38897199999974,74.38897199999974,74.38897199999974,74.38897199999974,007,P002,2025_Jan_18_1014,ConditionRich,2021.2.3,59.92541682610541,
28.75,29.0,41,0.0,Stimuli/Blank.png,0,0,0.0,0,50,50,50,,,,,,,,,,,,,28.757276000000275,0.007276000000274507,None,,75.1396265000003,75.1396265000003,75.1396265000003,75.1396265000003,75.1396265000003,75.1396265000003,75.1396265000003,75.1396265000003,75.1396265000003,75.1396265000003,007,P002,2025_Jan_18_1014,ConditionRich,2021.2.3,59.92541682610541,
29.0,29.75,33,0.75,Stimuli/P002/things_pan_01b.jpg,0,0,0.0,0,51,51,51,,,,,,,,,,,,,29.007451899999978,0.007451899999978195,None,,75.38984890000029,75.38984890000029,75.38984890000029,75.38984890000029,75.38984890000029,75.38984890000029,75.38984890000029,75.38984890000029,75.38984890000029,75.38984890000029,007,P002,2025_Jan_18_1014,ConditionRich,2021.2.3,59.92541682610541,
29.75,30.0,41,0.0,Stimuli/Blank.png,0,0,0.0,0,52,52,52,,,,,,,,,,,,,29.758518800000274,0.008518800000274496,5,0.2161380999996254,76.14050399999996,76.14050399999996,76.14050399999996,76.14050399999996,76.14050399999996,76.14050399999996,76.14050399999996,76.14050399999996,76.14050399999996,76.14050399999996,007,P002,2025_Jan_18_1014,ConditionRich,2021.2.3,59.92541682610541,
30.0,30.75,33,0.75,Stimuli/P002/things_pan_01b.jpg,0,0,0.0,0,53,53,53,,,,,,,,,,,,,30.008786499999587,0.00878649999958725,None,,76.3907349000001,76.3907349000001,76.3907349000001,76.3907349000001,76.3907349000001,76.3907349000001,76.3907349000001,76.3907349000001,76.3907349000001,76.3907349000001,007,P002,2025_Jan_18_1014,ConditionRich,2021.2.3,59.92541682610541,
30.75,31.0,41,0.0,Stimuli/Blank.png,0,0,0.0,0,54,54,54,,,,,,,,,,,,,30.760759699999653,0.010759699999653094,None,,77.15807849999965,77.15807849999965,77.15807849999965,77.15807849999965,77.15807849999965,77.15807849999965,77.15807849999965,77.15807849999965,77.15807849999965,77.15807849999965,007,P002,2025_Jan_18_1014,ConditionRich,2021.2.3,59.92541682610541,
31.0,31.75,33,0.75,Stimuli/P002/things_pan_01b.jpg,0,0,0.0,0,55,55,55,,,,,,,,,,,,,31.026623699999618,0.02662369999961811,None,,77.42499609999959,77.42499609999959,77.42499609999959,77.42499609999959,77.42499609999959,77.42499609999959,77.42499609999959,77.42499609999959,77.42499609999959,77.42499609999959,007,P002,2025_Jan_18_1014,ConditionRich,2021.2.3,59.92541682610541,
31.75,32.0,41,0.0,Stimuli/Blank.png,0,0,0.0,0,56,56,56,,,,,,,,,,,,,31.777614399999948,0.027614399999947636,5,0.18091920000006212,78.17565670000022,78.17565670000022,78.17565670000022,78.17565670000022,78.17565670000022,78.17565670000022,78.17565670000022,78.17565670000022,78.17565670000022,78.17565670000022,007,P002,2025_Jan_18_1014,ConditionRich,2021.2.3,59.92541682610541,
32.0,32.75,31,0.75,Stimuli/P002/things_man_01b.jpg,0,0,0.0,0,57,57,57,,,,,,,,,,,,,32.02646910000021,0.026469100000213075,None,,78.40917220000028,78.40917220000028,78.40917220000028,78.40917220000028,78.40917220000028,78.40917220000028,78.40917220000028,78.40917220000028,78.40917220000028,78.40917220000028,007,P002,2025_Jan_18_1014,ConditionRich,2021.2.3,59.92541682610541,
32.75,33.0,41,0.0,Stimuli/Blank.png,0,0,0.0,0,58,58,58,,,,,,,,,,,,,32.7603651999998,0.01036519999979646,None,,79.14316260000032,79.14316260000032,79.14316260000032,79.14316260000032,79.14316260000032,79.14316260000032,79.14316260000032,79.14316260000032,79.14316260000032,79.14316260000032,007,P002,2025_Jan_18_1014,ConditionRich,2021.2.3,59.92541682610541,
33.0,33.75,31,0.75,Stimuli/P002/things_man_01b.jpg,0,0,0.0,0,59,59,59,,,,,,,,,,,,,33.010510899999645,0.010510899999644607,None,,79.39337389999946,79.39337389999946,79.39337389999946,79.39337389999946,79.39337389999946,79.39337389999946,79.39337389999946,79.39337389999946,79.39337389999946,79.39337389999946,007,P002,2025_Jan_18_1014,ConditionRich,2021.2.3,59.92541682610541,
33.75,34.0,41,0.0,Stimuli/Blank.png,0,0,0.0,0,60,60,60,,,,,,,,,,,,,33.762070499999936,0.012070499999936146,5,0.21265579999999318,80.14403909999965,80.14403909999965,80.14403909999965,80.14403909999965,80.14403909999965,80.14403909999965,80.14403909999965,80.14403909999965,80.14403909999965,80.14403909999965,007,P002,2025_Jan_18_1014,ConditionRich,2021.2.3,59.92541682610541,
34.0,34.75,31,0.75,Stimuli/P002/things_man_01b.jpg,0,0,0.0,0,61,61,61,,,,,,,,,,,,,34.0117965999998,0.011796599999797763,None,,80.39425169999959,80.39425169999959,80.39425169999959,80.39425169999959,80.39425169999959,80.39425169999959,80.39425169999959,80.39425169999959,80.39425169999959,80.39425169999959,007,P002,2025_Jan_18_1014,ConditionRich,2021.2.3,59.92541682610541,
34.75,35.0,41,0.0,Stimuli/Blank.png,0,0,0.0,0,62,62,62,,,,,,,,,,,,,34.762508900000284,0.012508900000284484,None,,81.1449149,81.1449149,81.1449149,81.1449149,81.1449149,81.1449149,81.1449149,81.1449149,81.1449149,81.1449149,007,P002,2025_Jan_18_1014,ConditionRich,2021.2.3,59.92541682610541,
35.0,35.75,31,0.75,Stimuli/P002/things_man_01b.jpg,0,0,0.0,0,63,63,63,,,,,,,,,,,,,35.01297259999956,0.012972599999557133,None,,81.39513369999986,81.39513369999986,81.39513369999986,81.39513369999986,81.39513369999986,81.39513369999986,81.39513369999986,81.39513369999986,81.39513369999986,81.39513369999986,007,P002,2025_Jan_18_1014,ConditionRich,2021.2.3,59.92541682610541,
35.75,36.0,41,0.0,Stimuli/Blank.png,0,0,0.0,0,64,64,64,,,,,,,,,,,,,35.765827700000045,0.015827700000045297,5,0.1941002000003209,82.16248480000013,82.16248480000013,82.16248480000013,82.16248480000013,82.16248480000013,82.16248480000013,82.16248480000013,82.16248480000013,82.16248480000013,82.16248480000013,007,P002,2025_Jan_18_1014,ConditionRich,2021.2.3,59.92541682610541,
36.0,36.75,29,0.75,Stimuli/P002/things_grinder_01b.jpg,0,0,0.0,0,65,65,65,,,,,,,,,,,,,36.01318590000028,0.013185900000280526,None,,82.39601419999963,82.39601419999963,82.39601419999963,82.39601419999963,82.39601419999963,82.39601419999963,82.39601419999963,82.39601419999963,82.39601419999963,82.39601419999963,007,P002,2025_Jan_18_1014,ConditionRich,2021.2.3,59.92541682610541,
36.75,37.0,41,0.0,Stimuli/Blank.png,0,0,0.0,0,66,66,66,,,,,,,,,,,,,36.764366499999596,0.014366499999596272,None,,83.1466703999995,83.1466703999995,83.1466703999995,83.1466703999995,83.1466703999995,83.1466703999995,83.1466703999995,83.1466703999995,83.1466703999995,83.1466703999995,007,P002,2025_Jan_18_1014,ConditionRich,2021.2.3,59.92541682610541,
37.0,37.75,29,0.75,Stimuli/P002/things_grinder_01b.jpg,0,0,0.0,0,67,67,67,,,,,,,,,,,,,37.01627379999991,0.01627379999990808,None,,83.41357569999946,83.41357569999946,83.41357569999946,83.41357569999946,83.41357569999946,83.41357569999946,83.41357569999946,83.41357569999946,83.41357569999946,83.41357569999946,007,P002,2025_Jan_18_1014,ConditionRich,2021.2.3,59.92541682610541,
37.75,38.0,41,0.0,Stimuli/Blank.png,0,0,0.0,0,68,68,68,,,,,,,,,,,,,37.76547029999983,0.015470299999833514,None,,84.1475545000003,84.1475545000003,84.1475545000003,84.1475545000003,84.1475545000003,84.1475545000003,84.1475545000003,84.1475545000003,84.1475545000003,84.1475545000003,007,P002,2025_Jan_18_1014,ConditionRich,2021.2.3,59.92541682610541,
38.0,38.75,29,0.75,Stimuli/P002/things_grinder_01b.jpg,0,0,0.0,0,69,69,69,,,,,,,,,,,,,38.00094209999952,0.0009420999995199963,None,,84.39780989999963,84.39780989999963,84.39780989999963,84.39780989999963,84.39780989999963,84.39780989999963,84.39780989999963,84.39780989999963,84.39780989999963,84.39780989999963,007,P002,2025_Jan_18_1014,ConditionRich,2021.2.3,59.92541682610541,
38.75,39.0,41,0.0,Stimuli/Blank.png,0,0,0.0,0,70,70,70,,,,,,,,,,,,,38.766362899999876,0.01636289999987639,None,,85.16513599999962,85.16513599999962,85.16513599999962,85.16513599999962,85.16513599999962,85.16513599999962,85.16513599999962,85.16513599999962,85.16513599999962,85.16513599999962,007,P002,2025_Jan_18_1014,ConditionRich,2021.2.3,59.92541682610541,
39.0,39.75,29,0.75,Stimuli/P002/things_grinder_01b.jpg,0,0,0.0,0,71,71,71,,,,,,,,,,,,,39.016677999999956,0.016677999999956228,None,,85.41535360000034,85.41535360000034,85.41535360000034,85.41535360000034,85.41535360000034,85.41535360000034,85.41535360000034,85.41535360000034,85.41535360000034,85.41535360000034,007,P002,2025_Jan_18_1014,ConditionRich,2021.2.3,59.92541682610541,
39.75,40.0,41,0.0,Stimuli/Blank.png,0,0,0.0,0,72,72,72,,,,,,,,,,,,,39.766808200000014,0.01680820000001404,None,,86.14932169999975,86.14932169999975,86.14932169999975,86.14932169999975,86.14932169999975,86.14932169999975,86.14932169999975,86.14932169999975,86.14932169999975,86.14932169999975,007,P002,2025_Jan_18_1014,ConditionRich,2021.2.3,59.92541682610541,
40.0,40.75,23,0.75,Stimuli/P002/things_chick_01b.jpg,0,0,0.0,0,73,73,73,,,,,,,,,,,,,39.999974100000145,-2.5899999855028e-05,None,,86.38285439999981,86.38285439999981,86.38285439999981,86.38285439999981,86.38285439999981,86.38285439999981,86.38285439999981,86.38285439999981,86.38285439999981,86.38285439999981,007,P002,2025_Jan_18_1014,ConditionRich,2021.2.3,59.92541682610541,
40.75,41.0,41,0.0,Stimuli/Blank.png,0,0,0.0,0,74,74,74,,,,,,,,,,,,,40.75161349999962,0.0016134999996211263,None,,87.15022059999956,87.15022059999956,87.15022059999956,87.15022059999956,87.15022059999956,87.15022059999956,87.15022059999956,87.15022059999956,87.15022059999956,87.15022059999956,007,P002,2025_Jan_18_1014,ConditionRich,2021.2.3,59.92541682610541,
41.0,41.75,23,0.75,Stimuli/P002/things_chick_01b.jpg,1,0,0.75,0,75,75,75,,,,,,,,,,,,,41.018403600000056,0.01840360000005603,1,0.4745978000000832,87.41710069999954,87.41710069999954,87.41710069999954,87.41710069999954,87.41710069999954,87.41710069999954,87.41710069999954,88.13440449999962,87.41710069999954,87.41710069999954,007,P002,2025_Jan_18_1014,ConditionRich,2021.2.3,59.92541682610541,
41.75,42.0,41,0.0,Stimuli/Blank.png,0,0,0.0,0,76,76,76,,,,,,,,,,,,,41.76838459999999,0.018384599999990314,None,,88.15116599999965,88.15116599999965,88.15116599999965,88.15116599999965,88.15116599999965,88.15116599999965,88.15116599999965,88.15116599999965,88.15116599999965,88.15116599999965,007,P002,2025_Jan_18_1014,ConditionRich,2021.2.3,59.92541682610541,
42.0,42.75,23,0.75,Stimuli/P002/things_chick_01b.jpg,0,0,0.0,0,77,77,77,,,,,,,,,,,,,42.001614300000256,0.0016143000002557528,None,,88.3846152999995,88.3846152999995,88.3846152999995,88.3846152999995,88.3846152999995,88.3846152999995,88.3846152999995,88.3846152999995,88.3846152999995,88.3846152999995,007,P002,2025_Jan_18_1014,ConditionRich,2021.2.3,59.92541682610541,
42.75,43.0,41,0.0,Stimuli/Blank.png,0,0,0.0,0,78,78,78,,,,,,,,,,,,,42.75280120000025,0.0028012000002490822,None,,89.13527969999996,89.13527969999996,89.13527969999996,89.13527969999996,89.13527969999996,89.13527969999996,89.13527969999996,89.13527969999996,89.13527969999996,89.13527969999996,007,P002,2025_Jan_18_1014,ConditionRich,2021.2.3,59.92541682610541,
43.0,43.75,23,0.75,Stimuli/P002/things_chick_01b.jpg,0,0,0.0,0,79,79,79,,,,,,,,,,,,,43.00312339999982,0.0031233999998221407,None,,89.4022175,89.4022175,89.4022175,89.4022175,89.4022175,89.4022175,89.4022175,89.4022175,89.4022175,89.4022175,007,P002,2025_Jan_18_1014,ConditionRich,2021.2.3,59.92541682610541,
43.75,44.0,41,0.0,Stimuli/Blank.png,0,0,0.0,0,80,80,80,,,,,,,,,,,,,43.771512399999665,0.021512399999664922,None,,90.15285140000015,90.15285140000015,90.15285140000015,90.15285140000015,90.15285140000015,90.15285140000015,90.15285140000015,90.15285140000015,90.15285140000015,90.15285140000015,007,P002,2025_Jan_18_1014,ConditionRich,2021.2.3,59.92541682610541,
44.0,44.75,36,0.75,Stimuli/P002/things_stalagmite_01b.jpg,1,0,0.75,0,81,81,81,,,,,,,,,,,,,44.00405429999955,0.004054299999552313,1,0.4165773000004265,90.4030657000003,90.4030657000003,90.4030657000003,90.4030657000003,90.4030657000003,90.4030657000003,90.4030657000003,91.12039550000009,90.4030657000003,90.4030657000003,007,P002,2025_Jan_18_1014,ConditionRich,2021.2.3,59.92541682610541,
44.75,45.0,41,0.0,Stimuli/Blank.png,0,0,0.0,0,82,82,82,,,,,,,,,,,,,44.772490800000014,0.022490800000014133,None,,91.17042020000008,91.17042020000008,91.17042020000008,91.17042020000008,91.17042020000008,91.17042020000008,91.17042020000008,91.17042020000008,91.17042020000008,91.17042020000008,007,P002,2025_Jan_18_1014,ConditionRich,2021.2.3,59.92541682610541,
45.0,45.75,36,0.75,Stimuli/P002/things_stalagmite_01b.jpg,0,0,0.0,0,83,83,83,,,,,,,,,,,,,45.0217389999998,0.02173899999979767,None,,91.42063849999977,91.42063849999977,91.42063849999977,91.42063849999977,91.42063849999977,91.42063849999977,91.42063849999977,91.42063849999977,91.42063849999977,91.42063849999977,007,P002,2025_Jan_18_1014,ConditionRich,2021.2.3,59.92541682610541,
45.75,46.0,41,0.0,Stimuli/Blank.png,0,0,0.0,0,84,84,84,,,,,,,,,,,,,45.77234109999972,0.022341099999721337,None,,92.15460069999972,92.15460069999972,92.15460069999972,92.15460069999972,92.15460069999972,92.15460069999972,92.15460069999972,92.15460069999972,92.15460069999972,92.15460069999972,007,P002,2025_Jan_18_1014,ConditionRich,2021.2.3,59.92541682610541,
46.0,46.75,36,0.75,Stimuli/P002/things_stalagmite_01b.jpg,0,0,0.0,0,85,85,85,,,,,,,,,,,,,46.00562340000033,0.005623400000331458,None,,92.38814730000013,92.38814730000013,92.38814730000013,92.38814730000013,92.38814730000013,92.38814730000013,92.38814730000013,92.38814730000013,92.38814730000013,92.38814730000013,007,P002,2025_Jan_18_1014,ConditionRich,2021.2.3,59.92541682610541,
46.75,47.0,41,0.0,Stimuli/Blank.png,0,0,0.0,0,86,86,86,,,,,,,,,,,,,46.75658370000019,0.006583700000192039,None,,93.1388379,93.1388379,93.1388379,93.1388379,93.1388379,93.1388379,93.1388379,93.1388379,93.1388379,93.1388379,007,P002,2025_Jan_18_1014,ConditionRich,2021.2.3,59.92541682610541,
47.0,47.75,36,0.75,Stimuli/P002/things_stalagmite_01b.jpg,0,0,0.0,0,87,87,87,,,,,,,,,,,,,47.00683939999999,0.006839399999989837,None,,93.38902919999964,93.38902919999964,93.38902919999964,93.38902919999964,93.38902919999964,93.38902919999964,93.38902919999964,93.38902919999964,93.38902919999964,93.38902919999964,007,P002,2025_Jan_18_1014,ConditionRich,2021.2.3,59.92541682610541,
47.75,48.0,41,0.0,Stimuli/Blank.png,0,0,0.0,0,88,88,88,,,,,,,,,,,,,47.757843700000194,0.007843700000194076,5,0.2168824999998833,94.13976230000026,94.13976230000026,94.13976230000026,94.13976230000026,94.13976230000026,94.13976230000026,94.13976230000026,94.13976230000026,94.13976230000026,94.13976230000026,007,P002,2025_Jan_18_1014,ConditionRich,2021.2.3,59.92541682610541,
48.0,48.75,1,0.75,Stimuli/P002/sun_agpgdwkhzgvzdaea.jpg,0,0,0.0,0,89,89,89,,,,,,,,,,,,,48.0070396000001,0.0070396000000982895,None,,94.3899005000003,94.3899005000003,94.3899005000003,94.3899005000003,94.3899005000003,94.3899005000003,94.3899005000003,94.3899005000003,94.3899005000003,94.3899005000003,007,P002,2025_Jan_18_1014,ConditionRich,2021.2.3,59.92541682610541,
48.75,49.0,41,0.0,Stimuli/Blank.png,0,0,0.0,0,90,90,90,,,,,,,,,,,,,48.758179700000255,0.008179700000255252,None,,95.14056249999976,95.14056249999976,95.14056249999976,95.14056249999976,95.14056249999976,95.14056249999976,95.14056249999976,95.14056249999976,95.14056249999976,95.14056249999976,007,P002,2025_Jan_18_1014,ConditionRich,2021.2.3,59.92541682610541,
49.0,49.75,1,0.75,Stimuli/P002/sun_agpgdwkhzgvzdaea.jpg,0,0,0.0,0,91,91,91,,,,,,,,,,,,,49.0083697,0.008369700000002922,None,,95.40746149999995,95.40746149999995,95.40746149999995,95.40746149999995,95.40746149999995,95.40746149999995,95.40746149999995,95.40746149999995,95.40746149999995,95.40746149999995,007,P002,2025_Jan_18_1014,ConditionRich,2021.2.3,59.92541682610541,
49.75,50.0,41,0.0,Stimuli/Blank.png,0,0,0.0,0,92,92,92,,,,,,,,,,,,,49.77657029999955,0.026570299999548297,5,0.1984375000001819,96.1581298000001,96.1581298000001,96.1581298000001,96.1581298000001,96.1581298000001,96.1581298000001,96.1581298000001,96.1581298000001,96.1581298000001,96.1581298000001,007,P002,2025_Jan_18_1014,ConditionRich,2021.2.3,59.92541682610541,
50.0,50.75,1,0.75,Stimuli/P002/sun_agpgdwkhzgvzdaea.jpg,0,0,0.0,0,93,93,93,,,,,,,,,,,,,50.00932170000033,0.009321700000327837,None,,96.39166120000027,96.39166120000027,96.39166120000027,96.39166120000027,96.39166120000027,96.39166120000027,96.39166120000027,96.39166120000027,96.39166120000027,96.39166120000027,007,P002,2025_Jan_18_1014,ConditionRich,2021.2.3,59.92541682610541,
50.75,51.0,41,0.0,Stimuli/Blank.png,0,0,0.0,0,94,94,94,,,,,,,,,,,,,50.760413199999675,0.010413199999675271,None,,97.14232590000029,97.14232590000029,97.14232590000029,97.14232590000029,97.14232590000029,97.14232590000029,97.14232590000029,97.14232590000029,97.14232590000029,97.14232590000029,007,P002,2025_Jan_18_1014,ConditionRich,2021.2.3,59.92541682610541,
51.0,51.75,1,0.75,Stimuli/P002/sun_agpgdwkhzgvzdaea.jpg,0,0,0.0,0,95,95,95,,,,,,,,,,,,,51.01053200000024,0.01053200000023935,None,,97.39254329999949,97.39254329999949,97.39254329999949,97.39254329999949,97.39254329999949,97.39254329999949,97.39254329999949,97.39254329999949,97.39254329999949,97.39254329999949,007,P002,2025_Jan_18_1014,ConditionRich,2021.2.3,59.92541682610541,
51.75,52.0,41,0.0,Stimuli/Blank.png,0,0,0.0,0,96,96,96,,,,,,,,,,,,,51.7605537999998,0.010553799999797775,5,0.21341949999987264,98.1432034999998,98.1432034999998,98.1432034999998,98.1432034999998,98.1432034999998,98.1432034999998,98.1432034999998,98.1432034999998,98.1432034999998,98.1432034999998,007,P002,2025_Jan_18_1014,ConditionRich,2021.2.3,59.92541682610541,
52.0,52.75,20,0.75,Stimuli/P002/sun_dkgctqgpvxbaoyks.jpg,0,0,0.0,0,97,97,97,,,,,,,,,,,,,52.01083430000017,0.010834300000169605,None,,98.39342750000014,98.39342750000014,98.39342750000014,98.39342750000014,98.39342750000014,98.39342750000014,98.39342750000014,98.39342750000014,98.39342750000014,98.39342750000014,007,P002,2025_Jan_18_1014,ConditionRich,2021.2.3,59.92541682610541,
52.75,53.0,41,0.0,Stimuli/Blank.png,0,0,0.0,0,98,98,98,,,,,,,,,,,,,52.761793200000284,0.011793200000283832,None,,99.14408730000014,99.14408730000014,99.14408730000014,99.14408730000014,99.14408730000014,99.14408730000014,99.14408730000014,99.14408730000014,99.14408730000014,99.14408730000014,007,P002,2025_Jan_18_1014,ConditionRich,2021.2.3,59.92541682610541,
53.0,53.75,20,0.75,Stimuli/P002/sun_dkgctqgpvxbaoyks.jpg,0,0,0.0,0,99,99,99,,,,,,,,,,,,,53.01211119999971,0.012111199999708333,None,,99.39431109999987,99.39431109999987,99.39431109999987,99.39431109999987,99.39431109999987,99.39431109999987,99.39431109999987,99.39431109999987,99.39431109999987,99.39431109999987,007,P002,2025_Jan_18_1014,ConditionRich,2021.2.3,59.92541682610541,
53.75,54.0,41,0.0,Stimuli/Blank.png,0,0,0.0,0,100,100,100,,,,,,,,,,,,,53.76310159999957,0.0131015999995725,5,0.2115049000003637,100.14496520000012,100.14496520000012,100.14496520000012,100.14496520000012,100.14496520000012,100.14496520000012,100.14496520000012,100.14496520000012,100.14496520000012,100.14496520000012,007,P002,2025_Jan_18_1014,ConditionRich,2021.2.3,59.92541682610541,
54.0,54.75,20,0.75,Stimuli/P002/sun_dkgctqgpvxbaoyks.jpg,0,0,0.0,0,101,101,101,,,,,,,,,,,,,54.01239309999983,0.012393099999826518,None,,100.39518289999978,100.39518289999978,100.39518289999978,100.39518289999978,100.39518289999978,100.39518289999978,100.39518289999978,100.39518289999978,100.39518289999978,100.39518289999978,007,P002,2025_Jan_18_1014,ConditionRich,2021.2.3,59.92541682610541,
54.75,55.0,41,0.0,Stimuli/Blank.png,0,0,0.0,0,102,102,102,,,,,,,,,,,,,54.76425610000024,0.014256100000238803,None,,101.14585149999948,101.14585149999948,101.14585149999948,101.14585149999948,101.14585149999948,101.14585149999948,101.14585149999948,101.14585149999948,101.14585149999948,101.14585149999948,007,P002,2025_Jan_18_1014,ConditionRich,2021.2.3,59.92541682610541,
55.0,55.75,20,0.75,Stimuli/P002/sun_dkgctqgpvxbaoyks.jpg,0,0,0.0,0,103,103,103,,,,,,,,,,,,,55.01590579999993,0.015905799999927694,None,,101.41275339999993,101.41275339999993,101.41275339999993,101.41275339999993,101.41275339999993,101.41275339999993,101.41275339999993,101.41275339999993,101.41275339999993,101.41275339999993,007,P002,2025_Jan_18_1014,ConditionRich,2021.2.3,59.92541682610541,
55.75,56.0,41,0.0,Stimuli/Blank.png,0,0,0.0,0,104,104,104,,,,,,,,,,,,,55.7658892999998,0.015889299999798823,5,0.19308749999981956,102.16341190000003,102.16341190000003,102.16341190000003,102.16341190000003,102.16341190000003,102.16341190000003,102.16341190000003,102.16341190000003,102.16341190000003,102.16341190000003,007,P002,2025_Jan_18_1014,ConditionRich,2021.2.3,59.92541682610541,
56.0,56.75,13,0.75,Stimuli/P002/sun_bfdmlbkyioxnkodb.jpg,0,0,0.0,0,105,105,105,,,,,,,,,,,,,56.0145993999995,0.014599399999497109,None,,102.39694710000003,102.39694710000003,102.39694710000003,102.39694710000003,102.39694710000003,102.39694710000003,102.39694710000003,102.39694710000003,102.39694710000003,102.39694710000003,007,P002,2025_Jan_18_1014,ConditionRich,2021.2.3,59.92541682610541,
56.75,57.0,41,0.0,Stimuli/Blank.png,0,0,0.0,0,106,106,106,,,,,,,,,,,,,56.76552830000037,0.0155283000003692,None,,103.14760680000018,103.14760680000018,103.14760680000018,103.14760680000018,103.14760680000018,103.14760680000018,103.14760680000018,103.14760680000018,103.14760680000018,103.14760680000018,007,P002,2025_Jan_18_1014,ConditionRich,2021.2.3,59.92541682610541,
57.0,57.75,13,0.75,Stimuli/P002/sun_bfdmlbkyioxnkodb.jpg,0,0,0.0,0,107,107,107,,,,,,,,,,,,,57.000950999999986,0.0009509999999863794,None,,103.39783790000001,103.39783790000001,103.39783790000001,103.39783790000001,103.39783790000001,103.39783790000001,103.39783790000001,103.39783790000001,103.39783790000001,103.39783790000001,007,P002,2025_Jan_18_1014,ConditionRich,2021.2.3,59.92541682610541,
57.75,58.0,41,0.0,Stimuli/Blank.png,0,0,0.0,0,108,108,108,,,,,,,,,,,,,57.76645800000006,0.016458000000056927,None,,104.14849640000011,104.14849640000011,104.14849640000011,104.14849640000011,104.14849640000011,104.14849640000011,104.14849640000011,104.14849640000011,104.14849640000011,104.14849640000011,007,P002,2025_Jan_18_1014,ConditionRich,2021.2.3,59.92541682610541,
58.0,58.75,13,0.75,Stimuli/P002/sun_bfdmlbkyioxnkodb.jpg,0,0,0.0,0,109,109,109,,,,,,,,,,,,,58.001312000000325,0.0013120000003254972,None,,104.39870359999986,104.39870359999986,104.39870359999986,104.39870359999986,104.39870359999986,104.39870359999986,104.39870359999986,104.39870359999986,104.39870359999986,104.39870359999986,007,P002,2025_Jan_18_1014,ConditionRich,2021.2.3,59.92541682610541,
58.75,59.0,41,0.0,Stimuli/Blank.png,0,0,0.0,0,110,110,110,,,,,,,,,,,,,58.767217399999936,0.01721739999993588,None,,105.1493660999995,105.1493660999995,105.1493660999995,105.1493660999995,105.1493660999995,105.1493660999995,105.1493660999995,105.1493660999995,105.1493660999995,105.1493660999995,007,P002,2025_Jan_18_1014,ConditionRich,2021.2.3,59.92541682610541,
59.0,59.75,13,0.75,Stimuli/P002/sun_bfdmlbkyioxnkodb.jpg,0,0,0.0,0,111,111,111,,,,,,,,,,,,,59.00069489999987,0.0006948999998712679,None,,105.3829066999997,105.3829066999997,105.3829066999997,105.3829066999997,105.3829066999997,105.3829066999997,105.3829066999997,105.3829066999997,105.3829066999997,105.3829066999997,007,P002,2025_Jan_18_1014,ConditionRich,2021.2.3,59.92541682610541,
59.75,60.0,41,0.0,Stimuli/Blank.png,0,0,0.0,0,112,112,112,,,,,,,,,,,,,59.75170139999955,0.001701399999546993,None,,106.1335412999997,106.1335412999997,106.1335412999997,106.1335412999997,106.1335412999997,106.1335412999997,106.1335412999997,106.1335412999997,106.1335412999997,106.1335412999997,007,P002,2025_Jan_18_1014,ConditionRich,2021.2.3,59.92541682610541,
60.0,60.75,16,0.75,Stimuli/P002/sun_biqyomkjbujnppuf.jpg,0,0,0.0,0,113,113,113,,,,,,,,,,,,,60.00246319999951,0.0024631999995108345,None,,106.40046809999967,106.40046809999967,106.40046809999967,106.40046809999967,106.40046809999967,106.40046809999967,106.40046809999967,106.40046809999967,106.40046809999967,106.40046809999967,007,P002,2025_Jan_18_1014,ConditionRich,2021.2.3,59.92541682610541,
60.75,61.0,41,0.0,Stimuli/Blank.png,0,0,0.0,0,114,114,114,,,,,,,,,,,,,60.770850199999586,0.02085019999958604,None,,107.1678237999995,107.1678237999995,107.1678237999995,107.1678237999995,107.1678237999995,107.1678237999995,107.1678237999995,107.1678237999995,107.1678237999995,107.1678237999995,007,P002,2025_Jan_18_1014,ConditionRich,2021.2.3,59.92541682610541,
61.0,61.75,16,0.75,Stimuli/P002/sun_biqyomkjbujnppuf.jpg,0,0,0.0,0,115,115,115,,,,,,,,,,,,,61.02125950000027,0.021259500000269327,None,,107.41803230000005,107.41803230000005,107.41803230000005,107.41803230000005,107.41803230000005,107.41803230000005,107.41803230000005,107.41803230000005,107.41803230000005,107.41803230000005,007,P002,2025_Jan_18_1014,ConditionRich,2021.2.3,59.92541682610541,
61.75,62.0,41,0.0,Stimuli/Blank.png,0,0,0.0,0,116,116,116,,,,,,,,,,,,,61.77220649999981,0.022206499999811058,5,0.18804649999947287,108.16869419999966,108.16869419999966,108.16869419999966,108.16869419999966,108.16869419999966,108.16869419999966,108.16869419999966,108.16869419999966,108.16869419999966,108.16869419999966,007,P002,2025_Jan_18_1014,ConditionRich,2021.2.3,59.92541682610541,
62.0,62.75,16,0.75,Stimuli/P002/sun_biqyomkjbujnppuf.jpg,0,0,0.0,0,117,117,117,,,,,,,,,,,,,62.02181969999947,0.021819699999468867,None,,108.41891459999988,108.41891459999988,108.41891459999988,108.41891459999988,108.41891459999988,108.41891459999988,108.41891459999988,108.41891459999988,108.41891459999988,108.41891459999988,007,P002,2025_Jan_18_1014,ConditionRich,2021.2.3,59.92541682610541,
62.75,63.0,41,0.0,Stimuli/Blank.png,0,0,0.0,0,118,118,118,,,,,,,,,,,,,62.77034149999963,0.020341499999631196,None,,109.15288890000011,109.15288890000011,109.15288890000011,109.15288890000011,109.15288890000011,109.15288890000011,109.15288890000011,109.15288890000011,109.15288890000011,109.15288890000011,007,P002,2025_Jan_18_1014,ConditionRich,2021.2.3,59.92541682610541,
63.0,63.75,16,0.75,Stimuli/P002/sun_biqyomkjbujnppuf.jpg,1,0,0.75,0,119,119,119,,,,,,,,,,,,,63.00571140000011,0.005711400000109279,1,0.37753069999962463,109.40311329999986,109.40311329999986,109.40311329999986,109.40311329999986,109.40311329999986,109.40311329999986,109.40311329999986,110.1371151000003,109.40311329999986,109.40311329999986,007,P002,2025_Jan_18_1014,ConditionRich,2021.2.3,59.92541682610541,
63.75,64.0,41,0.0,Stimuli/Blank.png,0,0,0.0,0,120,120,120,,,,,,,,,,,,,63.77230409999993,0.02230409999992844,5,0.18628790000002482,110.17047180000009,110.17047180000009,110.17047180000009,110.17047180000009,110.17047180000009,110.17047180000009,110.17047180000009,110.17047180000009,110.17047180000009,110.17047180000009,007,P002,2025_Jan_18_1014,ConditionRich,2021.2.3,59.92541682610541,
64.0,64.75,19,0.75,Stimuli/P002/sun_bzyyqqczvrnvukdn.jpg,0,0,0.0,0,121,121,121,,,,,,,,,,,,,64.02217699999983,0.022176999999828695,None,,110.42069059999994,110.42069059999994,110.42069059999994,110.42069059999994,110.42069059999994,110.42069059999994,110.42069059999994,110.42069059999994,110.42069059999994,110.42069059999994,007,P002,2025_Jan_18_1014,ConditionRich,2021.2.3,59.92541682610541,
64.75,65.0,41,0.0,Stimuli/Blank.png,0,0,0.0,0,122,122,122,,,,,,,,,,,,,64.77211220000027,0.022112200000265148,None,,111.15465080000013,111.15465080000013,111.15465080000013,111.15465080000013,111.15465080000013,111.15465080000013,111.15465080000013,111.15465080000013,111.15465080000013,111.15465080000013,007,P002,2025_Jan_18_1014,ConditionRich,2021.2.3,59.92541682610541,
65.0,65.75,19,0.75,Stimuli/P002/sun_bzyyqqczvrnvukdn.jpg,0,0,0.0,0,123,123,123,,,,,,,,,,,,,65.0053624000002,0.0053624000001946115,None,,111.38819520000015,111.38819520000015,111.38819520000015,111.38819520000015,111.38819520000015,111.38819520000015,111.38819520000015,111.38819520000015,111.38819520000015,111.38819520000015,007,P002,2025_Jan_18_1014,ConditionRich,2021.2.3,59.92541682610541,
65.75,66.0,41,0.0,Stimuli/Blank.png,0,0,0.0,0,124,124,124,,,,,,,,,,,,,65.75691310000002,0.006913100000019767,5,0.21765159999995376,112.13885740000023,112.13885740000023,112.13885740000023,112.13885740000023,112.13885740000023,112.13885740000023,112.13885740000023,112.13885740000023,112.13885740000023,112.13885740000023,007,P002,2025_Jan_18_1014,ConditionRich,2021.2.3,59.92541682610541,
66.0,66.75,19,0.75,Stimuli/P002/sun_bzyyqqczvrnvukdn.jpg,0,0,0.0,0,125,125,125,,,,,,,,,,,,,66.00678150000022,0.006781500000215601,None,,112.38907329999984,112.38907329999984,112.38907329999984,112.38907329999984,112.38907329999984,112.38907329999984,112.38907329999984,112.38907329999984,112.38907329999984,112.38907329999984,007,P002,2025_Jan_18_1014,ConditionRich,2021.2.3,59.92541682610541,
66.75,67.0,41,0.0,Stimuli/Blank.png,0,0,0.0,0,126,126,126,,,,,,,,,,,,,66.75778919999993,0.007789199999933771,None,,113.13982279999982,113.13982279999982,113.13982279999982,113.13982279999982,113.13982279999982,113.13982279999982,113.13982279999982,113.13982279999982,113.13982279999982,113.13982279999982,007,P002,2025_Jan_18_1014,ConditionRich,2021.2.3,59.92541682610541,
67.0,67.75,19,0.75,Stimuli/P002/sun_bzyyqqczvrnvukdn.jpg,0,0,0.0,0,127,127,127,,,,,,,,,,,,,67.0072780999999,0.007278099999894039,None,,113.40663940000013,113.40663940000013,113.40663940000013,113.40663940000013,113.40663940000013,113.40663940000013,113.40663940000013,113.40663940000013,113.40663940000013,113.40663940000013,007,P002,2025_Jan_18_1014,ConditionRich,2021.2.3,59.92541682610541,
67.75,68.0,41,0.0,Stimuli/Blank.png,0,0,0.0,0,128,128,128,,,,,,,,,,,,,67.77464719999989,0.02464719999989029,5,0.1991649999999936,114.15729439999996,114.15729439999996,114.15729439999996,114.15729439999996,114.15729439999996,114.15729439999996,114.15729439999996,114.15729439999996,114.15729439999996,114.15729439999996,007,P002,2025_Jan_18_1014,ConditionRich,2021.2.3,59.92541682610541,
68.0,68.75,10,0.75,Stimuli/P002/sun_aykefnhciwsffcrj.jpg,0,0,0.0,0,129,129,129,,,,,,,,,,,,,68.00893889999952,0.0089388999995208,None,,114.39083469999969,114.39083469999969,114.39083469999969,114.39083469999969,114.39083469999969,114.39083469999969,114.39083469999969,114.39083469999969,114.39083469999969,114.39083469999969,007,P002,2025_Jan_18_1014,ConditionRich,2021.2.3,59.92541682610541,
68.75,69.0,41,0.0,Stimuli/Blank.png,0,0,0.0,0,130,130,130,,,,,,,,,,,,,68.76175570000032,0.011755700000321667,None,,115.15827290000016,115.15827290000016,115.15827290000016,115.15827290000016,115.15827290000016,115.15827290000016,115.15827290000016,115.15827290000016,115.15827290000016,115.15827290000016,007,P002,2025_Jan_18_1014,ConditionRich,2021.2.3,59.92541682610541,
69.0,69.75,10,0.75,Stimuli/P002/sun_aykefnhciwsffcrj.jpg,0,0,0.0,0,131,131,131,,,,,,,,,,,,,69.02660579999974,0.026605799999742885,None,,115.42509169999994,115.42509169999994,115.42509169999994,115.42509169999994,115.42509169999994,115.42509169999994,115.42509169999994,115.42509169999994,115.42509169999994,115.42509169999994,007,P002,2025_Jan_18_1014,ConditionRich,2021.2.3,59.92541682610541,
69.75,70.0,41,0.0,Stimuli/Blank.png,0,0,0.0,0,132,132,132,,,,,,,,,,,,,69.77702659999977,0.02702659999977186,5,0.19742589999987104,116.15905759999987,116.15905759999987,116.15905759999987,116.15905759999987,116.15905759999987,116.15905759999987,116.15905759999987,116.15905759999987,116.15905759999987,116.15905759999987,007,P002,2025_Jan_18_1014,ConditionRich,2021.2.3,59.92541682610541,
70.0,70.75,10,0.75,Stimuli/P002/sun_aykefnhciwsffcrj.jpg,1,0,0.75,0,133,133,133,,,,,,,,,,,,,70.01048249999985,0.010482499999852735,1,0.4610290000000532,116.39259649999985,116.39259649999985,116.39259649999985,116.39259649999985,116.39259649999985,116.39259649999985,116.39259649999985,117.12656689999949,116.39259649999985,116.39259649999985,007,P002,2025_Jan_18_1014,ConditionRich,2021.2.3,59.92541682610541,
70.75,71.0,41,0.0,Stimuli/Blank.png,0,0,0.0,0,134,134,134,,,,,,,,,,,,,70.76042580000012,0.010425800000120944,None,,117.14325529999951,117.14325529999951,117.14325529999951,117.14325529999951,117.14325529999951,117.14325529999951,117.14325529999951,117.14325529999951,117.14325529999951,117.14325529999951,007,P002,2025_Jan_18_1014,ConditionRich,2021.2.3,59.92541682610541,
71.0,71.75,10,0.75,Stimuli/P002/sun_aykefnhciwsffcrj.jpg,0,0,0.0,0,135,135,135,,,,,,,,,,,,,71.01063419999991,0.010634199999913108,None,,117.39344449999953,117.39344449999953,117.39344449999953,117.39344449999953,117.39344449999953,117.39344449999953,117.39344449999953,117.39344449999953,117.39344449999953,117.39344449999953,007,P002,2025_Jan_18_1014,ConditionRich,2021.2.3,59.92541682610541,
71.75,72.0,41,0.0,Stimuli/Blank.png,0,0,0.0,0,136,136,136,,,,,,,,,,,,,71.76184199999989,0.011841999999887776,5,0.2124111000002813,118.14414080000006,118.14414080000006,118.14414080000006,118.14414080000006,118.14414080000006,118.14414080000006,118.14414080000006,118.14414080000006,118.14414080000006,118.14414080000006,007,P002,2025_Jan_18_1014,ConditionRich,2021.2.3,59.92541682610541,
72.0,72.75,34,0.75,Stimuli/P002/things_parrot_01b.jpg,0,0,0.0,0,137,137,137,,,,,,,,,,,,,72.01198810000005,0.011988100000053237,None,,118.39432839999972,118.39432839999972,118.39432839999972,118.39432839999972,118.39432839999972,118.39432839999972,118.39432839999972,118.39432839999972,118.39432839999972,118.39432839999972,007,P002,2025_Jan_18_1014,ConditionRich,2021.2.3,59.92541682610541,
72.75,73.0,41,0.0,Stimuli/Blank.png,0,0,0.0,0,138,138,138,,,,,,,,,,,,,72.76294249999955,0.012942499999553547,None,,119.14508289999958,119.14508289999958,119.14508289999958,119.14508289999958,119.14508289999958,119.14508289999958,119.14508289999958,119.14508289999958,119.14508289999958,119.14508289999958,007,P002,2025_Jan_18_1014,ConditionRich,2021.2.3,59.92541682610541,
73.0,73.75,34,0.75,Stimuli/P002/things_parrot_01b.jpg,0,0,0.0,0,139,139,139,,,,,,,,,,,,,73.01324039999963,0.013240399999631336,None,,119.41193060000023,119.41193060000023,119.41193060000023,119.41193060000023,119.41193060000023,119.41193060000023,119.41193060000023,119.41193060000023,119.41193060000023,119.41193060000023,007,P002,2025_Jan_18_1014,ConditionRich,2021.2.3,59.92541682610541,
73.75,74.0,41,0.0,Stimuli/Blank.png,0,0,0.0,0,140,140,140,,,,,,,,,,,,,73.78022229999988,0.030222299999877578,5,0.19384770000033313,120.16257609999957,120.16257609999957,120.16257609999957,120.16257609999957,120.16257609999957,120.16257609999957,120.16257609999957,120.16257609999957,120.16257609999957,120.16257609999957,007,P002,2025_Jan_18_1014,ConditionRich,2021.2.3,59.92541682610541,
74.0,74.75,34,0.75,Stimuli/P002/things_parrot_01b.jpg,0,0,0.0,0,141,141,141,,,,,,,,,,,,,74.01361590000033,0.013615900000331749,None,,120.39611950000017,120.39611950000017,120.39611950000017,120.39611950000017,120.39611950000017,120.39611950000017,120.39611950000017,120.39611950000017,120.39611950000017,120.39611950000017,007,P002,2025_Jan_18_1014,ConditionRich,2021.2.3,59.92541682610541,
74.75,75.0,41,0.0,Stimuli/Blank.png,0,0,0.0,0,142,142,142,,,,,,,,,,,,,74.76601649999975,0.016016499999750522,None,,121.16346369999974,121.16346369999974,121.16346369999974,121.16346369999974,121.16346369999974,121.16346369999974,121.16346369999974,121.16346369999974,121.16346369999974,121.16346369999974,007,P002,2025_Jan_18_1014,ConditionRich,2021.2.3,59.92541682610541,
75.0,75.75,34,0.75,Stimuli/P002/things_parrot_01b.jpg,0,0,0.0,0,143,143,143,,,,,,,,,,,,,75.0143562000003,0.014356200000293029,None,,121.39699850000034,121.39699850000034,121.39699850000034,121.39699850000034,121.39699850000034,121.39699850000034,121.39699850000034,121.39699850000034,121.39699850000034,121.39699850000034,007,P002,2025_Jan_18_1014,ConditionRich,2021.2.3,59.92541682610541,
75.75,76.0,41,0.0,Stimuli/Blank.png,0,0,0.0,0,144,144,144,,,,,,,,,,,,,75.76533879999988,0.015338799999881303,5,0.20893470000009984,122.14765989999978,122.14765989999978,122.14765989999978,122.14765989999978,122.14765989999978,122.14765989999978,122.14765989999978,122.14765989999978,122.14765989999978,122.14765989999978,007,P002,2025_Jan_18_1014,ConditionRich,2021.2.3,59.92541682610541,
76.0,76.75,14,0.75,Stimuli/P002/sun_bfgxassmmvhtarcc.jpg,0,0,0.0,0,145,145,145,,,,,,,,,,,,,76.01561169999968,0.01561169999968115,None,,122.39790679999987,122.39790679999987,122.39790679999987,122.39790679999987,122.39790679999987,122.39790679999987,122.39790679999987,122.39790679999987,122.39790679999987,122.39790679999987,007,P002,2025_Jan_18_1014,ConditionRich,2021.2.3,59.92541682610541,
76.75,77.0,41,0.0,Stimuli/Blank.png,0,0,0.0,0,146,146,146,,,,,,,,,,,,,76.75167229999988,0.0016722999998819432,None,,123.14853940000012,123.14853940000012,123.14853940000012,123.14853940000012,123.14853940000012,123.14853940000012,123.14853940000012,123.14853940000012,123.14853940000012,123.14853940000012,007,P002,2025_Jan_18_1014,ConditionRich,2021.2.3,59.92541682610541,
77.0,77.75,14,0.75,Stimuli/P002/sun_bfgxassmmvhtarcc.jpg,0,0,0.0,0,147,147,147,,,,,,,,,,,,,77.01658080000016,0.01658080000015616,None,,123.41545489999953,123.41545489999953,123.41545489999953,123.41545489999953,123.41545489999953,123.41545489999953,123.41545489999953,123.41545489999953,123.41545489999953,123.41545489999953,007,P002,2025_Jan_18_1014,ConditionRich,2021.2.3,59.92541682610541,
77.75,78.0,41,0.0,Stimuli/Blank.png,0,0,0.0,0,148,148,148,,,,,,,,,,,,,77.76720300000034,0.017203000000336033,None,,124.14941660000022,124.14941660000022,124.14941660000022,124.14941660000022,124.14941660000022,124.14941660000022,124.14941660000022,124.14941660000022,124.14941660000022,124.14941660000022,007,P002,2025_Jan_18_1014,ConditionRich,2021.2.3,59.92541682610541,
78.0,78.75,14,0.75,Stimuli/P002/sun_bfgxassmmvhtarcc.jpg,0,0,0.0,0,149,149,149,,,,,,,,,,,,,78.00038820000009,0.0003882000000885455,None,,124.38295719999951,124.38295719999951,124.38295719999951,124.38295719999951,124.38295719999951,124.38295719999951,124.38295719999951,124.38295719999951,124.38295719999951,124.38295719999951,007,P002,2025_Jan_18_1014,ConditionRich,2021.2.3,59.92541682610541,
78.75,79.0,41,0.0,Stimuli/Blank.png,0,0,0.0,0,150,150,150,,,,,,,,,,,,,78.75135020000016,0.0013502000001608394,None,,125.13361540000005,125.13361540000005,125.13361540000005,125.13361540000005,125.13361540000005,125.13361540000005,125.13361540000005,125.13361540000005,125.13361540000005,125.13361540000005,007,P002,2025_Jan_18_1014,ConditionRich,2021.2.3,59.92541682610541,
79.0,79.75,14,0.75,Stimuli/P002/sun_bfgxassmmvhtarcc.jpg,0,0,0.0,0,151,151,151,,,,,,,,,,,,,79.00201600000037,0.0020160000003670575,None,,125.4005344999996,125.4005344999996,125.4005344999996,125.4005344999996,125.4005344999996,125.4005344999996,125.4005344999996,125.4005344999996,125.4005344999996,125.4005344999996,007,P002,2025_Jan_18_1014,ConditionRich,2021.2.3,59.92541682610541,
79.75,80.0,41,0.0,Stimuli/Blank.png,0,0,0.0,0,152,152,152,,,,,,,,,,,,,79.7706535999996,0.02065359999960492,5,0.18859669999983453,126.16786479999973,126.16786479999973,126.16786479999973,126.16786479999973,126.16786479999973,126.16786479999973,126.16786479999973,126.16786479999973,126.16786479999973,126.16786479999973,007,P002,2025_Jan_18_1014,ConditionRich,2021.2.3,59.92541682610541,
80.0,80.75,11,0.75,Stimuli/P002/sun_bbfdgdyeqdnadvvi.jpg,1,0,0.75,0,153,153,153,,,,,,,,,,,,,80.02105819999997,0.021058199999970384,1,0.4714168000000427,126.41808469999978,126.41808469999978,126.41808469999978,126.41808469999978,126.41808469999978,126.41808469999978,126.41808469999978,None,126.41808469999978,126.41808469999978,007,P002,2025_Jan_18_1014,ConditionRich,2021.2.3,59.92541682610541,
80.75,81.0,41,0.0,Stimuli/Blank.png,0,0,0.0,0,154,154,154,,,,,,,,,,,,,80.77292159999979,0.022921599999790487,None,,127.16875119999986,127.16875119999986,127.16875119999986,127.16875119999986,127.16875119999986,127.16875119999986,127.16875119999986,127.16875119999986,127.16875119999986,127.16875119999986,007,P002,2025_Jan_18_1014,ConditionRich,2021.2.3,59.92541682610541,
81.0,81.75,11,0.75,Stimuli/P002/sun_bbfdgdyeqdnadvvi.jpg,0,0,0.0,0,155,155,155,,,,,,,,,,,,,81.02019649999966,0.020196499999656226,None,,127.4022844000001,127.4022844000001,127.4022844000001,127.4022844000001,127.4022844000001,127.4022844000001,127.4022844000001,127.4022844000001,127.4022844000001,127.4022844000001,007,P002,2025_Jan_18_1014,ConditionRich,2021.2.3,59.92541682610541,
81.75,82.0,41,0.0,Stimuli/Blank.png,0,0,0.0,0,156,156,156,,,,,,,,,,,,,81.75619999999981,0.006199999999807915,5,0.20372750000024098,128.1529475999996,128.1529475999996,128.1529475999996,128.1529475999996,128.1529475999996,128.1529475999996,128.1529475999996,128.1529475999996,128.1529475999996,128.1529475999996,007,P002,2025_Jan_18_1014,ConditionRich,2021.2.3,59.92541682610541,
82.0,82.75,11,0.75,Stimuli/P002/sun_bbfdgdyeqdnadvvi.jpg,0,0,0.0,0,157,157,157,,,,,,,,,,,,,82.02060689999962,0.02060689999962051,None,,128.40316679999978,128.40316679999978,128.40316679999978,128.40316679999978,128.40316679999978,128.40316679999978,128.40316679999978,128.40316679999978,128.40316679999978,128.40316679999978,007,P002,2025_Jan_18_1014,ConditionRich,2021.2.3,59.92541682610541,
82.75,83.0,41,0.0,Stimuli/Blank.png,0,0,0.0,0,158,158,158,,,,,,,,,,,,,82.75626589999956,0.006265899999561952,None,,129.15383920000022,129.15383920000022,129.15383920000022,129.15383920000022,129.15383920000022,129.15383920000022,129.15383920000022,129.15383920000022,129.15383920000022,129.15383920000022,007,P002,2025_Jan_18_1014,ConditionRich,2021.2.3,59.92541682610541,
83.0,83.75,11,0.75,Stimuli/P002/sun_bbfdgdyeqdnadvvi.jpg,0,0,0.0,0,159,159,159,,,,,,,,,,,,,83.0218517000003,0.02185170000029757,None,,129.4040460999995,129.4040460999995,129.4040460999995,129.4040460999995,129.4040460999995,129.4040460999995,129.4040460999995,129.4040460999995,129.4040460999995,129.4040460999995,007,P002,2025_Jan_18_1014,ConditionRich,2021.2.3,59.92541682610541,
83.75,84.0,41,0.0,Stimuli/Blank.png,0,0,0.0,0,160,160,160,,,,,,,,,,,,,83.7563253999997,0.0063253999996959465,None,,130.13803290000033,130.13803290000033,130.13803290000033,130.13803290000033,130.13803290000033,130.13803290000033,130.13803290000033,130.13803290000033,130.13803290000033,130.13803290000033,007,P002,2025_Jan_18_1014,ConditionRich,2021.2.3,59.92541682610541,
84.0,100.0,0,0.0,Stimuli/Blank.png,1,1,1.75,0,161,161,161,,,,,,,,,,,,,84.00600469999972,0.006004699999721197,5,13.968289199999163,130.38824550000027,130.38824550000027,130.38824550000027,130.38824550000027,130.38824550000027,130.38824550000027,131.37244490000012,132.12310090000028,130.38824550000027,130.38824550000027,007,P002,2025_Jan_18_1014,ConditionRich,2021.2.3,59.92541682610541,
100.0,100.75,39,0.75,Stimuli/P002/things_woman_01b.jpg,0,0,0.0,0,162,162,162,,,,,,,,,,,,,100.00321619999977,0.003216199999769742,None,,146.40234189999956,146.40234189999956,146.40234189999956,146.40234189999956,146.40234189999956,146.40234189999956,146.40234189999956,146.40234189999956,146.40234189999956,146.40234189999956,007,P002,2025_Jan_18_1014,ConditionRich,2021.2.3,59.92541682610541,
100.75,101.0,41,0.0,Stimuli/Blank.png,0,0,0.0,0,163,163,163,,,,,,,,,,,,,100.77078879999954,0.020788799999536423,None,,147.15299869999944,147.15299869999944,147.15299869999944,147.15299869999944,147.15299869999944,147.15299869999944,147.15299869999944,147.15299869999944,147.15299869999944,147.15299869999944,007,P002,2025_Jan_18_1014,ConditionRich,2021.2.3,59.92541682610541,
101.0,101.75,39,0.75,Stimuli/P002/things_woman_01b.jpg,0,0,0.0,0,164,164,164,,,,,,,,,,,,,101.00687389999985,0.006873899999845889,None,,147.40321109999968,147.40321109999968,147.40321109999968,147.40321109999968,147.40321109999968,147.40321109999968,147.40321109999968,147.40321109999968,147.40321109999968,147.40321109999968,007,P002,2025_Jan_18_1014,ConditionRich,2021.2.3,59.92541682610541,
101.75,102.0,41,0.0,Stimuli/Blank.png,0,0,0.0,0,165,165,165,,,,,,,,,,,,,101.77123269999993,0.021232699999927718,None,,148.15388110000004,148.15388110000004,148.15388110000004,148.15388110000004,148.15388110000004,148.15388110000004,148.15388110000004,148.15388110000004,148.15388110000004,148.15388110000004,007,P002,2025_Jan_18_1014,ConditionRich,2021.2.3,59.92541682610541,
102.0,102.75,39,0.75,Stimuli/P002/things_woman_01b.jpg,0,0,0.0,0,166,166,166,,,,,,,,,,,,,102.00541619999967,0.005416199999672244,None,,148.38741159999972,148.38741159999972,148.38741159999972,148.38741159999972,148.38741159999972,148.38741159999972,148.38741159999972,148.38741159999972,148.38741159999972,148.38741159999972,007,P002,2025_Jan_18_1014,ConditionRich,2021.2.3,59.92541682610541,
102.75,103.0,41,0.0,Stimuli/Blank.png,0,0,0.0,0,167,167,167,,,,,,,,,,,,,102.7554983,0.00549829999999929,None,,149.13807579999957,149.13807579999957,149.13807579999957,149.13807579999957,149.13807579999957,149.13807579999957,149.13807579999957,149.13807579999957,149.13807579999957,149.13807579999957,007,P002,2025_Jan_18_1014,ConditionRich,2021.2.3,59.92541682610541,
103.0,103.75,39,0.75,Stimuli/P002/things_woman_01b.jpg,0,0,0.0,0,168,168,168,,,,,,,,,,,,,103.00625330000003,0.006253300000025774,None,,149.4049912999999,149.4049912999999,149.4049912999999,149.4049912999999,149.4049912999999,149.4049912999999,149.4049912999999,149.4049912999999,149.4049912999999,149.4049912999999,007,P002,2025_Jan_18_1014,ConditionRich,2021.2.3,59.92541682610541,
103.75,104.0,41,0.0,Stimuli/Blank.png,0,0,0.0,0,169,169,169,,,,,,,,,,,,,103.77563639999971,0.025636399999712012,5,0.18393019999984972,150.17233269999997,150.17233269999997,150.17233269999997,150.17233269999997,150.17233269999997,150.17233269999997,150.17233269999997,150.17233269999997,150.17233269999997,150.17233269999997,007,P002,2025_Jan_18_1014,ConditionRich,2021.2.3,59.92541682610541,
104.0,104.75,18,0.75,Stimuli/P002/sun_bzjegfvyrvqtunza.jpg,0,0,0.0,0,170,170,170,,,,,,,,,,,,,104.0233017999999,0.02330179999989923,None,,150.40585639999972,150.40585639999972,150.40585639999972,150.40585639999972,150.40585639999972,150.40585639999972,150.40585639999972,150.40585639999972,150.40585639999972,150.40585639999972,007,P002,2025_Jan_18_1014,ConditionRich,2021.2.3,59.92541682610541,
104.75,105.0,41,0.0,Stimuli/Blank.png,0,0,0.0,0,171,171,171,,,,,,,,,,,,,104.75725989999955,0.007259899999553454,None,,151.13983149999967,151.13983149999967,151.13983149999967,151.13983149999967,151.13983149999967,151.13983149999967,151.13983149999967,151.13983149999967,151.13983149999967,151.13983149999967,007,P002,2025_Jan_18_1014,ConditionRich,2021.2.3,59.92541682610541,
105.0,105.75,18,0.75,Stimuli/P002/sun_bzjegfvyrvqtunza.jpg,0,0,0.0,0,172,172,172,,,,,,,,,,,,,105.0076038999996,0.007603899999594432,None,,151.4068484999998,151.4068484999998,151.4068484999998,151.4068484999998,151.4068484999998,151.4068484999998,151.4068484999998,151.4068484999998,151.4068484999998,151.4068484999998,007,P002,2025_Jan_18_1014,ConditionRich,2021.2.3,59.92541682610541,
105.75,106.0,41,0.0,Stimuli/Blank.png,0,0,0.0,0,173,173,173,,,,,,,,,,,,,105.77613910000036,0.026139100000364124,5,0.1821923000006791,152.17409469999984,152.17409469999984,152.17409469999984,152.17409469999984,152.17409469999984,152.17409469999984,152.17409469999984,152.17409469999984,152.17409469999984,152.17409469999984,007,P002,2025_Jan_18_1014,ConditionRich,2021.2.3,59.92541682610541,
106.0,106.75,18,0.75,Stimuli/P002/sun_bzjegfvyrvqtunza.jpg,1,0,0.75,0,174,174,174,,,,,,,,,,,,,106.02495999999974,0.024959999999737192,1,0.41897659999995085,152.40761419999944,152.40761419999944,152.40761419999944,152.40761419999944,152.40761419999944,152.40761419999944,152.40761419999944,None,152.40761419999944,152.40761419999944,007,P002,2025_Jan_18_1014,ConditionRich,2021.2.3,59.92541682610541,
106.75,107.0,41,0.0,Stimuli/Blank.png,0,0,0.0,0,175,175,175,,,,,,,,,,,,,106.75890559999971,0.008905599999707192,None,,153.1416105999997,153.1416105999997,153.1416105999997,153.1416105999997,153.1416105999997,153.1416105999997,153.1416105999997,153.1416105999997,153.1416105999997,153.1416105999997,007,P002,2025_Jan_18_1014,ConditionRich,2021.2.3,59.92541682610541,
107.0,107.75,18,0.75,Stimuli/P002/sun_bzjegfvyrvqtunza.jpg,0,0,0.0,0,176,176,176,,,,,,,,,,,,,107.0092926999996,0.009292699999605247,None,,153.39181480000025,153.39181480000025,153.39181480000025,153.39181480000025,153.39181480000025,153.39181480000025,153.39181480000025,153.39181480000025,153.39181480000025,153.39181480000025,007,P002,2025_Jan_18_1014,ConditionRich,2021.2.3,59.92541682610541,
107.75,108.0,41,0.0,Stimuli/Blank.png,0,0,0.0,0,177,177,177,,,,,,,,,,,,,107.76064190000034,0.010641900000337046,5,0.21393559999978606,154.1424906000002,154.1424906000002,154.1424906000002,154.1424906000002,154.1424906000002,154.1424906000002,154.1424906000002,154.1424906000002,154.1424906000002,154.1424906000002,007,P002,2025_Jan_18_1014,ConditionRich,2021.2.3,59.92541682610541,
108.0,108.75,21,0.75,Stimuli/P002/things_baby_01b.jpg,0,0,0.0,0,178,178,178,,,,,,,,,,,,,108.01044499999989,0.01044499999989057,None,,154.39269559999957,154.39269559999957,154.39269559999957,154.39269559999957,154.39269559999957,154.39269559999957,154.39269559999957,154.39269559999957,154.39269559999957,154.39269559999957,007,P002,2025_Jan_18_1014,ConditionRich,2021.2.3,59.92541682610541,
108.75,109.0,41,0.0,Stimuli/Blank.png,0,0,0.0,0,179,179,179,,,,,,,,,,,,,108.7615022,0.011502199999995355,None,,155.14335289999963,155.14335289999963,155.14335289999963,155.14335289999963,155.14335289999963,155.14335289999963,155.14335289999963,155.14335289999963,155.14335289999963,155.14335289999963,007,P002,2025_Jan_18_1014,ConditionRich,2021.2.3,59.92541682610541,
109.0,109.75,21,0.75,Stimuli/P002/things_baby_01b.jpg,0,0,0.0,0,180,180,180,,,,,,,,,,,,,109.01127329999963,0.011273299999629671,None,,155.41027080000003,155.41027080000003,155.41027080000003,155.41027080000003,155.41027080000003,155.41027080000003,155.41027080000003,155.41027080000003,155.41027080000003,155.41027080000003,007,P002,2025_Jan_18_1014,ConditionRich,2021.2.3,59.92541682610541,
109.75,110.0,41,0.0,Stimuli/Blank.png,0,0,0.0,0,181,181,181,,,,,,,,,,,,,109.78064170000016,0.0306417000001602,5,0.1786997999997766,156.17762380000022,156.17762380000022,156.17762380000022,156.17762380000022,156.17762380000022,156.17762380000022,156.17762380000022,156.17762380000022,156.17762380000022,156.17762380000022,007,P002,2025_Jan_18_1014,ConditionRich,2021.2.3,59.92541682610541,
110.0,110.75,21,0.75,Stimuli/P002/things_baby_01b.jpg,0,0,0.0,0,182,182,182,,,,,,,,,,,,,110.03111799999988,0.03111799999987852,None,,156.42782759999955,156.42782759999955,156.42782759999955,156.42782759999955,156.42782759999955,156.42782759999955,156.42782759999955,156.42782759999955,156.42782759999955,156.42782759999955,007,P002,2025_Jan_18_1014,ConditionRich,2021.2.3,59.92541682610541,
110.75,111.0,41,0.0,Stimuli/Blank.png,0,0,0.0,0,183,183,183,,,,,,,,,,,,,110.78170820000014,0.031708200000139186,None,,157.1784921999997,157.1784921999997,157.1784921999997,157.1784921999997,157.1784921999997,157.1784921999997,157.1784921999997,157.1784921999997,157.1784921999997,157.1784921999997,007,P002,2025_Jan_18_1014,ConditionRich,2021.2.3,59.92541682610541,
111.0,111.75,21,0.75,Stimuli/P002/things_baby_01b.jpg,0,0,0.0,0,184,184,184,,,,,,,,,,,,,111.02924830000029,0.029248300000290328,None,,157.41201679999995,157.41201679999995,157.41201679999995,157.41201679999995,157.41201679999995,157.41201679999995,157.41201679999995,157.41201679999995,157.41201679999995,157.41201679999995,007,P002,2025_Jan_18_1014,ConditionRich,2021.2.3,59.92541682610541,
111.75,112.0,41,0.0,Stimuli/Blank.png,0,0,0.0,0,185,185,185,,,,,,,,,,,,,111.76327409999976,0.013274099999762257,5,0.21037249999972119,158.1460004999999,158.1460004999999,158.1460004999999,158.1460004999999,158.1460004999999,158.1460004999999,158.1460004999999,158.1460004999999,158.1460004999999,158.1460004999999,007,P002,2025_Jan_18_1014,ConditionRich,2021.2.3,59.92541682610541,
112.0,112.75,15,0.75,Stimuli/P002/sun_bfzoxbkvsfqxsyle.jpg,0,0,0.0,0,186,186,186,,,,,,,,,,,,,112.01422060000004,0.014220600000044215,None,,158.41289929999948,158.41289929999948,158.41289929999948,158.41289929999948,158.41289929999948,158.41289929999948,158.41289929999948,158.41289929999948,158.41289929999948,158.41289929999948,007,P002,2025_Jan_18_1014,ConditionRich,2021.2.3,59.92541682610541,
112.75,113.0,41,0.0,Stimuli/Blank.png,0,0,0.0,0,187,187,187,,,,,,,,,,,,,112.78175839999949,0.031758399999489484,None,,159.16356579999956,159.16356579999956,159.16356579999956,159.16356579999956,159.16356579999956,159.16356579999956,159.16356579999956,159.16356579999956,159.16356579999956,159.16356579999956,007,P002,2025_Jan_18_1014,ConditionRich,2021.2.3,59.92541682610541,
113.0,113.75,15,0.75,Stimuli/P002/sun_bfzoxbkvsfqxsyle.jpg,0,0,0.0,0,188,188,188,,,,,,,,,,,,,113.01512230000026,0.015122300000257383,None,,159.39710699999978,159.39710699999978,159.39710699999978,159.39710699999978,159.39710699999978,159.39710699999978,159.39710699999978,159.39710699999978,159.39710699999978,159.39710699999978,007,P002,2025_Jan_18_1014,ConditionRich,2021.2.3,59.92541682610541,
113.75,114.0,41,0.0,Stimuli/Blank.png,0,0,0.0,0,189,189,189,,,,,,,,,,,,,113.75055820000034,0.0005582000003414578,5,0.20883880000019417,160.1477662999996,160.1477662999996,160.1477662999996,160.1477662999996,160.1477662999996,160.1477662999996,160.1477662999996,160.1477662999996,160.1477662999996,160.1477662999996,007,P002,2025_Jan_18_1014,ConditionRich,2021.2.3,59.92541682610541,
114.0,114.75,15,0.75,Stimuli/P002/sun_bfzoxbkvsfqxsyle.jpg,1,0,0.75,0,190,190,190,,,,,,,,,,,,,114.01584319999984,0.015843199999835633,1,0.5373472999999649,160.39798280000014,160.39798280000014,160.39798280000014,160.39798280000014,160.39798280000014,160.39798280000014,160.39798280000014,None,160.39798280000014,160.39798280000014,007,P002,2025_Jan_18_1014,ConditionRich,2021.2.3,59.92541682610541,
114.75,115.0,41,0.0,Stimuli/Blank.png,0,0,0.0,0,191,191,191,,,,,,,,,,,,,114.75050920000012,0.0005092000001241104,None,,161.13198069999999,161.13198069999999,161.13198069999999,161.13198069999999,161.13198069999999,161.13198069999999,161.13198069999999,161.13198069999999,161.13198069999999,161.13198069999999,007,P002,2025_Jan_18_1014,ConditionRich,2021.2.3,59.92541682610541,
115.0,115.75,15,0.75,Stimuli/P002/sun_bfzoxbkvsfqxsyle.jpg,0,0,0.0,0,192,192,192,,,,,,,,,,,,,115.00025310000001,0.0002531000000089989,None,,161.38217759999952,161.38217759999952,161.38217759999952,161.38217759999952,161.38217759999952,161.38217759999952,161.38217759999952,161.38217759999952,161.38217759999952,161.38217759999952,007,P002,2025_Jan_18_1014,ConditionRich,2021.2.3,59.92541682610541,
115.75,116.0,41,0.0,Stimuli/Blank.png,0,0,0.0,0,193,193,193,,,,,,,,,,,,,115.75026830000024,0.000268300000243471,None,,162.13284269999986,162.13284269999986,162.13284269999986,162.13284269999986,162.13284269999986,162.13284269999986,162.13284269999986,162.13284269999986,162.13284269999986,162.13284269999986,007,P002,2025_Jan_18_1014,ConditionRich,2021.2.3,59.92541682610541,
116.0,116.75,6,0.75,Stimuli/P002/sun_aqbaaqeojrexbmcr.jpg,0,0,0.0,0,194,194,194,,,,,,,,,,,,,116.00073350000002,0.0007335000000239233,None,,162.38305839999975,162.38305839999975,162.38305839999975,162.38305839999975,162.38305839999975,162.38305839999975,162.38305839999975,162.38305839999975,162.38305839999975,162.38305839999975,007,P002,2025_Jan_18_1014,ConditionRich,2021.2.3,59.92541682610541,
116.75,117.0,41,0.0,Stimuli/Blank.png,0,0,0.0,0,195,195,195,,,,,,,,,,,,,116.75092930000028,0.000929300000279909,None,,163.13372189999973,163.13372189999973,163.13372189999973,163.13372189999973,163.13372189999973,163.13372189999973,163.13372189999973,163.13372189999973,163.13372189999973,163.13372189999973,007,P002,2025_Jan_18_1014,ConditionRich,2021.2.3,59.92541682610541,
117.0,117.75,6,0.75,Stimuli/P002/sun_aqbaaqeojrexbmcr.jpg,0,0,0.0,0,196,196,196,,,,,,,,,,,,,117.00112949999948,0.0011294999994788668,None,,163.38393720000022,163.38393720000022,163.38393720000022,163.38393720000022,163.38393720000022,163.38393720000022,163.38393720000022,163.38393720000022,163.38393720000022,163.38393720000022,007,P002,2025_Jan_18_1014,ConditionRich,2021.2.3,59.92541682610541,
117.75,118.0,41,0.0,Stimuli/Blank.png,0,0,0.0,0,197,197,197,,,,,,,,,,,,,117.75183399999969,0.001833999999689695,None,,164.13460440000017,164.13460440000017,164.13460440000017,164.13460440000017,164.13460440000017,164.13460440000017,164.13460440000017,164.13460440000017,164.13460440000017,164.13460440000017,007,P002,2025_Jan_18_1014,ConditionRich,2021.2.3,59.92541682610541,
118.0,118.75,6,0.75,Stimuli/P002/sun_aqbaaqeojrexbmcr.jpg,0,0,0.0,0,198,198,198,,,,,,,,,,,,,118.0020684000001,0.002068400000098336,None,,164.3848213000001,164.3848213000001,164.3848213000001,164.3848213000001,164.3848213000001,164.3848213000001,164.3848213000001,164.3848213000001,164.3848213000001,164.3848213000001,007,P002,2025_Jan_18_1014,ConditionRich,2021.2.3,59.92541682610541,
118.75,119.0,41,0.0,Stimuli/Blank.png,0,0,0.0,0,199,199,199,,,,,,,,,,,,,118.75302449999981,0.0030244999998103594,None,,165.13547579999977,165.13547579999977,165.13547579999977,165.13547579999977,165.13547579999977,165.13547579999977,165.13547579999977,165.13547579999977,165.13547579999977,165.13547579999977,007,P002,2025_Jan_18_1014,ConditionRich,2021.2.3,59.92541682610541,
119.0,119.75,6,0.75,Stimuli/P002/sun_aqbaaqeojrexbmcr.jpg,0,0,0.0,0,200,200,200,,,,,,,,,,,,,119.00330239999948,0.003302399999483896,None,,165.3856980999999,165.3856980999999,165.3856980999999,165.3856980999999,165.3856980999999,165.3856980999999,165.3856980999999,165.3856980999999,165.3856980999999,165.3856980999999,007,P002,2025_Jan_18_1014,ConditionRich,2021.2.3,59.92541682610541,
119.75,120.0,41,0.0,Stimuli/Blank.png,0,0,0.0,0,201,201,201,,,,,,,,,,,,,119.75428319999992,0.004283199999917997,None,,166.13637219999964,166.13637219999964,166.13637219999964,166.13637219999964,166.13637219999964,166.13637219999964,166.13637219999964,166.13637219999964,166.13637219999964,166.13637219999964,007,P002,2025_Jan_18_1014,ConditionRich,2021.2.3,59.92541682610541,
120.0,120.75,28,0.75,Stimuli/P002/things_girl_01b.jpg,0,0,0.0,0,202,202,202,,,,,,,,,,,,,120.00453360000029,0.004533600000286242,None,,166.38658920000034,166.38658920000034,166.38658920000034,166.38658920000034,166.38658920000034,166.38658920000034,166.38658920000034,166.38658920000034,166.38658920000034,166.38658920000034,007,P002,2025_Jan_18_1014,ConditionRich,2021.2.3,59.92541682610541,
120.75,121.0,41,0.0,Stimuli/Blank.png,0,0,0.0,0,203,203,203,,,,,,,,,,,,,120.75448570000026,0.004485700000259385,None,,167.13724809999985,167.13724809999985,167.13724809999985,167.13724809999985,167.13724809999985,167.13724809999985,167.13724809999985,167.13724809999985,167.13724809999985,167.13724809999985,007,P002,2025_Jan_18_1014,ConditionRich,2021.2.3,59.92541682610541,
121.0,121.75,28,0.75,Stimuli/P002/things_girl_01b.jpg,1,0,0.75,0,204,204,204,,,,,,,,,,,,,121.00525999999991,0.00525999999990745,1,0.46618299999954615,167.40411959999983,167.40411959999983,167.40411959999983,167.40411959999983,167.40411959999983,167.40411959999983,167.40411959999983,168.1214670999998,167.40411959999983,167.40411959999983,007,P002,2025_Jan_18_1014,ConditionRich,2021.2.3,59.92541682610541,
121.75,122.0,41,0.0,Stimuli/Blank.png,0,0,0.0,0,205,205,205,,,,,,,,,,,,,121.7727976999995,0.022797699999500765,5,0.20158460000038758,168.15480260000004,168.15480260000004,168.15480260000004,168.15480260000004,168.15480260000004,168.15480260000004,168.15480260000004,168.15480260000004,168.15480260000004,168.15480260000004,007,P002,2025_Jan_18_1014,ConditionRich,2021.2.3,59.92541682610541,
122.0,122.75,28,0.75,Stimuli/P002/things_girl_01b.jpg,0,0,0.0,0,206,206,206,,,,,,,,,,,,,122.00618860000031,0.006188600000314182,None,,168.3883450000003,168.3883450000003,168.3883450000003,168.3883450000003,168.3883450000003,168.3883450000003,168.3883450000003,168.3883450000003,168.3883450000003,168.3883450000003,007,P002,2025_Jan_18_1014,ConditionRich,2021.2.3,59.92541682610541,
122.75,123.0,41,0.0,Stimuli/Blank.png,0,0,0.0,0,207,207,207,,,,,,,,,,,,,122.75621489999958,0.006214899999577028,None,,169.13899179999953,169.13899179999953,169.13899179999953,169.13899179999953,169.13899179999953,169.13899179999953,169.13899179999953,169.13899179999953,169.13899179999953,169.13899179999953,007,P002,2025_Jan_18_1014,ConditionRich,2021.2.3,59.92541682610541,
123.0,123.75,28,0.75,Stimuli/P002/things_girl_01b.jpg,0,0,0.0,0,208,208,208,,,,,,,,,,,,,123.0065982999995,0.006598299999495794,None,,169.38965929999995,169.38965929999995,169.38965929999995,169.38965929999995,169.38965929999995,169.38965929999995,169.38965929999995,169.38965929999995,169.38965929999995,169.38965929999995,007,P002,2025_Jan_18_1014,ConditionRich,2021.2.3,59.92541682610541,
123.75,124.0,41,0.0,Stimuli/Blank.png,0,0,0.0,0,209,209,209,,,,,,,,,,,,,123.7575882000001,0.007588200000100187,5,0.21641949999957433,170.13995179999984,170.13995179999984,170.13995179999984,170.13995179999984,170.13995179999984,170.13995179999984,170.13995179999984,170.13995179999984,170.13995179999984,170.13995179999984,007,P002,2025_Jan_18_1014,ConditionRich,2021.2.3,59.92541682610541,
124.0,124.75,27,0.75,Stimuli/P002/things_dynamite_01b.jpg,0,0,0.0,0,210,210,210,,,,,,,,,,,,,124.00774209999963,0.007742099999632046,None,,170.40679589999945,170.40679589999945,170.40679589999945,170.40679589999945,170.40679589999945,170.40679589999945,170.40679589999945,170.40679589999945,170.40679589999945,170.40679589999945,007,P002,2025_Jan_18_1014,ConditionRich,2021.2.3,59.92541682610541,
124.75,125.0,41,0.0,Stimuli/Blank.png,0,0,0.0,0,211,211,211,,,,,,,,,,,,,124.77505490000021,0.02505490000021382,None,,171.15745739999966,171.15745739999966,171.15745739999966,171.15745739999966,171.15745739999966,171.15745739999966,171.15745739999966,171.15745739999966,171.15745739999966,171.15745739999966,007,P002,2025_Jan_18_1014,ConditionRich,2021.2.3,59.92541682610541,
125.0,125.75,27,0.75,Stimuli/P002/things_dynamite_01b.jpg,0,0,0.0,0,212,212,212,,,,,,,,,,,,,125.0108693000002,0.010869300000194926,None,,171.4076702000002,171.4076702000002,171.4076702000002,171.4076702000002,171.4076702000002,171.4076702000002,171.4076702000002,171.4076702000002,171.4076702000002,171.4076702000002,007,P002,2025_Jan_18_1014,ConditionRich,2021.2.3,59.92541682610541,
125.75,126.0,41,0.0,Stimuli/Blank.png,0,0,0.0,0,213,213,213,,,,,,,,,,,,,125.77700269999968,0.02700269999968441,5,0.18115260000013222,172.17502969999987,172.17502969999987,172.17502969999987,172.17502969999987,172.17502969999987,172.17502969999987,172.17502969999987,172.17502969999987,172.17502969999987,172.17502969999987,007,P002,2025_Jan_18_1014,ConditionRich,2021.2.3,59.92541682610541,
126.0,126.75,27,0.75,Stimuli/P002/things_dynamite_01b.jpg,0,0,0.0,0,214,214,214,,,,,,,,,,,,,126.0259444000003,0.02594440000029863,None,,172.40855029999966,172.40855029999966,172.40855029999966,172.40855029999966,172.40855029999966,172.40855029999966,172.40855029999966,172.40855029999966,172.40855029999966,172.40855029999966,007,P002,2025_Jan_18_1014,ConditionRich,2021.2.3,59.92541682610541,
126.75,127.0,41,0.0,Stimuli/Blank.png,0,0,0.0,0,215,215,215,,,,,,,,,,,,,126.76006400000006,0.010064000000056694,None,,173.1425231000003,173.1425231000003,173.1425231000003,173.1425231000003,173.1425231000003,173.1425231000003,173.1425231000003,173.1425231000003,173.1425231000003,173.1425231000003,007,P002,2025_Jan_18_1014,ConditionRich,2021.2.3,59.92541682610541,
127.0,127.75,27,0.75,Stimuli/P002/things_dynamite_01b.jpg,0,0,0.0,0,216,216,216,,,,,,,,,,,,,127.01094809999995,0.0109480999999505,None,,173.39276009999958,173.39276009999958,173.39276009999958,173.39276009999958,173.39276009999958,173.39276009999958,173.39276009999958,173.39276009999958,173.39276009999958,173.39276009999958,007,P002,2025_Jan_18_1014,ConditionRich,2021.2.3,59.92541682610541,
127.75,128.0,41,0.0,Stimuli/Blank.png,0,0,0.0,0,217,217,217,,,,,,,,,,,,,127.7614993999996,0.011499399999593152,5,0.21295239999926707,174.14340579999953,174.14340579999953,174.14340579999953,174.14340579999953,174.14340579999953,174.14340579999953,174.14340579999953,174.14340579999953,174.14340579999953,174.14340579999953,007,P002,2025_Jan_18_1014,ConditionRich,2021.2.3,59.92541682610541,
128.0,128.75,8,0.75,Stimuli/P002/sun_asqboyqakusycvwd.jpg,0,0,0.0,0,218,218,218,,,,,,,,,,,,,128.01165049999963,0.011650499999632302,None,,174.39362979999987,174.39362979999987,174.39362979999987,174.39362979999987,174.39362979999987,174.39362979999987,174.39362979999987,174.39362979999987,174.39362979999987,174.39362979999987,007,P002,2025_Jan_18_1014,ConditionRich,2021.2.3,59.92541682610541,
128.75,129.0,41,0.0,Stimuli/Blank.png,0,0,0.0,0,219,219,219,,,,,,,,,,,,,128.76182979999976,0.011829799999759416,None,,175.14428659999976,175.14428659999976,175.14428659999976,175.14428659999976,175.14428659999976,175.14428659999976,175.14428659999976,175.14428659999976,175.14428659999976,175.14428659999976,007,P002,2025_Jan_18_1014,ConditionRich,2021.2.3,59.92541682610541,
129.0,129.75,8,0.75,Stimuli/P002/sun_asqboyqakusycvwd.jpg,0,0,0.0,0,220,220,220,,,,,,,,,,,,,129.01212570000007,0.012125700000069628,None,,175.3945033,175.3945033,175.3945033,175.3945033,175.3945033,175.3945033,175.3945033,175.3945033,175.3945033,175.3945033,007,P002,2025_Jan_18_1014,ConditionRich,2021.2.3,59.92541682610541,
129.75,130.0,41,0.0,Stimuli/Blank.png,0,0,0.0,0,221,221,221,,,,,,,,,,,,,129.76302529999975,0.01302529999975377,5,0.21110159999989264,176.14517239999986,176.14517239999986,176.14517239999986,176.14517239999986,176.14517239999986,176.14517239999986,176.14517239999986,176.14517239999986,176.14517239999986,176.14517239999986,007,P002,2025_Jan_18_1014,ConditionRich,2021.2.3,59.92541682610541,
130.0,130.75,8,0.75,Stimuli/P002/sun_asqboyqakusycvwd.jpg,0,0,0.0,0,222,222,222,,,,,,,,,,,,,130.01337450000028,0.013374500000281841,None,,176.41206220000004,176.41206220000004,176.41206220000004,176.41206220000004,176.41206220000004,176.41206220000004,176.41206220000004,176.41206220000004,176.41206220000004,176.41206220000004,007,P002,2025_Jan_18_1014,ConditionRich,2021.2.3,59.92541682610541,
130.75,131.0,41,0.0,Stimuli/Blank.png,0,0,0.0,0,223,223,223,,,,,,,,,,,,,130.78027399999974,0.03027399999973568,None,,177.16272800000024,177.16272800000024,177.16272800000024,177.16272800000024,177.16272800000024,177.16272800000024,177.16272800000024,177.16272800000024,177.16272800000024,177.16272800000024,007,P002,2025_Jan_18_1014,ConditionRich,2021.2.3,59.92541682610541,
131.0,131.75,8,0.75,Stimuli/P002/sun_asqboyqakusycvwd.jpg,0,0,0.0,0,224,224,224,,,,,,,,,,,,,131.01390459999948,0.013904599999477796,None,,177.39626570000019,177.39626570000019,177.39626570000019,177.39626570000019,177.39626570000019,177.39626570000019,177.39626570000019,177.39626570000019,177.39626570000019,177.39626570000019,007,P002,2025_Jan_18_1014,ConditionRich,2021.2.3,59.92541682610541,
131.75,132.0,41,0.0,Stimuli/Blank.png,0,0,0.0,0,225,225,225,,,,,,,,,,,,,131.76540560000012,0.015405600000121922,5,0.20930690000022878,178.1469417999997,178.1469417999997,178.1469417999997,178.1469417999997,178.1469417999997,178.1469417999997,178.1469417999997,178.1469417999997,178.1469417999997,178.1469417999997,007,P002,2025_Jan_18_1014,ConditionRich,2021.2.3,59.92541682610541,
132.0,132.75,22,0.75,Stimuli/P002/things_boy_01b.jpg,0,0,0.0,0,226,226,226,,,,,,,,,,,,,132.01505670000006,0.015056700000059209,None,,178.39715259999957,178.39715259999957,178.39715259999957,178.39715259999957,178.39715259999957,178.39715259999957,178.39715259999957,178.39715259999957,178.39715259999957,178.39715259999957,007,P002,2025_Jan_18_1014,ConditionRich,2021.2.3,59.92541682610541,
132.75,133.0,41,0.0,Stimuli/Blank.png,0,0,0.0,0,227,227,227,,,,,,,,,,,,,132.75108910000017,0.0010891000001720386,None,,179.1478176999999,179.1478176999999,179.1478176999999,179.1478176999999,179.1478176999999,179.1478176999999,179.1478176999999,179.1478176999999,179.1478176999999,179.1478176999999,007,P002,2025_Jan_18_1014,ConditionRich,2021.2.3,59.92541682610541,
133.0,133.75,22,0.75,Stimuli/P002/things_boy_01b.jpg,0,0,0.0,0,228,228,228,,,,,,,,,,,,,133.01547240000036,0.01547240000036254,None,,179.39802669999972,179.39802669999972,179.39802669999972,179.39802669999972,179.39802669999972,179.39802669999972,179.39802669999972,179.39802669999972,179.39802669999972,179.39802669999972,007,P002,2025_Jan_18_1014,ConditionRich,2021.2.3,59.92541682610541,
133.75,134.0,41,0.0,Stimuli/Blank.png,0,0,0.0,0,229,229,229,,,,,,,,,,,,,133.7499302999995,-6.970000049477676e-05,None,,180.13200909999978,180.13200909999978,180.13200909999978,180.13200909999978,180.13200909999978,180.13200909999978,180.13200909999978,180.13200909999978,180.13200909999978,180.13200909999978,007,P002,2025_Jan_18_1014,ConditionRich,2021.2.3,59.92541682610541,
134.0,134.75,22,0.75,Stimuli/P002/things_boy_01b.jpg,0,0,0.0,0,230,230,230,,,,,,,,,,,,,133.9993698999997,-0.0006301000003077206,None,,180.38222769999993,180.38222769999993,180.38222769999993,180.38222769999993,180.38222769999993,180.38222769999993,180.38222769999993,180.38222769999993,180.38222769999993,180.38222769999993,007,P002,2025_Jan_18_1014,ConditionRich,2021.2.3,59.92541682610541,
134.75,135.0,41,0.0,Stimuli/Blank.png,0,0,0.0,0,231,231,231,,,,,,,,,,,,,134.75109749999956,0.001097499999559659,None,,181.1329052000001,181.1329052000001,181.1329052000001,181.1329052000001,181.1329052000001,181.1329052000001,181.1329052000001,181.1329052000001,181.1329052000001,181.1329052000001,007,P002,2025_Jan_18_1014,ConditionRich,2021.2.3,59.92541682610541,
135.0,135.75,22,0.75,Stimuli/P002/things_boy_01b.jpg,0,0,0.0,0,232,232,232,,,,,,,,,,,,,135.0014645000001,0.001464500000111002,None,,181.3998087,181.3998087,181.3998087,181.3998087,181.3998087,181.3998087,181.3998087,181.3998087,181.3998087,181.3998087,007,P002,2025_Jan_18_1014,ConditionRich,2021.2.3,59.92541682610541,
135.75,136.0,41,0.0,Stimuli/Blank.png,0,0,0.0,0,233,233,233,,,,,,,,,,,,,135.76776569999947,0.017765699999472417,None,,182.15045050000026,182.15045050000026,182.15045050000026,182.15045050000026,182.15045050000026,182.15045050000026,182.15045050000026,182.15045050000026,182.15045050000026,182.15045050000026,007,P002,2025_Jan_18_1014,ConditionRich,2021.2.3,59.92541682610541,
136.0,136.75,25,0.75,Stimuli/P002/things_curry_01b.jpg,0,0,0.0,0,234,234,234,,,,,,,,,,,,,136.00157659999968,0.0015765999996801838,None,,182.38399029999982,182.38399029999982,182.38399029999982,182.38399029999982,182.38399029999982,182.38399029999982,182.38399029999982,182.38399029999982,182.38399029999982,182.38399029999982,007,P002,2025_Jan_18_1014,ConditionRich,2021.2.3,59.92541682610541,
136.75,137.0,41,0.0,Stimuli/Blank.png,0,0,0.0,0,235,235,235,,,,,,,,,,,,,136.75266720000036,0.002667200000360026,None,,183.13465300000007,183.13465300000007,183.13465300000007,183.13465300000007,183.13465300000007,183.13465300000007,183.13465300000007,183.13465300000007,183.13465300000007,183.13465300000007,007,P002,2025_Jan_18_1014,ConditionRich,2021.2.3,59.92541682610541,
137.0,137.75,25,0.75,Stimuli/P002/things_curry_01b.jpg,0,0,0.0,0,236,236,236,,,,,,,,,,,,,137.00286750000032,0.002867500000320433,None,,183.4015319,183.4015319,183.4015319,183.4015319,183.4015319,183.4015319,183.4015319,183.4015319,183.4015319,183.4015319,007,P002,2025_Jan_18_1014,ConditionRich,2021.2.3,59.92541682610541,
137.75,138.0,41,0.0,Stimuli/Blank.png,0,0,0.0,0,237,237,237,,,,,,,,,,,,,137.7703875999996,0.020387599999594386,None,,184.15221949999977,184.15221949999977,184.15221949999977,184.15221949999977,184.15221949999977,184.15221949999977,184.15221949999977,184.15221949999977,184.15221949999977,184.15221949999977,007,P002,2025_Jan_18_1014,ConditionRich,2021.2.3,59.92541682610541,
138.0,138.75,25,0.75,Stimuli/P002/things_curry_01b.jpg,0,0,0.0,0,238,238,238,,,,,,,,,,,,,138.0032455999999,0.0032455999999001506,None,,184.38574580000022,184.38574580000022,184.38574580000022,184.38574580000022,184.38574580000022,184.38574580000022,184.38574580000022,184.38574580000022,184.38574580000022,184.38574580000022,007,P002,2025_Jan_18_1014,ConditionRich,2021.2.3,59.92541682610541,
138.75,139.0,41,0.0,Stimuli/Blank.png,0,0,0.0,0,239,239,239,,,,,,,,,,,,,138.7541801999996,0.004180199999609613,None,,185.1364083999997,185.1364083999997,185.1364083999997,185.1364083999997,185.1364083999997,185.1364083999997,185.1364083999997,185.1364083999997,185.1364083999997,185.1364083999997,007,P002,2025_Jan_18_1014,ConditionRich,2021.2.3,59.92541682610541,
139.0,139.75,25,0.75,Stimuli/P002/things_curry_01b.jpg,0,0,0.0,0,240,240,240,,,,,,,,,,,,,139.0064666999997,0.0064666999996916275,None,,185.40331460000016,185.40331460000016,185.40331460000016,185.40331460000016,185.40331460000016,185.40331460000016,185.40331460000016,185.40331460000016,185.40331460000016,185.40331460000016,007,P002,2025_Jan_18_1014,ConditionRich,2021.2.3,59.92541682610541,
139.75,140.0,41,0.0,Stimuli/Blank.png,0,0,0.0,0,241,241,241,,,,,,,,,,,,,139.77157499999976,0.021574999999756983,None,,186.1539733999998,186.1539733999998,186.1539733999998,186.1539733999998,186.1539733999998,186.1539733999998,186.1539733999998,186.1539733999998,186.1539733999998,186.1539733999998,007,P002,2025_Jan_18_1014,ConditionRich,2021.2.3,59.92541682610541,
140.0,140.75,5,0.75,Stimuli/P002/sun_apwzcrxhvvnrexjh.jpg,0,0,0.0,0,242,242,242,,,,,,,,,,,,,140.0048256,0.00482560000000376,None,,186.38751279999997,186.38751279999997,186.38751279999997,186.38751279999997,186.38751279999997,186.38751279999997,186.38751279999997,186.38751279999997,186.38751279999997,186.38751279999997,007,P002,2025_Jan_18_1014,ConditionRich,2021.2.3,59.92541682610541,
140.75,141.0,41,0.0,Stimuli/Blank.png,0,0,0.0,0,243,243,243,,,,,,,,,,,,,140.75634830000035,0.006348300000354357,None,,187.13818439999977,187.13818439999977,187.13818439999977,187.13818439999977,187.13818439999977,187.13818439999977,187.13818439999977,187.13818439999977,187.13818439999977,187.13818439999977,007,P002,2025_Jan_18_1014,ConditionRich,2021.2.3,59.92541682610541,
141.0,141.75,5,0.75,Stimuli/P002/sun_apwzcrxhvvnrexjh.jpg,0,0,0.0,0,244,244,244,,,,,,,,,,,,,141.00624319999952,0.006243199999516946,None,,187.40509779999957,187.40509779999957,187.40509779999957,187.40509779999957,187.40509779999957,187.40509779999957,187.40509779999957,187.40509779999957,187.40509779999957,187.40509779999957,007,P002,2025_Jan_18_1014,ConditionRich,2021.2.3,59.92541682610541,
141.75,142.0,41,0.0,Stimuli/Blank.png,0,0,0.0,0,245,245,245,,,,,,,,,,,,,141.77559740000015,0.025597400000151538,5,0.18380859999979293,188.17242389999956,188.17242389999956,188.17242389999956,188.17242389999956,188.17242389999956,188.17242389999956,188.17242389999956,188.17242389999956,188.17242389999956,188.17242389999956,007,P002,2025_Jan_18_1014,ConditionRich,2021.2.3,59.92541682610541,
142.0,142.75,5,0.75,Stimuli/P002/sun_apwzcrxhvvnrexjh.jpg,0,0,0.0,0,246,246,246,,,,,,,,,,,,,142.02610959999947,0.026109599999472266,None,,188.42264119999982,188.42264119999982,188.42264119999982,188.42264119999982,188.42264119999982,188.42264119999982,188.42264119999982,188.42264119999982,188.42264119999982,188.42264119999982,007,P002,2025_Jan_18_1014,ConditionRich,2021.2.3,59.92541682610541,
142.75,143.0,41,0.0,Stimuli/Blank.png,0,0,0.0,0,247,247,247,,,,,,,,,,,,,142.77592399999958,0.025923999999577063,None,,189.17332089999945,189.17332089999945,189.17332089999945,189.17332089999945,189.17332089999945,189.17332089999945,189.17332089999945,189.17332089999945,189.17332089999945,189.17332089999945,007,P002,2025_Jan_18_1014,ConditionRich,2021.2.3,59.92541682610541,
143.0,143.75,5,0.75,Stimuli/P002/sun_apwzcrxhvvnrexjh.jpg,1,0,0.75,0,248,248,248,,,,,,,,,,,,,143.0264228999995,0.026422899999488436,1,0.4226378000003024,189.42352109999956,189.42352109999956,189.42352109999956,189.42352109999956,189.42352109999956,189.42352109999956,189.42352109999956,None,189.42352109999956,189.42352109999956,007,P002,2025_Jan_18_1014,ConditionRich,2021.2.3,59.92541682610541,
143.75,144.0,41,0.0,Stimuli/Blank.png,0,0,0.0,0,249,249,249,,,,,,,,,,,,,143.7761485000001,0.02614850000009028,5,0.19865109999955166,190.1575074000002,190.1575074000002,190.1575074000002,190.1575074000002,190.1575074000002,190.1575074000002,190.1575074000002,190.1575074000002,190.1575074000002,190.1575074000002,007,P002,2025_Jan_18_1014,ConditionRich,2021.2.3,59.92541682610541,
144.0,144.75,3,0.75,Stimuli/P002/sun_amarqtinchblqmah.jpg,0,0,0.0,0,250,250,250,,,,,,,,,,,,,144.00885779999953,0.00885779999953229,None,,190.3910337999996,190.3910337999996,190.3910337999996,190.3910337999996,190.3910337999996,190.3910337999996,190.3910337999996,190.3910337999996,190.3910337999996,190.3910337999996,007,P002,2025_Jan_18_1014,ConditionRich,2021.2.3,59.92541682610541,
144.75,145.0,41,0.0,Stimuli/Blank.png,0,0,0.0,0,251,251,251,,,,,,,,,,,,,144.7588264999995,0.00882649999948626,None,,191.14174249999996,191.14174249999996,191.14174249999996,191.14174249999996,191.14174249999996,191.14174249999996,191.14174249999996,191.14174249999996,191.14174249999996,191.14174249999996,007,P002,2025_Jan_18_1014,ConditionRich,2021.2.3,59.92541682610541,
145.0,145.75,3,0.75,Stimuli/P002/sun_amarqtinchblqmah.jpg,0,0,0.0,0,252,252,252,,,,,,,,,,,,,145.00921370000015,0.009213700000145764,None,,191.39192259999982,191.39192259999982,191.39192259999982,191.39192259999982,191.39192259999982,191.39192259999982,191.39192259999982,191.39192259999982,191.39192259999982,191.39192259999982,007,P002,2025_Jan_18_1014,ConditionRich,2021.2.3,59.92541682610541,
145.75,146.0,41,0.0,Stimuli/Blank.png,0,0,0.0,0,253,253,253,,,,,,,,,,,,,145.76045499999964,0.010454999999637948,5,0.21355279999988852,192.14258710000013,192.14258710000013,192.14258710000013,192.14258710000013,192.14258710000013,192.14258710000013,192.14258710000013,192.14258710000013,192.14258710000013,192.14258710000013,007,P002,2025_Jan_18_1014,ConditionRich,2021.2.3,59.92541682610541,
146.0,146.75,3,0.75,Stimuli/P002/sun_amarqtinchblqmah.jpg,0,0,0.0,0,254,254,254,,,,,,,,,,,,,146.01029319999998,0.010293199999978242,None,,192.39279280000028,192.39279280000028,192.39279280000028,192.39279280000028,192.39279280000028,192.39279280000028,192.39279280000028,192.39279280000028,192.39279280000028,192.39279280000028,007,P002,2025_Jan_18_1014,ConditionRich,2021.2.3,59.92541682610541,
146.75,147.0,41,0.0,Stimuli/Blank.png,0,0,0.0,0,255,255,255,,,,,,,,,,,,,146.76121239999975,0.011212399999749323,None,,193.14345440000034,193.14345440000034,193.14345440000034,193.14345440000034,193.14345440000034,193.14345440000034,193.14345440000034,193.14345440000034,193.14345440000034,193.14345440000034,007,P002,2025_Jan_18_1014,ConditionRich,2021.2.3,59.92541682610541,
147.0,147.75,3,0.75,Stimuli/P002/sun_amarqtinchblqmah.jpg,0,0,0.0,0,256,256,256,,,,,,,,,,,,,147.0116654000003,0.01166540000031091,None,,193.39367519999996,193.39367519999996,193.39367519999996,193.39367519999996,193.39367519999996,193.39367519999996,193.39367519999996,193.39367519999996,193.39367519999996,193.39367519999996,007,P002,2025_Jan_18_1014,ConditionRich,2021.2.3,59.92541682610541,
147.75,148.0,41,0.0,Stimuli/Blank.png,0,0,0.0,0,257,257,257,,,,,,,,,,,,,147.76165179999953,0.011651799999526702,5,0.21195410000018455,194.14433860000008,194.14433860000008,194.14433860000008,194.14433860000008,194.14433860000008,194.14433860000008,194.14433860000008,194.14433860000008,194.14433860000008,194.14433860000008,007,P002,2025_Jan_18_1014,ConditionRich,2021.2.3,59.92541682610541,
148.0,148.75,40,0.75,Stimuli/P002/things_worm_01b.jpg,0,0,0.0,0,258,258,258,,,,,,,,,,,,,148.01183500000025,0.01183500000024651,None,,194.39456359999986,194.39456359999986,194.39456359999986,194.39456359999986,194.39456359999986,194.39456359999986,194.39456359999986,194.39456359999986,194.39456359999986,194.39456359999986,007,P002,2025_Jan_18_1014,ConditionRich,2021.2.3,59.92541682610541,
148.75,149.0,41,0.0,Stimuli/Blank.png,0,0,0.0,0,259,259,259,,,,,,,,,,,,,148.76295370000025,0.012953700000252866,None,,195.14521409999998,195.14521409999998,195.14521409999998,195.14521409999998,195.14521409999998,195.14521409999998,195.14521409999998,195.14521409999998,195.14521409999998,195.14521409999998,007,P002,2025_Jan_18_1014,ConditionRich,2021.2.3,59.92541682610541,
149.0,149.75,40,0.75,Stimuli/P002/things_worm_01b.jpg,0,0,0.0,0,260,260,260,,,,,,,,,,,,,149.0131424000001,0.013142400000106136,None,,195.41213210000024,195.41213210000024,195.41213210000024,195.41213210000024,195.41213210000024,195.41213210000024,195.41213210000024,195.41213210000024,195.41213210000024,195.41213210000024,007,P002,2025_Jan_18_1014,ConditionRich,2021.2.3,59.92541682610541,
