eventStartTime,eventEndTime,eventCond,imSize,imFile,responseEvent,fixRespStart,fixRespEnd,Events.thisRepN,Events.thisTrialN,Events.thisN,Events.thisIndex,Instructions.started,Instructions.stopped,participantReadyResponse.keys,participantReadyResponse.rt,participantReadyResponse.started,participantReadyResponse.stopped,startWaitforTrigger,triggerResponse.keys,triggerResponse.rt,triggerResponse.started,triggerResponse.stopped,globalTimer,actualStartTime,startTimingDiff,participantResponse.keys,participantResponse.rt,participantResponse.started,participantResponse.stopped,image.started,image.stopped,fixationOutside.started,fixationOutside.stopped,fixationResponse.started,fixationResponse.stopped,fixationInside.started,fixationInside.stopped,session,participant,date,expName,psychopyVersion,frameRate,
,,,,,,,,,,,,16.765224100001433,None,1,15.443982199998572,16.765224100001433,None,,,,,,,,,,,,,,,,,,,,,001,P003,2025_Jan_18_1108,ConditionRich,2021.2.3,59.86779992423208,
,,,,,,,,,,,,,,,,,,32.21174400000018,5,15.370478200000434,32.22464160000163,None,,,,,,,,,,,,,,,,001,P003,2025_Jan_18_1108,ConditionRich,2021.2.3,59.86779992423208,
0.0,4.0,0,0.0,Stimuli/Blank.png,0,0,0.0,0,0,0,0,,,,,,,,,,,,47.608349300000555,0.02366980000078911,0.02366980000078911,5,3.9404384999998,47.6548827000006,None,47.6548827000006,None,47.6548827000006,None,47.6548827000006,47.6548827000006,47.6548827000006,None,001,P003,2025_Jan_18_1108,ConditionRich,2021.2.3,59.86779992423208,
4.0,7.75,19,0.75,Stimuli/P003/sun_bucebxfexknakpma.jpg,0,0,0.0,0,1,1,1,,,,,,,,,,,,,4.019428800000242,0.01942880000024161,None,,51.65873280000051,51.65873280000051,51.65873280000051,51.65873280000051,51.65873280000051,51.65873280000051,51.65873280000051,51.65873280000051,51.65873280000051,51.65873280000051,001,P003,2025_Jan_18_1108,ConditionRich,2021.2.3,59.86779992423208,
7.75,8.0,41,0.0,Stimuli/Blank.png,0,0,0.0,0,2,2,2,,,,,,,,,,,,,7.77282059999925,0.02282059999924968,5,0.19974550000006275,55.39529920000132,55.39529920000132,55.39529920000132,55.39529920000132,55.39529920000132,55.39529920000132,55.39529920000132,55.39529920000132,55.39529920000132,55.39529920000132,001,P003,2025_Jan_18_1108,ConditionRich,2021.2.3,59.86779992423208,
8.0,11.75,25,0.75,Stimuli/P003/things_girl_02s.jpg,1,0,0.75,0,3,3,3,,,,,,,,,,,,,8.006140100000266,0.006140100000266102,5,1.9498939999994036,55.64524470000106,55.64524470000106,55.64524470000106,55.64524470000106,55.64524470000106,55.64524470000106,55.64524470000106,56.37922120000076,55.64524470000106,55.64524470000106,001,P003,2025_Jan_18_1108,ConditionRich,2021.2.3,59.86779992423208,
11.75,12.0,41,0.0,Stimuli/Blank.png,0,0,0.0,0,4,4,4,,,,,,,,,,,,,11.777765500000896,0.02776550000089628,5,0.17989610000040557,59.41523039999993,59.41523039999993,59.41523039999993,59.41523039999993,59.41523039999993,59.41523039999993,59.41523039999993,59.41523039999993,59.41523039999993,59.41523039999993,001,P003,2025_Jan_18_1108,ConditionRich,2021.2.3,59.86779992423208,
12.0,15.75,36,0.75,Stimuli/P003/things_sea_urchin_02s.jpg,0,0,0.0,0,5,5,5,,,,,,,,,,,,,12.02604059999976,0.02604059999976016,5,1.9295082000007824,59.665465900001436,59.665465900001436,59.665465900001436,59.665465900001436,59.665465900001436,59.665465900001436,59.665465900001436,59.665465900001436,59.665465900001436,59.665465900001436,001,P003,2025_Jan_18_1108,ConditionRich,2021.2.3,59.86779992423208,
15.75,16.0,41,0.0,Stimuli/Blank.png,0,0,0.0,0,6,6,6,,,,,,,,,,,,,15.779553000000305,0.029553000000305474,5,0.19391920000089158,63.402042800000345,63.402042800000345,63.402042800000345,63.402042800000345,63.402042800000345,63.402042800000345,63.402042800000345,63.402042800000345,63.402042800000345,63.402042800000345,001,P003,2025_Jan_18_1108,ConditionRich,2021.2.3,59.86779992423208,
16.0,19.75,35,0.75,Stimuli/P003/things_satellite_dish_02s.jpg,0,0,0.0,0,7,7,7,,,,,,,,,,,,,16.012835300000006,0.0128353000000061,5,1.9437412000006589,63.65230460000021,63.65230460000021,63.65230460000021,63.65230460000021,63.65230460000021,63.65230460000021,63.65230460000021,63.65230460000021,63.65230460000021,63.65230460000021,001,P003,2025_Jan_18_1108,ConditionRich,2021.2.3,59.86779992423208,
19.75,20.0,41,0.0,Stimuli/Blank.png,0,0,0.0,0,8,8,8,,,,,,,,,,,,,19.766124699999637,0.016124699999636505,None,,67.38892790000136,67.38892790000136,67.38892790000136,67.38892790000136,67.38892790000136,67.38892790000136,67.38892790000136,67.38892790000136,67.38892790000136,67.38892790000136,001,P003,2025_Jan_18_1108,ConditionRich,2021.2.3,59.86779992423208,
20.0,23.75,8,0.75,Stimuli/P003/sun_asxkyzleyfgbqfrs.jpg,1,1,1.75,0,9,9,9,,,,,,,,,,,,,20.000363600000128,0.00036360000012791716,5,1.97380449999946,67.62245330000042,67.62245330000042,67.62245330000042,67.62245330000042,67.62245330000042,67.62245330000042,68.60669039999993,69.35730960000001,67.62245330000042,67.62245330000042,001,P003,2025_Jan_18_1108,ConditionRich,2021.2.3,59.86779992423208,
23.75,24.0,41,0.0,Stimuli/Blank.png,0,0,0.0,0,10,10,10,,,,,,,,,,,,,23.753519899999446,0.003519899999446352,None,,71.37575160000051,71.37575160000051,71.37575160000051,71.37575160000051,71.37575160000051,71.37575160000051,71.37575160000051,71.37575160000051,71.37575160000051,71.37575160000051,001,P003,2025_Jan_18_1108,ConditionRich,2021.2.3,59.86779992423208,
24.0,27.75,16,0.75,Stimuli/P003/sun_bjuoemgleyaogrmw.jpg,0,0,0.0,0,11,11,11,,,,,,,,,,,,,24.003634200000306,0.0036342000003060093,5,1.953334600000744,71.64265220000016,71.64265220000016,71.64265220000016,71.64265220000016,71.64265220000016,71.64265220000016,71.64265220000016,71.64265220000016,71.64265220000016,71.64265220000016,001,P003,2025_Jan_18_1108,ConditionRich,2021.2.3,59.86779992423208,
27.75,28.0,41,0.0,Stimuli/Blank.png,0,0,0.0,0,12,12,12,,,,,,,,,,,,,27.77400099999977,0.02400099999977101,5,0.20023129999935918,75.39596170000004,75.39596170000004,75.39596170000004,75.39596170000004,75.39596170000004,75.39596170000004,75.39596170000004,75.39596170000004,75.39596170000004,75.39596170000004,001,P003,2025_Jan_18_1108,ConditionRich,2021.2.3,59.86779992423208,
28.0,31.75,38,0.75,Stimuli/P003/things_slug_02s.jpg,0,0,0.0,0,13,13,13,,,,,,,,,,,,,28.007302199999685,0.007302199999685399,5,1.949886800000968,75.646151500001,75.646151500001,75.646151500001,75.646151500001,75.646151500001,75.646151500001,75.646151500001,75.646151500001,75.646151500001,75.646151500001,001,P003,2025_Jan_18_1108,ConditionRich,2021.2.3,59.86779992423208,
31.75,32.0,41,0.0,Stimuli/Blank.png,0,0,0.0,0,14,14,14,,,,,,,,,,,,,31.777907600000617,0.027907600000617094,5,0.19642230000135896,79.39948040000127,79.39948040000127,79.39948040000127,79.39948040000127,79.39948040000127,79.39948040000127,79.39948040000127,79.39948040000127,79.39948040000127,79.39948040000127,001,P003,2025_Jan_18_1108,ConditionRich,2021.2.3,59.86779992423208,
32.0,35.75,37,0.75,Stimuli/P003/things_ski_lift_02s.jpg,0,0,0.0,0,15,15,15,,,,,,,,,,,,,32.01083389999985,0.010833899999852292,5,1.9295556000015495,79.66639060000125,79.66639060000125,79.66639060000125,79.66639060000125,79.66639060000125,79.66639060000125,79.66639060000125,79.66639060000125,79.66639060000125,79.66639060000125,001,P003,2025_Jan_18_1108,ConditionRich,2021.2.3,59.86779992423208,
35.75,36.0,41,0.0,Stimuli/Blank.png,0,0,0.0,0,16,16,16,,,,,,,,,,,,,35.7980148000006,0.0480148000006011,5,0.15969199999926786,83.43639950000033,83.43639950000033,83.43639950000033,83.43639950000033,83.43639950000033,83.43639950000033,83.43639950000033,83.43639950000033,83.43639950000033,83.43639950000033,001,P003,2025_Jan_18_1108,ConditionRich,2021.2.3,59.86779992423208,
36.0,39.75,32,0.75,Stimuli/P003/things_pulley_02s.jpg,0,0,0.0,0,17,17,17,,,,,,,,,,,,,36.03153829999974,0.03153829999973823,5,1.9093698999986373,83.68659630000002,83.68659630000002,83.68659630000002,83.68659630000002,83.68659630000002,83.68659630000002,83.68659630000002,83.68659630000002,83.68659630000002,83.68659630000002,001,P003,2025_Jan_18_1108,ConditionRich,2021.2.3,59.86779992423208,
39.75,40.0,41,0.0,Stimuli/Blank.png,0,0,0.0,0,18,18,18,,,,,,,,,,,,,39.78410210000038,0.03410210000038205,None,,87.40651460000117,87.40651460000117,87.40651460000117,87.40651460000117,87.40651460000117,87.40651460000117,87.40651460000117,87.40651460000117,87.40651460000117,87.40651460000117,001,P003,2025_Jan_18_1108,ConditionRich,2021.2.3,59.86779992423208,
40.0,43.75,18,0.75,Stimuli/P003/sun_bplhnzkztpigweny.jpg,0,0,0.0,0,19,19,19,,,,,,,,,,,,,40.00101890000042,0.0010189000004174886,5,1.972822300000189,87.62337330000082,87.62337330000082,87.62337330000082,87.62337330000082,87.62337330000082,87.62337330000082,87.62337330000082,87.62337330000082,87.62337330000082,87.62337330000082,001,P003,2025_Jan_18_1108,ConditionRich,2021.2.3,59.86779992423208,
43.75,44.0,41,0.0,Stimuli/Blank.png,0,0,0.0,0,20,20,20,,,,,,,,,,,,,43.753908099999535,0.0039080999995348975,None,,91.37667630000033,91.37667630000033,91.37667630000033,91.37667630000033,91.37667630000033,91.37667630000033,91.37667630000033,91.37667630000033,91.37667630000033,91.37667630000033,001,P003,2025_Jan_18_1108,ConditionRich,2021.2.3,59.86779992423208,
44.0,47.75,40,0.75,Stimuli/P003/things_woman_02s.jpg,0,0,0.0,0,21,21,21,,,,,,,,,,,,,44.004104699999516,0.004104699999516015,5,1.952268200000617,91.64357930000006,91.64357930000006,91.64357930000006,91.64357930000006,91.64357930000006,91.64357930000006,91.64357930000006,91.64357930000006,91.64357930000006,91.64357930000006,001,P003,2025_Jan_18_1108,ConditionRich,2021.2.3,59.86779992423208,
47.75,48.0,41,0.0,Stimuli/Blank.png,0,0,0.0,0,22,22,22,,,,,,,,,,,,,47.77456820000043,0.024568200000430807,5,0.19904630000019097,95.39688190000015,95.39688190000015,95.39688190000015,95.39688190000015,95.39688190000015,95.39688190000015,95.39688190000015,95.39688190000015,95.39688190000015,95.39688190000015,001,P003,2025_Jan_18_1108,ConditionRich,2021.2.3,59.86779992423208,
48.0,51.75,34,0.75,Stimuli/P003/things_roll_02s.jpg,0,0,0.0,0,23,23,23,,,,,,,,,,,,,48.00784580000072,0.007845800000723102,5,1.9487167999996018,95.64712200000031,95.64712200000031,95.64712200000031,95.64712200000031,95.64712200000031,95.64712200000031,95.64712200000031,95.64712200000031,95.64712200000031,95.64712200000031,001,P003,2025_Jan_18_1108,ConditionRich,2021.2.3,59.86779992423208,
51.75,52.0,41,0.0,Stimuli/Blank.png,0,0,0.0,0,24,24,24,,,,,,,,,,,,,51.77813910000077,0.028139100000771577,5,0.19564610000088578,99.40040190000036,99.40040190000036,99.40040190000036,99.40040190000036,99.40040190000036,99.40040190000036,99.40040190000036,99.40040190000036,99.40040190000036,99.40040190000036,001,P003,2025_Jan_18_1108,ConditionRich,2021.2.3,59.86779992423208,
52.0,55.75,7,0.75,Stimuli/P003/sun_asgixjtedklbawgm.jpg,0,0,0.0,0,25,25,25,,,,,,,,,,,,,52.01130910000029,0.011309100000289618,5,1.9454124999992928,99.65061920000153,99.65061920000153,99.65061920000153,99.65061920000153,99.65061920000153,99.65061920000153,99.65061920000153,99.65061920000153,99.65061920000153,99.65061920000153,001,P003,2025_Jan_18_1108,ConditionRich,2021.2.3,59.86779992423208,
55.75,56.0,41,0.0,Stimuli/Blank.png,0,0,0.0,0,26,26,26,,,,,,,,,,,,,55.78181030000087,0.031810300000870484,5,0.19199210000078892,103.4039216000001,103.4039216000001,103.4039216000001,103.4039216000001,103.4039216000001,103.4039216000001,103.4039216000001,103.4039216000001,103.4039216000001,103.4039216000001,001,P003,2025_Jan_18_1108,ConditionRich,2021.2.3,59.86779992423208,
56.0,59.75,2,0.75,Stimuli/P003/sun_afijjzyziczoqdhz.jpg,0,0,0.0,0,27,27,27,,,,,,,,,,,,,56.01520779999919,0.015207799999188865,5,1.9419546999997692,103.65415930000017,103.65415930000017,103.65415930000017,103.65415930000017,103.65415930000017,103.65415930000017,103.65415930000017,103.65415930000017,103.65415930000017,103.65415930000017,001,P003,2025_Jan_18_1108,ConditionRich,2021.2.3,59.86779992423208,
59.75,60.0,41,0.0,Stimuli/Blank.png,0,0,0.0,0,28,28,28,,,,,,,,,,,,,59.76843469999949,0.018434699999488657,None,,107.39076420000129,107.39076420000129,107.39076420000129,107.39076420000129,107.39076420000129,107.39076420000129,107.39076420000129,107.39076420000129,107.39076420000129,107.39076420000129,001,P003,2025_Jan_18_1108,ConditionRich,2021.2.3,59.86779992423208,
60.0,63.75,23,0.75,Stimuli/P003/things_butterfly_02s.jpg,0,0,0.0,0,29,29,29,,,,,,,,,,,,,60.00165600000037,0.0016560000003664754,5,1.9549554999994143,107.64098350000131,107.64098350000131,107.64098350000131,107.64098350000131,107.64098350000131,107.64098350000131,107.64098350000131,107.64098350000131,107.64098350000131,107.64098350000131,001,P003,2025_Jan_18_1108,ConditionRich,2021.2.3,59.86779992423208,
63.75,64.0,41,0.0,Stimuli/Blank.png,0,0,0.0,0,30,30,30,,,,,,,,,,,,,63.77277970000068,0.02277970000068308,5,0.20155870000053255,111.39429540000128,111.39429540000128,111.39429540000128,111.39429540000128,111.39429540000128,111.39429540000128,111.39429540000128,111.39429540000128,111.39429540000128,111.39429540000128,001,P003,2025_Jan_18_1108,ConditionRich,2021.2.3,59.86779992423208,
64.0,67.75,29,0.75,Stimuli/P003/things_mat_02s.jpg,0,0,0.0,0,31,31,31,,,,,,,,,,,,,64.00547539999934,0.00547539999934088,5,1.9515086999999767,111.64454770000157,111.64454770000157,111.64454770000157,111.64454770000157,111.64454770000157,111.64454770000157,111.64454770000157,111.64454770000157,111.64454770000157,111.64454770000157,001,P003,2025_Jan_18_1108,ConditionRich,2021.2.3,59.86779992423208,
67.75,68.0,41,0.0,Stimuli/Blank.png,0,0,0.0,0,32,32,32,,,,,,,,,,,,,67.77799539999978,0.02799539999978151,5,0.18144480000046315,115.41449210000064,115.41449210000064,115.41449210000064,115.41449210000064,115.41449210000064,115.41449210000064,115.41449210000064,115.41449210000064,115.41449210000064,115.41449210000064,001,P003,2025_Jan_18_1108,ConditionRich,2021.2.3,59.86779992423208,
68.0,71.75,13,0.75,Stimuli/P003/sun_bhbiqbqmwrowrqpd.jpg,0,0,0.0,0,33,33,33,,,,,,,,,,,,,68.0279728000005,0.027972800000497955,5,1.9311324000009336,115.66470920000029,115.66470920000029,115.66470920000029,115.66470920000029,115.66470920000029,115.66470920000029,115.66470920000029,115.66470920000029,115.66470920000029,115.66470920000029,001,P003,2025_Jan_18_1108,ConditionRich,2021.2.3,59.86779992423208,
71.75,72.0,41,0.0,Stimuli/Blank.png,0,0,0.0,0,34,34,34,,,,,,,,,,,,,71.77879679999933,0.02879679999932705,5,0.1945103999987623,119.40132989999984,119.40132989999984,119.40132989999984,119.40132989999984,119.40132989999984,119.40132989999984,119.40132989999984,119.40132989999984,119.40132989999984,119.40132989999984,001,P003,2025_Jan_18_1108,ConditionRich,2021.2.3,59.86779992423208,
72.0,75.75,31,0.75,Stimuli/P003/things_pea_02s.jpg,1,3,3.75,0,35,35,35,,,,,,,,,,,,,72.01252820000082,0.01252820000081556,1,3.4902462999998534,119.65160509999987,119.65160509999987,119.65160509999987,119.65160509999987,119.65160509999987,119.65160509999987,122.63754880000124,None,119.65160509999987,119.65160509999987,001,P003,2025_Jan_18_1108,ConditionRich,2021.2.3,59.86779992423208,
75.75,76.0,41,0.0,Stimuli/Blank.png,0,0,0.0,0,36,36,36,,,,,,,,,,,,,75.76849670000047,0.01849670000046899,5,0.19096360000003187,123.40487290000056,123.40487290000056,123.40487290000056,123.40487290000056,123.40487290000056,123.40487290000056,123.40487290000056,123.40487290000056,123.40487290000056,123.40487290000056,001,P003,2025_Jan_18_1108,ConditionRich,2021.2.3,59.86779992423208,
76.0,79.75,1,0.75,Stimuli/P003/sun_adgmtzznutwlescq.jpg,1,0,0.75,0,37,37,37,,,,,,,,,,,,,76.01548619999994,0.015486199999941164,5,1.9242893000009644,123.67178560000139,123.67178560000139,123.67178560000139,123.67178560000139,123.67178560000139,123.67178560000139,123.67178560000139,124.3890506000007,123.67178560000139,123.67178560000139,001,P003,2025_Jan_18_1108,ConditionRich,2021.2.3,59.86779992423208,
79.75,80.0,41,0.0,Stimuli/Blank.png,0,0,0.0,0,38,38,38,,,,,,,,,,,,,79.78825440000037,0.03825440000036906,5,0.17089730000043346,127.42506830000093,127.42506830000093,127.42506830000093,127.42506830000093,127.42506830000093,127.42506830000093,127.42506830000093,127.42506830000093,127.42506830000093,127.42506830000093,001,P003,2025_Jan_18_1108,ConditionRich,2021.2.3,59.86779992423208,
80.0,83.75,20,0.75,Stimuli/P003/sun_bwytihadgigwkyht.jpg,0,0,0.0,0,39,39,39,,,,,,,,,,,,,80.01917909999975,0.01917909999974654,5,1.937265099999422,127.65859450000062,127.65859450000062,127.65859450000062,127.65859450000062,127.65859450000062,127.65859450000062,127.65859450000062,127.65859450000062,127.65859450000062,127.65859450000062,001,P003,2025_Jan_18_1108,ConditionRich,2021.2.3,59.86779992423208,
83.75,84.0,41,0.0,Stimuli/Blank.png,0,0,0.0,0,40,40,40,,,,,,,,,,,,,83.77267659999961,0.022676599999613245,5,0.20062989999860292,131.39524690000144,131.39524690000144,131.39524690000144,131.39524690000144,131.39524690000144,131.39524690000144,131.39524690000144,131.39524690000144,131.39524690000144,131.39524690000144,001,P003,2025_Jan_18_1108,ConditionRich,2021.2.3,59.86779992423208,
84.0,100.0,0,0.0,Stimuli/Blank.png,1,2,2.75,0,41,41,41,,,,,,,,,,,,,84.00585160000082,0.005851600000823964,5,13.966961799998899,131.62875990000066,131.62875990000066,131.62875990000066,131.62875990000066,131.62875990000066,131.62875990000066,133.61383390000083,134.36450220000006,131.62875990000066,131.62875990000066,001,P003,2025_Jan_18_1108,ConditionRich,2021.2.3,59.86779992423208,
100.0,103.75,33,0.75,Stimuli/P003/things_recorder_02s.jpg,0,0,0.0,0,42,42,42,,,,,,,,,,,,,100.0035241000005,0.0035241000005044043,5,1.9528778999992937,147.6428461000014,147.6428461000014,147.6428461000014,147.6428461000014,147.6428461000014,147.6428461000014,147.6428461000014,147.6428461000014,147.6428461000014,147.6428461000014,001,P003,2025_Jan_18_1108,ConditionRich,2021.2.3,59.86779992423208,
103.75,104.0,41,0.0,Stimuli/Blank.png,0,0,0.0,0,43,43,43,,,,,,,,,,,,,103.77422130000014,0.02422130000013567,5,0.19941279999875405,151.3962259,151.3962259,151.3962259,151.3962259,151.3962259,151.3962259,151.3962259,151.3962259,151.3962259,151.3962259,001,P003,2025_Jan_18_1108,ConditionRich,2021.2.3,59.86779992423208,
104.0,107.75,12,0.75,Stimuli/P003/sun_bcboctumoxwpdefl.jpg,1,2,2.75,0,44,44,44,,,,,,,,,,,,,104.00756619999993,0.007566199999928358,1,2.3864099999991595,151.64636380000047,151.64636380000047,151.64636380000047,151.64636380000047,151.64636380000047,151.64636380000047,153.63143740000123,154.38214140000127,151.64636380000047,151.64636380000047,001,P003,2025_Jan_18_1108,ConditionRich,2021.2.3,59.86779992423208,
107.75,108.0,41,0.0,Stimuli/Blank.png,0,0,0.0,0,45,45,45,,,,,,,,,,,,,107.77796680000029,0.02796680000028573,5,0.1961645999999746,155.39967590000015,155.39967590000015,155.39967590000015,155.39967590000015,155.39967590000015,155.39967590000015,155.39967590000015,155.39967590000015,155.39967590000015,155.39967590000015,001,P003,2025_Jan_18_1108,ConditionRich,2021.2.3,59.86779992423208,
108.0,111.75,27,0.75,Stimuli/P003/things_llama_02s.jpg,1,3,3.75,0,46,46,46,,,,,,,,,,,,,108.01066790000004,0.010667900000044028,1,3.4127824000006513,155.64989370000148,155.64989370000148,155.64989370000148,155.64989370000148,155.64989370000148,155.64989370000148,158.6358938000012,159.38655110000036,155.64989370000148,155.64989370000148,001,P003,2025_Jan_18_1108,ConditionRich,2021.2.3,59.86779992423208,
111.75,112.0,41,0.0,Stimuli/Blank.png,0,0,0.0,0,47,47,47,,,,,,,,,,,,,111.78324489999977,0.033244899999772315,5,0.1757660000002943,159.4198905000012,159.4198905000012,159.4198905000012,159.4198905000012,159.4198905000012,159.4198905000012,159.4198905000012,159.4198905000012,159.4198905000012,159.4198905000012,001,P003,2025_Jan_18_1108,ConditionRich,2021.2.3,59.86779992423208,
112.0,115.75,4,0.75,Stimuli/P003/sun_albtqdieqkajejrg.jpg,1,2,2.75,0,48,48,48,,,,,,,,,,,,,112.01461349999954,0.01461349999954109,1,2.357538399999612,159.6701129000012,159.6701129000012,159.6701129000012,159.6701129000012,159.6701129000012,159.6701129000012,161.63848640000106,162.38913970000067,159.6701129000012,159.6701129000012,001,P003,2025_Jan_18_1108,ConditionRich,2021.2.3,59.86779992423208,
115.75,116.0,41,0.0,Stimuli/Blank.png,0,0,0.0,0,49,49,49,,,,,,,,,,,,,115.78533659999994,0.03533659999993688,None,,163.40672059999997,163.40672059999997,163.40672059999997,163.40672059999997,163.40672059999997,163.40672059999997,163.40672059999997,163.40672059999997,163.40672059999997,163.40672059999997,001,P003,2025_Jan_18_1108,ConditionRich,2021.2.3,59.86779992423208,
116.0,119.75,3,0.75,Stimuli/P003/sun_afqjzrocqhabifao.jpg,0,0,0.0,0,50,50,50,,,,,,,,,,,,,116.00104500000089,0.0010450000008859206,5,1.9554238000000623,163.64025589999983,163.64025589999983,163.64025589999983,163.64025589999983,163.64025589999983,163.64025589999983,163.64025589999983,163.64025589999983,163.64025589999983,163.64025589999983,001,P003,2025_Jan_18_1108,ConditionRich,2021.2.3,59.86779992423208,
119.75,120.0,41,0.0,Stimuli/Blank.png,0,0,0.0,0,51,51,51,,,,,,,,,,,,,119.7717689000001,0.021768900000097346,None,,167.3935588000004,167.3935588000004,167.3935588000004,167.3935588000004,167.3935588000004,167.3935588000004,167.3935588000004,167.3935588000004,167.3935588000004,167.3935588000004,001,P003,2025_Jan_18_1108,ConditionRich,2021.2.3,59.86779992423208,
120.0,123.75,21,0.75,Stimuli/P003/things_baby_02s.jpg,1,1,1.75,0,52,52,52,,,,,,,,,,,,,120.0044997999994,0.004499799999393872,5,1.9521941999992123,167.64378700000088,167.64378700000088,167.64378700000088,167.64378700000088,167.64378700000088,167.64378700000088,168.62796620000154,169.37863430000107,167.64378700000088,167.64378700000088,001,P003,2025_Jan_18_1108,ConditionRich,2021.2.3,59.86779992423208,
123.75,124.0,41,0.0,Stimuli/Blank.png,0,0,0.0,0,53,53,53,,,,,,,,,,,,,123.77721589999965,0.027215899999646354,5,0.18182010000055016,171.4137636000014,171.4137636000014,171.4137636000014,171.4137636000014,171.4137636000014,171.4137636000014,171.4137636000014,171.4137636000014,171.4137636000014,171.4137636000014,001,P003,2025_Jan_18_1108,ConditionRich,2021.2.3,59.86779992423208,
124.0,127.75,14,0.75,Stimuli/P003/sun_bhhtrmwvoadbfucw.jpg,1,0,0.75,0,54,54,54,,,,,,,,,,,,,124.0245075999992,0.024507599999196827,5,1.9316450000005716,171.663992400001,171.663992400001,171.663992400001,171.663992400001,171.663992400001,171.663992400001,171.663992400001,172.39795700000104,171.663992400001,171.663992400001,001,P003,2025_Jan_18_1108,ConditionRich,2021.2.3,59.86779992423208,
127.75,128.0,41,0.0,Stimuli/Blank.png,0,0,0.0,0,55,55,55,,,,,,,,,,,,,127.77776330000052,0.0277633000005153,5,0.19501469999886467,175.40060750000157,175.40060750000157,175.40060750000157,175.40060750000157,175.40060750000157,175.40060750000157,175.40060750000157,175.40060750000157,175.40060750000157,175.40060750000157,001,P003,2025_Jan_18_1108,ConditionRich,2021.2.3,59.86779992423208,
128.0,131.75,15,0.75,Stimuli/P003/sun_bjhtdevvocmwtavk.jpg,0,0,0.0,0,56,56,56,,,,,,,,,,,,,128.0116935999995,0.011693599999489379,5,1.9447465000012016,175.65081570000075,175.65081570000075,175.65081570000075,175.65081570000075,175.65081570000075,175.65081570000075,175.65081570000075,175.65081570000075,175.65081570000075,175.65081570000075,001,P003,2025_Jan_18_1108,ConditionRich,2021.2.3,59.86779992423208,
131.75,132.0,41,0.0,Stimuli/Blank.png,0,0,0.0,0,57,57,57,,,,,,,,,,,,,131.78244199999972,0.03244199999971897,5,0.17457920000015292,179.42096990000027,179.42096990000027,179.42096990000027,179.42096990000027,179.42096990000027,179.42096990000027,179.42096990000027,179.42096990000027,179.42096990000027,179.42096990000027,001,P003,2025_Jan_18_1108,ConditionRich,2021.2.3,59.86779992423208,
132.0,135.75,10,0.75,Stimuli/P003/sun_azzneunxibjvypza.jpg,0,0,0.0,0,58,58,58,,,,,,,,,,,,,132.0151208999996,0.015120899999601534,5,1.9415013999987423,179.65434840000125,179.65434840000125,179.65434840000125,179.65434840000125,179.65434840000125,179.65434840000125,179.65434840000125,179.65434840000125,179.65434840000125,179.65434840000125,001,P003,2025_Jan_18_1108,ConditionRich,2021.2.3,59.86779992423208,
135.75,136.0,41,0.0,Stimuli/Blank.png,0,0,0.0,0,59,59,59,,,,,,,,,,,,,135.7688631000001,0.018863100000089617,None,,183.39102920000005,183.39102920000005,183.39102920000005,183.39102920000005,183.39102920000005,183.39102920000005,183.39102920000005,183.39102920000005,183.39102920000005,183.39102920000005,001,P003,2025_Jan_18_1108,ConditionRich,2021.2.3,59.86779992423208,
136.0,139.75,6,0.75,Stimuli/P003/sun_aoumkoxfhlaobjef.jpg,0,0,0.0,0,60,60,60,,,,,,,,,,,,,136.00198780000028,0.001987800000279094,5,1.9377669000004971,183.65787360000104,183.65787360000104,183.65787360000104,183.65787360000104,183.65787360000104,183.65787360000104,183.65787360000104,183.65787360000104,183.65787360000104,183.65787360000104,001,P003,2025_Jan_18_1108,ConditionRich,2021.2.3,59.86779992423208,
139.75,140.0,41,0.0,Stimuli/Blank.png,0,0,0.0,0,61,61,61,,,,,,,,,,,,,139.78924220000044,0.03924220000044443,5,0.18437160000030417,187.41117010000016,187.41117010000016,187.41117010000016,187.41117010000016,187.41117010000016,187.41117010000016,187.41117010000016,187.41117010000016,187.41117010000016,187.41117010000016,001,P003,2025_Jan_18_1108,ConditionRich,2021.2.3,59.86779992423208,
140.0,143.75,9,0.75,Stimuli/P003/sun_auqtrqkaobyprnjy.jpg,0,0,0.0,0,62,62,62,,,,,,,,,,,,,140.00550479999947,0.005504799999471288,5,1.9508162000001903,187.64473309999994,187.64473309999994,187.64473309999994,187.64473309999994,187.64473309999994,187.64473309999994,187.64473309999994,187.64473309999994,187.64473309999994,187.64473309999994,001,P003,2025_Jan_18_1108,ConditionRich,2021.2.3,59.86779992423208,
143.75,144.0,41,0.0,Stimuli/Blank.png,0,0,0.0,0,63,63,63,,,,,,,,,,,,,143.77800489999936,0.028004899999359623,5,0.18084119999912218,191.41469700000016,191.41469700000016,191.41469700000016,191.41469700000016,191.41469700000016,191.41469700000016,191.41469700000016,191.41469700000016,191.41469700000016,191.41469700000016,001,P003,2025_Jan_18_1108,ConditionRich,2021.2.3,59.86779992423208,
144.0,147.75,39,0.75,Stimuli/P003/things_toad_02s.jpg,0,0,0.0,0,64,64,64,,,,,,,,,,,,,144.02736080000068,0.027360800000678864,5,1.9305872000004456,191.66491870000027,191.66491870000027,191.66491870000027,191.66491870000027,191.66491870000027,191.66491870000027,191.66491870000027,191.66491870000027,191.66491870000027,191.66491870000027,001,P003,2025_Jan_18_1108,ConditionRich,2021.2.3,59.86779992423208,
147.75,148.0,41,0.0,Stimuli/Blank.png,0,0,0.0,0,65,65,65,,,,,,,,,,,,,147.77939700000024,0.02939700000024459,5,0.19414959999994608,195.4015412000008,195.4015412000008,195.4015412000008,195.4015412000008,195.4015412000008,195.4015412000008,195.4015412000008,195.4015412000008,195.4015412000008,195.4015412000008,001,P003,2025_Jan_18_1108,ConditionRich,2021.2.3,59.86779992423208,
148.0,151.75,28,0.75,Stimuli/P003/things_man_02s.jpg,0,0,0.0,0,66,66,66,,,,,,,,,,,,,148.01282250000077,0.012822500000766013,5,1.9437508000009984,195.65176890000112,195.65176890000112,195.65176890000112,195.65176890000112,195.65176890000112,195.65176890000112,195.65176890000112,195.65176890000112,195.65176890000112,195.65176890000112,001,P003,2025_Jan_18_1108,ConditionRich,2021.2.3,59.86779992423208,
151.75,152.0,41,0.0,Stimuli/Blank.png,0,0,0.0,0,67,67,67,,,,,,,,,,,,,151.76649480000015,0.016494800000145915,None,,199.38837840000087,199.38837840000087,199.38837840000087,199.38837840000087,199.38837840000087,199.38837840000087,199.38837840000087,199.38837840000087,199.38837840000087,199.38837840000087,001,P003,2025_Jan_18_1108,ConditionRich,2021.2.3,59.86779992423208,
152.0,155.75,22,0.75,Stimuli/P003/things_boy_02s.jpg,0,0,0.0,0,68,68,68,,,,,,,,,,,,,151.99891659999957,-0.001083400000425172,5,1.9739100999995571,199.6219101000006,199.6219101000006,199.6219101000006,199.6219101000006,199.6219101000006,199.6219101000006,199.6219101000006,199.6219101000006,199.6219101000006,199.6219101000006,001,P003,2025_Jan_18_1108,ConditionRich,2021.2.3,59.86779992423208,
155.75,156.0,41,0.0,Stimuli/Blank.png,0,0,0.0,0,69,69,69,,,,,,,,,,,,,155.75278450000042,0.002784500000416301,None,,203.37522890000037,203.37522890000037,203.37522890000037,203.37522890000037,203.37522890000037,203.37522890000037,203.37522890000037,203.37522890000037,203.37522890000037,203.37522890000037,001,P003,2025_Jan_18_1108,ConditionRich,2021.2.3,59.86779992423208,
156.0,159.75,30,0.75,Stimuli/P003/things_music_box_02s.jpg,0,0,0.0,0,70,70,70,,,,,,,,,,,,,156.00308210000003,0.0030821000000287313,5,1.9700831999998627,203.62545020000107,203.62545020000107,203.62545020000107,203.62545020000107,203.62545020000107,203.62545020000107,203.62545020000107,203.62545020000107,203.62545020000107,203.62545020000107,001,P003,2025_Jan_18_1108,ConditionRich,2021.2.3,59.86779992423208,
159.75,160.0,41,0.0,Stimuli/Blank.png,0,0,0.0,0,71,71,71,,,,,,,,,,,,,159.7590522999999,0.009052299999893876,5,0.2002016000005824,207.39544380000007,207.39544380000007,207.39544380000007,207.39544380000007,207.39544380000007,207.39544380000007,207.39544380000007,207.39544380000007,207.39544380000007,207.39544380000007,001,P003,2025_Jan_18_1108,ConditionRich,2021.2.3,59.86779992423208,
160.0,163.75,11,0.75,Stimuli/P003/sun_bawmjlzsuuivqjhi.jpg,0,0,0.0,0,72,72,72,,,,,,,,,,,,,160.0228045999993,0.022804599999290076,5,1.9332710999988194,207.66231960000005,207.66231960000005,207.66231960000005,207.66231960000005,207.66231960000005,207.66231960000005,207.66231960000005,207.66231960000005,207.66231960000005,207.66231960000005,001,P003,2025_Jan_18_1108,ConditionRich,2021.2.3,59.86779992423208,
163.75,164.0,41,0.0,Stimuli/Blank.png,0,0,0.0,0,73,73,73,,,,,,,,,,,,,163.77889979999964,0.028899799999635434,5,0.17978670000047714,211.4156483000006,211.4156483000006,211.4156483000006,211.4156483000006,211.4156483000006,211.4156483000006,211.4156483000006,211.4156483000006,211.4156483000006,211.4156483000006,001,P003,2025_Jan_18_1108,ConditionRich,2021.2.3,59.86779992423208,
164.0,167.75,17,0.75,Stimuli/P003/sun_bojovhhraxtgafcy.jpg,0,0,0.0,0,74,74,74,,,,,,,,,,,,,164.02837639999962,0.028376399999615387,5,1.9296444000010524,211.66586410000127,211.66586410000127,211.66586410000127,211.66586410000127,211.66586410000127,211.66586410000127,211.66586410000127,211.66586410000127,211.66586410000127,211.66586410000127,001,P003,2025_Jan_18_1108,ConditionRich,2021.2.3,59.86779992423208,
167.75,168.0,41,0.0,Stimuli/Blank.png,0,0,0.0,0,75,75,75,,,,,,,,,,,,,167.7794243999997,0.029424399999697926,5,0.19313139999940176,215.40246819999993,215.40246819999993,215.40246819999993,215.40246819999993,215.40246819999993,215.40246819999993,215.40246819999993,215.40246819999993,215.40246819999993,215.40246819999993,001,P003,2025_Jan_18_1108,ConditionRich,2021.2.3,59.86779992423208,
168.0,171.75,5,0.75,Stimuli/P003/sun_amnnxdwfjbdfumns.jpg,0,0,0.0,0,76,76,76,,,,,,,,,,,,,168.01361410000027,0.013614100000268081,5,1.9426577000012912,215.6528272000014,215.6528272000014,215.6528272000014,215.6528272000014,215.6528272000014,215.6528272000014,215.6528272000014,215.6528272000014,215.6528272000014,215.6528272000014,001,P003,2025_Jan_18_1108,ConditionRich,2021.2.3,59.86779992423208,
171.75,172.0,41,0.0,Stimuli/Blank.png,0,0,0.0,0,77,77,77,,,,,,,,,,,,,171.7676131999997,0.017613199999686913,None,,219.38931240000056,219.38931240000056,219.38931240000056,219.38931240000056,219.38931240000056,219.38931240000056,219.38931240000056,219.38931240000056,219.38931240000056,219.38931240000056,001,P003,2025_Jan_18_1108,ConditionRich,2021.2.3,59.86779992423208,
172.0,175.75,26,0.75,Stimuli/P003/things_ham_02s.jpg,0,0,0.0,0,78,78,78,,,,,,,,,,,,,172.00053450000087,0.0005345000008674106,5,1.9558954000003723,219.63958080000157,219.63958080000157,219.63958080000157,219.63958080000157,219.63958080000157,219.63958080000157,219.63958080000157,219.63958080000157,219.63958080000157,219.63958080000157,001,P003,2025_Jan_18_1108,ConditionRich,2021.2.3,59.86779992423208,
175.75,176.0,41,0.0,Stimuli/Blank.png,0,0,0.0,0,79,79,79,,,,,,,,,,,,,175.7711159999999,0.021115999999892665,None,,223.39283729999988,223.39283729999988,223.39283729999988,223.39283729999988,223.39283729999988,223.39283729999988,223.39283729999988,223.39283729999988,223.39283729999988,223.39283729999988,001,P003,2025_Jan_18_1108,ConditionRich,2021.2.3,59.86779992423208,
176.0,179.75,24,0.75,Stimuli/P003/things_dumpling_02s.jpg,0,0,0.0,0,80,80,80,,,,,,,,,,,,,176.00397180000073,0.003971800000726944,5,1.9523817999997846,223.6430373000003,223.6430373000003,223.6430373000003,223.6430373000003,223.6430373000003,223.6430373000003,223.6430373000003,223.6430373000003,223.6430373000003,223.6430373000003,001,P003,2025_Jan_18_1108,ConditionRich,2021.2.3,59.86779992423208,
179.75,180.0,41,0.0,Stimuli/Blank.png,0,0,0.0,0,81,81,81,,,,,,,,,,,,,179.77400750000015,0.024007500000152504,5,0.19907749999947555,227.39634730000034,227.39634730000034,227.39634730000034,227.39634730000034,227.39634730000034,227.39634730000034,227.39634730000034,227.39634730000034,227.39634730000034,227.39634730000034,001,P003,2025_Jan_18_1108,ConditionRich,2021.2.3,59.86779992423208,
180.0,196.0,0,0.0,Stimuli/Blank.png,1,1,1.75,0,82,82,82,,,,,,,,,,,,,180.00728510000044,0.0072851000004448,5,13.965744000000996,227.62988990000122,227.62988990000122,227.62988990000122,227.62988990000122,227.62988990000122,227.62988990000122,228.61411039999984,229.36474780000026,227.62988990000122,227.62988990000122,001,P003,2025_Jan_18_1108,ConditionRich,2021.2.3,59.86779992423208,
196.0,199.75,33,0.75,Stimuli/P003/things_recorder_02s.jpg,0,0,0.0,0,83,83,83,,,,,,,,,,,,,196.00471339999967,0.004713399999673129,5,1.95146030000069,243.6439850000006,243.6439850000006,243.6439850000006,243.6439850000006,243.6439850000006,243.6439850000006,243.6439850000006,243.6439850000006,243.6439850000006,243.6439850000006,001,P003,2025_Jan_18_1108,ConditionRich,2021.2.3,59.86779992423208,
199.75,200.0,41,0.0,Stimuli/Blank.png,0,0,0.0,0,84,84,84,,,,,,,,,,,,,199.77451289999954,0.024512899999535875,5,0.1982384999992064,247.39727630000016,247.39727630000016,247.39727630000016,247.39727630000016,247.39727630000016,247.39727630000016,247.39727630000016,247.39727630000016,247.39727630000016,247.39727630000016,001,P003,2025_Jan_18_1108,ConditionRich,2021.2.3,59.86779992423208,
200.0,203.75,36,0.75,Stimuli/P003/things_sea_urchin_02s.jpg,0,0,0.0,0,85,85,85,,,,,,,,,,,,,200.00898729999972,0.008987299999716925,5,1.9645571000000928,247.6308198000006,247.6308198000006,247.6308198000006,247.6308198000006,247.6308198000006,247.6308198000006,247.6308198000006,247.6308198000006,247.6308198000006,247.6308198000006,001,P003,2025_Jan_18_1108,ConditionRich,2021.2.3,59.86779992423208,
203.75,204.0,41,0.0,Stimuli/Blank.png,0,0,0.0,0,86,86,86,,,,,,,,,,,,,203.76251140000022,0.012511400000221329,5,0.21123739999893587,251.3841280000015,251.3841280000015,251.3841280000015,251.3841280000015,251.3841280000015,251.3841280000015,251.3841280000015,251.3841280000015,251.3841280000015,251.3841280000015,001,P003,2025_Jan_18_1108,ConditionRich,2021.2.3,59.86779992423208,
204.0,207.75,7,0.75,Stimuli/P003/sun_asgixjtedklbawgm.jpg,0,0,0.0,0,87,87,87,,,,,,,,,,,,,204.01260960000036,0.012609600000359933,5,1.944480800000747,251.6510145000011,251.6510145000011,251.6510145000011,251.6510145000011,251.6510145000011,251.6510145000011,251.6510145000011,251.6510145000011,251.6510145000011,251.6510145000011,001,P003,2025_Jan_18_1108,ConditionRich,2021.2.3,59.86779992423208,
207.75,208.0,41,0.0,Stimuli/Blank.png,0,0,0.0,0,88,88,88,,,,,,,,,,,,,207.76522750000004,0.015227500000037253,5,0.2077480000007199,255.38763260000087,255.38763260000087,255.38763260000087,255.38763260000087,255.38763260000087,255.38763260000087,255.38763260000087,255.38763260000087,255.38763260000087,255.38763260000087,001,P003,2025_Jan_18_1108,ConditionRich,2021.2.3,59.86779992423208,
208.0,211.75,5,0.75,Stimuli/P003/sun_amnnxdwfjbdfumns.jpg,0,0,0.0,0,89,89,89,,,,,,,,,,,,,208.0176945000003,0.017694500000288826,5,1.9407381000000896,255.65454390000014,255.65454390000014,255.65454390000014,255.65454390000014,255.65454390000014,255.65454390000014,255.65454390000014,255.65454390000014,255.65454390000014,255.65454390000014,001,P003,2025_Jan_18_1108,ConditionRich,2021.2.3,59.86779992423208,
211.75,212.0,41,0.0,Stimuli/Blank.png,0,0,0.0,0,90,90,90,,,,,,,,,,,,,211.76860769999985,0.018607699999847682,None,,259.39116749999994,259.39116749999994,259.39116749999994,259.39116749999994,259.39116749999994,259.39116749999994,259.39116749999994,259.39116749999994,259.39116749999994,259.39116749999994,001,P003,2025_Jan_18_1108,ConditionRich,2021.2.3,59.86779992423208,
212.0,215.75,14,0.75,Stimuli/P003/sun_bhhtrmwvoadbfucw.jpg,0,0,0.0,0,91,91,91,,,,,,,,,,,,,212.00239619999957,0.0023961999995663064,5,1.9706583000006503,259.62470510000094,259.62470510000094,259.62470510000094,259.62470510000094,259.62470510000094,259.62470510000094,259.62470510000094,259.62470510000094,259.62470510000094,259.62470510000094,001,P003,2025_Jan_18_1108,ConditionRich,2021.2.3,59.86779992423208,
215.75,216.0,41,0.0,Stimuli/Blank.png,0,0,0.0,0,92,92,92,,,,,,,,,,,,,215.7552323,0.005232299999988754,5,0.21728749999965657,263.3780045000003,263.3780045000003,263.3780045000003,263.3780045000003,263.3780045000003,263.3780045000003,263.3780045000003,263.3780045000003,263.3780045000003,263.3780045000003,001,P003,2025_Jan_18_1108,ConditionRich,2021.2.3,59.86779992423208,
216.0,219.75,6,0.75,Stimuli/P003/sun_aoumkoxfhlaobjef.jpg,0,0,0.0,0,93,93,93,,,,,,,,,,,,,216.0076964,0.00769639999998617,5,1.950486000001547,263.6449171000004,263.6449171000004,263.6449171000004,263.6449171000004,263.6449171000004,263.6449171000004,263.6449171000004,263.6449171000004,263.6449171000004,263.6449171000004,001,P003,2025_Jan_18_1108,ConditionRich,2021.2.3,59.86779992423208,
219.75,220.0,41,0.0,Stimuli/Blank.png,0,0,0.0,0,94,94,94,,,,,,,,,,,,,219.77760780000062,0.027607800000623683,5,0.18047330000081274,267.41489809999985,267.41489809999985,267.41489809999985,267.41489809999985,267.41489809999985,267.41489809999985,267.41489809999985,267.41489809999985,267.41489809999985,267.41489809999985,001,P003,2025_Jan_18_1108,ConditionRich,2021.2.3,59.86779992423208,
220.0,223.75,3,0.75,Stimuli/P003/sun_afqjzrocqhabifao.jpg,0,0,0.0,0,95,95,95,,,,,,,,,,,,,220.02788220000002,0.02788220000002184,5,1.9302184999996825,267.6651116000012,267.6651116000012,267.6651116000012,267.6651116000012,267.6651116000012,267.6651116000012,267.6651116000012,267.6651116000012,267.6651116000012,267.6651116000012,001,P003,2025_Jan_18_1108,ConditionRich,2021.2.3,59.86779992423208,
223.75,224.0,41,0.0,Stimuli/Blank.png,0,0,0.0,0,96,96,96,,,,,,,,,,,,,223.77912800000013,0.02912800000012794,5,0.19366439999976137,271.4017268000007,271.4017268000007,271.4017268000007,271.4017268000007,271.4017268000007,271.4017268000007,271.4017268000007,271.4017268000007,271.4017268000007,271.4017268000007,001,P003,2025_Jan_18_1108,ConditionRich,2021.2.3,59.86779992423208,
224.0,227.75,12,0.75,Stimuli/P003/sun_bcboctumoxwpdefl.jpg,1,3,3.75,0,97,97,97,,,,,,,,,,,,,224.01313309999932,0.01313309999932244,1,3.3092945999997028,271.6519668000001,271.6519668000001,271.6519668000001,271.6519668000001,271.6519668000001,271.6519668000001,274.6212690000011,275.3718867000007,271.6519668000001,271.6519668000001,001,P003,2025_Jan_18_1108,ConditionRich,2021.2.3,59.86779992423208,
227.75,228.0,41,0.0,Stimuli/Blank.png,0,0,0.0,0,98,98,98,,,,,,,,,,,,,227.76613419999921,0.016134199999214616,None,,275.3885691000014,275.3885691000014,275.3885691000014,275.3885691000014,275.3885691000014,275.3885691000014,275.3885691000014,275.3885691000014,275.3885691000014,275.3885691000014,001,P003,2025_Jan_18_1108,ConditionRich,2021.2.3,59.86779992423208,
228.0,231.75,8,0.75,Stimuli/P003/sun_asxkyzleyfgbqfrs.jpg,1,2,2.75,0,99,99,99,,,,,,,,,,,,,227.99965069999962,-0.0003493000003800262,1,2.3244001000002754,275.6388072000009,275.6388072000009,275.6388072000009,275.6388072000009,275.6388072000009,275.6388072000009,277.60718480000105,278.3578503000008,275.6388072000009,275.6388072000009,001,P003,2025_Jan_18_1108,ConditionRich,2021.2.3,59.86779992423208,
231.75,232.0,41,0.0,Stimuli/Blank.png,0,0,0.0,0,100,100,100,,,,,,,,,,,,,231.76967979999972,0.01967979999972158,None,,279.392165700001,279.392165700001,279.392165700001,279.392165700001,279.392165700001,279.392165700001,279.392165700001,279.392165700001,279.392165700001,279.392165700001,001,P003,2025_Jan_18_1108,ConditionRich,2021.2.3,59.86779992423208,
232.0,235.75,16,0.75,Stimuli/P003/sun_bjuoemgleyaogrmw.jpg,0,0,0.0,0,101,101,101,,,,,,,,,,,,,232.0029873000003,0.002987300000313553,5,1.9695389999997133,279.625641300001,279.625641300001,279.625641300001,279.625641300001,279.625641300001,279.625641300001,279.625641300001,279.625641300001,279.625641300001,279.625641300001,001,P003,2025_Jan_18_1108,ConditionRich,2021.2.3,59.86779992423208,
235.75,236.0,41,0.0,Stimuli/Blank.png,0,0,0.0,0,102,102,102,,,,,,,,,,,,,235.75881560000016,0.008815600000161794,5,0.19970910000120057,283.3956179000015,283.3956179000015,283.3956179000015,283.3956179000015,283.3956179000015,283.3956179000015,283.3956179000015,283.3956179000015,283.3956179000015,283.3956179000015,001,P003,2025_Jan_18_1108,ConditionRich,2021.2.3,59.86779992423208,
236.0,239.75,21,0.75,Stimuli/P003/things_baby_02s.jpg,0,0,0.0,0,103,103,103,,,,,,,,,,,,,236.02371180000046,0.023711800000455696,5,1.9504784000000654,283.64583390000007,283.64583390000007,283.64583390000007,283.64583390000007,283.64583390000007,283.64583390000007,283.64583390000007,283.64583390000007,283.64583390000007,283.64583390000007,001,P003,2025_Jan_18_1108,ConditionRich,2021.2.3,59.86779992423208,
239.75,240.0,41,0.0,Stimuli/Blank.png,0,0,0.0,0,104,104,104,,,,,,,,,,,,,239.7598006999997,0.009800699999686913,5,0.21376380000037898,287.3824603000012,287.3824603000012,287.3824603000012,287.3824603000012,287.3824603000012,287.3824603000012,287.3824603000012,287.3824603000012,287.3824603000012,287.3824603000012,001,P003,2025_Jan_18_1108,ConditionRich,2021.2.3,59.86779992423208,
240.0,243.75,26,0.75,Stimuli/P003/things_ham_02s.jpg,0,0,0.0,0,105,105,105,,,,,,,,,,,,,240.01259270000082,0.012592700000823243,5,1.946997699998974,287.64936620000117,287.64936620000117,287.64936620000117,287.64936620000117,287.64936620000117,287.64936620000117,287.64936620000117,287.64936620000117,287.64936620000117,287.64936620000117,001,P003,2025_Jan_18_1108,ConditionRich,2021.2.3,59.86779992423208,
243.75,244.0,41,0.0,Stimuli/Blank.png,0,0,0.0,0,106,106,106,,,,,,,,,,,,,243.76371330000075,0.013713300000745221,5,0.21024430000034044,291.38619890000155,291.38619890000155,291.38619890000155,291.38619890000155,291.38619890000155,291.38619890000155,291.38619890000155,291.38619890000155,291.38619890000155,291.38619890000155,001,P003,2025_Jan_18_1108,ConditionRich,2021.2.3,59.86779992423208,
244.0,247.75,38,0.75,Stimuli/P003/things_slug_02s.jpg,0,0,0.0,0,107,107,107,,,,,,,,,,,,,244.01440019999973,0.014400199999727192,5,1.959667699999045,291.6366381000007,291.6366381000007,291.6366381000007,291.6366381000007,291.6366381000007,291.6366381000007,291.6366381000007,291.6366381000007,291.6366381000007,291.6366381000007,001,P003,2025_Jan_18_1108,ConditionRich,2021.2.3,59.86779992423208,
247.75,248.0,41,0.0,Stimuli/Blank.png,0,0,0.0,0,108,108,108,,,,,,,,,,,,,247.75239610000062,0.0023961000006238464,None,,295.37315130000025,295.37315130000025,295.37315130000025,295.37315130000025,295.37315130000025,295.37315130000025,295.37315130000025,295.37315130000025,295.37315130000025,295.37315130000025,001,P003,2025_Jan_18_1108,ConditionRich,2021.2.3,59.86779992423208,
248.0,251.75,35,0.75,Stimuli/P003/things_satellite_dish_02s.jpg,1,1,1.75,0,109,109,109,,,,,,,,,,,,,248.0015927000004,0.001592700000401237,5,1.9725174000013794,295.6237349000003,295.6237349000003,295.6237349000003,295.6237349000003,295.6237349000003,295.6237349000003,296.60838780000086,297.35875490000035,295.6237349000003,295.6237349000003,001,P003,2025_Jan_18_1108,ConditionRich,2021.2.3,59.86779992423208,
251.75,252.0,41,0.0,Stimuli/Blank.png,0,0,0.0,0,110,110,110,,,,,,,,,,,,,251.75465599999916,0.0046559999991586665,None,,299.376880400001,299.376880400001,299.376880400001,299.376880400001,299.376880400001,299.376880400001,299.376880400001,299.376880400001,299.376880400001,299.376880400001,001,P003,2025_Jan_18_1108,ConditionRich,2021.2.3,59.86779992423208,
252.0,255.75,31,0.75,Stimuli/P003/things_pea_02s.jpg,0,0,0.0,0,111,111,111,,,,,,,,,,,,,252.00471920000018,0.004719200000181445,5,1.9691483999995398,299.62709619999987,299.62709619999987,299.62709619999987,299.62709619999987,299.62709619999987,299.62709619999987,299.62709619999987,299.62709619999987,299.62709619999987,299.62709619999987,001,P003,2025_Jan_18_1108,ConditionRich,2021.2.3,59.86779992423208,
255.75,256.0,41,0.0,Stimuli/Blank.png,0,0,0.0,0,112,112,112,,,,,,,,,,,,,255.76092880000033,0.01092880000032892,5,0.21221309999964433,303.3843568000011,303.3843568000011,303.3843568000011,303.3843568000011,303.3843568000011,303.3843568000011,303.3843568000011,303.3843568000011,303.3843568000011,303.3843568000011,001,P003,2025_Jan_18_1108,ConditionRich,2021.2.3,59.86779992423208,
256.0,259.75,15,0.75,Stimuli/P003/sun_bjhtdevvocmwtavk.jpg,0,0,0.0,0,113,113,113,,,,,,,,,,,,,256.00822750000043,0.008227500000430155,5,1.9627000999989832,303.6338682000005,303.6338682000005,303.6338682000005,303.6338682000005,303.6338682000005,303.6338682000005,303.6338682000005,303.6338682000005,303.6338682000005,303.6338682000005,001,P003,2025_Jan_18_1108,ConditionRich,2021.2.3,59.86779992423208,
259.75,260.0,41,0.0,Stimuli/Blank.png,0,0,0.0,0,114,114,114,,,,,,,,,,,,,259.7615631000008,0.011563100000785198,5,0.21215789999951085,307.3840753000004,307.3840753000004,307.3840753000004,307.3840753000004,307.3840753000004,307.3840753000004,307.3840753000004,307.3840753000004,307.3840753000004,307.3840753000004,001,P003,2025_Jan_18_1108,ConditionRich,2021.2.3,59.86779992423208,
260.0,263.75,32,0.75,Stimuli/P003/things_pulley_02s.jpg,1,1,1.75,0,115,115,115,,,,,,,,,,,,,260.01176680000026,0.011766800000259536,5,1.9627855999988242,307.6340940000009,307.6340940000009,307.6340940000009,307.6340940000009,307.6340940000009,307.6340940000009,308.6181626000016,309.368685200001,307.6340940000009,307.6340940000009,001,P003,2025_Jan_18_1108,ConditionRich,2021.2.3,59.86779992423208,
263.75,264.0,41,0.0,Stimuli/Blank.png,0,0,0.0,0,116,116,116,,,,,,,,,,,,,263.7658329999995,0.01583299999947485,None,,311.38759480000044,311.38759480000044,311.38759480000044,311.38759480000044,311.38759480000044,311.38759480000044,311.38759480000044,311.38759480000044,311.38759480000044,311.38759480000044,001,P003,2025_Jan_18_1108,ConditionRich,2021.2.3,59.86779992423208,
264.0,267.75,24,0.75,Stimuli/P003/things_dumpling_02s.jpg,0,0,0.0,0,117,117,117,,,,,,,,,,,,,263.99891449999996,-0.0010855000000447035,5,1.9743457000004128,311.6219607000003,311.6219607000003,311.6219607000003,311.6219607000003,311.6219607000003,311.6219607000003,311.6219607000003,311.6219607000003,311.6219607000003,311.6219607000003,001,P003,2025_Jan_18_1108,ConditionRich,2021.2.3,59.86779992423208,
267.75,268.0,41,0.0,Stimuli/Blank.png,0,0,0.0,0,118,118,118,,,,,,,,,,,,,267.7523963000003,0.0023963000003277557,None,,315.3745321000006,315.3745321000006,315.3745321000006,315.3745321000006,315.3745321000006,315.3745321000006,315.3745321000006,315.3745321000006,315.3745321000006,315.3745321000006,001,P003,2025_Jan_18_1108,ConditionRich,2021.2.3,59.86779992423208,
268.0,271.75,18,0.75,Stimuli/P003/sun_bplhnzkztpigweny.jpg,0,0,0.0,0,119,119,119,,,,,,,,,,,,,268.0026610999994,0.0026610999993863516,5,1.972090199999002,315.62439950000044,315.62439950000044,315.62439950000044,315.62439950000044,315.62439950000044,315.62439950000044,315.62439950000044,315.62439950000044,315.62439950000044,315.62439950000044,001,P003,2025_Jan_18_1108,ConditionRich,2021.2.3,59.86779992423208,
271.75,272.0,41,0.0,Stimuli/Blank.png,0,0,0.0,0,120,120,120,,,,,,,,,,,,,271.7563052000005,0.00630520000049728,None,,319.3783402000008,319.3783402000008,319.3783402000008,319.3783402000008,319.3783402000008,319.3783402000008,319.3783402000008,319.3783402000008,319.3783402000008,319.3783402000008,001,P003,2025_Jan_18_1108,ConditionRich,2021.2.3,59.86779992423208,
272.0,275.75,37,0.75,Stimuli/P003/things_ski_lift_02s.jpg,0,0,0.0,0,121,121,121,,,,,,,,,,,,,272.00545109999985,0.00545109999984561,5,1.9683308999992732,319.62805090000074,319.62805090000074,319.62805090000074,319.62805090000074,319.62805090000074,319.62805090000074,319.62805090000074,319.62805090000074,319.62805090000074,319.62805090000074,001,P003,2025_Jan_18_1108,ConditionRich,2021.2.3,59.86779992423208,
275.75,276.0,41,0.0,Stimuli/Blank.png,0,0,0.0,0,122,122,122,,,,,,,,,,,,,275.7613693000003,0.01136930000029679,5,0.21359170000141603,323.3828787000002,323.3828787000002,323.3828787000002,323.3828787000002,323.3828787000002,323.3828787000002,323.3828787000002,323.3828787000002,323.3828787000002,323.3828787000002,001,P003,2025_Jan_18_1108,ConditionRich,2021.2.3,59.86779992423208,
276.0,292.0,0,0.0,Stimuli/Blank.png,1,11,11.75,0,123,123,123,,,,,,,,,,,,,276.00946920000024,0.009469200000239653,5,15.965031900001122,323.6315822000015,323.6315822000015,323.6315822000015,323.6315822000015,323.6315822000015,323.6315822000015,334.60818570000083,335.35881020000124,323.6315822000015,323.6315822000015,001,P003,2025_Jan_18_1108,ConditionRich,2021.2.3,59.86779992423208,
292.0,295.75,29,0.75,Stimuli/P003/things_mat_02s.jpg,0,0,0.0,0,124,124,124,,,,,,,,,,,,,292.00631350000003,0.0063135000000329455,5,1.9670913999998447,339.629159600001,339.629159600001,339.629159600001,339.629159600001,339.629159600001,339.629159600001,339.629159600001,339.629159600001,339.629159600001,339.629159600001,001,P003,2025_Jan_18_1108,ConditionRich,2021.2.3,59.86779992423208,
295.75,296.0,41,0.0,Stimuli/Blank.png,0,0,0.0,0,125,125,125,,,,,,,,,,,,,295.7624151,0.012415099999998347,5,0.21241999999983818,343.3839334000004,343.3839334000004,343.3839334000004,343.3839334000004,343.3839334000004,343.3839334000004,343.3839334000004,343.3839334000004,343.3839334000004,343.3839334000004,001,P003,2025_Jan_18_1108,ConditionRich,2021.2.3,59.86779992423208,
296.0,299.75,25,0.75,Stimuli/P003/things_girl_02s.jpg,0,0,0.0,0,126,126,126,,,,,,,,,,,,,296.0095471000004,0.00954710000041814,5,1.963935899999342,343.6321347000012,343.6321347000012,343.6321347000012,343.6321347000012,343.6321347000012,343.6321347000012,343.6321347000012,343.6321347000012,343.6321347000012,343.6321347000012,001,P003,2025_Jan_18_1108,ConditionRich,2021.2.3,59.86779992423208,
299.75,300.0,41,0.0,Stimuli/Blank.png,0,0,0.0,0,127,127,127,,,,,,,,,,,,,299.76399839999976,0.013998399999763933,5,0.21063760000106413,347.3857089000012,347.3857089000012,347.3857089000012,347.3857089000012,347.3857089000012,347.3857089000012,347.3857089000012,347.3857089000012,347.3857089000012,347.3857089000012,001,P003,2025_Jan_18_1108,ConditionRich,2021.2.3,59.86779992423208,
300.0,303.75,13,0.75,Stimuli/P003/sun_bhbiqbqmwrowrqpd.jpg,0,0,0.0,0,128,128,128,,,,,,,,,,,,,300.0137859000006,0.013785900000584661,5,1.9603394999994634,347.6360751000011,347.6360751000011,347.6360751000011,347.6360751000011,347.6360751000011,347.6360751000011,347.6360751000011,347.6360751000011,347.6360751000011,347.6360751000011,001,P003,2025_Jan_18_1108,ConditionRich,2021.2.3,59.86779992423208,
303.75,304.0,41,0.0,Stimuli/Blank.png,0,0,0.0,0,129,129,129,,,,,,,,,,,,,303.75005039999996,5.03999999637017e-05,None,,351.3725463999999,351.3725463999999,351.3725463999999,351.3725463999999,351.3725463999999,351.3725463999999,351.3725463999999,351.3725463999999,351.3725463999999,351.3725463999999,001,P003,2025_Jan_18_1108,ConditionRich,2021.2.3,59.86779992423208,
304.0,307.75,10,0.75,Stimuli/P003/sun_azzneunxibjvypza.jpg,0,0,0.0,0,130,130,130,,,,,,,,,,,,,304.0008078999999,0.0008078999999270309,5,1.9736376000000746,351.6227988999999,351.6227988999999,351.6227988999999,351.6227988999999,351.6227988999999,351.6227988999999,351.6227988999999,351.6227988999999,351.6227988999999,351.6227988999999,001,P003,2025_Jan_18_1108,ConditionRich,2021.2.3,59.86779992423208,
307.75,308.0,41,0.0,Stimuli/Blank.png,0,0,0.0,0,131,131,131,,,,,,,,,,,,,307.75455689999944,0.004556899999442976,None,,355.37599950000003,355.37599950000003,355.37599950000003,355.37599950000003,355.37599950000003,355.37599950000003,355.37599950000003,355.37599950000003,355.37599950000003,355.37599950000003,001,P003,2025_Jan_18_1108,ConditionRich,2021.2.3,59.86779992423208,
308.0,311.75,17,0.75,Stimuli/P003/sun_bojovhhraxtgafcy.jpg,0,0,0.0,0,132,132,132,,,,,,,,,,,,,308.00415579999935,0.004155799999352894,5,1.9697955999999976,355.6262820000011,355.6262820000011,355.6262820000011,355.6262820000011,355.6262820000011,355.6262820000011,355.6262820000011,355.6262820000011,355.6262820000011,355.6262820000011,001,P003,2025_Jan_18_1108,ConditionRich,2021.2.3,59.86779992423208,
311.75,312.0,41,0.0,Stimuli/Blank.png,0,0,0.0,0,133,133,133,,,,,,,,,,,,,311.7581222000008,0.00812220000079833,5,0.21712539999862202,359.3794082000004,359.3794082000004,359.3794082000004,359.3794082000004,359.3794082000004,359.3794082000004,359.3794082000004,359.3794082000004,359.3794082000004,359.3794082000004,001,P003,2025_Jan_18_1108,ConditionRich,2021.2.3,59.86779992423208,
312.0,315.75,11,0.75,Stimuli/P003/sun_bawmjlzsuuivqjhi.jpg,0,0,0.0,0,134,134,134,,,,,,,,,,,,,312.0065383000001,0.006538300000102026,5,1.9670148999994126,359.6295241000007,359.6295241000007,359.6295241000007,359.6295241000007,359.6295241000007,359.6295241000007,359.6295241000007,359.6295241000007,359.6295241000007,359.6295241000007,001,P003,2025_Jan_18_1108,ConditionRich,2021.2.3,59.86779992423208,
315.75,316.0,41,0.0,Stimuli/Blank.png,0,0,0.0,0,135,135,135,,,,,,,,,,,,,315.7613870999994,0.011387099999410566,5,0.21308899999894493,363.3833443000003,363.3833443000003,363.3833443000003,363.3833443000003,363.3833443000003,363.3833443000003,363.3833443000003,363.3833443000003,363.3833443000003,363.3833443000003,001,P003,2025_Jan_18_1108,ConditionRich,2021.2.3,59.86779992423208,
316.0,319.75,23,0.75,Stimuli/P003/things_butterfly_02s.jpg,0,0,0.0,0,136,136,136,,,,,,,,,,,,,316.01086960000066,0.010869600000660284,5,1.963517000000138,363.6333405000005,363.6333405000005,363.6333405000005,363.6333405000005,363.6333405000005,363.6333405000005,363.6333405000005,363.6333405000005,363.6333405000005,363.6333405000005,001,P003,2025_Jan_18_1108,ConditionRich,2021.2.3,59.86779992423208,
319.75,320.0,41,0.0,Stimuli/Blank.png,0,0,0.0,0,137,137,137,,,,,,,,,,,,,319.76389949999975,0.013899499999752152,5,0.20963530000153696,367.3867097000002,367.3867097000002,367.3867097000002,367.3867097000002,367.3867097000002,367.3867097000002,367.3867097000002,367.3867097000002,367.3867097000002,367.3867097000002,001,P003,2025_Jan_18_1108,ConditionRich,2021.2.3,59.86779992423208,
320.0,323.75,2,0.75,Stimuli/P003/sun_afijjzyziczoqdhz.jpg,1,1,1.75,0,138,138,138,,,,,,,,,,,,,320.01485519999915,0.014855199999146862,5,1.9591880000007222,367.63692040000024,367.63692040000024,367.63692040000024,367.63692040000024,367.63692040000024,367.63692040000024,368.62127540000074,369.3715146000013,367.63692040000024,367.63692040000024,001,P003,2025_Jan_18_1108,ConditionRich,2021.2.3,59.86779992423208,
323.75,324.0,41,0.0,Stimuli/Blank.png,0,0,0.0,0,139,139,139,,,,,,,,,,,,,323.7524033000009,0.0024033000008785166,None,,371.3732387,371.3732387,371.3732387,371.3732387,371.3732387,371.3732387,371.3732387,371.3732387,371.3732387,371.3732387,001,P003,2025_Jan_18_1108,ConditionRich,2021.2.3,59.86779992423208,
324.0,327.75,4,0.75,Stimuli/P003/sun_albtqdieqkajejrg.jpg,0,0,0.0,0,140,140,140,,,,,,,,,,,,,324.00078679999933,0.0007867999993322883,5,1.9722352999997383,371.62376510000104,371.62376510000104,371.62376510000104,371.62376510000104,371.62376510000104,371.62376510000104,371.62376510000104,371.62376510000104,371.62376510000104,371.62376510000104,001,P003,2025_Jan_18_1108,ConditionRich,2021.2.3,59.86779992423208,
327.75,328.0,41,0.0,Stimuli/Blank.png,0,0,0.0,0,141,141,141,,,,,,,,,,,,,327.7555188999995,0.00551889999951527,None,,375.3769092000002,375.3769092000002,375.3769092000002,375.3769092000002,375.3769092000002,375.3769092000002,375.3769092000002,375.3769092000002,375.3769092000002,375.3769092000002,001,P003,2025_Jan_18_1108,ConditionRich,2021.2.3,59.86779992423208,
328.0,331.75,20,0.75,Stimuli/P003/sun_bwytihadgigwkyht.jpg,1,1,1.75,0,142,142,142,,,,,,,,,,,,,328.00453989999914,0.004539899999144836,5,1.9692176999997173,375.62726850000035,375.62726850000035,375.62726850000035,375.62726850000035,375.62726850000035,375.62726850000035,376.61111620000156,377.3620393000001,375.62726850000035,375.62726850000035,001,P003,2025_Jan_18_1108,ConditionRich,2021.2.3,59.86779992423208,
331.75,332.0,41,0.0,Stimuli/Blank.png,0,0,0.0,0,143,143,143,,,,,,,,,,,,,331.7590070999995,0.009007099999507773,5,0.21549709999999322,379.38050770000154,379.38050770000154,379.38050770000154,379.38050770000154,379.38050770000154,379.38050770000154,379.38050770000154,379.38050770000154,379.38050770000154,379.38050770000154,001,P003,2025_Jan_18_1108,ConditionRich,2021.2.3,59.86779992423208,
332.0,335.75,9,0.75,Stimuli/P003/sun_auqtrqkaobyprnjy.jpg,1,0,0.75,0,144,144,144,,,,,,,,,,,,,332.0083372000008,0.008337200000823941,5,1.965627499999755,379.6305022000015,379.6305022000015,379.6305022000015,379.6305022000015,379.6305022000015,379.6305022000015,379.6305022000015,380.3646002000005,379.6305022000015,379.6305022000015,001,P003,2025_Jan_18_1108,ConditionRich,2021.2.3,59.86779992423208,
335.75,336.0,41,0.0,Stimuli/Blank.png,0,0,0.0,0,145,145,145,,,,,,,,,,,,,335.7618481999998,0.01184819999980391,5,0.21224090000032447,383.3841110000012,383.3841110000012,383.3841110000012,383.3841110000012,383.3841110000012,383.3841110000012,383.3841110000012,383.3841110000012,383.3841110000012,383.3841110000012,001,P003,2025_Jan_18_1108,ConditionRich,2021.2.3,59.86779992423208,
336.0,339.75,34,0.75,Stimuli/P003/things_roll_02s.jpg,0,0,0.0,0,146,146,146,,,,,,,,,,,,,336.01144399999976,0.01144399999975576,5,1.9621416999998473,383.6341360000006,383.6341360000006,383.6341360000006,383.6341360000006,383.6341360000006,383.6341360000006,383.6341360000006,383.6341360000006,383.6341360000006,383.6341360000006,001,P003,2025_Jan_18_1108,ConditionRich,2021.2.3,59.86779992423208,
339.75,340.0,41,0.0,Stimuli/Blank.png,0,0,0.0,0,147,147,147,,,,,,,,,,,,,339.7667507999995,0.016750799999499577,None,,387.3874265000013,387.3874265000013,387.3874265000013,387.3874265000013,387.3874265000013,387.3874265000013,387.3874265000013,387.3874265000013,387.3874265000013,387.3874265000013,001,P003,2025_Jan_18_1108,ConditionRich,2021.2.3,59.86779992423208,
340.0,343.75,1,0.75,Stimuli/P003/sun_adgmtzznutwlescq.jpg,1,2,2.75,0,148,148,148,,,,,,,,,,,,,339.9979985000009,-0.002001499999096268,1,2.3388740999998845,387.62112250000064,387.62112250000064,387.62112250000064,387.62112250000064,387.62112250000064,387.62112250000064,389.60594200000014,390.3570913000003,387.62112250000064,387.62112250000064,001,P003,2025_Jan_18_1108,ConditionRich,2021.2.3,59.86779992423208,
343.75,344.0,41,0.0,Stimuli/Blank.png,0,0,0.0,0,149,149,149,,,,,,,,,,,,,343.7532422000004,0.0032422000003862195,None,,391.3740690000013,391.3740690000013,391.3740690000013,391.3740690000013,391.3740690000013,391.3740690000013,391.3740690000013,391.3740690000013,391.3740690000013,391.3740690000013,001,P003,2025_Jan_18_1108,ConditionRich,2021.2.3,59.86779992423208,
344.0,347.75,19,0.75,Stimuli/P003/sun_bucebxfexknakpma.jpg,0,0,0.0,0,150,150,150,,,,,,,,,,,,,344.00141149999945,0.0014114999994490063,5,1.971860800000286,391.6245013000007,391.6245013000007,391.6245013000007,391.6245013000007,391.6245013000007,391.6245013000007,391.6245013000007,391.6245013000007,391.6245013000007,391.6245013000007,001,P003,2025_Jan_18_1108,ConditionRich,2021.2.3,59.86779992423208,
347.75,348.0,41,0.0,Stimuli/Blank.png,0,0,0.0,0,151,151,151,,,,,,,,,,,,,347.7581520999993,0.008152099999279017,5,0.21545009999863396,395.3804832000005,395.3804832000005,395.3804832000005,395.3804832000005,395.3804832000005,395.3804832000005,395.3804832000005,395.3804832000005,395.3804832000005,395.3804832000005,001,P003,2025_Jan_18_1108,ConditionRich,2021.2.3,59.86779992423208,
348.0,351.75,39,0.75,Stimuli/P003/things_toad_02s.jpg,0,0,0.0,0,152,152,152,,,,,,,,,,,,,348.00550830000066,0.005508300000656163,5,1.9682200999995985,395.62827110000035,395.62827110000035,395.62827110000035,395.62827110000035,395.62827110000035,395.62827110000035,395.62827110000035,395.62827110000035,395.62827110000035,395.62827110000035,001,P003,2025_Jan_18_1108,ConditionRich,2021.2.3,59.86779992423208,
351.75,352.0,41,0.0,Stimuli/Blank.png,0,0,0.0,0,153,153,153,,,,,,,,,,,,,351.76024940000025,0.010249400000247988,5,0.21470059999955993,399.38149220000014,399.38149220000014,399.38149220000014,399.38149220000014,399.38149220000014,399.38149220000014,399.38149220000014,399.38149220000014,399.38149220000014,399.38149220000014,001,P003,2025_Jan_18_1108,ConditionRich,2021.2.3,59.86779992423208,
352.0,355.75,28,0.75,Stimuli/P003/things_man_02s.jpg,0,0,0.0,0,154,154,154,,,,,,,,,,,,,352.00960549999945,0.00960549999945215,5,1.9646911999989243,399.6316486000014,399.6316486000014,399.6316486000014,399.6316486000014,399.6316486000014,399.6316486000014,399.6316486000014,399.6316486000014,399.6316486000014,399.6316486000014,001,P003,2025_Jan_18_1108,ConditionRich,2021.2.3,59.86779992423208,
355.75,356.0,41,0.0,Stimuli/Blank.png,0,0,0.0,0,155,155,155,,,,,,,,,,,,,355.76309460000084,0.013094600000840728,5,0.21089240000037535,403.38533240000106,403.38533240000106,403.38533240000106,403.38533240000106,403.38533240000106,403.38533240000106,403.38533240000106,403.38533240000106,403.38533240000106,403.38533240000106,001,P003,2025_Jan_18_1108,ConditionRich,2021.2.3,59.86779992423208,
356.0,359.75,30,0.75,Stimuli/P003/things_music_box_02s.jpg,1,3,3.75,0,156,156,156,,,,,,,,,,,,,356.0129725000006,0.012972500000614673,1,3.4394140999993397,403.63547650000146,403.63547650000146,403.63547650000146,403.63547650000146,403.63547650000146,403.63547650000146,406.62163690000125,None,403.63547650000146,403.63547650000146,001,P003,2025_Jan_18_1108,ConditionRich,2021.2.3,59.86779992423208,
359.75,360.0,41,0.0,Stimuli/Blank.png,0,0,0.0,0,157,157,157,,,,,,,,,,,,,359.75148140000056,0.001481400000557187,None,,407.37285280000106,407.37285280000106,407.37285280000106,407.37285280000106,407.37285280000106,407.37285280000106,407.37285280000106,407.37285280000106,407.37285280000106,407.37285280000106,001,P003,2025_Jan_18_1108,ConditionRich,2021.2.3,59.86779992423208,
360.0,363.75,27,0.75,Stimuli/P003/things_llama_02s.jpg,0,0,0.0,0,158,158,158,,,,,,,,,,,,,359.9997179999991,-0.00028200000087963417,5,1.973744999999326,407.62214459999996,407.62214459999996,407.62214459999996,407.62214459999996,407.62214459999996,407.62214459999996,407.62214459999996,407.62214459999996,407.62214459999996,407.62214459999996,001,P003,2025_Jan_18_1108,ConditionRich,2021.2.3,59.86779992423208,
363.75,364.0,41,0.0,Stimuli/Blank.png,0,0,0.0,0,159,159,159,,,,,,,,,,,,,363.7547904000003,0.004790400000274531,None,,411.3753224000011,411.3753224000011,411.3753224000011,411.3753224000011,411.3753224000011,411.3753224000011,411.3753224000011,411.3753224000011,411.3753224000011,411.3753224000011,001,P003,2025_Jan_18_1108,ConditionRich,2021.2.3,59.86779992423208,
364.0,367.75,22,0.75,Stimuli/P003/things_boy_02s.jpg,0,0,0.0,0,160,160,160,,,,,,,,,,,,,364.0026152999999,0.0026152999998885207,5,1.9702018999996653,411.62586960000044,411.62586960000044,411.62586960000044,411.62586960000044,411.62586960000044,411.62586960000044,411.62586960000044,411.62586960000044,411.62586960000044,411.62586960000044,001,P003,2025_Jan_18_1108,ConditionRich,2021.2.3,59.86779992423208,
367.75,368.0,41,0.0,Stimuli/Blank.png,0,0,0.0,0,161,161,161,,,,,,,,,,,,,367.7592282000005,0.009228200000507059,5,0.21477930000037304,415.3810054000005,415.3810054000005,415.3810054000005,415.3810054000005,415.3810054000005,415.3810054000005,415.3810054000005,415.3810054000005,415.3810054000005,415.3810054000005,001,P003,2025_Jan_18_1108,ConditionRich,2021.2.3,59.86779992423208,
368.0,371.75,40,0.75,Stimuli/P003/things_woman_02s.jpg,0,0,0.0,0,162,162,162,,,,,,,,,,,,,368.0080256000001,0.00802560000010999,5,1.966022399999929,415.62988320000113,415.62988320000113,415.62988320000113,415.62988320000113,415.62988320000113,415.62988320000113,415.62988320000113,415.62988320000113,415.62988320000113,415.62988320000113,001,P003,2025_Jan_18_1108,ConditionRich,2021.2.3,59.86779992423208,
371.75,372.0,41,0.0,Stimuli/Blank.png,0,0,0.0,0,163,163,163,,,,,,,,,,,,,371.76134830000046,0.011348300000463496,5,0.21279130000039004,419.38342400000147,419.38342400000147,419.38342400000147,419.38342400000147,419.38342400000147,419.38342400000147,419.38342400000147,419.38342400000147,419.38342400000147,419.38342400000147,001,P003,2025_Jan_18_1108,ConditionRich,2021.2.3,59.86779992423208,
372.0,388.0,0,0.0,Stimuli/Blank.png,1,11,11.75,0,164,164,164,,,,,,,,,,,,,372.01048810000066,0.010488100000657141,5,13.963033100000757,419.6328160000012,419.6328160000012,419.6328160000012,419.6328160000012,419.6328160000012,419.6328160000012,430.60934180000004,431.35988929999985,419.6328160000012,419.6328160000012,001,P003,2025_Jan_18_1108,ConditionRich,2021.2.3,59.86779992423208,
