eventStartTime,eventEndTime,eventCond,imSize,imFile,responseEvent,fixRespStart,fixRespEnd,Events.thisRepN,Events.thisTrialN,Events.thisN,Events.thisIndex,Instructions.started,Instructions.stopped,participantReadyResponse.keys,participantReadyResponse.rt,participantReadyResponse.started,participantReadyResponse.stopped,startWaitforTrigger,triggerResponse.keys,triggerResponse.rt,triggerResponse.started,triggerResponse.stopped,globalTimer,actualStartTime,startTimingDiff,participantResponse.keys,participantResponse.rt,participantResponse.started,participantResponse.stopped,image.started,image.stopped,fixationOutside.started,fixationOutside.stopped,fixationResponse.started,fixationResponse.stopped,fixationInside.started,fixationInside.stopped,session,participant,date,expName,psychopyVersion,frameRate,
,,,,,,,,,,,,12.375300300000163,None,1,0.5710791999990761,12.375300300000163,None,,,,,,,,,,,,,,,,,,,,,002,P003,2025_Jan_18_1117,ConditionRich,2021.2.3,59.94826464732425,
,,,,,,,,,,,,,,,,,,12.952807100000427,5,15.712440799999968,12.965960300000006,None,,,,,,,,,,,,,,,,002,P003,2025_Jan_18_1117,ConditionRich,2021.2.3,59.94826464732425,
0.0,4.0,0,0.0,Stimuli/Blank.png,0,0.0,0.0,0,0,0,0,,,,,,,,,,,,28.683712199999718,0.03496429999904649,0.03496429999904649,5,1.9484877000013512,28.729853099999673,None,28.729853099999673,None,28.729853099999673,None,28.729853099999673,28.729853099999673,28.729853099999673,None,002,P003,2025_Jan_18_1117,ConditionRich,2021.2.3,59.94826464732425,
4.0,4.75,14,0.75,Stimuli/P003/sun_bhhtrmwvoadbfucw.jpg,0,0.0,0.0,0,1,1,1,,,,,,,,,,,,,4.006416899999749,0.006416899999749148,None,,32.716850599999816,32.716850599999816,32.716850599999816,32.716850599999816,32.716850599999816,32.716850599999816,32.716850599999816,32.716850599999816,32.716850599999816,32.716850599999816,002,P003,2025_Jan_18_1117,ConditionRich,2021.2.3,59.94826464732425,
4.75,8.0,41,0.0,Stimuli/Blank.png,0,0.0,0.0,0,2,2,2,,,,,,,,,,,,,4.770743699999002,0.020743699999002274,5,1.210271300000386,33.467972700000246,33.467972700000246,33.467972700000246,33.467972700000246,33.467972700000246,33.467972700000246,33.467972700000246,33.467972700000246,33.467972700000246,33.467972700000246,002,P003,2025_Jan_18_1117,ConditionRich,2021.2.3,59.94826464732425,
8.0,8.75,7,0.75,Stimuli/P003/sun_asgixjtedklbawgm.jpg,0,0.0,0.0,0,3,3,3,,,,,,,,,,,,,8.006369099999574,0.006369099999574246,None,,36.72036189999926,36.72036189999926,36.72036189999926,36.72036189999926,36.72036189999926,36.72036189999926,36.72036189999926,36.72036189999926,36.72036189999926,36.72036189999926,002,P003,2025_Jan_18_1117,ConditionRich,2021.2.3,59.94826464732425,
8.75,12.0,41,0.0,Stimuli/Blank.png,1,2.25,3.0,0,4,4,4,,,,,,,,,,,,,8.773674500000197,0.02367450000019744,1,2.754494099999647,37.47103160000006,37.47103160000006,37.47103160000006,37.47103160000006,37.47103160000006,37.47103160000006,39.706379400000515,40.45703069999945,37.47103160000006,37.47103160000006,002,P003,2025_Jan_18_1117,ConditionRich,2021.2.3,59.94826464732425,
12.0,12.75,20,0.75,Stimuli/P003/sun_bwytihadgigwkyht.jpg,0,0.0,0.0,0,5,5,5,,,,,,,,,,,,,12.009526399999231,0.009526399999231216,None,,40.707532500000525,40.707532500000525,40.707532500000525,40.707532500000525,40.707532500000525,40.707532500000525,40.707532500000525,40.707532500000525,40.707532500000525,40.707532500000525,002,P003,2025_Jan_18_1117,ConditionRich,2021.2.3,59.94826464732425,
12.75,16.0,41,0.0,Stimuli/Blank.png,1,2.25,3.0,0,6,6,6,,,,,,,,,,,,,12.759669600000052,0.009669600000052014,5,3.220308900001328,41.457982699999775,41.457982699999775,41.457982699999775,41.457982699999775,41.457982699999775,41.457982699999775,43.69334870000057,44.44399759999942,41.457982699999775,41.457982699999775,002,P003,2025_Jan_18_1117,ConditionRich,2021.2.3,59.94826464732425,
16.0,16.75,39,0.75,Stimuli/P003/things_toad_02s.jpg,0,0.0,0.0,0,7,7,7,,,,,,,,,,,,,16.014692599999762,0.014692599999762024,None,,44.72753679999914,44.72753679999914,44.72753679999914,44.72753679999914,44.72753679999914,44.72753679999914,44.72753679999914,44.72753679999914,44.72753679999914,44.72753679999914,002,P003,2025_Jan_18_1117,ConditionRich,2021.2.3,59.94826464732425,
16.75,20.0,41,0.0,Stimuli/Blank.png,1,2.25,3.0,0,8,8,8,,,,,,,,,,,,,16.78049970000029,0.03049970000029134,1,2.624345900001572,45.47819320000053,45.47819320000053,45.47819320000053,45.47819320000053,45.47819320000053,45.47819320000053,47.71353669999917,48.46421689999988,45.47819320000053,45.47819320000053,002,P003,2025_Jan_18_1117,ConditionRich,2021.2.3,59.94826464732425,
20.0,20.75,36,0.75,Stimuli/P003/things_sea_urchin_02s.jpg,0,0.0,0.0,0,9,9,9,,,,,,,,,,,,,20.000067599999966,6.759999996575061e-05,None,,48.697705900000074,48.697705900000074,48.697705900000074,48.697705900000074,48.697705900000074,48.697705900000074,48.697705900000074,48.697705900000074,48.697705900000074,48.697705900000074,002,P003,2025_Jan_18_1117,ConditionRich,2021.2.3,59.94826464732425,
20.75,24.0,41,0.0,Stimuli/Blank.png,0,0.0,0.0,0,10,10,10,,,,,,,,,,,,,20.75096779999876,0.0009677999987616204,5,1.2299093000001449,49.44836849999956,49.44836849999956,49.44836849999956,49.44836849999956,49.44836849999956,49.44836849999956,49.44836849999956,49.44836849999956,49.44836849999956,49.44836849999956,002,P003,2025_Jan_18_1117,ConditionRich,2021.2.3,59.94826464732425,
24.0,24.75,21,0.75,Stimuli/P003/things_baby_02s.jpg,0,0.0,0.0,0,11,11,11,,,,,,,,,,,,,24.003871899998558,0.0038718999985576374,None,,52.71795999999995,52.71795999999995,52.71795999999995,52.71795999999995,52.71795999999995,52.71795999999995,52.71795999999995,52.71795999999995,52.71795999999995,52.71795999999995,002,P003,2025_Jan_18_1117,ConditionRich,2021.2.3,59.94826464732425,
24.75,28.0,41,0.0,Stimuli/Blank.png,0,0.0,0.0,0,12,12,12,,,,,,,,,,,,,24.771211199999016,0.021211199999015662,5,1.2096062999989954,53.468647800000326,53.468647800000326,53.468647800000326,53.468647800000326,53.468647800000326,53.468647800000326,53.468647800000326,53.468647800000326,53.468647800000326,53.468647800000326,002,P003,2025_Jan_18_1117,ConditionRich,2021.2.3,59.94826464732425,
28.0,28.75,8,0.75,Stimuli/P003/sun_asxkyzleyfgbqfrs.jpg,0,0.0,0.0,0,13,13,13,,,,,,,,,,,,,28.006628199998886,0.006628199998885975,None,,56.72143789999973,56.72143789999973,56.72143789999973,56.72143789999973,56.72143789999973,56.72143789999973,56.72143789999973,56.72143789999973,56.72143789999973,56.72143789999973,002,P003,2025_Jan_18_1117,ConditionRich,2021.2.3,59.94826464732425,
28.75,32.0,41,0.0,Stimuli/Blank.png,0,0.0,0.0,0,14,14,14,,,,,,,,,,,,,28.77446869999949,0.024468699999488308,5,1.2063904000006005,57.47211400000015,57.47211400000015,57.47211400000015,57.47211400000015,57.47211400000015,57.47211400000015,57.47211400000015,57.47211400000015,57.47211400000015,57.47211400000015,002,P003,2025_Jan_18_1117,ConditionRich,2021.2.3,59.94826464732425,
32.0,32.75,1,0.75,Stimuli/P003/sun_adgmtzznutwlescq.jpg,0,0.0,0.0,0,15,15,15,,,,,,,,,,,,,32.0105468999991,0.010546899999098969,None,,60.708282800000234,60.708282800000234,60.708282800000234,60.708282800000234,60.708282800000234,60.708282800000234,60.708282800000234,60.708282800000234,60.708282800000234,60.708282800000234,002,P003,2025_Jan_18_1117,ConditionRich,2021.2.3,59.94826464732425,
32.75,36.0,41,0.0,Stimuli/Blank.png,0,0.0,0.0,0,16,16,16,,,,,,,,,,,,,32.760489499998585,0.010489499998584506,5,3.2197131000011723,61.45894520000002,61.45894520000002,61.45894520000002,61.45894520000002,61.45894520000002,61.45894520000002,61.45894520000002,61.45894520000002,61.45894520000002,61.45894520000002,002,P003,2025_Jan_18_1117,ConditionRich,2021.2.3,59.94826464732425,
36.0,36.75,6,0.75,Stimuli/P003/sun_aoumkoxfhlaobjef.jpg,0,0.0,0.0,0,17,17,17,,,,,,,,,,,,,36.0149435000003,0.014943500000299537,None,,64.72852439999951,64.72852439999951,64.72852439999951,64.72852439999951,64.72852439999951,64.72852439999951,64.72852439999951,64.72852439999951,64.72852439999951,64.72852439999951,002,P003,2025_Jan_18_1117,ConditionRich,2021.2.3,59.94826464732425,
36.75,40.0,41,0.0,Stimuli/Blank.png,0,0.0,0.0,0,18,18,18,,,,,,,,,,,,,36.781286599998566,0.03128659999856609,5,1.1991959000006318,65.4791595000006,65.4791595000006,65.4791595000006,65.4791595000006,65.4791595000006,65.4791595000006,65.4791595000006,65.4791595000006,65.4791595000006,65.4791595000006,002,P003,2025_Jan_18_1117,ConditionRich,2021.2.3,59.94826464732425,
40.0,40.75,30,0.75,Stimuli/P003/things_music_box_02s.jpg,0,0.0,0.0,0,19,19,19,,,,,,,,,,,,,40.00103219999983,0.0010321999998268439,None,,68.69861700000001,68.69861700000001,68.69861700000001,68.69861700000001,68.69861700000001,68.69861700000001,68.69861700000001,68.69861700000001,68.69861700000001,68.69861700000001,002,P003,2025_Jan_18_1117,ConditionRich,2021.2.3,59.94826464732425,
40.75,44.0,41,0.0,Stimuli/Blank.png,0,0.0,0.0,0,20,20,20,,,,,,,,,,,,,40.75181309999971,0.0018130999997083563,5,1.2288021999993362,69.4493223999998,69.4493223999998,69.4493223999998,69.4493223999998,69.4493223999998,69.4493223999998,69.4493223999998,69.4493223999998,69.4493223999998,69.4493223999998,002,P003,2025_Jan_18_1117,ConditionRich,2021.2.3,59.94826464732425,
44.0,44.75,29,0.75,Stimuli/P003/things_mat_02s.jpg,0,0.0,0.0,0,21,21,21,,,,,,,,,,,,,44.00408569999854,0.004085699998540804,None,,72.70214540000052,72.70214540000052,72.70214540000052,72.70214540000052,72.70214540000052,72.70214540000052,72.70214540000052,72.70214540000052,72.70214540000052,72.70214540000052,002,P003,2025_Jan_18_1117,ConditionRich,2021.2.3,59.94826464732425,
44.75,48.0,41,0.0,Stimuli/Blank.png,0,0.0,0.0,0,22,22,22,,,,,,,,,,,,,44.75461179999911,0.004611799999111099,5,1.2253053000004002,73.4528451999995,73.4528451999995,73.4528451999995,73.4528451999995,73.4528451999995,73.4528451999995,73.4528451999995,73.4528451999995,73.4528451999995,73.4528451999995,002,P003,2025_Jan_18_1117,ConditionRich,2021.2.3,59.94826464732425,
48.0,48.75,28,0.75,Stimuli/P003/things_man_02s.jpg,0,0.0,0.0,0,23,23,23,,,,,,,,,,,,,48.00967569999921,0.0096756999992067,None,,76.72239319999971,76.72239319999971,76.72239319999971,76.72239319999971,76.72239319999971,76.72239319999971,76.72239319999971,76.72239319999971,76.72239319999971,76.72239319999971,002,P003,2025_Jan_18_1117,ConditionRich,2021.2.3,59.94826464732425,
48.75,52.0,41,0.0,Stimuli/Blank.png,0,0.0,0.0,0,24,24,24,,,,,,,,,,,,,48.77540969999973,0.02540969999972731,5,1.20520580000084,77.4730555999995,77.4730555999995,77.4730555999995,77.4730555999995,77.4730555999995,77.4730555999995,77.4730555999995,77.4730555999995,77.4730555999995,77.4730555999995,002,P003,2025_Jan_18_1117,ConditionRich,2021.2.3,59.94826464732425,
52.0,52.75,23,0.75,Stimuli/P003/things_butterfly_02s.jpg,0,0.0,0.0,0,25,25,25,,,,,,,,,,,,,52.011163099999976,0.011163099999976112,None,,80.72592710000026,80.72592710000026,80.72592710000026,80.72592710000026,80.72592710000026,80.72592710000026,80.72592710000026,80.72592710000026,80.72592710000026,80.72592710000026,002,P003,2025_Jan_18_1117,ConditionRich,2021.2.3,59.94826464732425,
52.75,56.0,41,0.0,Stimuli/Blank.png,0,0.0,0.0,0,26,26,26,,,,,,,,,,,,,52.77958359999866,0.029583599998659338,5,1.2014870999992127,81.47658839999895,81.47658839999895,81.47658839999895,81.47658839999895,81.47658839999895,81.47658839999895,81.47658839999895,81.47658839999895,81.47658839999895,81.47658839999895,002,P003,2025_Jan_18_1117,ConditionRich,2021.2.3,59.94826464732425,
56.0,56.75,5,0.75,Stimuli/P003/sun_amnnxdwfjbdfumns.jpg,0,0.0,0.0,0,27,27,27,,,,,,,,,,,,,55.99863539999933,-0.0013646000006701797,None,,84.69608510000035,84.69608510000035,84.69608510000035,84.69608510000035,84.69608510000035,84.69608510000035,84.69608510000035,84.69608510000035,84.69608510000035,84.69608510000035,002,P003,2025_Jan_18_1117,ConditionRich,2021.2.3,59.94826464732425,
56.75,60.0,41,0.0,Stimuli/Blank.png,0,0.0,0.0,0,28,28,28,,,,,,,,,,,,,56.7485058000002,-0.0014941999997972744,5,1.2313274000007368,85.44674959999975,85.44674959999975,85.44674959999975,85.44674959999975,85.44674959999975,85.44674959999975,85.44674959999975,85.44674959999975,85.44674959999975,85.44674959999975,002,P003,2025_Jan_18_1117,ConditionRich,2021.2.3,59.94826464732425,
60.0,60.75,3,0.75,Stimuli/P003/sun_afqjzrocqhabifao.jpg,0,0.0,0.0,0,29,29,29,,,,,,,,,,,,,60.00428329999886,0.004283299998860457,None,,88.7162988,88.7162988,88.7162988,88.7162988,88.7162988,88.7162988,88.7162988,88.7162988,88.7162988,88.7162988,002,P003,2025_Jan_18_1117,ConditionRich,2021.2.3,59.94826464732425,
60.75,64.0,41,0.0,Stimuli/Blank.png,0,0.0,0.0,0,30,30,30,,,,,,,,,,,,,60.76863839999896,0.018638399998962996,5,1.2111989000004542,89.46695910000017,89.46695910000017,89.46695910000017,89.46695910000017,89.46695910000017,89.46695910000017,89.46695910000017,89.46695910000017,89.46695910000017,89.46695910000017,002,P003,2025_Jan_18_1117,ConditionRich,2021.2.3,59.94826464732425,
64.0,64.75,35,0.75,Stimuli/P003/things_satellite_dish_02s.jpg,1,0.0,0.75,0,31,31,31,,,,,,,,,,,,,64.0053343999989,0.005334399998901063,1,0.4522361999988789,92.70314419999886,92.70314419999886,92.70314419999886,92.70314419999886,92.70314419999886,92.70314419999886,92.70314419999886,93.43708049999987,92.70314419999886,92.70314419999886,002,P003,2025_Jan_18_1117,ConditionRich,2021.2.3,59.94826464732425,
64.75,68.0,41,0.0,Stimuli/Blank.png,0,0.0,0.0,0,32,32,32,,,,,,,,,,,,,64.75558599999931,0.005585999999311753,5,1.2245721999988746,93.45381839999936,93.45381839999936,93.45381839999936,93.45381839999936,93.45381839999936,93.45381839999936,93.45381839999936,93.45381839999936,93.45381839999936,93.45381839999936,002,P003,2025_Jan_18_1117,ConditionRich,2021.2.3,59.94826464732425,
68.0,68.75,16,0.75,Stimuli/P003/sun_bjuoemgleyaogrmw.jpg,1,0.0,0.75,0,33,33,33,,,,,,,,,,,,,68.00963009999941,0.009630099999412778,None,,96.72335930000008,96.72335930000008,96.72335930000008,96.72335930000008,96.72335930000008,96.72335930000008,96.72335930000008,97.44066129999919,96.72335930000008,96.72335930000008,002,P003,2025_Jan_18_1117,ConditionRich,2021.2.3,59.94826464732425,
68.75,72.0,41,0.0,Stimuli/Blank.png,0,0.0,0.0,0,34,34,34,,,,,,,,,,,,,68.77611569999863,0.02611569999862695,5,3.204205699999875,97.47400109999944,97.47400109999944,97.47400109999944,97.47400109999944,97.47400109999944,97.47400109999944,97.47400109999944,97.47400109999944,97.47400109999944,97.47400109999944,002,P003,2025_Jan_18_1117,ConditionRich,2021.2.3,59.94826464732425,
72.0,72.75,13,0.75,Stimuli/P003/sun_bhbiqbqmwrowrqpd.jpg,0,0.0,0.0,0,35,35,35,,,,,,,,,,,,,72.01459019999857,0.014590199998565367,None,,100.72687500000029,100.72687500000029,100.72687500000029,100.72687500000029,100.72687500000029,100.72687500000029,100.72687500000029,100.72687500000029,100.72687500000029,100.72687500000029,002,P003,2025_Jan_18_1117,ConditionRich,2021.2.3,59.94826464732425,
72.75,76.0,41,0.0,Stimuli/Blank.png,0,0.0,0.0,0,36,36,36,,,,,,,,,,,,,72.77967249999892,0.02967249999892374,5,1.200655500000721,101.47753499999999,101.47753499999999,101.47753499999999,101.47753499999999,101.47753499999999,101.47753499999999,101.47753499999999,101.47753499999999,101.47753499999999,101.47753499999999,002,P003,2025_Jan_18_1117,ConditionRich,2021.2.3,59.94826464732425,
76.0,76.75,27,0.75,Stimuli/P003/things_llama_02s.jpg,0,0.0,0.0,0,37,37,37,,,,,,,,,,,,,75.99916969999867,-0.0008303000013256678,None,,104.69702899999902,104.69702899999902,104.69702899999902,104.69702899999902,104.69702899999902,104.69702899999902,104.69702899999902,104.69702899999902,104.69702899999902,104.69702899999902,002,P003,2025_Jan_18_1117,ConditionRich,2021.2.3,59.94826464732425,
76.75,80.0,41,0.0,Stimuli/Blank.png,0,0.0,0.0,0,38,38,38,,,,,,,,,,,,,76.75013429999854,0.0001342999985354254,5,1.2303745000008348,105.44769629999973,105.44769629999973,105.44769629999973,105.44769629999973,105.44769629999973,105.44769629999973,105.44769629999973,105.44769629999973,105.44769629999973,105.44769629999973,002,P003,2025_Jan_18_1117,ConditionRich,2021.2.3,59.94826464732425,
80.0,80.75,10,0.75,Stimuli/P003/sun_azzneunxibjvypza.jpg,0,0.0,0.0,0,39,39,39,,,,,,,,,,,,,80.00449049999952,0.00449049999951967,None,,108.71723939999902,108.71723939999902,108.71723939999902,108.71723939999902,108.71723939999902,108.71723939999902,108.71723939999902,108.71723939999902,108.71723939999902,108.71723939999902,002,P003,2025_Jan_18_1117,ConditionRich,2021.2.3,59.94826464732425,
80.75,84.0,41,0.0,Stimuli/Blank.png,0,0.0,0.0,0,40,40,40,,,,,,,,,,,,,80.77031669999997,0.02031669999996666,5,1.2100834999982908,109.46790519999922,109.46790519999922,109.46790519999922,109.46790519999922,109.46790519999922,109.46790519999922,109.46790519999922,109.46790519999922,109.46790519999922,109.46790519999922,002,P003,2025_Jan_18_1117,ConditionRich,2021.2.3,59.94826464732425,
84.0,100.0,0,0.0,Stimuli/Blank.png,1,11.0,11.75,0,41,41,41,,,,,,,,,,,,,84.00629349999872,0.006293499998719199,5,13.973991000000751,112.70411389999936,112.70411389999936,112.70411389999936,112.70411389999936,112.70411389999936,112.70411389999936,123.6804544000006,124.43107830000008,112.70411389999936,112.70411389999936,002,P003,2025_Jan_18_1117,ConditionRich,2021.2.3,59.94826464732425,
100.0,100.75,18,0.75,Stimuli/P003/sun_bplhnzkztpigweny.jpg,0,0.0,0.0,0,42,42,42,,,,,,,,,,,,,100.00430719999895,0.004307199998947908,None,,128.70147969999925,128.70147969999925,128.70147969999925,128.70147969999925,128.70147969999925,128.70147969999925,128.70147969999925,128.70147969999925,128.70147969999925,128.70147969999925,002,P003,2025_Jan_18_1117,ConditionRich,2021.2.3,59.94826464732425,
100.75,104.0,41,0.0,Stimuli/Blank.png,0,0.0,0.0,0,43,43,43,,,,,,,,,,,,,100.75513809999939,0.005138099999385304,5,1.225739399998929,129.4521793999993,129.4521793999993,129.4521793999993,129.4521793999993,129.4521793999993,129.4521793999993,129.4521793999993,129.4521793999993,129.4521793999993,129.4521793999993,002,P003,2025_Jan_18_1117,ConditionRich,2021.2.3,59.94826464732425,
104.0,104.75,24,0.75,Stimuli/P003/things_dumpling_02s.jpg,0,0.0,0.0,0,44,44,44,,,,,,,,,,,,,104.00749989999895,0.007499899998947512,None,,132.72170989999904,132.72170989999904,132.72170989999904,132.72170989999904,132.72170989999904,132.72170989999904,132.72170989999904,132.72170989999904,132.72170989999904,132.72170989999904,002,P003,2025_Jan_18_1117,ConditionRich,2021.2.3,59.94826464732425,
104.75,108.0,41,0.0,Stimuli/Blank.png,0,0.0,0.0,0,45,45,45,,,,,,,,,,,,,104.77534790000027,0.025347900000269874,5,3.1888027000004513,133.48907820000022,133.48907820000022,133.48907820000022,133.48907820000022,133.48907820000022,133.48907820000022,133.48907820000022,133.48907820000022,133.48907820000022,133.48907820000022,002,P003,2025_Jan_18_1117,ConditionRich,2021.2.3,59.94826464732425,
108.0,108.75,9,0.75,Stimuli/P003/sun_auqtrqkaobyprnjy.jpg,0,0.0,0.0,0,46,46,46,,,,,,,,,,,,,108.02743719999853,0.02743719999853056,None,,136.72525080000014,136.72525080000014,136.72525080000014,136.72525080000014,136.72525080000014,136.72525080000014,136.72525080000014,136.72525080000014,136.72525080000014,136.72525080000014,002,P003,2025_Jan_18_1117,ConditionRich,2021.2.3,59.94826464732425,
108.75,112.0,41,0.0,Stimuli/Blank.png,0,0.0,0.0,0,47,47,47,,,,,,,,,,,,,108.76141069999903,0.011410699999032659,5,3.2187885000003007,137.45922109999992,137.45922109999992,137.45922109999992,137.45922109999992,137.45922109999992,137.45922109999992,137.45922109999992,137.45922109999992,137.45922109999992,137.45922109999992,002,P003,2025_Jan_18_1117,ConditionRich,2021.2.3,59.94826464732425,
112.0,112.75,2,0.75,Stimuli/P003/sun_afijjzyziczoqdhz.jpg,0,0.0,0.0,0,48,48,48,,,,,,,,,,,,,112.01470049999989,0.014700499999889871,None,,140.71208780000052,140.71208780000052,140.71208780000052,140.71208780000052,140.71208780000052,140.71208780000052,140.71208780000052,140.71208780000052,140.71208780000052,140.71208780000052,002,P003,2025_Jan_18_1117,ConditionRich,2021.2.3,59.94826464732425,
112.75,116.0,41,0.0,Stimuli/Blank.png,0,0.0,0.0,0,49,49,49,,,,,,,,,,,,,112.76497500000005,0.014975000000049477,5,1.2153709000012896,141.46274540000013,141.46274540000013,141.46274540000013,141.46274540000013,141.46274540000013,141.46274540000013,141.46274540000013,141.46274540000013,141.46274540000013,141.46274540000013,002,P003,2025_Jan_18_1117,ConditionRich,2021.2.3,59.94826464732425,
116.0,116.75,37,0.75,Stimuli/P003/things_ski_lift_02s.jpg,0,0.0,0.0,0,50,50,50,,,,,,,,,,,,,116.00130290000016,0.001302900000155205,None,,144.69893769999908,144.69893769999908,144.69893769999908,144.69893769999908,144.69893769999908,144.69893769999908,144.69893769999908,144.69893769999908,144.69893769999908,144.69893769999908,002,P003,2025_Jan_18_1117,ConditionRich,2021.2.3,59.94826464732425,
116.75,120.0,41,0.0,Stimuli/Blank.png,0,0.0,0.0,0,51,51,51,,,,,,,,,,,,,116.75372419999985,0.0037241999998514075,5,3.211623999999574,145.46628500000043,145.46628500000043,145.46628500000043,145.46628500000043,145.46628500000043,145.46628500000043,145.46628500000043,145.46628500000043,145.46628500000043,145.46628500000043,002,P003,2025_Jan_18_1117,ConditionRich,2021.2.3,59.94826464732425,
120.0,120.75,19,0.75,Stimuli/P003/sun_bucebxfexknakpma.jpg,1,0.0,0.75,0,52,52,52,,,,,,,,,,,,,120.02109369999926,0.021093699999255477,1,0.4890825999991648,148.71913929999937,148.71913929999937,148.71913929999937,148.71913929999937,148.71913929999937,148.71913929999937,148.71913929999937,None,148.71913929999937,148.71913929999937,002,P003,2025_Jan_18_1117,ConditionRich,2021.2.3,59.94826464732425,
120.75,124.0,41,0.0,Stimuli/Blank.png,0,0.0,0.0,0,53,53,53,,,,,,,,,,,,,120.75558939999974,0.005589399999735178,5,1.2240607000003365,149.4537879999989,149.4537879999989,149.4537879999989,149.4537879999989,149.4537879999989,149.4537879999989,149.4537879999989,149.4537879999989,149.4537879999989,149.4537879999989,002,P003,2025_Jan_18_1117,ConditionRich,2021.2.3,59.94826464732425,
124.0,124.75,12,0.75,Stimuli/P003/sun_bcboctumoxwpdefl.jpg,0,0.0,0.0,0,54,54,54,,,,,,,,,,,,,124.00835589999951,0.008355899999514804,None,,152.70598119999886,152.70598119999886,152.70598119999886,152.70598119999886,152.70598119999886,152.70598119999886,152.70598119999886,152.70598119999886,152.70598119999886,152.70598119999886,002,P003,2025_Jan_18_1117,ConditionRich,2021.2.3,59.94826464732425,
124.75,128.0,41,0.0,Stimuli/Blank.png,0,0.0,0.0,0,55,55,55,,,,,,,,,,,,,124.75827409999874,0.008274099998743623,5,1.221399100000781,153.45664039999974,153.45664039999974,153.45664039999974,153.45664039999974,153.45664039999974,153.45664039999974,153.45664039999974,153.45664039999974,153.45664039999974,153.45664039999974,002,P003,2025_Jan_18_1117,ConditionRich,2021.2.3,59.94826464732425,
128.0,128.75,22,0.75,Stimuli/P003/things_boy_02s.jpg,0,0.0,0.0,0,56,56,56,,,,,,,,,,,,,128.01132419999885,0.011324199998853146,None,,156.7095205000005,156.7095205000005,156.7095205000005,156.7095205000005,156.7095205000005,156.7095205000005,156.7095205000005,156.7095205000005,156.7095205000005,156.7095205000005,002,P003,2025_Jan_18_1117,ConditionRich,2021.2.3,59.94826464732425,
128.75,132.0,41,0.0,Stimuli/Blank.png,0,0.0,0.0,0,57,57,57,,,,,,,,,,,,,128.7622801999987,0.012280199998713215,5,3.217807500001072,157.46016500000042,157.46016500000042,157.46016500000042,157.46016500000042,157.46016500000042,157.46016500000042,157.46016500000042,157.46016500000042,157.46016500000042,157.46016500000042,002,P003,2025_Jan_18_1117,ConditionRich,2021.2.3,59.94826464732425,
132.0,132.75,4,0.75,Stimuli/P003/sun_albtqdieqkajejrg.jpg,0,0.0,0.0,0,58,58,58,,,,,,,,,,,,,132.01484079999864,0.014840799998637522,None,,160.71303239999907,160.71303239999907,160.71303239999907,160.71303239999907,160.71303239999907,160.71303239999907,160.71303239999907,160.71303239999907,160.71303239999907,160.71303239999907,002,P003,2025_Jan_18_1117,ConditionRich,2021.2.3,59.94826464732425,
132.75,136.0,41,0.0,Stimuli/Blank.png,1,2.25,3.0,0,59,59,59,,,,,,,,,,,,,132.7658565999991,0.015856599999096943,1,2.6611672999988514,161.46369640000012,161.46369640000012,161.46369640000012,161.46369640000012,161.46369640000012,161.46369640000012,163.6990408999991,164.44965869999942,161.46369640000012,161.46369640000012,002,P003,2025_Jan_18_1117,ConditionRich,2021.2.3,59.94826464732425,
136.0,136.75,40,0.75,Stimuli/P003/things_woman_02s.jpg,0,0.0,0.0,0,60,60,60,,,,,,,,,,,,,136.0040485999998,0.004048599999805447,None,,164.71656090000033,164.71656090000033,164.71656090000033,164.71656090000033,164.71656090000033,164.71656090000033,164.71656090000033,164.71656090000033,164.71656090000033,164.71656090000033,002,P003,2025_Jan_18_1117,ConditionRich,2021.2.3,59.94826464732425,
136.75,140.0,41,0.0,Stimuli/Blank.png,0,0.0,0.0,0,61,61,61,,,,,,,,,,,,,136.7703819999988,0.02038199999878998,5,3.1939337000003434,165.4839226999993,165.4839226999993,165.4839226999993,165.4839226999993,165.4839226999993,165.4839226999993,165.4839226999993,165.4839226999993,165.4839226999993,165.4839226999993,002,P003,2025_Jan_18_1117,ConditionRich,2021.2.3,59.94826464732425,
140.0,140.75,15,0.75,Stimuli/P003/sun_bjhtdevvocmwtavk.jpg,0,0.0,0.0,0,62,62,62,,,,,,,,,,,,,140.02232139999978,0.022321399999782443,None,,168.7200847999993,168.7200847999993,168.7200847999993,168.7200847999993,168.7200847999993,168.7200847999993,168.7200847999993,168.7200847999993,168.7200847999993,168.7200847999993,002,P003,2025_Jan_18_1117,ConditionRich,2021.2.3,59.94826464732425,
140.75,144.0,41,0.0,Stimuli/Blank.png,0,0.0,0.0,0,63,63,63,,,,,,,,,,,,,140.7562710000002,0.006271000000197091,5,1.2239571999998589,169.4541535999997,169.4541535999997,169.4541535999997,169.4541535999997,169.4541535999997,169.4541535999997,169.4541535999997,169.4541535999997,169.4541535999997,169.4541535999997,002,P003,2025_Jan_18_1117,ConditionRich,2021.2.3,59.94826464732425,
144.0,144.75,34,0.75,Stimuli/P003/things_roll_02s.jpg,0,0.0,0.0,0,64,64,64,,,,,,,,,,,,,144.00866049999968,0.008660499999677995,None,,172.70693690000007,172.70693690000007,172.70693690000007,172.70693690000007,172.70693690000007,172.70693690000007,172.70693690000007,172.70693690000007,172.70693690000007,172.70693690000007,002,P003,2025_Jan_18_1117,ConditionRich,2021.2.3,59.94826464732425,
144.75,148.0,41,0.0,Stimuli/Blank.png,0,0.0,0.0,0,65,65,65,,,,,,,,,,,,,144.7593410999998,0.009341099999801372,5,3.2201928999984375,173.45758939999905,173.45758939999905,173.45758939999905,173.45758939999905,173.45758939999905,173.45758939999905,173.45758939999905,173.45758939999905,173.45758939999905,173.45758939999905,002,P003,2025_Jan_18_1117,ConditionRich,2021.2.3,59.94826464732425,
148.0,148.75,11,0.75,Stimuli/P003/sun_bawmjlzsuuivqjhi.jpg,0,0.0,0.0,0,66,66,66,,,,,,,,,,,,,148.0121124999987,0.012112499998693238,None,,176.71045070000037,176.71045070000037,176.71045070000037,176.71045070000037,176.71045070000037,176.71045070000037,176.71045070000037,176.71045070000037,176.71045070000037,176.71045070000037,002,P003,2025_Jan_18_1117,ConditionRich,2021.2.3,59.94826464732425,
148.75,152.0,41,0.0,Stimuli/Blank.png,0,0.0,0.0,0,67,67,67,,,,,,,,,,,,,148.76344419999987,0.013444199999867124,5,1.2167233999989548,177.46112209999956,177.46112209999956,177.46112209999956,177.46112209999956,177.46112209999956,177.46112209999956,177.46112209999956,177.46112209999956,177.46112209999956,177.46112209999956,002,P003,2025_Jan_18_1117,ConditionRich,2021.2.3,59.94826464732425,
152.0,152.75,25,0.75,Stimuli/P003/things_girl_02s.jpg,0,0.0,0.0,0,68,68,68,,,,,,,,,,,,,151.9991431999988,-0.0008568000012019183,None,,180.69732579999982,180.69732579999982,180.69732579999982,180.69732579999982,180.69732579999982,180.69732579999982,180.69732579999982,180.69732579999982,180.69732579999982,180.69732579999982,002,P003,2025_Jan_18_1117,ConditionRich,2021.2.3,59.94826464732425,
152.75,156.0,41,0.0,Stimuli/Blank.png,0,0.0,0.0,0,69,69,69,,,,,,,,,,,,,152.75009320000026,9.32000002649147e-05,5,1.2300398999996105,181.4479568000006,181.4479568000006,181.4479568000006,181.4479568000006,181.4479568000006,181.4479568000006,181.4479568000006,181.4479568000006,181.4479568000006,181.4479568000006,002,P003,2025_Jan_18_1117,ConditionRich,2021.2.3,59.94826464732425,
156.0,156.75,17,0.75,Stimuli/P003/sun_bojovhhraxtgafcy.jpg,0,0.0,0.0,0,70,70,70,,,,,,,,,,,,,156.00328639999861,0.0032863999986147974,None,,184.7008365999991,184.7008365999991,184.7008365999991,184.7008365999991,184.7008365999991,184.7008365999991,184.7008365999991,184.7008365999991,184.7008365999991,184.7008365999991,002,P003,2025_Jan_18_1117,ConditionRich,2021.2.3,59.94826464732425,
156.75,160.0,41,0.0,Stimuli/Blank.png,0,0.0,0.0,0,71,71,71,,,,,,,,,,,,,156.75440829999934,0.00440829999934067,5,1.226361299999553,185.45149300000048,185.45149300000048,185.45149300000048,185.45149300000048,185.45149300000048,185.45149300000048,185.45149300000048,185.45149300000048,185.45149300000048,185.45149300000048,002,P003,2025_Jan_18_1117,ConditionRich,2021.2.3,59.94826464732425,
160.0,160.75,32,0.75,Stimuli/P003/things_pulley_02s.jpg,0,0.0,0.0,0,72,72,72,,,,,,,,,,,,,160.00622289999956,0.00622289999955683,None,,188.7043408999998,188.7043408999998,188.7043408999998,188.7043408999998,188.7043408999998,188.7043408999998,188.7043408999998,188.7043408999998,188.7043408999998,188.7043408999998,002,P003,2025_Jan_18_1117,ConditionRich,2021.2.3,59.94826464732425,
160.75,164.0,41,0.0,Stimuli/Blank.png,0,0.0,0.0,0,73,73,73,,,,,,,,,,,,,160.75875279999855,0.008752799998546834,5,3.206040099999882,189.4717127999993,189.4717127999993,189.4717127999993,189.4717127999993,189.4717127999993,189.4717127999993,189.4717127999993,189.4717127999993,189.4717127999993,189.4717127999993,002,P003,2025_Jan_18_1117,ConditionRich,2021.2.3,59.94826464732425,
164.0,164.75,38,0.75,Stimuli/P003/things_slug_02s.jpg,0,0.0,0.0,0,74,74,74,,,,,,,,,,,,,164.02920629999971,0.029206299999714247,None,,192.74123750000035,192.74123750000035,192.74123750000035,192.74123750000035,192.74123750000035,192.74123750000035,192.74123750000035,192.74123750000035,192.74123750000035,192.74123750000035,002,P003,2025_Jan_18_1117,ConditionRich,2021.2.3,59.94826464732425,
164.75,168.0,41,0.0,Stimuli/Blank.png,0,0.0,0.0,0,75,75,75,,,,,,,,,,,,,164.77896689999943,0.028966899999431917,5,3.186769199999617,193.49187679999886,193.49187679999886,193.49187679999886,193.49187679999886,193.49187679999886,193.49187679999886,193.49187679999886,193.49187679999886,193.49187679999886,193.49187679999886,002,P003,2025_Jan_18_1117,ConditionRich,2021.2.3,59.94826464732425,
168.0,168.75,26,0.75,Stimuli/P003/things_ham_02s.jpg,0,0.0,0.0,0,76,76,76,,,,,,,,,,,,,168.03025179999895,0.030251799998950446,None,,196.72808330000043,196.72808330000043,196.72808330000043,196.72808330000043,196.72808330000043,196.72808330000043,196.72808330000043,196.72808330000043,196.72808330000043,196.72808330000043,002,P003,2025_Jan_18_1117,ConditionRich,2021.2.3,59.94826464732425,
168.75,172.0,41,0.0,Stimuli/Blank.png,0,0.0,0.0,0,77,77,77,,,,,,,,,,,,,168.7641808999997,0.014180899999701069,5,1.2165819999991072,197.4620689000003,197.4620689000003,197.4620689000003,197.4620689000003,197.4620689000003,197.4620689000003,197.4620689000003,197.4620689000003,197.4620689000003,197.4620689000003,002,P003,2025_Jan_18_1117,ConditionRich,2021.2.3,59.94826464732425,
172.0,172.75,33,0.75,Stimuli/P003/things_recorder_02s.jpg,1,0.0,0.75,0,78,78,78,,,,,,,,,,,,,172.00021639999977,0.00021639999977196567,1,0.5125470000002679,200.69824700000026,200.69824700000026,200.69824700000026,200.69824700000026,200.69824700000026,200.69824700000026,200.69824700000026,201.43221489999996,200.69824700000026,200.69824700000026,002,P003,2025_Jan_18_1117,ConditionRich,2021.2.3,59.94826464732425,
172.75,176.0,41,0.0,Stimuli/Blank.png,0,0.0,0.0,0,79,79,79,,,,,,,,,,,,,172.75117089999912,0.0011708999991242308,5,1.2299813000008726,201.44890329999907,201.44890329999907,201.44890329999907,201.44890329999907,201.44890329999907,201.44890329999907,201.44890329999907,201.44890329999907,201.44890329999907,201.44890329999907,002,P003,2025_Jan_18_1117,ConditionRich,2021.2.3,59.94826464732425,
176.0,176.75,31,0.75,Stimuli/P003/things_pea_02s.jpg,0,0.0,0.0,0,80,80,80,,,,,,,,,,,,,176.00424099999873,0.004240999998728512,None,,204.71846150000056,204.71846150000056,204.71846150000056,204.71846150000056,204.71846150000056,204.71846150000056,204.71846150000056,204.71846150000056,204.71846150000056,204.71846150000056,002,P003,2025_Jan_18_1117,ConditionRich,2021.2.3,59.94826464732425,
176.75,180.0,41,0.0,Stimuli/Blank.png,1,2.25,3.0,0,81,81,81,,,,,,,,,,,,,176.77193979999902,0.02193979999901785,1,2.6416141999998217,205.46912379999958,205.46912379999958,205.46912379999958,205.46912379999958,205.46912379999958,205.46912379999958,207.7044640999993,208.455106899999,205.46912379999958,205.46912379999958,002,P003,2025_Jan_18_1117,ConditionRich,2021.2.3,59.94826464732425,
180.0,196.0,0,0.0,Stimuli/Blank.png,1,13.0,13.75,0,82,82,82,,,,,,,,,,,,,180.00730659999863,0.007306599998628371,5,13.973382000000129,208.7052918999998,208.7052918999998,208.7052918999998,208.7052918999998,208.7052918999998,208.7052918999998,221.68342719999964,222.4341186999991,208.7052918999998,208.7052918999998,002,P003,2025_Jan_18_1117,ConditionRich,2021.2.3,59.94826464732425,
196.0,196.75,8,0.75,Stimuli/P003/sun_asxkyzleyfgbqfrs.jpg,0,0.0,0.0,0,83,83,83,,,,,,,,,,,,,196.004767299999,0.0047672999990027165,None,,224.7026967999991,224.7026967999991,224.7026967999991,224.7026967999991,224.7026967999991,224.7026967999991,224.7026967999991,224.7026967999991,224.7026967999991,224.7026967999991,002,P003,2025_Jan_18_1117,ConditionRich,2021.2.3,59.94826464732425,
196.75,200.0,41,0.0,Stimuli/Blank.png,0,0.0,0.0,0,84,84,84,,,,,,,,,,,,,196.75568029999886,0.005680299998857663,5,1.225217999999586,225.45337499999914,225.45337499999914,225.45337499999914,225.45337499999914,225.45337499999914,225.45337499999914,225.45337499999914,225.45337499999914,225.45337499999914,225.45337499999914,002,P003,2025_Jan_18_1117,ConditionRich,2021.2.3,59.94826464732425,
200.0,200.75,31,0.75,Stimuli/P003/things_pea_02s.jpg,0,0.0,0.0,0,85,85,85,,,,,,,,,,,,,200.00939479999943,0.00939479999942705,None,,228.72292190000007,228.72292190000007,228.72292190000007,228.72292190000007,228.72292190000007,228.72292190000007,228.72292190000007,228.72292190000007,228.72292190000007,228.72292190000007,002,P003,2025_Jan_18_1117,ConditionRich,2021.2.3,59.94826464732425,
200.75,204.0,41,0.0,Stimuli/Blank.png,1,1.25,2.0,0,86,86,86,,,,,,,,,,,,,200.77576799999952,0.025767999999516178,1,1.682075500000792,229.4736525999997,229.4736525999997,229.4736525999997,229.4736525999997,229.4736525999997,229.4736525999997,230.70804529999987,231.45865400000002,229.4736525999997,229.4736525999997,002,P003,2025_Jan_18_1117,ConditionRich,2021.2.3,59.94826464732425,
204.0,204.75,20,0.75,Stimuli/P003/sun_bwytihadgigwkyht.jpg,0,0.0,0.0,0,87,87,87,,,,,,,,,,,,,204.0137450000002,0.01374500000019907,None,,232.7264457000001,232.7264457000001,232.7264457000001,232.7264457000001,232.7264457000001,232.7264457000001,232.7264457000001,232.7264457000001,232.7264457000001,232.7264457000001,002,P003,2025_Jan_18_1117,ConditionRich,2021.2.3,59.94826464732425,
204.75,208.0,41,0.0,Stimuli/Blank.png,1,0.25,1.0,0,88,88,88,,,,,,,,,,,,,204.77965669999867,0.029656699998668046,5,1.2015658999989682,233.47710910000023,233.47710910000023,233.47710910000023,233.47710910000023,233.47710910000023,233.47710910000023,233.7106074000003,234.4613102000003,233.47710910000023,233.47710910000023,002,P003,2025_Jan_18_1117,ConditionRich,2021.2.3,59.94826464732425,
208.0,208.75,1,0.75,Stimuli/P003/sun_adgmtzznutwlescq.jpg,0,0.0,0.0,0,89,89,89,,,,,,,,,,,,,207.99945800000023,-0.0005419999997684499,None,,236.713287999999,236.713287999999,236.713287999999,236.713287999999,236.713287999999,236.713287999999,236.713287999999,236.713287999999,236.713287999999,236.713287999999,002,P003,2025_Jan_18_1117,ConditionRich,2021.2.3,59.94826464732425,
208.75,212.0,41,0.0,Stimuli/Blank.png,0,0.0,0.0,0,90,90,90,,,,,,,,,,,,,208.76595159999852,0.01595159999851603,5,1.2146389999998064,237.46395250000023,237.46395250000023,237.46395250000023,237.46395250000023,237.46395250000023,237.46395250000023,237.46395250000023,237.46395250000023,237.46395250000023,237.46395250000023,002,P003,2025_Jan_18_1117,ConditionRich,2021.2.3,59.94826464732425,
212.0,212.75,38,0.75,Stimuli/P003/things_slug_02s.jpg,0,0.0,0.0,0,91,91,91,,,,,,,,,,,,,212.00212610000017,0.0021261000001686625,None,,240.7001223999996,240.7001223999996,240.7001223999996,240.7001223999996,240.7001223999996,240.7001223999996,240.7001223999996,240.7001223999996,240.7001223999996,240.7001223999996,002,P003,2025_Jan_18_1117,ConditionRich,2021.2.3,59.94826464732425,
212.75,216.0,41,0.0,Stimuli/Blank.png,0,0.0,0.0,0,92,92,92,,,,,,,,,,,,,212.75395939999908,0.003959399999075686,5,3.2110092000002624,241.46750109999994,241.46750109999994,241.46750109999994,241.46750109999994,241.46750109999994,241.46750109999994,241.46750109999994,241.46750109999994,241.46750109999994,241.46750109999994,002,P003,2025_Jan_18_1117,ConditionRich,2021.2.3,59.94826464732425,
216.0,216.75,16,0.75,Stimuli/P003/sun_bjuoemgleyaogrmw.jpg,1,0.0,0.75,0,93,93,93,,,,,,,,,,,,,216.02215479999904,0.022154799999043462,3,0.6833155000003899,244.7203386000001,244.7203386000001,244.7203386000001,244.7203386000001,244.7203386000001,244.7203386000001,244.7203386000001,None,244.7203386000001,244.7203386000001,002,P003,2025_Jan_18_1117,ConditionRich,2021.2.3,59.94826464732425,
216.75,220.0,41,0.0,Stimuli/Blank.png,0,0.0,0.0,0,94,94,94,,,,,,,,,,,,,216.75616319999972,0.006163199999718927,5,1.2245198000000528,245.45431479999934,245.45431479999934,245.45431479999934,245.45431479999934,245.45431479999934,245.45431479999934,245.45431479999934,245.45431479999934,245.45431479999934,245.45431479999934,002,P003,2025_Jan_18_1117,ConditionRich,2021.2.3,59.94826464732425,
220.0,220.75,28,0.75,Stimuli/P003/things_man_02s.jpg,0,0.0,0.0,0,95,95,95,,,,,,,,,,,,,220.00979409999854,0.00979409999854397,None,,248.7071804999996,248.7071804999996,248.7071804999996,248.7071804999996,248.7071804999996,248.7071804999996,248.7071804999996,248.7071804999996,248.7071804999996,248.7071804999996,002,P003,2025_Jan_18_1117,ConditionRich,2021.2.3,59.94826464732425,
220.75,224.0,41,0.0,Stimuli/Blank.png,0,0.0,0.0,0,96,96,96,,,,,,,,,,,,,220.7596887999989,0.009688799998912145,5,3.220694400000866,249.4578373000004,249.4578373000004,249.4578373000004,249.4578373000004,249.4578373000004,249.4578373000004,249.4578373000004,249.4578373000004,249.4578373000004,249.4578373000004,002,P003,2025_Jan_18_1117,ConditionRich,2021.2.3,59.94826464732425,
224.0,224.75,2,0.75,Stimuli/P003/sun_afijjzyziczoqdhz.jpg,0,0.0,0.0,0,97,97,97,,,,,,,,,,,,,224.01344789999894,0.013447899998936919,None,,252.7274051000004,252.7274051000004,252.7274051000004,252.7274051000004,252.7274051000004,252.7274051000004,252.7274051000004,252.7274051000004,252.7274051000004,252.7274051000004,002,P003,2025_Jan_18_1117,ConditionRich,2021.2.3,59.94826464732425,
224.75,228.0,41,0.0,Stimuli/Blank.png,0,0.0,0.0,0,98,98,98,,,,,,,,,,,,,224.779880099999,0.029880099998990772,5,1.2005959000016446,253.47803779999958,253.47803779999958,253.47803779999958,253.47803779999958,253.47803779999958,253.47803779999958,253.47803779999958,253.47803779999958,253.47803779999958,253.47803779999958,002,P003,2025_Jan_18_1117,ConditionRich,2021.2.3,59.94826464732425,
228.0,228.75,7,0.75,Stimuli/P003/sun_asgixjtedklbawgm.jpg,0,0.0,0.0,0,99,99,99,,,,,,,,,,,,,227.99974180000027,-0.0002581999997346429,None,,256.6975526999995,256.6975526999995,256.6975526999995,256.6975526999995,256.6975526999995,256.6975526999995,256.6975526999995,256.6975526999995,256.6975526999995,256.6975526999995,002,P003,2025_Jan_18_1117,ConditionRich,2021.2.3,59.94826464732425,
228.75,232.0,41,0.0,Stimuli/Blank.png,0,0.0,0.0,0,100,100,100,,,,,,,,,,,,,228.7505559000001,0.0005559000001085224,5,1.2304769000002125,257.4482057999994,257.4482057999994,257.4482057999994,257.4482057999994,257.4482057999994,257.4482057999994,257.4482057999994,257.4482057999994,257.4482057999994,257.4482057999994,002,P003,2025_Jan_18_1117,ConditionRich,2021.2.3,59.94826464732425,
232.0,232.75,4,0.75,Stimuli/P003/sun_albtqdieqkajejrg.jpg,0,0.0,0.0,0,101,101,101,,,,,,,,,,,,,232.00424909999856,0.004249099998560268,None,,260.7177410000004,260.7177410000004,260.7177410000004,260.7177410000004,260.7177410000004,260.7177410000004,260.7177410000004,260.7177410000004,260.7177410000004,260.7177410000004,002,P003,2025_Jan_18_1117,ConditionRich,2021.2.3,59.94826464732425,
232.75,236.0,41,0.0,Stimuli/Blank.png,0,0.0,0.0,0,102,102,102,,,,,,,,,,,,,232.77041949999875,0.020419499998752144,5,1.2101344000002427,261.4684077999991,261.4684077999991,261.4684077999991,261.4684077999991,261.4684077999991,261.4684077999991,261.4684077999991,261.4684077999991,261.4684077999991,261.4684077999991,002,P003,2025_Jan_18_1117,ConditionRich,2021.2.3,59.94826464732425,
236.0,236.75,19,0.75,Stimuli/P003/sun_bucebxfexknakpma.jpg,0,0.0,0.0,0,103,103,103,,,,,,,,,,,,,236.00758779999887,0.007587799998873379,None,,264.72127329999967,264.72127329999967,264.72127329999967,264.72127329999967,264.72127329999967,264.72127329999967,264.72127329999967,264.72127329999967,264.72127329999967,264.72127329999967,002,P003,2025_Jan_18_1117,ConditionRich,2021.2.3,59.94826464732425,
236.75,240.0,41,0.0,Stimuli/Blank.png,0,0.0,0.0,0,104,104,104,,,,,,,,,,,,,236.7739193999987,0.02391939999870374,5,1.206818499998917,265.4719382000003,265.4719382000003,265.4719382000003,265.4719382000003,265.4719382000003,265.4719382000003,265.4719382000003,265.4719382000003,265.4719382000003,265.4719382000003,002,P003,2025_Jan_18_1117,ConditionRich,2021.2.3,59.94826464732425,
240.0,240.75,29,0.75,Stimuli/P003/things_mat_02s.jpg,0,0.0,0.0,0,105,105,105,,,,,,,,,,,,,240.01002019999942,0.010020199999416946,None,,268.70809290000034,268.70809290000034,268.70809290000034,268.70809290000034,268.70809290000034,268.70809290000034,268.70809290000034,268.70809290000034,268.70809290000034,268.70809290000034,002,P003,2025_Jan_18_1117,ConditionRich,2021.2.3,59.94826464732425,
240.75,244.0,41,0.0,Stimuli/Blank.png,0,0.0,0.0,0,106,106,106,,,,,,,,,,,,,240.7609410999994,0.01094109999939974,5,3.219967299999553,269.45877780000046,269.45877780000046,269.45877780000046,269.45877780000046,269.45877780000046,269.45877780000046,269.45877780000046,269.45877780000046,269.45877780000046,269.45877780000046,002,P003,2025_Jan_18_1117,ConditionRich,2021.2.3,59.94826464732425,
244.0,244.75,32,0.75,Stimuli/P003/things_pulley_02s.jpg,0,0.0,0.0,0,107,107,107,,,,,,,,,,,,,244.0143793999996,0.014379399999597808,None,,272.71164110000063,272.71164110000063,272.71164110000063,272.71164110000063,272.71164110000063,272.71164110000063,272.71164110000063,272.71164110000063,272.71164110000063,272.71164110000063,002,P003,2025_Jan_18_1117,ConditionRich,2021.2.3,59.94826464732425,
244.75,248.0,41,0.0,Stimuli/Blank.png,1,2.25,3.0,0,108,108,108,,,,,,,,,,,,,244.76432439999917,0.014324399999168236,3,2.7272942999989027,273.4623004999994,273.4623004999994,273.4623004999994,273.4623004999994,273.4623004999994,273.4623004999994,275.69764699999905,276.44847350000055,273.4623004999994,273.4623004999994,002,P003,2025_Jan_18_1117,ConditionRich,2021.2.3,59.94826464732425,
248.0,248.75,6,0.75,Stimuli/P003/sun_aoumkoxfhlaobjef.jpg,0,0.0,0.0,0,109,109,109,,,,,,,,,,,,,248.00106179999966,0.0010617999996611616,None,,276.7151801,276.7151801,276.7151801,276.7151801,276.7151801,276.7151801,276.7151801,276.7151801,276.7151801,276.7151801,002,P003,2025_Jan_18_1117,ConditionRich,2021.2.3,59.94826464732425,
248.75,252.0,41,0.0,Stimuli/Blank.png,0,0.0,0.0,0,110,110,110,,,,,,,,,,,,,248.76901129999897,0.019011299998965114,5,3.1961317999994208,277.4825385000004,277.4825385000004,277.4825385000004,277.4825385000004,277.4825385000004,277.4825385000004,277.4825385000004,277.4825385000004,277.4825385000004,277.4825385000004,002,P003,2025_Jan_18_1117,ConditionRich,2021.2.3,59.94826464732425,
252.0,252.75,34,0.75,Stimuli/P003/things_roll_02s.jpg,0,0.0,0.0,0,111,111,111,,,,,,,,,,,,,252.02126289999978,0.021262899999783258,None,,280.7353856999998,280.7353856999998,280.7353856999998,280.7353856999998,280.7353856999998,280.7353856999998,280.7353856999998,280.7353856999998,280.7353856999998,280.7353856999998,002,P003,2025_Jan_18_1117,ConditionRich,2021.2.3,59.94826464732425,
252.75,256.0,41,0.0,Stimuli/Blank.png,1,2.25,3.0,0,112,112,112,,,,,,,,,,,,,252.77343349999865,0.023433499998645857,5,3.192391900000075,281.4860353999993,281.4860353999993,281.4860353999993,281.4860353999993,281.4860353999993,281.4860353999993,283.7213319000002,284.4720354000001,281.4860353999993,281.4860353999993,002,P003,2025_Jan_18_1117,ConditionRich,2021.2.3,59.94826464732425,
256.0,256.75,18,0.75,Stimuli/P003/sun_bplhnzkztpigweny.jpg,0,0.0,0.0,0,113,113,113,,,,,,,,,,,,,256.0249238999986,0.024923899998611887,None,,284.72221940000054,284.72221940000054,284.72221940000054,284.72221940000054,284.72221940000054,284.72221940000054,284.72221940000054,284.72221940000054,284.72221940000054,284.72221940000054,002,P003,2025_Jan_18_1117,ConditionRich,2021.2.3,59.94826464732425,
256.75,260.0,41,0.0,Stimuli/Blank.png,0,0.0,0.0,0,114,114,114,,,,,,,,,,,,,256.759460199999,0.00946019999901182,5,1.222148400000151,285.45622080000066,285.45622080000066,285.45622080000066,285.45622080000066,285.45622080000066,285.45622080000066,285.45622080000066,285.45622080000066,285.45622080000066,285.45622080000066,002,P003,2025_Jan_18_1117,ConditionRich,2021.2.3,59.94826464732425,
260.0,260.75,9,0.75,Stimuli/P003/sun_auqtrqkaobyprnjy.jpg,0,0.0,0.0,0,115,115,115,,,,,,,,,,,,,260.0134528999988,0.013452899998810608,None,,288.7257348999992,288.7257348999992,288.7257348999992,288.7257348999992,288.7257348999992,288.7257348999992,288.7257348999992,288.7257348999992,288.7257348999992,288.7257348999992,002,P003,2025_Jan_18_1117,ConditionRich,2021.2.3,59.94826464732425,
260.75,264.0,41,0.0,Stimuli/Blank.png,0,0.0,0.0,0,116,116,116,,,,,,,,,,,,,260.7788406999989,0.02884069999890926,5,3.185400699998354,289.4931121999998,289.4931121999998,289.4931121999998,289.4931121999998,289.4931121999998,289.4931121999998,289.4931121999998,289.4931121999998,289.4931121999998,289.4931121999998,002,P003,2025_Jan_18_1117,ConditionRich,2021.2.3,59.94826464732425,
264.0,264.75,15,0.75,Stimuli/P003/sun_bjhtdevvocmwtavk.jpg,0,0.0,0.0,0,117,117,117,,,,,,,,,,,,,264.03084489999856,0.030844899998555775,None,,292.7292648999992,292.7292648999992,292.7292648999992,292.7292648999992,292.7292648999992,292.7292648999992,292.7292648999992,292.7292648999992,292.7292648999992,292.7292648999992,002,P003,2025_Jan_18_1117,ConditionRich,2021.2.3,59.94826464732425,
264.75,268.0,41,0.0,Stimuli/Blank.png,0,0.0,0.0,0,118,118,118,,,,,,,,,,,,,264.76494359999924,0.014943599999241997,5,1.2151797999995324,293.4632466000003,293.4632466000003,293.4632466000003,293.4632466000003,293.4632466000003,293.4632466000003,293.4632466000003,293.4632466000003,293.4632466000003,293.4632466000003,002,P003,2025_Jan_18_1117,ConditionRich,2021.2.3,59.94826464732425,
268.0,268.75,10,0.75,Stimuli/P003/sun_azzneunxibjvypza.jpg,0,0.0,0.0,0,119,119,119,,,,,,,,,,,,,268.0043674999997,0.004367499999716529,None,,296.71612090000053,296.71612090000053,296.71612090000053,296.71612090000053,296.71612090000053,296.71612090000053,296.71612090000053,296.71612090000053,296.71612090000053,296.71612090000053,002,P003,2025_Jan_18_1117,ConditionRich,2021.2.3,59.94826464732425,
268.75,272.0,41,0.0,Stimuli/Blank.png,0,0.0,0.0,0,120,120,120,,,,,,,,,,,,,268.7685083999986,0.018508399998609093,5,1.2117815000001428,297.4667642000004,297.4667642000004,297.4667642000004,297.4667642000004,297.4667642000004,297.4667642000004,297.4667642000004,297.4667642000004,297.4667642000004,297.4667642000004,002,P003,2025_Jan_18_1117,ConditionRich,2021.2.3,59.94826464732425,
272.0,272.75,35,0.75,Stimuli/P003/things_satellite_dish_02s.jpg,0,0.0,0.0,0,121,121,121,,,,,,,,,,,,,272.00486049999927,0.004860499999267631,None,,300.7029545000005,300.7029545000005,300.7029545000005,300.7029545000005,300.7029545000005,300.7029545000005,300.7029545000005,300.7029545000005,300.7029545000005,300.7029545000005,002,P003,2025_Jan_18_1117,ConditionRich,2021.2.3,59.94826464732425,
272.75,276.0,41,0.0,Stimuli/Blank.png,0,0.0,0.0,0,122,122,122,,,,,,,,,,,,,272.7555584999991,0.005558499999096966,5,1.224702999999863,301.45361819999926,301.45361819999926,301.45361819999926,301.45361819999926,301.45361819999926,301.45361819999926,301.45361819999926,301.45361819999926,301.45361819999926,301.45361819999926,002,P003,2025_Jan_18_1117,ConditionRich,2021.2.3,59.94826464732425,
276.0,292.0,0,0.0,Stimuli/Blank.png,1,13.0,13.75,0,123,123,123,,,,,,,,,,,,,276.0089269,0.008926900000005844,5,13.971869799999695,304.7064933999991,304.7064933999991,304.7064933999991,304.7064933999991,304.7064933999991,304.7064933999991,317.6845873000002,318.4352282999989,304.7064933999991,304.7064933999991,002,P003,2025_Jan_18_1117,ConditionRich,2021.2.3,59.94826464732425,
292.0,292.75,24,0.75,Stimuli/P003/things_dumpling_02s.jpg,0,0.0,0.0,0,124,124,124,,,,,,,,,,,,,292.00830940000014,0.008309400000143796,None,,320.72057889999996,320.72057889999996,320.72057889999996,320.72057889999996,320.72057889999996,320.72057889999996,320.72057889999996,320.72057889999996,320.72057889999996,320.72057889999996,002,P003,2025_Jan_18_1117,ConditionRich,2021.2.3,59.94826464732425,
292.75,296.0,41,0.0,Stimuli/Blank.png,0,0.0,0.0,0,125,125,125,,,,,,,,,,,,,292.77378429999953,0.023784299999533687,5,1.2073243000013463,321.4712500000005,321.4712500000005,321.4712500000005,321.4712500000005,321.4712500000005,321.4712500000005,321.4712500000005,321.4712500000005,321.4712500000005,321.4712500000005,002,P003,2025_Jan_18_1117,ConditionRich,2021.2.3,59.94826464732425,
296.0,296.75,23,0.75,Stimuli/P003/things_butterfly_02s.jpg,0,0.0,0.0,0,126,126,126,,,,,,,,,,,,,296.009395699999,0.009395699999004137,None,,324.70742079999945,324.70742079999945,324.70742079999945,324.70742079999945,324.70742079999945,324.70742079999945,324.70742079999945,324.70742079999945,324.70742079999945,324.70742079999945,002,P003,2025_Jan_18_1117,ConditionRich,2021.2.3,59.94826464732425,
296.75,300.0,41,0.0,Stimuli/Blank.png,0,0.0,0.0,0,127,127,127,,,,,,,,,,,,,296.7605487000001,0.010548700000072131,5,3.2201205999990634,325.45814260000043,325.45814260000043,325.45814260000043,325.45814260000043,325.45814260000043,325.45814260000043,325.45814260000043,325.45814260000043,325.45814260000043,325.45814260000043,002,P003,2025_Jan_18_1117,ConditionRich,2021.2.3,59.94826464732425,
300.0,300.75,21,0.75,Stimuli/P003/things_baby_02s.jpg,0,0.0,0.0,0,128,128,128,,,,,,,,,,,,,300.013063299999,0.013063299998975708,None,,328.71095219999916,328.71095219999916,328.71095219999916,328.71095219999916,328.71095219999916,328.71095219999916,328.71095219999916,328.71095219999916,328.71095219999916,328.71095219999916,002,P003,2025_Jan_18_1117,ConditionRich,2021.2.3,59.94826464732425,
300.75,304.0,41,0.0,Stimuli/Blank.png,0,0.0,0.0,0,129,129,129,,,,,,,,,,,,,300.7645092999992,0.014509299999190262,5,1.2170943999990413,329.4616090999989,329.4616090999989,329.4616090999989,329.4616090999989,329.4616090999989,329.4616090999989,329.4616090999989,329.4616090999989,329.4616090999989,329.4616090999989,002,P003,2025_Jan_18_1117,ConditionRich,2021.2.3,59.94826464732425,
304.0,304.75,33,0.75,Stimuli/P003/things_recorder_02s.jpg,0,0.0,0.0,0,130,130,130,,,,,,,,,,,,,303.9996581999985,-0.0003418000014789868,None,,332.6977786999996,332.6977786999996,332.6977786999996,332.6977786999996,332.6977786999996,332.6977786999996,332.6977786999996,332.6977786999996,332.6977786999996,332.6977786999996,002,P003,2025_Jan_18_1117,ConditionRich,2021.2.3,59.94826464732425,
304.75,308.0,41,0.0,Stimuli/Blank.png,0,0.0,0.0,0,131,131,131,,,,,,,,,,,,,304.750403,0.00040300000000570435,5,1.2301234000005934,333.44843949999995,333.44843949999995,333.44843949999995,333.44843949999995,333.44843949999995,333.44843949999995,333.44843949999995,333.44843949999995,333.44843949999995,333.44843949999995,002,P003,2025_Jan_18_1117,ConditionRich,2021.2.3,59.94826464732425,
308.0,308.75,30,0.75,Stimuli/P003/things_music_box_02s.jpg,0,0.0,0.0,0,132,132,132,,,,,,,,,,,,,308.00407019999875,0.004070199998750468,None,,336.71799680000004,336.71799680000004,336.71799680000004,336.71799680000004,336.71799680000004,336.71799680000004,336.71799680000004,336.71799680000004,336.71799680000004,336.71799680000004,002,P003,2025_Jan_18_1117,ConditionRich,2021.2.3,59.94826464732425,
308.75,312.0,41,0.0,Stimuli/Blank.png,0,0.0,0.0,0,133,133,133,,,,,,,,,,,,,308.77326229999926,0.023262299999259994,5,3.1928014999994048,337.4853557000006,337.4853557000006,337.4853557000006,337.4853557000006,337.4853557000006,337.4853557000006,337.4853557000006,337.4853557000006,337.4853557000006,337.4853557000006,002,P003,2025_Jan_18_1117,ConditionRich,2021.2.3,59.94826464732425,
312.0,312.75,11,0.75,Stimuli/P003/sun_bawmjlzsuuivqjhi.jpg,0,0.0,0.0,0,134,134,134,,,,,,,,,,,,,312.0248456999998,0.02484569999978703,None,,340.73819399999957,340.73819399999957,340.73819399999957,340.73819399999957,340.73819399999957,340.73819399999957,340.73819399999957,340.73819399999957,340.73819399999957,340.73819399999957,002,P003,2025_Jan_18_1117,ConditionRich,2021.2.3,59.94826464732425,
312.75,316.0,41,0.0,Stimuli/Blank.png,0,0.0,0.0,0,135,135,135,,,,,,,,,,,,,312.77424379999866,0.024243799998657778,5,1.2062120999999024,341.47218860000066,341.47218860000066,341.47218860000066,341.47218860000066,341.47218860000066,341.47218860000066,341.47218860000066,341.47218860000066,341.47218860000066,341.47218860000066,002,P003,2025_Jan_18_1117,ConditionRich,2021.2.3,59.94826464732425,
316.0,316.75,12,0.75,Stimuli/P003/sun_bcboctumoxwpdefl.jpg,0,0.0,0.0,0,136,136,136,,,,,,,,,,,,,316.0107415000002,0.010741500000222004,None,,344.72506090000024,344.72506090000024,344.72506090000024,344.72506090000024,344.72506090000024,344.72506090000024,344.72506090000024,344.72506090000024,344.72506090000024,344.72506090000024,002,P003,2025_Jan_18_1117,ConditionRich,2021.2.3,59.94826464732425,
316.75,320.0,41,0.0,Stimuli/Blank.png,0,0.0,0.0,0,137,137,137,,,,,,,,,,,,,316.7776290999991,0.027629099999103346,5,3.202568300001076,345.47570760000053,345.47570760000053,345.47570760000053,345.47570760000053,345.47570760000053,345.47570760000053,345.47570760000053,345.47570760000053,345.47570760000053,345.47570760000053,002,P003,2025_Jan_18_1117,ConditionRich,2021.2.3,59.94826464732425,
320.0,320.75,27,0.75,Stimuli/P003/things_llama_02s.jpg,0,0.0,0.0,0,138,138,138,,,,,,,,,,,,,320.01420399999915,0.014203999999153893,None,,348.71188129999973,348.71188129999973,348.71188129999973,348.71188129999973,348.71188129999973,348.71188129999973,348.71188129999973,348.71188129999973,348.71188129999973,348.71188129999973,002,P003,2025_Jan_18_1117,ConditionRich,2021.2.3,59.94826464732425,
320.75,324.0,41,0.0,Stimuli/Blank.png,0,0.0,0.0,0,139,139,139,,,,,,,,,,,,,320.76501069999904,0.01501069999903848,5,1.215652400000181,349.4625450000003,349.4625450000003,349.4625450000003,349.4625450000003,349.4625450000003,349.4625450000003,349.4625450000003,349.4625450000003,349.4625450000003,349.4625450000003,002,P003,2025_Jan_18_1117,ConditionRich,2021.2.3,59.94826464732425,
324.0,324.75,36,0.75,Stimuli/P003/things_sea_urchin_02s.jpg,0,0.0,0.0,0,140,140,140,,,,,,,,,,,,,324.0015155000001,0.0015155000000959262,None,,352.7153990000006,352.7153990000006,352.7153990000006,352.7153990000006,352.7153990000006,352.7153990000006,352.7153990000006,352.7153990000006,352.7153990000006,352.7153990000006,002,P003,2025_Jan_18_1117,ConditionRich,2021.2.3,59.94826464732425,
324.75,328.0,41,0.0,Stimuli/Blank.png,1,1.25,2.0,0,141,141,141,,,,,,,,,,,,,324.76857930000006,0.01857930000005581,1,1.6660881000007066,353.4660894999997,353.4660894999997,353.4660894999997,353.4660894999997,353.4660894999997,353.4660894999997,354.700491399999,355.4511373999994,353.4660894999997,353.4660894999997,002,P003,2025_Jan_18_1117,ConditionRich,2021.2.3,59.94826464732425,
328.0,328.75,22,0.75,Stimuli/P003/things_boy_02s.jpg,0,0.0,0.0,0,142,142,142,,,,,,,,,,,,,328.0044648999992,0.004464899999220506,None,,356.7189484999999,356.7189484999999,356.7189484999999,356.7189484999999,356.7189484999999,356.7189484999999,356.7189484999999,356.7189484999999,356.7189484999999,356.7189484999999,002,P003,2025_Jan_18_1117,ConditionRich,2021.2.3,59.94826464732425,
328.75,332.0,41,0.0,Stimuli/Blank.png,0,0.0,0.0,0,143,143,143,,,,,,,,,,,,,328.77327329999935,0.02327329999934591,5,3.191826599999331,357.486288099999,357.486288099999,357.486288099999,357.486288099999,357.486288099999,357.486288099999,357.486288099999,357.486288099999,357.486288099999,357.486288099999,002,P003,2025_Jan_18_1117,ConditionRich,2021.2.3,59.94826464732425,
332.0,332.75,14,0.75,Stimuli/P003/sun_bhhtrmwvoadbfucw.jpg,0,0.0,0.0,0,144,144,144,,,,,,,,,,,,,332.0246860999996,0.02468609999959881,None,,360.7224614000006,360.7224614000006,360.7224614000006,360.7224614000006,360.7224614000006,360.7224614000006,360.7224614000006,360.7224614000006,360.7224614000006,360.7224614000006,002,P003,2025_Jan_18_1117,ConditionRich,2021.2.3,59.94826464732425,
332.75,336.0,41,0.0,Stimuli/Blank.png,0,0.0,0.0,0,145,145,145,,,,,,,,,,,,,332.7586978999989,0.008697899998878711,5,1.2218193000007886,361.4564429000002,361.4564429000002,361.4564429000002,361.4564429000002,361.4564429000002,361.4564429000002,361.4564429000002,361.4564429000002,361.4564429000002,361.4564429000002,002,P003,2025_Jan_18_1117,ConditionRich,2021.2.3,59.94826464732425,
336.0,336.75,39,0.75,Stimuli/P003/things_toad_02s.jpg,0,0.0,0.0,0,146,146,146,,,,,,,,,,,,,336.0135634999988,0.01356349999878148,None,,364.72597549999955,364.72597549999955,364.72597549999955,364.72597549999955,364.72597549999955,364.72597549999955,364.72597549999955,364.72597549999955,364.72597549999955,364.72597549999955,002,P003,2025_Jan_18_1117,ConditionRich,2021.2.3,59.94826464732425,
336.75,340.0,41,0.0,Stimuli/Blank.png,0,0.0,0.0,0,147,147,147,,,,,,,,,,,,,336.7789243999996,0.028924399999596062,5,3.2014925999992556,365.47664930000064,365.47664930000064,365.47664930000064,365.47664930000064,365.47664930000064,365.47664930000064,365.47664930000064,365.47664930000064,365.47664930000064,365.47664930000064,002,P003,2025_Jan_18_1117,ConditionRich,2021.2.3,59.94826464732425,
340.0,340.75,26,0.75,Stimuli/P003/things_ham_02s.jpg,0,0.0,0.0,0,148,148,148,,,,,,,,,,,,,340.0147340000003,0.014734000000316883,None,,368.7128174999998,368.7128174999998,368.7128174999998,368.7128174999998,368.7128174999998,368.7128174999998,368.7128174999998,368.7128174999998,368.7128174999998,368.7128174999998,002,P003,2025_Jan_18_1117,ConditionRich,2021.2.3,59.94826464732425,
340.75,344.0,41,0.0,Stimuli/Blank.png,0,0.0,0.0,0,149,149,149,,,,,,,,,,,,,340.7679933999989,0.01799339999888616,5,3.1981110999986413,369.4801747999991,369.4801747999991,369.4801747999991,369.4801747999991,369.4801747999991,369.4801747999991,369.4801747999991,369.4801747999991,369.4801747999991,369.4801747999991,002,P003,2025_Jan_18_1117,ConditionRich,2021.2.3,59.94826464732425,
344.0,344.75,25,0.75,Stimuli/P003/things_girl_02s.jpg,0,0.0,0.0,0,150,150,150,,,,,,,,,,,,,344.0183839000001,0.018383900000117137,None,,372.71634489999997,372.71634489999997,372.71634489999997,372.71634489999997,372.71634489999997,372.71634489999997,372.71634489999997,372.71634489999997,372.71634489999997,372.71634489999997,002,P003,2025_Jan_18_1117,ConditionRich,2021.2.3,59.94826464732425,
344.75,348.0,41,0.0,Stimuli/Blank.png,0,0.0,0.0,0,151,151,151,,,,,,,,,,,,,344.7528035999985,0.002803599998514983,5,1.2277654999998049,373.4503335999998,373.4503335999998,373.4503335999998,373.4503335999998,373.4503335999998,373.4503335999998,373.4503335999998,373.4503335999998,373.4503335999998,373.4503335999998,002,P003,2025_Jan_18_1117,ConditionRich,2021.2.3,59.94826464732425,
348.0,348.75,17,0.75,Stimuli/P003/sun_bojovhhraxtgafcy.jpg,0,0.0,0.0,0,152,152,152,,,,,,,,,,,,,348.0053210999995,0.005321099999491707,None,,376.71986639999886,376.71986639999886,376.71986639999886,376.71986639999886,376.71986639999886,376.71986639999886,376.71986639999886,376.71986639999886,376.71986639999886,376.71986639999886,002,P003,2025_Jan_18_1117,ConditionRich,2021.2.3,59.94826464732425,
348.75,352.0,41,0.0,Stimuli/Blank.png,0,0.0,0.0,0,153,153,153,,,,,,,,,,,,,348.7737116999997,0.023711699999694247,5,1.2078199000006862,377.47054489999937,377.47054489999937,377.47054489999937,377.47054489999937,377.47054489999937,377.47054489999937,377.47054489999937,377.47054489999937,377.47054489999937,377.47054489999937,002,P003,2025_Jan_18_1117,ConditionRich,2021.2.3,59.94826464732425,
352.0,352.75,40,0.75,Stimuli/P003/things_woman_02s.jpg,0,0.0,0.0,0,154,154,154,,,,,,,,,,,,,352.00843579999855,0.008435799998551374,None,,380.7067035,380.7067035,380.7067035,380.7067035,380.7067035,380.7067035,380.7067035,380.7067035,380.7067035,380.7067035,002,P003,2025_Jan_18_1117,ConditionRich,2021.2.3,59.94826464732425,
352.75,356.0,41,0.0,Stimuli/Blank.png,0,0.0,0.0,0,155,155,155,,,,,,,,,,,,,352.7596745999999,0.009674599999925704,5,1.2208008999987214,381.45736639999996,381.45736639999996,381.45736639999996,381.45736639999996,381.45736639999996,381.45736639999996,381.45736639999996,381.45736639999996,381.45736639999996,381.45736639999996,002,P003,2025_Jan_18_1117,ConditionRich,2021.2.3,59.94826464732425,
356.0,356.75,37,0.75,Stimuli/P003/things_ski_lift_02s.jpg,0,0.0,0.0,0,156,156,156,,,,,,,,,,,,,356.0124558999996,0.012455899999622488,None,,384.71023439999954,384.71023439999954,384.71023439999954,384.71023439999954,384.71023439999954,384.71023439999954,384.71023439999954,384.71023439999954,384.71023439999954,384.71023439999954,002,P003,2025_Jan_18_1117,ConditionRich,2021.2.3,59.94826464732425,
356.75,360.0,41,0.0,Stimuli/Blank.png,1,2.25,3.0,0,157,157,157,,,,,,,,,,,,,356.7637273,0.013727300000027753,1,2.662323100001231,385.4609311000004,385.4609311000004,385.4609311000004,385.4609311000004,385.4609311000004,385.4609311000004,387.69621390000066,388.4468885999995,385.4609311000004,385.4609311000004,002,P003,2025_Jan_18_1117,ConditionRich,2021.2.3,59.94826464732425,
360.0,360.75,5,0.75,Stimuli/P003/sun_amnnxdwfjbdfumns.jpg,0,0.0,0.0,0,158,158,158,,,,,,,,,,,,,359.99967899999865,-0.0003210000013496028,None,,388.69707729999936,388.69707729999936,388.69707729999936,388.69707729999936,388.69707729999936,388.69707729999936,388.69707729999936,388.69707729999936,388.69707729999936,388.69707729999936,002,P003,2025_Jan_18_1117,ConditionRich,2021.2.3,59.94826464732425,
360.75,364.0,41,0.0,Stimuli/Blank.png,1,2.25,3.0,0,159,159,159,,,,,,,,,,,,,360.7500749999999,7.499999992433004e-05,1,2.706348600000638,389.4477420000003,389.4477420000003,389.4477420000003,389.4477420000003,389.4477420000003,389.4477420000003,391.68308009999964,392.43378999999914,389.4477420000003,389.4477420000003,002,P003,2025_Jan_18_1117,ConditionRich,2021.2.3,59.94826464732425,
364.0,364.75,3,0.75,Stimuli/P003/sun_afqjzrocqhabifao.jpg,0,0.0,0.0,0,160,160,160,,,,,,,,,,,,,364.0038222000003,0.0038222000002861023,None,,392.71727069999906,392.71727069999906,392.71727069999906,392.71727069999906,392.71727069999906,392.71727069999906,392.71727069999906,392.71727069999906,392.71727069999906,392.71727069999906,002,P003,2025_Jan_18_1117,ConditionRich,2021.2.3,59.94826464732425,
364.75,368.0,41,0.0,Stimuli/Blank.png,1,2.25,3.0,0,161,161,161,,,,,,,,,,,,,364.77021969999987,0.0202196999998705,1,2.597034499998699,393.46804390000034,393.46804390000034,393.46804390000034,393.46804390000034,393.46804390000034,393.46804390000034,395.70328209999934,396.4539480000003,393.46804390000034,393.46804390000034,002,P003,2025_Jan_18_1117,ConditionRich,2021.2.3,59.94826464732425,
368.0,368.75,13,0.75,Stimuli/P003/sun_bhbiqbqmwrowrqpd.jpg,0,0.0,0.0,0,162,162,162,,,,,,,,,,,,,368.0071028000002,0.007102800000211573,None,,396.72079920000033,396.72079920000033,396.72079920000033,396.72079920000033,396.72079920000033,396.72079920000033,396.72079920000033,396.72079920000033,396.72079920000033,396.72079920000033,002,P003,2025_Jan_18_1117,ConditionRich,2021.2.3,59.94826464732425,
368.75,372.0,41,0.0,Stimuli/Blank.png,0,0.0,0.0,0,163,163,163,,,,,,,,,,,,,368.7732312999997,0.023231299999679322,5,1.2068253999987064,397.47146470000007,397.47146470000007,397.47146470000007,397.47146470000007,397.47146470000007,397.47146470000007,397.47146470000007,397.47146470000007,397.47146470000007,397.47146470000007,002,P003,2025_Jan_18_1117,ConditionRich,2021.2.3,59.94826464732425,
372.0,388.0,0,0.0,Stimuli/Blank.png,1,8.0,8.75,0,164,164,164,,,,,,,,,,,,,372.0098079999989,0.009807999998884043,5,13.970677799999976,400.70765519999986,400.70765519999986,400.70765519999986,400.70765519999986,400.70765519999986,400.70765519999986,408.69806059999974,409.4487186999995,400.70765519999986,400.70765519999986,002,P003,2025_Jan_18_1117,ConditionRich,2021.2.3,59.94826464732425,
