eventStartTime,eventEndTime,eventCond,imSize,imFile,responseEvent,fixRespStart,fixRespEnd,Events.thisRepN,Events.thisTrialN,Events.thisN,Events.thisIndex,Instructions.started,Instructions.stopped,participantReadyResponse.keys,participantReadyResponse.rt,participantReadyResponse.started,participantReadyResponse.stopped,startWaitforTrigger,triggerResponse.keys,triggerResponse.rt,triggerResponse.started,triggerResponse.stopped,globalTimer,actualStartTime,startTimingDiff,participantResponse.keys,participantResponse.rt,participantResponse.started,participantResponse.stopped,image.started,image.stopped,fixationOutside.started,fixationOutside.stopped,fixationResponse.started,fixationResponse.stopped,fixationInside.started,fixationInside.stopped,session,participant,date,expName,psychopyVersion,frameRate,
,,,,,,,,,,,,13.188312700000097,None,1,0.503924000000552,13.188312700000097,None,,,,,,,,,,,,,,,,,,,,,003,P003,2025_Jan_18_1124,ConditionRich,2021.2.3,59.931486324881014,
,,,,,,,,,,,,,,,,,,13.701803300000392,5,20.663930699998673,13.715097100001003,None,,,,,,,,,,,,,,,,003,P003,2025_Jan_18_1124,ConditionRich,2021.2.3,59.931486324881014,
0.0,4.0,0,0.0,Stimuli/Blank.png,0,0,0.0,0,0,0,0,,,,,,,,,,,,34.38639150000017,0.056873300000006566,0.056873300000006566,5,3.9124807999996847,34.46666619999996,None,34.46666619999996,None,34.46666619999996,None,34.46666619999996,34.46666619999996,34.46666619999996,None,003,P003,2025_Jan_18_1124,ConditionRich,2021.2.3,59.931486324881014,
4.0,4.75,35,0.75,Stimuli/P003/things_satellite_dish_02s.jpg,0,0,0.0,0,1,1,1,,,,,,,,,,,,,4.023045599999023,0.02304559999902267,None,,38.43706039999961,38.43706039999961,38.43706039999961,38.43706039999961,38.43706039999961,38.43706039999961,38.43706039999961,38.43706039999961,38.43706039999961,38.43706039999961,003,P003,2025_Jan_18_1124,ConditionRich,2021.2.3,59.931486324881014,
4.75,5.0,41,0.0,Stimuli/Blank.png,0,0,0.0,0,2,2,2,,,,,,,,,,,,,4.770642899999075,0.02064289999907487,None,,39.187806800000544,39.187806800000544,39.187806800000544,39.187806800000544,39.187806800000544,39.187806800000544,39.187806800000544,39.187806800000544,39.187806800000544,39.187806800000544,003,P003,2025_Jan_18_1124,ConditionRich,2021.2.3,59.931486324881014,
5.0,5.75,35,0.75,Stimuli/P003/things_satellite_dish_02s.jpg,0,0,0.0,0,3,3,3,,,,,,,,,,,,,5.0209799999993265,0.020979999999326537,None,,39.421020699999644,39.421020699999644,39.421020699999644,39.421020699999644,39.421020699999644,39.421020699999644,39.421020699999644,39.421020699999644,39.421020699999644,39.421020699999644,003,P003,2025_Jan_18_1124,ConditionRich,2021.2.3,59.931486324881014,
5.75,6.0,41,0.0,Stimuli/Blank.png,0,0,0.0,0,4,4,4,,,,,,,,,,,,,5.754705699999249,0.004705699999249191,None,,40.154995700000654,40.154995700000654,40.154995700000654,40.154995700000654,40.154995700000654,40.154995700000654,40.154995700000654,40.154995700000654,40.154995700000654,40.154995700000654,003,P003,2025_Jan_18_1124,ConditionRich,2021.2.3,59.931486324881014,
6.0,6.75,35,0.75,Stimuli/P003/things_satellite_dish_02s.jpg,0,0,0.0,0,5,5,5,,,,,,,,,,,,,6.005648700000165,0.005648700000165263,None,,40.421898800001145,40.421898800001145,40.421898800001145,40.421898800001145,40.421898800001145,40.421898800001145,40.421898800001145,40.421898800001145,40.421898800001145,40.421898800001145,003,P003,2025_Jan_18_1124,ConditionRich,2021.2.3,59.931486324881014,
6.75,7.0,41,0.0,Stimuli/Blank.png,0,0,0.0,0,6,6,6,,,,,,,,,,,,,6.771975999999995,0.02197599999999511,None,,41.17256280000038,41.17256280000038,41.17256280000038,41.17256280000038,41.17256280000038,41.17256280000038,41.17256280000038,41.17256280000038,41.17256280000038,41.17256280000038,003,P003,2025_Jan_18_1124,ConditionRich,2021.2.3,59.931486324881014,
7.0,7.75,35,0.75,Stimuli/P003/things_satellite_dish_02s.jpg,0,0,0.0,0,7,7,7,,,,,,,,,,,,,7.005902900000365,0.0059029000003647525,None,,41.40609670000049,41.40609670000049,41.40609670000049,41.40609670000049,41.40609670000049,41.40609670000049,41.40609670000049,41.40609670000049,41.40609670000049,41.40609670000049,003,P003,2025_Jan_18_1124,ConditionRich,2021.2.3,59.931486324881014,
7.75,8.0,41,0.0,Stimuli/Blank.png,0,0,0.0,0,8,8,8,,,,,,,,,,,,,7.756401799999367,0.006401799999366631,None,,42.15675360000023,42.15675360000023,42.15675360000023,42.15675360000023,42.15675360000023,42.15675360000023,42.15675360000023,42.15675360000023,42.15675360000023,42.15675360000023,003,P003,2025_Jan_18_1124,ConditionRich,2021.2.3,59.931486324881014,
8.0,8.75,17,0.75,Stimuli/P003/sun_bojovhhraxtgafcy.jpg,0,0,0.0,0,9,9,9,,,,,,,,,,,,,8.00670799999898,0.006707999998980085,None,,42.4069829,42.4069829,42.4069829,42.4069829,42.4069829,42.4069829,42.4069829,42.4069829,42.4069829,42.4069829,003,P003,2025_Jan_18_1124,ConditionRich,2021.2.3,59.931486324881014,
8.75,9.0,41,0.0,Stimuli/Blank.png,0,0,0.0,0,10,10,10,,,,,,,,,,,,,8.757495500000005,0.00749550000000454,None,,43.1576428999997,43.1576428999997,43.1576428999997,43.1576428999997,43.1576428999997,43.1576428999997,43.1576428999997,43.1576428999997,43.1576428999997,43.1576428999997,003,P003,2025_Jan_18_1124,ConditionRich,2021.2.3,59.931486324881014,
9.0,9.75,17,0.75,Stimuli/P003/sun_bojovhhraxtgafcy.jpg,0,0,0.0,0,11,11,11,,,,,,,,,,,,,9.006962299999941,0.006962299999941024,None,,43.40785490000053,43.40785490000053,43.40785490000053,43.40785490000053,43.40785490000053,43.40785490000053,43.40785490000053,43.40785490000053,43.40785490000053,43.40785490000053,003,P003,2025_Jan_18_1124,ConditionRich,2021.2.3,59.931486324881014,
9.75,10.0,41,0.0,Stimuli/Blank.png,0,0,0.0,0,12,12,12,,,,,,,,,,,,,9.757792599999448,0.007792599999447702,None,,44.15851830000065,44.15851830000065,44.15851830000065,44.15851830000065,44.15851830000065,44.15851830000065,44.15851830000065,44.15851830000065,44.15851830000065,44.15851830000065,003,P003,2025_Jan_18_1124,ConditionRich,2021.2.3,59.931486324881014,
10.0,10.75,17,0.75,Stimuli/P003/sun_bojovhhraxtgafcy.jpg,0,0,0.0,0,13,13,13,,,,,,,,,,,,,10.008585199999288,0.008585199999288307,None,,44.40876010000102,44.40876010000102,44.40876010000102,44.40876010000102,44.40876010000102,44.40876010000102,44.40876010000102,44.40876010000102,44.40876010000102,44.40876010000102,003,P003,2025_Jan_18_1124,ConditionRich,2021.2.3,59.931486324881014,
10.75,11.0,41,0.0,Stimuli/Blank.png,0,0,0.0,0,14,14,14,,,,,,,,,,,,,10.761016700000255,0.011016700000254787,None,,45.17608310000105,45.17608310000105,45.17608310000105,45.17608310000105,45.17608310000105,45.17608310000105,45.17608310000105,45.17608310000105,45.17608310000105,45.17608310000105,003,P003,2025_Jan_18_1124,ConditionRich,2021.2.3,59.931486324881014,
11.0,11.75,17,0.75,Stimuli/P003/sun_bojovhhraxtgafcy.jpg,0,0,0.0,0,15,15,15,,,,,,,,,,,,,11.02603900000031,0.026039000000309898,None,,45.42631799999981,45.42631799999981,45.42631799999981,45.42631799999981,45.42631799999981,45.42631799999981,45.42631799999981,45.42631799999981,45.42631799999981,45.42631799999981,003,P003,2025_Jan_18_1124,ConditionRich,2021.2.3,59.931486324881014,
11.75,12.0,41,0.0,Stimuli/Blank.png,0,0,0.0,0,16,16,16,,,,,,,,,,,,,11.759671899999375,0.009671899999375455,None,,46.16029979999985,46.16029979999985,46.16029979999985,46.16029979999985,46.16029979999985,46.16029979999985,46.16029979999985,46.16029979999985,46.16029979999985,46.16029979999985,003,P003,2025_Jan_18_1124,ConditionRich,2021.2.3,59.931486324881014,
12.0,12.75,7,0.75,Stimuli/P003/sun_asgixjtedklbawgm.jpg,0,0,0.0,0,17,17,17,,,,,,,,,,,,,12.009850599999481,0.009850599999481346,None,,46.410499999999956,46.410499999999956,46.410499999999956,46.410499999999956,46.410499999999956,46.410499999999956,46.410499999999956,46.410499999999956,46.410499999999956,46.410499999999956,003,P003,2025_Jan_18_1124,ConditionRich,2021.2.3,59.931486324881014,
12.75,13.0,41,0.0,Stimuli/Blank.png,0,0,0.0,0,18,18,18,,,,,,,,,,,,,12.761474299999463,0.011474299999463256,None,,47.17787649999991,47.17787649999991,47.17787649999991,47.17787649999991,47.17787649999991,47.17787649999991,47.17787649999991,47.17787649999991,47.17787649999991,47.17787649999991,003,P003,2025_Jan_18_1124,ConditionRich,2021.2.3,59.931486324881014,
13.0,13.75,7,0.75,Stimuli/P003/sun_asgixjtedklbawgm.jpg,0,0,0.0,0,19,19,19,,,,,,,,,,,,,13.027900900000532,0.027900900000531692,None,,47.44474710000031,47.44474710000031,47.44474710000031,47.44474710000031,47.44474710000031,47.44474710000031,47.44474710000031,47.44474710000031,47.44474710000031,47.44474710000031,003,P003,2025_Jan_18_1124,ConditionRich,2021.2.3,59.931486324881014,
13.75,14.0,41,0.0,Stimuli/Blank.png,0,0,0.0,0,20,20,20,,,,,,,,,,,,,13.780157699999108,0.030157699999108445,5,0.18360039999970468,48.19540990000132,48.19540990000132,48.19540990000132,48.19540990000132,48.19540990000132,48.19540990000132,48.19540990000132,48.19540990000132,48.19540990000132,48.19540990000132,003,P003,2025_Jan_18_1124,ConditionRich,2021.2.3,59.931486324881014,
14.0,14.75,7,0.75,Stimuli/P003/sun_asgixjtedklbawgm.jpg,0,0,0.0,0,21,21,21,,,,,,,,,,,,,14.030605399999331,0.030605399999330984,None,,48.445632200000546,48.445632200000546,48.445632200000546,48.445632200000546,48.445632200000546,48.445632200000546,48.445632200000546,48.445632200000546,48.445632200000546,48.445632200000546,003,P003,2025_Jan_18_1124,ConditionRich,2021.2.3,59.931486324881014,
14.75,15.0,41,0.0,Stimuli/Blank.png,0,0,0.0,0,22,22,22,,,,,,,,,,,,,14.781156799999735,0.031156799999735085,None,,49.196289100000286,49.196289100000286,49.196289100000286,49.196289100000286,49.196289100000286,49.196289100000286,49.196289100000286,49.196289100000286,49.196289100000286,49.196289100000286,003,P003,2025_Jan_18_1124,ConditionRich,2021.2.3,59.931486324881014,
15.0,15.75,7,0.75,Stimuli/P003/sun_asgixjtedklbawgm.jpg,0,0,0.0,0,23,23,23,,,,,,,,,,,,,15.029517200000555,0.02951720000055502,None,,49.42984950000027,49.42984950000027,49.42984950000027,49.42984950000027,49.42984950000027,49.42984950000027,49.42984950000027,49.42984950000027,49.42984950000027,49.42984950000027,003,P003,2025_Jan_18_1124,ConditionRich,2021.2.3,59.931486324881014,
15.75,16.0,41,0.0,Stimuli/Blank.png,0,0,0.0,0,24,24,24,,,,,,,,,,,,,15.765107299999727,0.01510729999972682,5,0.19839590000083263,50.18049220000103,50.18049220000103,50.18049220000103,50.18049220000103,50.18049220000103,50.18049220000103,50.18049220000103,50.18049220000103,50.18049220000103,50.18049220000103,003,P003,2025_Jan_18_1124,ConditionRich,2021.2.3,59.931486324881014,
16.0,16.75,2,0.75,Stimuli/P003/sun_afijjzyziczoqdhz.jpg,0,0,0.0,0,25,25,25,,,,,,,,,,,,,16.03049959999953,0.03049959999952989,None,,50.43070350000016,50.43070350000016,50.43070350000016,50.43070350000016,50.43070350000016,50.43070350000016,50.43070350000016,50.43070350000016,50.43070350000016,50.43070350000016,003,P003,2025_Jan_18_1124,ConditionRich,2021.2.3,59.931486324881014,
16.75,17.0,41,0.0,Stimuli/Blank.png,0,0,0.0,0,26,26,26,,,,,,,,,,,,,16.765056899999763,0.015056899999763118,None,,51.1646937000005,51.1646937000005,51.1646937000005,51.1646937000005,51.1646937000005,51.1646937000005,51.1646937000005,51.1646937000005,51.1646937000005,51.1646937000005,003,P003,2025_Jan_18_1124,ConditionRich,2021.2.3,59.931486324881014,
17.0,17.75,2,0.75,Stimuli/P003/sun_afijjzyziczoqdhz.jpg,0,0,0.0,0,27,27,27,,,,,,,,,,,,,17.0150364000001,0.015036400000099093,None,,51.41491130000031,51.41491130000031,51.41491130000031,51.41491130000031,51.41491130000031,51.41491130000031,51.41491130000031,51.41491130000031,51.41491130000031,51.41491130000031,003,P003,2025_Jan_18_1124,ConditionRich,2021.2.3,59.931486324881014,
17.75,18.0,41,0.0,Stimuli/Blank.png,0,0,0.0,0,28,28,28,,,,,,,,,,,,,17.749410599999464,-0.0005894000005355338,None,,52.14892260000124,52.14892260000124,52.14892260000124,52.14892260000124,52.14892260000124,52.14892260000124,52.14892260000124,52.14892260000124,52.14892260000124,52.14892260000124,003,P003,2025_Jan_18_1124,ConditionRich,2021.2.3,59.931486324881014,
18.0,18.75,2,0.75,Stimuli/P003/sun_afijjzyziczoqdhz.jpg,0,0,0.0,0,29,29,29,,,,,,,,,,,,,18.000243200000114,0.0002432000001135748,None,,52.41579980000097,52.41579980000097,52.41579980000097,52.41579980000097,52.41579980000097,52.41579980000097,52.41579980000097,52.41579980000097,52.41579980000097,52.41579980000097,003,P003,2025_Jan_18_1124,ConditionRich,2021.2.3,59.931486324881014,
18.75,19.0,41,0.0,Stimuli/Blank.png,0,0,0.0,0,30,30,30,,,,,,,,,,,,,18.766306299999997,0.016306299999996554,None,,53.166446400000495,53.166446400000495,53.166446400000495,53.166446400000495,53.166446400000495,53.166446400000495,53.166446400000495,53.166446400000495,53.166446400000495,53.166446400000495,003,P003,2025_Jan_18_1124,ConditionRich,2021.2.3,59.931486324881014,
19.0,19.75,2,0.75,Stimuli/P003/sun_afijjzyziczoqdhz.jpg,0,0,0.0,0,31,31,31,,,,,,,,,,,,,18.999575599998934,-0.00042440000106580555,None,,53.39998170000035,53.39998170000035,53.39998170000035,53.39998170000035,53.39998170000035,53.39998170000035,53.39998170000035,53.39998170000035,53.39998170000035,53.39998170000035,003,P003,2025_Jan_18_1124,ConditionRich,2021.2.3,59.931486324881014,
19.75,20.0,41,0.0,Stimuli/Blank.png,0,0,0.0,0,32,32,32,,,,,,,,,,,,,19.750802499998827,0.0008024999988265336,None,,54.1506528000009,54.1506528000009,54.1506528000009,54.1506528000009,54.1506528000009,54.1506528000009,54.1506528000009,54.1506528000009,54.1506528000009,54.1506528000009,003,P003,2025_Jan_18_1124,ConditionRich,2021.2.3,59.931486324881014,
20.0,20.75,27,0.75,Stimuli/P003/things_llama_02s.jpg,0,0,0.0,0,33,33,33,,,,,,,,,,,,,20.000530199999048,0.0005301999990479089,None,,54.400866199999655,54.400866199999655,54.400866199999655,54.400866199999655,54.400866199999655,54.400866199999655,54.400866199999655,54.400866199999655,54.400866199999655,54.400866199999655,003,P003,2025_Jan_18_1124,ConditionRich,2021.2.3,59.931486324881014,
20.75,21.0,41,0.0,Stimuli/Blank.png,0,0,0.0,0,34,34,34,,,,,,,,,,,,,20.750575599999138,0.0005755999991379213,None,,55.15152970000054,55.15152970000054,55.15152970000054,55.15152970000054,55.15152970000054,55.15152970000054,55.15152970000054,55.15152970000054,55.15152970000054,55.15152970000054,003,P003,2025_Jan_18_1124,ConditionRich,2021.2.3,59.931486324881014,
21.0,21.75,27,0.75,Stimuli/P003/things_llama_02s.jpg,0,0,0.0,0,35,35,35,,,,,,,,,,,,,21.001017200000206,0.0010172000002057757,None,,55.40173270000014,55.40173270000014,55.40173270000014,55.40173270000014,55.40173270000014,55.40173270000014,55.40173270000014,55.40173270000014,55.40173270000014,55.40173270000014,003,P003,2025_Jan_18_1124,ConditionRich,2021.2.3,59.931486324881014,
21.75,22.0,41,0.0,Stimuli/Blank.png,0,0,0.0,0,36,36,36,,,,,,,,,,,,,21.752010099999097,0.0020100999990972923,None,,56.15241109999988,56.15241109999988,56.15241109999988,56.15241109999988,56.15241109999988,56.15241109999988,56.15241109999988,56.15241109999988,56.15241109999988,56.15241109999988,003,P003,2025_Jan_18_1124,ConditionRich,2021.2.3,59.931486324881014,
22.0,22.75,27,0.75,Stimuli/P003/things_llama_02s.jpg,0,0,0.0,0,37,37,37,,,,,,,,,,,,,22.002351400000407,0.0023514000004070112,None,,56.41929590000109,56.41929590000109,56.41929590000109,56.41929590000109,56.41929590000109,56.41929590000109,56.41929590000109,56.41929590000109,56.41929590000109,56.41929590000109,003,P003,2025_Jan_18_1124,ConditionRich,2021.2.3,59.931486324881014,
22.75,23.0,41,0.0,Stimuli/Blank.png,0,0,0.0,0,38,38,38,,,,,,,,,,,,,22.76966309999989,0.0196630999998888,None,,57.169972400000916,57.169972400000916,57.169972400000916,57.169972400000916,57.169972400000916,57.169972400000916,57.169972400000916,57.169972400000916,57.169972400000916,57.169972400000916,003,P003,2025_Jan_18_1124,ConditionRich,2021.2.3,59.931486324881014,
23.0,23.75,27,0.75,Stimuli/P003/things_llama_02s.jpg,0,0,0.0,0,39,39,39,,,,,,,,,,,,,23.003142899999148,0.0031428999991476303,None,,57.4201864000006,57.4201864000006,57.4201864000006,57.4201864000006,57.4201864000006,57.4201864000006,57.4201864000006,57.4201864000006,57.4201864000006,57.4201864000006,003,P003,2025_Jan_18_1124,ConditionRich,2021.2.3,59.931486324881014,
23.75,24.0,41,0.0,Stimuli/Blank.png,0,0,0.0,0,40,40,40,,,,,,,,,,,,,23.770647699999245,0.02064769999924465,None,,58.17085170000064,58.17085170000064,58.17085170000064,58.17085170000064,58.17085170000064,58.17085170000064,58.17085170000064,58.17085170000064,58.17085170000064,58.17085170000064,003,P003,2025_Jan_18_1124,ConditionRich,2021.2.3,59.931486324881014,
24.0,24.75,11,0.75,Stimuli/P003/sun_bawmjlzsuuivqjhi.jpg,0,0,0.0,0,41,41,41,,,,,,,,,,,,,24.00410229999943,0.004102299999431125,None,,58.40439340000012,58.40439340000012,58.40439340000012,58.40439340000012,58.40439340000012,58.40439340000012,58.40439340000012,58.40439340000012,58.40439340000012,58.40439340000012,003,P003,2025_Jan_18_1124,ConditionRich,2021.2.3,59.931486324881014,
24.75,25.0,41,0.0,Stimuli/Blank.png,0,0,0.0,0,42,42,42,,,,,,,,,,,,,24.755612999999357,0.005612999999357271,None,,59.155037900000025,59.155037900000025,59.155037900000025,59.155037900000025,59.155037900000025,59.155037900000025,59.155037900000025,59.155037900000025,59.155037900000025,59.155037900000025,003,P003,2025_Jan_18_1124,ConditionRich,2021.2.3,59.931486324881014,
25.0,25.75,11,0.75,Stimuli/P003/sun_bawmjlzsuuivqjhi.jpg,0,0,0.0,0,43,43,43,,,,,,,,,,,,,25.0049168000005,0.004916800000501098,None,,59.405276200001026,59.405276200001026,59.405276200001026,59.405276200001026,59.405276200001026,59.405276200001026,59.405276200001026,59.405276200001026,59.405276200001026,59.405276200001026,003,P003,2025_Jan_18_1124,ConditionRich,2021.2.3,59.931486324881014,
25.75,26.0,41,0.0,Stimuli/Blank.png,0,0,0.0,0,44,44,44,,,,,,,,,,,,,25.755634799999825,0.005634799999825191,None,,60.15595740000026,60.15595740000026,60.15595740000026,60.15595740000026,60.15595740000026,60.15595740000026,60.15595740000026,60.15595740000026,60.15595740000026,60.15595740000026,003,P003,2025_Jan_18_1124,ConditionRich,2021.2.3,59.931486324881014,
26.0,26.75,11,0.75,Stimuli/P003/sun_bawmjlzsuuivqjhi.jpg,0,0,0.0,0,45,45,45,,,,,,,,,,,,,26.005314,0.005313999999998487,None,,60.40615160000016,60.40615160000016,60.40615160000016,60.40615160000016,60.40615160000016,60.40615160000016,60.40615160000016,60.40615160000016,60.40615160000016,60.40615160000016,003,P003,2025_Jan_18_1124,ConditionRich,2021.2.3,59.931486324881014,
26.75,27.0,41,0.0,Stimuli/Blank.png,0,0,0.0,0,46,46,46,,,,,,,,,,,,,26.756492900000012,0.006492900000012014,None,,61.15681010000117,61.15681010000117,61.15681010000117,61.15681010000117,61.15681010000117,61.15681010000117,61.15681010000117,61.15681010000117,61.15681010000117,61.15681010000117,003,P003,2025_Jan_18_1124,ConditionRich,2021.2.3,59.931486324881014,
27.0,27.75,11,0.75,Stimuli/P003/sun_bawmjlzsuuivqjhi.jpg,0,0,0.0,0,47,47,47,,,,,,,,,,,,,27.007009400000243,0.007009400000242749,None,,61.423730200000136,61.423730200000136,61.423730200000136,61.423730200000136,61.423730200000136,61.423730200000136,61.423730200000136,61.423730200000136,61.423730200000136,61.423730200000136,003,P003,2025_Jan_18_1124,ConditionRich,2021.2.3,59.931486324881014,
27.75,28.0,41,0.0,Stimuli/Blank.png,0,0,0.0,0,48,48,48,,,,,,,,,,,,,27.77424919999976,0.024249199999758275,None,,62.17437510000127,62.17437510000127,62.17437510000127,62.17437510000127,62.17437510000127,62.17437510000127,62.17437510000127,62.17437510000127,62.17437510000127,62.17437510000127,003,P003,2025_Jan_18_1124,ConditionRich,2021.2.3,59.931486324881014,
28.0,28.75,9,0.75,Stimuli/P003/sun_auqtrqkaobyprnjy.jpg,0,0,0.0,0,49,49,49,,,,,,,,,,,,,28.007143999999244,0.007143999999243533,None,,62.42459940000117,62.42459940000117,62.42459940000117,62.42459940000117,62.42459940000117,62.42459940000117,62.42459940000117,62.42459940000117,62.42459940000117,62.42459940000117,003,P003,2025_Jan_18_1124,ConditionRich,2021.2.3,59.931486324881014,
28.75,29.0,41,0.0,Stimuli/Blank.png,0,0,0.0,0,50,50,50,,,,,,,,,,,,,28.775740199998836,0.025740199998836033,None,,63.17526010000074,63.17526010000074,63.17526010000074,63.17526010000074,63.17526010000074,63.17526010000074,63.17526010000074,63.17526010000074,63.17526010000074,63.17526010000074,003,P003,2025_Jan_18_1124,ConditionRich,2021.2.3,59.931486324881014,
29.0,29.75,9,0.75,Stimuli/P003/sun_auqtrqkaobyprnjy.jpg,0,0,0.0,0,51,51,51,,,,,,,,,,,,,29.01051869999901,0.010518699999011005,None,,63.425512400001026,63.425512400001026,63.425512400001026,63.425512400001026,63.425512400001026,63.425512400001026,63.425512400001026,63.425512400001026,63.425512400001026,63.425512400001026,003,P003,2025_Jan_18_1124,ConditionRich,2021.2.3,59.931486324881014,
29.75,30.0,41,0.0,Stimuli/Blank.png,0,0,0.0,0,52,52,52,,,,,,,,,,,,,29.775854499999696,0.02585449999969569,None,,64.17624539999997,64.17624539999997,64.17624539999997,64.17624539999997,64.17624539999997,64.17624539999997,64.17624539999997,64.17624539999997,64.17624539999997,64.17624539999997,003,P003,2025_Jan_18_1124,ConditionRich,2021.2.3,59.931486324881014,
30.0,30.75,9,0.75,Stimuli/P003/sun_auqtrqkaobyprnjy.jpg,0,0,0.0,0,53,53,53,,,,,,,,,,,,,30.008684000000358,0.008684000000357628,None,,64.40967720000117,64.40967720000117,64.40967720000117,64.40967720000117,64.40967720000117,64.40967720000117,64.40967720000117,64.40967720000117,64.40967720000117,64.40967720000117,003,P003,2025_Jan_18_1124,ConditionRich,2021.2.3,59.931486324881014,
30.75,31.0,41,0.0,Stimuli/Blank.png,0,0,0.0,0,54,54,54,,,,,,,,,,,,,30.760001799999372,0.010001799999372452,None,,65.16034349999973,65.16034349999973,65.16034349999973,65.16034349999973,65.16034349999973,65.16034349999973,65.16034349999973,65.16034349999973,65.16034349999973,65.16034349999973,003,P003,2025_Jan_18_1124,ConditionRich,2021.2.3,59.931486324881014,
31.0,31.75,9,0.75,Stimuli/P003/sun_auqtrqkaobyprnjy.jpg,0,0,0.0,0,55,55,55,,,,,,,,,,,,,31.00986709999961,0.009867099999610218,None,,65.41054900000017,65.41054900000017,65.41054900000017,65.41054900000017,65.41054900000017,65.41054900000017,65.41054900000017,65.41054900000017,65.41054900000017,65.41054900000017,003,P003,2025_Jan_18_1124,ConditionRich,2021.2.3,59.931486324881014,
31.75,32.0,41,0.0,Stimuli/Blank.png,0,0,0.0,0,56,56,56,,,,,,,,,,,,,31.761307099999613,0.011307099999612547,5,0.21774999999979627,66.16121589999966,66.16121589999966,66.16121589999966,66.16121589999966,66.16121589999966,66.16121589999966,66.16121589999966,66.16121589999966,66.16121589999966,66.16121589999966,003,P003,2025_Jan_18_1124,ConditionRich,2021.2.3,59.931486324881014,
32.0,32.75,34,0.75,Stimuli/P003/things_roll_02s.jpg,0,0,0.0,0,57,57,57,,,,,,,,,,,,,32.01126209999893,0.011262099998930353,None,,66.41144040000108,66.41144040000108,66.41144040000108,66.41144040000108,66.41144040000108,66.41144040000108,66.41144040000108,66.41144040000108,66.41144040000108,66.41144040000108,003,P003,2025_Jan_18_1124,ConditionRich,2021.2.3,59.931486324881014,
32.75,33.0,41,0.0,Stimuli/Blank.png,0,0,0.0,0,58,58,58,,,,,,,,,,,,,32.76135020000038,0.011350200000379118,None,,67.16210239999964,67.16210239999964,67.16210239999964,67.16210239999964,67.16210239999964,67.16210239999964,67.16210239999964,67.16210239999964,67.16210239999964,67.16210239999964,003,P003,2025_Jan_18_1124,ConditionRich,2021.2.3,59.931486324881014,
33.0,33.75,34,0.75,Stimuli/P003/things_roll_02s.jpg,0,0,0.0,0,59,59,59,,,,,,,,,,,,,33.0115437000004,0.011543700000402168,None,,67.41231789999983,67.41231789999983,67.41231789999983,67.41231789999983,67.41231789999983,67.41231789999983,67.41231789999983,67.41231789999983,67.41231789999983,67.41231789999983,003,P003,2025_Jan_18_1124,ConditionRich,2021.2.3,59.931486324881014,
33.75,34.0,41,0.0,Stimuli/Blank.png,0,0,0.0,0,60,60,60,,,,,,,,,,,,,33.76261979999981,0.012619799999811221,5,0.21594850000110455,68.16296950000105,68.16296950000105,68.16296950000105,68.16296950000105,68.16296950000105,68.16296950000105,68.16296950000105,68.16296950000105,68.16296950000105,68.16296950000105,003,P003,2025_Jan_18_1124,ConditionRich,2021.2.3,59.931486324881014,
34.0,34.75,34,0.75,Stimuli/P003/things_roll_02s.jpg,0,0,0.0,0,61,61,61,,,,,,,,,,,,,34.013347899999644,0.013347899999644142,None,,68.41320570000062,68.41320570000062,68.41320570000062,68.41320570000062,68.41320570000062,68.41320570000062,68.41320570000062,68.41320570000062,68.41320570000062,68.41320570000062,003,P003,2025_Jan_18_1124,ConditionRich,2021.2.3,59.931486324881014,
34.75,35.0,41,0.0,Stimuli/Blank.png,0,0,0.0,0,62,62,62,,,,,,,,,,,,,34.76440189999994,0.014401899999938905,None,,69.1638679000007,69.1638679000007,69.1638679000007,69.1638679000007,69.1638679000007,69.1638679000007,69.1638679000007,69.1638679000007,69.1638679000007,69.1638679000007,003,P003,2025_Jan_18_1124,ConditionRich,2021.2.3,59.931486324881014,
35.0,35.75,34,0.75,Stimuli/P003/things_roll_02s.jpg,0,0,0.0,0,63,63,63,,,,,,,,,,,,,35.01521700000012,0.015217000000120606,None,,69.43076930000097,69.43076930000097,69.43076930000097,69.43076930000097,69.43076930000097,69.43076930000097,69.43076930000097,69.43076930000097,69.43076930000097,69.43076930000097,003,P003,2025_Jan_18_1124,ConditionRich,2021.2.3,59.931486324881014,
35.75,36.0,41,0.0,Stimuli/Blank.png,0,0,0.0,0,64,64,64,,,,,,,,,,,,,35.764739700000064,0.014739700000063749,5,0.21422080000047572,70.16474740000012,70.16474740000012,70.16474740000012,70.16474740000012,70.16474740000012,70.16474740000012,70.16474740000012,70.16474740000012,70.16474740000012,70.16474740000012,003,P003,2025_Jan_18_1124,ConditionRich,2021.2.3,59.931486324881014,
36.0,36.75,32,0.75,Stimuli/P003/things_pulley_02s.jpg,0,0,0.0,0,65,65,65,,,,,,,,,,,,,36.01402059999964,0.014020599999639671,None,,70.41496329999973,70.41496329999973,70.41496329999973,70.41496329999973,70.41496329999973,70.41496329999973,70.41496329999973,70.41496329999973,70.41496329999973,70.41496329999973,003,P003,2025_Jan_18_1124,ConditionRich,2021.2.3,59.931486324881014,
36.75,37.0,41,0.0,Stimuli/Blank.png,0,0,0.0,0,66,66,66,,,,,,,,,,,,,36.765717199999926,0.01571719999992638,None,,71.16562309999972,71.16562309999972,71.16562309999972,71.16562309999972,71.16562309999972,71.16562309999972,71.16562309999972,71.16562309999972,71.16562309999972,71.16562309999972,003,P003,2025_Jan_18_1124,ConditionRich,2021.2.3,59.931486324881014,
37.0,37.75,32,0.75,Stimuli/P003/things_pulley_02s.jpg,0,0,0.0,0,67,67,67,,,,,,,,,,,,,36.99860049999916,-0.0013995000008435454,None,,71.39915950000068,71.39915950000068,71.39915950000068,71.39915950000068,71.39915950000068,71.39915950000068,71.39915950000068,71.39915950000068,71.39915950000068,71.39915950000068,003,P003,2025_Jan_18_1124,ConditionRich,2021.2.3,59.931486324881014,
37.75,38.0,41,0.0,Stimuli/Blank.png,0,0,0.0,0,68,68,68,,,,,,,,,,,,,37.749452300000485,-0.0005476999995153164,None,,72.1498569000014,72.1498569000014,72.1498569000014,72.1498569000014,72.1498569000014,72.1498569000014,72.1498569000014,72.1498569000014,72.1498569000014,72.1498569000014,003,P003,2025_Jan_18_1124,ConditionRich,2021.2.3,59.931486324881014,
38.0,38.75,32,0.75,Stimuli/P003/things_pulley_02s.jpg,0,0,0.0,0,69,69,69,,,,,,,,,,,,,37.9998171999996,-0.00018280000040249433,None,,72.41673850000006,72.41673850000006,72.41673850000006,72.41673850000006,72.41673850000006,72.41673850000006,72.41673850000006,72.41673850000006,72.41673850000006,72.41673850000006,003,P003,2025_Jan_18_1124,ConditionRich,2021.2.3,59.931486324881014,
38.75,39.0,41,0.0,Stimuli/Blank.png,0,0,0.0,0,70,70,70,,,,,,,,,,,,,38.76727889999893,0.017278899998927955,None,,73.16738510000141,73.16738510000141,73.16738510000141,73.16738510000141,73.16738510000141,73.16738510000141,73.16738510000141,73.16738510000141,73.16738510000141,73.16738510000141,003,P003,2025_Jan_18_1124,ConditionRich,2021.2.3,59.931486324881014,
39.0,39.75,32,0.75,Stimuli/P003/things_pulley_02s.jpg,0,0,0.0,0,71,71,71,,,,,,,,,,,,,39.00046209999891,0.00046209999891289044,None,,73.41762540000127,73.41762540000127,73.41762540000127,73.41762540000127,73.41762540000127,73.41762540000127,73.41762540000127,73.41762540000127,73.41762540000127,73.41762540000127,003,P003,2025_Jan_18_1124,ConditionRich,2021.2.3,59.931486324881014,
39.75,40.0,41,0.0,Stimuli/Blank.png,0,0,0.0,0,72,72,72,,,,,,,,,,,,,39.769904299999325,0.019904299999325303,5,0.19388399999843386,74.18495480000092,74.18495480000092,74.18495480000092,74.18495480000092,74.18495480000092,74.18495480000092,74.18495480000092,74.18495480000092,74.18495480000092,74.18495480000092,003,P003,2025_Jan_18_1124,ConditionRich,2021.2.3,59.931486324881014,
40.0,40.75,16,0.75,Stimuli/P003/sun_bjuoemgleyaogrmw.jpg,0,0,0.0,0,73,73,73,,,,,,,,,,,,,40.01881409999987,0.01881409999987227,None,,74.43516770000133,74.43516770000133,74.43516770000133,74.43516770000133,74.43516770000133,74.43516770000133,74.43516770000133,74.43516770000133,74.43516770000133,74.43516770000133,003,P003,2025_Jan_18_1124,ConditionRich,2021.2.3,59.931486324881014,
40.75,41.0,41,0.0,Stimuli/Blank.png,0,0,0.0,0,74,74,74,,,,,,,,,,,,,40.771018399998866,0.02101839999886579,None,,75.18583180000132,75.18583180000132,75.18583180000132,75.18583180000132,75.18583180000132,75.18583180000132,75.18583180000132,75.18583180000132,75.18583180000132,75.18583180000132,003,P003,2025_Jan_18_1124,ConditionRich,2021.2.3,59.931486324881014,
41.0,41.75,16,0.75,Stimuli/P003/sun_bjuoemgleyaogrmw.jpg,0,0,0.0,0,75,75,75,,,,,,,,,,,,,41.02132999999958,0.02132999999957974,None,,75.43604460000097,75.43604460000097,75.43604460000097,75.43604460000097,75.43604460000097,75.43604460000097,75.43604460000097,75.43604460000097,75.43604460000097,75.43604460000097,003,P003,2025_Jan_18_1124,ConditionRich,2021.2.3,59.931486324881014,
41.75,42.0,41,0.0,Stimuli/Blank.png,0,0,0.0,0,76,76,76,,,,,,,,,,,,,41.769910699998945,0.019910699998945347,None,,76.17003450000084,76.17003450000084,76.17003450000084,76.17003450000084,76.17003450000084,76.17003450000084,76.17003450000084,76.17003450000084,76.17003450000084,76.17003450000084,003,P003,2025_Jan_18_1124,ConditionRich,2021.2.3,59.931486324881014,
42.0,42.75,16,0.75,Stimuli/P003/sun_bjuoemgleyaogrmw.jpg,0,0,0.0,0,77,77,77,,,,,,,,,,,,,42.002736299999015,0.002736299999014591,None,,76.42023990000052,76.42023990000052,76.42023990000052,76.42023990000052,76.42023990000052,76.42023990000052,76.42023990000052,76.42023990000052,76.42023990000052,76.42023990000052,003,P003,2025_Jan_18_1124,ConditionRich,2021.2.3,59.931486324881014,
42.75,43.0,41,0.0,Stimuli/Blank.png,0,0,0.0,0,78,78,78,,,,,,,,,,,,,42.770561199999065,0.02056119999906514,None,,77.17093650000061,77.17093650000061,77.17093650000061,77.17093650000061,77.17093650000061,77.17093650000061,77.17093650000061,77.17093650000061,77.17093650000061,77.17093650000061,003,P003,2025_Jan_18_1124,ConditionRich,2021.2.3,59.931486324881014,
43.0,43.75,16,0.75,Stimuli/P003/sun_bjuoemgleyaogrmw.jpg,0,0,0.0,0,79,79,79,,,,,,,,,,,,,43.006456799999796,0.006456799999796203,None,,77.42114170000059,77.42114170000059,77.42114170000059,77.42114170000059,77.42114170000059,77.42114170000059,77.42114170000059,77.42114170000059,77.42114170000059,77.42114170000059,003,P003,2025_Jan_18_1124,ConditionRich,2021.2.3,59.931486324881014,
43.75,44.0,41,0.0,Stimuli/Blank.png,0,0,0.0,0,80,80,80,,,,,,,,,,,,,43.77144000000044,0.021440000000438886,None,,78.1717934999997,78.1717934999997,78.1717934999997,78.1717934999997,78.1717934999997,78.1717934999997,78.1717934999997,78.1717934999997,78.1717934999997,78.1717934999997,003,P003,2025_Jan_18_1124,ConditionRich,2021.2.3,59.931486324881014,
44.0,44.75,25,0.75,Stimuli/P003/things_girl_02s.jpg,0,0,0.0,0,81,81,81,,,,,,,,,,,,,44.00475369999913,0.004753699999128003,None,,78.40532760000133,78.40532760000133,78.40532760000133,78.40532760000133,78.40532760000133,78.40532760000133,78.40532760000133,78.40532760000133,78.40532760000133,78.40532760000133,003,P003,2025_Jan_18_1124,ConditionRich,2021.2.3,59.931486324881014,
44.75,45.0,41,0.0,Stimuli/Blank.png,0,0,0.0,0,82,82,82,,,,,,,,,,,,,44.75639360000059,0.006393600000592414,None,,79.1726933000009,79.1726933000009,79.1726933000009,79.1726933000009,79.1726933000009,79.1726933000009,79.1726933000009,79.1726933000009,79.1726933000009,79.1726933000009,003,P003,2025_Jan_18_1124,ConditionRich,2021.2.3,59.931486324881014,
45.0,45.75,25,0.75,Stimuli/P003/things_girl_02s.jpg,0,0,0.0,0,83,83,83,,,,,,,,,,,,,45.022264899998845,0.022264899998845067,None,,79.43958449999991,79.43958449999991,79.43958449999991,79.43958449999991,79.43958449999991,79.43958449999991,79.43958449999991,79.43958449999991,79.43958449999991,79.43958449999991,003,P003,2025_Jan_18_1124,ConditionRich,2021.2.3,59.931486324881014,
45.75,46.0,41,0.0,Stimuli/Blank.png,0,0,0.0,0,84,84,84,,,,,,,,,,,,,45.77252570000019,0.0225257000001875,None,,80.173553300001,80.173553300001,80.173553300001,80.173553300001,80.173553300001,80.173553300001,80.173553300001,80.173553300001,80.173553300001,80.173553300001,003,P003,2025_Jan_18_1124,ConditionRich,2021.2.3,59.931486324881014,
46.0,46.75,25,0.75,Stimuli/P003/things_girl_02s.jpg,0,0,0.0,0,85,85,85,,,,,,,,,,,,,46.00682909999887,0.006829099998867605,None,,80.42377980000128,80.42377980000128,80.42377980000128,80.42377980000128,80.42377980000128,80.42377980000128,80.42377980000128,80.42377980000128,80.42377980000128,80.42377980000128,003,P003,2025_Jan_18_1124,ConditionRich,2021.2.3,59.931486324881014,
46.75,47.0,41,0.0,Stimuli/Blank.png,0,0,0.0,0,86,86,86,,,,,,,,,,,,,46.77510400000028,0.025104000000283122,None,,81.17446360000031,81.17446360000031,81.17446360000031,81.17446360000031,81.17446360000031,81.17446360000031,81.17446360000031,81.17446360000031,81.17446360000031,81.17446360000031,003,P003,2025_Jan_18_1124,ConditionRich,2021.2.3,59.931486324881014,
47.0,47.75,25,0.75,Stimuli/P003/things_girl_02s.jpg,0,0,0.0,0,87,87,87,,,,,,,,,,,,,47.00729709999905,0.0072970999990502605,None,,81.42466820000118,81.42466820000118,81.42466820000118,81.42466820000118,81.42466820000118,81.42466820000118,81.42466820000118,81.42466820000118,81.42466820000118,81.42466820000118,003,P003,2025_Jan_18_1124,ConditionRich,2021.2.3,59.931486324881014,
47.75,48.0,41,0.0,Stimuli/Blank.png,0,0,0.0,0,88,88,88,,,,,,,,,,,,,47.775804299999436,0.025804299999435898,None,,82.17567680000138,82.17567680000138,82.17567680000138,82.17567680000138,82.17567680000138,82.17567680000138,82.17567680000138,82.17567680000138,82.17567680000138,82.17567680000138,003,P003,2025_Jan_18_1124,ConditionRich,2021.2.3,59.931486324881014,
48.0,48.75,21,0.75,Stimuli/P003/things_baby_02s.jpg,0,0,0.0,0,89,89,89,,,,,,,,,,,,,48.00863159999972,0.008631599999716855,None,,82.40887350000048,82.40887350000048,82.40887350000048,82.40887350000048,82.40887350000048,82.40887350000048,82.40887350000048,82.40887350000048,82.40887350000048,82.40887350000048,003,P003,2025_Jan_18_1124,ConditionRich,2021.2.3,59.931486324881014,
48.75,49.0,41,0.0,Stimuli/Blank.png,0,0,0.0,0,90,90,90,,,,,,,,,,,,,48.7586095000006,0.008609500000602566,None,,83.15950650000013,83.15950650000013,83.15950650000013,83.15950650000013,83.15950650000013,83.15950650000013,83.15950650000013,83.15950650000013,83.15950650000013,83.15950650000013,003,P003,2025_Jan_18_1124,ConditionRich,2021.2.3,59.931486324881014,
49.0,49.75,21,0.75,Stimuli/P003/things_baby_02s.jpg,0,0,0.0,0,91,91,91,,,,,,,,,,,,,49.00904369999989,0.009043699999892851,None,,83.40973099999974,83.40973099999974,83.40973099999974,83.40973099999974,83.40973099999974,83.40973099999974,83.40973099999974,83.40973099999974,83.40973099999974,83.40973099999974,003,P003,2025_Jan_18_1124,ConditionRich,2021.2.3,59.931486324881014,
49.75,50.0,41,0.0,Stimuli/Blank.png,0,0,0.0,0,92,92,92,,,,,,,,,,,,,49.76086170000053,0.010861700000532437,5,0.2183588999996573,84.1603952000005,84.1603952000005,84.1603952000005,84.1603952000005,84.1603952000005,84.1603952000005,84.1603952000005,84.1603952000005,84.1603952000005,84.1603952000005,003,P003,2025_Jan_18_1124,ConditionRich,2021.2.3,59.931486324881014,
50.0,50.75,21,0.75,Stimuli/P003/things_baby_02s.jpg,0,0,0.0,0,93,93,93,,,,,,,,,,,,,50.00965019999967,0.009650199999668985,None,,84.41061910000099,84.41061910000099,84.41061910000099,84.41061910000099,84.41061910000099,84.41061910000099,84.41061910000099,84.41061910000099,84.41061910000099,84.41061910000099,003,P003,2025_Jan_18_1124,ConditionRich,2021.2.3,59.931486324881014,
50.75,51.0,41,0.0,Stimuli/Blank.png,0,0,0.0,0,94,94,94,,,,,,,,,,,,,50.76034760000039,0.010347600000386592,None,,85.1612769000003,85.1612769000003,85.1612769000003,85.1612769000003,85.1612769000003,85.1612769000003,85.1612769000003,85.1612769000003,85.1612769000003,85.1612769000003,003,P003,2025_Jan_18_1124,ConditionRich,2021.2.3,59.931486324881014,
51.0,51.75,21,0.75,Stimuli/P003/things_baby_02s.jpg,0,0,0.0,0,95,95,95,,,,,,,,,,,,,51.01065480000034,0.010654800000338582,None,,85.41149170000062,85.41149170000062,85.41149170000062,85.41149170000062,85.41149170000062,85.41149170000062,85.41149170000062,85.41149170000062,85.41149170000062,85.41149170000062,003,P003,2025_Jan_18_1124,ConditionRich,2021.2.3,59.931486324881014,
51.75,52.0,41,0.0,Stimuli/Blank.png,0,0,0.0,0,96,96,96,,,,,,,,,,,,,51.76171289999911,0.01171289999911096,5,0.21684769999956188,86.16216280000117,86.16216280000117,86.16216280000117,86.16216280000117,86.16216280000117,86.16216280000117,86.16216280000117,86.16216280000117,86.16216280000117,86.16216280000117,003,P003,2025_Jan_18_1124,ConditionRich,2021.2.3,59.931486324881014,
52.0,52.75,18,0.75,Stimuli/P003/sun_bplhnzkztpigweny.jpg,1,0,0.75,0,97,97,97,,,,,,,,,,,,,52.012173999999504,0.012173999999504304,1,0.47478959999898507,86.42907000000014,86.42907000000014,86.42907000000014,86.42907000000014,86.42907000000014,86.42907000000014,86.42907000000014,87.14640830000099,86.42907000000014,86.42907000000014,003,P003,2025_Jan_18_1124,ConditionRich,2021.2.3,59.931486324881014,
52.75,53.0,41,0.0,Stimuli/Blank.png,0,0,0.0,0,98,98,98,,,,,,,,,,,,,52.77967159999935,0.029671599999346654,None,,87.17971510000098,87.17971510000098,87.17971510000098,87.17971510000098,87.17971510000098,87.17971510000098,87.17971510000098,87.17971510000098,87.17971510000098,87.17971510000098,003,P003,2025_Jan_18_1124,ConditionRich,2021.2.3,59.931486324881014,
53.0,53.75,18,0.75,Stimuli/P003/sun_bplhnzkztpigweny.jpg,0,0,0.0,0,99,99,99,,,,,,,,,,,,,53.01240359999974,0.012403599999743165,None,,87.42994999999974,87.42994999999974,87.42994999999974,87.42994999999974,87.42994999999974,87.42994999999974,87.42994999999974,87.42994999999974,87.42994999999974,87.42994999999974,003,P003,2025_Jan_18_1124,ConditionRich,2021.2.3,59.931486324881014,
53.75,54.0,41,0.0,Stimuli/Blank.png,0,0,0.0,0,100,100,100,,,,,,,,,,,,,53.78078529999948,0.03078529999947932,5,0.18143639999834704,88.19731580000007,88.19731580000007,88.19731580000007,88.19731580000007,88.19731580000007,88.19731580000007,88.19731580000007,88.19731580000007,88.19731580000007,88.19731580000007,003,P003,2025_Jan_18_1124,ConditionRich,2021.2.3,59.931486324881014,
54.0,54.75,18,0.75,Stimuli/P003/sun_bplhnzkztpigweny.jpg,0,0,0.0,0,101,101,101,,,,,,,,,,,,,54.030651699999,0.030651699998998083,None,,88.43081520000123,88.43081520000123,88.43081520000123,88.43081520000123,88.43081520000123,88.43081520000123,88.43081520000123,88.43081520000123,88.43081520000123,88.43081520000123,003,P003,2025_Jan_18_1124,ConditionRich,2021.2.3,59.931486324881014,
54.75,55.0,41,0.0,Stimuli/Blank.png,0,0,0.0,0,102,102,102,,,,,,,,,,,,,54.7645950999995,0.014595099999496597,None,,89.16479749999962,89.16479749999962,89.16479749999962,89.16479749999962,89.16479749999962,89.16479749999962,89.16479749999962,89.16479749999962,89.16479749999962,89.16479749999962,003,P003,2025_Jan_18_1124,ConditionRich,2021.2.3,59.931486324881014,
55.0,55.75,18,0.75,Stimuli/P003/sun_bplhnzkztpigweny.jpg,0,0,0.0,0,103,103,103,,,,,,,,,,,,,55.015483699999095,0.015483699999094824,None,,89.43171240000083,89.43171240000083,89.43171240000083,89.43171240000083,89.43171240000083,89.43171240000083,89.43171240000083,89.43171240000083,89.43171240000083,89.43171240000083,003,P003,2025_Jan_18_1124,ConditionRich,2021.2.3,59.931486324881014,
55.75,56.0,41,0.0,Stimuli/Blank.png,0,0,0.0,0,104,104,104,,,,,,,,,,,,,55.76545389999956,0.015453899999556597,None,,90.16569049999998,90.16569049999998,90.16569049999998,90.16569049999998,90.16569049999998,90.16569049999998,90.16569049999998,90.16569049999998,90.16569049999998,90.16569049999998,003,P003,2025_Jan_18_1124,ConditionRich,2021.2.3,59.931486324881014,
56.0,56.75,37,0.75,Stimuli/P003/things_ski_lift_02s.jpg,0,0,0.0,0,105,105,105,,,,,,,,,,,,,56.00029360000008,0.0002936000000772765,None,,90.41589030000068,90.41589030000068,90.41589030000068,90.41589030000068,90.41589030000068,90.41589030000068,90.41589030000068,90.41589030000068,90.41589030000068,90.41589030000068,003,P003,2025_Jan_18_1124,ConditionRich,2021.2.3,59.931486324881014,
56.75,57.0,41,0.0,Stimuli/Blank.png,0,0,0.0,0,106,106,106,,,,,,,,,,,,,56.766326999999364,0.01632699999936449,None,,91.16655569999966,91.16655569999966,91.16655569999966,91.16655569999966,91.16655569999966,91.16655569999966,91.16655569999966,91.16655569999966,91.16655569999966,91.16655569999966,003,P003,2025_Jan_18_1124,ConditionRich,2021.2.3,59.931486324881014,
57.0,57.75,37,0.75,Stimuli/P003/things_ski_lift_02s.jpg,0,0,0.0,0,107,107,107,,,,,,,,,,,,,56.99960060000012,-0.00039939999987836927,None,,91.40009129999999,91.40009129999999,91.40009129999999,91.40009129999999,91.40009129999999,91.40009129999999,91.40009129999999,91.40009129999999,91.40009129999999,91.40009129999999,003,P003,2025_Jan_18_1124,ConditionRich,2021.2.3,59.931486324881014,
57.75,58.0,41,0.0,Stimuli/Blank.png,0,0,0.0,0,108,108,108,,,,,,,,,,,,,57.75067409999974,0.000674099999741884,None,,92.15075969999998,92.15075969999998,92.15075969999998,92.15075969999998,92.15075969999998,92.15075969999998,92.15075969999998,92.15075969999998,92.15075969999998,92.15075969999998,003,P003,2025_Jan_18_1124,ConditionRich,2021.2.3,59.931486324881014,
58.0,58.75,37,0.75,Stimuli/P003/things_ski_lift_02s.jpg,0,0,0.0,0,109,109,109,,,,,,,,,,,,,58.001497199998994,0.0014971999989938922,None,,92.41765980000127,92.41765980000127,92.41765980000127,92.41765980000127,92.41765980000127,92.41765980000127,92.41765980000127,92.41765980000127,92.41765980000127,92.41765980000127,003,P003,2025_Jan_18_1124,ConditionRich,2021.2.3,59.931486324881014,
58.75,59.0,41,0.0,Stimuli/Blank.png,0,0,0.0,0,110,110,110,,,,,,,,,,,,,58.76980960000037,0.019809600000371574,None,,93.1850073000005,93.1850073000005,93.1850073000005,93.1850073000005,93.1850073000005,93.1850073000005,93.1850073000005,93.1850073000005,93.1850073000005,93.1850073000005,003,P003,2025_Jan_18_1124,ConditionRich,2021.2.3,59.931486324881014,
59.0,59.75,37,0.75,Stimuli/P003/things_ski_lift_02s.jpg,1,0,0.75,0,111,111,111,,,,,,,,,,,,,59.02012189999914,0.020121899999139714,1,0.6259586000014679,93.43522570000096,93.43522570000096,93.43522570000096,93.43522570000096,93.43522570000096,93.43522570000096,93.43522570000096,None,93.43522570000096,93.43522570000096,003,P003,2025_Jan_18_1124,ConditionRich,2021.2.3,59.931486324881014,
59.75,60.0,41,0.0,Stimuli/Blank.png,0,0,0.0,0,112,112,112,,,,,,,,,,,,,59.77209020000009,0.02209020000009332,5,0.19284759999936796,94.18589750000137,94.18589750000137,94.18589750000137,94.18589750000137,94.18589750000137,94.18589750000137,94.18589750000137,94.18589750000137,94.18589750000137,94.18589750000137,003,P003,2025_Jan_18_1124,ConditionRich,2021.2.3,59.931486324881014,
60.0,60.75,22,0.75,Stimuli/P003/things_boy_02s.jpg,0,0,0.0,0,113,113,113,,,,,,,,,,,,,60.01856450000014,0.01856450000013865,None,,94.41942190000009,94.41942190000009,94.41942190000009,94.41942190000009,94.41942190000009,94.41942190000009,94.41942190000009,94.41942190000009,94.41942190000009,94.41942190000009,003,P003,2025_Jan_18_1124,ConditionRich,2021.2.3,59.931486324881014,
60.75,61.0,41,0.0,Stimuli/Blank.png,0,0,0.0,0,114,114,114,,,,,,,,,,,,,60.75526669999999,0.005266699999992852,None,,95.1700879,95.1700879,95.1700879,95.1700879,95.1700879,95.1700879,95.1700879,95.1700879,95.1700879,95.1700879,003,P003,2025_Jan_18_1124,ConditionRich,2021.2.3,59.931486324881014,
61.0,61.75,22,0.75,Stimuli/P003/things_boy_02s.jpg,0,0,0.0,0,115,115,115,,,,,,,,,,,,,61.01959159999933,0.019591599999330356,None,,95.42031140000108,95.42031140000108,95.42031140000108,95.42031140000108,95.42031140000108,95.42031140000108,95.42031140000108,95.42031140000108,95.42031140000108,95.42031140000108,003,P003,2025_Jan_18_1124,ConditionRich,2021.2.3,59.931486324881014,
61.75,62.0,41,0.0,Stimuli/Blank.png,0,0,0.0,0,116,116,116,,,,,,,,,,,,,61.756276699999944,0.006276699999943958,5,0.20779270000093675,96.17098319999968,96.17098319999968,96.17098319999968,96.17098319999968,96.17098319999968,96.17098319999968,96.17098319999968,96.17098319999968,96.17098319999968,96.17098319999968,003,P003,2025_Jan_18_1124,ConditionRich,2021.2.3,59.931486324881014,
62.0,62.75,22,0.75,Stimuli/P003/things_boy_02s.jpg,0,0,0.0,0,117,117,117,,,,,,,,,,,,,62.020711900000606,0.020711900000605965,None,,96.42118540000047,96.42118540000047,96.42118540000047,96.42118540000047,96.42118540000047,96.42118540000047,96.42118540000047,96.42118540000047,96.42118540000047,96.42118540000047,003,P003,2025_Jan_18_1124,ConditionRich,2021.2.3,59.931486324881014,
62.75,63.0,41,0.0,Stimuli/Blank.png,0,0,0.0,0,118,118,118,,,,,,,,,,,,,62.75462739999966,0.0046273999996628845,None,,97.15516440000101,97.15516440000101,97.15516440000101,97.15516440000101,97.15516440000101,97.15516440000101,97.15516440000101,97.15516440000101,97.15516440000101,97.15516440000101,003,P003,2025_Jan_18_1124,ConditionRich,2021.2.3,59.931486324881014,
63.0,63.75,22,0.75,Stimuli/P003/things_boy_02s.jpg,0,0,0.0,0,119,119,119,,,,,,,,,,,,,63.00536119999924,0.005361199999242672,None,,97.40539030000036,97.40539030000036,97.40539030000036,97.40539030000036,97.40539030000036,97.40539030000036,97.40539030000036,97.40539030000036,97.40539030000036,97.40539030000036,003,P003,2025_Jan_18_1124,ConditionRich,2021.2.3,59.931486324881014,
63.75,64.0,41,0.0,Stimuli/Blank.png,0,0,0.0,0,120,120,120,,,,,,,,,,,,,63.75635920000059,0.0063592000005883165,None,,98.15605780000078,98.15605780000078,98.15605780000078,98.15605780000078,98.15605780000078,98.15605780000078,98.15605780000078,98.15605780000078,98.15605780000078,98.15605780000078,003,P003,2025_Jan_18_1124,ConditionRich,2021.2.3,59.931486324881014,
64.0,64.75,40,0.75,Stimuli/P003/things_woman_02s.jpg,0,0,0.0,0,121,121,121,,,,,,,,,,,,,64.00615069999913,0.006150699999125209,None,,98.40627020000102,98.40627020000102,98.40627020000102,98.40627020000102,98.40627020000102,98.40627020000102,98.40627020000102,98.40627020000102,98.40627020000102,98.40627020000102,003,P003,2025_Jan_18_1124,ConditionRich,2021.2.3,59.931486324881014,
64.75,65.0,41,0.0,Stimuli/Blank.png,0,0,0.0,0,122,122,122,,,,,,,,,,,,,64.75606669999979,0.006066699999792036,None,,99.15692470000067,99.15692470000067,99.15692470000067,99.15692470000067,99.15692470000067,99.15692470000067,99.15692470000067,99.15692470000067,99.15692470000067,99.15692470000067,003,P003,2025_Jan_18_1124,ConditionRich,2021.2.3,59.931486324881014,
65.0,65.75,40,0.75,Stimuli/P003/things_woman_02s.jpg,0,0,0.0,0,123,123,123,,,,,,,,,,,,,65.00680439999996,0.006804399999964517,None,,99.40714070000104,99.40714070000104,99.40714070000104,99.40714070000104,99.40714070000104,99.40714070000104,99.40714070000104,99.40714070000104,99.40714070000104,99.40714070000104,003,P003,2025_Jan_18_1124,ConditionRich,2021.2.3,59.931486324881014,
65.75,66.0,41,0.0,Stimuli/Blank.png,0,0,0.0,0,124,124,124,,,,,,,,,,,,,65.75971059999938,0.009710599999380065,5,0.2045068999996147,100.17452990000129,100.17452990000129,100.17452990000129,100.17452990000129,100.17452990000129,100.17452990000129,100.17452990000129,100.17452990000129,100.17452990000129,100.17452990000129,003,P003,2025_Jan_18_1124,ConditionRich,2021.2.3,59.931486324881014,
66.0,66.75,40,0.75,Stimuli/P003/things_woman_02s.jpg,0,0,0.0,0,125,125,125,,,,,,,,,,,,,66.02405840000029,0.024058400000285474,None,,100.42483540000103,100.42483540000103,100.42483540000103,100.42483540000103,100.42483540000103,100.42483540000103,100.42483540000103,100.42483540000103,100.42483540000103,100.42483540000103,003,P003,2025_Jan_18_1124,ConditionRich,2021.2.3,59.931486324881014,
66.75,67.0,41,0.0,Stimuli/Blank.png,0,0,0.0,0,126,126,126,,,,,,,,,,,,,66.75999909999882,0.009999099998822203,None,,101.17537100000118,101.17537100000118,101.17537100000118,101.17537100000118,101.17537100000118,101.17537100000118,101.17537100000118,101.17537100000118,101.17537100000118,101.17537100000118,003,P003,2025_Jan_18_1124,ConditionRich,2021.2.3,59.931486324881014,
67.0,67.75,40,0.75,Stimuli/P003/things_woman_02s.jpg,0,0,0.0,0,127,127,127,,,,,,,,,,,,,67.02545549999923,0.02545549999922514,None,,101.42558830000053,101.42558830000053,101.42558830000053,101.42558830000053,101.42558830000053,101.42558830000053,101.42558830000053,101.42558830000053,101.42558830000053,101.42558830000053,003,P003,2025_Jan_18_1124,ConditionRich,2021.2.3,59.931486324881014,
67.75,68.0,41,0.0,Stimuli/Blank.png,0,0,0.0,0,128,128,128,,,,,,,,,,,,,67.7586554999998,0.008655499999804306,None,,102.1595625000009,102.1595625000009,102.1595625000009,102.1595625000009,102.1595625000009,102.1595625000009,102.1595625000009,102.1595625000009,102.1595625000009,102.1595625000009,003,P003,2025_Jan_18_1124,ConditionRich,2021.2.3,59.931486324881014,
68.0,68.75,36,0.75,Stimuli/P003/things_sea_urchin_02s.jpg,0,0,0.0,0,129,129,129,,,,,,,,,,,,,68.00947739999901,0.009477399999013869,None,,102.42644529999961,102.42644529999961,102.42644529999961,102.42644529999961,102.42644529999961,102.42644529999961,102.42644529999961,102.42644529999961,102.42644529999961,102.42644529999961,003,P003,2025_Jan_18_1124,ConditionRich,2021.2.3,59.931486324881014,
68.75,69.0,41,0.0,Stimuli/Blank.png,0,0,0.0,0,130,130,130,,,,,,,,,,,,,68.77704359999916,0.027043599999160506,None,,103.17720160000135,103.17720160000135,103.17720160000135,103.17720160000135,103.17720160000135,103.17720160000135,103.17720160000135,103.17720160000135,103.17720160000135,103.17720160000135,003,P003,2025_Jan_18_1124,ConditionRich,2021.2.3,59.931486324881014,
69.0,69.75,36,0.75,Stimuli/P003/things_sea_urchin_02s.jpg,0,0,0.0,0,131,131,131,,,,,,,,,,,,,69.01140490000034,0.011404900000343332,None,,103.4273518000009,103.4273518000009,103.4273518000009,103.4273518000009,103.4273518000009,103.4273518000009,103.4273518000009,103.4273518000009,103.4273518000009,103.4273518000009,003,P003,2025_Jan_18_1124,ConditionRich,2021.2.3,59.931486324881014,
69.75,70.0,41,0.0,Stimuli/Blank.png,0,0,0.0,0,132,132,132,,,,,,,,,,,,,69.77740919999997,0.027409199999965494,5,0.20077850000052422,104.17801540000073,104.17801540000073,104.17801540000073,104.17801540000073,104.17801540000073,104.17801540000073,104.17801540000073,104.17801540000073,104.17801540000073,104.17801540000073,003,P003,2025_Jan_18_1124,ConditionRich,2021.2.3,59.931486324881014,
70.0,70.75,36,0.75,Stimuli/P003/things_sea_urchin_02s.jpg,1,0,0.75,0,133,133,133,,,,,,,,,,,,,70.01093140000012,0.01093140000011772,1,0.4208574000003864,104.42824959999962,104.42824959999962,104.42824959999962,104.42824959999962,104.42824959999962,104.42824959999962,104.42824959999962,105.14552449999974,104.42824959999962,104.42824959999962,003,P003,2025_Jan_18_1124,ConditionRich,2021.2.3,59.931486324881014,
70.75,71.0,41,0.0,Stimuli/Blank.png,0,0,0.0,0,134,134,134,,,,,,,,,,,,,70.78042559999994,0.030425599999944097,None,,105.19558830000096,105.19558830000096,105.19558830000096,105.19558830000096,105.19558830000096,105.19558830000096,105.19558830000096,105.19558830000096,105.19558830000096,105.19558830000096,003,P003,2025_Jan_18_1124,ConditionRich,2021.2.3,59.931486324881014,
71.0,71.75,36,0.75,Stimuli/P003/things_sea_urchin_02s.jpg,0,0,0.0,0,135,135,135,,,,,,,,,,,,,71.02856129999964,0.028561299999637413,None,,105.42911280000044,105.42911280000044,105.42911280000044,105.42911280000044,105.42911280000044,105.42911280000044,105.42911280000044,105.42911280000044,105.42911280000044,105.42911280000044,003,P003,2025_Jan_18_1124,ConditionRich,2021.2.3,59.931486324881014,
71.75,72.0,41,0.0,Stimuli/Blank.png,0,0,0.0,0,136,136,136,,,,,,,,,,,,,71.76327549999951,0.013275499999508611,5,0.2156133000007685,106.16310169999997,106.16310169999997,106.16310169999997,106.16310169999997,106.16310169999997,106.16310169999997,106.16310169999997,106.16310169999997,106.16310169999997,106.16310169999997,003,P003,2025_Jan_18_1124,ConditionRich,2021.2.3,59.931486324881014,
72.0,72.75,31,0.75,Stimuli/P003/things_pea_02s.jpg,0,0,0.0,0,137,137,137,,,,,,,,,,,,,72.0136638999993,0.013663899999301066,None,,106.42999150000105,106.42999150000105,106.42999150000105,106.42999150000105,106.42999150000105,106.42999150000105,106.42999150000105,106.42999150000105,106.42999150000105,106.42999150000105,003,P003,2025_Jan_18_1124,ConditionRich,2021.2.3,59.931486324881014,
72.75,73.0,41,0.0,Stimuli/Blank.png,0,0,0.0,0,138,138,138,,,,,,,,,,,,,72.78052260000004,0.030522600000040256,None,,107.18066720000024,107.18066720000024,107.18066720000024,107.18066720000024,107.18066720000024,107.18066720000024,107.18066720000024,107.18066720000024,107.18066720000024,107.18066720000024,003,P003,2025_Jan_18_1124,ConditionRich,2021.2.3,59.931486324881014,
73.0,73.75,31,0.75,Stimuli/P003/things_pea_02s.jpg,0,0,0.0,0,139,139,139,,,,,,,,,,,,,73.0152780999997,0.015278099999704864,None,,107.43087689999993,107.43087689999993,107.43087689999993,107.43087689999993,107.43087689999993,107.43087689999993,107.43087689999993,107.43087689999993,107.43087689999993,107.43087689999993,003,P003,2025_Jan_18_1124,ConditionRich,2021.2.3,59.931486324881014,
73.75,74.0,41,0.0,Stimuli/Blank.png,0,0,0.0,0,140,140,140,,,,,,,,,,,,,73.76433290000023,0.0143329000002268,5,0.21397669999896607,108.16485720000128,108.16485720000128,108.16485720000128,108.16485720000128,108.16485720000128,108.16485720000128,108.16485720000128,108.16485720000128,108.16485720000128,108.16485720000128,003,P003,2025_Jan_18_1124,ConditionRich,2021.2.3,59.931486324881014,
74.0,74.75,31,0.75,Stimuli/P003/things_pea_02s.jpg,0,0,0.0,0,141,141,141,,,,,,,,,,,,,74.01477019999948,0.014770199999475153,None,,108.41507319999982,108.41507319999982,108.41507319999982,108.41507319999982,108.41507319999982,108.41507319999982,108.41507319999982,108.41507319999982,108.41507319999982,108.41507319999982,003,P003,2025_Jan_18_1124,ConditionRich,2021.2.3,59.931486324881014,
74.75,75.0,41,0.0,Stimuli/Blank.png,0,0,0.0,0,142,142,142,,,,,,,,,,,,,74.76477539999905,0.014775399999052752,None,,109.16574730000139,109.16574730000139,109.16574730000139,109.16574730000139,109.16574730000139,109.16574730000139,109.16574730000139,109.16574730000139,109.16574730000139,109.16574730000139,003,P003,2025_Jan_18_1124,ConditionRich,2021.2.3,59.931486324881014,
75.0,75.75,31,0.75,Stimuli/P003/things_pea_02s.jpg,0,0,0.0,0,143,143,143,,,,,,,,,,,,,75.01554579999902,0.015545799999017618,None,,109.43265630000133,109.43265630000133,109.43265630000133,109.43265630000133,109.43265630000133,109.43265630000133,109.43265630000133,109.43265630000133,109.43265630000133,109.43265630000133,003,P003,2025_Jan_18_1124,ConditionRich,2021.2.3,59.931486324881014,
75.75,76.0,41,0.0,Stimuli/Blank.png,0,0,0.0,0,144,144,144,,,,,,,,,,,,,75.76592429999982,0.015924299999824143,None,,110.16663410000001,110.16663410000001,110.16663410000001,110.16663410000001,110.16663410000001,110.16663410000001,110.16663410000001,110.16663410000001,110.16663410000001,110.16663410000001,003,P003,2025_Jan_18_1124,ConditionRich,2021.2.3,59.931486324881014,
76.0,76.75,14,0.75,Stimuli/P003/sun_bhhtrmwvoadbfucw.jpg,0,0,0.0,0,145,145,145,,,,,,,,,,,,,75.99977880000006,-0.00022119999994174577,None,,110.40016280000054,110.40016280000054,110.40016280000054,110.40016280000054,110.40016280000054,110.40016280000054,110.40016280000054,110.40016280000054,110.40016280000054,110.40016280000054,003,P003,2025_Jan_18_1124,ConditionRich,2021.2.3,59.931486324881014,
76.75,77.0,41,0.0,Stimuli/Blank.png,0,0,0.0,0,146,146,146,,,,,,,,,,,,,76.75072929999988,0.0007292999998753658,None,,111.15082400000028,111.15082400000028,111.15082400000028,111.15082400000028,111.15082400000028,111.15082400000028,111.15082400000028,111.15082400000028,111.15082400000028,111.15082400000028,003,P003,2025_Jan_18_1124,ConditionRich,2021.2.3,59.931486324881014,
77.0,77.75,14,0.75,Stimuli/P003/sun_bhhtrmwvoadbfucw.jpg,0,0,0.0,0,147,147,147,,,,,,,,,,,,,77.00079109999933,0.0007910999993328005,None,,111.40103210000052,111.40103210000052,111.40103210000052,111.40103210000052,111.40103210000052,111.40103210000052,111.40103210000052,111.40103210000052,111.40103210000052,111.40103210000052,003,P003,2025_Jan_18_1124,ConditionRich,2021.2.3,59.931486324881014,
77.75,78.0,41,0.0,Stimuli/Blank.png,0,0,0.0,0,148,148,148,,,,,,,,,,,,,77.75078159999975,0.0007815999997546896,None,,112.15170360000047,112.15170360000047,112.15170360000047,112.15170360000047,112.15170360000047,112.15170360000047,112.15170360000047,112.15170360000047,112.15170360000047,112.15170360000047,003,P003,2025_Jan_18_1124,ConditionRich,2021.2.3,59.931486324881014,
78.0,78.75,14,0.75,Stimuli/P003/sun_bhhtrmwvoadbfucw.jpg,0,0,0.0,0,149,149,149,,,,,,,,,,,,,78.00115389999883,0.0011538999988260912,None,,112.40191419999974,112.40191419999974,112.40191419999974,112.40191419999974,112.40191419999974,112.40191419999974,112.40191419999974,112.40191419999974,112.40191419999974,112.40191419999974,003,P003,2025_Jan_18_1124,ConditionRich,2021.2.3,59.931486324881014,
78.75,79.0,41,0.0,Stimuli/Blank.png,0,0,0.0,0,150,150,150,,,,,,,,,,,,,78.75209849999919,0.002098499999192427,None,,113.15264790000037,113.15264790000037,113.15264790000037,113.15264790000037,113.15264790000037,113.15264790000037,113.15264790000037,113.15264790000037,113.15264790000037,113.15264790000037,003,P003,2025_Jan_18_1124,ConditionRich,2021.2.3,59.931486324881014,
79.0,79.75,14,0.75,Stimuli/P003/sun_bhhtrmwvoadbfucw.jpg,1,0,0.75,0,151,151,151,,,,,,,,,,,,,79.00238779999927,0.002387799999269191,1,0.4069184999989375,113.40279890000056,113.40279890000056,113.40279890000056,113.40279890000056,113.40279890000056,113.40279890000056,113.40279890000056,114.13682189999963,113.40279890000056,113.40279890000056,003,P003,2025_Jan_18_1124,ConditionRich,2021.2.3,59.931486324881014,
79.75,80.0,41,0.0,Stimuli/Blank.png,0,0,0.0,0,152,152,152,,,,,,,,,,,,,79.75507339999967,0.005073399999673711,5,0.20901969999977155,114.17014670000026,114.17014670000026,114.17014670000026,114.17014670000026,114.17014670000026,114.17014670000026,114.17014670000026,114.17014670000026,114.17014670000026,114.17014670000026,003,P003,2025_Jan_18_1124,ConditionRich,2021.2.3,59.931486324881014,
80.0,80.75,4,0.75,Stimuli/P003/sun_albtqdieqkajejrg.jpg,0,0,0.0,0,153,153,153,,,,,,,,,,,,,80.01923809999971,0.019238099999711267,None,,114.42035300000134,114.42035300000134,114.42035300000134,114.42035300000134,114.42035300000134,114.42035300000134,114.42035300000134,114.42035300000134,114.42035300000134,114.42035300000134,003,P003,2025_Jan_18_1124,ConditionRich,2021.2.3,59.931486324881014,
80.75,81.0,41,0.0,Stimuli/Blank.png,0,0,0.0,0,154,154,154,,,,,,,,,,,,,80.75611159999971,0.00611159999971278,None,,115.17102599999998,115.17102599999998,115.17102599999998,115.17102599999998,115.17102599999998,115.17102599999998,115.17102599999998,115.17102599999998,115.17102599999998,115.17102599999998,003,P003,2025_Jan_18_1124,ConditionRich,2021.2.3,59.931486324881014,
81.0,81.75,4,0.75,Stimuli/P003/sun_albtqdieqkajejrg.jpg,0,0,0.0,0,155,155,155,,,,,,,,,,,,,81.02047529999982,0.020475299999816343,None,,115.42125160000069,115.42125160000069,115.42125160000069,115.42125160000069,115.42125160000069,115.42125160000069,115.42125160000069,115.42125160000069,115.42125160000069,115.42125160000069,003,P003,2025_Jan_18_1124,ConditionRich,2021.2.3,59.931486324881014,
81.75,82.0,41,0.0,Stimuli/Blank.png,0,0,0.0,0,156,156,156,,,,,,,,,,,,,81.75448209999922,0.004482099999222555,None,,116.15522919999967,116.15522919999967,116.15522919999967,116.15522919999967,116.15522919999967,116.15522919999967,116.15522919999967,116.15522919999967,116.15522919999967,116.15522919999967,003,P003,2025_Jan_18_1124,ConditionRich,2021.2.3,59.931486324881014,
82.0,82.75,4,0.75,Stimuli/P003/sun_albtqdieqkajejrg.jpg,0,0,0.0,0,157,157,157,,,,,,,,,,,,,82.0047668999996,0.004766899999594898,None,,116.40543989999969,116.40543989999969,116.40543989999969,116.40543989999969,116.40543989999969,116.40543989999969,116.40543989999969,116.40543989999969,116.40543989999969,116.40543989999969,003,P003,2025_Jan_18_1124,ConditionRich,2021.2.3,59.931486324881014,
82.75,83.0,41,0.0,Stimuli/Blank.png,0,0,0.0,0,158,158,158,,,,,,,,,,,,,82.75580300000001,0.0058030000000144355,None,,117.15609570000015,117.15609570000015,117.15609570000015,117.15609570000015,117.15609570000015,117.15609570000015,117.15609570000015,117.15609570000015,117.15609570000015,117.15609570000015,003,P003,2025_Jan_18_1124,ConditionRich,2021.2.3,59.931486324881014,
83.0,83.75,4,0.75,Stimuli/P003/sun_albtqdieqkajejrg.jpg,1,0,0.75,0,159,159,159,,,,,,,,,,,,,83.00613209999938,0.0061320999993768055,1,0.37529449999965436,117.40633809999963,117.40633809999963,117.40633809999963,117.40633809999963,117.40633809999963,117.40633809999963,117.40633809999963,118.14030430000093,117.40633809999963,117.40633809999963,003,P003,2025_Jan_18_1124,ConditionRich,2021.2.3,59.931486324881014,
83.75,84.0,41,0.0,Stimuli/Blank.png,0,0,0.0,0,160,160,160,,,,,,,,,,,,,83.75681839999925,0.006818399999247049,None,,118.15697569999975,118.15697569999975,118.15697569999975,118.15697569999975,118.15697569999975,118.15697569999975,118.15697569999975,118.15697569999975,118.15697569999975,118.15697569999975,003,P003,2025_Jan_18_1124,ConditionRich,2021.2.3,59.931486324881014,
84.0,100.0,0,0.0,Stimuli/Blank.png,1,8,8.75,0,161,161,161,,,,,,,,,,,,,84.00691340000049,0.006913400000485126,5,13.970662800000355,118.40794170000117,118.40794170000117,118.40794170000117,118.40794170000117,118.40794170000117,118.40794170000117,126.39756300000045,127.1482388000004,118.40794170000117,118.40794170000117,003,P003,2025_Jan_18_1124,ConditionRich,2021.2.3,59.931486324881014,
100.0,100.75,23,0.75,Stimuli/P003/things_butterfly_02s.jpg,0,0,0.0,0,162,162,162,,,,,,,,,,,,,100.00430749999941,0.004307499999413267,1,0.43865199999891047,134.421294400001,134.421294400001,134.421294400001,134.421294400001,134.421294400001,134.421294400001,134.421294400001,134.421294400001,134.421294400001,134.421294400001,003,P003,2025_Jan_18_1124,ConditionRich,2021.2.3,59.931486324881014,
100.75,101.0,41,0.0,Stimuli/Blank.png,0,0,0.0,0,163,163,163,,,,,,,,,,,,,100.77146790000006,0.02146790000006149,None,,135.17195139999967,135.17195139999967,135.17195139999967,135.17195139999967,135.17195139999967,135.17195139999967,135.17195139999967,135.17195139999967,135.17195139999967,135.17195139999967,003,P003,2025_Jan_18_1124,ConditionRich,2021.2.3,59.931486324881014,
101.0,101.75,23,0.75,Stimuli/P003/things_butterfly_02s.jpg,0,0,0.0,0,164,164,164,,,,,,,,,,,,,101.00534270000026,0.005342700000255718,None,,135.4221933000008,135.4221933000008,135.4221933000008,135.4221933000008,135.4221933000008,135.4221933000008,135.4221933000008,135.4221933000008,135.4221933000008,135.4221933000008,003,P003,2025_Jan_18_1124,ConditionRich,2021.2.3,59.931486324881014,
101.75,102.0,41,0.0,Stimuli/Blank.png,0,0,0.0,0,165,165,165,,,,,,,,,,,,,101.77335809999931,0.02335809999931371,None,,136.17285340000126,136.17285340000126,136.17285340000126,136.17285340000126,136.17285340000126,136.17285340000126,136.17285340000126,136.17285340000126,136.17285340000126,136.17285340000126,003,P003,2025_Jan_18_1124,ConditionRich,2021.2.3,59.931486324881014,
102.0,102.75,23,0.75,Stimuli/P003/things_butterfly_02s.jpg,1,0,0.75,0,166,166,166,,,,,,,,,,,,,102.00590759999977,0.005907599999773083,1,0.4662262000001647,136.40637950000018,136.40637950000018,136.40637950000018,136.40637950000018,136.40637950000018,136.40637950000018,136.40637950000018,137.14032380000026,136.40637950000018,136.40637950000018,003,P003,2025_Jan_18_1124,ConditionRich,2021.2.3,59.931486324881014,
102.75,103.0,41,0.0,Stimuli/Blank.png,0,0,0.0,0,167,167,167,,,,,,,,,,,,,102.75601339999957,0.006013399999574176,None,,137.15704460000052,137.15704460000052,137.15704460000052,137.15704460000052,137.15704460000052,137.15704460000052,137.15704460000052,137.15704460000052,137.15704460000052,137.15704460000052,003,P003,2025_Jan_18_1124,ConditionRich,2021.2.3,59.931486324881014,
103.0,103.75,23,0.75,Stimuli/P003/things_butterfly_02s.jpg,0,0,0.0,0,168,168,168,,,,,,,,,,,,,103.00628750000033,0.006287500000325963,None,,137.40725440000097,137.40725440000097,137.40725440000097,137.40725440000097,137.40725440000097,137.40725440000097,137.40725440000097,137.40725440000097,137.40725440000097,137.40725440000097,003,P003,2025_Jan_18_1124,ConditionRich,2021.2.3,59.931486324881014,
103.75,104.0,41,0.0,Stimuli/Blank.png,0,0,0.0,0,169,169,169,,,,,,,,,,,,,103.75728999999956,0.00728999999955704,None,,138.15792940000028,138.15792940000028,138.15792940000028,138.15792940000028,138.15792940000028,138.15792940000028,138.15792940000028,138.15792940000028,138.15792940000028,138.15792940000028,003,P003,2025_Jan_18_1124,ConditionRich,2021.2.3,59.931486324881014,
104.0,104.75,38,0.75,Stimuli/P003/things_slug_02s.jpg,0,0,0.0,0,170,170,170,,,,,,,,,,,,,104.00823289999971,0.008232899999711663,None,,138.42481990000124,138.42481990000124,138.42481990000124,138.42481990000124,138.42481990000124,138.42481990000124,138.42481990000124,138.42481990000124,138.42481990000124,138.42481990000124,003,P003,2025_Jan_18_1124,ConditionRich,2021.2.3,59.931486324881014,
104.75,105.0,41,0.0,Stimuli/Blank.png,0,0,0.0,0,171,171,171,,,,,,,,,,,,,104.77467219999926,0.024672199999258737,None,,139.17549070000132,139.17549070000132,139.17549070000132,139.17549070000132,139.17549070000132,139.17549070000132,139.17549070000132,139.17549070000132,139.17549070000132,139.17549070000132,003,P003,2025_Jan_18_1124,ConditionRich,2021.2.3,59.931486324881014,
105.0,105.75,38,0.75,Stimuli/P003/things_slug_02s.jpg,0,0,0.0,0,172,172,172,,,,,,,,,,,,,105.00837649999994,0.008376499999940279,None,,139.40901850000046,139.40901850000046,139.40901850000046,139.40901850000046,139.40901850000046,139.40901850000046,139.40901850000046,139.40901850000046,139.40901850000046,139.40901850000046,003,P003,2025_Jan_18_1124,ConditionRich,2021.2.3,59.931486324881014,
105.75,106.0,41,0.0,Stimuli/Blank.png,0,0,0.0,0,173,173,173,,,,,,,,,,,,,105.7593625999998,0.009362599999803933,None,,140.15968280000016,140.15968280000016,140.15968280000016,140.15968280000016,140.15968280000016,140.15968280000016,140.15968280000016,140.15968280000016,140.15968280000016,140.15968280000016,003,P003,2025_Jan_18_1124,ConditionRich,2021.2.3,59.931486324881014,
106.0,106.75,38,0.75,Stimuli/P003/things_slug_02s.jpg,0,0,0.0,0,174,174,174,,,,,,,,,,,,,106.00957009999911,0.009570099999109516,None,,140.40989600000103,140.40989600000103,140.40989600000103,140.40989600000103,140.40989600000103,140.40989600000103,140.40989600000103,140.40989600000103,140.40989600000103,140.40989600000103,003,P003,2025_Jan_18_1124,ConditionRich,2021.2.3,59.931486324881014,
106.75,107.0,41,0.0,Stimuli/Blank.png,0,0,0.0,0,175,175,175,,,,,,,,,,,,,106.76018399999884,0.010183999998844229,None,,141.1605784000003,141.1605784000003,141.1605784000003,141.1605784000003,141.1605784000003,141.1605784000003,141.1605784000003,141.1605784000003,141.1605784000003,141.1605784000003,003,P003,2025_Jan_18_1124,ConditionRich,2021.2.3,59.931486324881014,
107.0,107.75,38,0.75,Stimuli/P003/things_slug_02s.jpg,0,0,0.0,0,176,176,176,,,,,,,,,,,,,107.01001569999971,0.010015699999712524,None,,141.41078780000134,141.41078780000134,141.41078780000134,141.41078780000134,141.41078780000134,141.41078780000134,141.41078780000134,141.41078780000134,141.41078780000134,141.41078780000134,003,P003,2025_Jan_18_1124,ConditionRich,2021.2.3,59.931486324881014,
107.75,108.0,41,0.0,Stimuli/Blank.png,0,0,0.0,0,177,177,177,,,,,,,,,,,,,107.76112040000044,0.011120400000436348,5,0.21817430000010063,142.1614440000012,142.1614440000012,142.1614440000012,142.1614440000012,142.1614440000012,142.1614440000012,142.1614440000012,142.1614440000012,142.1614440000012,142.1614440000012,003,P003,2025_Jan_18_1124,ConditionRich,2021.2.3,59.931486324881014,
108.0,108.75,28,0.75,Stimuli/P003/things_man_02s.jpg,0,0,0.0,0,178,178,178,,,,,,,,,,,,,108.01137670000026,0.011376700000255369,None,,142.4116369000003,142.4116369000003,142.4116369000003,142.4116369000003,142.4116369000003,142.4116369000003,142.4116369000003,142.4116369000003,142.4116369000003,142.4116369000003,003,P003,2025_Jan_18_1124,ConditionRich,2021.2.3,59.931486324881014,
108.75,109.0,41,0.0,Stimuli/Blank.png,0,0,0.0,0,179,179,179,,,,,,,,,,,,,108.76133649999974,0.011336499999742955,None,,143.16231619999962,143.16231619999962,143.16231619999962,143.16231619999962,143.16231619999962,143.16231619999962,143.16231619999962,143.16231619999962,143.16231619999962,143.16231619999962,003,P003,2025_Jan_18_1124,ConditionRich,2021.2.3,59.931486324881014,
109.0,109.75,28,0.75,Stimuli/P003/things_man_02s.jpg,0,0,0.0,0,180,180,180,,,,,,,,,,,,,109.01237050000054,0.012370500000542961,None,,143.429227300001,143.429227300001,143.429227300001,143.429227300001,143.429227300001,143.429227300001,143.429227300001,143.429227300001,143.429227300001,143.429227300001,003,P003,2025_Jan_18_1124,ConditionRich,2021.2.3,59.931486324881014,
109.75,110.0,41,0.0,Stimuli/Blank.png,0,0,0.0,0,181,181,181,,,,,,,,,,,,,109.78015039999991,0.030150399999911315,5,0.18299540000043635,144.19658400000117,144.19658400000117,144.19658400000117,144.19658400000117,144.19658400000117,144.19658400000117,144.19658400000117,144.19658400000117,144.19658400000117,144.19658400000117,003,P003,2025_Jan_18_1124,ConditionRich,2021.2.3,59.931486324881014,
110.0,110.75,28,0.75,Stimuli/P003/things_man_02s.jpg,0,0,0.0,0,182,182,182,,,,,,,,,,,,,110.0295342999998,0.02953429999979562,None,,144.4301198000012,144.4301198000012,144.4301198000012,144.4301198000012,144.4301198000012,144.4301198000012,144.4301198000012,144.4301198000012,144.4301198000012,144.4301198000012,003,P003,2025_Jan_18_1124,ConditionRich,2021.2.3,59.931486324881014,
110.75,111.0,41,0.0,Stimuli/Blank.png,0,0,0.0,0,183,183,183,,,,,,,,,,,,,110.76568129999941,0.015681299999414477,None,,145.1807712000009,145.1807712000009,145.1807712000009,145.1807712000009,145.1807712000009,145.1807712000009,145.1807712000009,145.1807712000009,145.1807712000009,145.1807712000009,003,P003,2025_Jan_18_1124,ConditionRich,2021.2.3,59.931486324881014,
111.0,111.75,28,0.75,Stimuli/P003/things_man_02s.jpg,0,0,0.0,0,184,184,184,,,,,,,,,,,,,111.01594160000059,0.01594160000058764,None,,145.43099000000075,145.43099000000075,145.43099000000075,145.43099000000075,145.43099000000075,145.43099000000075,145.43099000000075,145.43099000000075,145.43099000000075,145.43099000000075,003,P003,2025_Jan_18_1124,ConditionRich,2021.2.3,59.931486324881014,
111.75,112.0,41,0.0,Stimuli/Blank.png,0,0,0.0,0,185,185,185,,,,,,,,,,,,,111.76464230000056,0.014642300000559771,5,0.21458260000144946,146.16497580000032,146.16497580000032,146.16497580000032,146.16497580000032,146.16497580000032,146.16497580000032,146.16497580000032,146.16497580000032,146.16497580000032,146.16497580000032,003,P003,2025_Jan_18_1124,ConditionRich,2021.2.3,59.931486324881014,
112.0,112.75,10,0.75,Stimuli/P003/sun_azzneunxibjvypza.jpg,0,0,0.0,0,186,186,186,,,,,,,,,,,,,112.0144079999991,0.01440799999909359,None,,146.41518610000094,146.41518610000094,146.41518610000094,146.41518610000094,146.41518610000094,146.41518610000094,146.41518610000094,146.41518610000094,146.41518610000094,146.41518610000094,003,P003,2025_Jan_18_1124,ConditionRich,2021.2.3,59.931486324881014,
112.75,113.0,41,0.0,Stimuli/Blank.png,0,0,0.0,0,187,187,187,,,,,,,,,,,,,112.76553609999974,0.015536099999735598,None,,147.1658578000006,147.1658578000006,147.1658578000006,147.1658578000006,147.1658578000006,147.1658578000006,147.1658578000006,147.1658578000006,147.1658578000006,147.1658578000006,003,P003,2025_Jan_18_1124,ConditionRich,2021.2.3,59.931486324881014,
113.0,113.75,10,0.75,Stimuli/P003/sun_azzneunxibjvypza.jpg,0,0,0.0,0,188,188,188,,,,,,,,,,,,,112.99837630000002,-0.001623699999981909,None,,147.39938690000054,147.39938690000054,147.39938690000054,147.39938690000054,147.39938690000054,147.39938690000054,147.39938690000054,147.39938690000054,147.39938690000054,147.39938690000054,003,P003,2025_Jan_18_1124,ConditionRich,2021.2.3,59.931486324881014,
113.75,114.0,41,0.0,Stimuli/Blank.png,0,0,0.0,0,189,189,189,,,,,,,,,,,,,113.74963449999996,-0.00036550000004353933,None,,148.1500429000007,148.1500429000007,148.1500429000007,148.1500429000007,148.1500429000007,148.1500429000007,148.1500429000007,148.1500429000007,148.1500429000007,148.1500429000007,003,P003,2025_Jan_18_1124,ConditionRich,2021.2.3,59.931486324881014,
114.0,114.75,10,0.75,Stimuli/P003/sun_azzneunxibjvypza.jpg,0,0,0.0,0,190,190,190,,,,,,,,,,,,,114.00043000000005,0.00043000000005122274,None,,148.41694439999992,148.41694439999992,148.41694439999992,148.41694439999992,148.41694439999992,148.41694439999992,148.41694439999992,148.41694439999992,148.41694439999992,148.41694439999992,003,P003,2025_Jan_18_1124,ConditionRich,2021.2.3,59.931486324881014,
114.75,115.0,41,0.0,Stimuli/Blank.png,0,0,0.0,0,191,191,191,,,,,,,,,,,,,114.7670906000003,0.017090600000301492,None,,149.16767940000136,149.16767940000136,149.16767940000136,149.16767940000136,149.16767940000136,149.16767940000136,149.16767940000136,149.16767940000136,149.16767940000136,149.16767940000136,003,P003,2025_Jan_18_1124,ConditionRich,2021.2.3,59.931486324881014,
115.0,115.75,10,0.75,Stimuli/P003/sun_azzneunxibjvypza.jpg,0,0,0.0,0,192,192,192,,,,,,,,,,,,,115.00035949999983,0.0003594999998313142,None,,149.401148500001,149.401148500001,149.401148500001,149.401148500001,149.401148500001,149.401148500001,149.401148500001,149.401148500001,149.401148500001,149.401148500001,003,P003,2025_Jan_18_1124,ConditionRich,2021.2.3,59.931486324881014,
115.75,116.0,41,0.0,Stimuli/Blank.png,0,0,0.0,0,193,193,193,,,,,,,,,,,,,115.75147569999899,0.001475699998991331,None,,150.1518128000007,150.1518128000007,150.1518128000007,150.1518128000007,150.1518128000007,150.1518128000007,150.1518128000007,150.1518128000007,150.1518128000007,150.1518128000007,003,P003,2025_Jan_18_1124,ConditionRich,2021.2.3,59.931486324881014,
116.0,116.75,30,0.75,Stimuli/P003/things_music_box_02s.jpg,0,0,0.0,0,194,194,194,,,,,,,,,,,,,116.00163299999986,0.0016329999998561107,None,,150.40203050000127,150.40203050000127,150.40203050000127,150.40203050000127,150.40203050000127,150.40203050000127,150.40203050000127,150.40203050000127,150.40203050000127,150.40203050000127,003,P003,2025_Jan_18_1124,ConditionRich,2021.2.3,59.931486324881014,
116.75,117.0,41,0.0,Stimuli/Blank.png,0,0,0.0,0,195,195,195,,,,,,,,,,,,,116.75245449999966,0.0024544999996578554,None,,151.15268970000034,151.15268970000034,151.15268970000034,151.15268970000034,151.15268970000034,151.15268970000034,151.15268970000034,151.15268970000034,151.15268970000034,151.15268970000034,003,P003,2025_Jan_18_1124,ConditionRich,2021.2.3,59.931486324881014,
117.0,117.75,30,0.75,Stimuli/P003/things_music_box_02s.jpg,0,0,0.0,0,196,196,196,,,,,,,,,,,,,117.00473950000014,0.004739500000141561,None,,151.419589000001,151.419589000001,151.419589000001,151.419589000001,151.419589000001,151.419589000001,151.419589000001,151.419589000001,151.419589000001,151.419589000001,003,P003,2025_Jan_18_1124,ConditionRich,2021.2.3,59.931486324881014,
117.75,118.0,41,0.0,Stimuli/Blank.png,0,0,0.0,0,197,197,197,,,,,,,,,,,,,117.77031050000005,0.020310500000050524,None,,152.170257400001,152.170257400001,152.170257400001,152.170257400001,152.170257400001,152.170257400001,152.170257400001,152.170257400001,152.170257400001,152.170257400001,003,P003,2025_Jan_18_1124,ConditionRich,2021.2.3,59.931486324881014,
118.0,118.75,30,0.75,Stimuli/P003/things_music_box_02s.jpg,0,0,0.0,0,198,198,198,,,,,,,,,,,,,118.00514169999951,0.005141699999512639,None,,152.4204754000002,152.4204754000002,152.4204754000002,152.4204754000002,152.4204754000002,152.4204754000002,152.4204754000002,152.4204754000002,152.4204754000002,152.4204754000002,003,P003,2025_Jan_18_1124,ConditionRich,2021.2.3,59.931486324881014,
118.75,119.0,41,0.0,Stimuli/Blank.png,0,0,0.0,0,199,199,199,,,,,,,,,,,,,118.77120789999935,0.021207899999353685,None,,153.17113360000076,153.17113360000076,153.17113360000076,153.17113360000076,153.17113360000076,153.17113360000076,153.17113360000076,153.17113360000076,153.17113360000076,153.17113360000076,003,P003,2025_Jan_18_1124,ConditionRich,2021.2.3,59.931486324881014,
119.0,119.75,30,0.75,Stimuli/P003/things_music_box_02s.jpg,0,0,0.0,0,200,200,200,,,,,,,,,,,,,119.00454910000008,0.004549100000076578,None,,153.40467290000015,153.40467290000015,153.40467290000015,153.40467290000015,153.40467290000015,153.40467290000015,153.40467290000015,153.40467290000015,153.40467290000015,153.40467290000015,003,P003,2025_Jan_18_1124,ConditionRich,2021.2.3,59.931486324881014,
119.75,120.0,41,0.0,Stimuli/Blank.png,0,0,0.0,0,201,201,201,,,,,,,,,,,,,119.75441349999892,0.004413499998918269,None,,154.15533719999985,154.15533719999985,154.15533719999985,154.15533719999985,154.15533719999985,154.15533719999985,154.15533719999985,154.15533719999985,154.15533719999985,154.15533719999985,003,P003,2025_Jan_18_1124,ConditionRich,2021.2.3,59.931486324881014,
120.0,120.75,3,0.75,Stimuli/P003/sun_afqjzrocqhabifao.jpg,0,0,0.0,0,202,202,202,,,,,,,,,,,,,120.00496960000055,0.00496960000054969,None,,154.40555330000097,154.40555330000097,154.40555330000097,154.40555330000097,154.40555330000097,154.40555330000097,154.40555330000097,154.40555330000097,154.40555330000097,154.40555330000097,003,P003,2025_Jan_18_1124,ConditionRich,2021.2.3,59.931486324881014,
120.75,121.0,41,0.0,Stimuli/Blank.png,0,0,0.0,0,203,203,203,,,,,,,,,,,,,120.75612860000001,0.00612860000001092,None,,155.15620730000046,155.15620730000046,155.15620730000046,155.15620730000046,155.15620730000046,155.15620730000046,155.15620730000046,155.15620730000046,155.15620730000046,155.15620730000046,003,P003,2025_Jan_18_1124,ConditionRich,2021.2.3,59.931486324881014,
121.0,121.75,3,0.75,Stimuli/P003/sun_afqjzrocqhabifao.jpg,1,0,0.75,0,204,204,204,,,,,,,,,,,,,121.00553949999994,0.005539499999940745,1,0.42609339999944496,155.40643079999973,155.40643079999973,155.40643079999973,155.40643079999973,155.40643079999973,155.40643079999973,155.40643079999973,156.1403831000007,155.40643079999973,155.40643079999973,003,P003,2025_Jan_18_1124,ConditionRich,2021.2.3,59.931486324881014,
121.75,122.0,41,0.0,Stimuli/Blank.png,0,0,0.0,0,205,205,205,,,,,,,,,,,,,121.75624339999922,0.0062433999992208555,None,,156.15709150000112,156.15709150000112,156.15709150000112,156.15709150000112,156.15709150000112,156.15709150000112,156.15709150000112,156.15709150000112,156.15709150000112,156.15709150000112,003,P003,2025_Jan_18_1124,ConditionRich,2021.2.3,59.931486324881014,
122.0,122.75,3,0.75,Stimuli/P003/sun_afqjzrocqhabifao.jpg,0,0,0.0,0,206,206,206,,,,,,,,,,,,,122.00656019999951,0.006560199999512406,None,,156.42400110000017,156.42400110000017,156.42400110000017,156.42400110000017,156.42400110000017,156.42400110000017,156.42400110000017,156.42400110000017,156.42400110000017,156.42400110000017,003,P003,2025_Jan_18_1124,ConditionRich,2021.2.3,59.931486324881014,
122.75,123.0,41,0.0,Stimuli/Blank.png,0,0,0.0,0,207,207,207,,,,,,,,,,,,,122.7750419999993,0.02504199999930279,None,,157.17466440000135,157.17466440000135,157.17466440000135,157.17466440000135,157.17466440000135,157.17466440000135,157.17466440000135,157.17466440000135,157.17466440000135,157.17466440000135,003,P003,2025_Jan_18_1124,ConditionRich,2021.2.3,59.931486324881014,
123.0,123.75,3,0.75,Stimuli/P003/sun_afqjzrocqhabifao.jpg,0,0,0.0,0,208,208,208,,,,,,,,,,,,,123.00981289999982,0.009812899999815272,None,,157.42488279999998,157.42488279999998,157.42488279999998,157.42488279999998,157.42488279999998,157.42488279999998,157.42488279999998,157.42488279999998,157.42488279999998,157.42488279999998,003,P003,2025_Jan_18_1124,ConditionRich,2021.2.3,59.931486324881014,
123.75,124.0,41,0.0,Stimuli/Blank.png,0,0,0.0,0,209,209,209,,,,,,,,,,,,,123.77534919999925,0.02534919999925478,5,0.1873520000008284,158.19223600000078,158.19223600000078,158.19223600000078,158.19223600000078,158.19223600000078,158.19223600000078,158.19223600000078,158.19223600000078,158.19223600000078,158.19223600000078,003,P003,2025_Jan_18_1124,ConditionRich,2021.2.3,59.931486324881014,
124.0,124.75,20,0.75,Stimuli/P003/sun_bwytihadgigwkyht.jpg,0,0,0.0,0,210,210,210,,,,,,,,,,,,,124.02582249999978,0.025822499999776483,None,,158.44245750000118,158.44245750000118,158.44245750000118,158.44245750000118,158.44245750000118,158.44245750000118,158.44245750000118,158.44245750000118,158.44245750000118,158.44245750000118,003,P003,2025_Jan_18_1124,ConditionRich,2021.2.3,59.931486324881014,
124.75,125.0,41,0.0,Stimuli/Blank.png,0,0,0.0,0,211,211,211,,,,,,,,,,,,,124.77605029999904,0.02605029999904218,None,,159.17641840000033,159.17641840000033,159.17641840000033,159.17641840000033,159.17641840000033,159.17641840000033,159.17641840000033,159.17641840000033,159.17641840000033,159.17641840000033,003,P003,2025_Jan_18_1124,ConditionRich,2021.2.3,59.931486324881014,
125.0,125.75,20,0.75,Stimuli/P003/sun_bwytihadgigwkyht.jpg,0,0,0.0,0,212,212,212,,,,,,,,,,,,,125.01005559999976,0.010055599999759579,None,,159.4266359000012,159.4266359000012,159.4266359000012,159.4266359000012,159.4266359000012,159.4266359000012,159.4266359000012,159.4266359000012,159.4266359000012,159.4266359000012,003,P003,2025_Jan_18_1124,ConditionRich,2021.2.3,59.931486324881014,
125.75,126.0,41,0.0,Stimuli/Blank.png,0,0,0.0,0,213,213,213,,,,,,,,,,,,,125.77674519999891,0.02674519999891345,None,,160.17731000000094,160.17731000000094,160.17731000000094,160.17731000000094,160.17731000000094,160.17731000000094,160.17731000000094,160.17731000000094,160.17731000000094,160.17731000000094,003,P003,2025_Jan_18_1124,ConditionRich,2021.2.3,59.931486324881014,
126.0,126.75,20,0.75,Stimuli/P003/sun_bwytihadgigwkyht.jpg,0,0,0.0,0,214,214,214,,,,,,,,,,,,,126.01000079999903,0.010000799999033916,None,,160.41081790000135,160.41081790000135,160.41081790000135,160.41081790000135,160.41081790000135,160.41081790000135,160.41081790000135,160.41081790000135,160.41081790000135,160.41081790000135,003,P003,2025_Jan_18_1124,ConditionRich,2021.2.3,59.931486324881014,
126.75,127.0,41,0.0,Stimuli/Blank.png,0,0,0.0,0,215,215,215,,,,,,,,,,,,,126.76121830000011,0.011218300000109593,None,,161.1614748000011,161.1614748000011,161.1614748000011,161.1614748000011,161.1614748000011,161.1614748000011,161.1614748000011,161.1614748000011,161.1614748000011,161.1614748000011,003,P003,2025_Jan_18_1124,ConditionRich,2021.2.3,59.931486324881014,
127.0,127.75,20,0.75,Stimuli/P003/sun_bwytihadgigwkyht.jpg,0,0,0.0,0,216,216,216,,,,,,,,,,,,,127.01169300000038,0.011693000000377651,None,,161.41172259999985,161.41172259999985,161.41172259999985,161.41172259999985,161.41172259999985,161.41172259999985,161.41172259999985,161.41172259999985,161.41172259999985,161.41172259999985,003,P003,2025_Jan_18_1124,ConditionRich,2021.2.3,59.931486324881014,
127.75,128.0,41,0.0,Stimuli/Blank.png,0,0,0.0,0,217,217,217,,,,,,,,,,,,,127.76153329999943,0.011533299999427982,5,0.2172515000002022,162.16238180000073,162.16238180000073,162.16238180000073,162.16238180000073,162.16238180000073,162.16238180000073,162.16238180000073,162.16238180000073,162.16238180000073,162.16238180000073,003,P003,2025_Jan_18_1124,ConditionRich,2021.2.3,59.931486324881014,
128.0,128.75,8,0.75,Stimuli/P003/sun_asxkyzleyfgbqfrs.jpg,0,0,0.0,0,218,218,218,,,,,,,,,,,,,128.01195799999914,0.011957999999140156,None,,162.42928670000038,162.42928670000038,162.42928670000038,162.42928670000038,162.42928670000038,162.42928670000038,162.42928670000038,162.42928670000038,162.42928670000038,162.42928670000038,003,P003,2025_Jan_18_1124,ConditionRich,2021.2.3,59.931486324881014,
128.75,129.0,41,0.0,Stimuli/Blank.png,0,0,0.0,0,219,219,219,,,,,,,,,,,,,128.78031069999997,0.030310699999972712,None,,163.17996140000105,163.17996140000105,163.17996140000105,163.17996140000105,163.17996140000105,163.17996140000105,163.17996140000105,163.17996140000105,163.17996140000105,163.17996140000105,003,P003,2025_Jan_18_1124,ConditionRich,2021.2.3,59.931486324881014,
129.0,129.75,8,0.75,Stimuli/P003/sun_asxkyzleyfgbqfrs.jpg,0,0,0.0,0,220,220,220,,,,,,,,,,,,,129.01507159999892,0.015071599998918828,None,,163.43016440000065,163.43016440000065,163.43016440000065,163.43016440000065,163.43016440000065,163.43016440000065,163.43016440000065,163.43016440000065,163.43016440000065,163.43016440000065,003,P003,2025_Jan_18_1124,ConditionRich,2021.2.3,59.931486324881014,
129.75,130.0,41,0.0,Stimuli/Blank.png,0,0,0.0,0,221,221,221,,,,,,,,,,,,,129.76607479999984,0.01607479999984207,5,0.19864589999997406,164.18084090000048,164.18084090000048,164.18084090000048,164.18084090000048,164.18084090000048,164.18084090000048,164.18084090000048,164.18084090000048,164.18084090000048,164.18084090000048,003,P003,2025_Jan_18_1124,ConditionRich,2021.2.3,59.931486324881014,
130.0,130.75,8,0.75,Stimuli/P003/sun_asxkyzleyfgbqfrs.jpg,0,0,0.0,0,222,222,222,,,,,,,,,,,,,130.01335350000045,0.013353500000448548,None,,164.4143664000003,164.4143664000003,164.4143664000003,164.4143664000003,164.4143664000003,164.4143664000003,164.4143664000003,164.4143664000003,164.4143664000003,164.4143664000003,003,P003,2025_Jan_18_1124,ConditionRich,2021.2.3,59.931486324881014,
130.75,131.0,41,0.0,Stimuli/Blank.png,0,0,0.0,0,223,223,223,,,,,,,,,,,,,130.76454269999886,0.014542699998855824,None,,165.16503910000029,165.16503910000029,165.16503910000029,165.16503910000029,165.16503910000029,165.16503910000029,165.16503910000029,165.16503910000029,165.16503910000029,165.16503910000029,003,P003,2025_Jan_18_1124,ConditionRich,2021.2.3,59.931486324881014,
131.0,131.75,8,0.75,Stimuli/P003/sun_asxkyzleyfgbqfrs.jpg,0,0,0.0,0,224,224,224,,,,,,,,,,,,,131.0152651999997,0.015265199999703327,None,,165.43194800000128,165.43194800000128,165.43194800000128,165.43194800000128,165.43194800000128,165.43194800000128,165.43194800000128,165.43194800000128,165.43194800000128,165.43194800000128,003,P003,2025_Jan_18_1124,ConditionRich,2021.2.3,59.931486324881014,
131.75,132.0,41,0.0,Stimuli/Blank.png,0,0,0.0,0,225,225,225,,,,,,,,,,,,,131.76619439999922,0.016194399999221787,5,0.1969015999984549,166.18259340000077,166.18259340000077,166.18259340000077,166.18259340000077,166.18259340000077,166.18259340000077,166.18259340000077,166.18259340000077,166.18259340000077,166.18259340000077,003,P003,2025_Jan_18_1124,ConditionRich,2021.2.3,59.931486324881014,
132.0,132.75,13,0.75,Stimuli/P003/sun_bhbiqbqmwrowrqpd.jpg,0,0,0.0,0,226,226,226,,,,,,,,,,,,,132.01612600000044,0.0161260000004404,None,,166.41613099999995,166.41613099999995,166.41613099999995,166.41613099999995,166.41613099999995,166.41613099999995,166.41613099999995,166.41613099999995,166.41613099999995,166.41613099999995,003,P003,2025_Jan_18_1124,ConditionRich,2021.2.3,59.931486324881014,
132.75,133.0,41,0.0,Stimuli/Blank.png,0,0,0.0,0,227,227,227,,,,,,,,,,,,,132.75005789999886,5.7899998864741065e-05,None,,167.16679570000088,167.16679570000088,167.16679570000088,167.16679570000088,167.16679570000088,167.16679570000088,167.16679570000088,167.16679570000088,167.16679570000088,167.16679570000088,003,P003,2025_Jan_18_1124,ConditionRich,2021.2.3,59.931486324881014,
133.0,133.75,13,0.75,Stimuli/P003/sun_bhbiqbqmwrowrqpd.jpg,0,0,0.0,0,228,228,228,,,,,,,,,,,,,133.01688090000061,0.01688090000061493,None,,167.4336946000003,167.4336946000003,167.4336946000003,167.4336946000003,167.4336946000003,167.4336946000003,167.4336946000003,167.4336946000003,167.4336946000003,167.4336946000003,003,P003,2025_Jan_18_1124,ConditionRich,2021.2.3,59.931486324881014,
133.75,134.0,41,0.0,Stimuli/Blank.png,0,0,0.0,0,229,229,229,,,,,,,,,,,,,133.76745089999895,0.017450899998948444,None,,168.1676841999997,168.1676841999997,168.1676841999997,168.1676841999997,168.1676841999997,168.1676841999997,168.1676841999997,168.1676841999997,168.1676841999997,168.1676841999997,003,P003,2025_Jan_18_1124,ConditionRich,2021.2.3,59.931486324881014,
134.0,134.75,13,0.75,Stimuli/P003/sun_bhbiqbqmwrowrqpd.jpg,0,0,0.0,0,230,230,230,,,,,,,,,,,,,134.00018719999935,0.0001871999993454665,None,,168.4012015999997,168.4012015999997,168.4012015999997,168.4012015999997,168.4012015999997,168.4012015999997,168.4012015999997,168.4012015999997,168.4012015999997,168.4012015999997,003,P003,2025_Jan_18_1124,ConditionRich,2021.2.3,59.931486324881014,
134.75,135.0,41,0.0,Stimuli/Blank.png,0,0,0.0,0,231,231,231,,,,,,,,,,,,,134.75114799999938,0.0011479999993753154,None,,169.1518673999999,169.1518673999999,169.1518673999999,169.1518673999999,169.1518673999999,169.1518673999999,169.1518673999999,169.1518673999999,169.1518673999999,169.1518673999999,003,P003,2025_Jan_18_1124,ConditionRich,2021.2.3,59.931486324881014,
135.0,135.75,13,0.75,Stimuli/P003/sun_bhbiqbqmwrowrqpd.jpg,0,0,0.0,0,232,232,232,,,,,,,,,,,,,135.0016018999995,0.0016018999995139893,None,,169.4187737000011,169.4187737000011,169.4187737000011,169.4187737000011,169.4187737000011,169.4187737000011,169.4187737000011,169.4187737000011,169.4187737000011,169.4187737000011,003,P003,2025_Jan_18_1124,ConditionRich,2021.2.3,59.931486324881014,
135.75,136.0,41,0.0,Stimuli/Blank.png,0,0,0.0,0,233,233,233,,,,,,,,,,,,,135.76922019999984,0.01922019999983604,None,,170.16942259999996,170.16942259999996,170.16942259999996,170.16942259999996,170.16942259999996,170.16942259999996,170.16942259999996,170.16942259999996,170.16942259999996,170.16942259999996,003,P003,2025_Jan_18_1124,ConditionRich,2021.2.3,59.931486324881014,
136.0,136.75,26,0.75,Stimuli/P003/things_ham_02s.jpg,0,0,0.0,0,234,234,234,,,,,,,,,,,,,136.00459070000034,0.004590700000335346,None,,170.41964910000024,170.41964910000024,170.41964910000024,170.41964910000024,170.41964910000024,170.41964910000024,170.41964910000024,170.41964910000024,170.41964910000024,170.41964910000024,003,P003,2025_Jan_18_1124,ConditionRich,2021.2.3,59.931486324881014,
136.75,137.0,41,0.0,Stimuli/Blank.png,0,0,0.0,0,235,235,235,,,,,,,,,,,,,136.77006419999998,0.020064199999978882,None,,171.17030859999977,171.17030859999977,171.17030859999977,171.17030859999977,171.17030859999977,171.17030859999977,171.17030859999977,171.17030859999977,171.17030859999977,171.17030859999977,003,P003,2025_Jan_18_1124,ConditionRich,2021.2.3,59.931486324881014,
137.0,137.75,26,0.75,Stimuli/P003/things_ham_02s.jpg,0,0,0.0,0,236,236,236,,,,,,,,,,,,,137.00484270000015,0.0048427000001538545,None,,171.42052730000069,171.42052730000069,171.42052730000069,171.42052730000069,171.42052730000069,171.42052730000069,171.42052730000069,171.42052730000069,171.42052730000069,171.42052730000069,003,P003,2025_Jan_18_1124,ConditionRich,2021.2.3,59.931486324881014,
137.75,138.0,41,0.0,Stimuli/Blank.png,0,0,0.0,0,237,237,237,,,,,,,,,,,,,137.77010119999977,0.02010119999977178,None,,172.17118990000017,172.17118990000017,172.17118990000017,172.17118990000017,172.17118990000017,172.17118990000017,172.17118990000017,172.17118990000017,172.17118990000017,172.17118990000017,003,P003,2025_Jan_18_1124,ConditionRich,2021.2.3,59.931486324881014,
138.0,138.75,26,0.75,Stimuli/P003/things_ham_02s.jpg,0,0,0.0,0,238,238,238,,,,,,,,,,,,,138.00449470000058,0.004494700000577723,None,,172.40472770000088,172.40472770000088,172.40472770000088,172.40472770000088,172.40472770000088,172.40472770000088,172.40472770000088,172.40472770000088,172.40472770000088,172.40472770000088,003,P003,2025_Jan_18_1124,ConditionRich,2021.2.3,59.931486324881014,
138.75,139.0,41,0.0,Stimuli/Blank.png,0,0,0.0,0,239,239,239,,,,,,,,,,,,,138.75444040000002,0.004440400000021327,None,,173.1553999000007,173.1553999000007,173.1553999000007,173.1553999000007,173.1553999000007,173.1553999000007,173.1553999000007,173.1553999000007,173.1553999000007,173.1553999000007,003,P003,2025_Jan_18_1124,ConditionRich,2021.2.3,59.931486324881014,
139.0,139.75,26,0.75,Stimuli/P003/things_ham_02s.jpg,0,0,0.0,0,240,240,240,,,,,,,,,,,,,139.0053700999997,0.005370099999709055,None,,173.42228980000073,173.42228980000073,173.42228980000073,173.42228980000073,173.42228980000073,173.42228980000073,173.42228980000073,173.42228980000073,173.42228980000073,173.42228980000073,003,P003,2025_Jan_18_1124,ConditionRich,2021.2.3,59.931486324881014,
139.75,140.0,41,0.0,Stimuli/Blank.png,0,0,0.0,0,241,241,241,,,,,,,,,,,,,139.77267009999923,0.022670099999231752,None,,174.17295130000093,174.17295130000093,174.17295130000093,174.17295130000093,174.17295130000093,174.17295130000093,174.17295130000093,174.17295130000093,174.17295130000093,174.17295130000093,003,P003,2025_Jan_18_1124,ConditionRich,2021.2.3,59.931486324881014,
140.0,140.75,1,0.75,Stimuli/P003/sun_adgmtzznutwlescq.jpg,0,0,0.0,0,242,242,242,,,,,,,,,,,,,140.0061874999992,0.006187499999214197,None,,174.40648909999982,174.40648909999982,174.40648909999982,174.40648909999982,174.40648909999982,174.40648909999982,174.40648909999982,174.40648909999982,174.40648909999982,174.40648909999982,003,P003,2025_Jan_18_1124,ConditionRich,2021.2.3,59.931486324881014,
140.75,141.0,41,0.0,Stimuli/Blank.png,0,0,0.0,0,243,243,243,,,,,,,,,,,,,140.75702180000008,0.007021800000075018,None,,175.15715070000078,175.15715070000078,175.15715070000078,175.15715070000078,175.15715070000078,175.15715070000078,175.15715070000078,175.15715070000078,175.15715070000078,175.15715070000078,003,P003,2025_Jan_18_1124,ConditionRich,2021.2.3,59.931486324881014,
141.0,141.75,1,0.75,Stimuli/P003/sun_adgmtzznutwlescq.jpg,0,0,0.0,0,244,244,244,,,,,,,,,,,,,141.00634979999995,0.0063497999999526655,None,,175.40736760000073,175.40736760000073,175.40736760000073,175.40736760000073,175.40736760000073,175.40736760000073,175.40736760000073,175.40736760000073,175.40736760000073,175.40736760000073,003,P003,2025_Jan_18_1124,ConditionRich,2021.2.3,59.931486324881014,
141.75,142.0,41,0.0,Stimuli/Blank.png,0,0,0.0,0,245,245,245,,,,,,,,,,,,,141.75745169999936,0.0074516999993647914,None,,176.15802970000004,176.15802970000004,176.15802970000004,176.15802970000004,176.15802970000004,176.15802970000004,176.15802970000004,176.15802970000004,176.15802970000004,176.15802970000004,003,P003,2025_Jan_18_1124,ConditionRich,2021.2.3,59.931486324881014,
142.0,142.75,1,0.75,Stimuli/P003/sun_adgmtzznutwlescq.jpg,0,0,0.0,0,246,246,246,,,,,,,,,,,,,142.0075880000004,0.007588000000396278,None,,176.40825190000032,176.40825190000032,176.40825190000032,176.40825190000032,176.40825190000032,176.40825190000032,176.40825190000032,176.40825190000032,176.40825190000032,176.40825190000032,003,P003,2025_Jan_18_1124,ConditionRich,2021.2.3,59.931486324881014,
142.75,143.0,41,0.0,Stimuli/Blank.png,0,0,0.0,0,247,247,247,,,,,,,,,,,,,142.76060010000037,0.010600100000374368,None,,177.17559980000078,177.17559980000078,177.17559980000078,177.17559980000078,177.17559980000078,177.17559980000078,177.17559980000078,177.17559980000078,177.17559980000078,177.17559980000078,003,P003,2025_Jan_18_1124,ConditionRich,2021.2.3,59.931486324881014,
143.0,143.75,1,0.75,Stimuli/P003/sun_adgmtzznutwlescq.jpg,0,0,0.0,0,248,248,248,,,,,,,,,,,,,143.02524099999937,0.025240999999368796,None,,177.42581120000068,177.42581120000068,177.42581120000068,177.42581120000068,177.42581120000068,177.42581120000068,177.42581120000068,177.42581120000068,177.42581120000068,177.42581120000068,003,P003,2025_Jan_18_1124,ConditionRich,2021.2.3,59.931486324881014,
143.75,144.0,41,0.0,Stimuli/Blank.png,0,0,0.0,0,249,249,249,,,,,,,,,,,,,143.75950779999948,0.009507799999482813,None,,178.15980149999996,178.15980149999996,178.15980149999996,178.15980149999996,178.15980149999996,178.15980149999996,178.15980149999996,178.15980149999996,178.15980149999996,178.15980149999996,003,P003,2025_Jan_18_1124,ConditionRich,2021.2.3,59.931486324881014,
144.0,144.75,12,0.75,Stimuli/P003/sun_bcboctumoxwpdefl.jpg,0,0,0.0,0,250,250,250,,,,,,,,,,,,,144.0092652000003,0.009265200000299956,None,,178.41001380000125,178.41001380000125,178.41001380000125,178.41001380000125,178.41001380000125,178.41001380000125,178.41001380000125,178.41001380000125,178.41001380000125,178.41001380000125,003,P003,2025_Jan_18_1124,ConditionRich,2021.2.3,59.931486324881014,
144.75,145.0,41,0.0,Stimuli/Blank.png,0,0,0.0,0,251,251,251,,,,,,,,,,,,,144.7609169999996,0.010916999999608379,None,,179.1606943000006,179.1606943000006,179.1606943000006,179.1606943000006,179.1606943000006,179.1606943000006,179.1606943000006,179.1606943000006,179.1606943000006,179.1606943000006,003,P003,2025_Jan_18_1124,ConditionRich,2021.2.3,59.931486324881014,
145.0,145.75,12,0.75,Stimuli/P003/sun_bcboctumoxwpdefl.jpg,1,0,0.75,0,252,252,252,,,,,,,,,,,,,145.01012309999896,0.01012309999896388,1,0.5068739999987883,179.41089350000038,179.41089350000038,179.41089350000038,179.41089350000038,179.41089350000038,179.41089350000038,179.41089350000038,180.14487000000008,179.41089350000038,179.41089350000038,003,P003,2025_Jan_18_1124,ConditionRich,2021.2.3,59.931486324881014,
145.75,146.0,41,0.0,Stimuli/Blank.png,0,0,0.0,0,253,253,253,,,,,,,,,,,,,145.76080209999964,0.010802099999636994,5,0.21796870000071067,180.16155890000118,180.16155890000118,180.16155890000118,180.16155890000118,180.16155890000118,180.16155890000118,180.16155890000118,180.16155890000118,180.16155890000118,180.16155890000118,003,P003,2025_Jan_18_1124,ConditionRich,2021.2.3,59.931486324881014,
146.0,146.75,12,0.75,Stimuli/P003/sun_bcboctumoxwpdefl.jpg,0,0,0.0,0,254,254,254,,,,,,,,,,,,,146.01114570000027,0.011145700000270153,None,,180.41178330000002,180.41178330000002,180.41178330000002,180.41178330000002,180.41178330000002,180.41178330000002,180.41178330000002,180.41178330000002,180.41178330000002,180.41178330000002,003,P003,2025_Jan_18_1124,ConditionRich,2021.2.3,59.931486324881014,
146.75,147.0,41,0.0,Stimuli/Blank.png,0,0,0.0,0,255,255,255,,,,,,,,,,,,,146.76211309999962,0.012113099999623955,None,,181.16243870000108,181.16243870000108,181.16243870000108,181.16243870000108,181.16243870000108,181.16243870000108,181.16243870000108,181.16243870000108,181.16243870000108,181.16243870000108,003,P003,2025_Jan_18_1124,ConditionRich,2021.2.3,59.931486324881014,
147.0,147.75,12,0.75,Stimuli/P003/sun_bcboctumoxwpdefl.jpg,0,0,0.0,0,256,256,256,,,,,,,,,,,,,147.01358619999883,0.013586199998826487,None,,181.4293405999997,181.4293405999997,181.4293405999997,181.4293405999997,181.4293405999997,181.4293405999997,181.4293405999997,181.4293405999997,181.4293405999997,181.4293405999997,003,P003,2025_Jan_18_1124,ConditionRich,2021.2.3,59.931486324881014,
147.75,148.0,41,0.0,Stimuli/Blank.png,0,0,0.0,0,257,257,257,,,,,,,,,,,,,147.77923939999891,0.02923939999891445,5,0.19952329999978247,182.17999790000067,182.17999790000067,182.17999790000067,182.17999790000067,182.17999790000067,182.17999790000067,182.17999790000067,182.17999790000067,182.17999790000067,182.17999790000067,003,P003,2025_Jan_18_1124,ConditionRich,2021.2.3,59.931486324881014,
148.0,148.75,19,0.75,Stimuli/P003/sun_bucebxfexknakpma.jpg,0,0,0.0,0,258,258,258,,,,,,,,,,,,,148.012840899999,0.012840899998991517,None,,182.4135382000004,182.4135382000004,182.4135382000004,182.4135382000004,182.4135382000004,182.4135382000004,182.4135382000004,182.4135382000004,182.4135382000004,182.4135382000004,003,P003,2025_Jan_18_1124,ConditionRich,2021.2.3,59.931486324881014,
148.75,149.0,41,0.0,Stimuli/Blank.png,0,0,0.0,0,259,259,259,,,,,,,,,,,,,148.76443859999927,0.014438599999266444,None,,183.16420590000052,183.16420590000052,183.16420590000052,183.16420590000052,183.16420590000052,183.16420590000052,183.16420590000052,183.16420590000052,183.16420590000052,183.16420590000052,003,P003,2025_Jan_18_1124,ConditionRich,2021.2.3,59.931486324881014,
