eventStartTime,eventEndTime,eventCond,imSize,imFile,responseEvent,fixRespStart,fixRespEnd,Events.thisRepN,Events.thisTrialN,Events.thisN,Events.thisIndex,Instructions.started,Instructions.stopped,participantReadyResponse.keys,participantReadyResponse.rt,participantReadyResponse.started,participantReadyResponse.stopped,startWaitforTrigger,triggerResponse.keys,triggerResponse.rt,triggerResponse.started,triggerResponse.stopped,globalTimer,actualStartTime,startTimingDiff,participantResponse.keys,participantResponse.rt,participantResponse.started,participantResponse.stopped,image.started,image.stopped,fixationOutside.started,fixationOutside.stopped,fixationResponse.started,fixationResponse.stopped,fixationInside.started,fixationInside.stopped,session,participant,date,expName,psychopyVersion,frameRate,
,,,,,,,,,,,,12.10246559999905,None,1,0.9560648999995465,12.10246559999905,None,,,,,,,,,,,,,,,,,,,,,009,P003,2025_Jan_18_1222,ConditionRich,2021.2.3,59.93048064203119,
,,,,,,,,,,,,,,,,,,13.077068900000086,5,15.690590500000326,13.089653199998793,None,,,,,,,,,,,,,,,,009,P003,2025_Jan_18_1222,ConditionRich,2021.2.3,59.93048064203119,
0.0,4.0,0,0.0,Stimuli/Blank.png,0,0,0.0,0,0,0,0,,,,,,,,,,,,28.790617599999678,0.05582949999916309,0.05582949999916309,5,3.910216700000092,28.870221699999092,None,28.870221699999092,None,28.870221699999092,None,28.870221699999092,28.870221699999092,28.870221699999092,None,009,P003,2025_Jan_18_1222,ConditionRich,2021.2.3,59.93048064203119,
4.0,4.75,17,0.75,Stimuli/P003/sun_bojovhhraxtgafcy.jpg,0,0,0.0,0,1,1,1,,,,,,,,,,,,,4.021763599999758,0.0217635999997583,None,,32.8406705999987,32.8406705999987,32.8406705999987,32.8406705999987,32.8406705999987,32.8406705999987,32.8406705999987,32.8406705999987,32.8406705999987,32.8406705999987,009,P003,2025_Jan_18_1222,ConditionRich,2021.2.3,59.93048064203119,
4.75,5.0,41,0.0,Stimuli/Blank.png,0,0,0.0,0,2,2,2,,,,,,,,,,,,,4.771256699999867,0.021256699999867124,None,,33.59143260000019,33.59143260000019,33.59143260000019,33.59143260000019,33.59143260000019,33.59143260000019,33.59143260000019,33.59143260000019,33.59143260000019,33.59143260000019,009,P003,2025_Jan_18_1222,ConditionRich,2021.2.3,59.93048064203119,
5.0,5.75,17,0.75,Stimuli/P003/sun_bojovhhraxtgafcy.jpg,0,0,0.0,0,3,3,3,,,,,,,,,,,,,5.020613000000594,0.020613000000594184,None,,33.8413103999992,33.8413103999992,33.8413103999992,33.8413103999992,33.8413103999992,33.8413103999992,33.8413103999992,33.8413103999992,33.8413103999992,33.8413103999992,009,P003,2025_Jan_18_1222,ConditionRich,2021.2.3,59.93048064203119,
5.75,6.0,41,0.0,Stimuli/Blank.png,0,0,0.0,0,4,4,4,,,,,,,,,,,,,5.770791499999177,0.020791499999177177,None,,34.575275899998815,34.575275899998815,34.575275899998815,34.575275899998815,34.575275899998815,34.575275899998815,34.575275899998815,34.575275899998815,34.575275899998815,34.575275899998815,009,P003,2025_Jan_18_1222,ConditionRich,2021.2.3,59.93048064203119,
6.0,6.75,17,0.75,Stimuli/P003/sun_bojovhhraxtgafcy.jpg,0,0,0.0,0,5,5,5,,,,,,,,,,,,,6.004067500000019,0.0040675000000192085,None,,34.808808099998714,34.808808099998714,34.808808099998714,34.808808099998714,34.808808099998714,34.808808099998714,34.808808099998714,34.808808099998714,34.808808099998714,34.808808099998714,009,P003,2025_Jan_18_1222,ConditionRich,2021.2.3,59.93048064203119,
6.75,7.0,41,0.0,Stimuli/Blank.png,0,0,0.0,0,6,6,6,,,,,,,,,,,,,6.755461599999762,0.005461599999762257,None,,35.559478499999386,35.559478499999386,35.559478499999386,35.559478499999386,35.559478499999386,35.559478499999386,35.559478499999386,35.559478499999386,35.559478499999386,35.559478499999386,009,P003,2025_Jan_18_1222,ConditionRich,2021.2.3,59.93048064203119,
7.0,7.75,17,0.75,Stimuli/P003/sun_bojovhhraxtgafcy.jpg,0,0,0.0,0,7,7,7,,,,,,,,,,,,,7.0045855999997,0.004585599999700207,None,,35.80968709999979,35.80968709999979,35.80968709999979,35.80968709999979,35.80968709999979,35.80968709999979,35.80968709999979,35.80968709999979,35.80968709999979,35.80968709999979,009,P003,2025_Jan_18_1222,ConditionRich,2021.2.3,59.93048064203119,
7.75,8.0,41,0.0,Stimuli/Blank.png,0,0,0.0,0,8,8,8,,,,,,,,,,,,,7.75556940000024,0.005569400000240421,None,,36.560356399999364,36.560356399999364,36.560356399999364,36.560356399999364,36.560356399999364,36.560356399999364,36.560356399999364,36.560356399999364,36.560356399999364,36.560356399999364,009,P003,2025_Jan_18_1222,ConditionRich,2021.2.3,59.93048064203119,
8.0,8.75,27,0.75,Stimuli/P003/things_llama_02s.jpg,0,0,0.0,0,9,9,9,,,,,,,,,,,,,8.005842399999892,0.005842399999892223,None,,36.827264899999136,36.827264899999136,36.827264899999136,36.827264899999136,36.827264899999136,36.827264899999136,36.827264899999136,36.827264899999136,36.827264899999136,36.827264899999136,009,P003,2025_Jan_18_1222,ConditionRich,2021.2.3,59.93048064203119,
8.75,9.0,41,0.0,Stimuli/Blank.png,0,0,0.0,0,10,10,10,,,,,,,,,,,,,8.77284680000048,0.02284680000047956,None,,37.57790609999938,37.57790609999938,37.57790609999938,37.57790609999938,37.57790609999938,37.57790609999938,37.57790609999938,37.57790609999938,37.57790609999938,37.57790609999938,009,P003,2025_Jan_18_1222,ConditionRich,2021.2.3,59.93048064203119,
9.0,9.75,27,0.75,Stimuli/P003/things_llama_02s.jpg,0,0,0.0,0,11,11,11,,,,,,,,,,,,,9.009155100000498,0.00915510000049835,None,,37.82813399999941,37.82813399999941,37.82813399999941,37.82813399999941,37.82813399999941,37.82813399999941,37.82813399999941,37.82813399999941,37.82813399999941,37.82813399999941,009,P003,2025_Jan_18_1222,ConditionRich,2021.2.3,59.93048064203119,
9.75,10.0,41,0.0,Stimuli/Blank.png,0,0,0.0,0,12,12,12,,,,,,,,,,,,,9.774731199999223,0.024731199999223463,5,0.2013796999999613,38.578799699998854,38.578799699998854,38.578799699998854,38.578799699998854,38.578799699998854,38.578799699998854,38.578799699998854,38.578799699998854,38.578799699998854,38.578799699998854,009,P003,2025_Jan_18_1222,ConditionRich,2021.2.3,59.93048064203119,
10.0,10.75,27,0.75,Stimuli/P003/things_llama_02s.jpg,0,0,0.0,0,13,13,13,,,,,,,,,,,,,10.007489800000258,0.007489800000257674,None,,38.81232799999998,38.81232799999998,38.81232799999998,38.81232799999998,38.81232799999998,38.81232799999998,38.81232799999998,38.81232799999998,38.81232799999998,38.81232799999998,009,P003,2025_Jan_18_1222,ConditionRich,2021.2.3,59.93048064203119,
10.75,11.0,41,0.0,Stimuli/Blank.png,0,0,0.0,0,14,14,14,,,,,,,,,,,,,10.759031499999764,0.009031499999764492,None,,39.56299299999955,39.56299299999955,39.56299299999955,39.56299299999955,39.56299299999955,39.56299299999955,39.56299299999955,39.56299299999955,39.56299299999955,39.56299299999955,009,P003,2025_Jan_18_1222,ConditionRich,2021.2.3,59.93048064203119,
11.0,11.75,27,0.75,Stimuli/P003/things_llama_02s.jpg,0,0,0.0,0,15,15,15,,,,,,,,,,,,,11.008921000000555,0.008921000000555068,None,,39.813210499998604,39.813210499998604,39.813210499998604,39.813210499998604,39.813210499998604,39.813210499998604,39.813210499998604,39.813210499998604,39.813210499998604,39.813210499998604,009,P003,2025_Jan_18_1222,ConditionRich,2021.2.3,59.93048064203119,
11.75,12.0,41,0.0,Stimuli/Blank.png,0,0,0.0,0,16,16,16,,,,,,,,,,,,,11.758791199999905,0.008791199999905075,5,0.21641389999967942,40.56387319999885,40.56387319999885,40.56387319999885,40.56387319999885,40.56387319999885,40.56387319999885,40.56387319999885,40.56387319999885,40.56387319999885,40.56387319999885,009,P003,2025_Jan_18_1222,ConditionRich,2021.2.3,59.93048064203119,
12.0,12.75,14,0.75,Stimuli/P003/sun_bhhtrmwvoadbfucw.jpg,0,0,0.0,0,17,17,17,,,,,,,,,,,,,12.009069899999304,0.009069899999303743,None,,40.81409699999858,40.81409699999858,40.81409699999858,40.81409699999858,40.81409699999858,40.81409699999858,40.81409699999858,40.81409699999858,40.81409699999858,40.81409699999858,009,P003,2025_Jan_18_1222,ConditionRich,2021.2.3,59.93048064203119,
12.75,13.0,41,0.0,Stimuli/Blank.png,0,0,0.0,0,18,18,18,,,,,,,,,,,,,12.760383900000306,0.010383900000306312,None,,41.56476109999858,41.56476109999858,41.56476109999858,41.56476109999858,41.56476109999858,41.56476109999858,41.56476109999858,41.56476109999858,41.56476109999858,41.56476109999858,009,P003,2025_Jan_18_1222,ConditionRich,2021.2.3,59.93048064203119,
13.0,13.75,14,0.75,Stimuli/P003/sun_bhhtrmwvoadbfucw.jpg,0,0,0.0,0,19,19,19,,,,,,,,,,,,,13.010175100000197,0.010175100000196835,None,,41.81497870000021,41.81497870000021,41.81497870000021,41.81497870000021,41.81497870000021,41.81497870000021,41.81497870000021,41.81497870000021,41.81497870000021,41.81497870000021,009,P003,2025_Jan_18_1222,ConditionRich,2021.2.3,59.93048064203119,
13.75,14.0,41,0.0,Stimuli/Blank.png,0,0,0.0,0,20,20,20,,,,,,,,,,,,,13.761163999999553,0.011163999999553198,5,0.214585799998531,42.56573049999861,42.56573049999861,42.56573049999861,42.56573049999861,42.56573049999861,42.56573049999861,42.56573049999861,42.56573049999861,42.56573049999861,42.56573049999861,009,P003,2025_Jan_18_1222,ConditionRich,2021.2.3,59.93048064203119,
14.0,14.75,14,0.75,Stimuli/P003/sun_bhhtrmwvoadbfucw.jpg,1,0,0.75,0,21,21,21,,,,,,,,,,,,,14.011300699999993,0.011300699999992503,1,0.4628039000017452,42.83254130000023,42.83254130000023,42.83254130000023,42.83254130000023,42.83254130000023,42.83254130000023,42.83254130000023,43.549824499999886,42.83254130000023,42.83254130000023,009,P003,2025_Jan_18_1222,ConditionRich,2021.2.3,59.93048064203119,
14.75,15.0,41,0.0,Stimuli/Blank.png,0,0,0.0,0,22,22,22,,,,,,,,,,,,,14.77902229999927,0.029022299999269308,None,,43.58320079999976,43.58320079999976,43.58320079999976,43.58320079999976,43.58320079999976,43.58320079999976,43.58320079999976,43.58320079999976,43.58320079999976,43.58320079999976,009,P003,2025_Jan_18_1222,ConditionRich,2021.2.3,59.93048064203119,
15.0,15.75,14,0.75,Stimuli/P003/sun_bhhtrmwvoadbfucw.jpg,0,0,0.0,0,23,23,23,,,,,,,,,,,,,15.01435180000044,0.014351800000440562,None,,43.83343169999898,43.83343169999898,43.83343169999898,43.83343169999898,43.83343169999898,43.83343169999898,43.83343169999898,43.83343169999898,43.83343169999898,43.83343169999898,009,P003,2025_Jan_18_1222,ConditionRich,2021.2.3,59.93048064203119,
15.75,16.0,41,0.0,Stimuli/Blank.png,0,0,0.0,0,24,24,24,,,,,,,,,,,,,15.77894919999926,0.0289491999992606,5,0.19603389999974752,44.584076399998594,44.584076399998594,44.584076399998594,44.584076399998594,44.584076399998594,44.584076399998594,44.584076399998594,44.584076399998594,44.584076399998594,44.584076399998594,009,P003,2025_Jan_18_1222,ConditionRich,2021.2.3,59.93048064203119,
16.0,16.75,1,0.75,Stimuli/P003/sun_adgmtzznutwlescq.jpg,0,0,0.0,0,25,25,25,,,,,,,,,,,,,16.012273500000447,0.012273500000446802,None,,44.81761259999985,44.81761259999985,44.81761259999985,44.81761259999985,44.81761259999985,44.81761259999985,44.81761259999985,44.81761259999985,44.81761259999985,44.81761259999985,009,P003,2025_Jan_18_1222,ConditionRich,2021.2.3,59.93048064203119,
16.75,17.0,41,0.0,Stimuli/Blank.png,0,0,0.0,0,26,26,26,,,,,,,,,,,,,16.763624699999127,0.013624699999127188,None,,45.56827449999946,45.56827449999946,45.56827449999946,45.56827449999946,45.56827449999946,45.56827449999946,45.56827449999946,45.56827449999946,45.56827449999946,45.56827449999946,009,P003,2025_Jan_18_1222,ConditionRich,2021.2.3,59.93048064203119,
17.0,17.75,1,0.75,Stimuli/P003/sun_adgmtzznutwlescq.jpg,0,0,0.0,0,27,27,27,,,,,,,,,,,,,17.0139106000006,0.013910600000599516,None,,45.818498999999065,45.818498999999065,45.818498999999065,45.818498999999065,45.818498999999065,45.818498999999065,45.818498999999065,45.818498999999065,45.818498999999065,45.818498999999065,009,P003,2025_Jan_18_1222,ConditionRich,2021.2.3,59.93048064203119,
17.75,18.0,41,0.0,Stimuli/Blank.png,0,0,0.0,0,28,28,28,,,,,,,,,,,,,17.764896399999998,0.014896399999997811,5,0.19427160000122967,46.58585889999995,46.58585889999995,46.58585889999995,46.58585889999995,46.58585889999995,46.58585889999995,46.58585889999995,46.58585889999995,46.58585889999995,46.58585889999995,009,P003,2025_Jan_18_1222,ConditionRich,2021.2.3,59.93048064203119,
18.0,18.75,1,0.75,Stimuli/P003/sun_adgmtzznutwlescq.jpg,0,0,0.0,0,29,29,29,,,,,,,,,,,,,18.0315928,0.03159279999999853,None,,46.85273699999925,46.85273699999925,46.85273699999925,46.85273699999925,46.85273699999925,46.85273699999925,46.85273699999925,46.85273699999925,46.85273699999925,46.85273699999925,009,P003,2025_Jan_18_1222,ConditionRich,2021.2.3,59.93048064203119,
18.75,19.0,41,0.0,Stimuli/Blank.png,0,0,0.0,0,30,30,30,,,,,,,,,,,,,18.78388620000078,0.033886200000779354,None,,47.603401499998654,47.603401499998654,47.603401499998654,47.603401499998654,47.603401499998654,47.603401499998654,47.603401499998654,47.603401499998654,47.603401499998654,47.603401499998654,009,P003,2025_Jan_18_1222,ConditionRich,2021.2.3,59.93048064203119,
19.0,19.75,1,0.75,Stimuli/P003/sun_adgmtzznutwlescq.jpg,0,0,0.0,0,31,31,31,,,,,,,,,,,,,19.015409499999805,0.01540949999980512,None,,47.82026719999885,47.82026719999885,47.82026719999885,47.82026719999885,47.82026719999885,47.82026719999885,47.82026719999885,47.82026719999885,47.82026719999885,47.82026719999885,009,P003,2025_Jan_18_1222,ConditionRich,2021.2.3,59.93048064203119,
19.75,20.0,41,0.0,Stimuli/Blank.png,0,0,0.0,0,32,32,32,,,,,,,,,,,,,19.749944299999697,-5.5700000302749686e-05,None,,48.5542432000002,48.5542432000002,48.5542432000002,48.5542432000002,48.5542432000002,48.5542432000002,48.5542432000002,48.5542432000002,48.5542432000002,48.5542432000002,009,P003,2025_Jan_18_1222,ConditionRich,2021.2.3,59.93048064203119,
20.0,20.75,25,0.75,Stimuli/P003/things_girl_02s.jpg,0,0,0.0,0,33,33,33,,,,,,,,,,,,,19.999800999999934,-0.0001990000000660075,None,,48.804486399998495,48.804486399998495,48.804486399998495,48.804486399998495,48.804486399998495,48.804486399998495,48.804486399998495,48.804486399998495,48.804486399998495,48.804486399998495,009,P003,2025_Jan_18_1222,ConditionRich,2021.2.3,59.93048064203119,
20.75,21.0,41,0.0,Stimuli/Blank.png,0,0,0.0,0,34,34,34,,,,,,,,,,,,,20.749849699999686,-0.0001503000003140187,None,,49.555114999999205,49.555114999999205,49.555114999999205,49.555114999999205,49.555114999999205,49.555114999999205,49.555114999999205,49.555114999999205,49.555114999999205,49.555114999999205,009,P003,2025_Jan_18_1222,ConditionRich,2021.2.3,59.93048064203119,
21.0,21.75,25,0.75,Stimuli/P003/things_girl_02s.jpg,1,0,0.75,0,35,35,35,,,,,,,,,,,,,21.00106810000034,0.0010681000003387453,1,0.41304130000025907,49.82204219999949,49.82204219999949,49.82204219999949,49.82204219999949,49.82204219999949,49.82204219999949,49.82204219999949,50.53934560000016,49.82204219999949,49.82204219999949,009,P003,2025_Jan_18_1222,ConditionRich,2021.2.3,59.93048064203119,
21.75,22.0,41,0.0,Stimuli/Blank.png,0,0,0.0,0,36,36,36,,,,,,,,,,,,,21.768536899999162,0.018536899999162415,None,,50.572688399999606,50.572688399999606,50.572688399999606,50.572688399999606,50.572688399999606,50.572688399999606,50.572688399999606,50.572688399999606,50.572688399999606,50.572688399999606,009,P003,2025_Jan_18_1222,ConditionRich,2021.2.3,59.93048064203119,
22.0,22.75,25,0.75,Stimuli/P003/things_girl_02s.jpg,0,0,0.0,0,37,37,37,,,,,,,,,,,,,22.00133730000016,0.0013373000001593027,None,,50.822894499999165,50.822894499999165,50.822894499999165,50.822894499999165,50.822894499999165,50.822894499999165,50.822894499999165,50.822894499999165,50.822894499999165,50.822894499999165,009,P003,2025_Jan_18_1222,ConditionRich,2021.2.3,59.93048064203119,
22.75,23.0,41,0.0,Stimuli/Blank.png,0,0,0.0,0,38,38,38,,,,,,,,,,,,,22.769773300000452,0.019773300000451854,None,,51.57356989999971,51.57356989999971,51.57356989999971,51.57356989999971,51.57356989999971,51.57356989999971,51.57356989999971,51.57356989999971,51.57356989999971,51.57356989999971,009,P003,2025_Jan_18_1222,ConditionRich,2021.2.3,59.93048064203119,
23.0,23.75,25,0.75,Stimuli/P003/things_girl_02s.jpg,0,0,0.0,0,39,39,39,,,,,,,,,,,,,23.00326689999929,0.0032668999992893077,None,,51.8237797999991,51.8237797999991,51.8237797999991,51.8237797999991,51.8237797999991,51.8237797999991,51.8237797999991,51.8237797999991,51.8237797999991,51.8237797999991,009,P003,2025_Jan_18_1222,ConditionRich,2021.2.3,59.93048064203119,
23.75,24.0,41,0.0,Stimuli/Blank.png,0,0,0.0,0,40,40,40,,,,,,,,,,,,,23.770195999999487,0.020195999999486958,None,,52.57446079999863,52.57446079999863,52.57446079999863,52.57446079999863,52.57446079999863,52.57446079999863,52.57446079999863,52.57446079999863,52.57446079999863,52.57446079999863,009,P003,2025_Jan_18_1222,ConditionRich,2021.2.3,59.93048064203119,
24.0,24.75,9,0.75,Stimuli/P003/sun_auqtrqkaobyprnjy.jpg,0,0,0.0,0,41,41,41,,,,,,,,,,,,,24.002624299999297,0.0026242999992973637,None,,52.80798799999866,52.80798799999866,52.80798799999866,52.80798799999866,52.80798799999866,52.80798799999866,52.80798799999866,52.80798799999866,52.80798799999866,52.80798799999866,009,P003,2025_Jan_18_1222,ConditionRich,2021.2.3,59.93048064203119,
24.75,25.0,41,0.0,Stimuli/Blank.png,0,0,0.0,0,42,42,42,,,,,,,,,,,,,24.753704599999764,0.0037045999997644685,None,,53.55864069999916,53.55864069999916,53.55864069999916,53.55864069999916,53.55864069999916,53.55864069999916,53.55864069999916,53.55864069999916,53.55864069999916,53.55864069999916,009,P003,2025_Jan_18_1222,ConditionRich,2021.2.3,59.93048064203119,
25.0,25.75,9,0.75,Stimuli/P003/sun_auqtrqkaobyprnjy.jpg,0,0,0.0,0,43,43,43,,,,,,,,,,,,,25.004581499999404,0.004581499999403604,None,,53.80884270000024,53.80884270000024,53.80884270000024,53.80884270000024,53.80884270000024,53.80884270000024,53.80884270000024,53.80884270000024,53.80884270000024,53.80884270000024,009,P003,2025_Jan_18_1222,ConditionRich,2021.2.3,59.93048064203119,
25.75,26.0,41,0.0,Stimuli/Blank.png,0,0,0.0,0,44,44,44,,,,,,,,,,,,,25.755527600000278,0.005527600000277744,5,0.20393200000034994,54.576268299999356,54.576268299999356,54.576268299999356,54.576268299999356,54.576268299999356,54.576268299999356,54.576268299999356,54.576268299999356,54.576268299999356,54.576268299999356,009,P003,2025_Jan_18_1222,ConditionRich,2021.2.3,59.93048064203119,
26.0,26.75,9,0.75,Stimuli/P003/sun_auqtrqkaobyprnjy.jpg,0,0,0.0,0,45,45,45,,,,,,,,,,,,,26.022018100000423,0.022018100000423146,None,,54.84311189999971,54.84311189999971,54.84311189999971,54.84311189999971,54.84311189999971,54.84311189999971,54.84311189999971,54.84311189999971,54.84311189999971,54.84311189999971,009,P003,2025_Jan_18_1222,ConditionRich,2021.2.3,59.93048064203119,
26.75,27.0,41,0.0,Stimuli/Blank.png,0,0,0.0,0,46,46,46,,,,,,,,,,,,,26.77413720000004,0.024137200000041048,None,,55.593852199999674,55.593852199999674,55.593852199999674,55.593852199999674,55.593852199999674,55.593852199999674,55.593852199999674,55.593852199999674,55.593852199999674,55.593852199999674,009,P003,2025_Jan_18_1222,ConditionRich,2021.2.3,59.93048064203119,
27.0,27.75,9,0.75,Stimuli/P003/sun_auqtrqkaobyprnjy.jpg,0,0,0.0,0,47,47,47,,,,,,,,,,,,,27.024913799999922,0.02491379999992205,None,,55.843981500000154,55.843981500000154,55.843981500000154,55.843981500000154,55.843981500000154,55.843981500000154,55.843981500000154,55.843981500000154,55.843981500000154,55.843981500000154,009,P003,2025_Jan_18_1222,ConditionRich,2021.2.3,59.93048064203119,
27.75,28.0,41,0.0,Stimuli/Blank.png,0,0,0.0,0,48,48,48,,,,,,,,,,,,,27.773517899999206,0.023517899999205838,None,,56.57797789999859,56.57797789999859,56.57797789999859,56.57797789999859,56.57797789999859,56.57797789999859,56.57797789999859,56.57797789999859,56.57797789999859,56.57797789999859,009,P003,2025_Jan_18_1222,ConditionRich,2021.2.3,59.93048064203119,
28.0,28.75,37,0.75,Stimuli/P003/things_ski_lift_02s.jpg,0,0,0.0,0,49,49,49,,,,,,,,,,,,,28.006338099999994,0.006338099999993574,None,,56.82819190000009,56.82819190000009,56.82819190000009,56.82819190000009,56.82819190000009,56.82819190000009,56.82819190000009,56.82819190000009,56.82819190000009,56.82819190000009,009,P003,2025_Jan_18_1222,ConditionRich,2021.2.3,59.93048064203119,
28.75,29.0,41,0.0,Stimuli/Blank.png,0,0,0.0,0,50,50,50,,,,,,,,,,,,,28.774840800000675,0.02484080000067479,None,,57.578847400000086,57.578847400000086,57.578847400000086,57.578847400000086,57.578847400000086,57.578847400000086,57.578847400000086,57.578847400000086,57.578847400000086,57.578847400000086,009,P003,2025_Jan_18_1222,ConditionRich,2021.2.3,59.93048064203119,
29.0,29.75,37,0.75,Stimuli/P003/things_ski_lift_02s.jpg,0,0,0.0,0,51,51,51,,,,,,,,,,,,,29.00765060000049,0.007650600000488339,None,,57.8123844999991,57.8123844999991,57.8123844999991,57.8123844999991,57.8123844999991,57.8123844999991,57.8123844999991,57.8123844999991,57.8123844999991,57.8123844999991,009,P003,2025_Jan_18_1222,ConditionRich,2021.2.3,59.93048064203119,
29.75,30.0,41,0.0,Stimuli/Blank.png,0,0,0.0,0,52,52,52,,,,,,,,,,,,,29.758653299999423,0.008653299999423325,5,0.21729140000024927,58.563038499998584,58.563038499998584,58.563038499998584,58.563038499998584,58.563038499998584,58.563038499998584,58.563038499998584,58.563038499998584,58.563038499998584,58.563038499998584,009,P003,2025_Jan_18_1222,ConditionRich,2021.2.3,59.93048064203119,
30.0,30.75,37,0.75,Stimuli/P003/things_ski_lift_02s.jpg,0,0,0.0,0,53,53,53,,,,,,,,,,,,,30.009660699999586,0.009660699999585631,None,,58.82994299999882,58.82994299999882,58.82994299999882,58.82994299999882,58.82994299999882,58.82994299999882,58.82994299999882,58.82994299999882,58.82994299999882,58.82994299999882,009,P003,2025_Jan_18_1222,ConditionRich,2021.2.3,59.93048064203119,
30.75,31.0,41,0.0,Stimuli/Blank.png,0,0,0.0,0,54,54,54,,,,,,,,,,,,,30.77628530000038,0.02628530000038154,None,,59.58061110000017,59.58061110000017,59.58061110000017,59.58061110000017,59.58061110000017,59.58061110000017,59.58061110000017,59.58061110000017,59.58061110000017,59.58061110000017,009,P003,2025_Jan_18_1222,ConditionRich,2021.2.3,59.93048064203119,
31.0,31.75,37,0.75,Stimuli/P003/things_ski_lift_02s.jpg,0,0,0.0,0,55,55,55,,,,,,,,,,,,,31.009647299999415,0.009647299999414827,None,,59.81413889999931,59.81413889999931,59.81413889999931,59.81413889999931,59.81413889999931,59.81413889999931,59.81413889999931,59.81413889999931,59.81413889999931,59.81413889999931,009,P003,2025_Jan_18_1222,ConditionRich,2021.2.3,59.93048064203119,
31.75,32.0,41,0.0,Stimuli/Blank.png,0,0,0.0,0,56,56,56,,,,,,,,,,,,,31.759968399999707,0.00996839999970689,5,0.21539000000120723,60.56482479999977,60.56482479999977,60.56482479999977,60.56482479999977,60.56482479999977,60.56482479999977,60.56482479999977,60.56482479999977,60.56482479999977,60.56482479999977,009,P003,2025_Jan_18_1222,ConditionRich,2021.2.3,59.93048064203119,
32.0,32.75,7,0.75,Stimuli/P003/sun_asgixjtedklbawgm.jpg,0,0,0.0,0,57,57,57,,,,,,,,,,,,,32.01023279999936,0.010232799999357667,None,,60.81502649999857,60.81502649999857,60.81502649999857,60.81502649999857,60.81502649999857,60.81502649999857,60.81502649999857,60.81502649999857,60.81502649999857,60.81502649999857,009,P003,2025_Jan_18_1222,ConditionRich,2021.2.3,59.93048064203119,
32.75,33.0,41,0.0,Stimuli/Blank.png,0,0,0.0,0,58,58,58,,,,,,,,,,,,,32.76137279999966,0.011372799999662675,None,,61.56575909999992,61.56575909999992,61.56575909999992,61.56575909999992,61.56575909999992,61.56575909999992,61.56575909999992,61.56575909999992,61.56575909999992,61.56575909999992,009,P003,2025_Jan_18_1222,ConditionRich,2021.2.3,59.93048064203119,
33.0,33.75,7,0.75,Stimuli/P003/sun_asgixjtedklbawgm.jpg,0,0,0.0,0,59,59,59,,,,,,,,,,,,,33.01162999999906,0.011629999999058782,None,,61.81590580000011,61.81590580000011,61.81590580000011,61.81590580000011,61.81590580000011,61.81590580000011,61.81590580000011,61.81590580000011,61.81590580000011,61.81590580000011,009,P003,2025_Jan_18_1222,ConditionRich,2021.2.3,59.93048064203119,
33.75,34.0,41,0.0,Stimuli/Blank.png,0,0,0.0,0,60,60,60,,,,,,,,,,,,,33.761598400000366,0.011598400000366382,5,0.21353610000005574,62.56656159999875,62.56656159999875,62.56656159999875,62.56656159999875,62.56656159999875,62.56656159999875,62.56656159999875,62.56656159999875,62.56656159999875,62.56656159999875,009,P003,2025_Jan_18_1222,ConditionRich,2021.2.3,59.93048064203119,
34.0,34.75,7,0.75,Stimuli/P003/sun_asgixjtedklbawgm.jpg,0,0,0.0,0,61,61,61,,,,,,,,,,,,,34.01253209999959,0.012532099999589263,None,,62.83348169999954,62.83348169999954,62.83348169999954,62.83348169999954,62.83348169999954,62.83348169999954,62.83348169999954,62.83348169999954,62.83348169999954,62.83348169999954,009,P003,2025_Jan_18_1222,ConditionRich,2021.2.3,59.93048064203119,
34.75,35.0,41,0.0,Stimuli/Blank.png,0,0,0.0,0,62,62,62,,,,,,,,,,,,,34.78045079999902,0.030450799999016454,None,,63.58414509999966,63.58414509999966,63.58414509999966,63.58414509999966,63.58414509999966,63.58414509999966,63.58414509999966,63.58414509999966,63.58414509999966,63.58414509999966,009,P003,2025_Jan_18_1222,ConditionRich,2021.2.3,59.93048064203119,
35.0,35.75,7,0.75,Stimuli/P003/sun_asgixjtedklbawgm.jpg,0,0,0.0,0,63,63,63,,,,,,,,,,,,,35.01516359999914,0.015163599999141297,None,,63.83436819999952,63.83436819999952,63.83436819999952,63.83436819999952,63.83436819999952,63.83436819999952,63.83436819999952,63.83436819999952,63.83436819999952,63.83436819999952,009,P003,2025_Jan_18_1222,ConditionRich,2021.2.3,59.93048064203119,
35.75,36.0,41,0.0,Stimuli/Blank.png,0,0,0.0,0,64,64,64,,,,,,,,,,,,,35.76380049999898,0.013800499998978921,5,0.21194699999978184,64.56839459999901,64.56839459999901,64.56839459999901,64.56839459999901,64.56839459999901,64.56839459999901,64.56839459999901,64.56839459999901,64.56839459999901,64.56839459999901,009,P003,2025_Jan_18_1222,ConditionRich,2021.2.3,59.93048064203119,
36.0,36.75,5,0.75,Stimuli/P003/sun_amnnxdwfjbdfumns.jpg,0,0,0.0,0,65,65,65,,,,,,,,,,,,,36.014016600000105,0.014016600000104518,None,,64.8185496999995,64.8185496999995,64.8185496999995,64.8185496999995,64.8185496999995,64.8185496999995,64.8185496999995,64.8185496999995,64.8185496999995,64.8185496999995,009,P003,2025_Jan_18_1222,ConditionRich,2021.2.3,59.93048064203119,
36.75,37.0,41,0.0,Stimuli/Blank.png,0,0,0.0,0,66,66,66,,,,,,,,,,,,,36.76498130000073,0.01498130000072706,None,,65.56918679999944,65.56918679999944,65.56918679999944,65.56918679999944,65.56918679999944,65.56918679999944,65.56918679999944,65.56918679999944,65.56918679999944,65.56918679999944,009,P003,2025_Jan_18_1222,ConditionRich,2021.2.3,59.93048064203119,
37.0,37.75,5,0.75,Stimuli/P003/sun_amnnxdwfjbdfumns.jpg,0,0,0.0,0,67,67,67,,,,,,,,,,,,,37.015298500000426,0.01529850000042643,None,,65.83611000000019,65.83611000000019,65.83611000000019,65.83611000000019,65.83611000000019,65.83611000000019,65.83611000000019,65.83611000000019,65.83611000000019,65.83611000000019,009,P003,2025_Jan_18_1222,ConditionRich,2021.2.3,59.93048064203119,
37.75,38.0,41,0.0,Stimuli/Blank.png,0,0,0.0,0,68,68,68,,,,,,,,,,,,,37.76586069999939,0.015860699999393546,None,,66.5700909999996,66.5700909999996,66.5700909999996,66.5700909999996,66.5700909999996,66.5700909999996,66.5700909999996,66.5700909999996,66.5700909999996,66.5700909999996,009,P003,2025_Jan_18_1222,ConditionRich,2021.2.3,59.93048064203119,
38.0,38.75,5,0.75,Stimuli/P003/sun_amnnxdwfjbdfumns.jpg,0,0,0.0,0,69,69,69,,,,,,,,,,,,,37.999711799999204,-0.0002882000007957686,None,,66.82047369999964,66.82047369999964,66.82047369999964,66.82047369999964,66.82047369999964,66.82047369999964,66.82047369999964,66.82047369999964,66.82047369999964,66.82047369999964,009,P003,2025_Jan_18_1222,ConditionRich,2021.2.3,59.93048064203119,
38.75,39.0,41,0.0,Stimuli/Blank.png,0,0,0.0,0,70,70,70,,,,,,,,,,,,,38.76618430000053,0.016184300000531948,None,,67.57105179999962,67.57105179999962,67.57105179999962,67.57105179999962,67.57105179999962,67.57105179999962,67.57105179999962,67.57105179999962,67.57105179999962,67.57105179999962,009,P003,2025_Jan_18_1222,ConditionRich,2021.2.3,59.93048064203119,
39.0,39.75,5,0.75,Stimuli/P003/sun_amnnxdwfjbdfumns.jpg,0,0,0.0,0,71,71,71,,,,,,,,,,,,,38.999442099999214,-0.0005579000007855939,None,,67.80449669999871,67.80449669999871,67.80449669999871,67.80449669999871,67.80449669999871,67.80449669999871,67.80449669999871,67.80449669999871,67.80449669999871,67.80449669999871,009,P003,2025_Jan_18_1222,ConditionRich,2021.2.3,59.93048064203119,
39.75,40.0,41,0.0,Stimuli/Blank.png,0,0,0.0,0,72,72,72,,,,,,,,,,,,,39.750434499999756,0.00043449999975564424,None,,68.55518539999866,68.55518539999866,68.55518539999866,68.55518539999866,68.55518539999866,68.55518539999866,68.55518539999866,68.55518539999866,68.55518539999866,68.55518539999866,009,P003,2025_Jan_18_1222,ConditionRich,2021.2.3,59.93048064203119,
40.0,40.75,2,0.75,Stimuli/P003/sun_afijjzyziczoqdhz.jpg,0,0,0.0,0,73,73,73,,,,,,,,,,,,,40.000798200000645,0.0007982000006450107,None,,68.80538890000025,68.80538890000025,68.80538890000025,68.80538890000025,68.80538890000025,68.80538890000025,68.80538890000025,68.80538890000025,68.80538890000025,68.80538890000025,009,P003,2025_Jan_18_1222,ConditionRich,2021.2.3,59.93048064203119,
40.75,41.0,41,0.0,Stimuli/Blank.png,0,0,0.0,0,74,74,74,,,,,,,,,,,,,40.752319200000784,0.002319200000783894,None,,69.5560690000002,69.5560690000002,69.5560690000002,69.5560690000002,69.5560690000002,69.5560690000002,69.5560690000002,69.5560690000002,69.5560690000002,69.5560690000002,009,P003,2025_Jan_18_1222,ConditionRich,2021.2.3,59.93048064203119,
41.0,41.75,2,0.75,Stimuli/P003/sun_afijjzyziczoqdhz.jpg,0,0,0.0,0,75,75,75,,,,,,,,,,,,,41.00177529999928,0.0017752999992808327,None,,69.82295679999879,69.82295679999879,69.82295679999879,69.82295679999879,69.82295679999879,69.82295679999879,69.82295679999879,69.82295679999879,69.82295679999879,69.82295679999879,009,P003,2025_Jan_18_1222,ConditionRich,2021.2.3,59.93048064203119,
41.75,42.0,41,0.0,Stimuli/Blank.png,0,0,0.0,0,76,76,76,,,,,,,,,,,,,41.76957729999958,0.019577299999582465,None,,70.57363359999908,70.57363359999908,70.57363359999908,70.57363359999908,70.57363359999908,70.57363359999908,70.57363359999908,70.57363359999908,70.57363359999908,70.57363359999908,009,P003,2025_Jan_18_1222,ConditionRich,2021.2.3,59.93048064203119,
42.0,42.75,2,0.75,Stimuli/P003/sun_afijjzyziczoqdhz.jpg,0,0,0.0,0,77,77,77,,,,,,,,,,,,,42.00304809999943,0.003048099999432452,None,,70.82381089999944,70.82381089999944,70.82381089999944,70.82381089999944,70.82381089999944,70.82381089999944,70.82381089999944,70.82381089999944,70.82381089999944,70.82381089999944,009,P003,2025_Jan_18_1222,ConditionRich,2021.2.3,59.93048064203119,
42.75,43.0,41,0.0,Stimuli/Blank.png,0,0,0.0,0,78,78,78,,,,,,,,,,,,,42.7701806999994,0.02018069999940053,None,,71.57456519999869,71.57456519999869,71.57456519999869,71.57456519999869,71.57456519999869,71.57456519999869,71.57456519999869,71.57456519999869,71.57456519999869,71.57456519999869,009,P003,2025_Jan_18_1222,ConditionRich,2021.2.3,59.93048064203119,
43.0,43.75,2,0.75,Stimuli/P003/sun_afijjzyziczoqdhz.jpg,0,0,0.0,0,79,79,79,,,,,,,,,,,,,43.00377929999922,0.00377929999922344,None,,71.82475009999871,71.82475009999871,71.82475009999871,71.82475009999871,71.82475009999871,71.82475009999871,71.82475009999871,71.82475009999871,71.82475009999871,71.82475009999871,009,P003,2025_Jan_18_1222,ConditionRich,2021.2.3,59.93048064203119,
43.75,44.0,41,0.0,Stimuli/Blank.png,0,0,0.0,0,80,80,80,,,,,,,,,,,,,43.77029699999912,0.02029699999911827,None,,72.57537169999887,72.57537169999887,72.57537169999887,72.57537169999887,72.57537169999887,72.57537169999887,72.57537169999887,72.57537169999887,72.57537169999887,72.57537169999887,009,P003,2025_Jan_18_1222,ConditionRich,2021.2.3,59.93048064203119,
44.0,44.75,6,0.75,Stimuli/P003/sun_aoumkoxfhlaobjef.jpg,0,0,0.0,0,81,81,81,,,,,,,,,,,,,44.0045855999997,0.004585599999700207,None,,72.80891530000008,72.80891530000008,72.80891530000008,72.80891530000008,72.80891530000008,72.80891530000008,72.80891530000008,72.80891530000008,72.80891530000008,72.80891530000008,009,P003,2025_Jan_18_1222,ConditionRich,2021.2.3,59.93048064203119,
44.75,45.0,41,0.0,Stimuli/Blank.png,0,0,0.0,0,82,82,82,,,,,,,,,,,,,44.754569299999275,0.004569299999275245,None,,73.55976689999989,73.55976689999989,73.55976689999989,73.55976689999989,73.55976689999989,73.55976689999989,73.55976689999989,73.55976689999989,73.55976689999989,73.55976689999989,009,P003,2025_Jan_18_1222,ConditionRich,2021.2.3,59.93048064203119,
45.0,45.75,6,0.75,Stimuli/P003/sun_aoumkoxfhlaobjef.jpg,0,0,0.0,0,83,83,83,,,,,,,,,,,,,45.00527030000012,0.005270300000120187,None,,73.82645349999984,73.82645349999984,73.82645349999984,73.82645349999984,73.82645349999984,73.82645349999984,73.82645349999984,73.82645349999984,73.82645349999984,73.82645349999984,009,P003,2025_Jan_18_1222,ConditionRich,2021.2.3,59.93048064203119,
45.75,46.0,41,0.0,Stimuli/Blank.png,0,0,0.0,0,84,84,84,,,,,,,,,,,,,45.773384300000544,0.02338430000054359,None,,74.5771464999998,74.5771464999998,74.5771464999998,74.5771464999998,74.5771464999998,74.5771464999998,74.5771464999998,74.5771464999998,74.5771464999998,74.5771464999998,009,P003,2025_Jan_18_1222,ConditionRich,2021.2.3,59.93048064203119,
46.0,46.75,6,0.75,Stimuli/P003/sun_aoumkoxfhlaobjef.jpg,0,0,0.0,0,85,85,85,,,,,,,,,,,,,46.0060126999997,0.006012699999700999,None,,74.82737009999983,74.82737009999983,74.82737009999983,74.82737009999983,74.82737009999983,74.82737009999983,74.82737009999983,74.82737009999983,74.82737009999983,74.82737009999983,009,P003,2025_Jan_18_1222,ConditionRich,2021.2.3,59.93048064203119,
46.75,47.0,41,0.0,Stimuli/Blank.png,0,0,0.0,0,86,86,86,,,,,,,,,,,,,46.773579900000186,0.02357990000018617,None,,75.57801389999986,75.57801389999986,75.57801389999986,75.57801389999986,75.57801389999986,75.57801389999986,75.57801389999986,75.57801389999986,75.57801389999986,75.57801389999986,009,P003,2025_Jan_18_1222,ConditionRich,2021.2.3,59.93048064203119,
47.0,47.75,6,0.75,Stimuli/P003/sun_aoumkoxfhlaobjef.jpg,0,0,0.0,0,87,87,87,,,,,,,,,,,,,47.0089466999998,0.008946699999796692,None,,75.8282435000001,75.8282435000001,75.8282435000001,75.8282435000001,75.8282435000001,75.8282435000001,75.8282435000001,75.8282435000001,75.8282435000001,75.8282435000001,009,P003,2025_Jan_18_1222,ConditionRich,2021.2.3,59.93048064203119,
47.75,48.0,41,0.0,Stimuli/Blank.png,0,0,0.0,0,88,88,88,,,,,,,,,,,,,47.77391329999955,0.023913299999549054,5,0.20119979999981297,76.57889590000013,76.57889590000013,76.57889590000013,76.57889590000013,76.57889590000013,76.57889590000013,76.57889590000013,76.57889590000013,76.57889590000013,76.57889590000013,009,P003,2025_Jan_18_1222,ConditionRich,2021.2.3,59.93048064203119,
48.0,48.75,39,0.75,Stimuli/P003/things_toad_02s.jpg,0,0,0.0,0,89,89,89,,,,,,,,,,,,,48.00729719999981,0.00729719999981171,None,,76.81244369999877,76.81244369999877,76.81244369999877,76.81244369999877,76.81244369999877,76.81244369999877,76.81244369999877,76.81244369999877,76.81244369999877,76.81244369999877,009,P003,2025_Jan_18_1222,ConditionRich,2021.2.3,59.93048064203119,
48.75,49.0,41,0.0,Stimuli/Blank.png,0,0,0.0,0,90,90,90,,,,,,,,,,,,,48.75883319999957,0.008833199999571661,None,,77.56310299999859,77.56310299999859,77.56310299999859,77.56310299999859,77.56310299999859,77.56310299999859,77.56310299999859,77.56310299999859,77.56310299999859,77.56310299999859,009,P003,2025_Jan_18_1222,ConditionRich,2021.2.3,59.93048064203119,
49.0,49.75,39,0.75,Stimuli/P003/things_toad_02s.jpg,0,0,0.0,0,91,91,91,,,,,,,,,,,,,49.00844019999931,0.008440199999313336,None,,77.81331409999984,77.81331409999984,77.81331409999984,77.81331409999984,77.81331409999984,77.81331409999984,77.81331409999984,77.81331409999984,77.81331409999984,77.81331409999984,009,P003,2025_Jan_18_1222,ConditionRich,2021.2.3,59.93048064203119,
49.75,50.0,41,0.0,Stimuli/Blank.png,0,0,0.0,0,92,92,92,,,,,,,,,,,,,49.75986980000016,0.009869800000160467,5,0.19947709999905783,78.58068420000018,78.58068420000018,78.58068420000018,78.58068420000018,78.58068420000018,78.58068420000018,78.58068420000018,78.58068420000018,78.58068420000018,78.58068420000018,009,P003,2025_Jan_18_1222,ConditionRich,2021.2.3,59.93048064203119,
50.0,50.75,39,0.75,Stimuli/P003/things_toad_02s.jpg,0,0,0.0,0,93,93,93,,,,,,,,,,,,,50.026183399999354,0.02618339999935415,None,,78.8308763999994,78.8308763999994,78.8308763999994,78.8308763999994,78.8308763999994,78.8308763999994,78.8308763999994,78.8308763999994,78.8308763999994,78.8308763999994,009,P003,2025_Jan_18_1222,ConditionRich,2021.2.3,59.93048064203119,
50.75,51.0,41,0.0,Stimuli/Blank.png,0,0,0.0,0,94,94,94,,,,,,,,,,,,,50.7603053999992,0.010305399999197107,None,,79.56486249999944,79.56486249999944,79.56486249999944,79.56486249999944,79.56486249999944,79.56486249999944,79.56486249999944,79.56486249999944,79.56486249999944,79.56486249999944,009,P003,2025_Jan_18_1222,ConditionRich,2021.2.3,59.93048064203119,
51.0,51.75,39,0.75,Stimuli/P003/things_toad_02s.jpg,0,0,0.0,0,95,95,95,,,,,,,,,,,,,51.01052600000003,0.010526000000027125,None,,79.81507899999997,79.81507899999997,79.81507899999997,79.81507899999997,79.81507899999997,79.81507899999997,79.81507899999997,79.81507899999997,79.81507899999997,79.81507899999997,009,P003,2025_Jan_18_1222,ConditionRich,2021.2.3,59.93048064203119,
51.75,52.0,41,0.0,Stimuli/Blank.png,0,0,0.0,0,96,96,96,,,,,,,,,,,,,51.760519999999815,0.0105199999998149,5,0.21435080000082962,80.56574019999971,80.56574019999971,80.56574019999971,80.56574019999971,80.56574019999971,80.56574019999971,80.56574019999971,80.56574019999971,80.56574019999971,80.56574019999971,009,P003,2025_Jan_18_1222,ConditionRich,2021.2.3,59.93048064203119,
52.0,52.75,26,0.75,Stimuli/P003/things_ham_02s.jpg,0,0,0.0,0,97,97,97,,,,,,,,,,,,,52.011654399999316,0.011654399999315501,None,,80.83264679999957,80.83264679999957,80.83264679999957,80.83264679999957,80.83264679999957,80.83264679999957,80.83264679999957,80.83264679999957,80.83264679999957,80.83264679999957,009,P003,2025_Jan_18_1222,ConditionRich,2021.2.3,59.93048064203119,
52.75,53.0,41,0.0,Stimuli/Blank.png,0,0,0.0,0,98,98,98,,,,,,,,,,,,,52.77861610000036,0.028616100000363076,None,,81.5832991999996,81.5832991999996,81.5832991999996,81.5832991999996,81.5832991999996,81.5832991999996,81.5832991999996,81.5832991999996,81.5832991999996,81.5832991999996,009,P003,2025_Jan_18_1222,ConditionRich,2021.2.3,59.93048064203119,
53.0,53.75,26,0.75,Stimuli/P003/things_ham_02s.jpg,0,0,0.0,0,99,99,99,,,,,,,,,,,,,53.01393889999963,0.013938899999629939,None,,81.83352479999849,81.83352479999849,81.83352479999849,81.83352479999849,81.83352479999849,81.83352479999849,81.83352479999849,81.83352479999849,81.83352479999849,81.83352479999849,009,P003,2025_Jan_18_1222,ConditionRich,2021.2.3,59.93048064203119,
53.75,54.0,41,0.0,Stimuli/Blank.png,0,0,0.0,0,100,100,100,,,,,,,,,,,,,53.77953239999988,0.02953239999988,5,0.19585129999904893,82.58419539999886,82.58419539999886,82.58419539999886,82.58419539999886,82.58419539999886,82.58419539999886,82.58419539999886,82.58419539999886,82.58419539999886,82.58419539999886,009,P003,2025_Jan_18_1222,ConditionRich,2021.2.3,59.93048064203119,
54.0,54.75,26,0.75,Stimuli/P003/things_ham_02s.jpg,1,0,0.75,0,101,101,101,,,,,,,,,,,,,54.01342569999906,0.01342569999906118,1,0.470540099999198,82.8177244999988,82.8177244999988,82.8177244999988,82.8177244999988,82.8177244999988,82.8177244999988,82.8177244999988,83.55173659999855,82.8177244999988,82.8177244999988,009,P003,2025_Jan_18_1222,ConditionRich,2021.2.3,59.93048064203119,
54.75,55.0,41,0.0,Stimuli/Blank.png,0,0,0.0,0,102,102,102,,,,,,,,,,,,,54.763380500000494,0.013380500000494067,None,,83.56838529999914,83.56838529999914,83.56838529999914,83.56838529999914,83.56838529999914,83.56838529999914,83.56838529999914,83.56838529999914,83.56838529999914,83.56838529999914,009,P003,2025_Jan_18_1222,ConditionRich,2021.2.3,59.93048064203119,
55.0,55.75,26,0.75,Stimuli/P003/things_ham_02s.jpg,0,0,0.0,0,103,103,103,,,,,,,,,,,,,55.01380439999957,0.013804399999571615,None,,83.81860439999946,83.81860439999946,83.81860439999946,83.81860439999946,83.81860439999946,83.81860439999946,83.81860439999946,83.81860439999946,83.81860439999946,83.81860439999946,009,P003,2025_Jan_18_1222,ConditionRich,2021.2.3,59.93048064203119,
55.75,56.0,41,0.0,Stimuli/Blank.png,0,0,0.0,0,104,104,104,,,,,,,,,,,,,55.76478959999986,0.014789599999858183,5,0.21091030000025057,84.56927219999852,84.56927219999852,84.56927219999852,84.56927219999852,84.56927219999852,84.56927219999852,84.56927219999852,84.56927219999852,84.56927219999852,84.56927219999852,009,P003,2025_Jan_18_1222,ConditionRich,2021.2.3,59.93048064203119,
56.0,56.75,32,0.75,Stimuli/P003/things_pulley_02s.jpg,0,0,0.0,0,105,105,105,,,,,,,,,,,,,56.01497720000043,0.014977200000430457,None,,84.81949050000003,84.81949050000003,84.81949050000003,84.81949050000003,84.81949050000003,84.81949050000003,84.81949050000003,84.81949050000003,84.81949050000003,84.81949050000003,009,P003,2025_Jan_18_1222,ConditionRich,2021.2.3,59.93048064203119,
56.75,57.0,41,0.0,Stimuli/Blank.png,0,0,0.0,0,106,106,106,,,,,,,,,,,,,56.76526410000042,0.015264100000422332,None,,85.57012020000002,85.57012020000002,85.57012020000002,85.57012020000002,85.57012020000002,85.57012020000002,85.57012020000002,85.57012020000002,85.57012020000002,85.57012020000002,009,P003,2025_Jan_18_1222,ConditionRich,2021.2.3,59.93048064203119,
57.0,57.75,32,0.75,Stimuli/P003/things_pulley_02s.jpg,0,0,0.0,0,107,107,107,,,,,,,,,,,,,57.01551769999969,0.015517699999691104,None,,85.82037309999941,85.82037309999941,85.82037309999941,85.82037309999941,85.82037309999941,85.82037309999941,85.82037309999941,85.82037309999941,85.82037309999941,85.82037309999941,009,P003,2025_Jan_18_1222,ConditionRich,2021.2.3,59.93048064203119,
57.75,58.0,41,0.0,Stimuli/Blank.png,0,0,0.0,0,108,108,108,,,,,,,,,,,,,57.74998880000021,-1.1199999789823778e-05,5,0.20900299999993877,86.57102889999987,86.57102889999987,86.57102889999987,86.57102889999987,86.57102889999987,86.57102889999987,86.57102889999987,86.57102889999987,86.57102889999987,86.57102889999987,009,P003,2025_Jan_18_1222,ConditionRich,2021.2.3,59.93048064203119,
58.0,58.75,32,0.75,Stimuli/P003/things_pulley_02s.jpg,0,0,0.0,0,109,109,109,,,,,,,,,,,,,58.01640939999925,0.016409399999247398,None,,86.83793259999948,86.83793259999948,86.83793259999948,86.83793259999948,86.83793259999948,86.83793259999948,86.83793259999948,86.83793259999948,86.83793259999948,86.83793259999948,009,P003,2025_Jan_18_1222,ConditionRich,2021.2.3,59.93048064203119,
58.75,59.0,41,0.0,Stimuli/Blank.png,0,0,0.0,0,110,110,110,,,,,,,,,,,,,58.769338699999935,0.01933869999993476,None,,87.58860839999943,87.58860839999943,87.58860839999943,87.58860839999943,87.58860839999943,87.58860839999943,87.58860839999943,87.58860839999943,87.58860839999943,87.58860839999943,009,P003,2025_Jan_18_1222,ConditionRich,2021.2.3,59.93048064203119,
59.0,59.75,32,0.75,Stimuli/P003/things_pulley_02s.jpg,1,0,0.75,0,111,111,111,,,,,,,,,,,,,59.017671300000075,0.017671300000074552,1,0.3828867000011087,87.82213819999924,87.82213819999924,87.82213819999924,87.82213819999924,87.82213819999924,87.82213819999924,87.82213819999924,None,87.82213819999924,87.82213819999924,009,P003,2025_Jan_18_1222,ConditionRich,2021.2.3,59.93048064203119,
59.75,60.0,41,0.0,Stimuli/Blank.png,0,0,0.0,0,112,112,112,,,,,,,,,,,,,59.75130969999918,0.0013096999991830671,None,,88.55610949999937,88.55610949999937,88.55610949999937,88.55610949999937,88.55610949999937,88.55610949999937,88.55610949999937,88.55610949999937,88.55610949999937,88.55610949999937,009,P003,2025_Jan_18_1222,ConditionRich,2021.2.3,59.93048064203119,
60.0,60.75,4,0.75,Stimuli/P003/sun_albtqdieqkajejrg.jpg,0,0,0.0,0,113,113,113,,,,,,,,,,,,,60.00137299999915,0.0013729999991483055,None,,88.82298359999913,88.82298359999913,88.82298359999913,88.82298359999913,88.82298359999913,88.82298359999913,88.82298359999913,88.82298359999913,88.82298359999913,88.82298359999913,009,P003,2025_Jan_18_1222,ConditionRich,2021.2.3,59.93048064203119,
60.75,61.0,41,0.0,Stimuli/Blank.png,0,0,0.0,0,114,114,114,,,,,,,,,,,,,60.769290700000056,0.01929070000005595,None,,89.57366799999909,89.57366799999909,89.57366799999909,89.57366799999909,89.57366799999909,89.57366799999909,89.57366799999909,89.57366799999909,89.57366799999909,89.57366799999909,009,P003,2025_Jan_18_1222,ConditionRich,2021.2.3,59.93048064203119,
61.0,61.75,4,0.75,Stimuli/P003/sun_albtqdieqkajejrg.jpg,1,0,0.75,0,115,115,115,,,,,,,,,,,,,61.00322489999962,0.0032248999996227212,1,0.47726700000021083,89.82388170000013,89.82388170000013,89.82388170000013,89.82388170000013,89.82388170000013,89.82388170000013,89.82388170000013,90.5411922000003,89.82388170000013,89.82388170000013,009,P003,2025_Jan_18_1222,ConditionRich,2021.2.3,59.93048064203119,
61.75,62.0,41,0.0,Stimuli/Blank.png,0,0,0.0,0,116,116,116,,,,,,,,,,,,,61.76964869999938,0.01964869999937946,None,,90.57455089999894,90.57455089999894,90.57455089999894,90.57455089999894,90.57455089999894,90.57455089999894,90.57455089999894,90.57455089999894,90.57455089999894,90.57455089999894,009,P003,2025_Jan_18_1222,ConditionRich,2021.2.3,59.93048064203119,
62.0,62.75,4,0.75,Stimuli/P003/sun_albtqdieqkajejrg.jpg,0,0,0.0,0,117,117,117,,,,,,,,,,,,,62.002888499999244,0.0028884999992442317,None,,90.8080917999996,90.8080917999996,90.8080917999996,90.8080917999996,90.8080917999996,90.8080917999996,90.8080917999996,90.8080917999996,90.8080917999996,90.8080917999996,009,P003,2025_Jan_18_1222,ConditionRich,2021.2.3,59.93048064203119,
62.75,63.0,41,0.0,Stimuli/Blank.png,0,0,0.0,0,118,118,118,,,,,,,,,,,,,62.75431810000009,0.004318100000091363,None,,91.55875719999858,91.55875719999858,91.55875719999858,91.55875719999858,91.55875719999858,91.55875719999858,91.55875719999858,91.55875719999858,91.55875719999858,91.55875719999858,009,P003,2025_Jan_18_1222,ConditionRich,2021.2.3,59.93048064203119,
63.0,63.75,4,0.75,Stimuli/P003/sun_albtqdieqkajejrg.jpg,0,0,0.0,0,119,119,119,,,,,,,,,,,,,63.00496580000072,0.0049658000007184455,None,,91.80908339999951,91.80908339999951,91.80908339999951,91.80908339999951,91.80908339999951,91.80908339999951,91.80908339999951,91.80908339999951,91.80908339999951,91.80908339999951,009,P003,2025_Jan_18_1222,ConditionRich,2021.2.3,59.93048064203119,
63.75,64.0,41,0.0,Stimuli/Blank.png,0,0,0.0,0,120,120,120,,,,,,,,,,,,,63.75460960000055,0.004609600000549108,None,,92.55962929999987,92.55962929999987,92.55962929999987,92.55962929999987,92.55962929999987,92.55962929999987,92.55962929999987,92.55962929999987,92.55962929999987,92.55962929999987,009,P003,2025_Jan_18_1222,ConditionRich,2021.2.3,59.93048064203119,
64.0,64.75,31,0.75,Stimuli/P003/things_pea_02s.jpg,0,0,0.0,0,121,121,121,,,,,,,,,,,,,64.00485739999931,0.004857399999309564,None,,92.80984329999956,92.80984329999956,92.80984329999956,92.80984329999956,92.80984329999956,92.80984329999956,92.80984329999956,92.80984329999956,92.80984329999956,92.80984329999956,009,P003,2025_Jan_18_1222,ConditionRich,2021.2.3,59.93048064203119,
64.75,65.0,41,0.0,Stimuli/Blank.png,0,0,0.0,0,122,122,122,,,,,,,,,,,,,64.7559839000005,0.005983900000501308,None,,93.56063509999876,93.56063509999876,93.56063509999876,93.56063509999876,93.56063509999876,93.56063509999876,93.56063509999876,93.56063509999876,93.56063509999876,93.56063509999876,009,P003,2025_Jan_18_1222,ConditionRich,2021.2.3,59.93048064203119,
65.0,65.75,31,0.75,Stimuli/P003/things_pea_02s.jpg,0,0,0.0,0,123,123,123,,,,,,,,,,,,,65.00627270000041,0.006272700000408804,None,,93.82743759999903,93.82743759999903,93.82743759999903,93.82743759999903,93.82743759999903,93.82743759999903,93.82743759999903,93.82743759999903,93.82743759999903,93.82743759999903,009,P003,2025_Jan_18_1222,ConditionRich,2021.2.3,59.93048064203119,
65.75,66.0,41,0.0,Stimuli/Blank.png,0,0,0.0,0,124,124,124,,,,,,,,,,,,,65.77351049999925,0.02351049999924726,None,,94.57807969999885,94.57807969999885,94.57807969999885,94.57807969999885,94.57807969999885,94.57807969999885,94.57807969999885,94.57807969999885,94.57807969999885,94.57807969999885,009,P003,2025_Jan_18_1222,ConditionRich,2021.2.3,59.93048064203119,
66.0,66.75,31,0.75,Stimuli/P003/things_pea_02s.jpg,0,0,0.0,0,125,125,125,,,,,,,,,,,,,66.0066597999994,0.0066597999993973644,None,,94.8116098999999,94.8116098999999,94.8116098999999,94.8116098999999,94.8116098999999,94.8116098999999,94.8116098999999,94.8116098999999,94.8116098999999,94.8116098999999,009,P003,2025_Jan_18_1222,ConditionRich,2021.2.3,59.93048064203119,
66.75,67.0,41,0.0,Stimuli/Blank.png,0,0,0.0,0,126,126,126,,,,,,,,,,,,,66.7588498999994,0.008849899999404442,None,,95.57897169999887,95.57897169999887,95.57897169999887,95.57897169999887,95.57897169999887,95.57897169999887,95.57897169999887,95.57897169999887,95.57897169999887,95.57897169999887,009,P003,2025_Jan_18_1222,ConditionRich,2021.2.3,59.93048064203119,
67.0,67.75,31,0.75,Stimuli/P003/things_pea_02s.jpg,0,0,0.0,0,127,127,127,,,,,,,,,,,,,67.02495119999912,0.024951199999122764,None,,95.84585349999907,95.84585349999907,95.84585349999907,95.84585349999907,95.84585349999907,95.84585349999907,95.84585349999907,95.84585349999907,95.84585349999907,95.84585349999907,009,P003,2025_Jan_18_1222,ConditionRich,2021.2.3,59.93048064203119,
67.75,68.0,41,0.0,Stimuli/Blank.png,0,0,0.0,0,128,128,128,,,,,,,,,,,,,67.77522209999916,0.025222099999155034,5,0.2000981999990472,96.57982889999948,96.57982889999948,96.57982889999948,96.57982889999948,96.57982889999948,96.57982889999948,96.57982889999948,96.57982889999948,96.57982889999948,96.57982889999948,009,P003,2025_Jan_18_1222,ConditionRich,2021.2.3,59.93048064203119,
68.0,68.75,15,0.75,Stimuli/P003/sun_bjhtdevvocmwtavk.jpg,0,0,0.0,0,129,129,129,,,,,,,,,,,,,68.00857820000056,0.008578200000556535,None,,96.81336799999917,96.81336799999917,96.81336799999917,96.81336799999917,96.81336799999917,96.81336799999917,96.81336799999917,96.81336799999917,96.81336799999917,96.81336799999917,009,P003,2025_Jan_18_1222,ConditionRich,2021.2.3,59.93048064203119,
68.75,69.0,41,0.0,Stimuli/Blank.png,0,0,0.0,0,130,130,130,,,,,,,,,,,,,68.75949779999974,0.009497799999735435,None,,97.56403080000018,97.56403080000018,97.56403080000018,97.56403080000018,97.56403080000018,97.56403080000018,97.56403080000018,97.56403080000018,97.56403080000018,97.56403080000018,009,P003,2025_Jan_18_1222,ConditionRich,2021.2.3,59.93048064203119,
69.0,69.75,15,0.75,Stimuli/P003/sun_bjhtdevvocmwtavk.jpg,0,0,0.0,0,131,131,131,,,,,,,,,,,,,69.01046019999922,0.010460199999215547,None,,97.83093740000004,97.83093740000004,97.83093740000004,97.83093740000004,97.83093740000004,97.83093740000004,97.83093740000004,97.83093740000004,97.83093740000004,97.83093740000004,009,P003,2025_Jan_18_1222,ConditionRich,2021.2.3,59.93048064203119,
69.75,70.0,41,0.0,Stimuli/Blank.png,0,0,0.0,0,132,132,132,,,,,,,,,,,,,69.77634120000039,0.0263412000003882,5,0.19837139999981446,98.58159879999948,98.58159879999948,98.58159879999948,98.58159879999948,98.58159879999948,98.58159879999948,98.58159879999948,98.58159879999948,98.58159879999948,98.58159879999948,009,P003,2025_Jan_18_1222,ConditionRich,2021.2.3,59.93048064203119,
70.0,70.75,15,0.75,Stimuli/P003/sun_bjhtdevvocmwtavk.jpg,0,0,0.0,0,133,133,133,,,,,,,,,,,,,70.01083040000049,0.010830400000486406,None,,98.83182359999955,98.83182359999955,98.83182359999955,98.83182359999955,98.83182359999955,98.83182359999955,98.83182359999955,98.83182359999955,98.83182359999955,98.83182359999955,009,P003,2025_Jan_18_1222,ConditionRich,2021.2.3,59.93048064203119,
70.75,71.0,41,0.0,Stimuli/Blank.png,0,0,0.0,0,134,134,134,,,,,,,,,,,,,70.78004859999965,0.030048599999645376,None,,99.59915159999946,99.59915159999946,99.59915159999946,99.59915159999946,99.59915159999946,99.59915159999946,99.59915159999946,99.59915159999946,99.59915159999946,99.59915159999946,009,P003,2025_Jan_18_1222,ConditionRich,2021.2.3,59.93048064203119,
71.0,71.75,15,0.75,Stimuli/P003/sun_bjhtdevvocmwtavk.jpg,0,0,0.0,0,135,135,135,,,,,,,,,,,,,71.02952410000034,0.029524100000344333,None,,99.84938129999864,99.84938129999864,99.84938129999864,99.84938129999864,99.84938129999864,99.84938129999864,99.84938129999864,99.84938129999864,99.84938129999864,99.84938129999864,009,P003,2025_Jan_18_1222,ConditionRich,2021.2.3,59.93048064203119,
71.75,72.0,41,0.0,Stimuli/Blank.png,0,0,0.0,0,136,136,136,,,,,,,,,,,,,71.77842430000055,0.02842430000055174,5,0.1966351000010036,100.58335889999944,100.58335889999944,100.58335889999944,100.58335889999944,100.58335889999944,100.58335889999944,100.58335889999944,100.58335889999944,100.58335889999944,100.58335889999944,009,P003,2025_Jan_18_1222,ConditionRich,2021.2.3,59.93048064203119,
72.0,72.75,11,0.75,Stimuli/P003/sun_bawmjlzsuuivqjhi.jpg,0,0,0.0,0,137,137,137,,,,,,,,,,,,,72.01173969999945,0.011739699999452569,None,,100.81689649999862,100.81689649999862,100.81689649999862,100.81689649999862,100.81689649999862,100.81689649999862,100.81689649999862,100.81689649999862,100.81689649999862,100.81689649999862,009,P003,2025_Jan_18_1222,ConditionRich,2021.2.3,59.93048064203119,
72.75,73.0,41,0.0,Stimuli/Blank.png,0,0,0.0,0,138,138,138,,,,,,,,,,,,,72.76321400000052,0.013214000000516535,None,,101.56756619999942,101.56756619999942,101.56756619999942,101.56756619999942,101.56756619999942,101.56756619999942,101.56756619999942,101.56756619999942,101.56756619999942,101.56756619999942,009,P003,2025_Jan_18_1222,ConditionRich,2021.2.3,59.93048064203119,
73.0,73.75,11,0.75,Stimuli/P003/sun_bawmjlzsuuivqjhi.jpg,0,0,0.0,0,139,139,139,,,,,,,,,,,,,73.01353600000039,0.013536000000385684,None,,101.83446079999885,101.83446079999885,101.83446079999885,101.83446079999885,101.83446079999885,101.83446079999885,101.83446079999885,101.83446079999885,101.83446079999885,101.83446079999885,009,P003,2025_Jan_18_1222,ConditionRich,2021.2.3,59.93048064203119,
73.75,74.0,41,0.0,Stimuli/Blank.png,0,0,0.0,0,140,140,140,,,,,,,,,,,,,73.78051480000067,0.03051480000067386,5,0.19499879999966652,102.58512109999901,102.58512109999901,102.58512109999901,102.58512109999901,102.58512109999901,102.58512109999901,102.58512109999901,102.58512109999901,102.58512109999901,102.58512109999901,009,P003,2025_Jan_18_1222,ConditionRich,2021.2.3,59.93048064203119,
74.0,74.75,11,0.75,Stimuli/P003/sun_bawmjlzsuuivqjhi.jpg,0,0,0.0,0,141,141,141,,,,,,,,,,,,,74.01384119999966,0.013841199999660603,None,,102.81866569999875,102.81866569999875,102.81866569999875,102.81866569999875,102.81866569999875,102.81866569999875,102.81866569999875,102.81866569999875,102.81866569999875,102.81866569999875,009,P003,2025_Jan_18_1222,ConditionRich,2021.2.3,59.93048064203119,
74.75,75.0,41,0.0,Stimuli/Blank.png,0,0,0.0,0,142,142,142,,,,,,,,,,,,,74.7654132000007,0.015413200000693905,None,,103.5693300999992,103.5693300999992,103.5693300999992,103.5693300999992,103.5693300999992,103.5693300999992,103.5693300999992,103.5693300999992,103.5693300999992,103.5693300999992,009,P003,2025_Jan_18_1222,ConditionRich,2021.2.3,59.93048064203119,
75.0,75.75,11,0.75,Stimuli/P003/sun_bawmjlzsuuivqjhi.jpg,0,0,0.0,0,143,143,143,,,,,,,,,,,,,75.01532100000077,0.015321000000767526,None,,103.81954679999944,103.81954679999944,103.81954679999944,103.81954679999944,103.81954679999944,103.81954679999944,103.81954679999944,103.81954679999944,103.81954679999944,103.81954679999944,009,P003,2025_Jan_18_1222,ConditionRich,2021.2.3,59.93048064203119,
75.75,76.0,41,0.0,Stimuli/Blank.png,0,0,0.0,0,144,144,144,,,,,,,,,,,,,75.74929539999903,-0.0007046000009722775,None,,104.55354599999919,104.55354599999919,104.55354599999919,104.55354599999919,104.55354599999919,104.55354599999919,104.55354599999919,104.55354599999919,104.55354599999919,104.55354599999919,009,P003,2025_Jan_18_1222,ConditionRich,2021.2.3,59.93048064203119,
76.0,76.75,3,0.75,Stimuli/P003/sun_afqjzrocqhabifao.jpg,0,0,0.0,0,145,145,145,,,,,,,,,,,,,75.99967069999911,-0.0003293000008852687,None,,104.8204509999996,104.8204509999996,104.8204509999996,104.8204509999996,104.8204509999996,104.8204509999996,104.8204509999996,104.8204509999996,104.8204509999996,104.8204509999996,009,P003,2025_Jan_18_1222,ConditionRich,2021.2.3,59.93048064203119,
76.75,77.0,41,0.0,Stimuli/Blank.png,0,0,0.0,0,146,146,146,,,,,,,,,,,,,76.76876880000054,0.018768800000543706,None,,105.58776939999916,105.58776939999916,105.58776939999916,105.58776939999916,105.58776939999916,105.58776939999916,105.58776939999916,105.58776939999916,105.58776939999916,105.58776939999916,009,P003,2025_Jan_18_1222,ConditionRich,2021.2.3,59.93048064203119,
77.0,77.75,3,0.75,Stimuli/P003/sun_afqjzrocqhabifao.jpg,0,0,0.0,0,147,147,147,,,,,,,,,,,,,77.01898400000027,0.018984000000273227,None,,105.83798209999986,105.83798209999986,105.83798209999986,105.83798209999986,105.83798209999986,105.83798209999986,105.83798209999986,105.83798209999986,105.83798209999986,105.83798209999986,009,P003,2025_Jan_18_1222,ConditionRich,2021.2.3,59.93048064203119,
77.75,78.0,41,0.0,Stimuli/Blank.png,0,0,0.0,0,148,148,148,,,,,,,,,,,,,77.76903239999956,0.019032399999559857,5,0.19123840000065684,106.58865429999969,106.58865429999969,106.58865429999969,106.58865429999969,106.58865429999969,106.58865429999969,106.58865429999969,106.58865429999969,106.58865429999969,106.58865429999969,009,P003,2025_Jan_18_1222,ConditionRich,2021.2.3,59.93048064203119,
78.0,78.75,3,0.75,Stimuli/P003/sun_afqjzrocqhabifao.jpg,0,0,0.0,0,149,149,149,,,,,,,,,,,,,78.01750600000014,0.017506000000139466,None,,106.82219189999887,106.82219189999887,106.82219189999887,106.82219189999887,106.82219189999887,106.82219189999887,106.82219189999887,106.82219189999887,106.82219189999887,106.82219189999887,009,P003,2025_Jan_18_1222,ConditionRich,2021.2.3,59.93048064203119,
78.75,79.0,41,0.0,Stimuli/Blank.png,0,0,0.0,0,150,150,150,,,,,,,,,,,,,78.75138139999945,0.0013813999994454207,None,,107.55614079999941,107.55614079999941,107.55614079999941,107.55614079999941,107.55614079999941,107.55614079999941,107.55614079999941,107.55614079999941,107.55614079999941,107.55614079999941,009,P003,2025_Jan_18_1222,ConditionRich,2021.2.3,59.93048064203119,
79.0,79.75,3,0.75,Stimuli/P003/sun_afqjzrocqhabifao.jpg,0,0,0.0,0,151,151,151,,,,,,,,,,,,,79.00372389999939,0.003723899999386049,None,,107.82307239999864,107.82307239999864,107.82307239999864,107.82307239999864,107.82307239999864,107.82307239999864,107.82307239999864,107.82307239999864,107.82307239999864,107.82307239999864,009,P003,2025_Jan_18_1222,ConditionRich,2021.2.3,59.93048064203119,
79.75,80.0,41,0.0,Stimuli/Blank.png,0,0,0.0,0,152,152,152,,,,,,,,,,,,,79.76985690000038,0.01985690000037721,None,,108.57373279999956,108.57373279999956,108.57373279999956,108.57373279999956,108.57373279999956,108.57373279999956,108.57373279999956,108.57373279999956,108.57373279999956,108.57373279999956,009,P003,2025_Jan_18_1222,ConditionRich,2021.2.3,59.93048064203119,
80.0,80.75,33,0.75,Stimuli/P003/things_recorder_02s.jpg,0,0,0.0,0,153,153,153,,,,,,,,,,,,,80.00259650000044,0.002596500000436208,None,,108.80725999999959,108.80725999999959,108.80725999999959,108.80725999999959,108.80725999999959,108.80725999999959,108.80725999999959,108.80725999999959,108.80725999999959,108.80725999999959,009,P003,2025_Jan_18_1222,ConditionRich,2021.2.3,59.93048064203119,
80.75,81.0,41,0.0,Stimuli/Blank.png,0,0,0.0,0,154,154,154,,,,,,,,,,,,,80.75398580000001,0.003985800000009476,None,,109.55791959999988,109.55791959999988,109.55791959999988,109.55791959999988,109.55791959999988,109.55791959999988,109.55791959999988,109.55791959999988,109.55791959999988,109.55791959999988,009,P003,2025_Jan_18_1222,ConditionRich,2021.2.3,59.93048064203119,
81.0,81.75,33,0.75,Stimuli/P003/things_recorder_02s.jpg,0,0,0.0,0,155,155,155,,,,,,,,,,,,,81.00454109999919,0.004541099999187281,None,,109.82497049999984,109.82497049999984,109.82497049999984,109.82497049999984,109.82497049999984,109.82497049999984,109.82497049999984,109.82497049999984,109.82497049999984,109.82497049999984,009,P003,2025_Jan_18_1222,ConditionRich,2021.2.3,59.93048064203119,
81.75,82.0,41,0.0,Stimuli/Blank.png,0,0,0.0,0,156,156,156,,,,,,,,,,,,,81.77105680000022,0.02105680000022403,5,0.18801879999955418,110.5921830999996,110.5921830999996,110.5921830999996,110.5921830999996,110.5921830999996,110.5921830999996,110.5921830999996,110.5921830999996,110.5921830999996,110.5921830999996,009,P003,2025_Jan_18_1222,ConditionRich,2021.2.3,59.93048064203119,
82.0,82.75,33,0.75,Stimuli/P003/things_recorder_02s.jpg,0,0,0.0,0,157,157,157,,,,,,,,,,,,,82.02135699999963,0.02135699999962526,None,,110.84242789999917,110.84242789999917,110.84242789999917,110.84242789999917,110.84242789999917,110.84242789999917,110.84242789999917,110.84242789999917,110.84242789999917,110.84242789999917,009,P003,2025_Jan_18_1222,ConditionRich,2021.2.3,59.93048064203119,
82.75,83.0,41,0.0,Stimuli/Blank.png,0,0,0.0,0,158,158,158,,,,,,,,,,,,,82.7749062999992,0.02490629999920202,None,,111.59305279999899,111.59305279999899,111.59305279999899,111.59305279999899,111.59305279999899,111.59305279999899,111.59305279999899,111.59305279999899,111.59305279999899,111.59305279999899,009,P003,2025_Jan_18_1222,ConditionRich,2021.2.3,59.93048064203119,
83.0,83.75,33,0.75,Stimuli/P003/things_recorder_02s.jpg,0,0,0.0,0,159,159,159,,,,,,,,,,,,,83.0215148999996,0.021514899999601766,None,,111.84327849999863,111.84327849999863,111.84327849999863,111.84327849999863,111.84327849999863,111.84327849999863,111.84327849999863,111.84327849999863,111.84327849999863,111.84327849999863,009,P003,2025_Jan_18_1222,ConditionRich,2021.2.3,59.93048064203119,
83.75,84.0,41,0.0,Stimuli/Blank.png,0,0,0.0,0,160,160,160,,,,,,,,,,,,,83.77317330000005,0.023173300000053132,None,,112.57726059999914,112.57726059999914,112.57726059999914,112.57726059999914,112.57726059999914,112.57726059999914,112.57726059999914,112.57726059999914,112.57726059999914,112.57726059999914,009,P003,2025_Jan_18_1222,ConditionRich,2021.2.3,59.93048064203119,
84.0,100.0,0,0.0,Stimuli/Blank.png,1,7,7.75,0,161,161,161,,,,,,,,,,,,,84.00593560000016,0.005935600000157137,5,13.969349000000875,112.81079159999899,112.81079159999899,112.81079159999899,112.81079159999899,112.81079159999899,112.81079159999899,119.80030689999876,120.55090430000018,112.81079159999899,112.81079159999899,009,P003,2025_Jan_18_1222,ConditionRich,2021.2.3,59.93048064203119,
100.0,100.75,18,0.75,Stimuli/P003/sun_bplhnzkztpigweny.jpg,0,0,0.0,0,162,162,162,,,,,,,,,,,,,100.00297440000031,0.0029744000003120163,None,,128.80820099999983,128.80820099999983,128.80820099999983,128.80820099999983,128.80820099999983,128.80820099999983,128.80820099999983,128.80820099999983,128.80820099999983,128.80820099999983,009,P003,2025_Jan_18_1222,ConditionRich,2021.2.3,59.93048064203119,
100.75,101.0,41,0.0,Stimuli/Blank.png,0,0,0.0,0,163,163,163,,,,,,,,,,,,,100.75456329999906,0.00456329999906302,None,,129.5755666999994,129.5755666999994,129.5755666999994,129.5755666999994,129.5755666999994,129.5755666999994,129.5755666999994,129.5755666999994,129.5755666999994,129.5755666999994,009,P003,2025_Jan_18_1222,ConditionRich,2021.2.3,59.93048064203119,
101.0,101.75,18,0.75,Stimuli/P003/sun_bplhnzkztpigweny.jpg,0,0,0.0,0,164,164,164,,,,,,,,,,,,,101.02128489999996,0.021284899999955087,None,,129.84245129999908,129.84245129999908,129.84245129999908,129.84245129999908,129.84245129999908,129.84245129999908,129.84245129999908,129.84245129999908,129.84245129999908,129.84245129999908,009,P003,2025_Jan_18_1222,ConditionRich,2021.2.3,59.93048064203119,
101.75,102.0,41,0.0,Stimuli/Blank.png,0,0,0.0,0,165,165,165,,,,,,,,,,,,,101.77359289999913,0.023592899999130168,5,0.1868118999991566,130.5931058999995,130.5931058999995,130.5931058999995,130.5931058999995,130.5931058999995,130.5931058999995,130.5931058999995,130.5931058999995,130.5931058999995,130.5931058999995,009,P003,2025_Jan_18_1222,ConditionRich,2021.2.3,59.93048064203119,
102.0,102.75,18,0.75,Stimuli/P003/sun_bplhnzkztpigweny.jpg,0,0,0.0,0,166,166,166,,,,,,,,,,,,,102.02413349999915,0.024133499999152264,None,,130.8433202999986,130.8433202999986,130.8433202999986,130.8433202999986,130.8433202999986,130.8433202999986,130.8433202999986,130.8433202999986,130.8433202999986,130.8433202999986,009,P003,2025_Jan_18_1222,ConditionRich,2021.2.3,59.93048064203119,
102.75,103.0,41,0.0,Stimuli/Blank.png,0,0,0.0,0,167,167,167,,,,,,,,,,,,,102.77490059999946,0.024900599999455153,None,,131.59399569999914,131.59399569999914,131.59399569999914,131.59399569999914,131.59399569999914,131.59399569999914,131.59399569999914,131.59399569999914,131.59399569999914,131.59399569999914,009,P003,2025_Jan_18_1222,ConditionRich,2021.2.3,59.93048064203119,
103.0,103.75,18,0.75,Stimuli/P003/sun_bplhnzkztpigweny.jpg,0,0,0.0,0,168,168,168,,,,,,,,,,,,,103.02423540000018,0.024235400000179652,None,,131.8442028999998,131.8442028999998,131.8442028999998,131.8442028999998,131.8442028999998,131.8442028999998,131.8442028999998,131.8442028999998,131.8442028999998,131.8442028999998,009,P003,2025_Jan_18_1222,ConditionRich,2021.2.3,59.93048064203119,
103.75,104.0,41,0.0,Stimuli/Blank.png,0,0,0.0,0,169,169,169,,,,,,,,,,,,,103.77298169999995,0.022981699999945704,5,0.20161349999943923,132.57818450000013,132.57818450000013,132.57818450000013,132.57818450000013,132.57818450000013,132.57818450000013,132.57818450000013,132.57818450000013,132.57818450000013,132.57818450000013,009,P003,2025_Jan_18_1222,ConditionRich,2021.2.3,59.93048064203119,
104.0,104.75,24,0.75,Stimuli/P003/things_dumpling_02s.jpg,0,0,0.0,0,170,170,170,,,,,,,,,,,,,104.00739310000063,0.007393100000626873,None,,132.81172289999995,132.81172289999995,132.81172289999995,132.81172289999995,132.81172289999995,132.81172289999995,132.81172289999995,132.81172289999995,132.81172289999995,132.81172289999995,009,P003,2025_Jan_18_1222,ConditionRich,2021.2.3,59.93048064203119,
104.75,105.0,41,0.0,Stimuli/Blank.png,0,0,0.0,0,171,171,171,,,,,,,,,,,,,104.75929890000043,0.009298900000430876,None,,133.5790696999993,133.5790696999993,133.5790696999993,133.5790696999993,133.5790696999993,133.5790696999993,133.5790696999993,133.5790696999993,133.5790696999993,133.5790696999993,009,P003,2025_Jan_18_1222,ConditionRich,2021.2.3,59.93048064203119,
105.0,105.75,24,0.75,Stimuli/P003/things_dumpling_02s.jpg,0,0,0.0,0,172,172,172,,,,,,,,,,,,,105.02475070000037,0.024750700000367942,None,,133.82929299999887,133.82929299999887,133.82929299999887,133.82929299999887,133.82929299999887,133.82929299999887,133.82929299999887,133.82929299999887,133.82929299999887,133.82929299999887,009,P003,2025_Jan_18_1222,ConditionRich,2021.2.3,59.93048064203119,
105.75,106.0,41,0.0,Stimuli/Blank.png,0,0,0.0,0,173,173,173,,,,,,,,,,,,,105.75921009999911,0.009210099999108934,5,0.21671779999996943,134.56327979999878,134.56327979999878,134.56327979999878,134.56327979999878,134.56327979999878,134.56327979999878,134.56327979999878,134.56327979999878,134.56327979999878,134.56327979999878,009,P003,2025_Jan_18_1222,ConditionRich,2021.2.3,59.93048064203119,
106.0,106.75,24,0.75,Stimuli/P003/things_dumpling_02s.jpg,1,0,0.75,0,174,174,174,,,,,,,,,,,,,106.00954730000012,0.00954730000012205,1,0.40372449999995297,134.8301395999988,134.8301395999988,134.8301395999988,134.8301395999988,134.8301395999988,134.8301395999988,134.8301395999988,135.5474863999989,134.8301395999988,134.8301395999988,009,P003,2025_Jan_18_1222,ConditionRich,2021.2.3,59.93048064203119,
106.75,107.0,41,0.0,Stimuli/Blank.png,0,0,0.0,0,175,175,175,,,,,,,,,,,,,106.77651440000045,0.026514400000451133,None,,135.58082979999926,135.58082979999926,135.58082979999926,135.58082979999926,135.58082979999926,135.58082979999926,135.58082979999926,135.58082979999926,135.58082979999926,135.58082979999926,009,P003,2025_Jan_18_1222,ConditionRich,2021.2.3,59.93048064203119,
107.0,107.75,24,0.75,Stimuli/P003/things_dumpling_02s.jpg,0,0,0.0,0,176,176,176,,,,,,,,,,,,,107.00998439999967,0.009984399999666493,None,,135.83106539999972,135.83106539999972,135.83106539999972,135.83106539999972,135.83106539999972,135.83106539999972,135.83106539999972,135.83106539999972,135.83106539999972,135.83106539999972,009,P003,2025_Jan_18_1222,ConditionRich,2021.2.3,59.93048064203119,
107.75,108.0,41,0.0,Stimuli/Blank.png,0,0,0.0,0,177,177,177,,,,,,,,,,,,,107.77868699999999,0.028686999999990803,5,0.18153760000132024,136.59839459999966,136.59839459999966,136.59839459999966,136.59839459999966,136.59839459999966,136.59839459999966,136.59839459999966,136.59839459999966,136.59839459999966,136.59839459999966,009,P003,2025_Jan_18_1222,ConditionRich,2021.2.3,59.93048064203119,
108.0,108.75,35,0.75,Stimuli/P003/things_satellite_dish_02s.jpg,0,0,0.0,0,178,178,178,,,,,,,,,,,,,108.02920199999971,0.029201999999713735,None,,136.84861619999901,136.84861619999901,136.84861619999901,136.84861619999901,136.84861619999901,136.84861619999901,136.84861619999901,136.84861619999901,136.84861619999901,136.84861619999901,009,P003,2025_Jan_18_1222,ConditionRich,2021.2.3,59.93048064203119,
108.75,109.0,41,0.0,Stimuli/Blank.png,0,0,0.0,0,179,179,179,,,,,,,,,,,,,108.7789413999999,0.028941399999894202,None,,137.59929229999943,137.59929229999943,137.59929229999943,137.59929229999943,137.59929229999943,137.59929229999943,137.59929229999943,137.59929229999943,137.59929229999943,137.59929229999943,009,P003,2025_Jan_18_1222,ConditionRich,2021.2.3,59.93048064203119,
109.0,109.75,35,0.75,Stimuli/P003/things_satellite_dish_02s.jpg,0,0,0.0,0,180,180,180,,,,,,,,,,,,,109.02869629999987,0.028696299999865005,None,,137.83282119999967,137.83282119999967,137.83282119999967,137.83282119999967,137.83282119999967,137.83282119999967,137.83282119999967,137.83282119999967,137.83282119999967,137.83282119999967,009,P003,2025_Jan_18_1222,ConditionRich,2021.2.3,59.93048064203119,
109.75,110.0,41,0.0,Stimuli/Blank.png,0,0,0.0,0,181,181,181,,,,,,,,,,,,,109.76412399999936,0.014123999999355874,5,0.19640009999966423,138.5834758000001,138.5834758000001,138.5834758000001,138.5834758000001,138.5834758000001,138.5834758000001,138.5834758000001,138.5834758000001,138.5834758000001,138.5834758000001,009,P003,2025_Jan_18_1222,ConditionRich,2021.2.3,59.93048064203119,
110.0,110.75,35,0.75,Stimuli/P003/things_satellite_dish_02s.jpg,0,0,0.0,0,182,182,182,,,,,,,,,,,,,110.0284771000006,0.02847710000060033,None,,138.8336903999989,138.8336903999989,138.8336903999989,138.8336903999989,138.8336903999989,138.8336903999989,138.8336903999989,138.8336903999989,138.8336903999989,138.8336903999989,009,P003,2025_Jan_18_1222,ConditionRich,2021.2.3,59.93048064203119,
110.75,111.0,41,0.0,Stimuli/Blank.png,0,0,0.0,0,183,183,183,,,,,,,,,,,,,110.76336540000011,0.01336540000011155,None,,139.56766789999892,139.56766789999892,139.56766789999892,139.56766789999892,139.56766789999892,139.56766789999892,139.56766789999892,139.56766789999892,139.56766789999892,139.56766789999892,009,P003,2025_Jan_18_1222,ConditionRich,2021.2.3,59.93048064203119,
111.0,111.75,35,0.75,Stimuli/P003/things_satellite_dish_02s.jpg,0,0,0.0,0,184,184,184,,,,,,,,,,,,,111.01370459999998,0.013704599999982747,None,,139.81790069999988,139.81790069999988,139.81790069999988,139.81790069999988,139.81790069999988,139.81790069999988,139.81790069999988,139.81790069999988,139.81790069999988,139.81790069999988,009,P003,2025_Jan_18_1222,ConditionRich,2021.2.3,59.93048064203119,
111.75,112.0,41,0.0,Stimuli/Blank.png,0,0,0.0,0,185,185,185,,,,,,,,,,,,,111.76427429999967,0.014274299999669893,5,0.21150440000019444,140.5685556999997,140.5685556999997,140.5685556999997,140.5685556999997,140.5685556999997,140.5685556999997,140.5685556999997,140.5685556999997,140.5685556999997,140.5685556999997,009,P003,2025_Jan_18_1222,ConditionRich,2021.2.3,59.93048064203119,
112.0,112.75,23,0.75,Stimuli/P003/things_butterfly_02s.jpg,0,0,0.0,0,186,186,186,,,,,,,,,,,,,112.01468299999942,0.014682999999422464,None,,140.83545499999855,140.83545499999855,140.83545499999855,140.83545499999855,140.83545499999855,140.83545499999855,140.83545499999855,140.83545499999855,140.83545499999855,140.83545499999855,009,P003,2025_Jan_18_1222,ConditionRich,2021.2.3,59.93048064203119,
112.75,113.0,41,0.0,Stimuli/Blank.png,0,0,0.0,0,187,187,187,,,,,,,,,,,,,112.78370059999907,0.03370059999906516,None,,141.60280319999947,141.60280319999947,141.60280319999947,141.60280319999947,141.60280319999947,141.60280319999947,141.60280319999947,141.60280319999947,141.60280319999947,141.60280319999947,009,P003,2025_Jan_18_1222,ConditionRich,2021.2.3,59.93048064203119,
113.0,113.75,23,0.75,Stimuli/P003/things_butterfly_02s.jpg,0,0,0.0,0,188,188,188,,,,,,,,,,,,,113.01517539999986,0.015175399999861838,None,,141.8196412999987,141.8196412999987,141.8196412999987,141.8196412999987,141.8196412999987,141.8196412999987,141.8196412999987,141.8196412999987,141.8196412999987,141.8196412999987,009,P003,2025_Jan_18_1222,ConditionRich,2021.2.3,59.93048064203119,
113.75,114.0,41,0.0,Stimuli/Blank.png,0,0,0.0,0,189,189,189,,,,,,,,,,,,,113.74981160000061,-0.00018839999938791152,None,,142.55363450000004,142.55363450000004,142.55363450000004,142.55363450000004,142.55363450000004,142.55363450000004,142.55363450000004,142.55363450000004,142.55363450000004,142.55363450000004,009,P003,2025_Jan_18_1222,ConditionRich,2021.2.3,59.93048064203119,
114.0,114.75,23,0.75,Stimuli/P003/things_butterfly_02s.jpg,1,0,0.75,0,190,190,190,,,,,,,,,,,,,113.99922610000067,-0.0007738999993307516,1,0.3914272999991226,142.8205299000001,142.8205299000001,142.8205299000001,142.8205299000001,142.8205299000001,142.8205299000001,142.8205299000001,143.53789529999995,142.8205299000001,142.8205299000001,009,P003,2025_Jan_18_1222,ConditionRich,2021.2.3,59.93048064203119,
114.75,115.0,41,0.0,Stimuli/Blank.png,0,0,0.0,0,191,191,191,,,,,,,,,,,,,114.76870400000007,0.018704000000070664,None,,143.58788839999943,143.58788839999943,143.58788839999943,143.58788839999943,143.58788839999943,143.58788839999943,143.58788839999943,143.58788839999943,143.58788839999943,143.58788839999943,009,P003,2025_Jan_18_1222,ConditionRich,2021.2.3,59.93048064203119,
115.0,115.75,23,0.75,Stimuli/P003/things_butterfly_02s.jpg,0,0,0.0,0,192,192,192,,,,,,,,,,,,,115.01887499999975,0.018874999999752617,None,,143.83809490000021,143.83809490000021,143.83809490000021,143.83809490000021,143.83809490000021,143.83809490000021,143.83809490000021,143.83809490000021,143.83809490000021,143.83809490000021,009,P003,2025_Jan_18_1222,ConditionRich,2021.2.3,59.93048064203119,
115.75,116.0,41,0.0,Stimuli/Blank.png,0,0,0.0,0,193,193,193,,,,,,,,,,,,,115.76756009999917,0.017560099999172962,None,,144.5720763999998,144.5720763999998,144.5720763999998,144.5720763999998,144.5720763999998,144.5720763999998,144.5720763999998,144.5720763999998,144.5720763999998,144.5720763999998,009,P003,2025_Jan_18_1222,ConditionRich,2021.2.3,59.93048064203119,
116.0,116.75,28,0.75,Stimuli/P003/things_man_02s.jpg,0,0,0.0,0,194,194,194,,,,,,,,,,,,,116.00038889999996,0.00038889999996172264,None,,144.8056175999991,144.8056175999991,144.8056175999991,144.8056175999991,144.8056175999991,144.8056175999991,144.8056175999991,144.8056175999991,144.8056175999991,144.8056175999991,009,P003,2025_Jan_18_1222,ConditionRich,2021.2.3,59.93048064203119,
116.75,117.0,41,0.0,Stimuli/Blank.png,0,0,0.0,0,195,195,195,,,,,,,,,,,,,116.75364489999993,0.003644899999926565,None,,145.57295949999934,145.57295949999934,145.57295949999934,145.57295949999934,145.57295949999934,145.57295949999934,145.57295949999934,145.57295949999934,145.57295949999934,145.57295949999934,009,P003,2025_Jan_18_1222,ConditionRich,2021.2.3,59.93048064203119,
117.0,117.75,28,0.75,Stimuli/P003/things_man_02s.jpg,0,0,0.0,0,196,196,196,,,,,,,,,,,,,117.01875870000003,0.018758700000034878,None,,145.82317289999992,145.82317289999992,145.82317289999992,145.82317289999992,145.82317289999992,145.82317289999992,145.82317289999992,145.82317289999992,145.82317289999992,145.82317289999992,009,P003,2025_Jan_18_1222,ConditionRich,2021.2.3,59.93048064203119,
117.75,118.0,41,0.0,Stimuli/Blank.png,0,0,0.0,0,197,197,197,,,,,,,,,,,,,117.7547343999995,0.004734399999506422,5,0.2062342000008357,146.57383750000008,146.57383750000008,146.57383750000008,146.57383750000008,146.57383750000008,146.57383750000008,146.57383750000008,146.57383750000008,146.57383750000008,146.57383750000008,009,P003,2025_Jan_18_1222,ConditionRich,2021.2.3,59.93048064203119,
118.0,118.75,28,0.75,Stimuli/P003/things_man_02s.jpg,0,0,0.0,0,198,198,198,,,,,,,,,,,,,118.01917970000068,0.019179700000677258,None,,146.8240550999999,146.8240550999999,146.8240550999999,146.8240550999999,146.8240550999999,146.8240550999999,146.8240550999999,146.8240550999999,146.8240550999999,146.8240550999999,009,P003,2025_Jan_18_1222,ConditionRich,2021.2.3,59.93048064203119,
118.75,119.0,41,0.0,Stimuli/Blank.png,0,0,0.0,0,199,199,199,,,,,,,,,,,,,118.7536627999998,0.0036627999998017913,None,,147.55803599999854,147.55803599999854,147.55803599999854,147.55803599999854,147.55803599999854,147.55803599999854,147.55803599999854,147.55803599999854,147.55803599999854,147.55803599999854,009,P003,2025_Jan_18_1222,ConditionRich,2021.2.3,59.93048064203119,
119.0,119.75,28,0.75,Stimuli/P003/things_man_02s.jpg,0,0,0.0,0,200,200,200,,,,,,,,,,,,,119.00356069999907,0.0035606999990704935,None,,147.80826009999873,147.80826009999873,147.80826009999873,147.80826009999873,147.80826009999873,147.80826009999873,147.80826009999873,147.80826009999873,147.80826009999873,147.80826009999873,009,P003,2025_Jan_18_1222,ConditionRich,2021.2.3,59.93048064203119,
119.75,120.0,41,0.0,Stimuli/Blank.png,0,0,0.0,0,201,201,201,,,,,,,,,,,,,119.7545640999997,0.004564099999697646,None,,148.55891469999915,148.55891469999915,148.55891469999915,148.55891469999915,148.55891469999915,148.55891469999915,148.55891469999915,148.55891469999915,148.55891469999915,148.55891469999915,009,P003,2025_Jan_18_1222,ConditionRich,2021.2.3,59.93048064203119,
120.0,120.75,20,0.75,Stimuli/P003/sun_bwytihadgigwkyht.jpg,0,0,0.0,0,202,202,202,,,,,,,,,,,,,120.00462460000017,0.004624600000170176,None,,148.80913469999905,148.80913469999905,148.80913469999905,148.80913469999905,148.80913469999905,148.80913469999905,148.80913469999905,148.80913469999905,148.80913469999905,148.80913469999905,009,P003,2025_Jan_18_1222,ConditionRich,2021.2.3,59.93048064203119,
120.75,121.0,41,0.0,Stimuli/Blank.png,0,0,0.0,0,203,203,203,,,,,,,,,,,,,120.75470759999916,0.004707599999164813,None,,149.5598078999992,149.5598078999992,149.5598078999992,149.5598078999992,149.5598078999992,149.5598078999992,149.5598078999992,149.5598078999992,149.5598078999992,149.5598078999992,009,P003,2025_Jan_18_1222,ConditionRich,2021.2.3,59.93048064203119,
121.0,121.75,20,0.75,Stimuli/P003/sun_bwytihadgigwkyht.jpg,0,0,0.0,0,204,204,204,,,,,,,,,,,,,121.0054669000001,0.005466900000101305,None,,149.8267281999997,149.8267281999997,149.8267281999997,149.8267281999997,149.8267281999997,149.8267281999997,149.8267281999997,149.8267281999997,149.8267281999997,149.8267281999997,009,P003,2025_Jan_18_1222,ConditionRich,2021.2.3,59.93048064203119,
121.75,122.0,41,0.0,Stimuli/Blank.png,0,0,0.0,0,205,205,205,,,,,,,,,,,,,121.77217220000057,0.02217220000056841,None,,150.5773479999989,150.5773479999989,150.5773479999989,150.5773479999989,150.5773479999989,150.5773479999989,150.5773479999989,150.5773479999989,150.5773479999989,150.5773479999989,009,P003,2025_Jan_18_1222,ConditionRich,2021.2.3,59.93048064203119,
122.0,122.75,20,0.75,Stimuli/P003/sun_bwytihadgigwkyht.jpg,0,0,0.0,0,206,206,206,,,,,,,,,,,,,122.00557540000045,0.005575400000452646,None,,150.81089900000006,150.81089900000006,150.81089900000006,150.81089900000006,150.81089900000006,150.81089900000006,150.81089900000006,150.81089900000006,150.81089900000006,150.81089900000006,009,P003,2025_Jan_18_1222,ConditionRich,2021.2.3,59.93048064203119,
122.75,123.0,41,0.0,Stimuli/Blank.png,0,0,0.0,0,207,207,207,,,,,,,,,,,,,122.7586592000007,0.00865920000069309,None,,151.57821869999862,151.57821869999862,151.57821869999862,151.57821869999862,151.57821869999862,151.57821869999862,151.57821869999862,151.57821869999862,151.57821869999862,151.57821869999862,009,P003,2025_Jan_18_1222,ConditionRich,2021.2.3,59.93048064203119,
123.0,123.75,20,0.75,Stimuli/P003/sun_bwytihadgigwkyht.jpg,0,0,0.0,0,208,208,208,,,,,,,,,,,,,123.02355790000001,0.023557900000014342,None,,151.8284576999995,151.8284576999995,151.8284576999995,151.8284576999995,151.8284576999995,151.8284576999995,151.8284576999995,151.8284576999995,151.8284576999995,151.8284576999995,009,P003,2025_Jan_18_1222,ConditionRich,2021.2.3,59.93048064203119,
123.75,124.0,41,0.0,Stimuli/Blank.png,0,0,0.0,0,209,209,209,,,,,,,,,,,,,123.75957919999928,0.009579199999279808,5,0.20057009999982256,152.57913449999978,152.57913449999978,152.57913449999978,152.57913449999978,152.57913449999978,152.57913449999978,152.57913449999978,152.57913449999978,152.57913449999978,152.57913449999978,009,P003,2025_Jan_18_1222,ConditionRich,2021.2.3,59.93048064203119,
124.0,124.75,38,0.75,Stimuli/P003/things_slug_02s.jpg,0,0,0.0,0,210,210,210,,,,,,,,,,,,,124.02416119999907,0.02416119999907096,None,,152.82933749999938,152.82933749999938,152.82933749999938,152.82933749999938,152.82933749999938,152.82933749999938,152.82933749999938,152.82933749999938,152.82933749999938,152.82933749999938,009,P003,2025_Jan_18_1222,ConditionRich,2021.2.3,59.93048064203119,
124.75,125.0,41,0.0,Stimuli/Blank.png,0,0,0.0,0,211,211,211,,,,,,,,,,,,,124.75869989999956,0.008699899999555782,None,,153.5633214999998,153.5633214999998,153.5633214999998,153.5633214999998,153.5633214999998,153.5633214999998,153.5633214999998,153.5633214999998,153.5633214999998,153.5633214999998,009,P003,2025_Jan_18_1222,ConditionRich,2021.2.3,59.93048064203119,
125.0,125.75,38,0.75,Stimuli/P003/things_slug_02s.jpg,0,0,0.0,0,212,212,212,,,,,,,,,,,,,125.00903180000023,0.00903180000022985,None,,153.81354569999894,153.81354569999894,153.81354569999894,153.81354569999894,153.81354569999894,153.81354569999894,153.81354569999894,153.81354569999894,153.81354569999894,153.81354569999894,009,P003,2025_Jan_18_1222,ConditionRich,2021.2.3,59.93048064203119,
125.75,126.0,41,0.0,Stimuli/Blank.png,0,0,0.0,0,213,213,213,,,,,,,,,,,,,125.75935480000044,0.009354800000437535,5,0.21567370000047958,154.56420359999902,154.56420359999902,154.56420359999902,154.56420359999902,154.56420359999902,154.56420359999902,154.56420359999902,154.56420359999902,154.56420359999902,154.56420359999902,009,P003,2025_Jan_18_1222,ConditionRich,2021.2.3,59.93048064203119,
126.0,126.75,38,0.75,Stimuli/P003/things_slug_02s.jpg,0,0,0.0,0,214,214,214,,,,,,,,,,,,,126.00971030000073,0.009710300000733696,None,,154.81442349999998,154.81442349999998,154.81442349999998,154.81442349999998,154.81442349999998,154.81442349999998,154.81442349999998,154.81442349999998,154.81442349999998,154.81442349999998,009,P003,2025_Jan_18_1222,ConditionRich,2021.2.3,59.93048064203119,
126.75,127.0,41,0.0,Stimuli/Blank.png,0,0,0.0,0,215,215,215,,,,,,,,,,,,,126.76010289999977,0.010102899999765214,None,,155.56507989999955,155.56507989999955,155.56507989999955,155.56507989999955,155.56507989999955,155.56507989999955,155.56507989999955,155.56507989999955,155.56507989999955,155.56507989999955,009,P003,2025_Jan_18_1222,ConditionRich,2021.2.3,59.93048064203119,
127.0,127.75,38,0.75,Stimuli/P003/things_slug_02s.jpg,0,0,0.0,0,216,216,216,,,,,,,,,,,,,127.01024859999961,0.010248599999613361,None,,155.81531349999932,155.81531349999932,155.81531349999932,155.81531349999932,155.81531349999932,155.81531349999932,155.81531349999932,155.81531349999932,155.81531349999932,155.81531349999932,009,P003,2025_Jan_18_1222,ConditionRich,2021.2.3,59.93048064203119,
127.75,128.0,41,0.0,Stimuli/Blank.png,0,0,0.0,0,217,217,217,,,,,,,,,,,,,127.76205329999902,0.012053299999024603,5,0.2138241000011476,156.56598529999974,156.56598529999974,156.56598529999974,156.56598529999974,156.56598529999974,156.56598529999974,156.56598529999974,156.56598529999974,156.56598529999974,156.56598529999974,009,P003,2025_Jan_18_1222,ConditionRich,2021.2.3,59.93048064203119,
128.0,128.75,34,0.75,Stimuli/P003/things_roll_02s.jpg,0,0,0.0,0,218,218,218,,,,,,,,,,,,,128.01140590000068,0.011405900000681868,None,,156.83286959999896,156.83286959999896,156.83286959999896,156.83286959999896,156.83286959999896,156.83286959999896,156.83286959999896,156.83286959999896,156.83286959999896,156.83286959999896,009,P003,2025_Jan_18_1222,ConditionRich,2021.2.3,59.93048064203119,
128.75,129.0,41,0.0,Stimuli/Blank.png,0,0,0.0,0,219,219,219,,,,,,,,,,,,,128.77894390000074,0.02894390000074054,None,,157.58351729999958,157.58351729999958,157.58351729999958,157.58351729999958,157.58351729999958,157.58351729999958,157.58351729999958,157.58351729999958,157.58351729999958,157.58351729999958,009,P003,2025_Jan_18_1222,ConditionRich,2021.2.3,59.93048064203119,
129.0,129.75,34,0.75,Stimuli/P003/things_roll_02s.jpg,0,0,0.0,0,220,220,220,,,,,,,,,,,,,129.01459009999962,0.014590099999622907,None,,157.8337565999991,157.8337565999991,157.8337565999991,157.8337565999991,157.8337565999991,157.8337565999991,157.8337565999991,157.8337565999991,157.8337565999991,157.8337565999991,009,P003,2025_Jan_18_1222,ConditionRich,2021.2.3,59.93048064203119,
129.75,130.0,41,0.0,Stimuli/Blank.png,0,0,0.0,0,221,221,221,,,,,,,,,,,,,129.77929799999947,0.029297999999471358,5,0.19549150000057125,158.58441909999965,158.58441909999965,158.58441909999965,158.58441909999965,158.58441909999965,158.58441909999965,158.58441909999965,158.58441909999965,158.58441909999965,158.58441909999965,009,P003,2025_Jan_18_1222,ConditionRich,2021.2.3,59.93048064203119,
130.0,130.75,34,0.75,Stimuli/P003/things_roll_02s.jpg,0,0,0.0,0,222,222,222,,,,,,,,,,,,,130.01294600000074,0.012946000000738422,None,,158.8179393999999,158.8179393999999,158.8179393999999,158.8179393999999,158.8179393999999,158.8179393999999,158.8179393999999,158.8179393999999,158.8179393999999,158.8179393999999,009,P003,2025_Jan_18_1222,ConditionRich,2021.2.3,59.93048064203119,
130.75,131.0,41,0.0,Stimuli/Blank.png,0,0,0.0,0,223,223,223,,,,,,,,,,,,,130.7645207000005,0.014520700000502984,None,,159.56860469999992,159.56860469999992,159.56860469999992,159.56860469999992,159.56860469999992,159.56860469999992,159.56860469999992,159.56860469999992,159.56860469999992,159.56860469999992,009,P003,2025_Jan_18_1222,ConditionRich,2021.2.3,59.93048064203119,
131.0,131.75,34,0.75,Stimuli/P003/things_roll_02s.jpg,0,0,0.0,0,224,224,224,,,,,,,,,,,,,131.0136122999993,0.013612299999294919,None,,159.81882029999906,159.81882029999906,159.81882029999906,159.81882029999906,159.81882029999906,159.81882029999906,159.81882029999906,159.81882029999906,159.81882029999906,159.81882029999906,009,P003,2025_Jan_18_1222,ConditionRich,2021.2.3,59.93048064203119,
131.75,132.0,41,0.0,Stimuli/Blank.png,0,0,0.0,0,225,225,225,,,,,,,,,,,,,131.76434159999917,0.014341599999170285,5,0.21031349999975646,160.56948439999906,160.56948439999906,160.56948439999906,160.56948439999906,160.56948439999906,160.56948439999906,160.56948439999906,160.56948439999906,160.56948439999906,160.56948439999906,009,P003,2025_Jan_18_1222,ConditionRich,2021.2.3,59.93048064203119,
132.0,132.75,8,0.75,Stimuli/P003/sun_asxkyzleyfgbqfrs.jpg,0,0,0.0,0,226,226,226,,,,,,,,,,,,,132.01473970000006,0.014739700000063749,None,,160.81970389999879,160.81970389999879,160.81970389999879,160.81970389999879,160.81970389999879,160.81970389999879,160.81970389999879,160.81970389999879,160.81970389999879,160.81970389999879,009,P003,2025_Jan_18_1222,ConditionRich,2021.2.3,59.93048064203119,
132.75,133.0,41,0.0,Stimuli/Blank.png,0,0,0.0,0,227,227,227,,,,,,,,,,,,,132.76578139999947,0.015781399999468704,None,,161.5703672999989,161.5703672999989,161.5703672999989,161.5703672999989,161.5703672999989,161.5703672999989,161.5703672999989,161.5703672999989,161.5703672999989,161.5703672999989,009,P003,2025_Jan_18_1222,ConditionRich,2021.2.3,59.93048064203119,
133.0,133.75,8,0.75,Stimuli/P003/sun_asxkyzleyfgbqfrs.jpg,0,0,0.0,0,228,228,228,,,,,,,,,,,,,132.99959710000076,-0.000402899999244255,None,,161.82057969999914,161.82057969999914,161.82057969999914,161.82057969999914,161.82057969999914,161.82057969999914,161.82057969999914,161.82057969999914,161.82057969999914,161.82057969999914,009,P003,2025_Jan_18_1222,ConditionRich,2021.2.3,59.93048064203119,
133.75,134.0,41,0.0,Stimuli/Blank.png,0,0,0.0,0,229,229,229,,,,,,,,,,,,,133.76893349999955,0.018933499999548076,5,0.19176840000000084,162.58792949999952,162.58792949999952,162.58792949999952,162.58792949999952,162.58792949999952,162.58792949999952,162.58792949999952,162.58792949999952,162.58792949999952,162.58792949999952,009,P003,2025_Jan_18_1222,ConditionRich,2021.2.3,59.93048064203119,
134.0,134.75,8,0.75,Stimuli/P003/sun_asxkyzleyfgbqfrs.jpg,0,0,0.0,0,230,230,230,,,,,,,,,,,,,134.01630850000038,0.016308500000377535,None,,162.82147069999883,162.82147069999883,162.82147069999883,162.82147069999883,162.82147069999883,162.82147069999883,162.82147069999883,162.82147069999883,162.82147069999883,162.82147069999883,009,P003,2025_Jan_18_1222,ConditionRich,2021.2.3,59.93048064203119,
134.75,135.0,41,0.0,Stimuli/Blank.png,0,0,0.0,0,231,231,231,,,,,,,,,,,,,134.75100249999923,0.0010024999992310768,None,,163.5554505,163.5554505,163.5554505,163.5554505,163.5554505,163.5554505,163.5554505,163.5554505,163.5554505,163.5554505,009,P003,2025_Jan_18_1222,ConditionRich,2021.2.3,59.93048064203119,
135.0,135.75,8,0.75,Stimuli/P003/sun_asxkyzleyfgbqfrs.jpg,0,0,0.0,0,232,232,232,,,,,,,,,,,,,135.00055129999964,0.0005512999996426515,None,,163.80567019999944,163.80567019999944,163.80567019999944,163.80567019999944,163.80567019999944,163.80567019999944,163.80567019999944,163.80567019999944,163.80567019999944,163.80567019999944,009,P003,2025_Jan_18_1222,ConditionRich,2021.2.3,59.93048064203119,
135.75,136.0,41,0.0,Stimuli/Blank.png,0,0,0.0,0,233,233,233,,,,,,,,,,,,,135.7538325000005,0.0038325000004988397,5,0.20667070000126841,164.57302030000028,164.57302030000028,164.57302030000028,164.57302030000028,164.57302030000028,164.57302030000028,164.57302030000028,164.57302030000028,164.57302030000028,164.57302030000028,009,P003,2025_Jan_18_1222,ConditionRich,2021.2.3,59.93048064203119,
136.0,136.75,22,0.75,Stimuli/P003/things_boy_02s.jpg,0,0,0.0,0,234,234,234,,,,,,,,,,,,,136.0182205000001,0.018220500000097672,None,,164.82323329999963,164.82323329999963,164.82323329999963,164.82323329999963,164.82323329999963,164.82323329999963,164.82323329999963,164.82323329999963,164.82323329999963,164.82323329999963,009,P003,2025_Jan_18_1222,ConditionRich,2021.2.3,59.93048064203119,
136.75,137.0,41,0.0,Stimuli/Blank.png,0,0,0.0,0,235,235,235,,,,,,,,,,,,,136.75413029999982,0.004130299999815179,None,,165.57389239999975,165.57389239999975,165.57389239999975,165.57389239999975,165.57389239999975,165.57389239999975,165.57389239999975,165.57389239999975,165.57389239999975,165.57389239999975,009,P003,2025_Jan_18_1222,ConditionRich,2021.2.3,59.93048064203119,
137.0,137.75,22,0.75,Stimuli/P003/things_boy_02s.jpg,1,0,0.75,0,236,236,236,,,,,,,,,,,,,137.02005499999905,0.02005499999904714,1,0.44192690000090806,165.84078810000028,165.84078810000028,165.84078810000028,165.84078810000028,165.84078810000028,165.84078810000028,165.84078810000028,166.55808699999943,165.84078810000028,165.84078810000028,009,P003,2025_Jan_18_1222,ConditionRich,2021.2.3,59.93048064203119,
137.75,138.0,41,0.0,Stimuli/Blank.png,0,0,0.0,0,237,237,237,,,,,,,,,,,,,137.76964869999938,0.01964869999937946,None,,166.57476429999952,166.57476429999952,166.57476429999952,166.57476429999952,166.57476429999952,166.57476429999952,166.57476429999952,166.57476429999952,166.57476429999952,166.57476429999952,009,P003,2025_Jan_18_1222,ConditionRich,2021.2.3,59.93048064203119,
138.0,138.75,22,0.75,Stimuli/P003/things_boy_02s.jpg,0,0,0.0,0,238,238,238,,,,,,,,,,,,,138.0038072999996,0.003807299999607494,None,,166.80830669999887,166.80830669999887,166.80830669999887,166.80830669999887,166.80830669999887,166.80830669999887,166.80830669999887,166.80830669999887,166.80830669999887,166.80830669999887,009,P003,2025_Jan_18_1222,ConditionRich,2021.2.3,59.93048064203119,
138.75,139.0,41,0.0,Stimuli/Blank.png,0,0,0.0,0,239,239,239,,,,,,,,,,,,,138.75397030000022,0.00397030000021914,None,,167.5589659999987,167.5589659999987,167.5589659999987,167.5589659999987,167.5589659999987,167.5589659999987,167.5589659999987,167.5589659999987,167.5589659999987,167.5589659999987,009,P003,2025_Jan_18_1222,ConditionRich,2021.2.3,59.93048064203119,
139.0,139.75,22,0.75,Stimuli/P003/things_boy_02s.jpg,0,0,0.0,0,240,240,240,,,,,,,,,,,,,139.00416939999923,0.004169399999227608,None,,167.8091900999989,167.8091900999989,167.8091900999989,167.8091900999989,167.8091900999989,167.8091900999989,167.8091900999989,167.8091900999989,167.8091900999989,167.8091900999989,009,P003,2025_Jan_18_1222,ConditionRich,2021.2.3,59.93048064203119,
139.75,140.0,41,0.0,Stimuli/Blank.png,0,0,0.0,0,241,241,241,,,,,,,,,,,,,139.75535859999945,0.0053585999994538724,None,,168.55984269999863,168.55984269999863,168.55984269999863,168.55984269999863,168.55984269999863,168.55984269999863,168.55984269999863,168.55984269999863,168.55984269999863,168.55984269999863,009,P003,2025_Jan_18_1222,ConditionRich,2021.2.3,59.93048064203119,
140.0,140.75,13,0.75,Stimuli/P003/sun_bhbiqbqmwrowrqpd.jpg,0,0,0.0,0,242,242,242,,,,,,,,,,,,,140.00560210000003,0.005602100000032806,None,,168.8267608999995,168.8267608999995,168.8267608999995,168.8267608999995,168.8267608999995,168.8267608999995,168.8267608999995,168.8267608999995,168.8267608999995,168.8267608999995,009,P003,2025_Jan_18_1222,ConditionRich,2021.2.3,59.93048064203119,
140.75,141.0,41,0.0,Stimuli/Blank.png,0,0,0.0,0,243,243,243,,,,,,,,,,,,,140.77320549999968,0.02320549999967625,None,,169.57741949999945,169.57741949999945,169.57741949999945,169.57741949999945,169.57741949999945,169.57741949999945,169.57741949999945,169.57741949999945,169.57741949999945,169.57741949999945,009,P003,2025_Jan_18_1222,ConditionRich,2021.2.3,59.93048064203119,
141.0,141.75,13,0.75,Stimuli/P003/sun_bhbiqbqmwrowrqpd.jpg,0,0,0.0,0,244,244,244,,,,,,,,,,,,,141.00595710000016,0.0059571000001596985,None,,169.81095569999889,169.81095569999889,169.81095569999889,169.81095569999889,169.81095569999889,169.81095569999889,169.81095569999889,169.81095569999889,169.81095569999889,169.81095569999889,009,P003,2025_Jan_18_1222,ConditionRich,2021.2.3,59.93048064203119,
141.75,142.0,41,0.0,Stimuli/Blank.png,0,0,0.0,0,245,245,245,,,,,,,,,,,,,141.75909300000058,0.009093000000575557,5,0.2014655999992101,170.578302599999,170.578302599999,170.578302599999,170.578302599999,170.578302599999,170.578302599999,170.578302599999,170.578302599999,170.578302599999,170.578302599999,009,P003,2025_Jan_18_1222,ConditionRich,2021.2.3,59.93048064203119,
142.0,142.75,13,0.75,Stimuli/P003/sun_bhbiqbqmwrowrqpd.jpg,0,0,0.0,0,246,246,246,,,,,,,,,,,,,142.02375260000008,0.023752600000079838,None,,170.82851200000005,170.82851200000005,170.82851200000005,170.82851200000005,170.82851200000005,170.82851200000005,170.82851200000005,170.82851200000005,170.82851200000005,170.82851200000005,009,P003,2025_Jan_18_1222,ConditionRich,2021.2.3,59.93048064203119,
142.75,143.0,41,0.0,Stimuli/Blank.png,0,0,0.0,0,247,247,247,,,,,,,,,,,,,142.7582638999993,0.008263899999292335,None,,171.56249519999983,171.56249519999983,171.56249519999983,171.56249519999983,171.56249519999983,171.56249519999983,171.56249519999983,171.56249519999983,171.56249519999983,171.56249519999983,009,P003,2025_Jan_18_1222,ConditionRich,2021.2.3,59.93048064203119,
143.0,143.75,13,0.75,Stimuli/P003/sun_bhbiqbqmwrowrqpd.jpg,0,0,0.0,0,248,248,248,,,,,,,,,,,,,143.00814030000038,0.008140300000377465,None,,171.8127132999998,171.8127132999998,171.8127132999998,171.8127132999998,171.8127132999998,171.8127132999998,171.8127132999998,171.8127132999998,171.8127132999998,171.8127132999998,009,P003,2025_Jan_18_1222,ConditionRich,2021.2.3,59.93048064203119,
143.75,144.0,41,0.0,Stimuli/Blank.png,0,0,0.0,0,249,249,249,,,,,,,,,,,,,143.75960710000072,0.009607100000721402,5,0.216434299998582,172.56337840000015,172.56337840000015,172.56337840000015,172.56337840000015,172.56337840000015,172.56337840000015,172.56337840000015,172.56337840000015,172.56337840000015,172.56337840000015,009,P003,2025_Jan_18_1222,ConditionRich,2021.2.3,59.93048064203119,
144.0,144.75,40,0.75,Stimuli/P003/things_woman_02s.jpg,0,0,0.0,0,250,250,250,,,,,,,,,,,,,144.00828600000023,0.008286000000225613,None,,172.81359269999848,172.81359269999848,172.81359269999848,172.81359269999848,172.81359269999848,172.81359269999848,172.81359269999848,172.81359269999848,172.81359269999848,172.81359269999848,009,P003,2025_Jan_18_1222,ConditionRich,2021.2.3,59.93048064203119,
144.75,145.0,41,0.0,Stimuli/Blank.png,0,0,0.0,0,251,251,251,,,,,,,,,,,,,144.75915820000046,0.009158200000456418,None,,173.56426060000013,173.56426060000013,173.56426060000013,173.56426060000013,173.56426060000013,173.56426060000013,173.56426060000013,173.56426060000013,173.56426060000013,173.56426060000013,009,P003,2025_Jan_18_1222,ConditionRich,2021.2.3,59.93048064203119,
145.0,145.75,40,0.75,Stimuli/P003/things_woman_02s.jpg,0,0,0.0,0,252,252,252,,,,,,,,,,,,,145.009833099999,0.009833099999013939,None,,173.81447279999884,173.81447279999884,173.81447279999884,173.81447279999884,173.81447279999884,173.81447279999884,173.81447279999884,173.81447279999884,173.81447279999884,173.81447279999884,009,P003,2025_Jan_18_1222,ConditionRich,2021.2.3,59.93048064203119,
145.75,146.0,41,0.0,Stimuli/Blank.png,0,0,0.0,0,253,253,253,,,,,,,,,,,,,145.75995420000072,0.009954200000720448,5,0.21452080000017304,174.56514049999896,174.56514049999896,174.56514049999896,174.56514049999896,174.56514049999896,174.56514049999896,174.56514049999896,174.56514049999896,174.56514049999896,174.56514049999896,009,P003,2025_Jan_18_1222,ConditionRich,2021.2.3,59.93048064203119,
146.0,146.75,40,0.75,Stimuli/P003/things_woman_02s.jpg,0,0,0.0,0,254,254,254,,,,,,,,,,,,,146.01010700000006,0.010107000000061817,None,,174.81535379999877,174.81535379999877,174.81535379999877,174.81535379999877,174.81535379999877,174.81535379999877,174.81535379999877,174.81535379999877,174.81535379999877,174.81535379999877,009,P003,2025_Jan_18_1222,ConditionRich,2021.2.3,59.93048064203119,
146.75,147.0,41,0.0,Stimuli/Blank.png,0,0,0.0,0,255,255,255,,,,,,,,,,,,,146.76364560000002,0.013645600000018021,None,,175.58269979999932,175.58269979999932,175.58269979999932,175.58269979999932,175.58269979999932,175.58269979999932,175.58269979999932,175.58269979999932,175.58269979999932,175.58269979999932,009,P003,2025_Jan_18_1222,ConditionRich,2021.2.3,59.93048064203119,
147.0,147.75,40,0.75,Stimuli/P003/things_woman_02s.jpg,0,0,0.0,0,256,256,256,,,,,,,,,,,,,147.0285201000006,0.028520100000605453,None,,175.8329225999987,175.8329225999987,175.8329225999987,175.8329225999987,175.8329225999987,175.8329225999987,175.8329225999987,175.8329225999987,175.8329225999987,175.8329225999987,009,P003,2025_Jan_18_1222,ConditionRich,2021.2.3,59.93048064203119,
147.75,148.0,41,0.0,Stimuli/Blank.png,0,0,0.0,0,257,257,257,,,,,,,,,,,,,147.76386559999992,0.013865599999917322,5,0.19611729999996896,176.5835838999992,176.5835838999992,176.5835838999992,176.5835838999992,176.5835838999992,176.5835838999992,176.5835838999992,176.5835838999992,176.5835838999992,176.5835838999992,009,P003,2025_Jan_18_1222,ConditionRich,2021.2.3,59.93048064203119,
148.0,148.75,29,0.75,Stimuli/P003/things_mat_02s.jpg,0,0,0.0,0,258,258,258,,,,,,,,,,,,,148.02925379999942,0.02925379999942379,None,,176.83381109999937,176.83381109999937,176.83381109999937,176.83381109999937,176.83381109999937,176.83381109999937,176.83381109999937,176.83381109999937,176.83381109999937,176.83381109999937,009,P003,2025_Jan_18_1222,ConditionRich,2021.2.3,59.93048064203119,
148.75,149.0,41,0.0,Stimuli/Blank.png,0,0,0.0,0,259,259,259,,,,,,,,,,,,,148.76348549999966,0.013485499999660533,None,,177.5677932999988,177.5677932999988,177.5677932999988,177.5677932999988,177.5677932999988,177.5677932999988,177.5677932999988,177.5677932999988,177.5677932999988,177.5677932999988,009,P003,2025_Jan_18_1222,ConditionRich,2021.2.3,59.93048064203119,
149.0,149.75,29,0.75,Stimuli/P003/things_mat_02s.jpg,0,0,0.0,0,260,260,260,,,,,,,,,,,,,149.01422989999992,0.014229899999918416,None,,177.83469589999913,177.83469589999913,177.83469589999913,177.83469589999913,177.83469589999913,177.83469589999913,177.83469589999913,177.83469589999913,177.83469589999913,177.83469589999913,009,P003,2025_Jan_18_1222,ConditionRich,2021.2.3,59.93048064203119,
