eventStartTime,eventEndTime,eventCond,imSize,imFile,responseEvent,fixRespStart,fixRespEnd,Events.thisRepN,Events.thisTrialN,Events.thisN,Events.thisIndex,Instructions.started,Instructions.stopped,participantReadyResponse.keys,participantReadyResponse.rt,participantReadyResponse.started,participantReadyResponse.stopped,startWaitforTrigger,triggerResponse.keys,triggerResponse.rt,triggerResponse.started,triggerResponse.stopped,globalTimer,actualStartTime,startTimingDiff,participantResponse.keys,participantResponse.rt,participantResponse.started,participantResponse.stopped,image.started,image.stopped,fixationOutside.started,fixationOutside.stopped,fixationResponse.started,fixationResponse.stopped,fixationInside.started,fixationInside.stopped,session,participant,date,expName,psychopyVersion,frameRate,
,,,,,,,,,,,,14.602271300000211,None,1,1.7332966000012675,14.602271300000211,None,,,,,,,,,,,,,,,,,,,,,007,P003,2025_Jan_18_1207,ConditionRich,2021.2.3,59.95351204720449,
,,,,,,,,,,,,,,,,,,16.347951399999147,5,22.047857400000794,16.360767599999235,None,,,,,,,,,,,,,,,,007,P003,2025_Jan_18_1207,ConditionRich,2021.2.3,59.95351204720449,
0.0,4.0,0,0.0,Stimuli/Blank.png,0,0,0.0,0,0,0,0,,,,,,,,,,,,38.4174411999993,0.03868270000020857,0.03868270000020857,5,3.928246499999659,38.48024070000065,None,38.48024070000065,None,38.48024070000065,None,38.48024070000065,38.48024070000065,38.48024070000065,None,007,P003,2025_Jan_18_1207,ConditionRich,2021.2.3,59.95351204720449,
4.0,7.75,12,0.75,Stimuli/P003/sun_bcboctumoxwpdefl.jpg,1,1,1.75,0,1,1,1,,,,,,,,,,,,,4.023157200001151,0.023157200001151068,5,1.9412584000001516,42.467454600000565,42.467454600000565,42.467454600000565,42.467454600000565,42.467454600000565,42.467454600000565,43.45127180000054,44.20193870000003,42.467454600000565,42.467454600000565,007,P003,2025_Jan_18_1207,ConditionRich,2021.2.3,59.95351204720449,
7.75,8.0,41,0.0,Stimuli/Blank.png,0,0,0.0,0,2,2,2,,,,,,,,,,,,,7.771861000001081,0.021861000001081266,None,,46.20397889999913,46.20397889999913,46.20397889999913,46.20397889999913,46.20397889999913,46.20397889999913,46.20397889999913,46.20397889999913,46.20397889999913,46.20397889999913,007,P003,2025_Jan_18_1207,ConditionRich,2021.2.3,59.95351204720449,
8.0,11.75,21,0.75,Stimuli/P003/things_baby_02s.jpg,1,2,2.75,0,3,3,3,,,,,,,,,,,,,8.00594060000003,0.005940600000030827,1,2.3985261999987415,46.45391720000043,46.45391720000043,46.45391720000043,46.45391720000043,46.45391720000043,46.45391720000043,48.422323900000265,49.17298099999971,46.45391720000043,46.45391720000043,007,P003,2025_Jan_18_1207,ConditionRich,2021.2.3,59.95351204720449,
11.75,12.0,41,0.0,Stimuli/Blank.png,0,0,0.0,0,4,4,4,,,,,,,,,,,,,11.775710400001117,0.025710400001116795,5,0.20125390000066545,50.207202399999005,50.207202399999005,50.207202399999005,50.207202399999005,50.207202399999005,50.207202399999005,50.207202399999005,50.207202399999005,50.207202399999005,50.207202399999005,007,P003,2025_Jan_18_1207,ConditionRich,2021.2.3,59.95351204720449,
12.0,15.75,38,0.75,Stimuli/P003/things_slug_02s.jpg,0,0,0.0,0,5,5,5,,,,,,,,,,,,,12.009108399999604,0.009108399999604444,5,1.9676106999995682,50.44075720000001,50.44075720000001,50.44075720000001,50.44075720000001,50.44075720000001,50.44075720000001,50.44075720000001,50.44075720000001,50.44075720000001,50.44075720000001,007,P003,2025_Jan_18_1207,ConditionRich,2021.2.3,59.95351204720449,
15.75,16.0,41,0.0,Stimuli/Blank.png,0,0,0.0,0,6,6,6,,,,,,,,,,,,,15.762486400000853,0.012486400000852882,5,0.215632800000094,54.19407169999977,54.19407169999977,54.19407169999977,54.19407169999977,54.19407169999977,54.19407169999977,54.19407169999977,54.19407169999977,54.19407169999977,54.19407169999977,007,P003,2025_Jan_18_1207,ConditionRich,2021.2.3,59.95351204720449,
16.0,19.75,33,0.75,Stimuli/P003/things_recorder_02s.jpg,0,0,0.0,0,7,7,7,,,,,,,,,,,,,16.012603500001205,0.012603500001205248,5,1.9485862999990786,54.46098519999941,54.46098519999941,54.46098519999941,54.46098519999941,54.46098519999941,54.46098519999941,54.46098519999941,54.46098519999941,54.46098519999941,54.46098519999941,007,P003,2025_Jan_18_1207,ConditionRich,2021.2.3,59.95351204720449,
19.75,20.0,41,0.0,Stimuli/Blank.png,0,0,0.0,0,8,8,8,,,,,,,,,,,,,19.767046900000423,0.017046900000423193,5,0.1950395000003482,58.21429739999985,58.21429739999985,58.21429739999985,58.21429739999985,58.21429739999985,58.21429739999985,58.21429739999985,58.21429739999985,58.21429739999985,58.21429739999985,007,P003,2025_Jan_18_1207,ConditionRich,2021.2.3,59.95351204720449,
20.0,23.75,16,0.75,Stimuli/P003/sun_bjuoemgleyaogrmw.jpg,0,0,0.0,0,9,9,9,,,,,,,,,,,,,20.01585200000045,0.01585200000045006,5,1.9616165999996156,58.447811699999875,58.447811699999875,58.447811699999875,58.447811699999875,58.447811699999875,58.447811699999875,58.447811699999875,58.447811699999875,58.447811699999875,58.447811699999875,007,P003,2025_Jan_18_1207,ConditionRich,2021.2.3,59.95351204720449,
23.75,24.0,41,0.0,Stimuli/Blank.png,0,0,0.0,0,10,10,10,,,,,,,,,,,,,23.753024200001164,0.0030242000011639902,None,,62.184433099999296,62.184433099999296,62.184433099999296,62.184433099999296,62.184433099999296,62.184433099999296,62.184433099999296,62.184433099999296,62.184433099999296,62.184433099999296,007,P003,2025_Jan_18_1207,ConditionRich,2021.2.3,59.95351204720449,
24.0,27.75,9,0.75,Stimuli/P003/sun_auqtrqkaobyprnjy.jpg,1,1,1.75,0,11,11,11,,,,,,,,,,,,,24.002909500000897,0.0029095000008965144,5,1.958079899999575,62.451333400000294,62.451333400000294,62.451333400000294,62.451333400000294,62.451333400000294,62.451333400000294,63.41886049999994,64.16960010000003,62.451333400000294,62.451333400000294,007,P003,2025_Jan_18_1207,ConditionRich,2021.2.3,59.95351204720449,
27.75,28.0,41,0.0,Stimuli/Blank.png,0,0,0.0,0,12,12,12,,,,,,,,,,,,,27.775641399999586,0.0256413999995857,5,0.1881413999999495,66.22132760000022,66.22132760000022,66.22132760000022,66.22132760000022,66.22132760000022,66.22132760000022,66.22132760000022,66.22132760000022,66.22132760000022,66.22132760000022,007,P003,2025_Jan_18_1207,ConditionRich,2021.2.3,59.95351204720449,
28.0,31.75,7,0.75,Stimuli/P003/sun_asgixjtedklbawgm.jpg,0,0,0.0,0,13,13,13,,,,,,,,,,,,,28.02396940000108,0.02396940000107861,5,1.9378472000007605,66.47153609999987,66.47153609999987,66.47153609999987,66.47153609999987,66.47153609999987,66.47153609999987,66.47153609999987,66.47153609999987,66.47153609999987,66.47153609999987,007,P003,2025_Jan_18_1207,ConditionRich,2021.2.3,59.95351204720449,
31.75,32.0,41,0.0,Stimuli/Blank.png,0,0,0.0,0,14,14,14,,,,,,,,,,,,,31.776940699999614,0.02694069999961357,5,0.2012099000003218,70.20816390000073,70.20816390000073,70.20816390000073,70.20816390000073,70.20816390000073,70.20816390000073,70.20816390000073,70.20816390000073,70.20816390000073,70.20816390000073,007,P003,2025_Jan_18_1207,ConditionRich,2021.2.3,59.95351204720449,
32.0,35.75,2,0.75,Stimuli/P003/sun_afijjzyziczoqdhz.jpg,0,0,0.0,0,15,15,15,,,,,,,,,,,,,32.00990450000063,0.009904500000629923,5,1.9677389999997104,70.44170099999974,70.44170099999974,70.44170099999974,70.44170099999974,70.44170099999974,70.44170099999974,70.44170099999974,70.44170099999974,70.44170099999974,70.44170099999974,007,P003,2025_Jan_18_1207,ConditionRich,2021.2.3,59.95351204720449,
35.75,36.0,41,0.0,Stimuli/Blank.png,0,0,0.0,0,16,16,16,,,,,,,,,,,,,35.76290510000035,0.012905100000352832,5,0.2143515000007028,74.19500180000068,74.19500180000068,74.19500180000068,74.19500180000068,74.19500180000068,74.19500180000068,74.19500180000068,74.19500180000068,74.19500180000068,74.19500180000068,007,P003,2025_Jan_18_1207,ConditionRich,2021.2.3,59.95351204720449,
36.0,39.75,23,0.75,Stimuli/P003/things_butterfly_02s.jpg,0,0,0.0,0,17,17,17,,,,,,,,,,,,,36.01403630000095,0.014036300000952906,5,1.9475799000010738,74.46190419999948,74.46190419999948,74.46190419999948,74.46190419999948,74.46190419999948,74.46190419999948,74.46190419999948,74.46190419999948,74.46190419999948,74.46190419999948,007,P003,2025_Jan_18_1207,ConditionRich,2021.2.3,59.95351204720449,
39.75,40.0,41,0.0,Stimuli/Blank.png,0,0,0.0,0,18,18,18,,,,,,,,,,,,,39.76710380000077,0.017103800000768388,None,,78.19852960000026,78.19852960000026,78.19852960000026,78.19852960000026,78.19852960000026,78.19852960000026,78.19852960000026,78.19852960000026,78.19852960000026,78.19852960000026,007,P003,2025_Jan_18_1207,ConditionRich,2021.2.3,59.95351204720449,
40.0,43.75,40,0.75,Stimuli/P003/things_woman_02s.jpg,0,0,0.0,0,19,19,19,,,,,,,,,,,,,40.001329599999735,0.0013295999997353647,5,1.9605831999997463,78.4487509999999,78.4487509999999,78.4487509999999,78.4487509999999,78.4487509999999,78.4487509999999,78.4487509999999,78.4487509999999,78.4487509999999,78.4487509999999,007,P003,2025_Jan_18_1207,ConditionRich,2021.2.3,59.95351204720449,
43.75,44.0,41,0.0,Stimuli/Blank.png,0,0,0.0,0,20,20,20,,,,,,,,,,,,,43.771291799999744,0.0212917999997444,None,,82.20206300000063,82.20206300000063,82.20206300000063,82.20206300000063,82.20206300000063,82.20206300000063,82.20206300000063,82.20206300000063,82.20206300000063,82.20206300000063,007,P003,2025_Jan_18_1207,ConditionRich,2021.2.3,59.95351204720449,
44.0,47.75,4,0.75,Stimuli/P003/sun_albtqdieqkajejrg.jpg,0,0,0.0,0,21,21,21,,,,,,,,,,,,,44.00622730000032,0.006227300000318792,5,1.9573020999996515,82.45228130000032,82.45228130000032,82.45228130000032,82.45228130000032,82.45228130000032,82.45228130000032,82.45228130000032,82.45228130000032,82.45228130000032,82.45228130000032,007,P003,2025_Jan_18_1207,ConditionRich,2021.2.3,59.95351204720449,
47.75,48.0,41,0.0,Stimuli/Blank.png,0,0,0.0,0,22,22,22,,,,,,,,,,,,,47.77414959999987,0.024149599999873317,None,,86.20558100000017,86.20558100000017,86.20558100000017,86.20558100000017,86.20558100000017,86.20558100000017,86.20558100000017,86.20558100000017,86.20558100000017,86.20558100000017,007,P003,2025_Jan_18_1207,ConditionRich,2021.2.3,59.95351204720449,
48.0,51.75,1,0.75,Stimuli/P003/sun_adgmtzznutwlescq.jpg,0,0,0.0,0,23,23,23,,,,,,,,,,,,,48.00756000000001,0.007560000000012224,5,1.9535534999995434,86.45581350000066,86.45581350000066,86.45581350000066,86.45581350000066,86.45581350000066,86.45581350000066,86.45581350000066,86.45581350000066,86.45581350000066,86.45581350000066,007,P003,2025_Jan_18_1207,ConditionRich,2021.2.3,59.95351204720449,
51.75,52.0,41,0.0,Stimuli/Blank.png,0,0,0.0,0,24,24,24,,,,,,,,,,,,,51.777988699999696,0.02798869999969611,5,0.2002253999999084,90.20916770000076,90.20916770000076,90.20916770000076,90.20916770000076,90.20916770000076,90.20916770000076,90.20916770000076,90.20916770000076,90.20916770000076,90.20916770000076,007,P003,2025_Jan_18_1207,ConditionRich,2021.2.3,59.95351204720449,
52.0,55.75,39,0.75,Stimuli/P003/things_toad_02s.jpg,0,0,0.0,0,25,25,25,,,,,,,,,,,,,52.011556700001165,0.011556700001165154,5,1.9499238999997033,90.45933890000015,90.45933890000015,90.45933890000015,90.45933890000015,90.45933890000015,90.45933890000015,90.45933890000015,90.45933890000015,90.45933890000015,90.45933890000015,007,P003,2025_Jan_18_1207,ConditionRich,2021.2.3,59.95351204720449,
55.75,56.0,41,0.0,Stimuli/Blank.png,0,0,0.0,0,26,26,26,,,,,,,,,,,,,55.78141669999968,0.03141669999968144,5,0.19680869999865536,94.21262550000029,94.21262550000029,94.21262550000029,94.21262550000029,94.21262550000029,94.21262550000029,94.21262550000029,94.21262550000029,94.21262550000029,94.21262550000029,007,P003,2025_Jan_18_1207,ConditionRich,2021.2.3,59.95351204720449,
56.0,59.75,37,0.75,Stimuli/P003/things_ski_lift_02s.jpg,0,0,0.0,0,27,27,27,,,,,,,,,,,,,56.01445820000117,0.014458200001172372,5,1.9630305000009685,94.44616649999989,94.44616649999989,94.44616649999989,94.44616649999989,94.44616649999989,94.44616649999989,94.44616649999989,94.44616649999989,94.44616649999989,94.44616649999989,007,P003,2025_Jan_18_1207,ConditionRich,2021.2.3,59.95351204720449,
59.75,60.0,41,0.0,Stimuli/Blank.png,0,0,0.0,0,28,28,28,,,,,,,,,,,,,59.75076210000043,0.0007621000004292,None,,98.18278559999999,98.18278559999999,98.18278559999999,98.18278559999999,98.18278559999999,98.18278559999999,98.18278559999999,98.18278559999999,98.18278559999999,98.18278559999999,007,P003,2025_Jan_18_1207,ConditionRich,2021.2.3,59.95351204720449,
60.0,63.75,13,0.75,Stimuli/P003/sun_bhbiqbqmwrowrqpd.jpg,0,0,0.0,0,29,29,29,,,,,,,,,,,,,60.00153970000065,0.001539700000648736,5,1.9595079000009719,98.44969350000065,98.44969350000065,98.44969350000065,98.44969350000065,98.44969350000065,98.44969350000065,98.44969350000065,98.44969350000065,98.44969350000065,98.44969350000065,007,P003,2025_Jan_18_1207,ConditionRich,2021.2.3,59.95351204720449,
63.75,64.0,41,0.0,Stimuli/Blank.png,0,0,0.0,0,30,30,30,,,,,,,,,,,,,63.77145560000099,0.02145560000099067,None,,102.20298980000007,102.20298980000007,102.20298980000007,102.20298980000007,102.20298980000007,102.20298980000007,102.20298980000007,102.20298980000007,102.20298980000007,102.20298980000007,007,P003,2025_Jan_18_1207,ConditionRich,2021.2.3,59.95351204720449,
64.0,67.75,27,0.75,Stimuli/P003/things_llama_02s.jpg,0,0,0.0,0,31,31,31,,,,,,,,,,,,,64.00520940000024,0.005209400000239839,5,1.972686100001738,102.43653129999984,102.43653129999984,102.43653129999984,102.43653129999984,102.43653129999984,102.43653129999984,102.43653129999984,102.43653129999984,102.43653129999984,102.43653129999984,007,P003,2025_Jan_18_1207,ConditionRich,2021.2.3,59.95351204720449,
67.75,68.0,41,0.0,Stimuli/Blank.png,0,0,0.0,0,32,32,32,,,,,,,,,,,,,67.7587867000002,0.008786700000200653,None,,106.18984079999973,106.18984079999973,106.18984079999973,106.18984079999973,106.18984079999973,106.18984079999973,106.18984079999973,106.18984079999973,106.18984079999973,106.18984079999973,007,P003,2025_Jan_18_1207,ConditionRich,2021.2.3,59.95351204720449,
68.0,71.75,8,0.75,Stimuli/P003/sun_asxkyzleyfgbqfrs.jpg,0,0,0.0,0,33,33,33,,,,,,,,,,,,,68.00837219999994,0.008372199999939767,5,1.969177099999797,106.4400542000003,106.4400542000003,106.4400542000003,106.4400542000003,106.4400542000003,106.4400542000003,106.4400542000003,106.4400542000003,106.4400542000003,106.4400542000003,007,P003,2025_Jan_18_1207,ConditionRich,2021.2.3,59.95351204720449,
71.75,72.0,41,0.0,Stimuli/Blank.png,0,0,0.0,0,34,34,34,,,,,,,,,,,,,71.76143030000094,0.011430300000938587,5,0.21595799999886367,110.19336049999947,110.19336049999947,110.19336049999947,110.19336049999947,110.19336049999947,110.19336049999947,110.19336049999947,110.19336049999947,110.19336049999947,110.19336049999947,007,P003,2025_Jan_18_1207,ConditionRich,2021.2.3,59.95351204720449,
72.0,75.75,34,0.75,Stimuli/P003/things_roll_02s.jpg,1,0,0.75,0,35,35,35,,,,,,,,,,,,,72.01153800000066,0.011538000000655302,5,1.9656510000004346,110.44357409999975,110.44357409999975,110.44357409999975,110.44357409999975,110.44357409999975,110.44357409999975,110.44357409999975,111.1775462000005,110.44357409999975,110.44357409999975,007,P003,2025_Jan_18_1207,ConditionRich,2021.2.3,59.95351204720449,
75.75,76.0,41,0.0,Stimuli/Blank.png,0,0,0.0,0,36,36,36,,,,,,,,,,,,,75.76531760000034,0.0153176000003441,5,0.21248519999971904,114.19687879999947,114.19687879999947,114.19687879999947,114.19687879999947,114.19687879999947,114.19687879999947,114.19687879999947,114.19687879999947,114.19687879999947,114.19687879999947,007,P003,2025_Jan_18_1207,ConditionRich,2021.2.3,59.95351204720449,
76.0,79.75,18,0.75,Stimuli/P003/sun_bplhnzkztpigweny.jpg,0,0,0.0,0,37,37,37,,,,,,,,,,,,,76.01561089999996,0.015610899999956018,5,1.9622381999997742,114.44710040000064,114.44710040000064,114.44710040000064,114.44710040000064,114.44710040000064,114.44710040000064,114.44710040000064,114.44710040000064,114.44710040000064,114.44710040000064,007,P003,2025_Jan_18_1207,ConditionRich,2021.2.3,59.95351204720449,
79.75,80.0,41,0.0,Stimuli/Blank.png,0,0,0.0,0,38,38,38,,,,,,,,,,,,,79.75163840000096,0.001638400000956608,None,,118.18374089999998,118.18374089999998,118.18374089999998,118.18374089999998,118.18374089999998,118.18374089999998,118.18374089999998,118.18374089999998,118.18374089999998,118.18374089999998,007,P003,2025_Jan_18_1207,ConditionRich,2021.2.3,59.95351204720449,
80.0,83.75,14,0.75,Stimuli/P003/sun_bhhtrmwvoadbfucw.jpg,0,0,0.0,0,39,39,39,,,,,,,,,,,,,80.0022528999998,0.0022528999998030486,5,1.9584759999997914,118.4506392000003,118.4506392000003,118.4506392000003,118.4506392000003,118.4506392000003,118.4506392000003,118.4506392000003,118.4506392000003,118.4506392000003,118.4506392000003,007,P003,2025_Jan_18_1207,ConditionRich,2021.2.3,59.95351204720449,
83.75,84.0,41,0.0,Stimuli/Blank.png,0,0,0.0,0,40,40,40,,,,,,,,,,,,,83.77221509999981,0.022215099999812082,None,,122.20393429999967,122.20393429999967,122.20393429999967,122.20393429999967,122.20393429999967,122.20393429999967,122.20393429999967,122.20393429999967,122.20393429999967,122.20393429999967,007,P003,2025_Jan_18_1207,ConditionRich,2021.2.3,59.95351204720449,
84.0,100.0,0,0.0,Stimuli/Blank.png,1,10,10.75,0,41,41,41,,,,,,,,,,,,,84.00693479999973,0.006934799999726238,5,13.971604799999113,122.43746800000008,122.43746800000008,122.43746800000008,122.43746800000008,122.43746800000008,122.43746800000008,132.42955359999905,133.18027579999944,122.43746800000008,122.43746800000008,007,P003,2025_Jan_18_1207,ConditionRich,2021.2.3,59.95351204720449,
100.0,103.75,29,0.75,Stimuli/P003/things_mat_02s.jpg,0,0,0.0,0,42,42,42,,,,,,,,,,,,,100.00400980000086,0.004009800000858377,5,1.9574989000011556,138.45155189999969,138.45155189999969,138.45155189999969,138.45155189999969,138.45155189999969,138.45155189999969,138.45155189999969,138.45155189999969,138.45155189999969,138.45155189999969,007,P003,2025_Jan_18_1207,ConditionRich,2021.2.3,59.95351204720449,
103.75,104.0,41,0.0,Stimuli/Blank.png,0,0,0.0,0,43,43,43,,,,,,,,,,,,,103.7752756000009,0.025275600000895793,5,0.18762339999921096,142.22155519999978,142.22155519999978,142.22155519999978,142.22155519999978,142.22155519999978,142.22155519999978,142.22155519999978,142.22155519999978,142.22155519999978,142.22155519999978,007,P003,2025_Jan_18_1207,ConditionRich,2021.2.3,59.95351204720449,
104.0,107.75,28,0.75,Stimuli/P003/things_man_02s.jpg,0,0,0.0,0,44,44,44,,,,,,,,,,,,,104.02561510000123,0.02561510000123235,5,1.9373319999995147,142.47177069999998,142.47177069999998,142.47177069999998,142.47177069999998,142.47177069999998,142.47177069999998,142.47177069999998,142.47177069999998,142.47177069999998,142.47177069999998,007,P003,2025_Jan_18_1207,ConditionRich,2021.2.3,59.95351204720449,
107.75,108.0,41,0.0,Stimuli/Blank.png,0,0,0.0,0,45,45,45,,,,,,,,,,,,,107.776560100001,0.026560100001006504,5,0.20069379999949888,146.2083889000005,146.2083889000005,146.2083889000005,146.2083889000005,146.2083889000005,146.2083889000005,146.2083889000005,146.2083889000005,146.2083889000005,146.2083889000005,007,P003,2025_Jan_18_1207,ConditionRich,2021.2.3,59.95351204720449,
108.0,111.75,25,0.75,Stimuli/P003/things_girl_02s.jpg,0,0,0.0,0,46,46,46,,,,,,,,,,,,,108.0107097,0.010709700000006706,5,1.9672589999991033,146.44192569999905,146.44192569999905,146.44192569999905,146.44192569999905,146.44192569999905,146.44192569999905,146.44192569999905,146.44192569999905,146.44192569999905,146.44192569999905,007,P003,2025_Jan_18_1207,ConditionRich,2021.2.3,59.95351204720449,
111.75,112.0,41,0.0,Stimuli/Blank.png,0,0,0.0,0,47,47,47,,,,,,,,,,,,,111.76571570000124,0.015715700001237565,5,0.197172899999714,150.21191709999948,150.21191709999948,150.21191709999948,150.21191709999948,150.21191709999948,150.21191709999948,150.21191709999948,150.21191709999948,150.21191709999948,150.21191709999948,007,P003,2025_Jan_18_1207,ConditionRich,2021.2.3,59.95351204720449,
112.0,115.75,36,0.75,Stimuli/P003/things_sea_urchin_02s.jpg,0,0,0.0,0,48,48,48,,,,,,,,,,,,,112.0139618000012,0.013961800001197844,5,1.9636026000007405,150.44544549999955,150.44544549999955,150.44544549999955,150.44544549999955,150.44544549999955,150.44544549999955,150.44544549999955,150.44544549999955,150.44544549999955,150.44544549999955,007,P003,2025_Jan_18_1207,ConditionRich,2021.2.3,59.95351204720449,
115.75,116.0,41,0.0,Stimuli/Blank.png,0,0,0.0,0,49,49,49,,,,,,,,,,,,,115.75067860000127,0.0006786000012652948,None,,154.1820805999996,154.1820805999996,154.1820805999996,154.1820805999996,154.1820805999996,154.1820805999996,154.1820805999996,154.1820805999996,154.1820805999996,154.1820805999996,007,P003,2025_Jan_18_1207,ConditionRich,2021.2.3,59.95351204720449,
116.0,119.75,31,0.75,Stimuli/P003/things_pea_02s.jpg,0,0,0.0,0,50,50,50,,,,,,,,,,,,,116.00111680000009,0.001116800000090734,5,1.9603661000001011,154.448965399999,154.448965399999,154.448965399999,154.448965399999,154.448965399999,154.448965399999,154.448965399999,154.448965399999,154.448965399999,154.448965399999,007,P003,2025_Jan_18_1207,ConditionRich,2021.2.3,59.95351204720449,
119.75,120.0,41,0.0,Stimuli/Blank.png,0,0,0.0,0,51,51,51,,,,,,,,,,,,,119.77184219999981,0.021842199999809964,5,0.1903786000002583,158.21903270000075,158.21903270000075,158.21903270000075,158.21903270000075,158.21903270000075,158.21903270000075,158.21903270000075,158.21903270000075,158.21903270000075,158.21903270000075,007,P003,2025_Jan_18_1207,ConditionRich,2021.2.3,59.95351204720449,
120.0,123.75,3,0.75,Stimuli/P003/sun_afqjzrocqhabifao.jpg,1,3,3.75,0,52,52,52,,,,,,,,,,,,,120.02059080000072,0.020590800000718446,1,3.46052360000067,158.4524961999996,158.4524961999996,158.4524961999996,158.4524961999996,158.4524961999996,158.4524961999996,161.43844460000037,None,158.4524961999996,158.4524961999996,007,P003,2025_Jan_18_1207,ConditionRich,2021.2.3,59.95351204720449,
123.75,124.0,41,0.0,Stimuli/Blank.png,0,0,0.0,0,53,53,53,,,,,,,,,,,,,123.7581065000013,0.008106500001304084,None,,162.1891281999997,162.1891281999997,162.1891281999997,162.1891281999997,162.1891281999997,162.1891281999997,162.1891281999997,162.1891281999997,162.1891281999997,162.1891281999997,007,P003,2025_Jan_18_1207,ConditionRich,2021.2.3,59.95351204720449,
124.0,127.75,24,0.75,Stimuli/P003/things_dumpling_02s.jpg,0,0,0.0,0,54,54,54,,,,,,,,,,,,,124.00746919999983,0.007469199999832199,5,1.9530835999994451,162.45602970000073,162.45602970000073,162.45602970000073,162.45602970000073,162.45602970000073,162.45602970000073,162.45602970000073,162.45602970000073,162.45602970000073,162.45602970000073,007,P003,2025_Jan_18_1207,ConditionRich,2021.2.3,59.95351204720449,
127.75,128.0,41,0.0,Stimuli/Blank.png,0,0,0.0,0,55,55,55,,,,,,,,,,,,,127.7778656999999,0.027865699999892968,5,0.19955759999902511,166.20940899999914,166.20940899999914,166.20940899999914,166.20940899999914,166.20940899999914,166.20940899999914,166.20940899999914,166.20940899999914,166.20940899999914,166.20940899999914,007,P003,2025_Jan_18_1207,ConditionRich,2021.2.3,59.95351204720449,
128.0,131.75,20,0.75,Stimuli/P003/sun_bwytihadgigwkyht.jpg,0,0,0.0,0,56,56,56,,,,,,,,,,,,,128.01160830000117,0.011608300001171301,5,1.9661424000005354,166.4428637000001,166.4428637000001,166.4428637000001,166.4428637000001,166.4428637000001,166.4428637000001,166.4428637000001,166.4428637000001,166.4428637000001,166.4428637000001,007,P003,2025_Jan_18_1207,ConditionRich,2021.2.3,59.95351204720449,
131.75,132.0,41,0.0,Stimuli/Blank.png,0,0,0.0,0,57,57,57,,,,,,,,,,,,,131.7647796000001,0.014779600000110804,5,0.21298990000104823,170.1961635000007,170.1961635000007,170.1961635000007,170.1961635000007,170.1961635000007,170.1961635000007,170.1961635000007,170.1961635000007,170.1961635000007,170.1961635000007,007,P003,2025_Jan_18_1207,ConditionRich,2021.2.3,59.95351204720449,
132.0,135.75,17,0.75,Stimuli/P003/sun_bojovhhraxtgafcy.jpg,0,0,0.0,0,58,58,58,,,,,,,,,,,,,132.0156543000012,0.01565430000118795,5,1.946084699999119,170.46307239999987,170.46307239999987,170.46307239999987,170.46307239999987,170.46307239999987,170.46307239999987,170.46307239999987,170.46307239999987,170.46307239999987,170.46307239999987,007,P003,2025_Jan_18_1207,ConditionRich,2021.2.3,59.95351204720449,
135.75,136.0,41,0.0,Stimuli/Blank.png,0,0,0.0,0,59,59,59,,,,,,,,,,,,,135.76783539999997,0.017835399999967194,None,,174.19975130000057,174.19975130000057,174.19975130000057,174.19975130000057,174.19975130000057,174.19975130000057,174.19975130000057,174.19975130000057,174.19975130000057,174.19975130000057,007,P003,2025_Jan_18_1207,ConditionRich,2021.2.3,59.95351204720449,
136.0,139.75,26,0.75,Stimuli/P003/things_ham_02s.jpg,0,0,0.0,0,60,60,60,,,,,,,,,,,,,136.0016615000004,0.0016615000004094327,5,1.976022599999851,174.43323729999975,174.43323729999975,174.43323729999975,174.43323729999975,174.43323729999975,174.43323729999975,174.43323729999975,174.43323729999975,174.43323729999975,174.43323729999975,007,P003,2025_Jan_18_1207,ConditionRich,2021.2.3,59.95351204720449,
139.75,140.0,41,0.0,Stimuli/Blank.png,0,0,0.0,0,61,61,61,,,,,,,,,,,,,139.7551825999999,0.00518259999989823,None,,178.18654389999938,178.18654389999938,178.18654389999938,178.18654389999938,178.18654389999938,178.18654389999938,178.18654389999938,178.18654389999938,178.18654389999938,178.18654389999938,007,P003,2025_Jan_18_1207,ConditionRich,2021.2.3,59.95351204720449,
140.0,143.75,32,0.75,Stimuli/P003/things_pulley_02s.jpg,1,0,0.75,0,62,62,62,,,,,,,,,,,,,140.0048020000013,0.004802000001291162,5,1.9722932999993645,178.43674780000038,178.43674780000038,178.43674780000038,178.43674780000038,178.43674780000038,178.43674780000038,178.43674780000038,179.1707566999994,178.43674780000038,178.43674780000038,007,P003,2025_Jan_18_1207,ConditionRich,2021.2.3,59.95351204720449,
143.75,144.0,41,0.0,Stimuli/Blank.png,0,0,0.0,0,63,63,63,,,,,,,,,,,,,143.75869469999998,0.008694699999978184,None,,182.19009969999934,182.19009969999934,182.19009969999934,182.19009969999934,182.19009969999934,182.19009969999934,182.19009969999934,182.19009969999934,182.19009969999934,182.19009969999934,007,P003,2025_Jan_18_1207,ConditionRich,2021.2.3,59.95351204720449,
144.0,147.75,6,0.75,Stimuli/P003/sun_aoumkoxfhlaobjef.jpg,0,0,0.0,0,64,64,64,,,,,,,,,,,,,144.00945370000045,0.009453700000449317,5,1.9519712000001164,182.4569503999992,182.4569503999992,182.4569503999992,182.4569503999992,182.4569503999992,182.4569503999992,182.4569503999992,182.4569503999992,182.4569503999992,182.4569503999992,007,P003,2025_Jan_18_1207,ConditionRich,2021.2.3,59.95351204720449,
147.75,148.0,41,0.0,Stimuli/Blank.png,0,0,0.0,0,65,65,65,,,,,,,,,,,,,147.7814460999998,0.03144609999981185,5,0.1819374999995489,186.2269185999994,186.2269185999994,186.2269185999994,186.2269185999994,186.2269185999994,186.2269185999994,186.2269185999994,186.2269185999994,186.2269185999994,186.2269185999994,007,P003,2025_Jan_18_1207,ConditionRich,2021.2.3,59.95351204720449,
148.0,151.75,15,0.75,Stimuli/P003/sun_bjhtdevvocmwtavk.jpg,0,0,0.0,0,66,66,66,,,,,,,,,,,,,148.02861699999994,0.028616999999940163,5,1.9484107000007498,186.4604761999999,186.4604761999999,186.4604761999999,186.4604761999999,186.4604761999999,186.4604761999999,186.4604761999999,186.4604761999999,186.4604761999999,186.4604761999999,007,P003,2025_Jan_18_1207,ConditionRich,2021.2.3,59.95351204720449,
151.75,152.0,41,0.0,Stimuli/Blank.png,0,0,0.0,0,67,67,67,,,,,,,,,,,,,151.7665444000013,0.01654440000129398,None,,190.1971083999997,190.1971083999997,190.1971083999997,190.1971083999997,190.1971083999997,190.1971083999997,190.1971083999997,190.1971083999997,190.1971083999997,190.1971083999997,007,P003,2025_Jan_18_1207,ConditionRich,2021.2.3,59.95351204720449,
152.0,155.75,30,0.75,Stimuli/P003/things_music_box_02s.jpg,0,0,0.0,0,68,68,68,,,,,,,,,,,,,152.0013111999997,0.0013111999996908708,5,1.9617296999986138,190.4473170000001,190.4473170000001,190.4473170000001,190.4473170000001,190.4473170000001,190.4473170000001,190.4473170000001,190.4473170000001,190.4473170000001,190.4473170000001,007,P003,2025_Jan_18_1207,ConditionRich,2021.2.3,59.95351204720449,
155.75,156.0,41,0.0,Stimuli/Blank.png,0,0,0.0,0,69,69,69,,,,,,,,,,,,,155.76989119999962,0.019891199999619857,None,,194.20063599999958,194.20063599999958,194.20063599999958,194.20063599999958,194.20063599999958,194.20063599999958,194.20063599999958,194.20063599999958,194.20063599999958,194.20063599999958,007,P003,2025_Jan_18_1207,ConditionRich,2021.2.3,59.95351204720449,
156.0,159.75,35,0.75,Stimuli/P003/things_satellite_dish_02s.jpg,1,3,3.75,0,70,70,70,,,,,,,,,,,,,156.00280399999974,0.002803999999741791,1,3.430838299998868,194.43416140000045,194.43416140000045,194.43416140000045,194.43416140000045,194.43416140000045,194.43416140000045,197.42014749999908,198.17078869999932,194.43416140000045,194.43416140000045,007,P003,2025_Jan_18_1207,ConditionRich,2021.2.3,59.95351204720449,
159.75,160.0,41,0.0,Stimuli/Blank.png,0,0,0.0,0,71,71,71,,,,,,,,,,,,,159.75611000000026,0.0061100000002625166,None,,198.1874656,198.1874656,198.1874656,198.1874656,198.1874656,198.1874656,198.1874656,198.1874656,198.1874656,198.1874656,007,P003,2025_Jan_18_1207,ConditionRich,2021.2.3,59.95351204720449,
160.0,163.75,11,0.75,Stimuli/P003/sun_bawmjlzsuuivqjhi.jpg,0,0,0.0,0,72,72,72,,,,,,,,,,,,,160.00644939999984,0.006449399999837624,5,1.971255000000383,198.43768389999968,198.43768389999968,198.43768389999968,198.43768389999968,198.43768389999968,198.43768389999968,198.43768389999968,198.43768389999968,198.43768389999968,198.43768389999968,007,P003,2025_Jan_18_1207,ConditionRich,2021.2.3,59.95351204720449,
163.75,164.0,41,0.0,Stimuli/Blank.png,0,0,0.0,0,73,73,73,,,,,,,,,,,,,163.75998900000013,0.009989000000132364,5,0.21791209999901184,202.19101649999902,202.19101649999902,202.19101649999902,202.19101649999902,202.19101649999902,202.19101649999902,202.19101649999902,202.19101649999902,202.19101649999902,202.19101649999902,007,P003,2025_Jan_18_1207,ConditionRich,2021.2.3,59.95351204720449,
164.0,167.75,19,0.75,Stimuli/P003/sun_bucebxfexknakpma.jpg,0,0,0.0,0,74,74,74,,,,,,,,,,,,,164.00975050000125,0.00975050000124611,5,1.9677178999991156,202.44124779999947,202.44124779999947,202.44124779999947,202.44124779999947,202.44124779999947,202.44124779999947,202.44124779999947,202.44124779999947,202.44124779999947,202.44124779999947,007,P003,2025_Jan_18_1207,ConditionRich,2021.2.3,59.95351204720449,
167.75,168.0,41,0.0,Stimuli/Blank.png,0,0,0.0,0,75,75,75,,,,,,,,,,,,,167.76340270000037,0.013402700000369805,5,0.21440640000037092,206.19452939999974,206.19452939999974,206.19452939999974,206.19452939999974,206.19452939999974,206.19452939999974,206.19452939999974,206.19452939999974,206.19452939999974,206.19452939999974,007,P003,2025_Jan_18_1207,ConditionRich,2021.2.3,59.95351204720449,
168.0,171.75,5,0.75,Stimuli/P003/sun_amnnxdwfjbdfumns.jpg,0,0,0.0,0,76,76,76,,,,,,,,,,,,,168.0130707999997,0.013070799999695737,5,1.9643106000003172,206.44473189999917,206.44473189999917,206.44473189999917,206.44473189999917,206.44473189999917,206.44473189999917,206.44473189999917,206.44473189999917,206.44473189999917,206.44473189999917,007,P003,2025_Jan_18_1207,ConditionRich,2021.2.3,59.95351204720449,
171.75,172.0,41,0.0,Stimuli/Blank.png,0,0,0.0,0,77,77,77,,,,,,,,,,,,,171.7508154999996,0.0008154999995895196,None,,210.1813662000004,210.1813662000004,210.1813662000004,210.1813662000004,210.1813662000004,210.1813662000004,210.1813662000004,210.1813662000004,210.1813662000004,210.1813662000004,007,P003,2025_Jan_18_1207,ConditionRich,2021.2.3,59.95351204720449,
172.0,175.75,22,0.75,Stimuli/P003/things_boy_02s.jpg,1,2,2.75,0,78,78,78,,,,,,,,,,,,,172.0010843,0.0010843000000022585,1,2.3738769000010507,210.44823879999967,210.44823879999967,210.44823879999967,210.44823879999967,210.44823879999967,210.44823879999967,212.416652599999,213.16731160000018,210.44823879999967,210.44823879999967,007,P003,2025_Jan_18_1207,ConditionRich,2021.2.3,59.95351204720449,
175.75,176.0,41,0.0,Stimuli/Blank.png,0,0,0.0,0,79,79,79,,,,,,,,,,,,,175.76958379999996,0.019583799999963958,None,,214.20155250000062,214.20155250000062,214.20155250000062,214.20155250000062,214.20155250000062,214.20155250000062,214.20155250000062,214.20155250000062,214.20155250000062,214.20155250000062,007,P003,2025_Jan_18_1207,ConditionRich,2021.2.3,59.95351204720449,
176.0,179.75,10,0.75,Stimuli/P003/sun_azzneunxibjvypza.jpg,0,0,0.0,0,80,80,80,,,,,,,,,,,,,176.00527460000012,0.005274600000120699,5,1.9570439999988594,214.45175820000077,214.45175820000077,214.45175820000077,214.45175820000077,214.45175820000077,214.45175820000077,214.45175820000077,214.45175820000077,214.45175820000077,214.45175820000077,007,P003,2025_Jan_18_1207,ConditionRich,2021.2.3,59.95351204720449,
179.75,180.0,41,0.0,Stimuli/Blank.png,0,0,0.0,0,81,81,81,,,,,,,,,,,,,179.7743769000008,0.024376900000788737,None,,218.20509590000074,218.20509590000074,218.20509590000074,218.20509590000074,218.20509590000074,218.20509590000074,218.20509590000074,218.20509590000074,218.20509590000074,218.20509590000074,007,P003,2025_Jan_18_1207,ConditionRich,2021.2.3,59.95351204720449,
180.0,196.0,0,0.0,Stimuli/Blank.png,1,12,12.75,0,82,82,82,,,,,,,,,,,,,180.0072194000004,0.007219400000394671,5,13.970099499998469,218.43862470000022,218.43862470000022,218.43862470000022,218.43862470000022,218.43862470000022,218.43862470000022,230.41583320000063,231.1664880999997,218.43862470000022,218.43862470000022,007,P003,2025_Jan_18_1207,ConditionRich,2021.2.3,59.95351204720449,
196.0,199.75,40,0.75,Stimuli/P003/things_woman_02s.jpg,0,0,0.0,0,83,83,83,,,,,,,,,,,,,196.0041837000008,0.004183700000794488,5,1.9727702000000136,234.4360519999991,234.4360519999991,234.4360519999991,234.4360519999991,234.4360519999991,234.4360519999991,234.4360519999991,234.4360519999991,234.4360519999991,234.4360519999991,007,P003,2025_Jan_18_1207,ConditionRich,2021.2.3,59.95351204720449,
199.75,200.0,41,0.0,Stimuli/Blank.png,0,0,0.0,0,84,84,84,,,,,,,,,,,,,199.75996789999954,0.009967899999537622,5,0.20270479999999225,238.20602560000043,238.20602560000043,238.20602560000043,238.20602560000043,238.20602560000043,238.20602560000043,238.20602560000043,238.20602560000043,238.20602560000043,238.20602560000043,007,P003,2025_Jan_18_1207,ConditionRich,2021.2.3,59.95351204720449,
200.0,203.75,1,0.75,Stimuli/P003/sun_adgmtzznutwlescq.jpg,0,0,0.0,0,85,85,85,,,,,,,,,,,,,200.02545180000016,0.025451800000155345,5,1.935834400001113,238.4729511000005,238.4729511000005,238.4729511000005,238.4729511000005,238.4729511000005,238.4729511000005,238.4729511000005,238.4729511000005,238.4729511000005,238.4729511000005,007,P003,2025_Jan_18_1207,ConditionRich,2021.2.3,59.95351204720449,
203.75,204.0,41,0.0,Stimuli/Blank.png,0,0,0.0,0,86,86,86,,,,,,,,,,,,,203.77757500000007,0.02757500000006985,5,0.19927429999916058,242.20954669999992,242.20954669999992,242.20954669999992,242.20954669999992,242.20954669999992,242.20954669999992,242.20954669999992,242.20954669999992,242.20954669999992,242.20954669999992,007,P003,2025_Jan_18_1207,ConditionRich,2021.2.3,59.95351204720449,
204.0,207.75,22,0.75,Stimuli/P003/things_boy_02s.jpg,1,1,1.75,0,87,87,87,,,,,,,,,,,,,204.01206339999953,0.01206339999953343,5,1.9489807999998447,242.4597845999997,242.4597845999997,242.4597845999997,242.4597845999997,242.4597845999997,242.4597845999997,243.42727960000047,244.17800010000065,242.4597845999997,242.4597845999997,007,P003,2025_Jan_18_1207,ConditionRich,2021.2.3,59.95351204720449,
207.75,208.0,41,0.0,Stimuli/Blank.png,0,0,0.0,0,88,88,88,,,,,,,,,,,,,207.78135500000099,0.031355000000985456,5,0.19582479999917268,246.21306410000034,246.21306410000034,246.21306410000034,246.21306410000034,246.21306410000034,246.21306410000034,246.21306410000034,246.21306410000034,246.21306410000034,246.21306410000034,007,P003,2025_Jan_18_1207,ConditionRich,2021.2.3,59.95351204720449,
208.0,211.75,30,0.75,Stimuli/P003/things_music_box_02s.jpg,0,0,0.0,0,89,89,89,,,,,,,,,,,,,208.01581310000074,0.015813100000741542,5,1.962245400000029,246.44661239999914,246.44661239999914,246.44661239999914,246.44661239999914,246.44661239999914,246.44661239999914,246.44661239999914,246.44661239999914,246.44661239999914,246.44661239999914,007,P003,2025_Jan_18_1207,ConditionRich,2021.2.3,59.95351204720449,
211.75,212.0,41,0.0,Stimuli/Blank.png,0,0,0.0,0,90,90,90,,,,,,,,,,,,,211.75215560000106,0.0021556000010605203,None,,250.18331860000035,250.18331860000035,250.18331860000035,250.18331860000035,250.18331860000035,250.18331860000035,250.18331860000035,250.18331860000035,250.18331860000035,250.18331860000035,007,P003,2025_Jan_18_1207,ConditionRich,2021.2.3,59.95351204720449,
212.0,215.75,24,0.75,Stimuli/P003/things_dumpling_02s.jpg,1,3,3.75,0,91,91,91,,,,,,,,,,,,,212.00238060000083,0.0023806000008335104,1,3.369427999999971,250.43344950000028,250.43344950000028,250.43344950000028,250.43344950000028,250.43344950000028,250.43344950000028,253.4194494000003,254.1700884999991,250.43344950000028,250.43344950000028,007,P003,2025_Jan_18_1207,ConditionRich,2021.2.3,59.95351204720449,
215.75,216.0,41,0.0,Stimuli/Blank.png,0,0,0.0,0,92,92,92,,,,,,,,,,,,,215.7562130999995,0.006213099999513361,None,,254.18676090000008,254.18676090000008,254.18676090000008,254.18676090000008,254.18676090000008,254.18676090000008,254.18676090000008,254.18676090000008,254.18676090000008,254.18676090000008,007,P003,2025_Jan_18_1207,ConditionRich,2021.2.3,59.95351204720449,
216.0,219.75,39,0.75,Stimuli/P003/things_toad_02s.jpg,0,0,0.0,0,93,93,93,,,,,,,,,,,,,216.00552570000036,0.0055257000003621215,5,1.9551206000014645,254.4536692999991,254.4536692999991,254.4536692999991,254.4536692999991,254.4536692999991,254.4536692999991,254.4536692999991,254.4536692999991,254.4536692999991,254.4536692999991,007,P003,2025_Jan_18_1207,ConditionRich,2021.2.3,59.95351204720449,
219.75,220.0,41,0.0,Stimuli/Blank.png,0,0,0.0,0,94,94,94,,,,,,,,,,,,,219.77536110000074,0.02536110000073677,None,,258.20695650000016,258.20695650000016,258.20695650000016,258.20695650000016,258.20695650000016,258.20695650000016,258.20695650000016,258.20695650000016,258.20695650000016,258.20695650000016,007,P003,2025_Jan_18_1207,ConditionRich,2021.2.3,59.95351204720449,
220.0,223.75,21,0.75,Stimuli/P003/things_baby_02s.jpg,0,0,0.0,0,95,95,95,,,,,,,,,,,,,220.01071570000022,0.01071570000021893,5,1.9515361999983725,258.4571840000008,258.4571840000008,258.4571840000008,258.4571840000008,258.4571840000008,258.4571840000008,258.4571840000008,258.4571840000008,258.4571840000008,258.4571840000008,007,P003,2025_Jan_18_1207,ConditionRich,2021.2.3,59.95351204720449,
223.75,224.0,41,0.0,Stimuli/Blank.png,0,0,0.0,0,96,96,96,,,,,,,,,,,,,223.7785076,0.028507600000011735,5,0.19809589999931632,262.2105245999992,262.2105245999992,262.2105245999992,262.2105245999992,262.2105245999992,262.2105245999992,262.2105245999992,262.2105245999992,262.2105245999992,262.2105245999992,007,P003,2025_Jan_18_1207,ConditionRich,2021.2.3,59.95351204720449,
224.0,227.75,7,0.75,Stimuli/P003/sun_asgixjtedklbawgm.jpg,0,0,0.0,0,97,97,97,,,,,,,,,,,,,224.01215680000132,0.012156800001321244,5,1.9648754999998346,262.44402909999917,262.44402909999917,262.44402909999917,262.44402909999917,262.44402909999917,262.44402909999917,262.44402909999917,262.44402909999917,262.44402909999917,262.44402909999917,007,P003,2025_Jan_18_1207,ConditionRich,2021.2.3,59.95351204720449,
227.75,228.0,41,0.0,Stimuli/Blank.png,0,0,0.0,0,98,98,98,,,,,,,,,,,,,227.766154500001,0.01615450000099372,None,,266.1974513999994,266.1974513999994,266.1974513999994,266.1974513999994,266.1974513999994,266.1974513999994,266.1974513999994,266.1974513999994,266.1974513999994,266.1974513999994,007,P003,2025_Jan_18_1207,ConditionRich,2021.2.3,59.95351204720449,
228.0,231.75,13,0.75,Stimuli/P003/sun_bhbiqbqmwrowrqpd.jpg,0,0,0.0,0,99,99,99,,,,,,,,,,,,,227.99935300000107,-0.0006469999989349162,5,1.977809399999387,266.4308600000004,266.4308600000004,266.4308600000004,266.4308600000004,266.4308600000004,266.4308600000004,266.4308600000004,266.4308600000004,266.4308600000004,266.4308600000004,007,P003,2025_Jan_18_1207,ConditionRich,2021.2.3,59.95351204720449,
231.75,232.0,41,0.0,Stimuli/Blank.png,0,0,0.0,0,100,100,100,,,,,,,,,,,,,231.75233610000032,0.0023361000003205845,None,,270.18416330000036,270.18416330000036,270.18416330000036,270.18416330000036,270.18416330000036,270.18416330000036,270.18416330000036,270.18416330000036,270.18416330000036,270.18416330000036,007,P003,2025_Jan_18_1207,ConditionRich,2021.2.3,59.95351204720449,
232.0,235.75,32,0.75,Stimuli/P003/things_pulley_02s.jpg,0,0,0.0,0,101,101,101,,,,,,,,,,,,,232.00470289999976,0.004702899999756482,5,1.9575562000009086,270.4510702000007,270.4510702000007,270.4510702000007,270.4510702000007,270.4510702000007,270.4510702000007,270.4510702000007,270.4510702000007,270.4510702000007,270.4510702000007,007,P003,2025_Jan_18_1207,ConditionRich,2021.2.3,59.95351204720449,
235.75,236.0,41,0.0,Stimuli/Blank.png,0,0,0.0,0,102,102,102,,,,,,,,,,,,,235.77532150000116,0.025321500001155073,5,0.1876531999987492,274.2210305000008,274.2210305000008,274.2210305000008,274.2210305000008,274.2210305000008,274.2210305000008,274.2210305000008,274.2210305000008,274.2210305000008,274.2210305000008,007,P003,2025_Jan_18_1207,ConditionRich,2021.2.3,59.95351204720449,
236.0,239.75,25,0.75,Stimuli/P003/things_girl_02s.jpg,0,0,0.0,0,103,103,103,,,,,,,,,,,,,236.02419499999996,0.02419499999996333,5,1.937443799999528,274.4712662999991,274.4712662999991,274.4712662999991,274.4712662999991,274.4712662999991,274.4712662999991,274.4712662999991,274.4712662999991,274.4712662999991,274.4712662999991,007,P003,2025_Jan_18_1207,ConditionRich,2021.2.3,59.95351204720449,
239.75,240.0,41,0.0,Stimuli/Blank.png,0,0,0.0,0,104,104,104,,,,,,,,,,,,,239.77667629999996,0.026676299999962794,5,0.20072009999967122,278.2078954000008,278.2078954000008,278.2078954000008,278.2078954000008,278.2078954000008,278.2078954000008,278.2078954000008,278.2078954000008,278.2078954000008,278.2078954000008,007,P003,2025_Jan_18_1207,ConditionRich,2021.2.3,59.95351204720449,
240.0,243.75,28,0.75,Stimuli/P003/things_man_02s.jpg,0,0,0.0,0,105,105,105,,,,,,,,,,,,,240.01051879999977,0.010518799999772455,5,1.9505860999997822,278.4581323000002,278.4581323000002,278.4581323000002,278.4581323000002,278.4581323000002,278.4581323000002,278.4581323000002,278.4581323000002,278.4581323000002,278.4581323000002,007,P003,2025_Jan_18_1207,ConditionRich,2021.2.3,59.95351204720449,
243.75,244.0,41,0.0,Stimuli/Blank.png,0,0,0.0,0,106,106,106,,,,,,,,,,,,,243.77936090000003,0.029360900000028778,5,0.19719590000022436,282.2114251999992,282.2114251999992,282.2114251999992,282.2114251999992,282.2114251999992,282.2114251999992,282.2114251999992,282.2114251999992,282.2114251999992,282.2114251999992,007,P003,2025_Jan_18_1207,ConditionRich,2021.2.3,59.95351204720449,
244.0,247.75,31,0.75,Stimuli/P003/things_pea_02s.jpg,0,0,0.0,0,107,107,107,,,,,,,,,,,,,244.0158506000007,0.015850600000703707,5,1.947110999999495,282.46164619999945,282.46164619999945,282.46164619999945,282.46164619999945,282.46164619999945,282.46164619999945,282.46164619999945,282.46164619999945,282.46164619999945,282.46164619999945,007,P003,2025_Jan_18_1207,ConditionRich,2021.2.3,59.95351204720449,
247.75,248.0,41,0.0,Stimuli/Blank.png,0,0,0.0,0,108,108,108,,,,,,,,,,,,,247.76712919999954,0.017129199999544653,None,,286.19828889999917,286.19828889999917,286.19828889999917,286.19828889999917,286.19828889999917,286.19828889999917,286.19828889999917,286.19828889999917,286.19828889999917,286.19828889999917,007,P003,2025_Jan_18_1207,ConditionRich,2021.2.3,59.95351204720449,
248.0,251.75,12,0.75,Stimuli/P003/sun_bcboctumoxwpdefl.jpg,0,0,0.0,0,109,109,109,,,,,,,,,,,,,248.00039800000013,0.000398000000132015,5,1.960009500000524,286.448493599999,286.448493599999,286.448493599999,286.448493599999,286.448493599999,286.448493599999,286.448493599999,286.448493599999,286.448493599999,286.448493599999,007,P003,2025_Jan_18_1207,ConditionRich,2021.2.3,59.95351204720449,
251.75,252.0,41,0.0,Stimuli/Blank.png,0,0,0.0,0,110,110,110,,,,,,,,,,,,,251.77117139999973,0.021171399999730056,5,0.19124200000078417,290.21849440000005,290.21849440000005,290.21849440000005,290.21849440000005,290.21849440000005,290.21849440000005,290.21849440000005,290.21849440000005,290.21849440000005,290.21849440000005,007,P003,2025_Jan_18_1207,ConditionRich,2021.2.3,59.95351204720449,
252.0,255.75,36,0.75,Stimuli/P003/things_sea_urchin_02s.jpg,0,0,0.0,0,111,111,111,,,,,,,,,,,,,252.0215289000007,0.021528900000703288,5,1.9410607000008895,290.46869510000033,290.46869510000033,290.46869510000033,290.46869510000033,290.46869510000033,290.46869510000033,290.46869510000033,290.46869510000033,290.46869510000033,290.46869510000033,007,P003,2025_Jan_18_1207,ConditionRich,2021.2.3,59.95351204720449,
255.75,256.0,41,0.0,Stimuli/Blank.png,0,0,0.0,0,112,112,112,,,,,,,,,,,,,255.77334770000016,0.02334770000015851,None,,294.2053625999997,294.2053625999997,294.2053625999997,294.2053625999997,294.2053625999997,294.2053625999997,294.2053625999997,294.2053625999997,294.2053625999997,294.2053625999997,007,P003,2025_Jan_18_1207,ConditionRich,2021.2.3,59.95351204720449,
256.0,259.75,37,0.75,Stimuli/P003/things_ski_lift_02s.jpg,1,2,2.75,0,113,113,113,,,,,,,,,,,,,256.0070327000012,0.007032700001218473,1,2.4980010999988735,294.4555509999991,294.4555509999991,294.4555509999991,294.4555509999991,294.4555509999991,294.4555509999991,296.42396480000025,297.17460969999956,294.4555509999991,294.4555509999991,007,P003,2025_Jan_18_1207,ConditionRich,2021.2.3,59.95351204720449,
259.75,260.0,41,0.0,Stimuli/Blank.png,0,0,0.0,0,114,114,114,,,,,,,,,,,,,259.7775777000006,0.027577700000620098,5,0.20062319999851752,298.2088473999993,298.2088473999993,298.2088473999993,298.2088473999993,298.2088473999993,298.2088473999993,298.2088473999993,298.2088473999993,298.2088473999993,298.2088473999993,007,P003,2025_Jan_18_1207,ConditionRich,2021.2.3,59.95351204720449,
260.0,263.75,6,0.75,Stimuli/P003/sun_aoumkoxfhlaobjef.jpg,0,0,0.0,0,115,115,115,,,,,,,,,,,,,260.01122490000125,0.011224900001252536,5,1.9671049999997194,298.4423721000003,298.4423721000003,298.4423721000003,298.4423721000003,298.4423721000003,298.4423721000003,298.4423721000003,298.4423721000003,298.4423721000003,298.4423721000003,007,P003,2025_Jan_18_1207,ConditionRich,2021.2.3,59.95351204720449,
263.75,264.0,41,0.0,Stimuli/Blank.png,0,0,0.0,0,116,116,116,,,,,,,,,,,,,263.76457839999966,0.014578399999663816,5,0.2138347000000067,302.1956821999993,302.1956821999993,302.1956821999993,302.1956821999993,302.1956821999993,302.1956821999993,302.1956821999993,302.1956821999993,302.1956821999993,302.1956821999993,007,P003,2025_Jan_18_1207,ConditionRich,2021.2.3,59.95351204720449,
264.0,267.75,38,0.75,Stimuli/P003/things_slug_02s.jpg,1,3,3.75,0,117,117,117,,,,,,,,,,,,,264.01437540000006,0.014375400000062655,1,3.4724723000017548,302.44608960000005,302.44608960000005,302.44608960000005,302.44608960000005,302.44608960000005,302.44608960000005,305.43185579999954,None,302.44608960000005,302.44608960000005,007,P003,2025_Jan_18_1207,ConditionRich,2021.2.3,59.95351204720449,
267.75,268.0,41,0.0,Stimuli/Blank.png,0,0,0.0,0,118,118,118,,,,,,,,,,,,,267.7513190000009,0.0013190000008762581,None,,306.1825124999996,306.1825124999996,306.1825124999996,306.1825124999996,306.1825124999996,306.1825124999996,306.1825124999996,306.1825124999996,306.1825124999996,306.1825124999996,007,P003,2025_Jan_18_1207,ConditionRich,2021.2.3,59.95351204720449,
268.0,271.75,5,0.75,Stimuli/P003/sun_amnnxdwfjbdfumns.jpg,1,3,3.75,0,119,119,119,,,,,,,,,,,,,268.0007860000005,0.0007860000005166512,1,3.47503289999986,306.4327314000002,306.4327314000002,306.4327314000002,306.4327314000002,306.4327314000002,306.4327314000002,309.4187259999999,310.1693998999999,306.4327314000002,306.4327314000002,007,P003,2025_Jan_18_1207,ConditionRich,2021.2.3,59.95351204720449,
271.75,272.0,41,0.0,Stimuli/Blank.png,0,0,0.0,0,120,120,120,,,,,,,,,,,,,271.7556199999999,0.005619999999908032,None,,310.186053899999,310.186053899999,310.186053899999,310.186053899999,310.186053899999,310.186053899999,310.186053899999,310.186053899999,310.186053899999,310.186053899999,007,P003,2025_Jan_18_1207,ConditionRich,2021.2.3,59.95351204720449,
272.0,275.75,14,0.75,Stimuli/P003/sun_bhhtrmwvoadbfucw.jpg,0,0,0.0,0,121,121,121,,,,,,,,,,,,,272.00520270000015,0.0052027000001544366,5,1.9565933000012592,310.4529457000008,310.4529457000008,310.4529457000008,310.4529457000008,310.4529457000008,310.4529457000008,310.4529457000008,310.4529457000008,310.4529457000008,310.4529457000008,007,P003,2025_Jan_18_1207,ConditionRich,2021.2.3,59.95351204720449,
275.75,276.0,41,0.0,Stimuli/Blank.png,0,0,0.0,0,122,122,122,,,,,,,,,,,,,275.7748852000004,0.024885200000426266,None,,314.20623890000024,314.20623890000024,314.20623890000024,314.20623890000024,314.20623890000024,314.20623890000024,314.20623890000024,314.20623890000024,314.20623890000024,314.20623890000024,007,P003,2025_Jan_18_1207,ConditionRich,2021.2.3,59.95351204720449,
276.0,292.0,0,0.0,Stimuli/Blank.png,1,3,3.75,0,123,123,123,,,,,,,,,,,,,276.00803520000045,0.00803520000044955,5,13.969610699999976,314.43984210000053,314.43984210000053,314.43984210000053,314.43984210000053,314.43984210000053,314.43984210000053,317.4257342000001,318.1764139000006,314.43984210000053,314.43984210000053,007,P003,2025_Jan_18_1207,ConditionRich,2021.2.3,59.95351204720449,
292.0,295.75,16,0.75,Stimuli/P003/sun_bjuoemgleyaogrmw.jpg,0,0,0.0,0,124,124,124,,,,,,,,,,,,,292.00591669999994,0.005916699999943376,5,1.9724929000003613,330.43720849999954,330.43720849999954,330.43720849999954,330.43720849999954,330.43720849999954,330.43720849999954,330.43720849999954,330.43720849999954,330.43720849999954,330.43720849999954,007,P003,2025_Jan_18_1207,ConditionRich,2021.2.3,59.95351204720449,
295.75,296.0,41,0.0,Stimuli/Blank.png,0,0,0.0,0,125,125,125,,,,,,,,,,,,,295.75999460000094,0.00999460000093677,None,,334.1905115999998,334.1905115999998,334.1905115999998,334.1905115999998,334.1905115999998,334.1905115999998,334.1905115999998,334.1905115999998,334.1905115999998,334.1905115999998,007,P003,2025_Jan_18_1207,ConditionRich,2021.2.3,59.95351204720449,
296.0,299.75,19,0.75,Stimuli/P003/sun_bucebxfexknakpma.jpg,0,0,0.0,0,126,126,126,,,,,,,,,,,,,296.0102852,0.01028519999999844,5,1.9519994000002043,334.4574214000004,334.4574214000004,334.4574214000004,334.4574214000004,334.4574214000004,334.4574214000004,334.4574214000004,334.4574214000004,334.4574214000004,334.4574214000004,007,P003,2025_Jan_18_1207,ConditionRich,2021.2.3,59.95351204720449,
299.75,300.0,41,0.0,Stimuli/Blank.png,0,0,0.0,0,127,127,127,,,,,,,,,,,,,299.77952279999954,0.02952279999954044,5,0.19875339999998687,338.2106530000001,338.2106530000001,338.2106530000001,338.2106530000001,338.2106530000001,338.2106530000001,338.2106530000001,338.2106530000001,338.2106530000001,338.2106530000001,007,P003,2025_Jan_18_1207,ConditionRich,2021.2.3,59.95351204720449,
300.0,303.75,8,0.75,Stimuli/P003/sun_asxkyzleyfgbqfrs.jpg,1,2,2.75,0,128,128,128,,,,,,,,,,,,,300.01452880000033,0.01452880000033474,1,2.3844642999993084,338.46092789999966,338.46092789999966,338.46092789999966,338.46092789999966,338.46092789999966,338.46092789999966,340.44600549999996,341.19667540000046,338.46092789999966,338.46092789999966,007,P003,2025_Jan_18_1207,ConditionRich,2021.2.3,59.95351204720449,
303.75,304.0,41,0.0,Stimuli/Blank.png,0,0,0.0,0,129,129,129,,,,,,,,,,,,,303.76620829999956,0.01620829999956186,None,,342.1975447999994,342.1975447999994,342.1975447999994,342.1975447999994,342.1975447999994,342.1975447999994,342.1975447999994,342.1975447999994,342.1975447999994,342.1975447999994,007,P003,2025_Jan_18_1207,ConditionRich,2021.2.3,59.95351204720449,
304.0,307.75,4,0.75,Stimuli/P003/sun_albtqdieqkajejrg.jpg,1,0,0.75,0,130,130,130,,,,,,,,,,,,,304.0001355000004,0.00013550000039685983,5,1.961594200000036,342.447783399999,342.447783399999,342.447783399999,342.447783399999,342.447783399999,342.447783399999,342.447783399999,343.16509810000025,342.447783399999,342.447783399999,007,P003,2025_Jan_18_1207,ConditionRich,2021.2.3,59.95351204720449,
307.75,308.0,41,0.0,Stimuli/Blank.png,0,0,0.0,0,131,131,131,,,,,,,,,,,,,307.76910750000025,0.019107500000245636,None,,346.2010728999994,346.2010728999994,346.2010728999994,346.2010728999994,346.2010728999994,346.2010728999994,346.2010728999994,346.2010728999994,346.2010728999994,346.2010728999994,007,P003,2025_Jan_18_1207,ConditionRich,2021.2.3,59.95351204720449,
308.0,311.75,3,0.75,Stimuli/P003/sun_afqjzrocqhabifao.jpg,0,0,0.0,0,132,132,132,,,,,,,,,,,,,308.00484010000037,0.004840100000365055,5,1.95824630000061,346.45129110000016,346.45129110000016,346.45129110000016,346.45129110000016,346.45129110000016,346.45129110000016,346.45129110000016,346.45129110000016,346.45129110000016,346.45129110000016,007,P003,2025_Jan_18_1207,ConditionRich,2021.2.3,59.95351204720449,
311.75,312.0,41,0.0,Stimuli/Blank.png,0,0,0.0,0,133,133,133,,,,,,,,,,,,,311.77487870000004,0.024878700000044773,5,0.18813129999944067,350.2212794999996,350.2212794999996,350.2212794999996,350.2212794999996,350.2212794999996,350.2212794999996,350.2212794999996,350.2212794999996,350.2212794999996,350.2212794999996,007,P003,2025_Jan_18_1207,ConditionRich,2021.2.3,59.95351204720449,
312.0,315.75,23,0.75,Stimuli/P003/things_butterfly_02s.jpg,0,0,0.0,0,134,134,134,,,,,,,,,,,,,312.0243339000008,0.024333900000783615,5,1.9379463999994186,350.47149329999957,350.47149329999957,350.47149329999957,350.47149329999957,350.47149329999957,350.47149329999957,350.47149329999957,350.47149329999957,350.47149329999957,350.47149329999957,007,P003,2025_Jan_18_1207,ConditionRich,2021.2.3,59.95351204720449,
315.75,316.0,41,0.0,Stimuli/Blank.png,0,0,0.0,0,135,135,135,,,,,,,,,,,,,315.7766638000012,0.026663800001188065,5,0.2014075999995839,354.2082073999991,354.2082073999991,354.2082073999991,354.2082073999991,354.2082073999991,354.2082073999991,354.2082073999991,354.2082073999991,354.2082073999991,354.2082073999991,007,P003,2025_Jan_18_1207,ConditionRich,2021.2.3,59.95351204720449,
316.0,319.75,33,0.75,Stimuli/P003/things_recorder_02s.jpg,0,0,0.0,0,136,136,136,,,,,,,,,,,,,316.01037460000043,0.01037460000043211,5,1.9510707999997976,354.4583356999992,354.4583356999992,354.4583356999992,354.4583356999992,354.4583356999992,354.4583356999992,354.4583356999992,354.4583356999992,354.4583356999992,354.4583356999992,007,P003,2025_Jan_18_1207,ConditionRich,2021.2.3,59.95351204720449,
319.75,320.0,41,0.0,Stimuli/Blank.png,0,0,0.0,0,137,137,137,,,,,,,,,,,,,319.7799950000008,0.029995000000781147,5,0.19769760000053793,358.21163969999907,358.21163969999907,358.21163969999907,358.21163969999907,358.21163969999907,358.21163969999907,358.21163969999907,358.21163969999907,358.21163969999907,358.21163969999907,007,P003,2025_Jan_18_1207,ConditionRich,2021.2.3,59.95351204720449,
320.0,323.75,9,0.75,Stimuli/P003/sun_auqtrqkaobyprnjy.jpg,1,0,0.75,0,138,138,138,,,,,,,,,,,,,320.014312700001,0.014312700001028134,5,1.9476685999998153,358.46185890000015,358.46185890000015,358.46185890000015,358.46185890000015,358.46185890000015,358.46185890000015,358.46185890000015,359.17917130000023,358.46185890000015,358.46185890000015,007,P003,2025_Jan_18_1207,ConditionRich,2021.2.3,59.95351204720449,
323.75,324.0,41,0.0,Stimuli/Blank.png,0,0,0.0,0,139,139,139,,,,,,,,,,,,,323.76953649999996,0.019536499999958323,5,0.1941514999998617,362.2151709999998,362.2151709999998,362.2151709999998,362.2151709999998,362.2151709999998,362.2151709999998,362.2151709999998,362.2151709999998,362.2151709999998,362.2151709999998,007,P003,2025_Jan_18_1207,ConditionRich,2021.2.3,59.95351204720449,
324.0,327.75,17,0.75,Stimuli/P003/sun_bojovhhraxtgafcy.jpg,0,0,0.0,0,140,140,140,,,,,,,,,,,,,324.01692580000054,0.016925800000535673,5,1.9440713000003598,362.4654047999993,362.4654047999993,362.4654047999993,362.4654047999993,362.4654047999993,362.4654047999993,362.4654047999993,362.4654047999993,362.4654047999993,362.4654047999993,007,P003,2025_Jan_18_1207,ConditionRich,2021.2.3,59.95351204720449,
327.75,328.0,41,0.0,Stimuli/Blank.png,0,0,0.0,0,141,141,141,,,,,,,,,,,,,327.77030990000094,0.020309900000938796,None,,366.2020059999995,366.2020059999995,366.2020059999995,366.2020059999995,366.2020059999995,366.2020059999995,366.2020059999995,366.2020059999995,366.2020059999995,366.2020059999995,007,P003,2025_Jan_18_1207,ConditionRich,2021.2.3,59.95351204720449,
328.0,331.75,27,0.75,Stimuli/P003/things_llama_02s.jpg,1,1,1.75,0,142,142,142,,,,,,,,,,,,,328.0042267000008,0.00422670000079961,5,1.9571213999988686,366.45222719999947,366.45222719999947,366.45222719999947,366.45222719999947,366.45222719999947,366.45222719999947,367.41973660000076,368.1704045000006,366.45222719999947,366.45222719999947,007,P003,2025_Jan_18_1207,ConditionRich,2021.2.3,59.95351204720449,
331.75,332.0,41,0.0,Stimuli/Blank.png,0,0,0.0,0,143,143,143,,,,,,,,,,,,,331.7741272000003,0.02412720000029367,None,,370.2055306000002,370.2055306000002,370.2055306000002,370.2055306000002,370.2055306000002,370.2055306000002,370.2055306000002,370.2055306000002,370.2055306000002,370.2055306000002,007,P003,2025_Jan_18_1207,ConditionRich,2021.2.3,59.95351204720449,
332.0,335.75,35,0.75,Stimuli/P003/things_satellite_dish_02s.jpg,0,0,0.0,0,144,144,144,,,,,,,,,,,,,332.00691519999964,0.006915199999639299,5,1.970478600000206,370.4390731000003,370.4390731000003,370.4390731000003,370.4390731000003,370.4390731000003,370.4390731000003,370.4390731000003,370.4390731000003,370.4390731000003,370.4390731000003,007,P003,2025_Jan_18_1207,ConditionRich,2021.2.3,59.95351204720449,
335.75,336.0,41,0.0,Stimuli/Blank.png,0,0,0.0,0,145,145,145,,,,,,,,,,,,,335.7609614000012,0.010961400001178845,5,0.21687419999943813,374.19237409999914,374.19237409999914,374.19237409999914,374.19237409999914,374.19237409999914,374.19237409999914,374.19237409999914,374.19237409999914,374.19237409999914,374.19237409999914,007,P003,2025_Jan_18_1207,ConditionRich,2021.2.3,59.95351204720449,
336.0,339.75,26,0.75,Stimuli/P003/things_ham_02s.jpg,0,0,0.0,0,146,146,146,,,,,,,,,,,,,336.0108637000012,0.010863700001209509,5,1.9666409000001295,374.44259930000044,374.44259930000044,374.44259930000044,374.44259930000044,374.44259930000044,374.44259930000044,374.44259930000044,374.44259930000044,374.44259930000044,374.44259930000044,007,P003,2025_Jan_18_1207,ConditionRich,2021.2.3,59.95351204720449,
339.75,340.0,41,0.0,Stimuli/Blank.png,0,0,0.0,0,147,147,147,,,,,,,,,,,,,339.76539740000044,0.01539740000043821,5,0.21346909999920172,378.1959043000006,378.1959043000006,378.1959043000006,378.1959043000006,378.1959043000006,378.1959043000006,378.1959043000006,378.1959043000006,378.1959043000006,378.1959043000006,007,P003,2025_Jan_18_1207,ConditionRich,2021.2.3,59.95351204720449,
340.0,343.75,15,0.75,Stimuli/P003/sun_bjhtdevvocmwtavk.jpg,0,0,0.0,0,148,148,148,,,,,,,,,,,,,340.01428940000005,0.01428940000005241,5,1.96325539999998,378.44611839999925,378.44611839999925,378.44611839999925,378.44611839999925,378.44611839999925,378.44611839999925,378.44611839999925,378.44611839999925,378.44611839999925,378.44611839999925,007,P003,2025_Jan_18_1207,ConditionRich,2021.2.3,59.95351204720449,
343.75,344.0,41,0.0,Stimuli/Blank.png,0,0,0.0,0,149,149,149,,,,,,,,,,,,,343.75114100000064,0.001141000000643544,None,,382.1827381999992,382.1827381999992,382.1827381999992,382.1827381999992,382.1827381999992,382.1827381999992,382.1827381999992,382.1827381999992,382.1827381999992,382.1827381999992,007,P003,2025_Jan_18_1207,ConditionRich,2021.2.3,59.95351204720449,
344.0,347.75,29,0.75,Stimuli/P003/things_mat_02s.jpg,0,0,0.0,0,150,150,150,,,,,,,,,,,,,344.0017602000007,0.0017602000007173046,5,1.9597635000009177,382.4496428000002,382.4496428000002,382.4496428000002,382.4496428000002,382.4496428000002,382.4496428000002,382.4496428000002,382.4496428000002,382.4496428000002,382.4496428000002,007,P003,2025_Jan_18_1207,ConditionRich,2021.2.3,59.95351204720449,
347.75,348.0,41,0.0,Stimuli/Blank.png,0,0,0.0,0,151,151,151,,,,,,,,,,,,,347.7713980000008,0.0213980000007723,None,,386.2029444,386.2029444,386.2029444,386.2029444,386.2029444,386.2029444,386.2029444,386.2029444,386.2029444,386.2029444,007,P003,2025_Jan_18_1207,ConditionRich,2021.2.3,59.95351204720449,
348.0,351.75,34,0.75,Stimuli/P003/things_roll_02s.jpg,0,0,0.0,0,152,152,152,,,,,,,,,,,,,348.00530249999974,0.005302499999743304,5,1.956348400000934,386.4531614999996,386.4531614999996,386.4531614999996,386.4531614999996,386.4531614999996,386.4531614999996,386.4531614999996,386.4531614999996,386.4531614999996,386.4531614999996,007,P003,2025_Jan_18_1207,ConditionRich,2021.2.3,59.95351204720449,
351.75,352.0,41,0.0,Stimuli/Blank.png,0,0,0.0,0,153,153,153,,,,,,,,,,,,,351.7752614000001,0.02526140000009036,None,,390.20647409999947,390.20647409999947,390.20647409999947,390.20647409999947,390.20647409999947,390.20647409999947,390.20647409999947,390.20647409999947,390.20647409999947,390.20647409999947,007,P003,2025_Jan_18_1207,ConditionRich,2021.2.3,59.95351204720449,
352.0,355.75,2,0.75,Stimuli/P003/sun_afijjzyziczoqdhz.jpg,1,2,2.75,0,154,154,154,,,,,,,,,,,,,352.0080104000008,0.008010400000785012,1,2.41427190000104,390.4400114,390.4400114,390.4400114,390.4400114,390.4400114,390.4400114,392.4250888000006,393.1758900999994,390.4400114,390.4400114,007,P003,2025_Jan_18_1207,ConditionRich,2021.2.3,59.95351204720449,
355.75,356.0,41,0.0,Stimuli/Blank.png,0,0,0.0,0,155,155,155,,,,,,,,,,,,,355.76436040000044,0.014360400000441587,5,0.19920149999961723,394.2099987999991,394.2099987999991,394.2099987999991,394.2099987999991,394.2099987999991,394.2099987999991,394.2099987999991,394.2099987999991,394.2099987999991,394.2099987999991,007,P003,2025_Jan_18_1207,ConditionRich,2021.2.3,59.95351204720449,
356.0,359.75,11,0.75,Stimuli/P003/sun_bawmjlzsuuivqjhi.jpg,0,0,0.0,0,156,156,156,,,,,,,,,,,,,356.0291952000007,0.029195200000685873,5,1.9322871000003943,394.4768683000002,394.4768683000002,394.4768683000002,394.4768683000002,394.4768683000002,394.4768683000002,394.4768683000002,394.4768683000002,394.4768683000002,394.4768683000002,007,P003,2025_Jan_18_1207,ConditionRich,2021.2.3,59.95351204720449,
359.75,360.0,41,0.0,Stimuli/Blank.png,0,0,0.0,0,157,157,157,,,,,,,,,,,,,359.76491630000055,0.014916300000550109,5,0.21246079999946232,398.1968436999996,398.1968436999996,398.1968436999996,398.1968436999996,398.1968436999996,398.1968436999996,398.1968436999996,398.1968436999996,398.1968436999996,398.1968436999996,007,P003,2025_Jan_18_1207,ConditionRich,2021.2.3,59.95351204720449,
360.0,363.75,18,0.75,Stimuli/P003/sun_bplhnzkztpigweny.jpg,0,0,0.0,0,158,158,158,,,,,,,,,,,,,360.0153900000005,0.015390000000479631,5,1.9621116999987862,398.4470617999996,398.4470617999996,398.4470617999996,398.4470617999996,398.4470617999996,398.4470617999996,398.4470617999996,398.4470617999996,398.4470617999996,398.4470617999996,007,P003,2025_Jan_18_1207,ConditionRich,2021.2.3,59.95351204720449,
363.75,364.0,41,0.0,Stimuli/Blank.png,0,0,0.0,0,159,159,159,,,,,,,,,,,,,363.75170550000075,0.0017055000007530907,None,,402.18369840000014,402.18369840000014,402.18369840000014,402.18369840000014,402.18369840000014,402.18369840000014,402.18369840000014,402.18369840000014,402.18369840000014,402.18369840000014,007,P003,2025_Jan_18_1207,ConditionRich,2021.2.3,59.95351204720449,
364.0,367.75,10,0.75,Stimuli/P003/sun_azzneunxibjvypza.jpg,0,0,0.0,0,160,160,160,,,,,,,,,,,,,364.00210289999995,0.0021028999999543885,5,1.975445399999444,402.43389509999906,402.43389509999906,402.43389509999906,402.43389509999906,402.43389509999906,402.43389509999906,402.43389509999906,402.43389509999906,402.43389509999906,402.43389509999906,007,P003,2025_Jan_18_1207,ConditionRich,2021.2.3,59.95351204720449,
367.75,368.0,41,0.0,Stimuli/Blank.png,0,0,0.0,0,161,161,161,,,,,,,,,,,,,367.7558901000011,0.005890100001124665,None,,406.18720869999925,406.18720869999925,406.18720869999925,406.18720869999925,406.18720869999925,406.18720869999925,406.18720869999925,406.18720869999925,406.18720869999925,406.18720869999925,007,P003,2025_Jan_18_1207,ConditionRich,2021.2.3,59.95351204720449,
368.0,371.75,20,0.75,Stimuli/P003/sun_bwytihadgigwkyht.jpg,0,0,0.0,0,162,162,162,,,,,,,,,,,,,368.00636620000114,0.006366200001139077,5,1.9551351999998587,406.4541019999997,406.4541019999997,406.4541019999997,406.4541019999997,406.4541019999997,406.4541019999997,406.4541019999997,406.4541019999997,406.4541019999997,406.4541019999997,007,P003,2025_Jan_18_1207,ConditionRich,2021.2.3,59.95351204720449,
371.75,372.0,41,0.0,Stimuli/Blank.png,0,0,0.0,0,163,163,163,,,,,,,,,,,,,371.7757867,0.02578670000002603,5,0.20201149999957124,410.2074090999995,410.2074090999995,410.2074090999995,410.2074090999995,410.2074090999995,410.2074090999995,410.2074090999995,410.2074090999995,410.2074090999995,410.2074090999995,007,P003,2025_Jan_18_1207,ConditionRich,2021.2.3,59.95351204720449,
372.0,388.0,0,0.0,Stimuli/Blank.png,1,8,8.75,0,164,164,164,,,,,,,,,,,,,372.01043410000057,0.010434100000566104,5,13.968343399999867,410.44095039999956,410.44095039999956,410.44095039999956,410.44095039999956,410.44095039999956,410.44095039999956,418.4313129000002,419.1820141999997,410.44095039999956,410.44095039999956,007,P003,2025_Jan_18_1207,ConditionRich,2021.2.3,59.95351204720449,
