eventStartTime,eventEndTime,eventCond,imSize,imFile,responseEvent,fixRespStart,fixRespEnd,Events.thisRepN,Events.thisTrialN,Events.thisN,Events.thisIndex,Instructions.started,Instructions.stopped,participantReadyResponse.keys,participantReadyResponse.rt,participantReadyResponse.started,participantReadyResponse.stopped,startWaitforTrigger,triggerResponse.keys,triggerResponse.rt,triggerResponse.started,triggerResponse.stopped,globalTimer,actualStartTime,startTimingDiff,participantResponse.keys,participantResponse.rt,participantResponse.started,participantResponse.stopped,image.started,image.stopped,fixationOutside.started,fixationOutside.stopped,fixationResponse.started,fixationResponse.stopped,fixationInside.started,fixationInside.stopped,session,participant,date,expName,psychopyVersion,frameRate,
,,,,,,,,,,,,12.978522499999599,None,1,1.4746678000010434,12.978522499999599,None,,,,,,,,,,,,,,,,,,,,,006,P003,2025_Jan_18_1153,ConditionRich,2021.2.3,59.93662301478112,
,,,,,,,,,,,,,,,,,,14.46592740000051,5,21.597329199999876,14.478502100000696,None,,,,,,,,,,,,,,,,006,P003,2025_Jan_18_1153,ConditionRich,2021.2.3,59.93662301478112,
0.0,4.0,0,0.0,Stimuli/Blank.png,0,0,0.0,0,0,0,0,,,,,,,,,,,,36.084660200000144,0.07314290000067558,0.07314290000067558,5,3.894883099999788,36.18098330000066,None,36.18098330000066,None,36.18098330000066,None,36.18098330000066,36.18098330000066,36.18098330000066,None,006,P003,2025_Jan_18_1153,ConditionRich,2021.2.3,59.93662301478112,
4.0,4.75,23,0.75,Stimuli/P003/things_butterfly_02s.jpg,0,0,0.0,0,1,1,1,,,,,,,,,,,,,4.019794399999228,0.019794399999227608,None,,40.117967500000304,40.117967500000304,40.117967500000304,40.117967500000304,40.117967500000304,40.117967500000304,40.117967500000304,40.117967500000304,40.117967500000304,40.117967500000304,006,P003,2025_Jan_18_1153,ConditionRich,2021.2.3,59.93662301478112,
4.75,5.0,41,0.0,Stimuli/Blank.png,0,0,0.0,0,2,2,2,,,,,,,,,,,,,4.752569199999925,0.002569199999925331,None,,40.852010799999334,40.852010799999334,40.852010799999334,40.852010799999334,40.852010799999334,40.852010799999334,40.852010799999334,40.852010799999334,40.852010799999334,40.852010799999334,006,P003,2025_Jan_18_1153,ConditionRich,2021.2.3,59.93662301478112,
5.0,5.75,23,0.75,Stimuli/P003/things_butterfly_02s.jpg,0,0,0.0,0,3,3,3,,,,,,,,,,,,,5.003352699999596,0.003352699999595643,None,,41.10190759999932,41.10190759999932,41.10190759999932,41.10190759999932,41.10190759999932,41.10190759999932,41.10190759999932,41.10190759999932,41.10190759999932,41.10190759999932,006,P003,2025_Jan_18_1153,ConditionRich,2021.2.3,59.93662301478112,
5.75,6.0,41,0.0,Stimuli/Blank.png,0,0,0.0,0,4,4,4,,,,,,,,,,,,,5.753345900000568,0.003345900000567781,None,,41.85256389999995,41.85256389999995,41.85256389999995,41.85256389999995,41.85256389999995,41.85256389999995,41.85256389999995,41.85256389999995,41.85256389999995,41.85256389999995,006,P003,2025_Jan_18_1153,ConditionRich,2021.2.3,59.93662301478112,
6.0,6.75,23,0.75,Stimuli/P003/things_butterfly_02s.jpg,0,0,0.0,0,5,5,5,,,,,,,,,,,,,6.00441420000061,0.004414200000610435,None,,42.119464499999594,42.119464499999594,42.119464499999594,42.119464499999594,42.119464499999594,42.119464499999594,42.119464499999594,42.119464499999594,42.119464499999594,42.119464499999594,006,P003,2025_Jan_18_1153,ConditionRich,2021.2.3,59.93662301478112,
6.75,7.0,41,0.0,Stimuli/Blank.png,0,0,0.0,0,6,6,6,,,,,,,,,,,,,6.772375900000043,0.022375900000042748,None,,42.870131600000605,42.870131600000605,42.870131600000605,42.870131600000605,42.870131600000605,42.870131600000605,42.870131600000605,42.870131600000605,42.870131600000605,42.870131600000605,006,P003,2025_Jan_18_1153,ConditionRich,2021.2.3,59.93662301478112,
7.0,7.75,23,0.75,Stimuli/P003/things_butterfly_02s.jpg,0,0,0.0,0,7,7,7,,,,,,,,,,,,,7.006681700000627,0.0066817000006267335,None,,43.120346800000334,43.120346800000334,43.120346800000334,43.120346800000334,43.120346800000334,43.120346800000334,43.120346800000334,43.120346800000334,43.120346800000334,43.120346800000334,006,P003,2025_Jan_18_1153,ConditionRich,2021.2.3,59.93662301478112,
7.75,8.0,41,0.0,Stimuli/Blank.png,0,0,0.0,0,8,8,8,,,,,,,,,,,,,7.7738527999990765,0.023852799999076524,None,,43.871024100000795,43.871024100000795,43.871024100000795,43.871024100000795,43.871024100000795,43.871024100000795,43.871024100000795,43.871024100000795,43.871024100000795,43.871024100000795,006,P003,2025_Jan_18_1153,ConditionRich,2021.2.3,59.93662301478112,
8.0,8.75,30,0.75,Stimuli/P003/things_music_box_02s.jpg,0,0,0.0,0,9,9,9,,,,,,,,,,,,,8.00602500000059,0.006025000000590808,None,,44.10455170000023,44.10455170000023,44.10455170000023,44.10455170000023,44.10455170000023,44.10455170000023,44.10455170000023,44.10455170000023,44.10455170000023,44.10455170000023,006,P003,2025_Jan_18_1153,ConditionRich,2021.2.3,59.93662301478112,
8.75,9.0,41,0.0,Stimuli/Blank.png,0,0,0.0,0,10,10,10,,,,,,,,,,,,,8.755919799999901,0.005919799999901443,None,,44.855215300000054,44.855215300000054,44.855215300000054,44.855215300000054,44.855215300000054,44.855215300000054,44.855215300000054,44.855215300000054,44.855215300000054,44.855215300000054,006,P003,2025_Jan_18_1153,ConditionRich,2021.2.3,59.93662301478112,
9.0,9.75,30,0.75,Stimuli/P003/things_music_box_02s.jpg,0,0,0.0,0,11,11,11,,,,,,,,,,,,,9.00663650000024,0.0066365000002406305,None,,45.105424699999276,45.105424699999276,45.105424699999276,45.105424699999276,45.105424699999276,45.105424699999276,45.105424699999276,45.105424699999276,45.105424699999276,45.105424699999276,006,P003,2025_Jan_18_1153,ConditionRich,2021.2.3,59.93662301478112,
9.75,10.0,41,0.0,Stimuli/Blank.png,0,0,0.0,0,12,12,12,,,,,,,,,,,,,9.757585400000607,0.007585400000607478,None,,45.85609909999948,45.85609909999948,45.85609909999948,45.85609909999948,45.85609909999948,45.85609909999948,45.85609909999948,45.85609909999948,45.85609909999948,45.85609909999948,006,P003,2025_Jan_18_1153,ConditionRich,2021.2.3,59.93662301478112,
10.0,10.75,30,0.75,Stimuli/P003/things_music_box_02s.jpg,0,0,0.0,0,13,13,13,,,,,,,,,,,,,10.007346399999733,0.0073463999997329665,None,,46.10630459999993,46.10630459999993,46.10630459999993,46.10630459999993,46.10630459999993,46.10630459999993,46.10630459999993,46.10630459999993,46.10630459999993,46.10630459999993,006,P003,2025_Jan_18_1153,ConditionRich,2021.2.3,59.93662301478112,
10.75,11.0,41,0.0,Stimuli/Blank.png,0,0,0.0,0,14,14,14,,,,,,,,,,,,,10.758319500000653,0.008319500000652624,None,,46.85697160000018,46.85697160000018,46.85697160000018,46.85697160000018,46.85697160000018,46.85697160000018,46.85697160000018,46.85697160000018,46.85697160000018,46.85697160000018,006,P003,2025_Jan_18_1153,ConditionRich,2021.2.3,59.93662301478112,
11.0,11.75,30,0.75,Stimuli/P003/things_music_box_02s.jpg,0,0,0.0,0,15,15,15,,,,,,,,,,,,,11.008790100000624,0.00879010000062408,None,,47.12387090000084,47.12387090000084,47.12387090000084,47.12387090000084,47.12387090000084,47.12387090000084,47.12387090000084,47.12387090000084,47.12387090000084,47.12387090000084,006,P003,2025_Jan_18_1153,ConditionRich,2021.2.3,59.93662301478112,
11.75,12.0,41,0.0,Stimuli/Blank.png,0,0,0.0,0,16,16,16,,,,,,,,,,,,,11.776151100000789,0.026151100000788574,None,,47.8745386999999,47.8745386999999,47.8745386999999,47.8745386999999,47.8745386999999,47.8745386999999,47.8745386999999,47.8745386999999,47.8745386999999,47.8745386999999,006,P003,2025_Jan_18_1153,ConditionRich,2021.2.3,59.93662301478112,
12.0,12.75,4,0.75,Stimuli/P003/sun_albtqdieqkajejrg.jpg,0,0,0.0,0,17,17,17,,,,,,,,,,,,,12.009000899999592,0.009000899999591638,None,,48.124767999999676,48.124767999999676,48.124767999999676,48.124767999999676,48.124767999999676,48.124767999999676,48.124767999999676,48.124767999999676,48.124767999999676,48.124767999999676,006,P003,2025_Jan_18_1153,ConditionRich,2021.2.3,59.93662301478112,
12.75,13.0,41,0.0,Stimuli/Blank.png,0,0,0.0,0,18,18,18,,,,,,,,,,,,,12.777330000000802,0.0273300000008021,None,,48.87625649999973,48.87625649999973,48.87625649999973,48.87625649999973,48.87625649999973,48.87625649999973,48.87625649999973,48.87625649999973,48.87625649999973,48.87625649999973,006,P003,2025_Jan_18_1153,ConditionRich,2021.2.3,59.93662301478112,
13.0,13.75,4,0.75,Stimuli/P003/sun_albtqdieqkajejrg.jpg,0,0,0.0,0,19,19,19,,,,,,,,,,,,,13.012165899999673,0.012165899999672547,None,,49.12566589999915,49.12566589999915,49.12566589999915,49.12566589999915,49.12566589999915,49.12566589999915,49.12566589999915,49.12566589999915,49.12566589999915,49.12566589999915,006,P003,2025_Jan_18_1153,ConditionRich,2021.2.3,59.93662301478112,
13.75,14.0,41,0.0,Stimuli/Blank.png,0,0,0.0,0,20,20,20,,,,,,,,,,,,,13.77819509999972,0.028195099999720696,5,0.1994583000014245,49.87629019999986,49.87629019999986,49.87629019999986,49.87629019999986,49.87629019999986,49.87629019999986,49.87629019999986,49.87629019999986,49.87629019999986,49.87629019999986,006,P003,2025_Jan_18_1153,ConditionRich,2021.2.3,59.93662301478112,
14.0,14.75,4,0.75,Stimuli/P003/sun_albtqdieqkajejrg.jpg,0,0,0.0,0,21,21,21,,,,,,,,,,,,,14.011283600000752,0.011283600000751903,None,,50.10983429999942,50.10983429999942,50.10983429999942,50.10983429999942,50.10983429999942,50.10983429999942,50.10983429999942,50.10983429999942,50.10983429999942,50.10983429999942,006,P003,2025_Jan_18_1153,ConditionRich,2021.2.3,59.93662301478112,
14.75,15.0,41,0.0,Stimuli/Blank.png,0,0,0.0,0,22,22,22,,,,,,,,,,,,,14.761229100000492,0.011229100000491599,None,,50.86048839999967,50.86048839999967,50.86048839999967,50.86048839999967,50.86048839999967,50.86048839999967,50.86048839999967,50.86048839999967,50.86048839999967,50.86048839999967,006,P003,2025_Jan_18_1153,ConditionRich,2021.2.3,59.93662301478112,
15.0,15.75,4,0.75,Stimuli/P003/sun_albtqdieqkajejrg.jpg,0,0,0.0,0,23,23,23,,,,,,,,,,,,,15.012116300000343,0.012116300000343472,None,,51.12741930000084,51.12741930000084,51.12741930000084,51.12741930000084,51.12741930000084,51.12741930000084,51.12741930000084,51.12741930000084,51.12741930000084,51.12741930000084,006,P003,2025_Jan_18_1153,ConditionRich,2021.2.3,59.93662301478112,
15.75,16.0,41,0.0,Stimuli/Blank.png,0,0,0.0,0,24,24,24,,,,,,,,,,,,,15.781479699999181,0.03147969999918132,5,0.1811533000000054,51.89473539999926,51.89473539999926,51.89473539999926,51.89473539999926,51.89473539999926,51.89473539999926,51.89473539999926,51.89473539999926,51.89473539999926,51.89473539999926,006,P003,2025_Jan_18_1153,ConditionRich,2021.2.3,59.93662301478112,
16.0,16.75,21,0.75,Stimuli/P003/things_baby_02s.jpg,0,0,0.0,0,25,25,25,,,,,,,,,,,,,16.03197320000072,0.03197320000072068,None,,52.14497440000014,52.14497440000014,52.14497440000014,52.14497440000014,52.14497440000014,52.14497440000014,52.14497440000014,52.14497440000014,52.14497440000014,52.14497440000014,006,P003,2025_Jan_18_1153,ConditionRich,2021.2.3,59.93662301478112,
16.75,17.0,41,0.0,Stimuli/Blank.png,0,0,0.0,0,26,26,26,,,,,,,,,,,,,16.763988799999424,0.013988799999424373,None,,52.862250700000004,52.862250700000004,52.862250700000004,52.862250700000004,52.862250700000004,52.862250700000004,52.862250700000004,52.862250700000004,52.862250700000004,52.862250700000004,006,P003,2025_Jan_18_1153,ConditionRich,2021.2.3,59.93662301478112,
17.0,17.75,21,0.75,Stimuli/P003/things_baby_02s.jpg,0,0,0.0,0,27,27,27,,,,,,,,,,,,,17.013199600000007,0.013199600000007194,None,,53.112473999999565,53.112473999999565,53.112473999999565,53.112473999999565,53.112473999999565,53.112473999999565,53.112473999999565,53.112473999999565,53.112473999999565,53.112473999999565,006,P003,2025_Jan_18_1153,ConditionRich,2021.2.3,59.93662301478112,
17.75,18.0,41,0.0,Stimuli/Blank.png,0,0,0.0,0,28,28,28,,,,,,,,,,,,,17.764086499999394,0.014086499999393709,5,0.21267230000012205,53.86313859999973,53.86313859999973,53.86313859999973,53.86313859999973,53.86313859999973,53.86313859999973,53.86313859999973,53.86313859999973,53.86313859999973,53.86313859999973,006,P003,2025_Jan_18_1153,ConditionRich,2021.2.3,59.93662301478112,
18.0,18.75,21,0.75,Stimuli/P003/things_baby_02s.jpg,0,0,0.0,0,29,29,29,,,,,,,,,,,,,18.0145420000008,0.014542000000801636,None,,54.11336579999988,54.11336579999988,54.11336579999988,54.11336579999988,54.11336579999988,54.11336579999988,54.11336579999988,54.11336579999988,54.11336579999988,54.11336579999988,006,P003,2025_Jan_18_1153,ConditionRich,2021.2.3,59.93662301478112,
18.75,19.0,41,0.0,Stimuli/Blank.png,0,0,0.0,0,30,30,30,,,,,,,,,,,,,18.765401000000566,0.015401000000565546,None,,54.864018500000384,54.864018500000384,54.864018500000384,54.864018500000384,54.864018500000384,54.864018500000384,54.864018500000384,54.864018500000384,54.864018500000384,54.864018500000384,006,P003,2025_Jan_18_1153,ConditionRich,2021.2.3,59.93662301478112,
19.0,19.75,21,0.75,Stimuli/P003/things_baby_02s.jpg,0,0,0.0,0,31,31,31,,,,,,,,,,,,,19.017670699999144,0.017670699999143835,None,,55.13092069999948,55.13092069999948,55.13092069999948,55.13092069999948,55.13092069999948,55.13092069999948,55.13092069999948,55.13092069999948,55.13092069999948,55.13092069999948,006,P003,2025_Jan_18_1153,ConditionRich,2021.2.3,59.93662301478112,
19.75,20.0,41,0.0,Stimuli/Blank.png,0,0,0.0,0,32,32,32,,,,,,,,,,,,,19.766274300000077,0.016274300000077346,None,,55.86487429999943,55.86487429999943,55.86487429999943,55.86487429999943,55.86487429999943,55.86487429999943,55.86487429999943,55.86487429999943,55.86487429999943,55.86487429999943,006,P003,2025_Jan_18_1153,ConditionRich,2021.2.3,59.93662301478112,
20.0,20.75,38,0.75,Stimuli/P003/things_slug_02s.jpg,0,0,0.0,0,33,33,33,,,,,,,,,,,,,19.999138299999686,-0.0008617000003141584,None,,56.09842899999967,56.09842899999967,56.09842899999967,56.09842899999967,56.09842899999967,56.09842899999967,56.09842899999967,56.09842899999967,56.09842899999967,56.09842899999967,006,P003,2025_Jan_18_1153,ConditionRich,2021.2.3,59.93662301478112,
20.75,21.0,41,0.0,Stimuli/Blank.png,0,0,0.0,0,34,34,34,,,,,,,,,,,,,20.752035699999396,0.0020356999993964564,None,,56.86578349999945,56.86578349999945,56.86578349999945,56.86578349999945,56.86578349999945,56.86578349999945,56.86578349999945,56.86578349999945,56.86578349999945,56.86578349999945,006,P003,2025_Jan_18_1153,ConditionRich,2021.2.3,59.93662301478112,
21.0,21.75,38,0.75,Stimuli/P003/things_slug_02s.jpg,0,0,0.0,0,35,35,35,,,,,,,,,,,,,21.01749059999929,0.01749059999929159,None,,57.11599159999969,57.11599159999969,57.11599159999969,57.11599159999969,57.11599159999969,57.11599159999969,57.11599159999969,57.11599159999969,57.11599159999969,57.11599159999969,006,P003,2025_Jan_18_1153,ConditionRich,2021.2.3,59.93662301478112,
21.75,22.0,41,0.0,Stimuli/Blank.png,0,0,0.0,0,36,36,36,,,,,,,,,,,,,21.75139350000063,0.0013935000006313203,None,,57.84997060000023,57.84997060000023,57.84997060000023,57.84997060000023,57.84997060000023,57.84997060000023,57.84997060000023,57.84997060000023,57.84997060000023,57.84997060000023,006,P003,2025_Jan_18_1153,ConditionRich,2021.2.3,59.93662301478112,
22.0,22.75,38,0.75,Stimuli/P003/things_slug_02s.jpg,0,0,0.0,0,37,37,37,,,,,,,,,,,,,22.001177800000733,0.0011778000007325318,None,,58.1001983999995,58.1001983999995,58.1001983999995,58.1001983999995,58.1001983999995,58.1001983999995,58.1001983999995,58.1001983999995,58.1001983999995,58.1001983999995,006,P003,2025_Jan_18_1153,ConditionRich,2021.2.3,59.93662301478112,
22.75,23.0,41,0.0,Stimuli/Blank.png,0,0,0.0,0,38,38,38,,,,,,,,,,,,,22.752308099999937,0.0023080999999365304,None,,58.85085000000072,58.85085000000072,58.85085000000072,58.85085000000072,58.85085000000072,58.85085000000072,58.85085000000072,58.85085000000072,58.85085000000072,58.85085000000072,006,P003,2025_Jan_18_1153,ConditionRich,2021.2.3,59.93662301478112,
23.0,23.75,38,0.75,Stimuli/P003/things_slug_02s.jpg,1,0,0.75,0,39,39,39,,,,,,,,,,,,,23.00321939999958,0.003219399999579764,1,0.39212489999954414,59.11780480000016,59.11780480000016,59.11780480000016,59.11780480000016,59.11780480000016,59.11780480000016,59.11780480000016,59.83505530000002,59.11780480000016,59.11780480000016,006,P003,2025_Jan_18_1153,ConditionRich,2021.2.3,59.93662301478112,
23.75,24.0,41,0.0,Stimuli/Blank.png,0,0,0.0,0,40,40,40,,,,,,,,,,,,,23.771972399999868,0.021972399999867775,5,0.19060850000096252,59.88511130000006,59.88511130000006,59.88511130000006,59.88511130000006,59.88511130000006,59.88511130000006,59.88511130000006,59.88511130000006,59.88511130000006,59.88511130000006,006,P003,2025_Jan_18_1153,ConditionRich,2021.2.3,59.93662301478112,
24.0,24.75,35,0.75,Stimuli/P003/things_satellite_dish_02s.jpg,0,0,0.0,0,41,41,41,,,,,,,,,,,,,24.02027889999954,0.020278899999539135,None,,60.118623399999706,60.118623399999706,60.118623399999706,60.118623399999706,60.118623399999706,60.118623399999706,60.118623399999706,60.118623399999706,60.118623399999706,60.118623399999706,006,P003,2025_Jan_18_1153,ConditionRich,2021.2.3,59.93662301478112,
24.75,25.0,41,0.0,Stimuli/Blank.png,0,0,0.0,0,42,42,42,,,,,,,,,,,,,24.754241900000125,0.004241900000124588,None,,60.85262220000004,60.85262220000004,60.85262220000004,60.85262220000004,60.85262220000004,60.85262220000004,60.85262220000004,60.85262220000004,60.85262220000004,60.85262220000004,006,P003,2025_Jan_18_1153,ConditionRich,2021.2.3,59.93662301478112,
25.0,25.75,35,0.75,Stimuli/P003/things_satellite_dish_02s.jpg,0,0,0.0,0,43,43,43,,,,,,,,,,,,,25.003986199999417,0.003986199999417295,None,,61.1195287999999,61.1195287999999,61.1195287999999,61.1195287999999,61.1195287999999,61.1195287999999,61.1195287999999,61.1195287999999,61.1195287999999,61.1195287999999,006,P003,2025_Jan_18_1153,ConditionRich,2021.2.3,59.93662301478112,
25.75,26.0,41,0.0,Stimuli/Blank.png,0,0,0.0,0,44,44,44,,,,,,,,,,,,,25.772386599999663,0.022386599999663304,None,,61.87019449999934,61.87019449999934,61.87019449999934,61.87019449999934,61.87019449999934,61.87019449999934,61.87019449999934,61.87019449999934,61.87019449999934,61.87019449999934,006,P003,2025_Jan_18_1153,ConditionRich,2021.2.3,59.93662301478112,
26.0,26.75,35,0.75,Stimuli/P003/things_satellite_dish_02s.jpg,0,0,0.0,0,45,45,45,,,,,,,,,,,,,26.005239100000836,0.005239100000835606,None,,62.103718899999876,62.103718899999876,62.103718899999876,62.103718899999876,62.103718899999876,62.103718899999876,62.103718899999876,62.103718899999876,62.103718899999876,62.103718899999876,006,P003,2025_Jan_18_1153,ConditionRich,2021.2.3,59.93662301478112,
26.75,27.0,41,0.0,Stimuli/Blank.png,0,0,0.0,0,46,46,46,,,,,,,,,,,,,26.755193999999392,0.005193999999391963,None,,62.85442789999979,62.85442789999979,62.85442789999979,62.85442789999979,62.85442789999979,62.85442789999979,62.85442789999979,62.85442789999979,62.85442789999979,62.85442789999979,006,P003,2025_Jan_18_1153,ConditionRich,2021.2.3,59.93662301478112,
27.0,27.75,35,0.75,Stimuli/P003/things_satellite_dish_02s.jpg,0,0,0.0,0,47,47,47,,,,,,,,,,,,,27.00530339999932,0.005303399999320391,None,,63.10459509999964,63.10459509999964,63.10459509999964,63.10459509999964,63.10459509999964,63.10459509999964,63.10459509999964,63.10459509999964,63.10459509999964,63.10459509999964,006,P003,2025_Jan_18_1153,ConditionRich,2021.2.3,59.93662301478112,
27.75,28.0,41,0.0,Stimuli/Blank.png,0,0,0.0,0,48,48,48,,,,,,,,,,,,,27.756763699999283,0.006763699999282835,None,,63.85525469999993,63.85525469999993,63.85525469999993,63.85525469999993,63.85525469999993,63.85525469999993,63.85525469999993,63.85525469999993,63.85525469999993,63.85525469999993,006,P003,2025_Jan_18_1153,ConditionRich,2021.2.3,59.93662301478112,
28.0,28.75,10,0.75,Stimuli/P003/sun_azzneunxibjvypza.jpg,0,0,0.0,0,49,49,49,,,,,,,,,,,,,28.006649000000834,0.006649000000834349,None,,64.10547960000076,64.10547960000076,64.10547960000076,64.10547960000076,64.10547960000076,64.10547960000076,64.10547960000076,64.10547960000076,64.10547960000076,64.10547960000076,006,P003,2025_Jan_18_1153,ConditionRich,2021.2.3,59.93662301478112,
28.75,29.0,41,0.0,Stimuli/Blank.png,0,0,0.0,0,50,50,50,,,,,,,,,,,,,28.75785299999916,0.007852999999158783,None,,64.85613469999953,64.85613469999953,64.85613469999953,64.85613469999953,64.85613469999953,64.85613469999953,64.85613469999953,64.85613469999953,64.85613469999953,64.85613469999953,006,P003,2025_Jan_18_1153,ConditionRich,2021.2.3,59.93662301478112,
29.0,29.75,10,0.75,Stimuli/P003/sun_azzneunxibjvypza.jpg,0,0,0.0,0,51,51,51,,,,,,,,,,,,,29.00715449999916,0.00715449999916018,None,,65.1063592999999,65.1063592999999,65.1063592999999,65.1063592999999,65.1063592999999,65.1063592999999,65.1063592999999,65.1063592999999,65.1063592999999,65.1063592999999,006,P003,2025_Jan_18_1153,ConditionRich,2021.2.3,59.93662301478112,
29.75,30.0,41,0.0,Stimuli/Blank.png,0,0,0.0,0,52,52,52,,,,,,,,,,,,,29.75810300000012,0.00810300000011921,None,,65.85702569999921,65.85702569999921,65.85702569999921,65.85702569999921,65.85702569999921,65.85702569999921,65.85702569999921,65.85702569999921,65.85702569999921,65.85702569999921,006,P003,2025_Jan_18_1153,ConditionRich,2021.2.3,59.93662301478112,
30.0,30.75,10,0.75,Stimuli/P003/sun_azzneunxibjvypza.jpg,0,0,0.0,0,53,53,53,,,,,,,,,,,,,30.008269399999335,0.008269399999335292,None,,66.10725129999992,66.10725129999992,66.10725129999992,66.10725129999992,66.10725129999992,66.10725129999992,66.10725129999992,66.10725129999992,66.10725129999992,66.10725129999992,006,P003,2025_Jan_18_1153,ConditionRich,2021.2.3,59.93662301478112,
30.75,31.0,41,0.0,Stimuli/Blank.png,0,0,0.0,0,54,54,54,,,,,,,,,,,,,30.759084299999813,0.009084299999813084,None,,66.85791470000004,66.85791470000004,66.85791470000004,66.85791470000004,66.85791470000004,66.85791470000004,66.85791470000004,66.85791470000004,66.85791470000004,66.85791470000004,006,P003,2025_Jan_18_1153,ConditionRich,2021.2.3,59.93662301478112,
31.0,31.75,10,0.75,Stimuli/P003/sun_azzneunxibjvypza.jpg,0,0,0.0,0,55,55,55,,,,,,,,,,,,,31.011480299999675,0.01148029999967548,None,,67.12496619999911,67.12496619999911,67.12496619999911,67.12496619999911,67.12496619999911,67.12496619999911,67.12496619999911,67.12496619999911,67.12496619999911,67.12496619999911,006,P003,2025_Jan_18_1153,ConditionRich,2021.2.3,59.93662301478112,
31.75,32.0,41,0.0,Stimuli/Blank.png,0,0,0.0,0,56,56,56,,,,,,,,,,,,,31.77654470000016,0.026544700000158628,5,0.2004596999995556,67.87548699999934,67.87548699999934,67.87548699999934,67.87548699999934,67.87548699999934,67.87548699999934,67.87548699999934,67.87548699999934,67.87548699999934,67.87548699999934,006,P003,2025_Jan_18_1153,ConditionRich,2021.2.3,59.93662301478112,
32.0,32.75,36,0.75,Stimuli/P003/things_sea_urchin_02s.jpg,0,0,0.0,0,57,57,57,,,,,,,,,,,,,32.01050070000019,0.01050070000019332,None,,68.1089993000005,68.1089993000005,68.1089993000005,68.1089993000005,68.1089993000005,68.1089993000005,68.1089993000005,68.1089993000005,68.1089993000005,68.1089993000005,006,P003,2025_Jan_18_1153,ConditionRich,2021.2.3,59.93662301478112,
32.75,33.0,41,0.0,Stimuli/Blank.png,0,0,0.0,0,58,58,58,,,,,,,,,,,,,32.761296000000584,0.011296000000584172,None,,68.85967429999982,68.85967429999982,68.85967429999982,68.85967429999982,68.85967429999982,68.85967429999982,68.85967429999982,68.85967429999982,68.85967429999982,68.85967429999982,006,P003,2025_Jan_18_1153,ConditionRich,2021.2.3,59.93662301478112,
33.0,33.75,36,0.75,Stimuli/P003/things_sea_urchin_02s.jpg,0,0,0.0,0,59,59,59,,,,,,,,,,,,,33.011034900000595,0.011034900000595371,None,,69.1098750000001,69.1098750000001,69.1098750000001,69.1098750000001,69.1098750000001,69.1098750000001,69.1098750000001,69.1098750000001,69.1098750000001,69.1098750000001,006,P003,2025_Jan_18_1153,ConditionRich,2021.2.3,59.93662301478112,
33.75,34.0,41,0.0,Stimuli/Blank.png,0,0,0.0,0,60,60,60,,,,,,,,,,,,,33.762172999999166,0.012172999999165768,5,0.21528330000001006,69.86054409999997,69.86054409999997,69.86054409999997,69.86054409999997,69.86054409999997,69.86054409999997,69.86054409999997,69.86054409999997,69.86054409999997,69.86054409999997,006,P003,2025_Jan_18_1153,ConditionRich,2021.2.3,59.93662301478112,
34.0,34.75,36,0.75,Stimuli/P003/things_sea_urchin_02s.jpg,0,0,0.0,0,61,61,61,,,,,,,,,,,,,34.01233460000003,0.01233460000003106,None,,70.11076160000084,70.11076160000084,70.11076160000084,70.11076160000084,70.11076160000084,70.11076160000084,70.11076160000084,70.11076160000084,70.11076160000084,70.11076160000084,006,P003,2025_Jan_18_1153,ConditionRich,2021.2.3,59.93662301478112,
34.75,35.0,41,0.0,Stimuli/Blank.png,0,0,0.0,0,62,62,62,,,,,,,,,,,,,34.762408500000674,0.012408500000674394,None,,70.86142830000063,70.86142830000063,70.86142830000063,70.86142830000063,70.86142830000063,70.86142830000063,70.86142830000063,70.86142830000063,70.86142830000063,70.86142830000063,006,P003,2025_Jan_18_1153,ConditionRich,2021.2.3,59.93662301478112,
35.0,35.75,36,0.75,Stimuli/P003/things_sea_urchin_02s.jpg,0,0,0.0,0,63,63,63,,,,,,,,,,,,,35.01267489999918,0.012674899999183253,None,,71.11164350000035,71.11164350000035,71.11164350000035,71.11164350000035,71.11164350000035,71.11164350000035,71.11164350000035,71.11164350000035,71.11164350000035,71.11164350000035,006,P003,2025_Jan_18_1153,ConditionRich,2021.2.3,59.93662301478112,
35.75,36.0,41,0.0,Stimuli/Blank.png,0,0,0.0,0,64,64,64,,,,,,,,,,,,,35.76367509999909,0.01367509999909089,5,0.21352050000132294,71.86230260000048,71.86230260000048,71.86230260000048,71.86230260000048,71.86230260000048,71.86230260000048,71.86230260000048,71.86230260000048,71.86230260000048,71.86230260000048,006,P003,2025_Jan_18_1153,ConditionRich,2021.2.3,59.93662301478112,
36.0,36.75,14,0.75,Stimuli/P003/sun_bhhtrmwvoadbfucw.jpg,0,0,0.0,0,65,65,65,,,,,,,,,,,,,36.014068899999984,0.014068899999983842,None,,72.12921900000038,72.12921900000038,72.12921900000038,72.12921900000038,72.12921900000038,72.12921900000038,72.12921900000038,72.12921900000038,72.12921900000038,72.12921900000038,006,P003,2025_Jan_18_1153,ConditionRich,2021.2.3,59.93662301478112,
36.75,37.0,41,0.0,Stimuli/Blank.png,0,0,0.0,0,66,66,66,,,,,,,,,,,,,36.7815169000005,0.03151690000049712,None,,72.87987799999974,72.87987799999974,72.87987799999974,72.87987799999974,72.87987799999974,72.87987799999974,72.87987799999974,72.87987799999974,72.87987799999974,72.87987799999974,006,P003,2025_Jan_18_1153,ConditionRich,2021.2.3,59.93662301478112,
37.0,37.75,14,0.75,Stimuli/P003/sun_bhhtrmwvoadbfucw.jpg,0,0,0.0,0,67,67,67,,,,,,,,,,,,,37.014332799999465,0.014332799999465351,None,,73.1300926999993,73.1300926999993,73.1300926999993,73.1300926999993,73.1300926999993,73.1300926999993,73.1300926999993,73.1300926999993,73.1300926999993,73.1300926999993,006,P003,2025_Jan_18_1153,ConditionRich,2021.2.3,59.93662301478112,
37.75,38.0,41,0.0,Stimuli/Blank.png,0,0,0.0,0,68,68,68,,,,,,,,,,,,,37.78214950000074,0.03214950000074168,None,,73.88075879999997,73.88075879999997,73.88075879999997,73.88075879999997,73.88075879999997,73.88075879999997,73.88075879999997,73.88075879999997,73.88075879999997,73.88075879999997,006,P003,2025_Jan_18_1153,ConditionRich,2021.2.3,59.93662301478112,
38.0,38.75,14,0.75,Stimuli/P003/sun_bhhtrmwvoadbfucw.jpg,0,0,0.0,0,69,69,69,,,,,,,,,,,,,37.999131900000066,-0.0008680999999342021,None,,74.11428499999965,74.11428499999965,74.11428499999965,74.11428499999965,74.11428499999965,74.11428499999965,74.11428499999965,74.11428499999965,74.11428499999965,74.11428499999965,006,P003,2025_Jan_18_1153,ConditionRich,2021.2.3,59.93662301478112,
38.75,39.0,41,0.0,Stimuli/Blank.png,0,0,0.0,0,70,70,70,,,,,,,,,,,,,38.76654129999952,0.016541299999516923,None,,74.86496110000007,74.86496110000007,74.86496110000007,74.86496110000007,74.86496110000007,74.86496110000007,74.86496110000007,74.86496110000007,74.86496110000007,74.86496110000007,006,P003,2025_Jan_18_1153,ConditionRich,2021.2.3,59.93662301478112,
39.0,39.75,14,0.75,Stimuli/P003/sun_bhhtrmwvoadbfucw.jpg,0,0,0.0,0,71,71,71,,,,,,,,,,,,,39.00145610000072,0.0014561000007233815,None,,75.11516970000048,75.11516970000048,75.11516970000048,75.11516970000048,75.11516970000048,75.11516970000048,75.11516970000048,75.11516970000048,75.11516970000048,75.11516970000048,006,P003,2025_Jan_18_1153,ConditionRich,2021.2.3,59.93662301478112,
39.75,40.0,41,0.0,Stimuli/Blank.png,0,0,0.0,0,72,72,72,,,,,,,,,,,,,39.76741469999979,0.017414699999790173,None,,75.86583690000043,75.86583690000043,75.86583690000043,75.86583690000043,75.86583690000043,75.86583690000043,75.86583690000043,75.86583690000043,75.86583690000043,75.86583690000043,006,P003,2025_Jan_18_1153,ConditionRich,2021.2.3,59.93662301478112,
40.0,40.75,40,0.75,Stimuli/P003/things_woman_02s.jpg,0,0,0.0,0,73,73,73,,,,,,,,,,,,,40.002129700000296,0.0021297000002959976,None,,76.11604810000063,76.11604810000063,76.11604810000063,76.11604810000063,76.11604810000063,76.11604810000063,76.11604810000063,76.11604810000063,76.11604810000063,76.11604810000063,006,P003,2025_Jan_18_1153,ConditionRich,2021.2.3,59.93662301478112,
40.75,41.0,41,0.0,Stimuli/Blank.png,0,0,0.0,0,74,74,74,,,,,,,,,,,,,40.76782810000077,0.017828100000770064,None,,76.86671150000075,76.86671150000075,76.86671150000075,76.86671150000075,76.86671150000075,76.86671150000075,76.86671150000075,76.86671150000075,76.86671150000075,76.86671150000075,006,P003,2025_Jan_18_1153,ConditionRich,2021.2.3,59.93662301478112,
41.0,41.75,40,0.75,Stimuli/P003/things_woman_02s.jpg,0,0,0.0,0,75,75,75,,,,,,,,,,,,,41.00108530000034,0.0010853000003407942,None,,77.10025870000027,77.10025870000027,77.10025870000027,77.10025870000027,77.10025870000027,77.10025870000027,77.10025870000027,77.10025870000027,77.10025870000027,77.10025870000027,006,P003,2025_Jan_18_1153,ConditionRich,2021.2.3,59.93662301478112,
41.75,42.0,41,0.0,Stimuli/Blank.png,0,0,0.0,0,76,76,76,,,,,,,,,,,,,41.75313920000008,0.0031392000000778353,5,0.20822770000086166,77.86761020000085,77.86761020000085,77.86761020000085,77.86761020000085,77.86761020000085,77.86761020000085,77.86761020000085,77.86761020000085,77.86761020000085,77.86761020000085,006,P003,2025_Jan_18_1153,ConditionRich,2021.2.3,59.93662301478112,
42.0,42.75,40,0.75,Stimuli/P003/things_woman_02s.jpg,0,0,0.0,0,77,77,77,,,,,,,,,,,,,42.018955800000185,0.018955800000185263,None,,78.13450940000075,78.13450940000075,78.13450940000075,78.13450940000075,78.13450940000075,78.13450940000075,78.13450940000075,78.13450940000075,78.13450940000075,78.13450940000075,006,P003,2025_Jan_18_1153,ConditionRich,2021.2.3,59.93662301478112,
42.75,43.0,41,0.0,Stimuli/Blank.png,0,0,0.0,0,78,78,78,,,,,,,,,,,,,42.77255940000032,0.02255940000031842,None,,78.88516100000015,78.88516100000015,78.88516100000015,78.88516100000015,78.88516100000015,78.88516100000015,78.88516100000015,78.88516100000015,78.88516100000015,78.88516100000015,006,P003,2025_Jan_18_1153,ConditionRich,2021.2.3,59.93662301478112,
43.0,43.75,40,0.75,Stimuli/P003/things_woman_02s.jpg,0,0,0.0,0,79,79,79,,,,,,,,,,,,,43.02006550000078,0.020065500000782777,None,,79.11868719999984,79.11868719999984,79.11868719999984,79.11868719999984,79.11868719999984,79.11868719999984,79.11868719999984,79.11868719999984,79.11868719999984,79.11868719999984,006,P003,2025_Jan_18_1153,ConditionRich,2021.2.3,59.93662301478112,
43.75,44.0,41,0.0,Stimuli/Blank.png,0,0,0.0,0,80,80,80,,,,,,,,,,,,,43.75411089999943,0.004110899999432149,None,,79.8526681000003,79.8526681000003,79.8526681000003,79.8526681000003,79.8526681000003,79.8526681000003,79.8526681000003,79.8526681000003,79.8526681000003,79.8526681000003,006,P003,2025_Jan_18_1153,ConditionRich,2021.2.3,59.93662301478112,
44.0,44.75,13,0.75,Stimuli/P003/sun_bhbiqbqmwrowrqpd.jpg,0,0,0.0,0,81,81,81,,,,,,,,,,,,,44.00437930000044,0.00437930000043707,None,,80.10289499999999,80.10289499999999,80.10289499999999,80.10289499999999,80.10289499999999,80.10289499999999,80.10289499999999,80.10289499999999,80.10289499999999,80.10289499999999,006,P003,2025_Jan_18_1153,ConditionRich,2021.2.3,59.93662301478112,
44.75,45.0,41,0.0,Stimuli/Blank.png,0,0,0.0,0,82,82,82,,,,,,,,,,,,,44.75639609999962,0.006396099999619764,None,,80.87024089999977,80.87024089999977,80.87024089999977,80.87024089999977,80.87024089999977,80.87024089999977,80.87024089999977,80.87024089999977,80.87024089999977,80.87024089999977,006,P003,2025_Jan_18_1153,ConditionRich,2021.2.3,59.93662301478112,
45.0,45.75,13,0.75,Stimuli/P003/sun_bhbiqbqmwrowrqpd.jpg,0,0,0.0,0,83,83,83,,,,,,,,,,,,,45.02227599999969,0.02227599999969243,None,,81.13714939999954,81.13714939999954,81.13714939999954,81.13714939999954,81.13714939999954,81.13714939999954,81.13714939999954,81.13714939999954,81.13714939999954,81.13714939999954,006,P003,2025_Jan_18_1153,ConditionRich,2021.2.3,59.93662301478112,
45.75,46.0,41,0.0,Stimuli/Blank.png,0,0,0.0,0,84,84,84,,,,,,,,,,,,,45.771945599999526,0.021945599999526166,None,,81.87111200000072,81.87111200000072,81.87111200000072,81.87111200000072,81.87111200000072,81.87111200000072,81.87111200000072,81.87111200000072,81.87111200000072,81.87111200000072,006,P003,2025_Jan_18_1153,ConditionRich,2021.2.3,59.93662301478112,
46.0,46.75,13,0.75,Stimuli/P003/sun_bhbiqbqmwrowrqpd.jpg,0,0,0.0,0,85,85,85,,,,,,,,,,,,,46.006198299999596,0.006198299999596202,None,,82.10468740000033,82.10468740000033,82.10468740000033,82.10468740000033,82.10468740000033,82.10468740000033,82.10468740000033,82.10468740000033,82.10468740000033,82.10468740000033,006,P003,2025_Jan_18_1153,ConditionRich,2021.2.3,59.93662301478112,
46.75,47.0,41,0.0,Stimuli/Blank.png,0,0,0.0,0,86,86,86,,,,,,,,,,,,,46.757036200000584,0.007036200000584358,None,,82.85532450000028,82.85532450000028,82.85532450000028,82.85532450000028,82.85532450000028,82.85532450000028,82.85532450000028,82.85532450000028,82.85532450000028,82.85532450000028,006,P003,2025_Jan_18_1153,ConditionRich,2021.2.3,59.93662301478112,
47.0,47.75,13,0.75,Stimuli/P003/sun_bhbiqbqmwrowrqpd.jpg,0,0,0.0,0,87,87,87,,,,,,,,,,,,,47.007129100000384,0.0071291000003839144,None,,83.1222142000006,83.1222142000006,83.1222142000006,83.1222142000006,83.1222142000006,83.1222142000006,83.1222142000006,83.1222142000006,83.1222142000006,83.1222142000006,006,P003,2025_Jan_18_1153,ConditionRich,2021.2.3,59.93662301478112,
47.75,48.0,41,0.0,Stimuli/Blank.png,0,0,0.0,0,88,88,88,,,,,,,,,,,,,47.776477199999135,0.026477199999135337,5,0.18610660000013013,83.88957839999966,83.88957839999966,83.88957839999966,83.88957839999966,83.88957839999966,83.88957839999966,83.88957839999966,83.88957839999966,83.88957839999966,83.88957839999966,006,P003,2025_Jan_18_1153,ConditionRich,2021.2.3,59.93662301478112,
48.0,48.75,37,0.75,Stimuli/P003/things_ski_lift_02s.jpg,0,0,0.0,0,89,89,89,,,,,,,,,,,,,48.02704430000085,0.027044300000852672,None,,84.13977549999981,84.13977549999981,84.13977549999981,84.13977549999981,84.13977549999981,84.13977549999981,84.13977549999981,84.13977549999981,84.13977549999981,84.13977549999981,006,P003,2025_Jan_18_1153,ConditionRich,2021.2.3,59.93662301478112,
48.75,49.0,41,0.0,Stimuli/Blank.png,0,0,0.0,0,90,90,90,,,,,,,,,,,,,48.77680180000061,0.026801800000612275,None,,84.89044789999934,84.89044789999934,84.89044789999934,84.89044789999934,84.89044789999934,84.89044789999934,84.89044789999934,84.89044789999934,84.89044789999934,84.89044789999934,006,P003,2025_Jan_18_1153,ConditionRich,2021.2.3,59.93662301478112,
49.0,49.75,37,0.75,Stimuli/P003/things_ski_lift_02s.jpg,0,0,0.0,0,91,91,91,,,,,,,,,,,,,49.025172499999826,0.02517249999982596,None,,85.12405380000018,85.12405380000018,85.12405380000018,85.12405380000018,85.12405380000018,85.12405380000018,85.12405380000018,85.12405380000018,85.12405380000018,85.12405380000018,006,P003,2025_Jan_18_1153,ConditionRich,2021.2.3,59.93662301478112,
49.75,50.0,41,0.0,Stimuli/Blank.png,0,0,0.0,0,92,92,92,,,,,,,,,,,,,49.759287900000345,0.009287900000344962,5,0.21774730000106501,85.8579551999992,85.8579551999992,85.8579551999992,85.8579551999992,85.8579551999992,85.8579551999992,85.8579551999992,85.8579551999992,85.8579551999992,85.8579551999992,006,P003,2025_Jan_18_1153,ConditionRich,2021.2.3,59.93662301478112,
50.0,50.75,37,0.75,Stimuli/P003/things_ski_lift_02s.jpg,0,0,0.0,0,93,93,93,,,,,,,,,,,,,50.0101494999999,0.010149499999897671,None,,86.12486259999969,86.12486259999969,86.12486259999969,86.12486259999969,86.12486259999969,86.12486259999969,86.12486259999969,86.12486259999969,86.12486259999969,86.12486259999969,006,P003,2025_Jan_18_1153,ConditionRich,2021.2.3,59.93662301478112,
50.75,51.0,41,0.0,Stimuli/Blank.png,0,0,0.0,0,94,94,94,,,,,,,,,,,,,50.77716800000053,0.02716800000052899,None,,86.87550249999913,86.87550249999913,86.87550249999913,86.87550249999913,86.87550249999913,86.87550249999913,86.87550249999913,86.87550249999913,86.87550249999913,86.87550249999913,006,P003,2025_Jan_18_1153,ConditionRich,2021.2.3,59.93662301478112,
51.0,51.75,37,0.75,Stimuli/P003/things_ski_lift_02s.jpg,0,0,0.0,0,95,95,95,,,,,,,,,,,,,51.011777199999415,0.011777199999414734,None,,87.1257458,87.1257458,87.1257458,87.1257458,87.1257458,87.1257458,87.1257458,87.1257458,87.1257458,87.1257458,006,P003,2025_Jan_18_1153,ConditionRich,2021.2.3,59.93662301478112,
51.75,52.0,41,0.0,Stimuli/Blank.png,0,0,0.0,0,96,96,96,,,,,,,,,,,,,51.777831600000354,0.02783160000035423,5,0.19917250000071363,87.87643969999954,87.87643969999954,87.87643969999954,87.87643969999954,87.87643969999954,87.87643969999954,87.87643969999954,87.87643969999954,87.87643969999954,87.87643969999954,006,P003,2025_Jan_18_1153,ConditionRich,2021.2.3,59.93662301478112,
52.0,52.75,25,0.75,Stimuli/P003/things_girl_02s.jpg,0,0,0.0,0,97,97,97,,,,,,,,,,,,,52.010792900000524,0.010792900000524241,None,,88.10993989999952,88.10993989999952,88.10993989999952,88.10993989999952,88.10993989999952,88.10993989999952,88.10993989999952,88.10993989999952,88.10993989999952,88.10993989999952,006,P003,2025_Jan_18_1153,ConditionRich,2021.2.3,59.93662301478112,
52.75,53.0,41,0.0,Stimuli/Blank.png,0,0,0.0,0,98,98,98,,,,,,,,,,,,,52.76241269999991,0.012412699999913457,None,,88.86062010000023,88.86062010000023,88.86062010000023,88.86062010000023,88.86062010000023,88.86062010000023,88.86062010000023,88.86062010000023,88.86062010000023,88.86062010000023,006,P003,2025_Jan_18_1153,ConditionRich,2021.2.3,59.93662301478112,
53.0,53.75,25,0.75,Stimuli/P003/things_girl_02s.jpg,0,0,0.0,0,99,99,99,,,,,,,,,,,,,53.01220140000078,0.01220140000077663,None,,89.11082189999979,89.11082189999979,89.11082189999979,89.11082189999979,89.11082189999979,89.11082189999979,89.11082189999979,89.11082189999979,89.11082189999979,89.11082189999979,006,P003,2025_Jan_18_1153,ConditionRich,2021.2.3,59.93662301478112,
53.75,54.0,41,0.0,Stimuli/Blank.png,0,0,0.0,0,100,100,100,,,,,,,,,,,,,53.762180899999294,0.012180899999293615,5,0.21427629999925557,89.86147990000063,89.86147990000063,89.86147990000063,89.86147990000063,89.86147990000063,89.86147990000063,89.86147990000063,89.86147990000063,89.86147990000063,89.86147990000063,006,P003,2025_Jan_18_1153,ConditionRich,2021.2.3,59.93662301478112,
54.0,54.75,25,0.75,Stimuli/P003/things_girl_02s.jpg,0,0,0.0,0,101,101,101,,,,,,,,,,,,,54.012616800000615,0.012616800000614603,None,,90.1117006000004,90.1117006000004,90.1117006000004,90.1117006000004,90.1117006000004,90.1117006000004,90.1117006000004,90.1117006000004,90.1117006000004,90.1117006000004,006,P003,2025_Jan_18_1153,ConditionRich,2021.2.3,59.93662301478112,
54.75,55.0,41,0.0,Stimuli/Blank.png,0,0,0.0,0,102,102,102,,,,,,,,,,,,,54.76363400000082,0.013634000000820379,None,,90.86236780000036,90.86236780000036,90.86236780000036,90.86236780000036,90.86236780000036,90.86236780000036,90.86236780000036,90.86236780000036,90.86236780000036,90.86236780000036,006,P003,2025_Jan_18_1153,ConditionRich,2021.2.3,59.93662301478112,
55.0,55.75,25,0.75,Stimuli/P003/things_girl_02s.jpg,0,0,0.0,0,103,103,103,,,,,,,,,,,,,55.01388539999971,0.01388539999970817,None,,91.12927149999996,91.12927149999996,91.12927149999996,91.12927149999996,91.12927149999996,91.12927149999996,91.12927149999996,91.12927149999996,91.12927149999996,91.12927149999996,006,P003,2025_Jan_18_1153,ConditionRich,2021.2.3,59.93662301478112,
55.75,56.0,41,0.0,Stimuli/Blank.png,0,0,0.0,0,104,104,104,,,,,,,,,,,,,55.78133069999967,0.0313306999996712,5,0.19567280000046594,91.87993169999936,91.87993169999936,91.87993169999936,91.87993169999936,91.87993169999936,91.87993169999936,91.87993169999936,91.87993169999936,91.87993169999936,91.87993169999936,006,P003,2025_Jan_18_1153,ConditionRich,2021.2.3,59.93662301478112,
56.0,56.75,17,0.75,Stimuli/P003/sun_bojovhhraxtgafcy.jpg,0,0,0.0,0,105,105,105,,,,,,,,,,,,,56.014233500000046,0.014233500000045751,None,,92.11345889999939,92.11345889999939,92.11345889999939,92.11345889999939,92.11345889999939,92.11345889999939,92.11345889999939,92.11345889999939,92.11345889999939,92.11345889999939,006,P003,2025_Jan_18_1153,ConditionRich,2021.2.3,59.93662301478112,
56.75,57.0,41,0.0,Stimuli/Blank.png,0,0,0.0,0,106,106,106,,,,,,,,,,,,,56.76556510000046,0.015565100000458187,None,,92.86417450000044,92.86417450000044,92.86417450000044,92.86417450000044,92.86417450000044,92.86417450000044,92.86417450000044,92.86417450000044,92.86417450000044,92.86417450000044,006,P003,2025_Jan_18_1153,ConditionRich,2021.2.3,59.93662301478112,
57.0,57.75,17,0.75,Stimuli/P003/sun_bojovhhraxtgafcy.jpg,0,0,0.0,0,107,107,107,,,,,,,,,,,,,56.99898220000068,-0.0010177999993175035,None,,93.0976654999995,93.0976654999995,93.0976654999995,93.0976654999995,93.0976654999995,93.0976654999995,93.0976654999995,93.0976654999995,93.0976654999995,93.0976654999995,006,P003,2025_Jan_18_1153,ConditionRich,2021.2.3,59.93662301478112,
57.75,58.0,41,0.0,Stimuli/Blank.png,0,0,0.0,0,108,108,108,,,,,,,,,,,,,57.749224699999104,-0.0007753000008960953,None,,93.84835050000038,93.84835050000038,93.84835050000038,93.84835050000038,93.84835050000038,93.84835050000038,93.84835050000038,93.84835050000038,93.84835050000038,93.84835050000038,006,P003,2025_Jan_18_1153,ConditionRich,2021.2.3,59.93662301478112,
58.0,58.75,17,0.75,Stimuli/P003/sun_bojovhhraxtgafcy.jpg,0,0,0.0,0,109,109,109,,,,,,,,,,,,,58.00189119999959,0.0018911999995907536,None,,94.11523119999947,94.11523119999947,94.11523119999947,94.11523119999947,94.11523119999947,94.11523119999947,94.11523119999947,94.11523119999947,94.11523119999947,94.11523119999947,006,P003,2025_Jan_18_1153,ConditionRich,2021.2.3,59.93662301478112,
58.75,59.0,41,0.0,Stimuli/Blank.png,0,0,0.0,0,110,110,110,,,,,,,,,,,,,58.76808030000029,0.018080300000292482,None,,94.88259210000069,94.88259210000069,94.88259210000069,94.88259210000069,94.88259210000069,94.88259210000069,94.88259210000069,94.88259210000069,94.88259210000069,94.88259210000069,006,P003,2025_Jan_18_1153,ConditionRich,2021.2.3,59.93662301478112,
59.0,59.75,17,0.75,Stimuli/P003/sun_bojovhhraxtgafcy.jpg,0,0,0.0,0,111,111,111,,,,,,,,,,,,,59.01749489999929,0.0174948999992921,None,,95.1328009000008,95.1328009000008,95.1328009000008,95.1328009000008,95.1328009000008,95.1328009000008,95.1328009000008,95.1328009000008,95.1328009000008,95.1328009000008,006,P003,2025_Jan_18_1153,ConditionRich,2021.2.3,59.93662301478112,
59.75,60.0,41,0.0,Stimuli/Blank.png,0,0,0.0,0,112,112,112,,,,,,,,,,,,,59.76799480000045,0.017994800000451505,None,,95.86676389999957,95.86676389999957,95.86676389999957,95.86676389999957,95.86676389999957,95.86676389999957,95.86676389999957,95.86676389999957,95.86676389999957,95.86676389999957,006,P003,2025_Jan_18_1153,ConditionRich,2021.2.3,59.93662301478112,
60.0,60.75,12,0.75,Stimuli/P003/sun_bcboctumoxwpdefl.jpg,0,0,0.0,0,113,113,113,,,,,,,,,,,,,60.00232639999922,0.002326399999219575,None,,96.1169974000004,96.1169974000004,96.1169974000004,96.1169974000004,96.1169974000004,96.1169974000004,96.1169974000004,96.1169974000004,96.1169974000004,96.1169974000004,006,P003,2025_Jan_18_1153,ConditionRich,2021.2.3,59.93662301478112,
60.75,61.0,41,0.0,Stimuli/Blank.png,0,0,0.0,0,114,114,114,,,,,,,,,,,,,60.7713578999992,0.021357899999202345,None,,96.8843323000001,96.8843323000001,96.8843323000001,96.8843323000001,96.8843323000001,96.8843323000001,96.8843323000001,96.8843323000001,96.8843323000001,96.8843323000001,006,P003,2025_Jan_18_1153,ConditionRich,2021.2.3,59.93662301478112,
61.0,61.75,12,0.75,Stimuli/P003/sun_bcboctumoxwpdefl.jpg,0,0,0.0,0,115,115,115,,,,,,,,,,,,,61.01938490000066,0.0193849000006594,None,,97.13454450000063,97.13454450000063,97.13454450000063,97.13454450000063,97.13454450000063,97.13454450000063,97.13454450000063,97.13454450000063,97.13454450000063,97.13454450000063,006,P003,2025_Jan_18_1153,ConditionRich,2021.2.3,59.93662301478112,
61.75,62.0,41,0.0,Stimuli/Blank.png,0,0,0.0,0,116,116,116,,,,,,,,,,,,,61.76959119999992,0.019591199999922537,None,,97.86853180000071,97.86853180000071,97.86853180000071,97.86853180000071,97.86853180000071,97.86853180000071,97.86853180000071,97.86853180000071,97.86853180000071,97.86853180000071,006,P003,2025_Jan_18_1153,ConditionRich,2021.2.3,59.93662301478112,
62.0,62.75,12,0.75,Stimuli/P003/sun_bcboctumoxwpdefl.jpg,0,0,0.0,0,117,117,117,,,,,,,,,,,,,62.00298029999976,0.002980299999762792,None,,98.10207350000019,98.10207350000019,98.10207350000019,98.10207350000019,98.10207350000019,98.10207350000019,98.10207350000019,98.10207350000019,98.10207350000019,98.10207350000019,006,P003,2025_Jan_18_1153,ConditionRich,2021.2.3,59.93662301478112,
62.75,63.0,41,0.0,Stimuli/Blank.png,0,0,0.0,0,118,118,118,,,,,,,,,,,,,62.75405379999938,0.004053799999383045,None,,98.85273020000022,98.85273020000022,98.85273020000022,98.85273020000022,98.85273020000022,98.85273020000022,98.85273020000022,98.85273020000022,98.85273020000022,98.85273020000022,006,P003,2025_Jan_18_1153,ConditionRich,2021.2.3,59.93662301478112,
63.0,63.75,12,0.75,Stimuli/P003/sun_bcboctumoxwpdefl.jpg,0,0,0.0,0,119,119,119,,,,,,,,,,,,,63.00424469999962,0.004244699999617296,None,,99.10294520000025,99.10294520000025,99.10294520000025,99.10294520000025,99.10294520000025,99.10294520000025,99.10294520000025,99.10294520000025,99.10294520000025,99.10294520000025,006,P003,2025_Jan_18_1153,ConditionRich,2021.2.3,59.93662301478112,
63.75,64.0,41,0.0,Stimuli/Blank.png,0,0,0.0,0,120,120,120,,,,,,,,,,,,,63.754798899999514,0.004798899999514106,None,,99.85358009999982,99.85358009999982,99.85358009999982,99.85358009999982,99.85358009999982,99.85358009999982,99.85358009999982,99.85358009999982,99.85358009999982,99.85358009999982,006,P003,2025_Jan_18_1153,ConditionRich,2021.2.3,59.93662301478112,
64.0,64.75,33,0.75,Stimuli/P003/things_recorder_02s.jpg,1,0,0.75,0,121,121,121,,,,,,,,,,,,,64.0050728999995,0.005072899999504443,1,0.5218306000006123,100.10383739999997,100.10383739999997,100.10383739999997,100.10383739999997,100.10383739999997,100.10383739999997,100.10383739999997,100.83781169999929,100.10383739999997,100.10383739999997,006,P003,2025_Jan_18_1153,ConditionRich,2021.2.3,59.93662301478112,
64.75,65.0,41,0.0,Stimuli/Blank.png,0,0,0.0,0,122,122,122,,,,,,,,,,,,,64.75591390000045,0.005913900000450667,None,,100.85449469999912,100.85449469999912,100.85449469999912,100.85449469999912,100.85449469999912,100.85449469999912,100.85449469999912,100.85449469999912,100.85449469999912,100.85449469999912,006,P003,2025_Jan_18_1153,ConditionRich,2021.2.3,59.93662301478112,
65.0,65.75,33,0.75,Stimuli/P003/things_recorder_02s.jpg,0,0,0.0,0,123,123,123,,,,,,,,,,,,,65.00623459999952,0.006234599999515922,None,,101.10471719999987,101.10471719999987,101.10471719999987,101.10471719999987,101.10471719999987,101.10471719999987,101.10471719999987,101.10471719999987,101.10471719999987,101.10471719999987,006,P003,2025_Jan_18_1153,ConditionRich,2021.2.3,59.93662301478112,
65.75,66.0,41,0.0,Stimuli/Blank.png,0,0,0.0,0,124,124,124,,,,,,,,,,,,,65.75608880000073,0.006088800000725314,None,,101.85537560000012,101.85537560000012,101.85537560000012,101.85537560000012,101.85537560000012,101.85537560000012,101.85537560000012,101.85537560000012,101.85537560000012,101.85537560000012,006,P003,2025_Jan_18_1153,ConditionRich,2021.2.3,59.93662301478112,
66.0,66.75,33,0.75,Stimuli/P003/things_recorder_02s.jpg,0,0,0.0,0,125,125,125,,,,,,,,,,,,,66.0065367999996,0.006536799999594223,None,,102.10560059999989,102.10560059999989,102.10560059999989,102.10560059999989,102.10560059999989,102.10560059999989,102.10560059999989,102.10560059999989,102.10560059999989,102.10560059999989,006,P003,2025_Jan_18_1153,ConditionRich,2021.2.3,59.93662301478112,
66.75,67.0,41,0.0,Stimuli/Blank.png,0,0,0.0,0,126,126,126,,,,,,,,,,,,,66.75721290000001,0.007212900000013178,None,,102.85625380000056,102.85625380000056,102.85625380000056,102.85625380000056,102.85625380000056,102.85625380000056,102.85625380000056,102.85625380000056,102.85625380000056,102.85625380000056,006,P003,2025_Jan_18_1153,ConditionRich,2021.2.3,59.93662301478112,
67.0,67.75,33,0.75,Stimuli/P003/things_recorder_02s.jpg,0,0,0.0,0,127,127,127,,,,,,,,,,,,,67.00758329999917,0.007583299999168958,None,,103.10646930000075,103.10646930000075,103.10646930000075,103.10646930000075,103.10646930000075,103.10646930000075,103.10646930000075,103.10646930000075,103.10646930000075,103.10646930000075,006,P003,2025_Jan_18_1153,ConditionRich,2021.2.3,59.93662301478112,
67.75,68.0,41,0.0,Stimuli/Blank.png,0,0,0.0,0,128,128,128,,,,,,,,,,,,,67.7580624000002,0.008062400000198977,None,,103.85713150000083,103.85713150000083,103.85713150000083,103.85713150000083,103.85713150000083,103.85713150000083,103.85713150000083,103.85713150000083,103.85713150000083,103.85713150000083,006,P003,2025_Jan_18_1153,ConditionRich,2021.2.3,59.93662301478112,
68.0,68.75,28,0.75,Stimuli/P003/things_man_02s.jpg,1,0,0.75,0,129,129,129,,,,,,,,,,,,,68.00838029999977,0.008380299999771523,1,0.43452830000023823,104.12404229999993,104.12404229999993,104.12404229999993,104.12404229999993,104.12404229999993,104.12404229999993,104.12404229999993,104.84134529999938,104.12404229999993,104.12404229999993,006,P003,2025_Jan_18_1153,ConditionRich,2021.2.3,59.93662301478112,
68.75,69.0,41,0.0,Stimuli/Blank.png,0,0,0.0,0,130,130,130,,,,,,,,,,,,,68.77621530000033,0.0262153000003309,None,,104.87469880000026,104.87469880000026,104.87469880000026,104.87469880000026,104.87469880000026,104.87469880000026,104.87469880000026,104.87469880000026,104.87469880000026,104.87469880000026,006,P003,2025_Jan_18_1153,ConditionRich,2021.2.3,59.93662301478112,
69.0,69.75,28,0.75,Stimuli/P003/things_man_02s.jpg,0,0,0.0,0,131,131,131,,,,,,,,,,,,,69.01151949999985,0.011519499999849359,None,,105.12491500000033,105.12491500000033,105.12491500000033,105.12491500000033,105.12491500000033,105.12491500000033,105.12491500000033,105.12491500000033,105.12491500000033,105.12491500000033,006,P003,2025_Jan_18_1153,ConditionRich,2021.2.3,59.93662301478112,
69.75,70.0,41,0.0,Stimuli/Blank.png,0,0,0.0,0,132,132,132,,,,,,,,,,,,,69.77707940000073,0.027079400000729947,5,0.20010530000035942,105.87558340000032,105.87558340000032,105.87558340000032,105.87558340000032,105.87558340000032,105.87558340000032,105.87558340000032,105.87558340000032,105.87558340000032,105.87558340000032,006,P003,2025_Jan_18_1153,ConditionRich,2021.2.3,59.93662301478112,
70.0,70.75,28,0.75,Stimuli/P003/things_man_02s.jpg,0,0,0.0,0,133,133,133,,,,,,,,,,,,,70.00992799999949,0.009927999999490567,None,,106.12581660000069,106.12581660000069,106.12581660000069,106.12581660000069,106.12581660000069,106.12581660000069,106.12581660000069,106.12581660000069,106.12581660000069,106.12581660000069,006,P003,2025_Jan_18_1153,ConditionRich,2021.2.3,59.93662301478112,
70.75,71.0,41,0.0,Stimuli/Blank.png,0,0,0.0,0,134,134,134,,,,,,,,,,,,,70.7778586000004,0.027858600000399747,None,,106.87644759999966,106.87644759999966,106.87644759999966,106.87644759999966,106.87644759999966,106.87644759999966,106.87644759999966,106.87644759999966,106.87644759999966,106.87644759999966,006,P003,2025_Jan_18_1153,ConditionRich,2021.2.3,59.93662301478112,
71.0,71.75,28,0.75,Stimuli/P003/things_man_02s.jpg,0,0,0.0,0,135,135,135,,,,,,,,,,,,,71.01120099999935,0.011200999999346095,None,,107.10998560000007,107.10998560000007,107.10998560000007,107.10998560000007,107.10998560000007,107.10998560000007,107.10998560000007,107.10998560000007,107.10998560000007,107.10998560000007,006,P003,2025_Jan_18_1153,ConditionRich,2021.2.3,59.93662301478112,
71.75,72.0,41,0.0,Stimuli/Blank.png,0,0,0.0,0,136,136,136,,,,,,,,,,,,,71.76219449999917,0.012194499999168329,5,0.21498609999980545,107.86065159999998,107.86065159999998,107.86065159999998,107.86065159999998,107.86065159999998,107.86065159999998,107.86065159999998,107.86065159999998,107.86065159999998,107.86065159999998,006,P003,2025_Jan_18_1153,ConditionRich,2021.2.3,59.93662301478112,
72.0,72.75,39,0.75,Stimuli/P003/things_toad_02s.jpg,0,0,0.0,0,137,137,137,,,,,,,,,,,,,72.01249760000064,0.012497600000642706,None,,108.11087159999988,108.11087159999988,108.11087159999988,108.11087159999988,108.11087159999988,108.11087159999988,108.11087159999988,108.11087159999988,108.11087159999988,108.11087159999988,006,P003,2025_Jan_18_1153,ConditionRich,2021.2.3,59.93662301478112,
72.75,73.0,41,0.0,Stimuli/Blank.png,0,0,0.0,0,138,138,138,,,,,,,,,,,,,72.76263289999952,0.012632899999516667,None,,108.86153430000013,108.86153430000013,108.86153430000013,108.86153430000013,108.86153430000013,108.86153430000013,108.86153430000013,108.86153430000013,108.86153430000013,108.86153430000013,006,P003,2025_Jan_18_1153,ConditionRich,2021.2.3,59.93662301478112,
73.0,73.75,39,0.75,Stimuli/P003/things_toad_02s.jpg,0,0,0.0,0,139,139,139,,,,,,,,,,,,,73.01296440000078,0.012964400000782916,None,,109.1117551999996,109.1117551999996,109.1117551999996,109.1117551999996,109.1117551999996,109.1117551999996,109.1117551999996,109.1117551999996,109.1117551999996,109.1117551999996,006,P003,2025_Jan_18_1153,ConditionRich,2021.2.3,59.93662301478112,
73.75,74.0,41,0.0,Stimuli/Blank.png,0,0,0.0,0,140,140,140,,,,,,,,,,,,,73.76382790000025,0.013827900000251248,5,0.21311720000085188,109.86241809999956,109.86241809999956,109.86241809999956,109.86241809999956,109.86241809999956,109.86241809999956,109.86241809999956,109.86241809999956,109.86241809999956,109.86241809999956,006,P003,2025_Jan_18_1153,ConditionRich,2021.2.3,59.93662301478112,
74.0,74.75,39,0.75,Stimuli/P003/things_toad_02s.jpg,0,0,0.0,0,141,141,141,,,,,,,,,,,,,74.01412490000075,0.01412490000075195,None,,110.12933039999916,110.12933039999916,110.12933039999916,110.12933039999916,110.12933039999916,110.12933039999916,110.12933039999916,110.12933039999916,110.12933039999916,110.12933039999916,006,P003,2025_Jan_18_1153,ConditionRich,2021.2.3,59.93662301478112,
74.75,75.0,41,0.0,Stimuli/Blank.png,0,0,0.0,0,142,142,142,,,,,,,,,,,,,74.78101640000023,0.031016400000225985,None,,110.87997189999987,110.87997189999987,110.87997189999987,110.87997189999987,110.87997189999987,110.87997189999987,110.87997189999987,110.87997189999987,110.87997189999987,110.87997189999987,006,P003,2025_Jan_18_1153,ConditionRich,2021.2.3,59.93662301478112,
75.0,75.75,39,0.75,Stimuli/P003/things_toad_02s.jpg,0,0,0.0,0,143,143,143,,,,,,,,,,,,,75.01664820000042,0.016648200000418,None,,111.13021379999918,111.13021379999918,111.13021379999918,111.13021379999918,111.13021379999918,111.13021379999918,111.13021379999918,111.13021379999918,111.13021379999918,111.13021379999918,006,P003,2025_Jan_18_1153,ConditionRich,2021.2.3,59.93662301478112,
75.75,76.0,41,0.0,Stimuli/Blank.png,0,0,0.0,0,144,144,144,,,,,,,,,,,,,75.76762000000053,0.017620000000533764,5,0.19463399999949615,111.88086379999913,111.88086379999913,111.88086379999913,111.88086379999913,111.88086379999913,111.88086379999913,111.88086379999913,111.88086379999913,111.88086379999913,111.88086379999913,006,P003,2025_Jan_18_1153,ConditionRich,2021.2.3,59.93662301478112,
76.0,76.75,27,0.75,Stimuli/P003/things_llama_02s.jpg,1,0,0.75,0,145,145,145,,,,,,,,,,,,,76.01610450000044,0.016104500000437838,1,0.35224340000058874,112.11439509999946,112.11439509999946,112.11439509999946,112.11439509999946,112.11439509999946,112.11439509999946,112.11439509999946,None,112.11439509999946,112.11439509999946,006,P003,2025_Jan_18_1153,ConditionRich,2021.2.3,59.93662301478112,
76.75,77.0,41,0.0,Stimuli/Blank.png,0,0,0.0,0,146,146,146,,,,,,,,,,,,,76.74938320000001,-0.0006167999999888707,None,,112.84837899999911,112.84837899999911,112.84837899999911,112.84837899999911,112.84837899999911,112.84837899999911,112.84837899999911,112.84837899999911,112.84837899999911,112.84837899999911,006,P003,2025_Jan_18_1153,ConditionRich,2021.2.3,59.93662301478112,
77.0,77.75,27,0.75,Stimuli/P003/things_llama_02s.jpg,0,0,0.0,0,147,147,147,,,,,,,,,,,,,77.00128519999998,0.0012851999999838881,None,,113.11528200000066,113.11528200000066,113.11528200000066,113.11528200000066,113.11528200000066,113.11528200000066,113.11528200000066,113.11528200000066,113.11528200000066,113.11528200000066,006,P003,2025_Jan_18_1153,ConditionRich,2021.2.3,59.93662301478112,
77.75,78.0,41,0.0,Stimuli/Blank.png,0,0,0.0,0,148,148,148,,,,,,,,,,,,,77.76803149999978,0.018031499999779044,5,0.19290559999899415,113.88261840000087,113.88261840000087,113.88261840000087,113.88261840000087,113.88261840000087,113.88261840000087,113.88261840000087,113.88261840000087,113.88261840000087,113.88261840000087,006,P003,2025_Jan_18_1153,ConditionRich,2021.2.3,59.93662301478112,
78.0,78.75,27,0.75,Stimuli/P003/things_llama_02s.jpg,0,0,0.0,0,149,149,149,,,,,,,,,,,,,78.0169263000007,0.01692630000070494,None,,114.11616590000085,114.11616590000085,114.11616590000085,114.11616590000085,114.11616590000085,114.11616590000085,114.11616590000085,114.11616590000085,114.11616590000085,114.11616590000085,006,P003,2025_Jan_18_1153,ConditionRich,2021.2.3,59.93662301478112,
78.75,79.0,41,0.0,Stimuli/Blank.png,0,0,0.0,0,150,150,150,,,,,,,,,,,,,78.75224689999959,0.0022468999995908234,None,,114.85014349999983,114.85014349999983,114.85014349999983,114.85014349999983,114.85014349999983,114.85014349999983,114.85014349999983,114.85014349999983,114.85014349999983,114.85014349999983,006,P003,2025_Jan_18_1153,ConditionRich,2021.2.3,59.93662301478112,
79.0,79.75,27,0.75,Stimuli/P003/things_llama_02s.jpg,0,0,0.0,0,151,151,151,,,,,,,,,,,,,79.00101419999919,0.0010141999991901685,None,,115.10036799999943,115.10036799999943,115.10036799999943,115.10036799999943,115.10036799999943,115.10036799999943,115.10036799999943,115.10036799999943,115.10036799999943,115.10036799999943,006,P003,2025_Jan_18_1153,ConditionRich,2021.2.3,59.93662301478112,
79.75,80.0,41,0.0,Stimuli/Blank.png,0,0,0.0,0,152,152,152,,,,,,,,,,,,,79.7518555000006,0.0018555000006017508,None,,115.85101980000036,115.85101980000036,115.85101980000036,115.85101980000036,115.85101980000036,115.85101980000036,115.85101980000036,115.85101980000036,115.85101980000036,115.85101980000036,006,P003,2025_Jan_18_1153,ConditionRich,2021.2.3,59.93662301478112,
80.0,80.75,2,0.75,Stimuli/P003/sun_afijjzyziczoqdhz.jpg,0,0,0.0,0,153,153,153,,,,,,,,,,,,,80.0020870999997,0.002087099999698694,None,,116.10124349999933,116.10124349999933,116.10124349999933,116.10124349999933,116.10124349999933,116.10124349999933,116.10124349999933,116.10124349999933,116.10124349999933,116.10124349999933,006,P003,2025_Jan_18_1153,ConditionRich,2021.2.3,59.93662301478112,
80.75,81.0,41,0.0,Stimuli/Blank.png,0,0,0.0,0,154,154,154,,,,,,,,,,,,,80.75303390000045,0.0030339000004460104,None,,116.85190060000059,116.85190060000059,116.85190060000059,116.85190060000059,116.85190060000059,116.85190060000059,116.85190060000059,116.85190060000059,116.85190060000059,116.85190060000059,006,P003,2025_Jan_18_1153,ConditionRich,2021.2.3,59.93662301478112,
81.0,81.75,2,0.75,Stimuli/P003/sun_afijjzyziczoqdhz.jpg,0,0,0.0,0,155,155,155,,,,,,,,,,,,,81.00352770000063,0.0035277000006317394,None,,117.1188160999991,117.1188160999991,117.1188160999991,117.1188160999991,117.1188160999991,117.1188160999991,117.1188160999991,117.1188160999991,117.1188160999991,117.1188160999991,006,P003,2025_Jan_18_1153,ConditionRich,2021.2.3,59.93662301478112,
81.75,82.0,41,0.0,Stimuli/Blank.png,0,0,0.0,0,156,156,156,,,,,,,,,,,,,81.77094679999936,0.020946799999364885,None,,117.86946840000019,117.86946840000019,117.86946840000019,117.86946840000019,117.86946840000019,117.86946840000019,117.86946840000019,117.86946840000019,117.86946840000019,117.86946840000019,006,P003,2025_Jan_18_1153,ConditionRich,2021.2.3,59.93662301478112,
82.0,82.75,2,0.75,Stimuli/P003/sun_afijjzyziczoqdhz.jpg,0,0,0.0,0,157,157,157,,,,,,,,,,,,,82.00376289999986,0.0037628999998560175,None,,118.10299990000021,118.10299990000021,118.10299990000021,118.10299990000021,118.10299990000021,118.10299990000021,118.10299990000021,118.10299990000021,118.10299990000021,118.10299990000021,006,P003,2025_Jan_18_1153,ConditionRich,2021.2.3,59.93662301478112,
82.75,83.0,41,0.0,Stimuli/Blank.png,0,0,0.0,0,158,158,158,,,,,,,,,,,,,82.75670349999928,0.006703499999275664,None,,118.87035069999911,118.87035069999911,118.87035069999911,118.87035069999911,118.87035069999911,118.87035069999911,118.87035069999911,118.87035069999911,118.87035069999911,118.87035069999911,006,P003,2025_Jan_18_1153,ConditionRich,2021.2.3,59.93662301478112,
83.0,83.75,2,0.75,Stimuli/P003/sun_afijjzyziczoqdhz.jpg,1,0,0.75,0,159,159,159,,,,,,,,,,,,,83.02207930000077,0.022079300000768853,1,0.45092250000016065,119.12057420000019,119.12057420000019,119.12057420000019,119.12057420000019,119.12057420000019,119.12057420000019,119.12057420000019,None,119.12057420000019,119.12057420000019,006,P003,2025_Jan_18_1153,ConditionRich,2021.2.3,59.93662301478112,
83.75,84.0,41,0.0,Stimuli/Blank.png,0,0,0.0,0,160,160,160,,,,,,,,,,,,,83.75598060000084,0.005980600000839331,None,,119.85454729999947,119.85454729999947,119.85454729999947,119.85454729999947,119.85454729999947,119.85454729999947,119.85454729999947,119.85454729999947,119.85454729999947,119.85454729999947,006,P003,2025_Jan_18_1153,ConditionRich,2021.2.3,59.93662301478112,
84.0,100.0,0,0.0,Stimuli/Blank.png,1,12,12.75,0,161,161,161,,,,,,,,,,,,,84.00680479999937,0.006804799999372335,5,13.970887200001016,120.10477069999979,120.10477069999979,120.10477069999979,120.10477069999979,120.10477069999979,120.10477069999979,132.0986527999994,132.84930610000083,120.10477069999979,120.10477069999979,006,P003,2025_Jan_18_1153,ConditionRich,2021.2.3,59.93662301478112,
100.0,100.75,1,0.75,Stimuli/P003/sun_adgmtzznutwlescq.jpg,0,0,0.0,0,162,162,162,,,,,,,,,,,,,100.00351679999949,0.003516799999488285,None,,136.11889259999953,136.11889259999953,136.11889259999953,136.11889259999953,136.11889259999953,136.11889259999953,136.11889259999953,136.11889259999953,136.11889259999953,136.11889259999953,006,P003,2025_Jan_18_1153,ConditionRich,2021.2.3,59.93662301478112,
100.75,101.0,41,0.0,Stimuli/Blank.png,0,0,0.0,0,163,163,163,,,,,,,,,,,,,100.77040619999934,0.02040619999934279,None,,136.8695845000002,136.8695845000002,136.8695845000002,136.8695845000002,136.8695845000002,136.8695845000002,136.8695845000002,136.8695845000002,136.8695845000002,136.8695845000002,006,P003,2025_Jan_18_1153,ConditionRich,2021.2.3,59.93662301478112,
101.0,101.75,1,0.75,Stimuli/P003/sun_adgmtzznutwlescq.jpg,0,0,0.0,0,164,164,164,,,,,,,,,,,,,101.00405399999909,0.004053999999086955,None,,137.10306029999992,137.10306029999992,137.10306029999992,137.10306029999992,137.10306029999992,137.10306029999992,137.10306029999992,137.10306029999992,137.10306029999992,137.10306029999992,006,P003,2025_Jan_18_1153,ConditionRich,2021.2.3,59.93662301478112,
101.75,102.0,41,0.0,Stimuli/Blank.png,0,0,0.0,0,165,165,165,,,,,,,,,,,,,101.75667439999961,0.006674399999610614,5,0.2050918000004458,137.87041449999924,137.87041449999924,137.87041449999924,137.87041449999924,137.87041449999924,137.87041449999924,137.87041449999924,137.87041449999924,137.87041449999924,137.87041449999924,006,P003,2025_Jan_18_1153,ConditionRich,2021.2.3,59.93662301478112,
102.0,102.75,1,0.75,Stimuli/P003/sun_adgmtzznutwlescq.jpg,0,0,0.0,0,166,166,166,,,,,,,,,,,,,102.02197279999928,0.021972799999275594,None,,138.12062630000037,138.12062630000037,138.12062630000037,138.12062630000037,138.12062630000037,138.12062630000037,138.12062630000037,138.12062630000037,138.12062630000037,138.12062630000037,006,P003,2025_Jan_18_1153,ConditionRich,2021.2.3,59.93662301478112,
102.75,103.0,41,0.0,Stimuli/Blank.png,0,0,0.0,0,167,167,167,,,,,,,,,,,,,102.75585420000061,0.005854200000612764,None,,138.8546122000007,138.8546122000007,138.8546122000007,138.8546122000007,138.8546122000007,138.8546122000007,138.8546122000007,138.8546122000007,138.8546122000007,138.8546122000007,006,P003,2025_Jan_18_1153,ConditionRich,2021.2.3,59.93662301478112,
103.0,103.75,1,0.75,Stimuli/P003/sun_adgmtzznutwlescq.jpg,0,0,0.0,0,168,168,168,,,,,,,,,,,,,103.00619689999985,0.0061968999998498475,None,,139.104824,139.104824,139.104824,139.104824,139.104824,139.104824,139.104824,139.104824,139.104824,139.104824,006,P003,2025_Jan_18_1153,ConditionRich,2021.2.3,59.93662301478112,
103.75,104.0,41,0.0,Stimuli/Blank.png,0,0,0.0,0,169,169,169,,,,,,,,,,,,,103.75705109999944,0.007051099999443977,None,,139.85550650000005,139.85550650000005,139.85550650000005,139.85550650000005,139.85550650000005,139.85550650000005,139.85550650000005,139.85550650000005,139.85550650000005,139.85550650000005,006,P003,2025_Jan_18_1153,ConditionRich,2021.2.3,59.93662301478112,
104.0,104.75,3,0.75,Stimuli/P003/sun_afqjzrocqhabifao.jpg,0,0,0.0,0,170,170,170,,,,,,,,,,,,,104.00716810000085,0.007168100000853883,None,,140.1223962999993,140.1223962999993,140.1223962999993,140.1223962999993,140.1223962999993,140.1223962999993,140.1223962999993,140.1223962999993,140.1223962999993,140.1223962999993,006,P003,2025_Jan_18_1153,ConditionRich,2021.2.3,59.93662301478112,
104.75,105.0,41,0.0,Stimuli/Blank.png,0,0,0.0,0,171,171,171,,,,,,,,,,,,,104.77656299999944,0.026562999999441672,None,,140.88973409999926,140.88973409999926,140.88973409999926,140.88973409999926,140.88973409999926,140.88973409999926,140.88973409999926,140.88973409999926,140.88973409999926,140.88973409999926,006,P003,2025_Jan_18_1153,ConditionRich,2021.2.3,59.93662301478112,
105.0,105.75,3,0.75,Stimuli/P003/sun_afqjzrocqhabifao.jpg,0,0,0.0,0,172,172,172,,,,,,,,,,,,,105.02394819999972,0.02394819999972242,None,,141.1399653999997,141.1399653999997,141.1399653999997,141.1399653999997,141.1399653999997,141.1399653999997,141.1399653999997,141.1399653999997,141.1399653999997,141.1399653999997,006,P003,2025_Jan_18_1153,ConditionRich,2021.2.3,59.93662301478112,
105.75,106.0,41,0.0,Stimuli/Blank.png,0,0,0.0,0,173,173,173,,,,,,,,,,,,,105.77508710000075,0.025087100000746432,5,0.2015198999997665,141.87397070000043,141.87397070000043,141.87397070000043,141.87397070000043,141.87397070000043,141.87397070000043,141.87397070000043,141.87397070000043,141.87397070000043,141.87397070000043,006,P003,2025_Jan_18_1153,ConditionRich,2021.2.3,59.93662301478112,
106.0,106.75,3,0.75,Stimuli/P003/sun_afqjzrocqhabifao.jpg,0,0,0.0,0,174,174,174,,,,,,,,,,,,,106.00898190000044,0.008981900000435417,None,,142.10745599999973,142.10745599999973,142.10745599999973,142.10745599999973,142.10745599999973,142.10745599999973,142.10745599999973,142.10745599999973,142.10745599999973,142.10745599999973,006,P003,2025_Jan_18_1153,ConditionRich,2021.2.3,59.93662301478112,
106.75,107.0,41,0.0,Stimuli/Blank.png,0,0,0.0,0,175,175,175,,,,,,,,,,,,,106.75892179999937,0.008921799999370705,None,,142.8581247000002,142.8581247000002,142.8581247000002,142.8581247000002,142.8581247000002,142.8581247000002,142.8581247000002,142.8581247000002,142.8581247000002,142.8581247000002,006,P003,2025_Jan_18_1153,ConditionRich,2021.2.3,59.93662301478112,
107.0,107.75,3,0.75,Stimuli/P003/sun_afqjzrocqhabifao.jpg,0,0,0.0,0,176,176,176,,,,,,,,,,,,,107.01119730000028,0.0111973000002763,None,,143.12502529999983,143.12502529999983,143.12502529999983,143.12502529999983,143.12502529999983,143.12502529999983,143.12502529999983,143.12502529999983,143.12502529999983,143.12502529999983,006,P003,2025_Jan_18_1153,ConditionRich,2021.2.3,59.93662301478112,
107.75,108.0,41,0.0,Stimuli/Blank.png,0,0,0.0,0,177,177,177,,,,,,,,,,,,,107.77771890000076,0.027718900000763824,5,0.2007049999992887,143.87569169999915,143.87569169999915,143.87569169999915,143.87569169999915,143.87569169999915,143.87569169999915,143.87569169999915,143.87569169999915,143.87569169999915,143.87569169999915,006,P003,2025_Jan_18_1153,ConditionRich,2021.2.3,59.93662301478112,
108.0,108.75,9,0.75,Stimuli/P003/sun_auqtrqkaobyprnjy.jpg,0,0,0.0,0,178,178,178,,,,,,,,,,,,,108.00992679999945,0.009926799999448122,None,,144.10921690000032,144.10921690000032,144.10921690000032,144.10921690000032,144.10921690000032,144.10921690000032,144.10921690000032,144.10921690000032,144.10921690000032,144.10921690000032,006,P003,2025_Jan_18_1153,ConditionRich,2021.2.3,59.93662301478112,
108.75,109.0,41,0.0,Stimuli/Blank.png,0,0,0.0,0,179,179,179,,,,,,,,,,,,,108.76083619999918,0.010836199999175733,None,,144.85988560000078,144.85988560000078,144.85988560000078,144.85988560000078,144.85988560000078,144.85988560000078,144.85988560000078,144.85988560000078,144.85988560000078,144.85988560000078,006,P003,2025_Jan_18_1153,ConditionRich,2021.2.3,59.93662301478112,
109.0,109.75,9,0.75,Stimuli/P003/sun_auqtrqkaobyprnjy.jpg,0,0,0.0,0,180,180,180,,,,,,,,,,,,,109.01171989999966,0.01171989999966172,None,,145.11010969999916,145.11010969999916,145.11010969999916,145.11010969999916,145.11010969999916,145.11010969999916,145.11010969999916,145.11010969999916,145.11010969999916,145.11010969999916,006,P003,2025_Jan_18_1153,ConditionRich,2021.2.3,59.93662301478112,
109.75,110.0,41,0.0,Stimuli/Blank.png,0,0,0.0,0,181,181,181,,,,,,,,,,,,,109.76228230000015,0.012282300000151736,5,0.21480979999978445,145.86076110000067,145.86076110000067,145.86076110000067,145.86076110000067,145.86076110000067,145.86076110000067,145.86076110000067,145.86076110000067,145.86076110000067,145.86076110000067,006,P003,2025_Jan_18_1153,ConditionRich,2021.2.3,59.93662301478112,
110.0,110.75,9,0.75,Stimuli/P003/sun_auqtrqkaobyprnjy.jpg,0,0,0.0,0,182,182,182,,,,,,,,,,,,,110.01251989999946,0.012519899999460904,None,,146.11098049999964,146.11098049999964,146.11098049999964,146.11098049999964,146.11098049999964,146.11098049999964,146.11098049999964,146.11098049999964,146.11098049999964,146.11098049999964,006,P003,2025_Jan_18_1153,ConditionRich,2021.2.3,59.93662301478112,
110.75,111.0,41,0.0,Stimuli/Blank.png,0,0,0.0,0,183,183,183,,,,,,,,,,,,,110.76270569999906,0.012705699999060016,None,,146.86164850000023,146.86164850000023,146.86164850000023,146.86164850000023,146.86164850000023,146.86164850000023,146.86164850000023,146.86164850000023,146.86164850000023,146.86164850000023,006,P003,2025_Jan_18_1153,ConditionRich,2021.2.3,59.93662301478112,
111.0,111.75,9,0.75,Stimuli/P003/sun_auqtrqkaobyprnjy.jpg,0,0,0.0,0,184,184,184,,,,,,,,,,,,,111.0128096999997,0.012809699999706936,None,,147.11185920000025,147.11185920000025,147.11185920000025,147.11185920000025,147.11185920000025,147.11185920000025,147.11185920000025,147.11185920000025,147.11185920000025,147.11185920000025,006,P003,2025_Jan_18_1153,ConditionRich,2021.2.3,59.93662301478112,
111.75,112.0,41,0.0,Stimuli/Blank.png,0,0,0.0,0,185,185,185,,,,,,,,,,,,,111.76389559999916,0.013895599999159458,5,0.21292370000082883,147.86252649999915,147.86252649999915,147.86252649999915,147.86252649999915,147.86252649999915,147.86252649999915,147.86252649999915,147.86252649999915,147.86252649999915,147.86252649999915,006,P003,2025_Jan_18_1153,ConditionRich,2021.2.3,59.93662301478112,
112.0,112.75,22,0.75,Stimuli/P003/things_boy_02s.jpg,0,0,0.0,0,186,186,186,,,,,,,,,,,,,112.01389720000043,0.013897200000428711,None,,148.11274389999926,148.11274389999926,148.11274389999926,148.11274389999926,148.11274389999926,148.11274389999926,148.11274389999926,148.11274389999926,148.11274389999926,148.11274389999926,006,P003,2025_Jan_18_1153,ConditionRich,2021.2.3,59.93662301478112,
112.75,113.0,41,0.0,Stimuli/Blank.png,0,0,0.0,0,187,187,187,,,,,,,,,,,,,112.76537819999976,0.01537819999975909,None,,148.86341829999947,148.86341829999947,148.86341829999947,148.86341829999947,148.86341829999947,148.86341829999947,148.86341829999947,148.86341829999947,148.86341829999947,148.86341829999947,006,P003,2025_Jan_18_1153,ConditionRich,2021.2.3,59.93662301478112,
113.0,113.75,22,0.75,Stimuli/P003/things_boy_02s.jpg,0,0,0.0,0,188,188,188,,,,,,,,,,,,,113.01509199999964,0.015091999999640393,None,,149.11362419999932,149.11362419999932,149.11362419999932,149.11362419999932,149.11362419999932,149.11362419999932,149.11362419999932,149.11362419999932,149.11362419999932,149.11362419999932,006,P003,2025_Jan_18_1153,ConditionRich,2021.2.3,59.93662301478112,
113.75,114.0,41,0.0,Stimuli/Blank.png,0,0,0.0,0,189,189,189,,,,,,,,,,,,,113.75116329999946,0.0011632999994617421,5,0.2122815000002447,149.86431620000076,149.86431620000076,149.86431620000076,149.86431620000076,149.86431620000076,149.86431620000076,149.86431620000076,149.86431620000076,149.86431620000076,149.86431620000076,006,P003,2025_Jan_18_1153,ConditionRich,2021.2.3,59.93662301478112,
114.0,114.75,22,0.75,Stimuli/P003/things_boy_02s.jpg,0,0,0.0,0,190,190,190,,,,,,,,,,,,,114.01556390000042,0.015563900000415742,None,,150.11450530000002,150.11450530000002,150.11450530000002,150.11450530000002,150.11450530000002,150.11450530000002,150.11450530000002,150.11450530000002,150.11450530000002,150.11450530000002,006,P003,2025_Jan_18_1153,ConditionRich,2021.2.3,59.93662301478112,
114.75,115.0,41,0.0,Stimuli/Blank.png,0,0,0.0,0,191,191,191,,,,,,,,,,,,,114.75171339999906,0.0017133999990619486,None,,150.86517819999972,150.86517819999972,150.86517819999972,150.86517819999972,150.86517819999972,150.86517819999972,150.86517819999972,150.86517819999972,150.86517819999972,150.86517819999972,006,P003,2025_Jan_18_1153,ConditionRich,2021.2.3,59.93662301478112,
115.0,115.75,22,0.75,Stimuli/P003/things_boy_02s.jpg,0,0,0.0,0,192,192,192,,,,,,,,,,,,,115.01599879999958,0.015998799999579205,None,,151.1154248999992,151.1154248999992,151.1154248999992,151.1154248999992,151.1154248999992,151.1154248999992,151.1154248999992,151.1154248999992,151.1154248999992,151.1154248999992,006,P003,2025_Jan_18_1153,ConditionRich,2021.2.3,59.93662301478112,
115.75,116.0,41,0.0,Stimuli/Blank.png,0,0,0.0,0,193,193,193,,,,,,,,,,,,,115.75104699999974,0.0010469999997440027,None,,151.84938580000016,151.84938580000016,151.84938580000016,151.84938580000016,151.84938580000016,151.84938580000016,151.84938580000016,151.84938580000016,151.84938580000016,151.84938580000016,006,P003,2025_Jan_18_1153,ConditionRich,2021.2.3,59.93662301478112,
116.0,116.75,32,0.75,Stimuli/P003/things_pulley_02s.jpg,0,0,0.0,0,194,194,194,,,,,,,,,,,,,116.00097350000033,0.0009735000003274763,None,,152.09958480000023,152.09958480000023,152.09958480000023,152.09958480000023,152.09958480000023,152.09958480000023,152.09958480000023,152.09958480000023,152.09958480000023,152.09958480000023,006,P003,2025_Jan_18_1153,ConditionRich,2021.2.3,59.93662301478112,
116.75,117.0,41,0.0,Stimuli/Blank.png,0,0,0.0,0,195,195,195,,,,,,,,,,,,,116.75087309999981,0.0008730999998078914,None,,152.85023179999916,152.85023179999916,152.85023179999916,152.85023179999916,152.85023179999916,152.85023179999916,152.85023179999916,152.85023179999916,152.85023179999916,152.85023179999916,006,P003,2025_Jan_18_1153,ConditionRich,2021.2.3,59.93662301478112,
117.0,117.75,32,0.75,Stimuli/P003/things_pulley_02s.jpg,0,0,0.0,0,196,196,196,,,,,,,,,,,,,117.00175080000008,0.0017508000000816537,None,,153.11715089999961,153.11715089999961,153.11715089999961,153.11715089999961,153.11715089999961,153.11715089999961,153.11715089999961,153.11715089999961,153.11715089999961,153.11715089999961,006,P003,2025_Jan_18_1153,ConditionRich,2021.2.3,59.93662301478112,
117.75,118.0,41,0.0,Stimuli/Blank.png,0,0,0.0,0,197,197,197,,,,,,,,,,,,,117.76970520000032,0.019705200000316836,None,,153.86783289999948,153.86783289999948,153.86783289999948,153.86783289999948,153.86783289999948,153.86783289999948,153.86783289999948,153.86783289999948,153.86783289999948,153.86783289999948,006,P003,2025_Jan_18_1153,ConditionRich,2021.2.3,59.93662301478112,
118.0,118.75,32,0.75,Stimuli/P003/things_pulley_02s.jpg,0,0,0.0,0,198,198,198,,,,,,,,,,,,,118.0025286,0.002528600000005099,None,,154.1013466000004,154.1013466000004,154.1013466000004,154.1013466000004,154.1013466000004,154.1013466000004,154.1013466000004,154.1013466000004,154.1013466000004,154.1013466000004,006,P003,2025_Jan_18_1153,ConditionRich,2021.2.3,59.93662301478112,
118.75,119.0,41,0.0,Stimuli/Blank.png,0,0,0.0,0,199,199,199,,,,,,,,,,,,,118.75353709999945,0.003537099999448401,None,,154.8520064000004,154.8520064000004,154.8520064000004,154.8520064000004,154.8520064000004,154.8520064000004,154.8520064000004,154.8520064000004,154.8520064000004,154.8520064000004,006,P003,2025_Jan_18_1153,ConditionRich,2021.2.3,59.93662301478112,
119.0,119.75,32,0.75,Stimuli/P003/things_pulley_02s.jpg,0,0,0.0,0,200,200,200,,,,,,,,,,,,,119.00364049999916,0.0036404999991646037,None,,155.11891990000004,155.11891990000004,155.11891990000004,155.11891990000004,155.11891990000004,155.11891990000004,155.11891990000004,155.11891990000004,155.11891990000004,155.11891990000004,006,P003,2025_Jan_18_1153,ConditionRich,2021.2.3,59.93662301478112,
119.75,120.0,41,0.0,Stimuli/Blank.png,0,0,0.0,0,201,201,201,,,,,,,,,,,,,119.77123329999995,0.02123329999994894,None,,155.86957860000075,155.86957860000075,155.86957860000075,155.86957860000075,155.86957860000075,155.86957860000075,155.86957860000075,155.86957860000075,155.86957860000075,155.86957860000075,006,P003,2025_Jan_18_1153,ConditionRich,2021.2.3,59.93662301478112,
120.0,120.75,26,0.75,Stimuli/P003/things_ham_02s.jpg,0,0,0.0,0,202,202,202,,,,,,,,,,,,,120.00409360000049,0.0040936000004876405,None,,156.10311489999913,156.10311489999913,156.10311489999913,156.10311489999913,156.10311489999913,156.10311489999913,156.10311489999913,156.10311489999913,156.10311489999913,156.10311489999913,006,P003,2025_Jan_18_1153,ConditionRich,2021.2.3,59.93662301478112,
120.75,121.0,41,0.0,Stimuli/Blank.png,0,0,0.0,0,203,203,203,,,,,,,,,,,,,120.75501389999954,0.005013899999539717,None,,156.85382030000073,156.85382030000073,156.85382030000073,156.85382030000073,156.85382030000073,156.85382030000073,156.85382030000073,156.85382030000073,156.85382030000073,156.85382030000073,006,P003,2025_Jan_18_1153,ConditionRich,2021.2.3,59.93662301478112,
121.0,121.75,26,0.75,Stimuli/P003/things_ham_02s.jpg,0,0,0.0,0,204,204,204,,,,,,,,,,,,,121.00568349999958,0.0056834999995771796,None,,157.10399590000088,157.10399590000088,157.10399590000088,157.10399590000088,157.10399590000088,157.10399590000088,157.10399590000088,157.10399590000088,157.10399590000088,157.10399590000088,006,P003,2025_Jan_18_1153,ConditionRich,2021.2.3,59.93662301478112,
121.75,122.0,41,0.0,Stimuli/Blank.png,0,0,0.0,0,205,205,205,,,,,,,,,,,,,121.75598200000059,0.0059820000005856855,None,,157.8547553999997,157.8547553999997,157.8547553999997,157.8547553999997,157.8547553999997,157.8547553999997,157.8547553999997,157.8547553999997,157.8547553999997,157.8547553999997,006,P003,2025_Jan_18_1153,ConditionRich,2021.2.3,59.93662301478112,
122.0,122.75,26,0.75,Stimuli/P003/things_ham_02s.jpg,0,0,0.0,0,206,206,206,,,,,,,,,,,,,122.00611190000018,0.006111900000178139,None,,158.1048778000004,158.1048778000004,158.1048778000004,158.1048778000004,158.1048778000004,158.1048778000004,158.1048778000004,158.1048778000004,158.1048778000004,158.1048778000004,006,P003,2025_Jan_18_1153,ConditionRich,2021.2.3,59.93662301478112,
122.75,123.0,41,0.0,Stimuli/Blank.png,0,0,0.0,0,207,207,207,,,,,,,,,,,,,122.7567880000006,0.006788000000597094,None,,158.85553029999937,158.85553029999937,158.85553029999937,158.85553029999937,158.85553029999937,158.85553029999937,158.85553029999937,158.85553029999937,158.85553029999937,158.85553029999937,006,P003,2025_Jan_18_1153,ConditionRich,2021.2.3,59.93662301478112,
123.0,123.75,26,0.75,Stimuli/P003/things_ham_02s.jpg,0,0,0.0,0,208,208,208,,,,,,,,,,,,,123.0079612999998,0.007961299999806215,None,,159.12243090000084,159.12243090000084,159.12243090000084,159.12243090000084,159.12243090000084,159.12243090000084,159.12243090000084,159.12243090000084,159.12243090000084,159.12243090000084,006,P003,2025_Jan_18_1153,ConditionRich,2021.2.3,59.93662301478112,
123.75,124.0,41,0.0,Stimuli/Blank.png,0,0,0.0,0,209,209,209,,,,,,,,,,,,,123.77528600000005,0.02528600000005099,None,,159.87310629999956,159.87310629999956,159.87310629999956,159.87310629999956,159.87310629999956,159.87310629999956,159.87310629999956,159.87310629999956,159.87310629999956,159.87310629999956,006,P003,2025_Jan_18_1153,ConditionRich,2021.2.3,59.93662301478112,
124.0,124.75,34,0.75,Stimuli/P003/things_roll_02s.jpg,0,0,0.0,0,210,210,210,,,,,,,,,,,,,124.00802180000028,0.008021800000278745,None,,160.10663139999997,160.10663139999997,160.10663139999997,160.10663139999997,160.10663139999997,160.10663139999997,160.10663139999997,160.10663139999997,160.10663139999997,160.10663139999997,006,P003,2025_Jan_18_1153,ConditionRich,2021.2.3,59.93662301478112,
124.75,125.0,41,0.0,Stimuli/Blank.png,0,0,0.0,0,211,211,211,,,,,,,,,,,,,124.7588410999997,0.008841099999699509,None,,160.85730650000005,160.85730650000005,160.85730650000005,160.85730650000005,160.85730650000005,160.85730650000005,160.85730650000005,160.85730650000005,160.85730650000005,160.85730650000005,006,P003,2025_Jan_18_1153,ConditionRich,2021.2.3,59.93662301478112,
125.0,125.75,34,0.75,Stimuli/P003/things_roll_02s.jpg,1,0,0.75,0,212,212,212,,,,,,,,,,,,,125.00842200000079,0.00842200000079174,1,0.5931431999997585,161.12420139999995,161.12420139999995,161.12420139999995,161.12420139999995,161.12420139999995,161.12420139999995,161.12420139999995,161.84156020000046,161.12420139999995,161.12420139999995,006,P003,2025_Jan_18_1153,ConditionRich,2021.2.3,59.93662301478112,
125.75,126.0,41,0.0,Stimuli/Blank.png,0,0,0.0,0,213,213,213,,,,,,,,,,,,,125.7771417999993,0.02714179999929911,5,0.2015240000000631,161.8748613000007,161.8748613000007,161.8748613000007,161.8748613000007,161.8748613000007,161.8748613000007,161.8748613000007,161.8748613000007,161.8748613000007,161.8748613000007,006,P003,2025_Jan_18_1153,ConditionRich,2021.2.3,59.93662301478112,
126.0,126.75,34,0.75,Stimuli/P003/things_roll_02s.jpg,0,0,0.0,0,214,214,214,,,,,,,,,,,,,126.01006570000027,0.010065700000268407,None,,162.10839329999908,162.10839329999908,162.10839329999908,162.10839329999908,162.10839329999908,162.10839329999908,162.10839329999908,162.10839329999908,162.10839329999908,162.10839329999908,006,P003,2025_Jan_18_1153,ConditionRich,2021.2.3,59.93662301478112,
126.75,127.0,41,0.0,Stimuli/Blank.png,0,0,0.0,0,215,215,215,,,,,,,,,,,,,126.76006179999968,0.010061799999675713,None,,162.85905160000038,162.85905160000038,162.85905160000038,162.85905160000038,162.85905160000038,162.85905160000038,162.85905160000038,162.85905160000038,162.85905160000038,162.85905160000038,006,P003,2025_Jan_18_1153,ConditionRich,2021.2.3,59.93662301478112,
127.0,127.75,34,0.75,Stimuli/P003/things_roll_02s.jpg,0,0,0.0,0,216,216,216,,,,,,,,,,,,,127.01095410000016,0.010954100000162725,None,,163.1092783999993,163.1092783999993,163.1092783999993,163.1092783999993,163.1092783999993,163.1092783999993,163.1092783999993,163.1092783999993,163.1092783999993,163.1092783999993,006,P003,2025_Jan_18_1153,ConditionRich,2021.2.3,59.93662301478112,
127.75,128.0,41,0.0,Stimuli/Blank.png,0,0,0.0,0,217,217,217,,,,,,,,,,,,,127.76193090000015,0.011930900000152178,5,0.2165588999996544,163.85994860000028,163.85994860000028,163.85994860000028,163.85994860000028,163.85994860000028,163.85994860000028,163.85994860000028,163.85994860000028,163.85994860000028,163.85994860000028,006,P003,2025_Jan_18_1153,ConditionRich,2021.2.3,59.93662301478112,
128.0,128.75,7,0.75,Stimuli/P003/sun_asgixjtedklbawgm.jpg,0,0,0.0,0,218,218,218,,,,,,,,,,,,,128.01178249999975,0.011782499999753782,None,,164.11015829999997,164.11015829999997,164.11015829999997,164.11015829999997,164.11015829999997,164.11015829999997,164.11015829999997,164.11015829999997,164.11015829999997,164.11015829999997,006,P003,2025_Jan_18_1153,ConditionRich,2021.2.3,59.93662301478112,
128.75,129.0,41,0.0,Stimuli/Blank.png,0,0,0.0,0,219,219,219,,,,,,,,,,,,,128.76239589999932,0.012395899999319226,None,,164.8608167000002,164.8608167000002,164.8608167000002,164.8608167000002,164.8608167000002,164.8608167000002,164.8608167000002,164.8608167000002,164.8608167000002,164.8608167000002,006,P003,2025_Jan_18_1153,ConditionRich,2021.2.3,59.93662301478112,
129.0,129.75,7,0.75,Stimuli/P003/sun_asgixjtedklbawgm.jpg,0,0,0.0,0,220,220,220,,,,,,,,,,,,,129.01272040000003,0.012720400000034715,None,,165.11103750000075,165.11103750000075,165.11103750000075,165.11103750000075,165.11103750000075,165.11103750000075,165.11103750000075,165.11103750000075,165.11103750000075,165.11103750000075,006,P003,2025_Jan_18_1153,ConditionRich,2021.2.3,59.93662301478112,
129.75,130.0,41,0.0,Stimuli/Blank.png,0,0,0.0,0,221,221,221,,,,,,,,,,,,,129.76272769999923,0.012727699999231845,5,0.21472689999973227,165.8617037999993,165.8617037999993,165.8617037999993,165.8617037999993,165.8617037999993,165.8617037999993,165.8617037999993,165.8617037999993,165.8617037999993,165.8617037999993,006,P003,2025_Jan_18_1153,ConditionRich,2021.2.3,59.93662301478112,
130.0,130.75,7,0.75,Stimuli/P003/sun_asgixjtedklbawgm.jpg,0,0,0.0,0,222,222,222,,,,,,,,,,,,,130.01288100000056,0.012881000000561471,None,,166.11191619999954,166.11191619999954,166.11191619999954,166.11191619999954,166.11191619999954,166.11191619999954,166.11191619999954,166.11191619999954,166.11191619999954,166.11191619999954,006,P003,2025_Jan_18_1153,ConditionRich,2021.2.3,59.93662301478112,
130.75,131.0,41,0.0,Stimuli/Blank.png,0,0,0.0,0,223,223,223,,,,,,,,,,,,,130.7639868999995,0.01398689999950875,None,,166.86257900000055,166.86257900000055,166.86257900000055,166.86257900000055,166.86257900000055,166.86257900000055,166.86257900000055,166.86257900000055,166.86257900000055,166.86257900000055,006,P003,2025_Jan_18_1153,ConditionRich,2021.2.3,59.93662301478112,
131.0,131.75,7,0.75,Stimuli/P003/sun_asgixjtedklbawgm.jpg,0,0,0.0,0,224,224,224,,,,,,,,,,,,,131.01646660000006,0.01646660000005795,None,,167.1294784999991,167.1294784999991,167.1294784999991,167.1294784999991,167.1294784999991,167.1294784999991,167.1294784999991,167.1294784999991,167.1294784999991,167.1294784999991,006,P003,2025_Jan_18_1153,ConditionRich,2021.2.3,59.93662301478112,
131.75,132.0,41,0.0,Stimuli/Blank.png,0,0,0.0,0,225,225,225,,,,,,,,,,,,,131.7652863000003,0.01528630000029807,5,0.21293530000002647,167.8634676999991,167.8634676999991,167.8634676999991,167.8634676999991,167.8634676999991,167.8634676999991,167.8634676999991,167.8634676999991,167.8634676999991,167.8634676999991,006,P003,2025_Jan_18_1153,ConditionRich,2021.2.3,59.93662301478112,
132.0,132.75,16,0.75,Stimuli/P003/sun_bjuoemgleyaogrmw.jpg,0,0,0.0,0,226,226,226,,,,,,,,,,,,,132.01504770000065,0.015047700000650366,None,,168.11368240000047,168.11368240000047,168.11368240000047,168.11368240000047,168.11368240000047,168.11368240000047,168.11368240000047,168.11368240000047,168.11368240000047,168.11368240000047,006,P003,2025_Jan_18_1153,ConditionRich,2021.2.3,59.93662301478112,
132.75,133.0,41,0.0,Stimuli/Blank.png,0,0,0.0,0,227,227,227,,,,,,,,,,,,,132.7496683999998,-0.0003316000002087094,None,,168.84767629999988,168.84767629999988,168.84767629999988,168.84767629999988,168.84767629999988,168.84767629999988,168.84767629999988,168.84767629999988,168.84767629999988,168.84767629999988,006,P003,2025_Jan_18_1153,ConditionRich,2021.2.3,59.93662301478112,
133.0,133.75,16,0.75,Stimuli/P003/sun_bjuoemgleyaogrmw.jpg,1,0,0.75,0,228,228,228,,,,,,,,,,,,,133.00142889999915,0.0014288999991549645,1,0.5298342999994929,169.11456569999973,169.11456569999973,169.11456569999973,169.11456569999973,169.11456569999973,169.11456569999973,169.11456569999973,169.84856430000036,169.11456569999973,169.11456569999973,006,P003,2025_Jan_18_1153,ConditionRich,2021.2.3,59.93662301478112,
133.75,134.0,41,0.0,Stimuli/Blank.png,0,0,0.0,0,229,229,229,,,,,,,,,,,,,133.76698670000042,0.016986700000416022,None,,169.86522630000036,169.86522630000036,169.86522630000036,169.86522630000036,169.86522630000036,169.86522630000036,169.86522630000036,169.86522630000036,169.86522630000036,169.86522630000036,006,P003,2025_Jan_18_1153,ConditionRich,2021.2.3,59.93662301478112,
134.0,134.75,16,0.75,Stimuli/P003/sun_bjuoemgleyaogrmw.jpg,0,0,0.0,0,230,230,230,,,,,,,,,,,,,133.99991319999936,-8.680000064487103e-05,None,,170.09876179999992,170.09876179999992,170.09876179999992,170.09876179999992,170.09876179999992,170.09876179999992,170.09876179999992,170.09876179999992,170.09876179999992,170.09876179999992,006,P003,2025_Jan_18_1153,ConditionRich,2021.2.3,59.93662301478112,
134.75,135.0,41,0.0,Stimuli/Blank.png,0,0,0.0,0,231,231,231,,,,,,,,,,,,,134.75084649999917,0.0008464999991701916,None,,170.84939959999974,170.84939959999974,170.84939959999974,170.84939959999974,170.84939959999974,170.84939959999974,170.84939959999974,170.84939959999974,170.84939959999974,170.84939959999974,006,P003,2025_Jan_18_1153,ConditionRich,2021.2.3,59.93662301478112,
135.0,135.75,16,0.75,Stimuli/P003/sun_bjuoemgleyaogrmw.jpg,0,0,0.0,0,232,232,232,,,,,,,,,,,,,135.00174189999962,0.0017418999996152706,None,,171.11631879999914,171.11631879999914,171.11631879999914,171.11631879999914,171.11631879999914,171.11631879999914,171.11631879999914,171.11631879999914,171.11631879999914,171.11631879999914,006,P003,2025_Jan_18_1153,ConditionRich,2021.2.3,59.93662301478112,
135.75,136.0,41,0.0,Stimuli/Blank.png,0,0,0.0,0,233,233,233,,,,,,,,,,,,,135.7682561999991,0.018256199999086675,None,,171.86699520000002,171.86699520000002,171.86699520000002,171.86699520000002,171.86699520000002,171.86699520000002,171.86699520000002,171.86699520000002,171.86699520000002,171.86699520000002,006,P003,2025_Jan_18_1153,ConditionRich,2021.2.3,59.93662301478112,
136.0,136.75,20,0.75,Stimuli/P003/sun_bwytihadgigwkyht.jpg,0,0,0.0,0,234,234,234,,,,,,,,,,,,,136.00219540000035,0.002195400000346126,None,,172.1172262,172.1172262,172.1172262,172.1172262,172.1172262,172.1172262,172.1172262,172.1172262,172.1172262,172.1172262,006,P003,2025_Jan_18_1153,ConditionRich,2021.2.3,59.93662301478112,
136.75,137.0,41,0.0,Stimuli/Blank.png,0,0,0.0,0,235,235,235,,,,,,,,,,,,,136.77141859999938,0.021418599999378785,None,,172.88454789999923,172.88454789999923,172.88454789999923,172.88454789999923,172.88454789999923,172.88454789999923,172.88454789999923,172.88454789999923,172.88454789999923,172.88454789999923,006,P003,2025_Jan_18_1153,ConditionRich,2021.2.3,59.93662301478112,
137.0,137.75,20,0.75,Stimuli/P003/sun_bwytihadgigwkyht.jpg,1,0,0.75,0,236,236,236,,,,,,,,,,,,,137.01875090000067,0.01875090000066848,1,0.44244179999986954,173.1180801999999,173.1180801999999,173.1180801999999,173.1180801999999,173.1180801999999,173.1180801999999,173.1180801999999,None,173.1180801999999,173.1180801999999,006,P003,2025_Jan_18_1153,ConditionRich,2021.2.3,59.93662301478112,
137.75,138.0,41,0.0,Stimuli/Blank.png,0,0,0.0,0,237,237,237,,,,,,,,,,,,,137.7528285999997,0.002828599999702419,None,,173.85205959999985,173.85205959999985,173.85205959999985,173.85205959999985,173.85205959999985,173.85205959999985,173.85205959999985,173.85205959999985,173.85205959999985,173.85205959999985,006,P003,2025_Jan_18_1153,ConditionRich,2021.2.3,59.93662301478112,
138.0,138.75,20,0.75,Stimuli/P003/sun_bwytihadgigwkyht.jpg,0,0,0.0,0,238,238,238,,,,,,,,,,,,,138.00305330000083,0.00305330000082904,None,,174.10227959999975,174.10227959999975,174.10227959999975,174.10227959999975,174.10227959999975,174.10227959999975,174.10227959999975,174.10227959999975,174.10227959999975,174.10227959999975,006,P003,2025_Jan_18_1153,ConditionRich,2021.2.3,59.93662301478112,
138.75,139.0,41,0.0,Stimuli/Blank.png,0,0,0.0,0,239,239,239,,,,,,,,,,,,,138.7561253999993,0.006125399999291403,None,,174.86962929999936,174.86962929999936,174.86962929999936,174.86962929999936,174.86962929999936,174.86962929999936,174.86962929999936,174.86962929999936,174.86962929999936,174.86962929999936,006,P003,2025_Jan_18_1153,ConditionRich,2021.2.3,59.93662301478112,
139.0,139.75,20,0.75,Stimuli/P003/sun_bwytihadgigwkyht.jpg,0,0,0.0,0,240,240,240,,,,,,,,,,,,,139.02096580000034,0.020965800000340096,None,,175.11984680000023,175.11984680000023,175.11984680000023,175.11984680000023,175.11984680000023,175.11984680000023,175.11984680000023,175.11984680000023,175.11984680000023,175.11984680000023,006,P003,2025_Jan_18_1153,ConditionRich,2021.2.3,59.93662301478112,
139.75,140.0,41,0.0,Stimuli/Blank.png,0,0,0.0,0,241,241,241,,,,,,,,,,,,,139.75512549999985,0.005125499999849126,None,,175.85404279999966,175.85404279999966,175.85404279999966,175.85404279999966,175.85404279999966,175.85404279999966,175.85404279999966,175.85404279999966,175.85404279999966,175.85404279999966,006,P003,2025_Jan_18_1153,ConditionRich,2021.2.3,59.93662301478112,
140.0,140.75,29,0.75,Stimuli/P003/things_mat_02s.jpg,0,0,0.0,0,242,242,242,,,,,,,,,,,,,140.00527449999936,0.00527449999935925,None,,176.1040635999998,176.1040635999998,176.1040635999998,176.1040635999998,176.1040635999998,176.1040635999998,176.1040635999998,176.1040635999998,176.1040635999998,176.1040635999998,006,P003,2025_Jan_18_1153,ConditionRich,2021.2.3,59.93662301478112,
140.75,141.0,41,0.0,Stimuli/Blank.png,0,0,0.0,0,243,243,243,,,,,,,,,,,,,140.75688889999947,0.0068888999994669575,None,,176.85471189999953,176.85471189999953,176.85471189999953,176.85471189999953,176.85471189999953,176.85471189999953,176.85471189999953,176.85471189999953,176.85471189999953,176.85471189999953,006,P003,2025_Jan_18_1153,ConditionRich,2021.2.3,59.93662301478112,
141.0,141.75,29,0.75,Stimuli/P003/things_mat_02s.jpg,0,0,0.0,0,244,244,244,,,,,,,,,,,,,141.00723880000078,0.007238800000777701,None,,177.12162530000023,177.12162530000023,177.12162530000023,177.12162530000023,177.12162530000023,177.12162530000023,177.12162530000023,177.12162530000023,177.12162530000023,177.12162530000023,006,P003,2025_Jan_18_1153,ConditionRich,2021.2.3,59.93662301478112,
141.75,142.0,41,0.0,Stimuli/Blank.png,0,0,0.0,0,245,245,245,,,,,,,,,,,,,141.7735407,0.023540700000012293,None,,177.8722768000007,177.8722768000007,177.8722768000007,177.8722768000007,177.8722768000007,177.8722768000007,177.8722768000007,177.8722768000007,177.8722768000007,177.8722768000007,006,P003,2025_Jan_18_1153,ConditionRich,2021.2.3,59.93662301478112,
142.0,142.75,29,0.75,Stimuli/P003/things_mat_02s.jpg,0,0,0.0,0,246,246,246,,,,,,,,,,,,,142.0069593999997,0.006959399999686866,None,,178.10585379999975,178.10585379999975,178.10585379999975,178.10585379999975,178.10585379999975,178.10585379999975,178.10585379999975,178.10585379999975,178.10585379999975,178.10585379999975,006,P003,2025_Jan_18_1153,ConditionRich,2021.2.3,59.93662301478112,
142.75,143.0,41,0.0,Stimuli/Blank.png,0,0,0.0,0,247,247,247,,,,,,,,,,,,,142.7571938000001,0.007193800000095507,None,,178.85652599999958,178.85652599999958,178.85652599999958,178.85652599999958,178.85652599999958,178.85652599999958,178.85652599999958,178.85652599999958,178.85652599999958,178.85652599999958,006,P003,2025_Jan_18_1153,ConditionRich,2021.2.3,59.93662301478112,
143.0,143.75,29,0.75,Stimuli/P003/things_mat_02s.jpg,0,0,0.0,0,248,248,248,,,,,,,,,,,,,143.00761609999972,0.007616099999722792,None,,179.10668780000015,179.10668780000015,179.10668780000015,179.10668780000015,179.10668780000015,179.10668780000015,179.10668780000015,179.10668780000015,179.10668780000015,179.10668780000015,006,P003,2025_Jan_18_1153,ConditionRich,2021.2.3,59.93662301478112,
143.75,144.0,41,0.0,Stimuli/Blank.png,0,0,0.0,0,249,249,249,,,,,,,,,,,,,143.75840470000003,0.008404700000028242,None,,179.85735720000048,179.85735720000048,179.85735720000048,179.85735720000048,179.85735720000048,179.85735720000048,179.85735720000048,179.85735720000048,179.85735720000048,179.85735720000048,006,P003,2025_Jan_18_1153,ConditionRich,2021.2.3,59.93662301478112,
144.0,144.75,24,0.75,Stimuli/P003/things_dumpling_02s.jpg,0,0,0.0,0,250,250,250,,,,,,,,,,,,,144.0090369999998,0.009036999999807449,None,,180.1075736999992,180.1075736999992,180.1075736999992,180.1075736999992,180.1075736999992,180.1075736999992,180.1075736999992,180.1075736999992,180.1075736999992,180.1075736999992,006,P003,2025_Jan_18_1153,ConditionRich,2021.2.3,59.93662301478112,
144.75,145.0,41,0.0,Stimuli/Blank.png,0,0,0.0,0,251,251,251,,,,,,,,,,,,,144.75883590000012,0.00883590000012191,None,,180.8582905000003,180.8582905000003,180.8582905000003,180.8582905000003,180.8582905000003,180.8582905000003,180.8582905000003,180.8582905000003,180.8582905000003,180.8582905000003,006,P003,2025_Jan_18_1153,ConditionRich,2021.2.3,59.93662301478112,
145.0,145.75,24,0.75,Stimuli/P003/things_dumpling_02s.jpg,0,0,0.0,0,252,252,252,,,,,,,,,,,,,145.01158960000066,0.011589600000661449,None,,181.1251360999995,181.1251360999995,181.1251360999995,181.1251360999995,181.1251360999995,181.1251360999995,181.1251360999995,181.1251360999995,181.1251360999995,181.1251360999995,006,P003,2025_Jan_18_1153,ConditionRich,2021.2.3,59.93662301478112,
145.75,146.0,41,0.0,Stimuli/Blank.png,0,0,0.0,0,253,253,253,,,,,,,,,,,,,145.77666139999928,0.026661399999284185,5,0.20055259999935515,181.87578480000047,181.87578480000047,181.87578480000047,181.87578480000047,181.87578480000047,181.87578480000047,181.87578480000047,181.87578480000047,181.87578480000047,181.87578480000047,006,P003,2025_Jan_18_1153,ConditionRich,2021.2.3,59.93662301478112,
146.0,146.75,24,0.75,Stimuli/P003/things_dumpling_02s.jpg,0,0,0.0,0,254,254,254,,,,,,,,,,,,,146.01092529999914,0.010925299999144045,None,,182.10932560000037,182.10932560000037,182.10932560000037,182.10932560000037,182.10932560000037,182.10932560000037,182.10932560000037,182.10932560000037,182.10932560000037,182.10932560000037,006,P003,2025_Jan_18_1153,ConditionRich,2021.2.3,59.93662301478112,
146.75,147.0,41,0.0,Stimuli/Blank.png,0,0,0.0,0,255,255,255,,,,,,,,,,,,,146.76180869999916,0.011808699999164673,None,,182.8599952000004,182.8599952000004,182.8599952000004,182.8599952000004,182.8599952000004,182.8599952000004,182.8599952000004,182.8599952000004,182.8599952000004,182.8599952000004,006,P003,2025_Jan_18_1153,ConditionRich,2021.2.3,59.93662301478112,
147.0,147.75,24,0.75,Stimuli/P003/things_dumpling_02s.jpg,0,0,0.0,0,256,256,256,,,,,,,,,,,,,147.01142360000085,0.011423600000853185,None,,183.11020739999913,183.11020739999913,183.11020739999913,183.11020739999913,183.11020739999913,183.11020739999913,183.11020739999913,183.11020739999913,183.11020739999913,183.11020739999913,006,P003,2025_Jan_18_1153,ConditionRich,2021.2.3,59.93662301478112,
147.75,148.0,41,0.0,Stimuli/Blank.png,0,0,0.0,0,257,257,257,,,,,,,,,,,,,147.76254209999934,0.012542099999336642,5,0.21541760000036447,183.86086380000052,183.86086380000052,183.86086380000052,183.86086380000052,183.86086380000052,183.86086380000052,183.86086380000052,183.86086380000052,183.86086380000052,183.86086380000052,006,P003,2025_Jan_18_1153,ConditionRich,2021.2.3,59.93662301478112,
148.0,148.75,31,0.75,Stimuli/P003/things_pea_02s.jpg,0,0,0.0,0,258,258,258,,,,,,,,,,,,,148.01181630000065,0.011816300000646152,None,,184.11109159999978,184.11109159999978,184.11109159999978,184.11109159999978,184.11109159999978,184.11109159999978,184.11109159999978,184.11109159999978,184.11109159999978,184.11109159999978,006,P003,2025_Jan_18_1153,ConditionRich,2021.2.3,59.93662301478112,
148.75,149.0,41,0.0,Stimuli/Blank.png,0,0,0.0,0,259,259,259,,,,,,,,,,,,,148.7627407,0.012740699999994831,None,,184.8617532999997,184.8617532999997,184.8617532999997,184.8617532999997,184.8617532999997,184.8617532999997,184.8617532999997,184.8617532999997,184.8617532999997,184.8617532999997,006,P003,2025_Jan_18_1153,ConditionRich,2021.2.3,59.93662301478112,
149.0,149.75,31,0.75,Stimuli/P003/things_pea_02s.jpg,0,0,0.0,0,260,260,260,,,,,,,,,,,,,149.01320250000026,0.013202500000261352,None,,185.12869150000006,185.12869150000006,185.12869150000006,185.12869150000006,185.12869150000006,185.12869150000006,185.12869150000006,185.12869150000006,185.12869150000006,185.12869150000006,006,P003,2025_Jan_18_1153,ConditionRich,2021.2.3,59.93662301478112,
