eventStartTime,eventEndTime,eventCond,imSize,imFile,responseEvent,fixRespStart,fixRespEnd,Events.thisRepN,Events.thisTrialN,Events.thisN,Events.thisIndex,Instructions.started,Instructions.stopped,participantReadyResponse.keys,participantReadyResponse.rt,participantReadyResponse.started,participantReadyResponse.stopped,startWaitforTrigger,triggerResponse.keys,triggerResponse.rt,triggerResponse.started,triggerResponse.stopped,globalTimer,actualStartTime,startTimingDiff,participantResponse.keys,participantResponse.rt,participantResponse.started,participantResponse.stopped,image.started,image.stopped,fixationOutside.started,fixationOutside.stopped,fixationResponse.started,fixationResponse.stopped,fixationInside.started,fixationInside.stopped,session,participant,date,expName,psychopyVersion,frameRate,
,,,,,,,,,,,,12.704634899999292,None,1,19.91607590000058,12.704634899999292,None,,,,,,,,,,,,,,,,,,,,,004,P003,2025_Jan_18_1138,ConditionRich,2021.2.3,59.93726965388717,
,,,,,,,,,,,,,,,,,,32.63092509999842,5,18.794884800001455,32.643384299999525,None,,,,,,,,,,,,,,,,004,P003,2025_Jan_18_1138,ConditionRich,2021.2.3,59.93726965388717,
0.0,4.0,0,0.0,Stimuli/Blank.png,0,0,0.0,0,0,0,0,,,,,,,,,,,,51.44658429999981,0.024733500000365893,0.024733500000365893,5,3.9449901999996655,51.49328979999882,None,51.49328979999882,None,51.49328979999882,None,51.49328979999882,51.49328979999882,51.49328979999882,None,004,P003,2025_Jan_18_1138,ConditionRich,2021.2.3,59.93726965388717,
4.0,7.75,3,0.75,Stimuli/P003/sun_afqjzrocqhabifao.jpg,0,0,0.0,0,1,1,1,,,,,,,,,,,,,4.020676600001025,0.02067660000102478,5,1.9411490000002232,55.49708009999995,55.49708009999995,55.49708009999995,55.49708009999995,55.49708009999995,55.49708009999995,55.49708009999995,55.49708009999995,55.49708009999995,55.49708009999995,004,P003,2025_Jan_18_1138,ConditionRich,2021.2.3,59.93726965388717,
7.75,8.0,41,0.0,Stimuli/Blank.png,0,0,0.0,0,2,2,2,,,,,,,,,,,,,7.773699700001089,0.023699700001088786,5,0.18801349999921513,59.25048749999951,59.25048749999951,59.25048749999951,59.25048749999951,59.25048749999951,59.25048749999951,59.25048749999951,59.25048749999951,59.25048749999951,59.25048749999951,004,P003,2025_Jan_18_1138,ConditionRich,2021.2.3,59.93726965388717,
8.0,11.75,2,0.75,Stimuli/P003/sun_afijjzyziczoqdhz.jpg,0,0,0.0,0,3,3,3,,,,,,,,,,,,,8.02338520000012,0.023385200000120676,5,1.9547888000015519,59.48366029999852,59.48366029999852,59.48366029999852,59.48366029999852,59.48366029999852,59.48366029999852,59.48366029999852,59.48366029999852,59.48366029999852,59.48366029999852,004,P003,2025_Jan_18_1138,ConditionRich,2021.2.3,59.93726965388717,
11.75,12.0,41,0.0,Stimuli/Blank.png,0,0,0.0,0,4,4,4,,,,,,,,,,,,,11.759305499999755,0.00930549999975483,5,0.2179508999997779,63.22027459999845,63.22027459999845,63.22027459999845,63.22027459999845,63.22027459999845,63.22027459999845,63.22027459999845,63.22027459999845,63.22027459999845,63.22027459999845,004,P003,2025_Jan_18_1138,ConditionRich,2021.2.3,59.93726965388717,
12.0,15.75,35,0.75,Stimuli/P003/things_satellite_dish_02s.jpg,0,0,0.0,0,5,5,5,,,,,,,,,,,,,12.00963899999988,0.009638999999879161,5,1.9677077000014833,63.47050279999894,63.47050279999894,63.47050279999894,63.47050279999894,63.47050279999894,63.47050279999894,63.47050279999894,63.47050279999894,63.47050279999894,63.47050279999894,004,P003,2025_Jan_18_1138,ConditionRich,2021.2.3,59.93726965388717,
15.75,16.0,41,0.0,Stimuli/Blank.png,0,0,0.0,0,6,6,6,,,,,,,,,,,,,15.762843100001191,0.012843100001191488,5,0.2144975000010163,67.22381589999895,67.22381589999895,67.22381589999895,67.22381589999895,67.22381589999895,67.22381589999895,67.22381589999895,67.22381589999895,67.22381589999895,67.22381589999895,004,P003,2025_Jan_18_1138,ConditionRich,2021.2.3,59.93726965388717,
16.0,19.75,12,0.75,Stimuli/P003/sun_bcboctumoxwpdefl.jpg,0,0,0.0,0,7,7,7,,,,,,,,,,,,,16.013595800000985,0.013595800000985037,5,1.9475825000008626,67.49070519999987,67.49070519999987,67.49070519999987,67.49070519999987,67.49070519999987,67.49070519999987,67.49070519999987,67.49070519999987,67.49070519999987,67.49070519999987,004,P003,2025_Jan_18_1138,ConditionRich,2021.2.3,59.93726965388717,
19.75,20.0,41,0.0,Stimuli/Blank.png,0,0,0.0,0,8,8,8,,,,,,,,,,,,,19.76836960000037,0.018369600000369246,5,0.19411499999841908,71.24401669999861,71.24401669999861,71.24401669999861,71.24401669999861,71.24401669999861,71.24401669999861,71.24401669999861,71.24401669999861,71.24401669999861,71.24401669999861,004,P003,2025_Jan_18_1138,ConditionRich,2021.2.3,59.93726965388717,
20.0,23.75,7,0.75,Stimuli/P003/sun_asgixjtedklbawgm.jpg,0,0,0.0,0,9,9,9,,,,,,,,,,,,,20.017215199999555,0.017215199999554898,5,1.9442260000014358,71.4942418999999,71.4942418999999,71.4942418999999,71.4942418999999,71.4942418999999,71.4942418999999,71.4942418999999,71.4942418999999,71.4942418999999,71.4942418999999,004,P003,2025_Jan_18_1138,ConditionRich,2021.2.3,59.93726965388717,
23.75,24.0,41,0.0,Stimuli/Blank.png,0,0,0.0,0,10,10,10,,,,,,,,,,,,,23.770562900001096,0.02056290000109584,None,,75.23093429999972,75.23093429999972,75.23093429999972,75.23093429999972,75.23093429999972,75.23093429999972,75.23093429999972,75.23093429999972,75.23093429999972,75.23093429999972,004,P003,2025_Jan_18_1138,ConditionRich,2021.2.3,59.93726965388717,
24.0,27.75,29,0.75,Stimuli/P003/things_mat_02s.jpg,0,0,0.0,0,11,11,11,,,,,,,,,,,,,24.004021799999464,0.004021799999463838,5,1.9740576000003784,75.46435489999931,75.46435489999931,75.46435489999931,75.46435489999931,75.46435489999931,75.46435489999931,75.46435489999931,75.46435489999931,75.46435489999931,75.46435489999931,004,P003,2025_Jan_18_1138,ConditionRich,2021.2.3,59.93726965388717,
27.75,28.0,41,0.0,Stimuli/Blank.png,0,0,0.0,0,12,12,12,,,,,,,,,,,,,27.75871680000091,0.008716800000911462,5,0.20399900000120397,79.23438749999877,79.23438749999877,79.23438749999877,79.23438749999877,79.23438749999877,79.23438749999877,79.23438749999877,79.23438749999877,79.23438749999877,79.23438749999877,004,P003,2025_Jan_18_1138,ConditionRich,2021.2.3,59.93726965388717,
28.0,31.75,13,0.75,Stimuli/P003/sun_bhbiqbqmwrowrqpd.jpg,1,0,0.75,0,13,13,13,,,,,,,,,,,,,28.024061699999947,0.02406169999994745,5,1.9535333000003448,79.48459759999969,79.48459759999969,79.48459759999969,79.48459759999969,79.48459759999969,79.48459759999969,79.48459759999969,80.21857739999905,79.48459759999969,79.48459759999969,004,P003,2025_Jan_18_1138,ConditionRich,2021.2.3,59.93726965388717,
31.75,32.0,41,0.0,Stimuli/Blank.png,0,0,0.0,0,14,14,14,,,,,,,,,,,,,31.76064799999949,0.01064799999949173,5,0.2168492000000697,83.22122079999826,83.22122079999826,83.22122079999826,83.22122079999826,83.22122079999826,83.22122079999826,83.22122079999826,83.22122079999826,83.22122079999826,83.22122079999826,004,P003,2025_Jan_18_1138,ConditionRich,2021.2.3,59.93726965388717,
32.0,35.75,17,0.75,Stimuli/P003/sun_bojovhhraxtgafcy.jpg,1,3,3.75,0,15,15,15,,,,,,,,,,,,,32.01085869999952,0.01085869999951683,1,3.47301619999962,83.47144229999867,83.47144229999867,83.47144229999867,83.47144229999867,83.47144229999867,83.47144229999867,86.45740129999831,87.20806079999966,83.47144229999867,83.47144229999867,004,P003,2025_Jan_18_1138,ConditionRich,2021.2.3,59.93726965388717,
35.75,36.0,41,0.0,Stimuli/Blank.png,0,0,0.0,0,16,16,16,,,,,,,,,,,,,35.76459530000102,0.014595300001019496,5,0.1967097000015201,87.24143499999991,87.24143499999991,87.24143499999991,87.24143499999991,87.24143499999991,87.24143499999991,87.24143499999991,87.24143499999991,87.24143499999991,87.24143499999991,004,P003,2025_Jan_18_1138,ConditionRich,2021.2.3,59.93726965388717,
36.0,39.75,32,0.75,Stimuli/P003/things_pulley_02s.jpg,0,0,0.0,0,17,17,17,,,,,,,,,,,,,36.03334030000042,0.03334030000041821,5,1.9297814999990806,87.5083440999988,87.5083440999988,87.5083440999988,87.5083440999988,87.5083440999988,87.5083440999988,87.5083440999988,87.5083440999988,87.5083440999988,87.5083440999988,004,P003,2025_Jan_18_1138,ConditionRich,2021.2.3,59.93726965388717,
39.75,40.0,41,0.0,Stimuli/Blank.png,0,0,0.0,0,18,18,18,,,,,,,,,,,,,39.76857890000065,0.01857890000064799,None,,91.22832869999911,91.22832869999911,91.22832869999911,91.22832869999911,91.22832869999911,91.22832869999911,91.22832869999911,91.22832869999911,91.22832869999911,91.22832869999911,004,P003,2025_Jan_18_1138,ConditionRich,2021.2.3,59.93726965388717,
40.0,43.75,25,0.75,Stimuli/P003/things_girl_02s.jpg,0,0,0.0,0,19,19,19,,,,,,,,,,,,,40.00301330000002,0.0030133000000205357,5,1.9595480000007228,91.47848179999892,91.47848179999892,91.47848179999892,91.47848179999892,91.47848179999892,91.47848179999892,91.47848179999892,91.47848179999892,91.47848179999892,91.47848179999892,004,P003,2025_Jan_18_1138,ConditionRich,2021.2.3,59.93726965388717,
43.75,44.0,41,0.0,Stimuli/Blank.png,0,0,0.0,0,20,20,20,,,,,,,,,,,,,43.770899900000586,0.020899900000586058,None,,95.2318323999989,95.2318323999989,95.2318323999989,95.2318323999989,95.2318323999989,95.2318323999989,95.2318323999989,95.2318323999989,95.2318323999989,95.2318323999989,004,P003,2025_Jan_18_1138,ConditionRich,2021.2.3,59.93726965388717,
44.0,47.75,20,0.75,Stimuli/P003/sun_bwytihadgigwkyht.jpg,0,0,0.0,0,21,21,21,,,,,,,,,,,,,44.00420000000122,0.0042000000012194505,5,1.9730055999989418,95.46534229999997,95.46534229999997,95.46534229999997,95.46534229999997,95.46534229999997,95.46534229999997,95.46534229999997,95.46534229999997,95.46534229999997,95.46534229999997,004,P003,2025_Jan_18_1138,ConditionRich,2021.2.3,59.93726965388717,
47.75,48.0,41,0.0,Stimuli/Blank.png,0,0,0.0,0,22,22,22,,,,,,,,,,,,,47.75886999999966,0.00886999999966065,5,0.2030207000007067,99.23534159999872,99.23534159999872,99.23534159999872,99.23534159999872,99.23534159999872,99.23534159999872,99.23534159999872,99.23534159999872,99.23534159999872,99.23534159999872,004,P003,2025_Jan_18_1138,ConditionRich,2021.2.3,59.93726965388717,
48.0,51.75,31,0.75,Stimuli/P003/things_pea_02s.jpg,0,0,0.0,0,23,23,23,,,,,,,,,,,,,48.02471700000024,0.02471700000023702,5,1.9525749000003998,99.48554239999976,99.48554239999976,99.48554239999976,99.48554239999976,99.48554239999976,99.48554239999976,99.48554239999976,99.48554239999976,99.48554239999976,99.48554239999976,004,P003,2025_Jan_18_1138,ConditionRich,2021.2.3,59.93726965388717,
51.75,52.0,41,0.0,Stimuli/Blank.png,0,0,0.0,0,24,24,24,,,,,,,,,,,,,51.763592100000096,0.013592100000096252,5,0.19917050000003655,103.23884809999981,103.23884809999981,103.23884809999981,103.23884809999981,103.23884809999981,103.23884809999981,103.23884809999981,103.23884809999981,103.23884809999981,103.23884809999981,004,P003,2025_Jan_18_1138,ConditionRich,2021.2.3,59.93726965388717,
52.0,55.75,22,0.75,Stimuli/P003/things_boy_02s.jpg,0,0,0.0,0,25,25,25,,,,,,,,,,,,,52.028832500000135,0.028832500000135042,5,1.9491027999993094,103.48905409999861,103.48905409999861,103.48905409999861,103.48905409999861,103.48905409999861,103.48905409999861,103.48905409999861,103.48905409999861,103.48905409999861,103.48905409999861,004,P003,2025_Jan_18_1138,ConditionRich,2021.2.3,59.93726965388717,
55.75,56.0,41,0.0,Stimuli/Blank.png,0,0,0.0,0,26,26,26,,,,,,,,,,,,,55.76443360000121,0.014433600001211744,5,0.21247330000005604,107.22568769999998,107.22568769999998,107.22568769999998,107.22568769999998,107.22568769999998,107.22568769999998,107.22568769999998,107.22568769999998,107.22568769999998,107.22568769999998,004,P003,2025_Jan_18_1138,ConditionRich,2021.2.3,59.93726965388717,
56.0,59.75,21,0.75,Stimuli/P003/things_baby_02s.jpg,0,0,0.0,0,27,27,27,,,,,,,,,,,,,56.01508710000053,0.015087100000528153,5,1.962142299998959,107.47591369999827,107.47591369999827,107.47591369999827,107.47591369999827,107.47591369999827,107.47591369999827,107.47591369999827,107.47591369999827,107.47591369999827,107.47591369999827,004,P003,2025_Jan_18_1138,ConditionRich,2021.2.3,59.93726965388717,
59.75,60.0,41,0.0,Stimuli/Blank.png,0,0,0.0,0,28,28,28,,,,,,,,,,,,,59.754010200000266,0.004010200000266195,5,0.2090000999996846,111.22920979999981,111.22920979999981,111.22920979999981,111.22920979999981,111.22920979999981,111.22920979999981,111.22920979999981,111.22920979999981,111.22920979999981,111.22920979999981,004,P003,2025_Jan_18_1138,ConditionRich,2021.2.3,59.93726965388717,
60.0,63.75,37,0.75,Stimuli/P003/things_ski_lift_02s.jpg,1,0,0.75,0,29,29,29,,,,,,,,,,,,,60.01914880000004,0.019148800000039046,5,1.95863350000036,111.47942149999835,111.47942149999835,111.47942149999835,111.47942149999835,111.47942149999835,111.47942149999835,111.47942149999835,112.21336999999949,111.47942149999835,111.47942149999835,004,P003,2025_Jan_18_1138,ConditionRich,2021.2.3,59.93726965388717,
63.75,64.0,41,0.0,Stimuli/Blank.png,0,0,0.0,0,30,30,30,,,,,,,,,,,,,63.7551870999996,0.005187099999602651,None,,115.21605279999858,115.21605279999858,115.21605279999858,115.21605279999858,115.21605279999858,115.21605279999858,115.21605279999858,115.21605279999858,115.21605279999858,115.21605279999858,004,P003,2025_Jan_18_1138,ConditionRich,2021.2.3,59.93726965388717,
64.0,67.75,34,0.75,Stimuli/P003/things_roll_02s.jpg,1,0,0.75,0,31,31,31,,,,,,,,,,,,,64.00575670000035,0.005756700000347337,5,1.9717703000005713,115.4662644,115.4662644,115.4662644,115.4662644,115.4662644,115.4662644,115.4662644,116.2002784999986,115.4662644,115.4662644,004,P003,2025_Jan_18_1138,ConditionRich,2021.2.3,59.93726965388717,
67.75,68.0,41,0.0,Stimuli/Blank.png,0,0,0.0,0,32,32,32,,,,,,,,,,,,,67.75915320000058,0.009153200000582729,5,0.21855019999929937,119.21957369999836,119.21957369999836,119.21957369999836,119.21957369999836,119.21957369999836,119.21957369999836,119.21957369999836,119.21957369999836,119.21957369999836,119.21957369999836,004,P003,2025_Jan_18_1138,ConditionRich,2021.2.3,59.93726965388717,
68.0,71.75,38,0.75,Stimuli/P003/things_slug_02s.jpg,0,0,0.0,0,33,33,33,,,,,,,,,,,,,68.0086382999998,0.008638299999802257,5,1.9682056000001467,119.46979339999962,119.46979339999962,119.46979339999962,119.46979339999962,119.46979339999962,119.46979339999962,119.46979339999962,119.46979339999962,119.46979339999962,119.46979339999962,004,P003,2025_Jan_18_1138,ConditionRich,2021.2.3,59.93726965388717,
71.75,72.0,41,0.0,Stimuli/Blank.png,0,0,0.0,0,34,34,34,,,,,,,,,,,,,71.76256140000078,0.012561400000777212,5,0.21502220000002126,123.22309379999933,123.22309379999933,123.22309379999933,123.22309379999933,123.22309379999933,123.22309379999933,123.22309379999933,123.22309379999933,123.22309379999933,123.22309379999933,004,P003,2025_Jan_18_1138,ConditionRich,2021.2.3,59.93726965388717,
72.0,75.75,9,0.75,Stimuli/P003/sun_auqtrqkaobyprnjy.jpg,0,0,0.0,0,35,35,35,,,,,,,,,,,,,72.01299550000113,0.012995500001125038,5,1.9646565000002738,123.47330919999877,123.47330919999877,123.47330919999877,123.47330919999877,123.47330919999877,123.47330919999877,123.47330919999877,123.47330919999877,123.47330919999877,123.47330919999877,004,P003,2025_Jan_18_1138,ConditionRich,2021.2.3,59.93726965388717,
75.75,76.0,41,0.0,Stimuli/Blank.png,0,0,0.0,0,36,36,36,,,,,,,,,,,,,75.74902970000039,-0.0009702999996079598,None,,127.20993349999844,127.20993349999844,127.20993349999844,127.20993349999844,127.20993349999844,127.20993349999844,127.20993349999844,127.20993349999844,127.20993349999844,127.20993349999844,004,P003,2025_Jan_18_1138,ConditionRich,2021.2.3,59.93726965388717,
76.0,79.75,16,0.75,Stimuli/P003/sun_bjuoemgleyaogrmw.jpg,0,0,0.0,0,37,37,37,,,,,,,,,,,,,75.99936170000001,-0.0006382999999914318,5,1.9778375000005326,127.46013109999876,127.46013109999876,127.46013109999876,127.46013109999876,127.46013109999876,127.46013109999876,127.46013109999876,127.46013109999876,127.46013109999876,127.46013109999876,004,P003,2025_Jan_18_1138,ConditionRich,2021.2.3,59.93726965388717,
79.75,80.0,41,0.0,Stimuli/Blank.png,0,0,0.0,0,38,38,38,,,,,,,,,,,,,79.75355180000042,0.0035518000004231,None,,131.21346249999988,131.21346249999988,131.21346249999988,131.21346249999988,131.21346249999988,131.21346249999988,131.21346249999988,131.21346249999988,131.21346249999988,131.21346249999988,004,P003,2025_Jan_18_1138,ConditionRich,2021.2.3,59.93726965388717,
80.0,83.75,24,0.75,Stimuli/P003/things_dumpling_02s.jpg,0,0,0.0,0,39,39,39,,,,,,,,,,,,,80.0023254000007,0.0023254000007000286,5,1.9745609000001423,131.46367389999978,131.46367389999978,131.46367389999978,131.46367389999978,131.46367389999978,131.46367389999978,131.46367389999978,131.46367389999978,131.46367389999978,131.46367389999978,004,P003,2025_Jan_18_1138,ConditionRich,2021.2.3,59.93726965388717,
83.75,84.0,41,0.0,Stimuli/Blank.png,0,0,0.0,0,40,40,40,,,,,,,,,,,,,83.75664020000113,0.006640200001129415,None,,135.2169873999992,135.2169873999992,135.2169873999992,135.2169873999992,135.2169873999992,135.2169873999992,135.2169873999992,135.2169873999992,135.2169873999992,135.2169873999992,004,P003,2025_Jan_18_1138,ConditionRich,2021.2.3,59.93726965388717,
84.0,100.0,0,0.0,Stimuli/Blank.png,1,7,7.75,0,41,41,41,,,,,,,,,,,,,84.00585920000049,0.005859200000486453,5,13.970858099999532,135.4672017999983,135.4672017999983,135.4672017999983,135.4672017999983,135.4672017999983,135.4672017999983,142.45674549999967,143.20737109999936,135.4672017999983,135.4672017999983,004,P003,2025_Jan_18_1138,ConditionRich,2021.2.3,59.93726965388717,
100.0,103.75,19,0.75,Stimuli/P003/sun_bucebxfexknakpma.jpg,0,0,0.0,0,42,42,42,,,,,,,,,,,,,100.00368619999972,0.0036861999997199746,5,1.9733806999993249,151.46461399999862,151.46461399999862,151.46461399999862,151.46461399999862,151.46461399999862,151.46461399999862,151.46461399999862,151.46461399999862,151.46461399999862,151.46461399999862,004,P003,2025_Jan_18_1138,ConditionRich,2021.2.3,59.93726965388717,
103.75,104.0,41,0.0,Stimuli/Blank.png,0,0,0.0,0,43,43,43,,,,,,,,,,,,,103.75759450000078,0.007594500000777771,None,,155.2179200999999,155.2179200999999,155.2179200999999,155.2179200999999,155.2179200999999,155.2179200999999,155.2179200999999,155.2179200999999,155.2179200999999,155.2179200999999,004,P003,2025_Jan_18_1138,ConditionRich,2021.2.3,59.93726965388717,
104.0,107.75,23,0.75,Stimuli/P003/things_butterfly_02s.jpg,0,0,0.0,0,44,44,44,,,,,,,,,,,,,104.00717009999971,0.007170099999711965,None,,155.46813269999984,155.46813269999984,155.46813269999984,155.46813269999984,155.46813269999984,155.46813269999984,155.46813269999984,155.46813269999984,155.46813269999984,155.46813269999984,004,P003,2025_Jan_18_1138,ConditionRich,2021.2.3,59.93726965388717,
107.75,108.0,41,0.0,Stimuli/Blank.png,0,0,0.0,0,45,45,45,,,,,,,,,,,,,107.76045429999976,0.010454299999764771,5,0.2163959999998042,159.22144789999948,159.22144789999948,159.22144789999948,159.22144789999948,159.22144789999948,159.22144789999948,159.22144789999948,159.22144789999948,159.22144789999948,159.22144789999948,004,P003,2025_Jan_18_1138,ConditionRich,2021.2.3,59.93726965388717,
108.0,111.75,30,0.75,Stimuli/P003/things_music_box_02s.jpg,0,0,0.0,0,46,46,46,,,,,,,,,,,,,108.01069300000017,0.010693000000173924,5,1.9661785000007512,159.47165479999967,159.47165479999967,159.47165479999967,159.47165479999967,159.47165479999967,159.47165479999967,159.47165479999967,159.47165479999967,159.47165479999967,159.47165479999967,004,P003,2025_Jan_18_1138,ConditionRich,2021.2.3,59.93726965388717,
111.75,112.0,41,0.0,Stimuli/Blank.png,0,0,0.0,0,47,47,47,,,,,,,,,,,,,111.76466249999976,0.014662499999758438,5,0.2130010000000766,163.22496079999837,163.22496079999837,163.22496079999837,163.22496079999837,163.22496079999837,163.22496079999837,163.22496079999837,163.22496079999837,163.22496079999837,163.22496079999837,004,P003,2025_Jan_18_1138,ConditionRich,2021.2.3,59.93726965388717,
112.0,115.75,15,0.75,Stimuli/P003/sun_bjhtdevvocmwtavk.jpg,1,1,1.75,0,48,48,48,,,,,,,,,,,,,112.01396240000031,0.013962400000309572,5,1.9626684000013483,163.47516279999945,163.47516279999945,163.47516279999945,163.47516279999945,163.47516279999945,163.47516279999945,164.4593739999982,165.21006059999854,163.47516279999945,163.47516279999945,004,P003,2025_Jan_18_1138,ConditionRich,2021.2.3,59.93726965388717,
115.75,116.0,41,0.0,Stimuli/Blank.png,0,0,0.0,0,49,49,49,,,,,,,,,,,,,115.75312850000046,0.0031285000004572794,5,0.2094952999996167,167.22849019999921,167.22849019999921,167.22849019999921,167.22849019999921,167.22849019999921,167.22849019999921,167.22849019999921,167.22849019999921,167.22849019999921,167.22849019999921,004,P003,2025_Jan_18_1138,ConditionRich,2021.2.3,59.93726965388717,
116.0,119.75,10,0.75,Stimuli/P003/sun_azzneunxibjvypza.jpg,1,1,1.75,0,50,50,50,,,,,,,,,,,,,116.01851329999954,0.018513299999540322,5,1.9590775999986363,167.47870929999954,167.47870929999954,167.47870929999954,167.47870929999954,167.47870929999954,167.47870929999954,168.46290639999825,169.21356619999824,167.47870929999954,167.47870929999954,004,P003,2025_Jan_18_1138,ConditionRich,2021.2.3,59.93726965388717,
119.75,120.0,41,0.0,Stimuli/Blank.png,0,0,0.0,0,51,51,51,,,,,,,,,,,,,119.75496120000025,0.004961200000252575,None,,171.21532839999963,171.21532839999963,171.21532839999963,171.21532839999963,171.21532839999963,171.21532839999963,171.21532839999963,171.21532839999963,171.21532839999963,171.21532839999963,004,P003,2025_Jan_18_1138,ConditionRich,2021.2.3,59.93726965388717,
120.0,123.75,11,0.75,Stimuli/P003/sun_bawmjlzsuuivqjhi.jpg,0,0,0.0,0,52,52,52,,,,,,,,,,,,,120.0050596000001,0.005059600000095088,5,1.9558068000005733,171.48225549999916,171.48225549999916,171.48225549999916,171.48225549999916,171.48225549999916,171.48225549999916,171.48225549999916,171.48225549999916,171.48225549999916,171.48225549999916,004,P003,2025_Jan_18_1138,ConditionRich,2021.2.3,59.93726965388717,
123.75,124.0,41,0.0,Stimuli/Blank.png,0,0,0.0,0,53,53,53,,,,,,,,,,,,,123.7749960000001,0.02499600000010105,None,,175.23554519999925,175.23554519999925,175.23554519999925,175.23554519999925,175.23554519999925,175.23554519999925,175.23554519999925,175.23554519999925,175.23554519999925,175.23554519999925,004,P003,2025_Jan_18_1138,ConditionRich,2021.2.3,59.93726965388717,
124.0,127.75,33,0.75,Stimuli/P003/things_recorder_02s.jpg,0,0,0.0,0,54,54,54,,,,,,,,,,,,,124.00799879999977,0.00799879999976838,5,1.9693490999998176,175.4690740999995,175.4690740999995,175.4690740999995,175.4690740999995,175.4690740999995,175.4690740999995,175.4690740999995,175.4690740999995,175.4690740999995,175.4690740999995,004,P003,2025_Jan_18_1138,ConditionRich,2021.2.3,59.93726965388717,
127.75,128.0,41,0.0,Stimuli/Blank.png,0,0,0.0,0,55,55,55,,,,,,,,,,,,,127.76422670000102,0.014226700001017889,5,0.19868050000150106,179.23906649999844,179.23906649999844,179.23906649999844,179.23906649999844,179.23906649999844,179.23906649999844,179.23906649999844,179.23906649999844,179.23906649999844,179.23906649999844,004,P003,2025_Jan_18_1138,ConditionRich,2021.2.3,59.93726965388717,
128.0,131.75,36,0.75,Stimuli/P003/things_sea_urchin_02s.jpg,0,0,0.0,0,56,56,56,,,,,,,,,,,,,128.0284904,0.028490400000009686,5,1.9484852999994473,179.48927579999872,179.48927579999872,179.48927579999872,179.48927579999872,179.48927579999872,179.48927579999872,179.48927579999872,179.48927579999872,179.48927579999872,179.48927579999872,004,P003,2025_Jan_18_1138,ConditionRich,2021.2.3,59.93726965388717,
131.75,132.0,41,0.0,Stimuli/Blank.png,0,0,0.0,0,57,57,57,,,,,,,,,,,,,131.76516840000113,0.015168400001130067,5,0.21188360000087414,183.22586909999882,183.22586909999882,183.22586909999882,183.22586909999882,183.22586909999882,183.22586909999882,183.22586909999882,183.22586909999882,183.22586909999882,183.22586909999882,004,P003,2025_Jan_18_1138,ConditionRich,2021.2.3,59.93726965388717,
132.0,135.75,40,0.75,Stimuli/P003/things_woman_02s.jpg,0,0,0.0,0,58,58,58,,,,,,,,,,,,,132.01552530000117,0.015525300001172582,5,1.9626791999999114,183.47611909999978,183.47611909999978,183.47611909999978,183.47611909999978,183.47611909999978,183.47611909999978,183.47611909999978,183.47611909999978,183.47611909999978,183.47611909999978,004,P003,2025_Jan_18_1138,ConditionRich,2021.2.3,59.93726965388717,
135.75,136.0,41,0.0,Stimuli/Blank.png,0,0,0.0,0,59,59,59,,,,,,,,,,,,,135.75315729999966,0.0031572999996569706,None,,187.21274429999903,187.21274429999903,187.21274429999903,187.21274429999903,187.21274429999903,187.21274429999903,187.21274429999903,187.21274429999903,187.21274429999903,187.21274429999903,004,P003,2025_Jan_18_1138,ConditionRich,2021.2.3,59.93726965388717,
136.0,139.75,6,0.75,Stimuli/P003/sun_aoumkoxfhlaobjef.jpg,0,0,0.0,0,60,60,60,,,,,,,,,,,,,136.0025258000005,0.0025258000005123904,5,1.9758387000001676,187.4629578999993,187.4629578999993,187.4629578999993,187.4629578999993,187.4629578999993,187.4629578999993,187.4629578999993,187.4629578999993,187.4629578999993,187.4629578999993,004,P003,2025_Jan_18_1138,ConditionRich,2021.2.3,59.93726965388717,
139.75,140.0,41,0.0,Stimuli/Blank.png,0,0,0.0,0,61,61,61,,,,,,,,,,,,,139.7559084000004,0.00590840000040771,None,,191.216278599999,191.216278599999,191.216278599999,191.216278599999,191.216278599999,191.216278599999,191.216278599999,191.216278599999,191.216278599999,191.216278599999,004,P003,2025_Jan_18_1138,ConditionRich,2021.2.3,59.93726965388717,
140.0,143.75,8,0.75,Stimuli/P003/sun_asxkyzleyfgbqfrs.jpg,1,0,0.75,0,62,62,62,,,,,,,,,,,,,140.00564230000055,0.0056423000005452195,5,1.9722872000002099,191.46651779999956,191.46651779999956,191.46651779999956,191.46651779999956,191.46651779999956,191.46651779999956,191.46651779999956,192.20051519999834,191.46651779999956,191.46651779999956,004,P003,2025_Jan_18_1138,ConditionRich,2021.2.3,59.93726965388717,
143.75,144.0,41,0.0,Stimuli/Blank.png,0,0,0.0,0,63,63,63,,,,,,,,,,,,,143.7591422000005,0.009142200000496814,None,,195.2197854999995,195.2197854999995,195.2197854999995,195.2197854999995,195.2197854999995,195.2197854999995,195.2197854999995,195.2197854999995,195.2197854999995,195.2197854999995,004,P003,2025_Jan_18_1138,ConditionRich,2021.2.3,59.93726965388717,
144.0,147.75,26,0.75,Stimuli/P003/things_ham_02s.jpg,0,0,0.0,0,64,64,64,,,,,,,,,,,,,144.0086983000001,0.008698300000105519,5,1.9687778000006801,195.47000469999875,195.47000469999875,195.47000469999875,195.47000469999875,195.47000469999875,195.47000469999875,195.47000469999875,195.47000469999875,195.47000469999875,195.47000469999875,004,P003,2025_Jan_18_1138,ConditionRich,2021.2.3,59.93726965388717,
147.75,148.0,41,0.0,Stimuli/Blank.png,0,0,0.0,0,65,65,65,,,,,,,,,,,,,147.76234459999978,0.012344599999778438,5,0.21549100000083854,199.22331699999995,199.22331699999995,199.22331699999995,199.22331699999995,199.22331699999995,199.22331699999995,199.22331699999995,199.22331699999995,199.22331699999995,199.22331699999995,004,P003,2025_Jan_18_1138,ConditionRich,2021.2.3,59.93726965388717,
148.0,151.75,1,0.75,Stimuli/P003/sun_adgmtzznutwlescq.jpg,0,0,0.0,0,66,66,66,,,,,,,,,,,,,148.01274620000004,0.012746200000037788,5,1.965248700000302,199.47352659999888,199.47352659999888,199.47352659999888,199.47352659999888,199.47352659999888,199.47352659999888,199.47352659999888,199.47352659999888,199.47352659999888,199.47352659999888,004,P003,2025_Jan_18_1138,ConditionRich,2021.2.3,59.93726965388717,
151.75,152.0,41,0.0,Stimuli/Blank.png,0,0,0.0,0,67,67,67,,,,,,,,,,,,,151.74939749999976,-0.0006025000002409797,None,,203.2101616,203.2101616,203.2101616,203.2101616,203.2101616,203.2101616,203.2101616,203.2101616,203.2101616,203.2101616,004,P003,2025_Jan_18_1138,ConditionRich,2021.2.3,59.93726965388717,
152.0,155.75,18,0.75,Stimuli/P003/sun_bplhnzkztpigweny.jpg,0,0,0.0,0,68,68,68,,,,,,,,,,,,,151.99982850000015,-0.00017149999985122122,5,1.9616084999997838,203.47705869999845,203.47705869999845,203.47705869999845,203.47705869999845,203.47705869999845,203.47705869999845,203.47705869999845,203.47705869999845,203.47705869999845,203.47705869999845,004,P003,2025_Jan_18_1138,ConditionRich,2021.2.3,59.93726965388717,
155.75,156.0,41,0.0,Stimuli/Blank.png,0,0,0.0,0,69,69,69,,,,,,,,,,,,,155.76981139999953,0.019811399999525747,None,,207.23035959999834,207.23035959999834,207.23035959999834,207.23035959999834,207.23035959999834,207.23035959999834,207.23035959999834,207.23035959999834,207.23035959999834,207.23035959999834,004,P003,2025_Jan_18_1138,ConditionRich,2021.2.3,59.93726965388717,
156.0,159.75,27,0.75,Stimuli/P003/things_llama_02s.jpg,0,0,0.0,0,70,70,70,,,,,,,,,,,,,156.00362920000043,0.00362920000043232,5,1.9580802000000403,207.48059209999883,207.48059209999883,207.48059209999883,207.48059209999883,207.48059209999883,207.48059209999883,207.48059209999883,207.48059209999883,207.48059209999883,207.48059209999883,004,P003,2025_Jan_18_1138,ConditionRich,2021.2.3,59.93726965388717,
159.75,160.0,41,0.0,Stimuli/Blank.png,0,0,0.0,0,71,71,71,,,,,,,,,,,,,159.774139000001,0.02413900000101421,5,0.18836230000124488,211.25058289999834,211.25058289999834,211.25058289999834,211.25058289999834,211.25058289999834,211.25058289999834,211.25058289999834,211.25058289999834,211.25058289999834,211.25058289999834,004,P003,2025_Jan_18_1138,ConditionRich,2021.2.3,59.93726965388717,
160.0,163.75,14,0.75,Stimuli/P003/sun_bhhtrmwvoadbfucw.jpg,0,0,0.0,0,72,72,72,,,,,,,,,,,,,160.02289440000095,0.022894400000950554,5,1.9546291999995447,211.4841096,211.4841096,211.4841096,211.4841096,211.4841096,211.4841096,211.4841096,211.4841096,211.4841096,211.4841096,004,P003,2025_Jan_18_1138,ConditionRich,2021.2.3,59.93726965388717,
163.75,164.0,41,0.0,Stimuli/Blank.png,0,0,0.0,0,73,73,73,,,,,,,,,,,,,163.76006450000023,0.010064500000225962,5,0.21788519999972777,215.2208183999992,215.2208183999992,215.2208183999992,215.2208183999992,215.2208183999992,215.2208183999992,215.2208183999992,215.2208183999992,215.2208183999992,215.2208183999992,004,P003,2025_Jan_18_1138,ConditionRich,2021.2.3,59.93726965388717,
164.0,167.75,4,0.75,Stimuli/P003/sun_albtqdieqkajejrg.jpg,0,0,0.0,0,74,74,74,,,,,,,,,,,,,164.0102697000002,0.010269700000208104,5,1.967784099999335,215.4709475999989,215.4709475999989,215.4709475999989,215.4709475999989,215.4709475999989,215.4709475999989,215.4709475999989,215.4709475999989,215.4709475999989,215.4709475999989,004,P003,2025_Jan_18_1138,ConditionRich,2021.2.3,59.93726965388717,
167.75,168.0,41,0.0,Stimuli/Blank.png,0,0,0.0,0,75,75,75,,,,,,,,,,,,,167.764114900001,0.014114900001004571,5,0.21449279999978899,219.2242572999985,219.2242572999985,219.2242572999985,219.2242572999985,219.2242572999985,219.2242572999985,219.2242572999985,219.2242572999985,219.2242572999985,219.2242572999985,004,P003,2025_Jan_18_1138,ConditionRich,2021.2.3,59.93726965388717,
168.0,171.75,39,0.75,Stimuli/P003/things_toad_02s.jpg,0,0,0.0,0,76,76,76,,,,,,,,,,,,,168.01336889999948,0.013368899999477435,5,1.9641079000011814,219.47449289999895,219.47449289999895,219.47449289999895,219.47449289999895,219.47449289999895,219.47449289999895,219.47449289999895,219.47449289999895,219.47449289999895,219.47449289999895,004,P003,2025_Jan_18_1138,ConditionRich,2021.2.3,59.93726965388717,
171.75,172.0,41,0.0,Stimuli/Blank.png,0,0,0.0,0,77,77,77,,,,,,,,,,,,,171.75106419999975,0.0010641999997460516,None,,223.21109669999896,223.21109669999896,223.21109669999896,223.21109669999896,223.21109669999896,223.21109669999896,223.21109669999896,223.21109669999896,223.21109669999896,223.21109669999896,004,P003,2025_Jan_18_1138,ConditionRich,2021.2.3,59.93726965388717,
172.0,175.75,28,0.75,Stimuli/P003/things_man_02s.jpg,1,2,2.75,0,78,78,78,,,,,,,,,,,,,172.0027824000008,0.0027824000007967697,1,2.3776269999998476,223.47799849999865,223.47799849999865,223.47799849999865,223.47799849999865,223.47799849999865,223.47799849999865,225.4630889,226.2137359999997,223.47799849999865,223.47799849999865,004,P003,2025_Jan_18_1138,ConditionRich,2021.2.3,59.93726965388717,
175.75,176.0,41,0.0,Stimuli/Blank.png,0,0,0.0,0,79,79,79,,,,,,,,,,,,,175.77307610000025,0.023076100000253064,5,0.19068849999894155,227.2479915999993,227.2479915999993,227.2479915999993,227.2479915999993,227.2479915999993,227.2479915999993,227.2479915999993,227.2479915999993,227.2479915999993,227.2479915999993,004,P003,2025_Jan_18_1138,ConditionRich,2021.2.3,59.93726965388717,
176.0,179.75,5,0.75,Stimuli/P003/sun_amnnxdwfjbdfumns.jpg,1,0,0.75,0,80,80,80,,,,,,,,,,,,,176.0204066999995,0.020406699999512057,5,1.9573610000006738,227.48152219999974,227.48152219999974,227.48152219999974,227.48152219999974,227.48152219999974,227.48152219999974,227.48152219999974,228.21553369999856,227.48152219999974,227.48152219999974,004,P003,2025_Jan_18_1138,ConditionRich,2021.2.3,59.93726965388717,
179.75,180.0,41,0.0,Stimuli/Blank.png,0,0,0.0,0,81,81,81,,,,,,,,,,,,,179.75906410000061,0.009064100000614417,5,0.20369360000040615,231.23489289999998,231.23489289999998,231.23489289999998,231.23489289999998,231.23489289999998,231.23489289999998,231.23489289999998,231.23489289999998,231.23489289999998,231.23489289999998,004,P003,2025_Jan_18_1138,ConditionRich,2021.2.3,59.93726965388717,
180.0,196.0,0,0.0,Stimuli/Blank.png,1,3,3.75,0,82,82,82,,,,,,,,,,,,,180.0242029000001,0.024202900000091176,5,13.95353669999895,231.48501719999877,231.48501719999877,231.48501719999877,231.48501719999877,231.48501719999877,231.48501719999877,234.47099069999967,235.22165329999916,231.48501719999877,231.48501719999877,004,P003,2025_Jan_18_1138,ConditionRich,2021.2.3,59.93726965388717,
196.0,199.75,36,0.75,Stimuli/P003/things_sea_urchin_02s.jpg,0,0,0.0,0,83,83,83,,,,,,,,,,,,,196.00481410000066,0.0048141000006580725,5,1.9728453000006994,247.46577369999977,247.46577369999977,247.46577369999977,247.46577369999977,247.46577369999977,247.46577369999977,247.46577369999977,247.46577369999977,247.46577369999977,247.46577369999977,004,P003,2025_Jan_18_1138,ConditionRich,2021.2.3,59.93726965388717,
199.75,200.0,41,0.0,Stimuli/Blank.png,0,0,0.0,0,84,84,84,,,,,,,,,,,,,199.75821170000017,0.00821170000017446,None,,251.21907249999822,251.21907249999822,251.21907249999822,251.21907249999822,251.21907249999822,251.21907249999822,251.21907249999822,251.21907249999822,251.21907249999822,251.21907249999822,004,P003,2025_Jan_18_1138,ConditionRich,2021.2.3,59.93726965388717,
200.0,203.75,15,0.75,Stimuli/P003/sun_bjhtdevvocmwtavk.jpg,0,0,0.0,0,85,85,85,,,,,,,,,,,,,200.00864890000048,0.008648900000480353,5,1.9692083000009006,251.46929569999884,251.46929569999884,251.46929569999884,251.46929569999884,251.46929569999884,251.46929569999884,251.46929569999884,251.46929569999884,251.46929569999884,251.46929569999884,004,P003,2025_Jan_18_1138,ConditionRich,2021.2.3,59.93726965388717,
203.75,204.0,41,0.0,Stimuli/Blank.png,0,0,0.0,0,86,86,86,,,,,,,,,,,,,203.7620724999997,0.012072499999703723,5,0.21600190000026487,255.22257179999906,255.22257179999906,255.22257179999906,255.22257179999906,255.22257179999906,255.22257179999906,255.22257179999906,255.22257179999906,255.22257179999906,255.22257179999906,004,P003,2025_Jan_18_1138,ConditionRich,2021.2.3,59.93726965388717,
204.0,207.75,16,0.75,Stimuli/P003/sun_bjuoemgleyaogrmw.jpg,1,0,0.75,0,87,87,87,,,,,,,,,,,,,204.01307180000003,0.013071800000034273,5,1.9490648999999394,255.4895136999985,255.4895136999985,255.4895136999985,255.4895136999985,255.4895136999985,255.4895136999985,255.4895136999985,256.20681499999955,255.4895136999985,255.4895136999985,004,P003,2025_Jan_18_1138,ConditionRich,2021.2.3,59.93726965388717,
207.75,208.0,41,0.0,Stimuli/Blank.png,0,0,0.0,0,88,88,88,,,,,,,,,,,,,207.76500300000043,0.01500300000043353,5,0.21237719999953697,259.2261265999987,259.2261265999987,259.2261265999987,259.2261265999987,259.2261265999987,259.2261265999987,259.2261265999987,259.2261265999987,259.2261265999987,259.2261265999987,004,P003,2025_Jan_18_1138,ConditionRich,2021.2.3,59.93726965388717,
208.0,211.75,22,0.75,Stimuli/P003/things_boy_02s.jpg,1,0,0.75,0,89,89,89,,,,,,,,,,,,,208.01576840000052,0.015768400000524707,5,1.96217070000057,259.4763411999993,259.4763411999993,259.4763411999993,259.4763411999993,259.4763411999993,259.4763411999993,259.4763411999993,260.21030379999866,259.4763411999993,259.4763411999993,004,P003,2025_Jan_18_1138,ConditionRich,2021.2.3,59.93726965388717,
211.75,212.0,41,0.0,Stimuli/Blank.png,0,0,0.0,0,90,90,90,,,,,,,,,,,,,211.75245110000105,0.002451100001053419,None,,263.2129707999993,263.2129707999993,263.2129707999993,263.2129707999993,263.2129707999993,263.2129707999993,263.2129707999993,263.2129707999993,263.2129707999993,263.2129707999993,004,P003,2025_Jan_18_1138,ConditionRich,2021.2.3,59.93726965388717,
212.0,215.75,39,0.75,Stimuli/P003/things_toad_02s.jpg,0,0,0.0,0,91,91,91,,,,,,,,,,,,,212.00281920000089,0.0028192000008857576,5,1.9753334000015457,263.4631935999987,263.4631935999987,263.4631935999987,263.4631935999987,263.4631935999987,263.4631935999987,263.4631935999987,263.4631935999987,263.4631935999987,263.4631935999987,004,P003,2025_Jan_18_1138,ConditionRich,2021.2.3,59.93726965388717,
215.75,216.0,41,0.0,Stimuli/Blank.png,0,0,0.0,0,92,92,92,,,,,,,,,,,,,215.75872320000053,0.008723200000531506,5,0.2054545999999391,267.2333162999985,267.2333162999985,267.2333162999985,267.2333162999985,267.2333162999985,267.2333162999985,267.2333162999985,267.2333162999985,267.2333162999985,267.2333162999985,004,P003,2025_Jan_18_1138,ConditionRich,2021.2.3,59.93726965388717,
216.0,219.75,32,0.75,Stimuli/P003/things_pulley_02s.jpg,0,0,0.0,0,93,93,93,,,,,,,,,,,,,216.0228184000007,0.02281840000068769,5,1.955063199999131,267.48348369999985,267.48348369999985,267.48348369999985,267.48348369999985,267.48348369999985,267.48348369999985,267.48348369999985,267.48348369999985,267.48348369999985,267.48348369999985,004,P003,2025_Jan_18_1138,ConditionRich,2021.2.3,59.93726965388717,
219.75,220.0,41,0.0,Stimuli/Blank.png,0,0,0.0,0,94,94,94,,,,,,,,,,,,,219.75961160000043,0.009611600000425824,5,0.21845639999992272,271.2199914999983,271.2199914999983,271.2199914999983,271.2199914999983,271.2199914999983,271.2199914999983,271.2199914999983,271.2199914999983,271.2199914999983,271.2199914999983,004,P003,2025_Jan_18_1138,ConditionRich,2021.2.3,59.93726965388717,
220.0,223.75,35,0.75,Stimuli/P003/things_satellite_dish_02s.jpg,0,0,0.0,0,95,95,95,,,,,,,,,,,,,220.00990690000071,0.009906900000714813,5,1.9516029000005801,271.48693419999836,271.48693419999836,271.48693419999836,271.48693419999836,271.48693419999836,271.48693419999836,271.48693419999836,271.48693419999836,271.48693419999836,271.48693419999836,004,P003,2025_Jan_18_1138,ConditionRich,2021.2.3,59.93726965388717,
223.75,224.0,41,0.0,Stimuli/Blank.png,0,0,0.0,0,96,96,96,,,,,,,,,,,,,223.77912370000013,0.029123700000127428,5,0.19815860000016983,275.2402132999996,275.2402132999996,275.2402132999996,275.2402132999996,275.2402132999996,275.2402132999996,275.2402132999996,275.2402132999996,275.2402132999996,275.2402132999996,004,P003,2025_Jan_18_1138,ConditionRich,2021.2.3,59.93726965388717,
224.0,227.75,4,0.75,Stimuli/P003/sun_albtqdieqkajejrg.jpg,0,0,0.0,0,97,97,97,,,,,,,,,,,,,224.01399700000002,0.013997000000017579,5,1.948090100000627,275.4904564999997,275.4904564999997,275.4904564999997,275.4904564999997,275.4904564999997,275.4904564999997,275.4904564999997,275.4904564999997,275.4904564999997,275.4904564999997,004,P003,2025_Jan_18_1138,ConditionRich,2021.2.3,59.93726965388717,
227.75,228.0,41,0.0,Stimuli/Blank.png,0,0,0.0,0,98,98,98,,,,,,,,,,,,,227.76621630000045,0.016216300000451156,None,,279.2270626999998,279.2270626999998,279.2270626999998,279.2270626999998,279.2270626999998,279.2270626999998,279.2270626999998,279.2270626999998,279.2270626999998,279.2270626999998,004,P003,2025_Jan_18_1138,ConditionRich,2021.2.3,59.93726965388717,
228.0,231.75,2,0.75,Stimuli/P003/sun_afijjzyziczoqdhz.jpg,0,0,0.0,0,99,99,99,,,,,,,,,,,,,227.9997643000006,-0.00023569999939354602,5,1.961329100000512,279.4773004999988,279.4773004999988,279.4773004999988,279.4773004999988,279.4773004999988,279.4773004999988,279.4773004999988,279.4773004999988,279.4773004999988,279.4773004999988,004,P003,2025_Jan_18_1138,ConditionRich,2021.2.3,59.93726965388717,
231.75,232.0,41,0.0,Stimuli/Blank.png,0,0,0.0,0,100,100,100,,,,,,,,,,,,,231.7695590000003,0.01955900000029942,None,,283.2305807999983,283.2305807999983,283.2305807999983,283.2305807999983,283.2305807999983,283.2305807999983,283.2305807999983,283.2305807999983,283.2305807999983,283.2305807999983,004,P003,2025_Jan_18_1138,ConditionRich,2021.2.3,59.93726965388717,
232.0,235.75,10,0.75,Stimuli/P003/sun_azzneunxibjvypza.jpg,0,0,0.0,0,101,101,101,,,,,,,,,,,,,232.0033843000001,0.0033843000001070322,5,1.95760700000028,283.4807725999999,283.4807725999999,283.4807725999999,283.4807725999999,283.4807725999999,283.4807725999999,283.4807725999999,283.4807725999999,283.4807725999999,283.4807725999999,004,P003,2025_Jan_18_1138,ConditionRich,2021.2.3,59.93726965388717,
235.75,236.0,41,0.0,Stimuli/Blank.png,0,0,0.0,0,102,102,102,,,,,,,,,,,,,235.7734091000002,0.023409100000208127,None,,287.2341007999985,287.2341007999985,287.2341007999985,287.2341007999985,287.2341007999985,287.2341007999985,287.2341007999985,287.2341007999985,287.2341007999985,287.2341007999985,004,P003,2025_Jan_18_1138,ConditionRich,2021.2.3,59.93726965388717,
236.0,239.75,18,0.75,Stimuli/P003/sun_bplhnzkztpigweny.jpg,0,0,0.0,0,103,103,103,,,,,,,,,,,,,236.00710729999992,0.007107299999915995,5,1.9708573000007164,287.46763799999826,287.46763799999826,287.46763799999826,287.46763799999826,287.46763799999826,287.46763799999826,287.46763799999826,287.46763799999826,287.46763799999826,287.46763799999826,004,P003,2025_Jan_18_1138,ConditionRich,2021.2.3,59.93726965388717,
239.75,240.0,41,0.0,Stimuli/Blank.png,0,0,0.0,0,104,104,104,,,,,,,,,,,,,239.76007930000014,0.010079300000143121,5,0.21738920000098005,291.22095309999895,291.22095309999895,291.22095309999895,291.22095309999895,291.22095309999895,291.22095309999895,291.22095309999895,291.22095309999895,291.22095309999895,291.22095309999895,004,P003,2025_Jan_18_1138,ConditionRich,2021.2.3,59.93726965388717,
240.0,243.75,14,0.75,Stimuli/P003/sun_bhhtrmwvoadbfucw.jpg,0,0,0.0,0,105,105,105,,,,,,,,,,,,,240.0125611000003,0.012561100000311853,5,1.9506030000011378,291.48787119999906,291.48787119999906,291.48787119999906,291.48787119999906,291.48787119999906,291.48787119999906,291.48787119999906,291.48787119999906,291.48787119999906,291.48787119999906,004,P003,2025_Jan_18_1138,ConditionRich,2021.2.3,59.93726965388717,
243.75,244.0,41,0.0,Stimuli/Blank.png,0,0,0.0,0,106,106,106,,,,,,,,,,,,,243.76391300000068,0.013913000000684406,5,0.21402569999918342,295.2244679999985,295.2244679999985,295.2244679999985,295.2244679999985,295.2244679999985,295.2244679999985,295.2244679999985,295.2244679999985,295.2244679999985,295.2244679999985,004,P003,2025_Jan_18_1138,ConditionRich,2021.2.3,59.93726965388717,
244.0,247.75,31,0.75,Stimuli/P003/things_pea_02s.jpg,0,0,0.0,0,107,107,107,,,,,,,,,,,,,244.01373430000058,0.013734300000578514,5,1.96367520000058,295.4746920999987,295.4746920999987,295.4746920999987,295.4746920999987,295.4746920999987,295.4746920999987,295.4746920999987,295.4746920999987,295.4746920999987,295.4746920999987,004,P003,2025_Jan_18_1138,ConditionRich,2021.2.3,59.93726965388717,
247.75,248.0,41,0.0,Stimuli/Blank.png,0,0,0.0,0,108,108,108,,,,,,,,,,,,,247.75106360000063,0.0010636000006343238,None,,299.21130829999856,299.21130829999856,299.21130829999856,299.21130829999856,299.21130829999856,299.21130829999856,299.21130829999856,299.21130829999856,299.21130829999856,299.21130829999856,004,P003,2025_Jan_18_1138,ConditionRich,2021.2.3,59.93726965388717,
248.0,251.75,12,0.75,Stimuli/P003/sun_bcboctumoxwpdefl.jpg,1,0,0.75,0,109,109,109,,,,,,,,,,,,,248.00103219999983,0.0010321999998268439,5,1.9770141000008152,299.4615283999992,299.4615283999992,299.4615283999992,299.4615283999992,299.4615283999992,299.4615283999992,299.4615283999992,300.19550209999943,299.4615283999992,299.4615283999992,004,P003,2025_Jan_18_1138,ConditionRich,2021.2.3,59.93726965388717,
251.75,252.0,41,0.0,Stimuli/Blank.png,0,0,0.0,0,110,110,110,,,,,,,,,,,,,251.75429260000055,0.004292600000553648,None,,303.21480919999885,303.21480919999885,303.21480919999885,303.21480919999885,303.21480919999885,303.21480919999885,303.21480919999885,303.21480919999885,303.21480919999885,303.21480919999885,004,P003,2025_Jan_18_1138,ConditionRich,2021.2.3,59.93726965388717,
252.0,255.75,1,0.75,Stimuli/P003/sun_adgmtzznutwlescq.jpg,0,0,0.0,0,111,111,111,,,,,,,,,,,,,252.0045914000002,0.004591400000208523,5,1.973559000000023,303.46506429999863,303.46506429999863,303.46506429999863,303.46506429999863,303.46506429999863,303.46506429999863,303.46506429999863,303.46506429999863,303.46506429999863,303.46506429999863,004,P003,2025_Jan_18_1138,ConditionRich,2021.2.3,59.93726965388717,
255.75,256.0,41,0.0,Stimuli/Blank.png,0,0,0.0,0,112,112,112,,,,,,,,,,,,,255.75773120000122,0.007731200001217076,None,,307.21835799999826,307.21835799999826,307.21835799999826,307.21835799999826,307.21835799999826,307.21835799999826,307.21835799999826,307.21835799999826,307.21835799999826,307.21835799999826,004,P003,2025_Jan_18_1138,ConditionRich,2021.2.3,59.93726965388717,
256.0,259.75,34,0.75,Stimuli/P003/things_roll_02s.jpg,0,0,0.0,0,113,113,113,,,,,,,,,,,,,256.00792290000027,0.007922900000266964,5,1.9697118000003684,307.4685764999995,307.4685764999995,307.4685764999995,307.4685764999995,307.4685764999995,307.4685764999995,307.4685764999995,307.4685764999995,307.4685764999995,307.4685764999995,004,P003,2025_Jan_18_1138,ConditionRich,2021.2.3,59.93726965388717,
259.75,260.0,41,0.0,Stimuli/Blank.png,0,0,0.0,0,114,114,114,,,,,,,,,,,,,259.7636261000007,0.013626100000692531,5,0.19975569999951404,311.2385627999993,311.2385627999993,311.2385627999993,311.2385627999993,311.2385627999993,311.2385627999993,311.2385627999993,311.2385627999993,311.2385627999993,311.2385627999993,004,P003,2025_Jan_18_1138,ConditionRich,2021.2.3,59.93726965388717,
260.0,263.75,26,0.75,Stimuli/P003/things_ham_02s.jpg,0,0,0.0,0,115,115,115,,,,,,,,,,,,,260.0284317000005,0.028431700000510318,5,1.9496309000005567,311.4887927,311.4887927,311.4887927,311.4887927,311.4887927,311.4887927,311.4887927,311.4887927,311.4887927,311.4887927,004,P003,2025_Jan_18_1138,ConditionRich,2021.2.3,59.93726965388717,
263.75,264.0,41,0.0,Stimuli/Blank.png,0,0,0.0,0,116,116,116,,,,,,,,,,,,,263.765656900001,0.015656900000976748,None,,315.22541889999957,315.22541889999957,315.22541889999957,315.22541889999957,315.22541889999957,315.22541889999957,315.22541889999957,315.22541889999957,315.22541889999957,315.22541889999957,004,P003,2025_Jan_18_1138,ConditionRich,2021.2.3,59.93726965388717,
264.0,267.75,38,0.75,Stimuli/P003/things_slug_02s.jpg,1,2,2.75,0,117,117,117,,,,,,,,,,,,,263.99852649999957,-0.0014735000004293397,1,2.411404300000868,315.45894729999964,315.45894729999964,315.45894729999964,315.45894729999964,315.45894729999964,315.45894729999964,317.4440661999997,318.1946922999996,315.45894729999964,315.45894729999964,004,P003,2025_Jan_18_1138,ConditionRich,2021.2.3,59.93726965388717,
267.75,268.0,41,0.0,Stimuli/Blank.png,0,0,0.0,0,118,118,118,,,,,,,,,,,,,267.7518516,0.0018516000000090571,None,,319.21224449999863,319.21224449999863,319.21224449999863,319.21224449999863,319.21224449999863,319.21224449999863,319.21224449999863,319.21224449999863,319.21224449999863,319.21224449999863,004,P003,2025_Jan_18_1138,ConditionRich,2021.2.3,59.93726965388717,
268.0,271.75,30,0.75,Stimuli/P003/things_music_box_02s.jpg,0,0,0.0,0,119,119,119,,,,,,,,,,,,,268.0027725,0.002772499999991851,5,1.9591442000000825,319.4791677999983,319.4791677999983,319.4791677999983,319.4791677999983,319.4791677999983,319.4791677999983,319.4791677999983,319.4791677999983,319.4791677999983,319.4791677999983,004,P003,2025_Jan_18_1138,ConditionRich,2021.2.3,59.93726965388717,
271.75,272.0,41,0.0,Stimuli/Blank.png,0,0,0.0,0,120,120,120,,,,,,,,,,,,,271.7722747000007,0.022274700000707526,None,,323.2324540999998,323.2324540999998,323.2324540999998,323.2324540999998,323.2324540999998,323.2324540999998,323.2324540999998,323.2324540999998,323.2324540999998,323.2324540999998,004,P003,2025_Jan_18_1138,ConditionRich,2021.2.3,59.93726965388717,
272.0,275.75,33,0.75,Stimuli/P003/things_recorder_02s.jpg,0,0,0.0,0,121,121,121,,,,,,,,,,,,,272.00755800000115,0.0075580000011541415,5,1.9558684999992693,323.48268949999874,323.48268949999874,323.48268949999874,323.48268949999874,323.48268949999874,323.48268949999874,323.48268949999874,323.48268949999874,323.48268949999874,323.48268949999874,004,P003,2025_Jan_18_1138,ConditionRich,2021.2.3,59.93726965388717,
275.75,276.0,41,0.0,Stimuli/Blank.png,0,0,0.0,0,122,122,122,,,,,,,,,,,,,275.77620150000075,0.026201500000752276,None,,327.23599269999977,327.23599269999977,327.23599269999977,327.23599269999977,327.23599269999977,327.23599269999977,327.23599269999977,327.23599269999977,327.23599269999977,327.23599269999977,004,P003,2025_Jan_18_1138,ConditionRich,2021.2.3,59.93726965388717,
276.0,292.0,0,0.0,Stimuli/Blank.png,1,2,2.75,0,123,123,123,,,,,,,,,,,,,276.00873390000015,0.008733900000152062,5,13.968791900000724,327.4695181999996,327.4695181999996,327.4695181999996,327.4695181999996,327.4695181999996,327.4695181999996,329.4546481999987,330.2052477999987,327.4695181999996,327.4695181999996,004,P003,2025_Jan_18_1138,ConditionRich,2021.2.3,59.93726965388717,
292.0,295.75,23,0.75,Stimuli/P003/things_butterfly_02s.jpg,0,0,0.0,0,124,124,124,,,,,,,,,,,,,292.0066557000009,0.006655700000919751,5,1.9546700000009878,343.48360839999987,343.48360839999987,343.48360839999987,343.48360839999987,343.48360839999987,343.48360839999987,343.48360839999987,343.48360839999987,343.48360839999987,343.48360839999987,004,P003,2025_Jan_18_1138,ConditionRich,2021.2.3,59.93726965388717,
295.75,296.0,41,0.0,Stimuli/Blank.png,0,0,0.0,0,125,125,125,,,,,,,,,,,,,295.77578449999965,0.02578449999964505,5,0.2013055000006716,347.2369199999994,347.2369199999994,347.2369199999994,347.2369199999994,347.2369199999994,347.2369199999994,347.2369199999994,347.2369199999994,347.2369199999994,347.2369199999994,004,P003,2025_Jan_18_1138,ConditionRich,2021.2.3,59.93726965388717,
296.0,299.75,8,0.75,Stimuli/P003/sun_asxkyzleyfgbqfrs.jpg,0,0,0.0,0,126,126,126,,,,,,,,,,,,,296.01253240000005,0.012532400000054622,5,1.9510998000005202,347.4871399999993,347.4871399999993,347.4871399999993,347.4871399999993,347.4871399999993,347.4871399999993,347.4871399999993,347.4871399999993,347.4871399999993,347.4871399999993,004,P003,2025_Jan_18_1138,ConditionRich,2021.2.3,59.93726965388717,
299.75,300.0,41,0.0,Stimuli/Blank.png,0,0,0.0,0,127,127,127,,,,,,,,,,,,,299.7631973999996,0.013197399999626214,5,0.21455459999924642,351.2237544999989,351.2237544999989,351.2237544999989,351.2237544999989,351.2237544999989,351.2237544999989,351.2237544999989,351.2237544999989,351.2237544999989,351.2237544999989,004,P003,2025_Jan_18_1138,ConditionRich,2021.2.3,59.93726965388717,
300.0,303.75,6,0.75,Stimuli/P003/sun_aoumkoxfhlaobjef.jpg,0,0,0.0,0,128,128,128,,,,,,,,,,,,,300.013579800001,0.013579800001025433,5,1.9641589999991993,351.4739746999985,351.4739746999985,351.4739746999985,351.4739746999985,351.4739746999985,351.4739746999985,351.4739746999985,351.4739746999985,351.4739746999985,351.4739746999985,004,P003,2025_Jan_18_1138,ConditionRich,2021.2.3,59.93726965388717,
303.75,304.0,41,0.0,Stimuli/Blank.png,0,0,0.0,0,129,129,129,,,,,,,,,,,,,303.7509091000011,0.0009091000010812422,None,,355.2106135999984,355.2106135999984,355.2106135999984,355.2106135999984,355.2106135999984,355.2106135999984,355.2106135999984,355.2106135999984,355.2106135999984,355.2106135999984,004,P003,2025_Jan_18_1138,ConditionRich,2021.2.3,59.93726965388717,
304.0,307.75,29,0.75,Stimuli/P003/things_mat_02s.jpg,0,0,0.0,0,130,130,130,,,,,,,,,,,,,304.00276590000067,0.002765900000667898,5,1.9607560999993439,355.4775007999997,355.4775007999997,355.4775007999997,355.4775007999997,355.4775007999997,355.4775007999997,355.4775007999997,355.4775007999997,355.4775007999997,355.4775007999997,004,P003,2025_Jan_18_1138,ConditionRich,2021.2.3,59.93726965388717,
307.75,308.0,41,0.0,Stimuli/Blank.png,0,0,0.0,0,131,131,131,,,,,,,,,,,,,307.77224170000045,0.022241700000449782,5,0.19066960000054678,359.24748829999953,359.24748829999953,359.24748829999953,359.24748829999953,359.24748829999953,359.24748829999953,359.24748829999953,359.24748829999953,359.24748829999953,359.24748829999953,004,P003,2025_Jan_18_1138,ConditionRich,2021.2.3,59.93726965388717,
308.0,311.75,11,0.75,Stimuli/P003/sun_bawmjlzsuuivqjhi.jpg,0,0,0.0,0,132,132,132,,,,,,,,,,,,,308.02077590000044,0.02077590000044438,5,1.9574167000009766,359.4810269999998,359.4810269999998,359.4810269999998,359.4810269999998,359.4810269999998,359.4810269999998,359.4810269999998,359.4810269999998,359.4810269999998,359.4810269999998,004,P003,2025_Jan_18_1138,ConditionRich,2021.2.3,59.93726965388717,
311.75,312.0,41,0.0,Stimuli/Blank.png,0,0,0.0,0,133,133,133,,,,,,,,,,,,,311.7565680000007,0.0065680000006977934,None,,363.2176614,363.2176614,363.2176614,363.2176614,363.2176614,363.2176614,363.2176614,363.2176614,363.2176614,363.2176614,004,P003,2025_Jan_18_1138,ConditionRich,2021.2.3,59.93726965388717,
312.0,315.75,24,0.75,Stimuli/P003/things_dumpling_02s.jpg,0,0,0.0,0,134,134,134,,,,,,,,,,,,,312.0066846999998,0.006684699999823351,5,1.9703685000004043,363.4678679999997,363.4678679999997,363.4678679999997,363.4678679999997,363.4678679999997,363.4678679999997,363.4678679999997,363.4678679999997,363.4678679999997,363.4678679999997,004,P003,2025_Jan_18_1138,ConditionRich,2021.2.3,59.93726965388717,
315.75,316.0,41,0.0,Stimuli/Blank.png,0,0,0.0,0,135,135,135,,,,,,,,,,,,,315.76267329999973,0.01267329999973299,5,0.2004343999997218,367.2378581999983,367.2378581999983,367.2378581999983,367.2378581999983,367.2378581999983,367.2378581999983,367.2378581999983,367.2378581999983,367.2378581999983,367.2378581999983,004,P003,2025_Jan_18_1138,ConditionRich,2021.2.3,59.93726965388717,
316.0,319.75,5,0.75,Stimuli/P003/sun_amnnxdwfjbdfumns.jpg,0,0,0.0,0,136,136,136,,,,,,,,,,,,,316.0284939000012,0.02849390000119456,5,1.9334754000010435,367.5047599999998,367.5047599999998,367.5047599999998,367.5047599999998,367.5047599999998,367.5047599999998,367.5047599999998,367.5047599999998,367.5047599999998,367.5047599999998,004,P003,2025_Jan_18_1138,ConditionRich,2021.2.3,59.93726965388717,
319.75,320.0,41,0.0,Stimuli/Blank.png,0,0,0.0,0,137,137,137,,,,,,,,,,,,,319.78267290000076,0.03267290000076173,5,0.17999349999990955,371.2580648999992,371.2580648999992,371.2580648999992,371.2580648999992,371.2580648999992,371.2580648999992,371.2580648999992,371.2580648999992,371.2580648999992,371.2580648999992,004,P003,2025_Jan_18_1138,ConditionRich,2021.2.3,59.93726965388717,
320.0,323.75,25,0.75,Stimuli/P003/things_girl_02s.jpg,1,0,0.75,0,138,138,138,,,,,,,,,,,,,320.0146373000007,0.014637300000686082,5,1.946530500001245,371.4915953,371.4915953,371.4915953,371.4915953,371.4915953,371.4915953,371.4915953,372.2088970999994,371.4915953,371.4915953,004,P003,2025_Jan_18_1138,ConditionRich,2021.2.3,59.93726965388717,
323.75,324.0,41,0.0,Stimuli/Blank.png,0,0,0.0,0,139,139,139,,,,,,,,,,,,,323.7681855999999,0.018185599999924307,None,,375.22827199999847,375.22827199999847,375.22827199999847,375.22827199999847,375.22827199999847,375.22827199999847,375.22827199999847,375.22827199999847,375.22827199999847,375.22827199999847,004,P003,2025_Jan_18_1138,ConditionRich,2021.2.3,59.93726965388717,
324.0,327.75,20,0.75,Stimuli/P003/sun_bwytihadgigwkyht.jpg,0,0,0.0,0,140,140,140,,,,,,,,,,,,,324.00309709999965,0.0030970999996497994,5,1.9600357999988773,375.47844169999917,375.47844169999917,375.47844169999917,375.47844169999917,375.47844169999917,375.47844169999917,375.47844169999917,375.47844169999917,375.47844169999917,375.47844169999917,004,P003,2025_Jan_18_1138,ConditionRich,2021.2.3,59.93726965388717,
327.75,328.0,41,0.0,Stimuli/Blank.png,0,0,0.0,0,141,141,141,,,,,,,,,,,,,327.7736517000012,0.023651700001209974,5,0.18992380000054254,379.248437799999,379.248437799999,379.248437799999,379.248437799999,379.248437799999,379.248437799999,379.248437799999,379.248437799999,379.248437799999,379.248437799999,004,P003,2025_Jan_18_1138,ConditionRich,2021.2.3,59.93726965388717,
328.0,331.75,40,0.75,Stimuli/P003/things_woman_02s.jpg,0,0,0.0,0,142,142,142,,,,,,,,,,,,,328.02150489999985,0.021504899999854388,5,1.9560991999987891,379.48196799999823,379.48196799999823,379.48196799999823,379.48196799999823,379.48196799999823,379.48196799999823,379.48196799999823,379.48196799999823,379.48196799999823,379.48196799999823,004,P003,2025_Jan_18_1138,ConditionRich,2021.2.3,59.93726965388717,
331.75,332.0,41,0.0,Stimuli/Blank.png,0,0,0.0,0,143,143,143,,,,,,,,,,,,,331.7583058,0.008305800000016461,None,,383.21856639999896,383.21856639999896,383.21856639999896,383.21856639999896,383.21856639999896,383.21856639999896,383.21856639999896,383.21856639999896,383.21856639999896,383.21856639999896,004,P003,2025_Jan_18_1138,ConditionRich,2021.2.3,59.93726965388717,
332.0,335.75,9,0.75,Stimuli/P003/sun_auqtrqkaobyprnjy.jpg,1,1,1.75,0,144,144,144,,,,,,,,,,,,,332.0084994000008,0.00849940000080096,5,1.9693167000004905,383.46880019999844,383.46880019999844,383.46880019999844,383.46880019999844,383.46880019999844,383.46880019999844,384.45299069999965,385.20366169999943,383.46880019999844,383.46880019999844,004,P003,2025_Jan_18_1138,ConditionRich,2021.2.3,59.93726965388717,
335.75,336.0,41,0.0,Stimuli/Blank.png,0,0,0.0,0,145,145,145,,,,,,,,,,,,,335.76157559999956,0.011575599999559927,5,0.21596540000064124,387.22211889999926,387.22211889999926,387.22211889999926,387.22211889999926,387.22211889999926,387.22211889999926,387.22211889999926,387.22211889999926,387.22211889999926,387.22211889999926,004,P003,2025_Jan_18_1138,ConditionRich,2021.2.3,59.93726965388717,
336.0,339.75,3,0.75,Stimuli/P003/sun_afqjzrocqhabifao.jpg,1,0,0.75,0,146,146,146,,,,,,,,,,,,,336.01189410000006,0.01189410000006319,5,1.9490616000002774,387.48902279999857,387.48902279999857,387.48902279999857,387.48902279999857,387.48902279999857,387.48902279999857,387.48902279999857,388.20632529999966,387.48902279999857,387.48902279999857,004,P003,2025_Jan_18_1138,ConditionRich,2021.2.3,59.93726965388717,
339.75,340.0,41,0.0,Stimuli/Blank.png,0,0,0.0,0,147,147,147,,,,,,,,,,,,,339.7826170999997,0.03261709999969753,None,,391.24232559999837,391.24232559999837,391.24232559999837,391.24232559999837,391.24232559999837,391.24232559999837,391.24232559999837,391.24232559999837,391.24232559999837,391.24232559999837,004,P003,2025_Jan_18_1138,ConditionRich,2021.2.3,59.93726965388717,
340.0,343.75,27,0.75,Stimuli/P003/things_llama_02s.jpg,0,0,0.0,0,148,148,148,,,,,,,,,,,,,339.99856610000097,-0.0014338999990286538,5,1.9790419000000838,391.45917089999966,391.45917089999966,391.45917089999966,391.45917089999966,391.45917089999966,391.45917089999966,391.45917089999966,391.45917089999966,391.45917089999966,391.45917089999966,004,P003,2025_Jan_18_1138,ConditionRich,2021.2.3,59.93726965388717,
343.75,344.0,41,0.0,Stimuli/Blank.png,0,0,0.0,0,149,149,149,,,,,,,,,,,,,343.75157450000006,0.0015745000000606524,None,,395.21246899999824,395.21246899999824,395.21246899999824,395.21246899999824,395.21246899999824,395.21246899999824,395.21246899999824,395.21246899999824,395.21246899999824,395.21246899999824,004,P003,2025_Jan_18_1138,ConditionRich,2021.2.3,59.93726965388717,
344.0,347.75,28,0.75,Stimuli/P003/things_man_02s.jpg,1,1,1.75,0,150,150,150,,,,,,,,,,,,,344.0024962999996,0.0024962999996205326,5,1.9586189000001468,395.4793918999985,395.4793918999985,395.4793918999985,395.4793918999985,395.4793918999985,395.4793918999985,396.44688849999875,397.1975576999994,395.4793918999985,395.4793918999985,004,P003,2025_Jan_18_1138,ConditionRich,2021.2.3,59.93726965388717,
347.75,348.0,41,0.0,Stimuli/Blank.png,0,0,0.0,0,151,151,151,,,,,,,,,,,,,347.7720547000008,0.022054700000808225,None,,399.23268199999984,399.23268199999984,399.23268199999984,399.23268199999984,399.23268199999984,399.23268199999984,399.23268199999984,399.23268199999984,399.23268199999984,399.23268199999984,004,P003,2025_Jan_18_1138,ConditionRich,2021.2.3,59.93726965388717,
348.0,351.75,7,0.75,Stimuli/P003/sun_asgixjtedklbawgm.jpg,0,0,0.0,0,152,152,152,,,,,,,,,,,,,348.00716400000056,0.00716400000055728,5,1.9553813000002265,399.4829054999991,399.4829054999991,399.4829054999991,399.4829054999991,399.4829054999991,399.4829054999991,399.4829054999991,399.4829054999991,399.4829054999991,399.4829054999991,004,P003,2025_Jan_18_1138,ConditionRich,2021.2.3,59.93726965388717,
351.75,352.0,41,0.0,Stimuli/Blank.png,0,0,0.0,0,153,153,153,,,,,,,,,,,,,351.7763305999997,0.026330599999710103,None,,403.2362046999988,403.2362046999988,403.2362046999988,403.2362046999988,403.2362046999988,403.2362046999988,403.2362046999988,403.2362046999988,403.2362046999988,403.2362046999988,004,P003,2025_Jan_18_1138,ConditionRich,2021.2.3,59.93726965388717,
352.0,355.75,21,0.75,Stimuli/P003/things_baby_02s.jpg,1,2,2.75,0,154,154,154,,,,,,,,,,,,,352.008984600001,0.008984600000985665,1,2.4255130000001373,403.4697408999982,403.4697408999982,403.4697408999982,403.4697408999982,403.4697408999982,403.4697408999982,405.45485369999915,406.2055290999997,403.4697408999982,403.4697408999982,004,P003,2025_Jan_18_1138,ConditionRich,2021.2.3,59.93726965388717,
355.75,356.0,41,0.0,Stimuli/Blank.png,0,0,0.0,0,155,155,155,,,,,,,,,,,,,355.7626187999995,0.012618799999472685,5,0.21504340000137745,407.22305119999874,407.22305119999874,407.22305119999874,407.22305119999874,407.22305119999874,407.22305119999874,407.22305119999874,407.22305119999874,407.22305119999874,407.22305119999874,004,P003,2025_Jan_18_1138,ConditionRich,2021.2.3,59.93726965388717,
356.0,359.75,37,0.75,Stimuli/P003/things_ski_lift_02s.jpg,0,0,0.0,0,156,156,156,,,,,,,,,,,,,356.01359820000107,0.013598200001069927,5,1.9489486000002216,407.48995939999986,407.48995939999986,407.48995939999986,407.48995939999986,407.48995939999986,407.48995939999986,407.48995939999986,407.48995939999986,407.48995939999986,407.48995939999986,004,P003,2025_Jan_18_1138,ConditionRich,2021.2.3,59.93726965388717,
359.75,360.0,41,0.0,Stimuli/Blank.png,0,0,0.0,0,157,157,157,,,,,,,,,,,,,359.7658723000004,0.015872300000410178,None,,411.2265564999998,411.2265564999998,411.2265564999998,411.2265564999998,411.2265564999998,411.2265564999998,411.2265564999998,411.2265564999998,411.2265564999998,411.2265564999998,004,P003,2025_Jan_18_1138,ConditionRich,2021.2.3,59.93726965388717,
360.0,363.75,17,0.75,Stimuli/P003/sun_bojovhhraxtgafcy.jpg,0,0,0.0,0,158,158,158,,,,,,,,,,,,,359.99956399999974,-0.0004360000002634479,5,1.9780250999992859,411.4601141999992,411.4601141999992,411.4601141999992,411.4601141999992,411.4601141999992,411.4601141999992,411.4601141999992,411.4601141999992,411.4601141999992,411.4601141999992,004,P003,2025_Jan_18_1138,ConditionRich,2021.2.3,59.93726965388717,
363.75,364.0,41,0.0,Stimuli/Blank.png,0,0,0.0,0,159,159,159,,,,,,,,,,,,,363.7531282,0.0031281999999919208,None,,415.2134060999997,415.2134060999997,415.2134060999997,415.2134060999997,415.2134060999997,415.2134060999997,415.2134060999997,415.2134060999997,415.2134060999997,415.2134060999997,004,P003,2025_Jan_18_1138,ConditionRich,2021.2.3,59.93726965388717,
364.0,367.75,13,0.75,Stimuli/P003/sun_bhbiqbqmwrowrqpd.jpg,0,0,0.0,0,160,160,160,,,,,,,,,,,,,364.00307840000096,0.0030784000009589363,5,1.9753336000012496,415.4636252,415.4636252,415.4636252,415.4636252,415.4636252,415.4636252,415.4636252,415.4636252,415.4636252,415.4636252,004,P003,2025_Jan_18_1138,ConditionRich,2021.2.3,59.93726965388717,
367.75,368.0,41,0.0,Stimuli/Blank.png,0,0,0.0,0,161,161,161,,,,,,,,,,,,,367.7559312000012,0.005931200001214165,None,,419.21692319999966,419.21692319999966,419.21692319999966,419.21692319999966,419.21692319999966,419.21692319999966,419.21692319999966,419.21692319999966,419.21692319999966,419.21692319999966,004,P003,2025_Jan_18_1138,ConditionRich,2021.2.3,59.93726965388717,
368.0,371.75,19,0.75,Stimuli/P003/sun_bucebxfexknakpma.jpg,0,0,0.0,0,162,162,162,,,,,,,,,,,,,368.0068143999997,0.006814399999711895,5,1.955186399998638,419.4838308999988,419.4838308999988,419.4838308999988,419.4838308999988,419.4838308999988,419.4838308999988,419.4838308999988,419.4838308999988,419.4838308999988,419.4838308999988,004,P003,2025_Jan_18_1138,ConditionRich,2021.2.3,59.93726965388717,
371.75,372.0,41,0.0,Stimuli/Blank.png,0,0,0.0,0,163,163,163,,,,,,,,,,,,,371.7768616000012,0.026861600001211627,5,0.20183689999976195,423.23715489999995,423.23715489999995,423.23715489999995,423.23715489999995,423.23715489999995,423.23715489999995,423.23715489999995,423.23715489999995,423.23715489999995,423.23715489999995,004,P003,2025_Jan_18_1138,ConditionRich,2021.2.3,59.93726965388717,
372.0,388.0,0,0.0,Stimuli/Blank.png,1,7,7.75,0,164,164,164,,,,,,,,,,,,,372.012529900001,0.012529900001027272,5,13.951786299998275,423.4873693999998,423.4873693999998,423.4873693999998,423.4873693999998,423.4873693999998,423.4873693999998,430.4602815999988,431.21083839999847,423.4873693999998,423.4873693999998,004,P003,2025_Jan_18_1138,ConditionRich,2021.2.3,59.93726965388717,
