eventStartTime,eventEndTime,eventCond,imSize,imFile,responseEvent,fixRespStart,fixRespEnd,Events.thisRepN,Events.thisTrialN,Events.thisN,Events.thisIndex,Instructions.started,Instructions.stopped,participantReadyResponse.keys,participantReadyResponse.rt,participantReadyResponse.started,participantReadyResponse.stopped,startWaitforTrigger,triggerResponse.keys,triggerResponse.rt,triggerResponse.started,triggerResponse.stopped,globalTimer,actualStartTime,startTimingDiff,participantResponse.keys,participantResponse.rt,participantResponse.started,participantResponse.stopped,image.started,image.stopped,fixationOutside.started,fixationOutside.stopped,fixationResponse.started,fixationResponse.stopped,fixationInside.started,fixationInside.stopped,session,participant,date,expName,psychopyVersion,frameRate,
,,,,,,,,,,,,17.12495730000046,None,1,2.6671523000004527,17.12495730000046,None,,,,,,,,,,,,,,,,,,,,,008,P003,2025_Jan_18_1214,ConditionRich,2021.2.3,59.940179700904935,
,,,,,,,,,,,,,,,,,,19.795994000000064,5,15.519558899999538,19.808820900001592,None,,,,,,,,,,,,,,,,008,P003,2025_Jan_18_1214,ConditionRich,2021.2.3,59.940179700904935,
0.0,4.0,0,0.0,Stimuli/Blank.png,0,0.0,0.0,0,0,0,0,,,,,,,,,,,,35.34311750000052,0.03902310000012221,0.03902310000012221,5,3.922323500000857,35.405837500000416,None,35.405837500000416,None,35.405837500000416,None,35.405837500000416,35.405837500000416,35.405837500000416,None,008,P003,2025_Jan_18_1214,ConditionRich,2021.2.3,59.940179700904935,
4.0,4.75,22,0.75,Stimuli/P003/things_boy_02s.jpg,0,0.0,0.0,0,1,1,1,,,,,,,,,,,,,4.023188900000605,0.023188900000604917,None,,39.392975300001126,39.392975300001126,39.392975300001126,39.392975300001126,39.392975300001126,39.392975300001126,39.392975300001126,39.392975300001126,39.392975300001126,39.392975300001126,008,P003,2025_Jan_18_1214,ConditionRich,2021.2.3,59.940179700904935,
4.75,8.0,41,0.0,Stimuli/Blank.png,1,2.25,3.0,0,2,2,2,,,,,,,,,,,,,4.7709670000003825,0.02096700000038254,5,3.184487000000445,40.143588900000395,40.143588900000395,40.143588900000395,40.143588900000395,40.143588900000395,40.143588900000395,42.37868510000044,43.129343399999925,40.143588900000395,40.143588900000395,008,P003,2025_Jan_18_1214,ConditionRich,2021.2.3,59.940179700904935,
8.0,8.75,28,0.75,Stimuli/P003/things_man_02s.jpg,0,0.0,0.0,0,3,3,3,,,,,,,,,,,,,8.02192500000092,0.02192500000091968,None,,43.3795310000005,43.3795310000005,43.3795310000005,43.3795310000005,43.3795310000005,43.3795310000005,43.3795310000005,43.3795310000005,43.3795310000005,43.3795310000005,008,P003,2025_Jan_18_1214,ConditionRich,2021.2.3,59.940179700904935,
8.75,12.0,41,0.0,Stimuli/Blank.png,0,0.0,0.0,0,4,4,4,,,,,,,,,,,,,8.75653130000137,0.006531300001370255,5,3.2144688999997015,44.11351000000104,44.11351000000104,44.11351000000104,44.11351000000104,44.11351000000104,44.11351000000104,44.11351000000104,44.11351000000104,44.11351000000104,44.11351000000104,008,P003,2025_Jan_18_1214,ConditionRich,2021.2.3,59.940179700904935,
12.0,12.75,32,0.75,Stimuli/P003/things_pulley_02s.jpg,0,0.0,0.0,0,5,5,5,,,,,,,,,,,,,12.009198800000377,0.00919880000037665,None,,47.36636570000155,47.36636570000155,47.36636570000155,47.36636570000155,47.36636570000155,47.36636570000155,47.36636570000155,47.36636570000155,47.36636570000155,47.36636570000155,008,P003,2025_Jan_18_1214,ConditionRich,2021.2.3,59.940179700904935,
12.75,16.0,41,0.0,Stimuli/Blank.png,0,0.0,0.0,0,6,6,6,,,,,,,,,,,,,12.760163599999942,0.010163599999941653,5,3.2111677000011696,48.11703280000074,48.11703280000074,48.11703280000074,48.11703280000074,48.11703280000074,48.11703280000074,48.11703280000074,48.11703280000074,48.11703280000074,48.11703280000074,008,P003,2025_Jan_18_1214,ConditionRich,2021.2.3,59.940179700904935,
16.0,16.75,14,0.75,Stimuli/P003/sun_bhhtrmwvoadbfucw.jpg,0,0.0,0.0,0,7,7,7,,,,,,,,,,,,,16.012765700001182,0.012765700001182267,None,,51.38657950000015,51.38657950000015,51.38657950000015,51.38657950000015,51.38657950000015,51.38657950000015,51.38657950000015,51.38657950000015,51.38657950000015,51.38657950000015,008,P003,2025_Jan_18_1214,ConditionRich,2021.2.3,59.940179700904935,
16.75,20.0,41,0.0,Stimuli/Blank.png,0,0.0,0.0,0,8,8,8,,,,,,,,,,,,,16.779950900001495,0.02995090000149503,5,1.1910126000002492,52.13723639999989,52.13723639999989,52.13723639999989,52.13723639999989,52.13723639999989,52.13723639999989,52.13723639999989,52.13723639999989,52.13723639999989,52.13723639999989,008,P003,2025_Jan_18_1214,ConditionRich,2021.2.3,59.940179700904935,
20.0,20.75,7,0.75,Stimuli/P003/sun_asgixjtedklbawgm.jpg,0,0.0,0.0,0,9,9,9,,,,,,,,,,,,,20.002090300000418,0.0020903000004182104,None,,55.37342080000053,55.37342080000053,55.37342080000053,55.37342080000053,55.37342080000053,55.37342080000053,55.37342080000053,55.37342080000053,55.37342080000053,55.37342080000053,008,P003,2025_Jan_18_1214,ConditionRich,2021.2.3,59.940179700904935,
20.75,24.0,41,0.0,Stimuli/Blank.png,0,0.0,0.0,0,10,10,10,,,,,,,,,,,,,20.76693610000075,0.01693610000074841,5,3.2039649000016652,56.124072600001455,56.124072600001455,56.124072600001455,56.124072600001455,56.124072600001455,56.124072600001455,56.124072600001455,56.124072600001455,56.124072600001455,56.124072600001455,008,P003,2025_Jan_18_1214,ConditionRich,2021.2.3,59.940179700904935,
24.0,24.75,31,0.75,Stimuli/P003/things_pea_02s.jpg,0,0.0,0.0,0,11,11,11,,,,,,,,,,,,,24.00304380000125,0.003043800001250929,None,,59.376950800000486,59.376950800000486,59.376950800000486,59.376950800000486,59.376950800000486,59.376950800000486,59.376950800000486,59.376950800000486,59.376950800000486,59.376950800000486,008,P003,2025_Jan_18_1214,ConditionRich,2021.2.3,59.940179700904935,
24.75,28.0,41,0.0,Stimuli/Blank.png,0,0.0,0.0,0,12,12,12,,,,,,,,,,,,,24.769997700001113,0.019997700001113117,5,3.2004897000006167,60.12759440000082,60.12759440000082,60.12759440000082,60.12759440000082,60.12759440000082,60.12759440000082,60.12759440000082,60.12759440000082,60.12759440000082,60.12759440000082,008,P003,2025_Jan_18_1214,ConditionRich,2021.2.3,59.940179700904935,
28.0,28.75,4,0.75,Stimuli/P003/sun_albtqdieqkajejrg.jpg,0,0.0,0.0,0,13,13,13,,,,,,,,,,,,,28.00643200000013,0.006432000000131666,None,,63.363783500000864,63.363783500000864,63.363783500000864,63.363783500000864,63.363783500000864,63.363783500000864,63.363783500000864,63.363783500000864,63.363783500000864,63.363783500000864,008,P003,2025_Jan_18_1214,ConditionRich,2021.2.3,59.940179700904935,
28.75,32.0,41,0.0,Stimuli/Blank.png,0,0.0,0.0,0,14,14,14,,,,,,,,,,,,,28.756872300000396,0.006872300000395626,5,3.2136977999998635,64.11443950000103,64.11443950000103,64.11443950000103,64.11443950000103,64.11443950000103,64.11443950000103,64.11443950000103,64.11443950000103,64.11443950000103,64.11443950000103,008,P003,2025_Jan_18_1214,ConditionRich,2021.2.3,59.940179700904935,
32.0,32.75,25,0.75,Stimuli/P003/things_girl_02s.jpg,0,0.0,0.0,0,15,15,15,,,,,,,,,,,,,32.00955780000004,0.009557800000038696,None,,67.36730870000065,67.36730870000065,67.36730870000065,67.36730870000065,67.36730870000065,67.36730870000065,67.36730870000065,67.36730870000065,67.36730870000065,67.36730870000065,008,P003,2025_Jan_18_1214,ConditionRich,2021.2.3,59.940179700904935,
32.75,36.0,41,0.0,Stimuli/Blank.png,1,1.25,2.0,0,16,16,16,,,,,,,,,,,,,32.760949999999866,0.010949999999866122,5,3.210034199999427,68.11797150000166,68.11797150000166,68.11797150000166,68.11797150000166,68.11797150000166,68.11797150000166,69.35238690000006,70.10304350000115,68.11797150000166,68.11797150000166,008,P003,2025_Jan_18_1214,ConditionRich,2021.2.3,59.940179700904935,
36.0,36.75,23,0.75,Stimuli/P003/things_butterfly_02s.jpg,0,0.0,0.0,0,17,17,17,,,,,,,,,,,,,36.01371790000121,0.013717900001211092,None,,71.37082720000035,71.37082720000035,71.37082720000035,71.37082720000035,71.37082720000035,71.37082720000035,71.37082720000035,71.37082720000035,71.37082720000035,71.37082720000035,008,P003,2025_Jan_18_1214,ConditionRich,2021.2.3,59.940179700904935,
36.75,40.0,41,0.0,Stimuli/Blank.png,0,0.0,0.0,0,18,18,18,,,,,,,,,,,,,36.76393950000056,0.013939500000560656,5,1.2066921000005095,72.12153600000056,72.12153600000056,72.12153600000056,72.12153600000056,72.12153600000056,72.12153600000056,72.12153600000056,72.12153600000056,72.12153600000056,72.12153600000056,008,P003,2025_Jan_18_1214,ConditionRich,2021.2.3,59.940179700904935,
40.0,40.75,18,0.75,Stimuli/P003/sun_bplhnzkztpigweny.jpg,0,0.0,0.0,0,19,19,19,,,,,,,,,,,,,40.000011000000086,1.1000000085914508e-05,None,,75.35767870000018,75.35767870000018,75.35767870000018,75.35767870000018,75.35767870000018,75.35767870000018,75.35767870000018,75.35767870000018,75.35767870000018,75.35767870000018,008,P003,2025_Jan_18_1214,ConditionRich,2021.2.3,59.940179700904935,
40.75,44.0,41,0.0,Stimuli/Blank.png,0,0.0,0.0,0,20,20,20,,,,,,,,,,,,,40.75113170000077,0.0011317000007693423,5,3.2196750000002794,76.10833930000081,76.10833930000081,76.10833930000081,76.10833930000081,76.10833930000081,76.10833930000081,76.10833930000081,76.10833930000081,76.10833930000081,76.10833930000081,008,P003,2025_Jan_18_1214,ConditionRich,2021.2.3,59.940179700904935,
44.0,44.75,15,0.75,Stimuli/P003/sun_bjhtdevvocmwtavk.jpg,0,0.0,0.0,0,21,21,21,,,,,,,,,,,,,44.00419529999999,0.00419529999999213,None,,79.3611963000003,79.3611963000003,79.3611963000003,79.3611963000003,79.3611963000003,79.3611963000003,79.3611963000003,79.3611963000003,79.3611963000003,79.3611963000003,008,P003,2025_Jan_18_1214,ConditionRich,2021.2.3,59.940179700904935,
44.75,48.0,41,0.0,Stimuli/Blank.png,0,0.0,0.0,0,22,22,22,,,,,,,,,,,,,44.755235800001174,0.005235800001173629,5,3.2161486000004516,80.11186240000097,80.11186240000097,80.11186240000097,80.11186240000097,80.11186240000097,80.11186240000097,80.11186240000097,80.11186240000097,80.11186240000097,80.11186240000097,008,P003,2025_Jan_18_1214,ConditionRich,2021.2.3,59.940179700904935,
48.0,48.75,19,0.75,Stimuli/P003/sun_bucebxfexknakpma.jpg,0,0.0,0.0,0,23,23,23,,,,,,,,,,,,,48.00743800000055,0.007438000000547618,None,,83.38144080000166,83.38144080000166,83.38144080000166,83.38144080000166,83.38144080000166,83.38144080000166,83.38144080000166,83.38144080000166,83.38144080000166,83.38144080000166,008,P003,2025_Jan_18_1214,ConditionRich,2021.2.3,59.940179700904935,
48.75,52.0,41,0.0,Stimuli/Blank.png,0,0.0,0.0,0,24,24,24,,,,,,,,,,,,,48.77491360000022,0.02491360000021814,5,3.1959716999990633,84.13205790000029,84.13205790000029,84.13205790000029,84.13205790000029,84.13205790000029,84.13205790000029,84.13205790000029,84.13205790000029,84.13205790000029,84.13205790000029,008,P003,2025_Jan_18_1214,ConditionRich,2021.2.3,59.940179700904935,
52.0,52.75,17,0.75,Stimuli/P003/sun_bojovhhraxtgafcy.jpg,0,0.0,0.0,0,25,25,25,,,,,,,,,,,,,52.01063040000008,0.010630400000081863,None,,87.3682387000008,87.3682387000008,87.3682387000008,87.3682387000008,87.3682387000008,87.3682387000008,87.3682387000008,87.3682387000008,87.3682387000008,87.3682387000008,008,P003,2025_Jan_18_1214,ConditionRich,2021.2.3,59.940179700904935,
52.75,56.0,41,0.0,Stimuli/Blank.png,0,0.0,0.0,0,26,26,26,,,,,,,,,,,,,52.76135870000144,0.011358700001437683,5,3.208975499999724,88.1189032000002,88.1189032000002,88.1189032000002,88.1189032000002,88.1189032000002,88.1189032000002,88.1189032000002,88.1189032000002,88.1189032000002,88.1189032000002,008,P003,2025_Jan_18_1214,ConditionRich,2021.2.3,59.940179700904935,
56.0,56.75,5,0.75,Stimuli/P003/sun_amnnxdwfjbdfumns.jpg,0,0.0,0.0,0,27,27,27,,,,,,,,,,,,,56.01463980000153,0.014639800001532421,None,,91.37176770000042,91.37176770000042,91.37176770000042,91.37176770000042,91.37176770000042,91.37176770000042,91.37176770000042,91.37176770000042,91.37176770000042,91.37176770000042,008,P003,2025_Jan_18_1214,ConditionRich,2021.2.3,59.940179700904935,
56.75,60.0,41,0.0,Stimuli/Blank.png,0,0.0,0.0,0,28,28,28,,,,,,,,,,,,,56.766088300000774,0.016088300000774325,5,1.2054628000005323,92.12242839999999,92.12242839999999,92.12242839999999,92.12242839999999,92.12242839999999,92.12242839999999,92.12242839999999,92.12242839999999,92.12242839999999,92.12242839999999,008,P003,2025_Jan_18_1214,ConditionRich,2021.2.3,59.940179700904935,
60.0,60.75,24,0.75,Stimuli/P003/things_dumpling_02s.jpg,0,0.0,0.0,0,29,29,29,,,,,,,,,,,,,60.00144300000102,0.0014430000010179356,None,,95.35860450000109,95.35860450000109,95.35860450000109,95.35860450000109,95.35860450000109,95.35860450000109,95.35860450000109,95.35860450000109,95.35860450000109,95.35860450000109,008,P003,2025_Jan_18_1214,ConditionRich,2021.2.3,59.940179700904935,
60.75,64.0,41,0.0,Stimuli/Blank.png,1,1.25,2.0,0,30,30,30,,,,,,,,,,,,,60.751469100001486,0.0014691000014863675,5,3.2187070999989373,96.1092621000007,96.1092621000007,96.1092621000007,96.1092621000007,96.1092621000007,96.1092621000007,97.34373920000144,98.09439100000054,96.1092621000007,96.1092621000007,008,P003,2025_Jan_18_1214,ConditionRich,2021.2.3,59.940179700904935,
64.0,64.75,11,0.75,Stimuli/P003/sun_bawmjlzsuuivqjhi.jpg,0,0.0,0.0,0,31,31,31,,,,,,,,,,,,,64.00443489999998,0.00443489999997837,None,,99.3621331000013,99.3621331000013,99.3621331000013,99.3621331000013,99.3621331000013,99.3621331000013,99.3621331000013,99.3621331000013,99.3621331000013,99.3621331000013,008,P003,2025_Jan_18_1214,ConditionRich,2021.2.3,59.940179700904935,
64.75,68.0,41,0.0,Stimuli/Blank.png,0,0.0,0.0,0,32,32,32,,,,,,,,,,,,,64.75578060000043,0.005780600000434788,5,3.2150668000012956,100.11279280000053,100.11279280000053,100.11279280000053,100.11279280000053,100.11279280000053,100.11279280000053,100.11279280000053,100.11279280000053,100.11279280000053,100.11279280000053,008,P003,2025_Jan_18_1214,ConditionRich,2021.2.3,59.940179700904935,
68.0,68.75,16,0.75,Stimuli/P003/sun_bjuoemgleyaogrmw.jpg,0,0.0,0.0,0,33,33,33,,,,,,,,,,,,,68.00856209999984,0.008562099999835482,None,,103.36565710000104,103.36565710000104,103.36565710000104,103.36565710000104,103.36565710000104,103.36565710000104,103.36565710000104,103.36565710000104,103.36565710000104,103.36565710000104,008,P003,2025_Jan_18_1214,ConditionRich,2021.2.3,59.940179700904935,
68.75,72.0,41,0.0,Stimuli/Blank.png,0,0.0,0.0,0,34,34,34,,,,,,,,,,,,,68.7615904000013,0.011590400001296075,5,3.195774800000436,104.13300440000057,104.13300440000057,104.13300440000057,104.13300440000057,104.13300440000057,104.13300440000057,104.13300440000057,104.13300440000057,104.13300440000057,104.13300440000057,008,P003,2025_Jan_18_1214,ConditionRich,2021.2.3,59.940179700904935,
72.0,72.75,35,0.75,Stimuli/P003/things_satellite_dish_02s.jpg,0,0.0,0.0,0,35,35,35,,,,,,,,,,,,,72.03097720000005,0.030977200000052107,None,,107.40254740000091,107.40254740000091,107.40254740000091,107.40254740000091,107.40254740000091,107.40254740000091,107.40254740000091,107.40254740000091,107.40254740000091,107.40254740000091,008,P003,2025_Jan_18_1214,ConditionRich,2021.2.3,59.940179700904935,
72.75,76.0,41,0.0,Stimuli/Blank.png,0,0.0,0.0,0,36,36,36,,,,,,,,,,,,,72.78122750000148,0.031227500001477893,5,3.1758923000015784,108.15320490000158,108.15320490000158,108.15320490000158,108.15320490000158,108.15320490000158,108.15320490000158,108.15320490000158,108.15320490000158,108.15320490000158,108.15320490000158,008,P003,2025_Jan_18_1214,ConditionRich,2021.2.3,59.940179700904935,
76.0,76.75,13,0.75,Stimuli/P003/sun_bhbiqbqmwrowrqpd.jpg,0,0.0,0.0,0,37,37,37,,,,,,,,,,,,,76.01530540000022,0.015305400000215741,None,,111.37269460000061,111.37269460000061,111.37269460000061,111.37269460000061,111.37269460000061,111.37269460000061,111.37269460000061,111.37269460000061,111.37269460000061,111.37269460000061,008,P003,2025_Jan_18_1214,ConditionRich,2021.2.3,59.940179700904935,
76.75,80.0,41,0.0,Stimuli/Blank.png,0,0.0,0.0,0,38,38,38,,,,,,,,,,,,,76.7496968000014,-0.0003031999985978473,5,1.222396999999546,112.10668170000099,112.10668170000099,112.10668170000099,112.10668170000099,112.10668170000099,112.10668170000099,112.10668170000099,112.10668170000099,112.10668170000099,112.10668170000099,008,P003,2025_Jan_18_1214,ConditionRich,2021.2.3,59.940179700904935,
80.0,80.75,21,0.75,Stimuli/P003/things_baby_02s.jpg,0,0.0,0.0,0,39,39,39,,,,,,,,,,,,,80.00266360000023,0.002663600000232691,None,,115.37623560000065,115.37623560000065,115.37623560000065,115.37623560000065,115.37623560000065,115.37623560000065,115.37623560000065,115.37623560000065,115.37623560000065,115.37623560000065,008,P003,2025_Jan_18_1214,ConditionRich,2021.2.3,59.940179700904935,
80.75,84.0,41,0.0,Stimuli/Blank.png,1,1.25,2.0,0,40,40,40,,,,,,,,,,,,,80.77062060000026,0.020620600000256673,5,3.2019978999996965,116.12689290000162,116.12689290000162,116.12689290000162,116.12689290000162,116.12689290000162,116.12689290000162,117.36129980000078,118.11195820000103,116.12689290000162,116.12689290000162,008,P003,2025_Jan_18_1214,ConditionRich,2021.2.3,59.940179700904935,
84.0,100.0,0,0.0,Stimuli/Blank.png,1,9.0,9.75,0,41,41,41,,,,,,,,,,,,,84.00545460000103,0.005454600001030485,5,13.965740300000107,119.3630643000015,119.3630643000015,119.3630643000015,119.3630643000015,119.3630643000015,119.3630643000015,128.35430110000016,129.10495980000087,119.3630643000015,119.3630643000015,008,P003,2025_Jan_18_1214,ConditionRich,2021.2.3,59.940179700904935,
100.0,100.75,39,0.75,Stimuli/P003/things_toad_02s.jpg,0,0.0,0.0,0,42,42,42,,,,,,,,,,,,,100.00315720000071,0.0031572000007145107,None,,135.36048100000153,135.36048100000153,135.36048100000153,135.36048100000153,135.36048100000153,135.36048100000153,135.36048100000153,135.36048100000153,135.36048100000153,135.36048100000153,008,P003,2025_Jan_18_1214,ConditionRich,2021.2.3,59.940179700904935,
100.75,104.0,41,0.0,Stimuli/Blank.png,1,1.25,2.0,0,43,43,43,,,,,,,,,,,,,100.75622960000146,0.006229600001461222,5,3.2009417999997822,136.12784770000144,136.12784770000144,136.12784770000144,136.12784770000144,136.12784770000144,136.12784770000144,137.3622658000004,138.11289370000122,136.12784770000144,136.12784770000144,008,P003,2025_Jan_18_1214,ConditionRich,2021.2.3,59.940179700904935,
104.0,104.75,1,0.75,Stimuli/P003/sun_adgmtzznutwlescq.jpg,0,0.0,0.0,0,44,44,44,,,,,,,,,,,,,104.02294220000113,0.022942200001125457,None,,139.38068340000063,139.38068340000063,139.38068340000063,139.38068340000063,139.38068340000063,139.38068340000063,139.38068340000063,139.38068340000063,139.38068340000063,139.38068340000063,008,P003,2025_Jan_18_1214,ConditionRich,2021.2.3,59.940179700904935,
104.75,108.0,41,0.0,Stimuli/Blank.png,0,0.0,0.0,0,45,45,45,,,,,,,,,,,,,104.75707760000114,0.007077600001139217,5,3.214020100000198,140.11466030000156,140.11466030000156,140.11466030000156,140.11466030000156,140.11466030000156,140.11466030000156,140.11466030000156,140.11466030000156,140.11466030000156,140.11466030000156,008,P003,2025_Jan_18_1214,ConditionRich,2021.2.3,59.940179700904935,
108.0,108.75,38,0.75,Stimuli/P003/things_slug_02s.jpg,0,0.0,0.0,0,46,46,46,,,,,,,,,,,,,108.01044960000036,0.01044960000035644,None,,143.36753470000076,143.36753470000076,143.36753470000076,143.36753470000076,143.36753470000076,143.36753470000076,143.36753470000076,143.36753470000076,143.36753470000076,143.36753470000076,008,P003,2025_Jan_18_1214,ConditionRich,2021.2.3,59.940179700904935,
108.75,112.0,41,0.0,Stimuli/Blank.png,0,0.0,0.0,0,47,47,47,,,,,,,,,,,,,108.76092700000117,0.010927000001174747,5,3.2104593999993085,144.11818970000058,144.11818970000058,144.11818970000058,144.11818970000058,144.11818970000058,144.11818970000058,144.11818970000058,144.11818970000058,144.11818970000058,144.11818970000058,008,P003,2025_Jan_18_1214,ConditionRich,2021.2.3,59.940179700904935,
112.0,112.75,12,0.75,Stimuli/P003/sun_bcboctumoxwpdefl.jpg,0,0.0,0.0,0,48,48,48,,,,,,,,,,,,,112.01423060000161,0.014230600001610583,None,,147.3877210999999,147.3877210999999,147.3877210999999,147.3877210999999,147.3877210999999,147.3877210999999,147.3877210999999,147.3877210999999,147.3877210999999,147.3877210999999,008,P003,2025_Jan_18_1214,ConditionRich,2021.2.3,59.940179700904935,
112.75,116.0,41,0.0,Stimuli/Blank.png,0,0.0,0.0,0,49,49,49,,,,,,,,,,,,,112.78119049999987,0.031190499999866006,5,1.1905547000005754,148.13839180000105,148.13839180000105,148.13839180000105,148.13839180000105,148.13839180000105,148.13839180000105,148.13839180000105,148.13839180000105,148.13839180000105,148.13839180000105,008,P003,2025_Jan_18_1214,ConditionRich,2021.2.3,59.940179700904935,
116.0,116.75,20,0.75,Stimuli/P003/sun_bwytihadgigwkyht.jpg,0,0.0,0.0,0,50,50,50,,,,,,,,,,,,,116.00082480000128,0.0008248000012827106,None,,151.35789079999995,151.35789079999995,151.35789079999995,151.35789079999995,151.35789079999995,151.35789079999995,151.35789079999995,151.35789079999995,151.35789079999995,151.35789079999995,008,P003,2025_Jan_18_1214,ConditionRich,2021.2.3,59.940179700904935,
116.75,120.0,41,0.0,Stimuli/Blank.png,0,0.0,0.0,0,51,51,51,,,,,,,,,,,,,116.75074480000148,0.0007448000014846912,5,3.220168800000465,152.10856080000121,152.10856080000121,152.10856080000121,152.10856080000121,152.10856080000121,152.10856080000121,152.10856080000121,152.10856080000121,152.10856080000121,152.10856080000121,008,P003,2025_Jan_18_1214,ConditionRich,2021.2.3,59.940179700904935,
120.0,120.75,29,0.75,Stimuli/P003/things_mat_02s.jpg,0,0.0,0.0,0,52,52,52,,,,,,,,,,,,,120.00419450000118,0.004194500001176493,None,,155.3614105000015,155.3614105000015,155.3614105000015,155.3614105000015,155.3614105000015,155.3614105000015,155.3614105000015,155.3614105000015,155.3614105000015,155.3614105000015,008,P003,2025_Jan_18_1214,ConditionRich,2021.2.3,59.940179700904935,
120.75,124.0,41,0.0,Stimuli/Blank.png,0,0.0,0.0,0,53,53,53,,,,,,,,,,,,,120.75521530000151,0.005215300001509604,5,3.2165629000010085,156.11207009999998,156.11207009999998,156.11207009999998,156.11207009999998,156.11207009999998,156.11207009999998,156.11207009999998,156.11207009999998,156.11207009999998,156.11207009999998,008,P003,2025_Jan_18_1214,ConditionRich,2021.2.3,59.940179700904935,
124.0,124.75,37,0.75,Stimuli/P003/things_ski_lift_02s.jpg,0,0.0,0.0,0,54,54,54,,,,,,,,,,,,,124.00797860000057,0.007978600000569713,None,,159.36493320000045,159.36493320000045,159.36493320000045,159.36493320000045,159.36493320000045,159.36493320000045,159.36493320000045,159.36493320000045,159.36493320000045,159.36493320000045,008,P003,2025_Jan_18_1214,ConditionRich,2021.2.3,59.940179700904935,
124.75,128.0,41,0.0,Stimuli/Blank.png,0,0.0,0.0,0,55,55,55,,,,,,,,,,,,,124.7587008999999,0.008700899999894318,5,3.2132965000000695,160.11562159999994,160.11562159999994,160.11562159999994,160.11562159999994,160.11562159999994,160.11562159999994,160.11562159999994,160.11562159999994,160.11562159999994,160.11562159999994,008,P003,2025_Jan_18_1214,ConditionRich,2021.2.3,59.940179700904935,
128.0,128.75,30,0.75,Stimuli/P003/things_music_box_02s.jpg,0,0.0,0.0,0,56,56,56,,,,,,,,,,,,,128.01089420000062,0.010894200000620913,None,,163.36849060000168,163.36849060000168,163.36849060000168,163.36849060000168,163.36849060000168,163.36849060000168,163.36849060000168,163.36849060000168,163.36849060000168,163.36849060000168,008,P003,2025_Jan_18_1214,ConditionRich,2021.2.3,59.940179700904935,
128.75,132.0,41,0.0,Stimuli/Blank.png,0,0.0,0.0,0,57,57,57,,,,,,,,,,,,,128.76204460000008,0.012044600000081118,5,3.209676700000273,164.11919970000054,164.11919970000054,164.11919970000054,164.11919970000054,164.11919970000054,164.11919970000054,164.11919970000054,164.11919970000054,164.11919970000054,164.11919970000054,008,P003,2025_Jan_18_1214,ConditionRich,2021.2.3,59.940179700904935,
132.0,132.75,6,0.75,Stimuli/P003/sun_aoumkoxfhlaobjef.jpg,0,0.0,0.0,0,58,58,58,,,,,,,,,,,,,132.01512080000066,0.015120800000659074,None,,167.37201070000083,167.37201070000083,167.37201070000083,167.37201070000083,167.37201070000083,167.37201070000083,167.37201070000083,167.37201070000083,167.37201070000083,167.37201070000083,008,P003,2025_Jan_18_1214,ConditionRich,2021.2.3,59.940179700904935,
132.75,136.0,41,0.0,Stimuli/Blank.png,0,0.0,0.0,0,59,59,59,,,,,,,,,,,,,132.75128070000028,0.0012807000002794666,5,3.2060025999999198,168.12265230000048,168.12265230000048,168.12265230000048,168.12265230000048,168.12265230000048,168.12265230000048,168.12265230000048,168.12265230000048,168.12265230000048,168.12265230000048,008,P003,2025_Jan_18_1214,ConditionRich,2021.2.3,59.940179700904935,
136.0,136.75,40,0.75,Stimuli/P003/things_woman_02s.jpg,0,0.0,0.0,0,60,60,60,,,,,,,,,,,,,136.02081330000146,0.020813300001464086,None,,171.3922446000015,171.3922446000015,171.3922446000015,171.3922446000015,171.3922446000015,171.3922446000015,171.3922446000015,171.3922446000015,171.3922446000015,171.3922446000015,008,P003,2025_Jan_18_1214,ConditionRich,2021.2.3,59.940179700904935,
136.75,140.0,41,0.0,Stimuli/Blank.png,1,1.25,2.0,0,61,61,61,,,,,,,,,,,,,136.7705543000011,0.020554300001094816,5,3.1858465999994223,172.14285999999993,172.14285999999993,172.14285999999993,172.14285999999993,172.14285999999993,172.14285999999993,173.37726330000078,174.12793760000022,172.14285999999993,172.14285999999993,008,P003,2025_Jan_18_1214,ConditionRich,2021.2.3,59.940179700904935,
140.0,140.75,9,0.75,Stimuli/P003/sun_auqtrqkaobyprnjy.jpg,0,0.0,0.0,0,62,62,62,,,,,,,,,,,,,140.0219033000012,0.02190330000121321,None,,175.39572300000145,175.39572300000145,175.39572300000145,175.39572300000145,175.39572300000145,175.39572300000145,175.39572300000145,175.39572300000145,175.39572300000145,175.39572300000145,008,P003,2025_Jan_18_1214,ConditionRich,2021.2.3,59.940179700904935,
140.75,144.0,41,0.0,Stimuli/Blank.png,0,0.0,0.0,0,63,63,63,,,,,,,,,,,,,140.7734758000006,0.02347580000059679,5,3.1989259000001766,176.12970810000115,176.12970810000115,176.12970810000115,176.12970810000115,176.12970810000115,176.12970810000115,176.12970810000115,176.12970810000115,176.12970810000115,176.12970810000115,008,P003,2025_Jan_18_1214,ConditionRich,2021.2.3,59.940179700904935,
144.0,144.75,10,0.75,Stimuli/P003/sun_azzneunxibjvypza.jpg,0,0.0,0.0,0,64,64,64,,,,,,,,,,,,,144.00830870000027,0.008308700000270619,None,,179.36588650000158,179.36588650000158,179.36588650000158,179.36588650000158,179.36588650000158,179.36588650000158,179.36588650000158,179.36588650000158,179.36588650000158,179.36588650000158,008,P003,2025_Jan_18_1214,ConditionRich,2021.2.3,59.940179700904935,
144.75,148.0,41,0.0,Stimuli/Blank.png,0,0.0,0.0,0,65,65,65,,,,,,,,,,,,,144.75925850000021,0.009258500000214553,5,3.2122068000007857,180.1165462000008,180.1165462000008,180.1165462000008,180.1165462000008,180.1165462000008,180.1165462000008,180.1165462000008,180.1165462000008,180.1165462000008,180.1165462000008,008,P003,2025_Jan_18_1214,ConditionRich,2021.2.3,59.940179700904935,
148.0,148.75,2,0.75,Stimuli/P003/sun_afijjzyziczoqdhz.jpg,0,0.0,0.0,0,66,66,66,,,,,,,,,,,,,148.01196300000083,0.011963000000832835,None,,183.38611540000056,183.38611540000056,183.38611540000056,183.38611540000056,183.38611540000056,183.38611540000056,183.38611540000056,183.38611540000056,183.38611540000056,183.38611540000056,008,P003,2025_Jan_18_1214,ConditionRich,2021.2.3,59.940179700904935,
148.75,152.0,41,0.0,Stimuli/Blank.png,1,2.25,3.0,0,67,67,67,,,,,,,,,,,,,148.77997700000014,0.02997700000014447,1,2.7139184000006935,184.1367381,184.1367381,184.1367381,184.1367381,184.1367381,184.1367381,186.37204400000155,187.12270239999998,184.1367381,184.1367381,008,P003,2025_Jan_18_1214,ConditionRich,2021.2.3,59.940179700904935,
152.0,152.75,36,0.75,Stimuli/P003/things_sea_urchin_02s.jpg,0,0.0,0.0,0,68,68,68,,,,,,,,,,,,,151.9994602000006,-0.0005397999993874691,None,,187.37291370000094,187.37291370000094,187.37291370000094,187.37291370000094,187.37291370000094,187.37291370000094,187.37291370000094,187.37291370000094,187.37291370000094,187.37291370000094,008,P003,2025_Jan_18_1214,ConditionRich,2021.2.3,59.940179700904935,
152.75,156.0,41,0.0,Stimuli/Blank.png,0,0.0,0.0,0,69,69,69,,,,,,,,,,,,,152.76593030000004,0.015930300000036368,5,1.2050030999998853,188.12357990000055,188.12357990000055,188.12357990000055,188.12357990000055,188.12357990000055,188.12357990000055,188.12357990000055,188.12357990000055,188.12357990000055,188.12357990000055,008,P003,2025_Jan_18_1214,ConditionRich,2021.2.3,59.940179700904935,
156.0,156.75,27,0.75,Stimuli/P003/things_llama_02s.jpg,0,0.0,0.0,0,70,70,70,,,,,,,,,,,,,156.00231580000036,0.0023158000003604684,None,,191.37644220000038,191.37644220000038,191.37644220000038,191.37644220000038,191.37644220000038,191.37644220000038,191.37644220000038,191.37644220000038,191.37644220000038,191.37644220000038,008,P003,2025_Jan_18_1214,ConditionRich,2021.2.3,59.940179700904935,
156.75,160.0,41,0.0,Stimuli/Blank.png,0,0.0,0.0,0,71,71,71,,,,,,,,,,,,,156.77056980000089,0.020569800000885152,5,3.1847545000000537,192.1437840000017,192.1437840000017,192.1437840000017,192.1437840000017,192.1437840000017,192.1437840000017,192.1437840000017,192.1437840000017,192.1437840000017,192.1437840000017,008,P003,2025_Jan_18_1214,ConditionRich,2021.2.3,59.940179700904935,
160.0,160.75,8,0.75,Stimuli/P003/sun_asxkyzleyfgbqfrs.jpg,0,0.0,0.0,0,72,72,72,,,,,,,,,,,,,160.02239139999983,0.022391399999833084,None,,195.39665270000114,195.39665270000114,195.39665270000114,195.39665270000114,195.39665270000114,195.39665270000114,195.39665270000114,195.39665270000114,195.39665270000114,195.39665270000114,008,P003,2025_Jan_18_1214,ConditionRich,2021.2.3,59.940179700904935,
160.75,164.0,41,0.0,Stimuli/Blank.png,0,0.0,0.0,0,73,73,73,,,,,,,,,,,,,160.77541329999985,0.025413299999854644,5,3.181410199998936,196.14731660000143,196.14731660000143,196.14731660000143,196.14731660000143,196.14731660000143,196.14731660000143,196.14731660000143,196.14731660000143,196.14731660000143,196.14731660000143,008,P003,2025_Jan_18_1214,ConditionRich,2021.2.3,59.940179700904935,
164.0,164.75,33,0.75,Stimuli/P003/things_recorder_02s.jpg,0,0.0,0.0,0,74,74,74,,,,,,,,,,,,,164.0257474000009,0.025747400000909693,None,,199.3834870999999,199.3834870999999,199.3834870999999,199.3834870999999,199.3834870999999,199.3834870999999,199.3834870999999,199.3834870999999,199.3834870999999,199.3834870999999,008,P003,2025_Jan_18_1214,ConditionRich,2021.2.3,59.940179700904935,
164.75,168.0,41,0.0,Stimuli/Blank.png,1,0.25,1.0,0,75,75,75,,,,,,,,,,,,,164.76065689999996,0.010656899999958114,5,3.211066600000777,200.11746370000037,200.11746370000037,200.11746370000037,200.11746370000037,200.11746370000037,200.11746370000037,200.35103570000138,201.10163580000153,200.11746370000037,200.11746370000037,008,P003,2025_Jan_18_1214,ConditionRich,2021.2.3,59.940179700904935,
168.0,168.75,26,0.75,Stimuli/P003/things_ham_02s.jpg,0,0.0,0.0,0,76,76,76,,,,,,,,,,,,,168.0133435000007,0.01334350000070117,None,,203.37033520000114,203.37033520000114,203.37033520000114,203.37033520000114,203.37033520000114,203.37033520000114,203.37033520000114,203.37033520000114,203.37033520000114,203.37033520000114,008,P003,2025_Jan_18_1214,ConditionRich,2021.2.3,59.940179700904935,
168.75,172.0,41,0.0,Stimuli/Blank.png,0,0.0,0.0,0,77,77,77,,,,,,,,,,,,,168.76533610000115,0.015336100001150044,5,3.1910669000008056,204.137679200001,204.137679200001,204.137679200001,204.137679200001,204.137679200001,204.137679200001,204.137679200001,204.137679200001,204.137679200001,204.137679200001,008,P003,2025_Jan_18_1214,ConditionRich,2021.2.3,59.940179700904935,
172.0,172.75,34,0.75,Stimuli/P003/things_roll_02s.jpg,0,0.0,0.0,0,78,78,78,,,,,,,,,,,,,172.01670820000072,0.016708200000721263,None,,207.3905992,207.3905992,207.3905992,207.3905992,207.3905992,207.3905992,207.3905992,207.3905992,207.3905992,207.3905992,008,P003,2025_Jan_18_1214,ConditionRich,2021.2.3,59.940179700904935,
172.75,176.0,41,0.0,Stimuli/Blank.png,0,0.0,0.0,0,79,79,79,,,,,,,,,,,,,172.76722080000036,0.017220800000359304,5,1.2038959999990766,208.12458890000016,208.12458890000016,208.12458890000016,208.12458890000016,208.12458890000016,208.12458890000016,208.12458890000016,208.12458890000016,208.12458890000016,208.12458890000016,008,P003,2025_Jan_18_1214,ConditionRich,2021.2.3,59.940179700904935,
176.0,176.75,3,0.75,Stimuli/P003/sun_afqjzrocqhabifao.jpg,0,0.0,0.0,0,80,80,80,,,,,,,,,,,,,176.0053884000008,0.005388400000811089,None,,211.37737910000033,211.37737910000033,211.37737910000033,211.37737910000033,211.37737910000033,211.37737910000033,211.37737910000033,211.37737910000033,211.37737910000033,211.37737910000033,008,P003,2025_Jan_18_1214,ConditionRich,2021.2.3,59.940179700904935,
176.75,180.0,41,0.0,Stimuli/Blank.png,0,0.0,0.0,0,81,81,81,,,,,,,,,,,,,176.77106360000107,0.02106360000107088,5,3.2004151000001,212.12803450000138,212.12803450000138,212.12803450000138,212.12803450000138,212.12803450000138,212.12803450000138,212.12803450000138,212.12803450000138,212.12803450000138,212.12803450000138,008,P003,2025_Jan_18_1214,ConditionRich,2021.2.3,59.940179700904935,
180.0,196.0,0,0.0,Stimuli/Blank.png,1,9.0,9.75,0,82,82,82,,,,,,,,,,,,,180.0068478000012,0.006847800001196447,5,15.96410300000025,215.36429700000008,215.36429700000008,215.36429700000008,215.36429700000008,215.36429700000008,215.36429700000008,224.3554896000005,225.1061535000008,215.36429700000008,215.36429700000008,008,P003,2025_Jan_18_1214,ConditionRich,2021.2.3,59.940179700904935,
196.0,196.75,23,0.75,Stimuli/P003/things_butterfly_02s.jpg,0,0.0,0.0,0,83,83,83,,,,,,,,,,,,,196.00433710000107,0.004337100001066574,None,,231.36164940000162,231.36164940000162,231.36164940000162,231.36164940000162,231.36164940000162,231.36164940000162,231.36164940000162,231.36164940000162,231.36164940000162,231.36164940000162,008,P003,2025_Jan_18_1214,ConditionRich,2021.2.3,59.940179700904935,
196.75,200.0,41,0.0,Stimuli/Blank.png,1,1.25,2.0,0,84,84,84,,,,,,,,,,,,,196.75547280000137,0.00547280000137107,5,3.2160920000005717,232.11230670000077,232.11230670000077,232.11230670000077,232.11230670000077,232.11230670000077,232.11230670000077,233.34670890000052,234.09737790000145,232.11230670000077,232.11230670000077,008,P003,2025_Jan_18_1214,ConditionRich,2021.2.3,59.940179700904935,
200.0,200.75,19,0.75,Stimuli/P003/sun_bucebxfexknakpma.jpg,0,0.0,0.0,0,85,85,85,,,,,,,,,,,,,200.01055280000037,0.010552800000368734,None,,235.3818452000014,235.3818452000014,235.3818452000014,235.3818452000014,235.3818452000014,235.3818452000014,235.3818452000014,235.3818452000014,235.3818452000014,235.3818452000014,008,P003,2025_Jan_18_1214,ConditionRich,2021.2.3,59.940179700904935,
200.75,204.0,41,0.0,Stimuli/Blank.png,0,0.0,0.0,0,86,86,86,,,,,,,,,,,,,200.7754592000001,0.025459200000113924,5,3.1961415999994642,236.13250140000127,236.13250140000127,236.13250140000127,236.13250140000127,236.13250140000127,236.13250140000127,236.13250140000127,236.13250140000127,236.13250140000127,236.13250140000127,008,P003,2025_Jan_18_1214,ConditionRich,2021.2.3,59.940179700904935,
204.0,204.75,40,0.75,Stimuli/P003/things_woman_02s.jpg,0,0.0,0.0,0,87,87,87,,,,,,,,,,,,,204.01188510000065,0.011885100000654347,None,,239.38537160000124,239.38537160000124,239.38537160000124,239.38537160000124,239.38537160000124,239.38537160000124,239.38537160000124,239.38537160000124,239.38537160000124,239.38537160000124,008,P003,2025_Jan_18_1214,ConditionRich,2021.2.3,59.940179700904935,
204.75,208.0,41,0.0,Stimuli/Blank.png,0,0.0,0.0,0,88,88,88,,,,,,,,,,,,,204.77916840000034,0.029168400000344263,5,3.1926301999992575,240.1360207000016,240.1360207000016,240.1360207000016,240.1360207000016,240.1360207000016,240.1360207000016,240.1360207000016,240.1360207000016,240.1360207000016,240.1360207000016,008,P003,2025_Jan_18_1214,ConditionRich,2021.2.3,59.940179700904935,
208.0,208.75,7,0.75,Stimuli/P003/sun_asgixjtedklbawgm.jpg,0,0.0,0.0,0,89,89,89,,,,,,,,,,,,,208.01579500000116,0.015795000001162407,None,,243.38889830000153,243.38889830000153,243.38889830000153,243.38889830000153,243.38889830000153,243.38889830000153,243.38889830000153,243.38889830000153,243.38889830000153,243.38889830000153,008,P003,2025_Jan_18_1214,ConditionRich,2021.2.3,59.940179700904935,
208.75,212.0,41,0.0,Stimuli/Blank.png,0,0.0,0.0,0,90,90,90,,,,,,,,,,,,,208.76604970000153,0.016049700001531164,5,1.205764199999976,244.12285740000152,244.12285740000152,244.12285740000152,244.12285740000152,244.12285740000152,244.12285740000152,244.12285740000152,244.12285740000152,244.12285740000152,244.12285740000152,008,P003,2025_Jan_18_1214,ConditionRich,2021.2.3,59.940179700904935,
212.0,212.75,30,0.75,Stimuli/P003/things_music_box_02s.jpg,0,0.0,0.0,0,91,91,91,,,,,,,,,,,,,212.00151280000136,0.001512800001364667,None,,247.3590505000011,247.3590505000011,247.3590505000011,247.3590505000011,247.3590505000011,247.3590505000011,247.3590505000011,247.3590505000011,247.3590505000011,247.3590505000011,008,P003,2025_Jan_18_1214,ConditionRich,2021.2.3,59.940179700904935,
212.75,216.0,41,0.0,Stimuli/Blank.png,0,0.0,0.0,0,92,92,92,,,,,,,,,,,,,212.7521439000011,0.0021439000011014286,5,3.2185327999995934,248.10978840000098,248.10978840000098,248.10978840000098,248.10978840000098,248.10978840000098,248.10978840000098,248.10978840000098,248.10978840000098,248.10978840000098,248.10978840000098,008,P003,2025_Jan_18_1214,ConditionRich,2021.2.3,59.940179700904935,
216.0,216.75,1,0.75,Stimuli/P003/sun_adgmtzznutwlescq.jpg,0,0.0,0.0,0,93,93,93,,,,,,,,,,,,,216.00563030000012,0.005630300000120769,None,,251.3625671000009,251.3625671000009,251.3625671000009,251.3625671000009,251.3625671000009,251.3625671000009,251.3625671000009,251.3625671000009,251.3625671000009,251.3625671000009,008,P003,2025_Jan_18_1214,ConditionRich,2021.2.3,59.940179700904935,
216.75,220.0,41,0.0,Stimuli/Blank.png,0,0.0,0.0,0,94,94,94,,,,,,,,,,,,,216.75614700000006,0.006147000000055414,5,3.2153887000004033,252.11323520000042,252.11323520000042,252.11323520000042,252.11323520000042,252.11323520000042,252.11323520000042,252.11323520000042,252.11323520000042,252.11323520000042,252.11323520000042,008,P003,2025_Jan_18_1214,ConditionRich,2021.2.3,59.940179700904935,
220.0,220.75,31,0.75,Stimuli/P003/things_pea_02s.jpg,0,0.0,0.0,0,95,95,95,,,,,,,,,,,,,220.00894359999984,0.008943599999838625,None,,255.36607840000033,255.36607840000033,255.36607840000033,255.36607840000033,255.36607840000033,255.36607840000033,255.36607840000033,255.36607840000033,255.36607840000033,255.36607840000033,008,P003,2025_Jan_18_1214,ConditionRich,2021.2.3,59.940179700904935,
220.75,224.0,41,0.0,Stimuli/Blank.png,0,0.0,0.0,0,96,96,96,,,,,,,,,,,,,220.75963010000123,0.009630100001231767,5,3.2115782000000763,256.1167505000012,256.1167505000012,256.1167505000012,256.1167505000012,256.1167505000012,256.1167505000012,256.1167505000012,256.1167505000012,256.1167505000012,256.1167505000012,008,P003,2025_Jan_18_1214,ConditionRich,2021.2.3,59.940179700904935,
224.0,224.75,17,0.75,Stimuli/P003/sun_bojovhhraxtgafcy.jpg,0,0.0,0.0,0,97,97,97,,,,,,,,,,,,,224.01242700000148,0.012427000001480337,None,,259.3696137000006,259.3696137000006,259.3696137000006,259.3696137000006,259.3696137000006,259.3696137000006,259.3696137000006,259.3696137000006,259.3696137000006,259.3696137000006,008,P003,2025_Jan_18_1214,ConditionRich,2021.2.3,59.940179700904935,
224.75,228.0,41,0.0,Stimuli/Blank.png,1,2.25,3.0,0,98,98,98,,,,,,,,,,,,,224.76500920000035,0.015009200000349665,5,3.19160759999977,260.13695820000066,260.13695820000066,260.13695820000066,260.13695820000066,260.13695820000066,260.13695820000066,262.3722566000015,263.1229198000001,260.13695820000066,260.13695820000066,008,P003,2025_Jan_18_1214,ConditionRich,2021.2.3,59.940179700904935,
228.0,228.75,26,0.75,Stimuli/P003/things_ham_02s.jpg,0,0.0,0.0,0,99,99,99,,,,,,,,,,,,,228.01581780000015,0.015817800000149873,None,,263.3731555000013,263.3731555000013,263.3731555000013,263.3731555000013,263.3731555000013,263.3731555000013,263.3731555000013,263.3731555000013,263.3731555000013,263.3731555000013,008,P003,2025_Jan_18_1214,ConditionRich,2021.2.3,59.940179700904935,
228.75,232.0,41,0.0,Stimuli/Blank.png,0,0.0,0.0,0,100,100,100,,,,,,,,,,,,,228.75018310000087,0.00018310000086785294,5,1.2212540000000445,264.1071292000015,264.1071292000015,264.1071292000015,264.1071292000015,264.1071292000015,264.1071292000015,264.1071292000015,264.1071292000015,264.1071292000015,264.1071292000015,008,P003,2025_Jan_18_1214,ConditionRich,2021.2.3,59.940179700904935,
232.0,232.75,38,0.75,Stimuli/P003/things_slug_02s.jpg,0,0.0,0.0,0,101,101,101,,,,,,,,,,,,,232.00317670000004,0.0031767000000400003,None,,267.3766602000014,267.3766602000014,267.3766602000014,267.3766602000014,267.3766602000014,267.3766602000014,267.3766602000014,267.3766602000014,267.3766602000014,267.3766602000014,008,P003,2025_Jan_18_1214,ConditionRich,2021.2.3,59.940179700904935,
232.75,236.0,41,0.0,Stimuli/Blank.png,0,0.0,0.0,0,102,102,102,,,,,,,,,,,,,232.77071550000073,0.0207155000007333,5,3.2010344000009354,268.12731930000155,268.12731930000155,268.12731930000155,268.12731930000155,268.12731930000155,268.12731930000155,268.12731930000155,268.12731930000155,268.12731930000155,268.12731930000155,008,P003,2025_Jan_18_1214,ConditionRich,2021.2.3,59.940179700904935,
236.0,236.75,8,0.75,Stimuli/P003/sun_asxkyzleyfgbqfrs.jpg,0,0.0,0.0,0,103,103,103,,,,,,,,,,,,,236.0066048000008,0.006604800000786781,None,,271.3635024000014,271.3635024000014,271.3635024000014,271.3635024000014,271.3635024000014,271.3635024000014,271.3635024000014,271.3635024000014,271.3635024000014,271.3635024000014,008,P003,2025_Jan_18_1214,ConditionRich,2021.2.3,59.940179700904935,
236.75,240.0,41,0.0,Stimuli/Blank.png,0,0.0,0.0,0,104,104,104,,,,,,,,,,,,,236.75637129999996,0.006371299999955227,5,3.214226599999165,272.11417790000087,272.11417790000087,272.11417790000087,272.11417790000087,272.11417790000087,272.11417790000087,272.11417790000087,272.11417790000087,272.11417790000087,272.11417790000087,008,P003,2025_Jan_18_1214,ConditionRich,2021.2.3,59.940179700904935,
240.0,240.75,10,0.75,Stimuli/P003/sun_azzneunxibjvypza.jpg,0,0.0,0.0,0,105,105,105,,,,,,,,,,,,,240.0101332000013,0.010133200001291698,None,,275.36703840000155,275.36703840000155,275.36703840000155,275.36703840000155,275.36703840000155,275.36703840000155,275.36703840000155,275.36703840000155,275.36703840000155,275.36703840000155,008,P003,2025_Jan_18_1214,ConditionRich,2021.2.3,59.940179700904935,
240.75,244.0,41,0.0,Stimuli/Blank.png,0,0.0,0.0,0,106,106,106,,,,,,,,,,,,,240.76074420000077,0.010744200000772253,5,3.210496499999863,276.1176923000003,276.1176923000003,276.1176923000003,276.1176923000003,276.1176923000003,276.1176923000003,276.1176923000003,276.1176923000003,276.1176923000003,276.1176923000003,008,P003,2025_Jan_18_1214,ConditionRich,2021.2.3,59.940179700904935,
244.0,244.75,13,0.75,Stimuli/P003/sun_bhbiqbqmwrowrqpd.jpg,0,0.0,0.0,0,107,107,107,,,,,,,,,,,,,244.0157603000007,0.01576030000069295,None,,279.3872351000009,279.3872351000009,279.3872351000009,279.3872351000009,279.3872351000009,279.3872351000009,279.3872351000009,279.3872351000009,279.3872351000009,279.3872351000009,008,P003,2025_Jan_18_1214,ConditionRich,2021.2.3,59.940179700904935,
244.75,248.0,41,0.0,Stimuli/Blank.png,0,0.0,0.0,0,108,108,108,,,,,,,,,,,,,244.76508300000023,0.01508300000023155,5,1.2069537000006676,280.1212871000007,280.1212871000007,280.1212871000007,280.1212871000007,280.1212871000007,280.1212871000007,280.1212871000007,280.1212871000007,280.1212871000007,280.1212871000007,008,P003,2025_Jan_18_1214,ConditionRich,2021.2.3,59.940179700904935,
248.0,248.75,36,0.75,Stimuli/P003/things_sea_urchin_02s.jpg,0,0.0,0.0,0,109,109,109,,,,,,,,,,,,,248.00037560000055,0.0003756000005523674,None,,283.3740871000009,283.3740871000009,283.3740871000009,283.3740871000009,283.3740871000009,283.3740871000009,283.3740871000009,283.3740871000009,283.3740871000009,283.3740871000009,008,P003,2025_Jan_18_1214,ConditionRich,2021.2.3,59.940179700904935,
248.75,252.0,41,0.0,Stimuli/Blank.png,0,0.0,0.0,0,110,110,110,,,,,,,,,,,,,248.76958040000136,0.01958040000135952,5,3.1867887000007613,284.1414214000015,284.1414214000015,284.1414214000015,284.1414214000015,284.1414214000015,284.1414214000015,284.1414214000015,284.1414214000015,284.1414214000015,284.1414214000015,008,P003,2025_Jan_18_1214,ConditionRich,2021.2.3,59.940179700904935,
252.0,252.75,2,0.75,Stimuli/P003/sun_afijjzyziczoqdhz.jpg,1,0.0,0.75,0,111,111,111,,,,,,,,,,,,,252.02290619999985,0.022906199999852106,None,,287.39428829999997,287.39428829999997,287.39428829999997,287.39428829999997,287.39428829999997,287.39428829999997,287.39428829999997,None,287.39428829999997,287.39428829999997,008,P003,2025_Jan_18_1214,ConditionRich,2021.2.3,59.940179700904935,
252.75,256.0,41,0.0,Stimuli/Blank.png,0,0.0,0.0,0,112,112,112,,,,,,,,,,,,,252.7710920999998,0.021092099999805214,5,3.199917200001437,288.12825260000136,288.12825260000136,288.12825260000136,288.12825260000136,288.12825260000136,288.12825260000136,288.12825260000136,288.12825260000136,288.12825260000136,288.12825260000136,008,P003,2025_Jan_18_1214,ConditionRich,2021.2.3,59.940179700904935,
256.0,256.75,12,0.75,Stimuli/P003/sun_bcboctumoxwpdefl.jpg,0,0.0,0.0,0,113,113,113,,,,,,,,,,,,,256.0081134000011,0.008113400001093396,None,,291.38111590000153,291.38111590000153,291.38111590000153,291.38111590000153,291.38111590000153,291.38111590000153,291.38111590000153,291.38111590000153,291.38111590000153,291.38111590000153,008,P003,2025_Jan_18_1214,ConditionRich,2021.2.3,59.940179700904935,
256.75,260.0,41,0.0,Stimuli/Blank.png,0,0.0,0.0,0,114,114,114,,,,,,,,,,,,,256.7749961999998,0.024996199999804958,5,3.196438400000261,292.1317848000017,292.1317848000017,292.1317848000017,292.1317848000017,292.1317848000017,292.1317848000017,292.1317848000017,292.1317848000017,292.1317848000017,292.1317848000017,008,P003,2025_Jan_18_1214,ConditionRich,2021.2.3,59.940179700904935,
260.0,260.75,28,0.75,Stimuli/P003/things_man_02s.jpg,0,0.0,0.0,0,115,115,115,,,,,,,,,,,,,260.01084900000023,0.01084900000023481,None,,295.3679594000005,295.3679594000005,295.3679594000005,295.3679594000005,295.3679594000005,295.3679594000005,295.3679594000005,295.3679594000005,295.3679594000005,295.3679594000005,008,P003,2025_Jan_18_1214,ConditionRich,2021.2.3,59.940179700904935,
260.75,264.0,41,0.0,Stimuli/Blank.png,0,0.0,0.0,0,116,116,116,,,,,,,,,,,,,260.76112490000014,0.01112490000014077,5,3.209825300000375,296.11861730000055,296.11861730000055,296.11861730000055,296.11861730000055,296.11861730000055,296.11861730000055,296.11861730000055,296.11861730000055,296.11861730000055,296.11861730000055,008,P003,2025_Jan_18_1214,ConditionRich,2021.2.3,59.940179700904935,
264.0,264.75,3,0.75,Stimuli/P003/sun_afqjzrocqhabifao.jpg,1,0.0,0.75,0,117,117,117,,,,,,,,,,,,,264.0145624000015,0.014562400001523201,None,,299.3882139000016,299.3882139000016,299.3882139000016,299.3882139000016,299.3882139000016,299.3882139000016,299.3882139000016,300.10548740000013,299.3882139000016,299.3882139000016,008,P003,2025_Jan_18_1214,ConditionRich,2021.2.3,59.940179700904935,
264.75,268.0,41,0.0,Stimuli/Blank.png,0,0.0,0.0,0,118,118,118,,,,,,,,,,,,,264.7819560000007,0.03195600000071863,5,1.1896060000017314,300.13882600000034,300.13882600000034,300.13882600000034,300.13882600000034,300.13882600000034,300.13882600000034,300.13882600000034,300.13882600000034,300.13882600000034,300.13882600000034,008,P003,2025_Jan_18_1214,ConditionRich,2021.2.3,59.940179700904935,
268.0,268.75,34,0.75,Stimuli/P003/things_roll_02s.jpg,0,0.0,0.0,0,119,119,119,,,,,,,,,,,,,268.00130210000134,0.0013021000013395678,None,,303.358328100001,303.358328100001,303.358328100001,303.358328100001,303.358328100001,303.358328100001,303.358328100001,303.358328100001,303.358328100001,303.358328100001,008,P003,2025_Jan_18_1214,ConditionRich,2021.2.3,59.940179700904935,
268.75,272.0,41,0.0,Stimuli/Blank.png,0,0.0,0.0,0,120,120,120,,,,,,,,,,,,,268.75126230000023,0.0012623000002349727,5,3.21924030000082,304.1089853000012,304.1089853000012,304.1089853000012,304.1089853000012,304.1089853000012,304.1089853000012,304.1089853000012,304.1089853000012,304.1089853000012,304.1089853000012,008,P003,2025_Jan_18_1214,ConditionRich,2021.2.3,59.940179700904935,
272.0,272.75,18,0.75,Stimuli/P003/sun_bplhnzkztpigweny.jpg,0,0.0,0.0,0,121,121,121,,,,,,,,,,,,,272.00524770000084,0.00524770000083663,None,,307.3785574000012,307.3785574000012,307.3785574000012,307.3785574000012,307.3785574000012,307.3785574000012,307.3785574000012,307.3785574000012,307.3785574000012,307.3785574000012,008,P003,2025_Jan_18_1214,ConditionRich,2021.2.3,59.940179700904935,
272.75,276.0,41,0.0,Stimuli/Blank.png,0,0.0,0.0,0,122,122,122,,,,,,,,,,,,,272.7743519000014,0.02435190000142029,5,3.182235000000219,308.1458806999999,308.1458806999999,308.1458806999999,308.1458806999999,308.1458806999999,308.1458806999999,308.1458806999999,308.1458806999999,308.1458806999999,308.1458806999999,008,P003,2025_Jan_18_1214,ConditionRich,2021.2.3,59.940179700904935,
276.0,292.0,0,0.0,Stimuli/Blank.png,1,6.0,6.75,0,123,123,123,,,,,,,,,,,,,276.02559440000005,0.025594400000045425,5,15.946107799998572,311.3820605000001,311.3820605000001,311.3820605000001,311.3820605000001,311.3820605000001,311.3820605000001,317.3706568000016,318.1213166000016,311.3820605000001,311.3820605000001,008,P003,2025_Jan_18_1214,ConditionRich,2021.2.3,59.940179700904935,
292.0,292.75,27,0.75,Stimuli/P003/things_llama_02s.jpg,0,0.0,0.0,0,124,124,124,,,,,,,,,,,,,292.0056777000009,0.005677700000887853,None,,327.36278870000024,327.36278870000024,327.36278870000024,327.36278870000024,327.36278870000024,327.36278870000024,327.36278870000024,327.36278870000024,327.36278870000024,327.36278870000024,008,P003,2025_Jan_18_1214,ConditionRich,2021.2.3,59.940179700904935,
292.75,296.0,41,0.0,Stimuli/Blank.png,0,0.0,0.0,0,125,125,125,,,,,,,,,,,,,292.7560418000012,0.006041800001185038,5,3.214737199999945,328.11344610000015,328.11344610000015,328.11344610000015,328.11344610000015,328.11344610000015,328.11344610000015,328.11344610000015,328.11344610000015,328.11344610000015,328.11344610000015,008,P003,2025_Jan_18_1214,ConditionRich,2021.2.3,59.940179700904935,
296.0,296.75,32,0.75,Stimuli/P003/things_pulley_02s.jpg,0,0.0,0.0,0,126,126,126,,,,,,,,,,,,,296.0092818000012,0.009281800001190277,None,,331.38300880000133,331.38300880000133,331.38300880000133,331.38300880000133,331.38300880000133,331.38300880000133,331.38300880000133,331.38300880000133,331.38300880000133,331.38300880000133,008,P003,2025_Jan_18_1214,ConditionRich,2021.2.3,59.940179700904935,
296.75,300.0,41,0.0,Stimuli/Blank.png,0,0.0,0.0,0,127,127,127,,,,,,,,,,,,,296.7766698000014,0.02666980000140029,5,3.195404000000053,332.1336495000014,332.1336495000014,332.1336495000014,332.1336495000014,332.1336495000014,332.1336495000014,332.1336495000014,332.1336495000014,332.1336495000014,332.1336495000014,008,P003,2025_Jan_18_1214,ConditionRich,2021.2.3,59.940179700904935,
300.0,300.75,9,0.75,Stimuli/P003/sun_auqtrqkaobyprnjy.jpg,0,0.0,0.0,0,128,128,128,,,,,,,,,,,,,300.0150384000008,0.015038400000776164,None,,335.38652250000086,335.38652250000086,335.38652250000086,335.38652250000086,335.38652250000086,335.38652250000086,335.38652250000086,335.38652250000086,335.38652250000086,335.38652250000086,008,P003,2025_Jan_18_1214,ConditionRich,2021.2.3,59.940179700904935,
300.75,304.0,41,0.0,Stimuli/Blank.png,0,0.0,0.0,0,129,129,129,,,,,,,,,,,,,300.78007870000147,0.03007870000146795,5,1.1918165999995836,336.1371697000013,336.1371697000013,336.1371697000013,336.1371697000013,336.1371697000013,336.1371697000013,336.1371697000013,336.1371697000013,336.1371697000013,336.1371697000013,008,P003,2025_Jan_18_1214,ConditionRich,2021.2.3,59.940179700904935,
304.0,304.75,20,0.75,Stimuli/P003/sun_bwytihadgigwkyht.jpg,0,0.0,0.0,0,130,130,130,,,,,,,,,,,,,303.99938290000136,-0.0006170999986352399,None,,339.35667040000044,339.35667040000044,339.35667040000044,339.35667040000044,339.35667040000044,339.35667040000044,339.35667040000044,339.35667040000044,339.35667040000044,339.35667040000044,008,P003,2025_Jan_18_1214,ConditionRich,2021.2.3,59.940179700904935,
304.75,308.0,41,0.0,Stimuli/Blank.png,0,0.0,0.0,0,131,131,131,,,,,,,,,,,,,304.7508512000004,0.0008512000003975118,5,3.204991799999334,340.1240419000005,340.1240419000005,340.1240419000005,340.1240419000005,340.1240419000005,340.1240419000005,340.1240419000005,340.1240419000005,340.1240419000005,340.1240419000005,008,P003,2025_Jan_18_1214,ConditionRich,2021.2.3,59.940179700904935,
308.0,308.75,39,0.75,Stimuli/P003/things_toad_02s.jpg,0,0.0,0.0,0,132,132,132,,,,,,,,,,,,,308.0204790000007,0.020479000000705128,None,,343.3935599000015,343.3935599000015,343.3935599000015,343.3935599000015,343.3935599000015,343.3935599000015,343.3935599000015,343.3935599000015,343.3935599000015,343.3935599000015,008,P003,2025_Jan_18_1214,ConditionRich,2021.2.3,59.940179700904935,
308.75,312.0,41,0.0,Stimuli/Blank.png,0,0.0,0.0,0,133,133,133,,,,,,,,,,,,,308.7698861000008,0.019886100000803708,5,3.2015150999995967,344.12753520000115,344.12753520000115,344.12753520000115,344.12753520000115,344.12753520000115,344.12753520000115,344.12753520000115,344.12753520000115,344.12753520000115,344.12753520000115,008,P003,2025_Jan_18_1214,ConditionRich,2021.2.3,59.940179700904935,
312.0,312.75,25,0.75,Stimuli/P003/things_girl_02s.jpg,0,0.0,0.0,0,134,134,134,,,,,,,,,,,,,312.00675820000106,0.006758200001058867,None,,347.38040920000094,347.38040920000094,347.38040920000094,347.38040920000094,347.38040920000094,347.38040920000094,347.38040920000094,347.38040920000094,347.38040920000094,347.38040920000094,008,P003,2025_Jan_18_1214,ConditionRich,2021.2.3,59.940179700904935,
312.75,316.0,41,0.0,Stimuli/Blank.png,0,0.0,0.0,0,135,135,135,,,,,,,,,,,,,312.7741979000002,0.024197900000217487,5,3.198153999999704,348.13108230000034,348.13108230000034,348.13108230000034,348.13108230000034,348.13108230000034,348.13108230000034,348.13108230000034,348.13108230000034,348.13108230000034,348.13108230000034,008,P003,2025_Jan_18_1214,ConditionRich,2021.2.3,59.940179700904935,
316.0,316.75,24,0.75,Stimuli/P003/things_dumpling_02s.jpg,0,0.0,0.0,0,136,136,136,,,,,,,,,,,,,316.01036660000136,0.010366600001361803,None,,351.38394320000043,351.38394320000043,351.38394320000043,351.38394320000043,351.38394320000043,351.38394320000043,351.38394320000043,351.38394320000043,351.38394320000043,351.38394320000043,008,P003,2025_Jan_18_1214,ConditionRich,2021.2.3,59.940179700904935,
316.75,320.0,41,0.0,Stimuli/Blank.png,1,2.25,3.0,0,137,137,137,,,,,,,,,,,,,316.7797963000012,0.029796300001180498,5,3.177683899999465,352.1512736000004,352.1512736000004,352.1512736000004,352.1512736000004,352.1512736000004,352.1512736000004,354.3865762000005,355.1372198000008,352.1512736000004,352.1512736000004,008,P003,2025_Jan_18_1214,ConditionRich,2021.2.3,59.940179700904935,
320.0,320.75,35,0.75,Stimuli/P003/things_satellite_dish_02s.jpg,0,0.0,0.0,0,138,138,138,,,,,,,,,,,,,320.01416419999987,0.014164199999868288,None,,355.3874603000004,355.3874603000004,355.3874603000004,355.3874603000004,355.3874603000004,355.3874603000004,355.3874603000004,355.3874603000004,355.3874603000004,355.3874603000004,008,P003,2025_Jan_18_1214,ConditionRich,2021.2.3,59.940179700904935,
320.75,324.0,41,0.0,Stimuli/Blank.png,1,1.25,2.0,0,139,139,139,,,,,,,,,,,,,320.7805453000001,0.030545300000085263,1,1.702912799999467,356.138108000001,356.138108000001,356.138108000001,356.138108000001,356.138108000001,356.138108000001,357.37252890000127,358.1231803999999,356.138108000001,356.138108000001,008,P003,2025_Jan_18_1214,ConditionRich,2021.2.3,59.940179700904935,
324.0,324.75,14,0.75,Stimuli/P003/sun_bhhtrmwvoadbfucw.jpg,0,0.0,0.0,0,140,140,140,,,,,,,,,,,,,324.0008988999998,0.0008988999998109648,None,,359.374304500001,359.374304500001,359.374304500001,359.374304500001,359.374304500001,359.374304500001,359.374304500001,359.374304500001,359.374304500001,359.374304500001,008,P003,2025_Jan_18_1214,ConditionRich,2021.2.3,59.940179700904935,
324.75,328.0,41,0.0,Stimuli/Blank.png,0,0.0,0.0,0,141,141,141,,,,,,,,,,,,,324.76960099999997,0.019600999999966007,5,3.1873662999987573,360.1416336000002,360.1416336000002,360.1416336000002,360.1416336000002,360.1416336000002,360.1416336000002,360.1416336000002,360.1416336000002,360.1416336000002,360.1416336000002,008,P003,2025_Jan_18_1214,ConditionRich,2021.2.3,59.940179700904935,
328.0,328.75,11,0.75,Stimuli/P003/sun_bawmjlzsuuivqjhi.jpg,0,0.0,0.0,0,142,142,142,,,,,,,,,,,,,328.0201549000012,0.020154900001216447,None,,363.3778121000014,363.3778121000014,363.3778121000014,363.3778121000014,363.3778121000014,363.3778121000014,363.3778121000014,363.3778121000014,363.3778121000014,363.3778121000014,008,P003,2025_Jan_18_1214,ConditionRich,2021.2.3,59.940179700904935,
328.75,332.0,41,0.0,Stimuli/Blank.png,0,0.0,0.0,0,143,143,143,,,,,,,,,,,,,328.754245600001,0.004245600001013372,5,3.2171560999995563,364.1117910000012,364.1117910000012,364.1117910000012,364.1117910000012,364.1117910000012,364.1117910000012,364.1117910000012,364.1117910000012,364.1117910000012,364.1117910000012,008,P003,2025_Jan_18_1214,ConditionRich,2021.2.3,59.940179700904935,
332.0,332.75,37,0.75,Stimuli/P003/things_ski_lift_02s.jpg,0,0.0,0.0,0,144,144,144,,,,,,,,,,,,,332.0098420000013,0.009842000001299311,None,,367.3813489000004,367.3813489000004,367.3813489000004,367.3813489000004,367.3813489000004,367.3813489000004,367.3813489000004,367.3813489000004,367.3813489000004,367.3813489000004,008,P003,2025_Jan_18_1214,ConditionRich,2021.2.3,59.940179700904935,
332.75,336.0,41,0.0,Stimuli/Blank.png,1,0.25,1.0,0,145,145,145,,,,,,,,,,,,,332.77492859999984,0.024928599999839207,5,3.196936899999855,368.1319989000003,368.1319989000003,368.1319989000003,368.1319989000003,368.1319989000003,368.1319989000003,368.36555990000124,369.1161890000003,368.1319989000003,368.1319989000003,008,P003,2025_Jan_18_1214,ConditionRich,2021.2.3,59.940179700904935,
336.0,336.75,16,0.75,Stimuli/P003/sun_bjuoemgleyaogrmw.jpg,0,0.0,0.0,0,146,146,146,,,,,,,,,,,,,336.0107872000008,0.010787200000777375,None,,371.36818029999995,371.36818029999995,371.36818029999995,371.36818029999995,371.36818029999995,371.36818029999995,371.36818029999995,371.36818029999995,371.36818029999995,371.36818029999995,008,P003,2025_Jan_18_1214,ConditionRich,2021.2.3,59.940179700904935,
336.75,340.0,41,0.0,Stimuli/Blank.png,0,0.0,0.0,0,147,147,147,,,,,,,,,,,,,336.7618842000011,0.01188420000107726,5,3.2102025999993202,372.1189391000007,372.1189391000007,372.1189391000007,372.1189391000007,372.1189391000007,372.1189391000007,372.1189391000007,372.1189391000007,372.1189391000007,372.1189391000007,008,P003,2025_Jan_18_1214,ConditionRich,2021.2.3,59.940179700904935,
340.0,340.75,6,0.75,Stimuli/P003/sun_aoumkoxfhlaobjef.jpg,0,0.0,0.0,0,148,148,148,,,,,,,,,,,,,340.0143282000008,0.01432820000081847,None,,375.3717049000006,375.3717049000006,375.3717049000006,375.3717049000006,375.3717049000006,375.3717049000006,375.3717049000006,375.3717049000006,375.3717049000006,375.3717049000006,008,P003,2025_Jan_18_1214,ConditionRich,2021.2.3,59.940179700904935,
340.75,344.0,41,0.0,Stimuli/Blank.png,1,2.25,3.0,0,149,149,149,,,,,,,,,,,,,340.7653938000003,0.015393800000310875,1,2.7054363999995985,376.1223650000011,376.1223650000011,376.1223650000011,376.1223650000011,376.1223650000011,376.1223650000011,378.35769940000137,379.10831620000135,376.1223650000011,376.1223650000011,008,P003,2025_Jan_18_1214,ConditionRich,2021.2.3,59.940179700904935,
344.0,344.75,33,0.75,Stimuli/P003/things_recorder_02s.jpg,0,0.0,0.0,0,150,150,150,,,,,,,,,,,,,344.0016121000008,0.0016121000007842667,None,,379.37523110000075,379.37523110000075,379.37523110000075,379.37523110000075,379.37523110000075,379.37523110000075,379.37523110000075,379.37523110000075,379.37523110000075,379.37523110000075,008,P003,2025_Jan_18_1214,ConditionRich,2021.2.3,59.940179700904935,
344.75,348.0,41,0.0,Stimuli/Blank.png,0,0.0,0.0,0,151,151,151,,,,,,,,,,,,,344.76901800000087,0.019018000000869506,5,3.2030367000006663,380.1258923000005,380.1258923000005,380.1258923000005,380.1258923000005,380.1258923000005,380.1258923000005,380.1258923000005,380.1258923000005,380.1258923000005,380.1258923000005,008,P003,2025_Jan_18_1214,ConditionRich,2021.2.3,59.940179700904935,
348.0,348.75,21,0.75,Stimuli/P003/things_baby_02s.jpg,0,0.0,0.0,0,152,152,152,,,,,,,,,,,,,348.005038700001,0.005038700001023244,None,,383.3620694000001,383.3620694000001,383.3620694000001,383.3620694000001,383.3620694000001,383.3620694000001,383.3620694000001,383.3620694000001,383.3620694000001,383.3620694000001,008,P003,2025_Jan_18_1214,ConditionRich,2021.2.3,59.940179700904935,
348.75,352.0,41,0.0,Stimuli/Blank.png,0,0.0,0.0,0,153,153,153,,,,,,,,,,,,,348.75607300000047,0.006073000000469619,5,3.216129500000534,384.1127264000006,384.1127264000006,384.1127264000006,384.1127264000006,384.1127264000006,384.1127264000006,384.1127264000006,384.1127264000006,384.1127264000006,384.1127264000006,008,P003,2025_Jan_18_1214,ConditionRich,2021.2.3,59.940179700904935,
352.0,352.75,29,0.75,Stimuli/P003/things_mat_02s.jpg,0,0.0,0.0,0,154,154,154,,,,,,,,,,,,,352.00911480000104,0.009114800001043477,None,,387.382283500001,387.382283500001,387.382283500001,387.382283500001,387.382283500001,387.382283500001,387.382283500001,387.382283500001,387.382283500001,387.382283500001,008,P003,2025_Jan_18_1214,ConditionRich,2021.2.3,59.940179700904935,
352.75,356.0,41,0.0,Stimuli/Blank.png,0,0.0,0.0,0,155,155,155,,,,,,,,,,,,,352.7755272000013,0.025527200001306483,5,3.1959442000006675,388.1329312000016,388.1329312000016,388.1329312000016,388.1329312000016,388.1329312000016,388.1329312000016,388.1329312000016,388.1329312000016,388.1329312000016,388.1329312000016,008,P003,2025_Jan_18_1214,ConditionRich,2021.2.3,59.940179700904935,
356.0,356.75,5,0.75,Stimuli/P003/sun_amnnxdwfjbdfumns.jpg,0,0.0,0.0,0,156,156,156,,,,,,,,,,,,,356.0145605000016,0.01456050000160758,None,,391.3858135999999,391.3858135999999,391.3858135999999,391.3858135999999,391.3858135999999,391.3858135999999,391.3858135999999,391.3858135999999,391.3858135999999,391.3858135999999,008,P003,2025_Jan_18_1214,ConditionRich,2021.2.3,59.940179700904935,
356.75,360.0,41,0.0,Stimuli/Blank.png,0,0.0,0.0,0,157,157,157,,,,,,,,,,,,,356.77982800000063,0.029828000000634347,5,1.192692699998588,392.1364676000012,392.1364676000012,392.1364676000012,392.1364676000012,392.1364676000012,392.1364676000012,392.1364676000012,392.1364676000012,392.1364676000012,392.1364676000012,008,P003,2025_Jan_18_1214,ConditionRich,2021.2.3,59.940179700904935,
360.0,360.75,22,0.75,Stimuli/P003/things_boy_02s.jpg,0,0.0,0.0,0,158,158,158,,,,,,,,,,,,,359.9988090000006,-0.0011909999993804377,None,,395.35594930000116,395.35594930000116,395.35594930000116,395.35594930000116,395.35594930000116,395.35594930000116,395.35594930000116,395.35594930000116,395.35594930000116,395.35594930000116,008,P003,2025_Jan_18_1214,ConditionRich,2021.2.3,59.940179700904935,
360.75,364.0,41,0.0,Stimuli/Blank.png,1,2.25,3.0,0,159,159,159,,,,,,,,,,,,,360.75010740000107,0.00010740000107034575,1,2.6963519000000815,396.106622700001,396.106622700001,396.106622700001,396.106622700001,396.106622700001,396.106622700001,398.3419002999999,399.0925739000013,396.106622700001,396.106622700001,008,P003,2025_Jan_18_1214,ConditionRich,2021.2.3,59.940179700904935,
364.0,364.75,4,0.75,Stimuli/P003/sun_albtqdieqkajejrg.jpg,0,0.0,0.0,0,160,160,160,,,,,,,,,,,,,364.00427410000157,0.004274100001566694,None,,399.37616230000094,399.37616230000094,399.37616230000094,399.37616230000094,399.37616230000094,399.37616230000094,399.37616230000094,399.37616230000094,399.37616230000094,399.37616230000094,008,P003,2025_Jan_18_1214,ConditionRich,2021.2.3,59.940179700904935,
364.75,368.0,41,0.0,Stimuli/Blank.png,0,0.0,0.0,0,161,161,161,,,,,,,,,,,,,364.7699349000013,0.019934900001317146,5,3.2021253000002616,400.1268215,400.1268215,400.1268215,400.1268215,400.1268215,400.1268215,400.1268215,400.1268215,400.1268215,400.1268215,008,P003,2025_Jan_18_1214,ConditionRich,2021.2.3,59.940179700904935,
368.0,368.75,15,0.75,Stimuli/P003/sun_bjhtdevvocmwtavk.jpg,0,0.0,0.0,0,162,162,162,,,,,,,,,,,,,368.00540340000043,0.005403400000432157,None,,403.36304870000095,403.36304870000095,403.36304870000095,403.36304870000095,403.36304870000095,403.36304870000095,403.36304870000095,403.36304870000095,403.36304870000095,403.36304870000095,008,P003,2025_Jan_18_1214,ConditionRich,2021.2.3,59.940179700904935,
368.75,372.0,41,0.0,Stimuli/Blank.png,0,0.0,0.0,0,163,163,163,,,,,,,,,,,,,368.75674750000144,0.006747500001438311,5,3.2151400999991893,404.11366910000106,404.11366910000106,404.11366910000106,404.11366910000106,404.11366910000106,404.11366910000106,404.11366910000106,404.11366910000106,404.11366910000106,404.11366910000106,008,P003,2025_Jan_18_1214,ConditionRich,2021.2.3,59.940179700904935,
372.0,388.0,0,0.0,Stimuli/Blank.png,1,6.0,6.75,0,164,164,164,,,,,,,,,,,,,372.00889730000017,0.008897300000171526,5,13.962296900001093,407.366543600001,407.366543600001,407.366543600001,407.366543600001,407.366543600001,407.366543600001,413.3551533000009,414.1057849000008,407.366543600001,407.366543600001,008,P003,2025_Jan_18_1214,ConditionRich,2021.2.3,59.940179700904935,
