eventStartTime,eventEndTime,eventCond,imSize,imFile,responseEvent,fixRespStart,fixRespEnd,Events.thisRepN,Events.thisTrialN,Events.thisN,Events.thisIndex,Instructions.started,Instructions.stopped,participantReadyResponse.keys,participantReadyResponse.rt,participantReadyResponse.started,participantReadyResponse.stopped,startWaitforTrigger,triggerResponse.keys,triggerResponse.rt,triggerResponse.started,triggerResponse.stopped,globalTimer,actualStartTime,startTimingDiff,participantResponse.keys,participantResponse.rt,participantResponse.started,participantResponse.stopped,image.started,image.stopped,fixationOutside.started,fixationOutside.stopped,fixationResponse.started,fixationResponse.stopped,fixationInside.started,fixationInside.stopped,session,participant,date,expName,psychopyVersion,frameRate,
,,,,,,,,,,,,12.223708000001352,None,1,1.3801506999989215,12.223708000001352,None,,,,,,,,,,,,,,,,,,,,,005,P003,2025_Jan_18_1145,ConditionRich,2021.2.3,59.94176058528163,
,,,,,,,,,,,,,,,,,,13.621672500001296,5,15.076152499999807,13.634396700001162,None,,,,,,,,,,,,,,,,005,P003,2025_Jan_18_1145,ConditionRich,2021.2.3,59.94176058528163,
0.0,4.0,0,0.0,Stimuli/Blank.png,0,0.0,0.0,0,0,0,0,,,,,,,,,,,,28.718534600000567,0.04340859999865643,0.04340859999865643,5,3.929605500001344,28.781114200000957,None,28.781114200000957,None,28.781114200000957,None,28.781114200000957,28.781114200000957,28.781114200000957,None,005,P003,2025_Jan_18_1145,ConditionRich,2021.2.3,59.94176058528163,
4.0,4.75,11,0.75,Stimuli/P003/sun_bawmjlzsuuivqjhi.jpg,0,0.0,0.0,0,1,1,1,,,,,,,,,,,,,4.019657099999677,0.019657099999676575,None,,32.751507000000856,32.751507000000856,32.751507000000856,32.751507000000856,32.751507000000856,32.751507000000856,32.751507000000856,32.751507000000856,32.751507000000856,32.751507000000856,005,P003,2025_Jan_18_1145,ConditionRich,2021.2.3,59.94176058528163,
4.75,8.0,41,0.0,Stimuli/Blank.png,1,0.25,1.0,0,2,2,2,,,,,,,,,,,,,4.752701099998376,0.0027010999983758666,5,1.224906399998872,33.48553979999997,33.48553979999997,33.48553979999997,33.48553979999997,33.48553979999997,33.48553979999997,33.71877960000165,34.469438700001774,33.48553979999997,33.48553979999997,005,P003,2025_Jan_18_1145,ConditionRich,2021.2.3,59.94176058528163,
8.0,8.75,35,0.75,Stimuli/P003/things_satellite_dish_02s.jpg,0,0.0,0.0,0,3,3,3,,,,,,,,,,,,,8.005248599998595,0.005248599998594727,None,,36.73810570000023,36.73810570000023,36.73810570000023,36.73810570000023,36.73810570000023,36.73810570000023,36.73810570000023,36.73810570000023,36.73810570000023,36.73810570000023,005,P003,2025_Jan_18_1145,ConditionRich,2021.2.3,59.94176058528163,
8.75,12.0,41,0.0,Stimuli/Blank.png,0,0.0,0.0,0,4,4,4,,,,,,,,,,,,,8.758047299999816,0.00804729999981646,5,3.205038500000228,37.50547480000023,37.50547480000023,37.50547480000023,37.50547480000023,37.50547480000023,37.50547480000023,37.50547480000023,37.50547480000023,37.50547480000023,37.50547480000023,005,P003,2025_Jan_18_1145,ConditionRich,2021.2.3,59.94176058528163,
12.0,12.75,6,0.75,Stimuli/P003/sun_aoumkoxfhlaobjef.jpg,0,0.0,0.0,0,5,5,5,,,,,,,,,,,,,12.025198299999829,0.025198299999829032,None,,40.75831070000095,40.75831070000095,40.75831070000095,40.75831070000095,40.75831070000095,40.75831070000095,40.75831070000095,40.75831070000095,40.75831070000095,40.75831070000095,005,P003,2025_Jan_18_1145,ConditionRich,2021.2.3,59.94176058528163,
12.75,16.0,41,0.0,Stimuli/Blank.png,0,0.0,0.0,0,6,6,6,,,,,,,,,,,,,12.759172499998385,0.00917249999838532,5,3.2182839999986754,41.492284500000096,41.492284500000096,41.492284500000096,41.492284500000096,41.492284500000096,41.492284500000096,41.492284500000096,41.492284500000096,41.492284500000096,41.492284500000096,005,P003,2025_Jan_18_1145,ConditionRich,2021.2.3,59.94176058528163,
16.0,16.75,7,0.75,Stimuli/P003/sun_asgixjtedklbawgm.jpg,0,0.0,0.0,0,7,7,7,,,,,,,,,,,,,16.012519699999757,0.012519699999756995,None,,44.74515040000006,44.74515040000006,44.74515040000006,44.74515040000006,44.74515040000006,44.74515040000006,44.74515040000006,44.74515040000006,44.74515040000006,44.74515040000006,005,P003,2025_Jan_18_1145,ConditionRich,2021.2.3,59.94176058528163,
16.75,20.0,41,0.0,Stimuli/Blank.png,0,0.0,0.0,0,8,8,8,,,,,,,,,,,,,16.764039599998796,0.014039599998795893,5,3.197922800000015,45.51251890000094,45.51251890000094,45.51251890000094,45.51251890000094,45.51251890000094,45.51251890000094,45.51251890000094,45.51251890000094,45.51251890000094,45.51251890000094,005,P003,2025_Jan_18_1145,ConditionRich,2021.2.3,59.94176058528163,
20.0,20.75,34,0.75,Stimuli/P003/things_roll_02s.jpg,0,0.0,0.0,0,9,9,9,,,,,,,,,,,,,20.0166438999986,0.0166438999985985,None,,48.76535640000111,48.76535640000111,48.76535640000111,48.76535640000111,48.76535640000111,48.76535640000111,48.76535640000111,48.76535640000111,48.76535640000111,48.76535640000111,005,P003,2025_Jan_18_1145,ConditionRich,2021.2.3,59.94176058528163,
20.75,24.0,41,0.0,Stimuli/Blank.png,0,0.0,0.0,0,10,10,10,,,,,,,,,,,,,20.76693879999948,0.01693879999947967,5,1.211414599998534,49.49933990000136,49.49933990000136,49.49933990000136,49.49933990000136,49.49933990000136,49.49933990000136,49.49933990000136,49.49933990000136,49.49933990000136,49.49933990000136,005,P003,2025_Jan_18_1145,ConditionRich,2021.2.3,59.94176058528163,
24.0,24.75,8,0.75,Stimuli/P003/sun_asxkyzleyfgbqfrs.jpg,0,0.0,0.0,0,11,11,11,,,,,,,,,,,,,24.00315149999915,0.0031514999991486548,None,,52.75220530000115,52.75220530000115,52.75220530000115,52.75220530000115,52.75220530000115,52.75220530000115,52.75220530000115,52.75220530000115,52.75220530000115,52.75220530000115,005,P003,2025_Jan_18_1145,ConditionRich,2021.2.3,59.94176058528163,
24.75,28.0,41,0.0,Stimuli/Blank.png,0,0.0,0.0,0,12,12,12,,,,,,,,,,,,,24.772380299998986,0.02238029999898572,5,3.191139300000941,53.51955360000102,53.51955360000102,53.51955360000102,53.51955360000102,53.51955360000102,53.51955360000102,53.51955360000102,53.51955360000102,53.51955360000102,53.51955360000102,005,P003,2025_Jan_18_1145,ConditionRich,2021.2.3,59.94176058528163,
28.0,28.75,9,0.75,Stimuli/P003/sun_auqtrqkaobyprnjy.jpg,0,0.0,0.0,0,13,13,13,,,,,,,,,,,,,28.02273949999835,0.022739499998351675,None,,56.755734200000006,56.755734200000006,56.755734200000006,56.755734200000006,56.755734200000006,56.755734200000006,56.755734200000006,56.755734200000006,56.755734200000006,56.755734200000006,005,P003,2025_Jan_18_1145,ConditionRich,2021.2.3,59.94176058528163,
28.75,32.0,41,0.0,Stimuli/Blank.png,0,0.0,0.0,0,14,14,14,,,,,,,,,,,,,28.757334899999478,0.007334899999477784,5,3.220691100001204,57.48971789999996,57.48971789999996,57.48971789999996,57.48971789999996,57.48971789999996,57.48971789999996,57.48971789999996,57.48971789999996,57.48971789999996,57.48971789999996,005,P003,2025_Jan_18_1145,ConditionRich,2021.2.3,59.94176058528163,
32.0,32.75,23,0.75,Stimuli/P003/things_butterfly_02s.jpg,0,0.0,0.0,0,15,15,15,,,,,,,,,,,,,32.00949069999842,0.009490699998423224,None,,60.742555800001355,60.742555800001355,60.742555800001355,60.742555800001355,60.742555800001355,60.742555800001355,60.742555800001355,60.742555800001355,60.742555800001355,60.742555800001355,005,P003,2025_Jan_18_1145,ConditionRich,2021.2.3,59.94176058528163,
32.75,36.0,41,0.0,Stimuli/Blank.png,0,0.0,0.0,0,16,16,16,,,,,,,,,,,,,32.76256639999883,0.012566399998831912,5,3.2005802000003314,61.50991940000131,61.50991940000131,61.50991940000131,61.50991940000131,61.50991940000131,61.50991940000131,61.50991940000131,61.50991940000131,61.50991940000131,61.50991940000131,005,P003,2025_Jan_18_1145,ConditionRich,2021.2.3,59.94176058528163,
36.0,36.75,20,0.75,Stimuli/P003/sun_bwytihadgigwkyht.jpg,0,0.0,0.0,0,17,17,17,,,,,,,,,,,,,36.0324356000001,0.03243560000009893,None,,64.77945890000046,64.77945890000046,64.77945890000046,64.77945890000046,64.77945890000046,64.77945890000046,64.77945890000046,64.77945890000046,64.77945890000046,64.77945890000046,005,P003,2025_Jan_18_1145,ConditionRich,2021.2.3,59.94176058528163,
36.75,40.0,41,0.0,Stimuli/Blank.png,0,0.0,0.0,0,18,18,18,,,,,,,,,,,,,36.7640707999999,0.014070799999899464,5,1.21355819999917,65.49675560000105,65.49675560000105,65.49675560000105,65.49675560000105,65.49675560000105,65.49675560000105,65.49675560000105,65.49675560000105,65.49675560000105,65.49675560000105,005,P003,2025_Jan_18_1145,ConditionRich,2021.2.3,59.94176058528163,
40.0,40.75,17,0.75,Stimuli/P003/sun_bojovhhraxtgafcy.jpg,0,0.0,0.0,0,19,19,19,,,,,,,,,,,,,40.00271109999994,0.0027110999999422347,None,,68.74961460000122,68.74961460000122,68.74961460000122,68.74961460000122,68.74961460000122,68.74961460000122,68.74961460000122,68.74961460000122,68.74961460000122,68.74961460000122,005,P003,2025_Jan_18_1145,ConditionRich,2021.2.3,59.94176058528163,
40.75,44.0,41,0.0,Stimuli/Blank.png,0,0.0,0.0,0,20,20,20,,,,,,,,,,,,,40.76830379999956,0.01830379999955767,5,1.2102720000002591,69.50027690000024,69.50027690000024,69.50027690000024,69.50027690000024,69.50027690000024,69.50027690000024,69.50027690000024,69.50027690000024,69.50027690000024,69.50027690000024,005,P003,2025_Jan_18_1145,ConditionRich,2021.2.3,59.94176058528163,
44.0,44.75,27,0.75,Stimuli/P003/things_llama_02s.jpg,0,0.0,0.0,0,21,21,21,,,,,,,,,,,,,44.00389809999979,0.0038980999997875188,None,,72.75315770000088,72.75315770000088,72.75315770000088,72.75315770000088,72.75315770000088,72.75315770000088,72.75315770000088,72.75315770000088,72.75315770000088,72.75315770000088,005,P003,2025_Jan_18_1145,ConditionRich,2021.2.3,59.94176058528163,
44.75,48.0,41,0.0,Stimuli/Blank.png,1,0.25,1.0,0,22,22,22,,,,,,,,,,,,,44.772858699998324,0.022858699998323573,5,3.1901326999995945,73.5204861000002,73.5204861000002,73.5204861000002,73.5204861000002,73.5204861000002,73.5204861000002,73.75402360000044,74.50467840000056,73.5204861000002,73.5204861000002,005,P003,2025_Jan_18_1145,ConditionRich,2021.2.3,59.94176058528163,
48.0,48.75,22,0.75,Stimuli/P003/things_boy_02s.jpg,0,0.0,0.0,0,23,23,23,,,,,,,,,,,,,48.023697299999185,0.023697299999184906,None,,76.75665590000062,76.75665590000062,76.75665590000062,76.75665590000062,76.75665590000062,76.75665590000062,76.75665590000062,76.75665590000062,76.75665590000062,76.75665590000062,005,P003,2025_Jan_18_1145,ConditionRich,2021.2.3,59.94176058528163,
48.75,52.0,41,0.0,Stimuli/Blank.png,1,2.25,3.0,0,24,24,24,,,,,,,,,,,,,48.757877899999585,0.00787789999958477,5,3.2199274000013247,77.49061000000074,77.49061000000074,77.49061000000074,77.49061000000074,77.49061000000074,77.49061000000074,79.72596000000158,80.47657790000085,77.49061000000074,77.49061000000074,005,P003,2025_Jan_18_1145,ConditionRich,2021.2.3,59.94176058528163,
52.0,52.75,28,0.75,Stimuli/P003/things_man_02s.jpg,0,0.0,0.0,0,25,25,25,,,,,,,,,,,,,52.01076449999891,0.01076449999891338,None,,80.74351590000151,80.74351590000151,80.74351590000151,80.74351590000151,80.74351590000151,80.74351590000151,80.74351590000151,80.74351590000151,80.74351590000151,80.74351590000151,005,P003,2025_Jan_18_1145,ConditionRich,2021.2.3,59.94176058528163,
52.75,56.0,41,0.0,Stimuli/Blank.png,1,1.25,2.0,0,26,26,26,,,,,,,,,,,,,52.76233169999978,0.012331699999776902,5,3.216189200000372,81.49417390000053,81.49417390000053,81.49417390000053,81.49417390000053,81.49417390000053,81.49417390000053,82.72857810000096,83.4792436000007,81.49417390000053,81.49417390000053,005,P003,2025_Jan_18_1145,ConditionRich,2021.2.3,59.94176058528163,
56.0,56.75,32,0.75,Stimuli/P003/things_pulley_02s.jpg,0,0.0,0.0,0,27,27,27,,,,,,,,,,,,,56.0145182999986,0.014518299998599105,None,,84.76371580000159,84.76371580000159,84.76371580000159,84.76371580000159,84.76371580000159,84.76371580000159,84.76371580000159,84.76371580000159,84.76371580000159,84.76371580000159,005,P003,2025_Jan_18_1145,ConditionRich,2021.2.3,59.94176058528163,
56.75,60.0,41,0.0,Stimuli/Blank.png,0,0.0,0.0,0,28,28,28,,,,,,,,,,,,,56.782042199998614,0.032042199998613796,5,1.1959517000013875,85.51437880000049,85.51437880000049,85.51437880000049,85.51437880000049,85.51437880000049,85.51437880000049,85.51437880000049,85.51437880000049,85.51437880000049,85.51437880000049,005,P003,2025_Jan_18_1145,ConditionRich,2021.2.3,59.94176058528163,
60.0,60.75,25,0.75,Stimuli/P003/things_girl_02s.jpg,0,0.0,0.0,0,29,29,29,,,,,,,,,,,,,60.001244699999006,0.0012446999990061158,None,,88.73387280000134,88.73387280000134,88.73387280000134,88.73387280000134,88.73387280000134,88.73387280000134,88.73387280000134,88.73387280000134,88.73387280000134,88.73387280000134,005,P003,2025_Jan_18_1145,ConditionRich,2021.2.3,59.94176058528163,
60.75,64.0,41,0.0,Stimuli/Blank.png,0,0.0,0.0,0,30,30,30,,,,,,,,,,,,,60.752121599998645,0.0021215999986452516,5,1.2259527999995044,89.4845245000015,89.4845245000015,89.4845245000015,89.4845245000015,89.4845245000015,89.4845245000015,89.4845245000015,89.4845245000015,89.4845245000015,89.4845245000015,005,P003,2025_Jan_18_1145,ConditionRich,2021.2.3,59.94176058528163,
64.0,64.75,37,0.75,Stimuli/P003/things_ski_lift_02s.jpg,0,0.0,0.0,0,31,31,31,,,,,,,,,,,,,64.00505629999861,0.005056299998614122,None,,92.73739490000116,92.73739490000116,92.73739490000116,92.73739490000116,92.73739490000116,92.73739490000116,92.73739490000116,92.73739490000116,92.73739490000116,92.73739490000116,005,P003,2025_Jan_18_1145,ConditionRich,2021.2.3,59.94176058528163,
64.75,68.0,41,0.0,Stimuli/Blank.png,0,0.0,0.0,0,32,32,32,,,,,,,,,,,,,64.75732389999939,0.00732389999939187,5,1.2224841999995988,93.48806190000141,93.48806190000141,93.48806190000141,93.48806190000141,93.48806190000141,93.48806190000141,93.48806190000141,93.48806190000141,93.48806190000141,93.48806190000141,005,P003,2025_Jan_18_1145,ConditionRich,2021.2.3,59.94176058528163,
68.0,68.75,12,0.75,Stimuli/P003/sun_bcboctumoxwpdefl.jpg,0,0.0,0.0,0,33,33,33,,,,,,,,,,,,,68.0081085999991,0.008108599999104626,None,,96.75759820000167,96.75759820000167,96.75759820000167,96.75759820000167,96.75759820000167,96.75759820000167,96.75759820000167,96.75759820000167,96.75759820000167,96.75759820000167,005,P003,2025_Jan_18_1145,ConditionRich,2021.2.3,59.94176058528163,
68.75,72.0,41,0.0,Stimuli/Blank.png,0,0.0,0.0,0,34,34,34,,,,,,,,,,,,,68.77665709999928,0.026657099999283673,5,3.2020142000001215,97.50826600000073,97.50826600000073,97.50826600000073,97.50826600000073,97.50826600000073,97.50826600000073,97.50826600000073,97.50826600000073,97.50826600000073,97.50826600000073,005,P003,2025_Jan_18_1145,ConditionRich,2021.2.3,59.94176058528163,
72.0,72.75,21,0.75,Stimuli/P003/things_baby_02s.jpg,0,0.0,0.0,0,35,35,35,,,,,,,,,,,,,72.01199189999897,0.011991899998974986,None,,100.74443810000048,100.74443810000048,100.74443810000048,100.74443810000048,100.74443810000048,100.74443810000048,100.74443810000048,100.74443810000048,100.74443810000048,100.74443810000048,005,P003,2025_Jan_18_1145,ConditionRich,2021.2.3,59.94176058528163,
72.75,76.0,41,0.0,Stimuli/Blank.png,0,0.0,0.0,0,36,36,36,,,,,,,,,,,,,72.76306839999961,0.013068399999610847,5,3.1984073000003264,101.5117975000012,101.5117975000012,101.5117975000012,101.5117975000012,101.5117975000012,101.5117975000012,101.5117975000012,101.5117975000012,101.5117975000012,101.5117975000012,005,P003,2025_Jan_18_1145,ConditionRich,2021.2.3,59.94176058528163,
76.0,76.75,18,0.75,Stimuli/P003/sun_bplhnzkztpigweny.jpg,0,0.0,0.0,0,37,37,37,,,,,,,,,,,,,76.01561749999928,0.015617499999279971,None,,104.74795910000103,104.74795910000103,104.74795910000103,104.74795910000103,104.74795910000103,104.74795910000103,104.74795910000103,104.74795910000103,104.74795910000103,104.74795910000103,005,P003,2025_Jan_18_1145,ConditionRich,2021.2.3,59.94176058528163,
76.75,80.0,41,0.0,Stimuli/Blank.png,0,0.0,0.0,0,38,38,38,,,,,,,,,,,,,76.74965239999983,-0.00034760000016831327,5,1.2285431999989669,105.48194670000157,105.48194670000157,105.48194670000157,105.48194670000157,105.48194670000157,105.48194670000157,105.48194670000157,105.48194670000157,105.48194670000157,105.48194670000157,005,P003,2025_Jan_18_1145,ConditionRich,2021.2.3,59.94176058528163,
80.0,80.75,33,0.75,Stimuli/P003/things_recorder_02s.jpg,0,0.0,0.0,0,39,39,39,,,,,,,,,,,,,80.0019089999987,0.0019089999987045303,None,,108.73481380000158,108.73481380000158,108.73481380000158,108.73481380000158,108.73481380000158,108.73481380000158,108.73481380000158,108.73481380000158,108.73481380000158,108.73481380000158,005,P003,2025_Jan_18_1145,ConditionRich,2021.2.3,59.94176058528163,
80.75,84.0,41,0.0,Stimuli/Blank.png,0,0.0,0.0,0,40,40,40,,,,,,,,,,,,,80.75331239999832,0.00331239999832178,5,1.224806099999114,109.4854718000006,109.4854718000006,109.4854718000006,109.4854718000006,109.4854718000006,109.4854718000006,109.4854718000006,109.4854718000006,109.4854718000006,109.4854718000006,005,P003,2025_Jan_18_1145,ConditionRich,2021.2.3,59.94176058528163,
84.0,100.0,0,0.0,Stimuli/Blank.png,1,4.0,4.75,0,41,41,41,,,,,,,,,,,,,84.0060240999992,0.006024099999194732,5,13.972046799999589,112.73832820000098,112.73832820000098,112.73832820000098,112.73832820000098,112.73832820000098,112.73832820000098,116.72516140000153,117.47587190000013,112.73832820000098,112.73832820000098,005,P003,2025_Jan_18_1145,ConditionRich,2021.2.3,59.94176058528163,
100.0,100.75,2,0.75,Stimuli/P003/sun_afijjzyziczoqdhz.jpg,0,0.0,0.0,0,42,42,42,,,,,,,,,,,,,100.00301129999934,0.003011299999343464,None,,128.73574200000076,128.73574200000076,128.73574200000076,128.73574200000076,128.73574200000076,128.73574200000076,128.73574200000076,128.73574200000076,128.73574200000076,128.73574200000076,005,P003,2025_Jan_18_1145,ConditionRich,2021.2.3,59.94176058528163,
100.75,104.0,41,0.0,Stimuli/Blank.png,1,0.25,1.0,0,43,43,43,,,,,,,,,,,,,100.75404059999892,0.00404059999891615,5,1.2237203000004229,129.48640390000037,129.48640390000037,129.48640390000037,129.48640390000037,129.48640390000037,129.48640390000037,129.7199341000014,130.4706384000001,129.48640390000037,129.48640390000037,005,P003,2025_Jan_18_1145,ConditionRich,2021.2.3,59.94176058528163,
104.0,104.75,16,0.75,Stimuli/P003/sun_bjuoemgleyaogrmw.jpg,0,0.0,0.0,0,44,44,44,,,,,,,,,,,,,104.00694509999994,0.006945099999938975,None,,132.73927300000105,132.73927300000105,132.73927300000105,132.73927300000105,132.73927300000105,132.73927300000105,132.73927300000105,132.73927300000105,132.73927300000105,132.73927300000105,005,P003,2025_Jan_18_1145,ConditionRich,2021.2.3,59.94176058528163,
104.75,108.0,41,0.0,Stimuli/Blank.png,0,0.0,0.0,0,45,45,45,,,,,,,,,,,,,104.75777139999991,0.0077713999999105,5,3.2203048000010313,133.48993250000058,133.48993250000058,133.48993250000058,133.48993250000058,133.48993250000058,133.48993250000058,133.48993250000058,133.48993250000058,133.48993250000058,133.48993250000058,005,P003,2025_Jan_18_1145,ConditionRich,2021.2.3,59.94176058528163,
108.0,108.75,36,0.75,Stimuli/P003/things_sea_urchin_02s.jpg,0,0.0,0.0,0,46,46,46,,,,,,,,,,,,,108.01048049999918,0.010480499999175663,None,,136.75947760000054,136.75947760000054,136.75947760000054,136.75947760000054,136.75947760000054,136.75947760000054,136.75947760000054,136.75947760000054,136.75947760000054,136.75947760000054,005,P003,2025_Jan_18_1145,ConditionRich,2021.2.3,59.94176058528163,
108.75,112.0,41,0.0,Stimuli/Blank.png,1,2.25,3.0,0,47,47,47,,,,,,,,,,,,,108.77811429999929,0.02811429999928805,5,3.2001098999990063,137.51013430000057,137.51013430000057,137.51013430000057,137.51013430000057,137.51013430000057,137.51013430000057,139.74542850000034,140.49613350000072,137.51013430000057,137.51013430000057,005,P003,2025_Jan_18_1145,ConditionRich,2021.2.3,59.94176058528163,
112.0,112.75,30,0.75,Stimuli/P003/things_music_box_02s.jpg,0,0.0,0.0,0,48,48,48,,,,,,,,,,,,,112.01410939999914,0.014109399999142624,None,,140.76301110000168,140.76301110000168,140.76301110000168,140.76301110000168,140.76301110000168,140.76301110000168,140.76301110000168,140.76301110000168,140.76301110000168,140.76301110000168,005,P003,2025_Jan_18_1145,ConditionRich,2021.2.3,59.94176058528163,
112.75,116.0,41,0.0,Stimuli/Blank.png,0,0.0,0.0,0,49,49,49,,,,,,,,,,,,,112.78271820000009,0.03271820000009029,5,3.1799563000004127,141.53030890000082,141.53030890000082,141.53030890000082,141.53030890000082,141.53030890000082,141.53030890000082,141.53030890000082,141.53030890000082,141.53030890000082,141.53030890000082,005,P003,2025_Jan_18_1145,ConditionRich,2021.2.3,59.94176058528163,
116.0,116.75,39,0.75,Stimuli/P003/things_toad_02s.jpg,0,0.0,0.0,0,50,50,50,,,,,,,,,,,,,116.01699339999868,0.016993399998682435,None,,144.74983500000053,144.74983500000053,144.74983500000053,144.74983500000053,144.74983500000053,144.74983500000053,144.74983500000053,144.74983500000053,144.74983500000053,144.74983500000053,005,P003,2025_Jan_18_1145,ConditionRich,2021.2.3,59.94176058528163,
116.75,120.0,41,0.0,Stimuli/Blank.png,0,0.0,0.0,0,51,51,51,,,,,,,,,,,,,116.75090969999837,0.0009096999983739806,5,1.226323400000183,145.48382050000146,145.48382050000146,145.48382050000146,145.48382050000146,145.48382050000146,145.48382050000146,145.48382050000146,145.48382050000146,145.48382050000146,145.48382050000146,005,P003,2025_Jan_18_1145,ConditionRich,2021.2.3,59.94176058528163,
120.0,120.75,4,0.75,Stimuli/P003/sun_albtqdieqkajejrg.jpg,0,0.0,0.0,0,52,52,52,,,,,,,,,,,,,120.00445939999918,0.004459399999177549,None,,148.7533540000004,148.7533540000004,148.7533540000004,148.7533540000004,148.7533540000004,148.7533540000004,148.7533540000004,148.7533540000004,148.7533540000004,148.7533540000004,005,P003,2025_Jan_18_1145,ConditionRich,2021.2.3,59.94176058528163,
120.75,124.0,41,0.0,Stimuli/Blank.png,0,0.0,0.0,0,53,53,53,,,,,,,,,,,,,120.77179399999841,0.021793999998408253,5,1.2060192999997525,149.50402420000137,149.50402420000137,149.50402420000137,149.50402420000137,149.50402420000137,149.50402420000137,149.50402420000137,149.50402420000137,149.50402420000137,149.50402420000137,005,P003,2025_Jan_18_1145,ConditionRich,2021.2.3,59.94176058528163,
124.0,124.75,40,0.75,Stimuli/P003/things_woman_02s.jpg,0,0.0,0.0,0,54,54,54,,,,,,,,,,,,,124.00736799999868,0.007367999998677988,None,,152.74019350000162,152.74019350000162,152.74019350000162,152.74019350000162,152.74019350000162,152.74019350000162,152.74019350000162,152.74019350000162,152.74019350000162,152.74019350000162,005,P003,2025_Jan_18_1145,ConditionRich,2021.2.3,59.94176058528163,
124.75,128.0,41,0.0,Stimuli/Blank.png,0,0.0,0.0,0,55,55,55,,,,,,,,,,,,,124.75839259999884,0.008392599998842343,5,3.2192759000008664,153.4908587000009,153.4908587000009,153.4908587000009,153.4908587000009,153.4908587000009,153.4908587000009,153.4908587000009,153.4908587000009,153.4908587000009,153.4908587000009,005,P003,2025_Jan_18_1145,ConditionRich,2021.2.3,59.94176058528163,
128.0,128.75,24,0.75,Stimuli/P003/things_dumpling_02s.jpg,0,0.0,0.0,0,56,56,56,,,,,,,,,,,,,128.01100659999975,0.011006599999745958,None,,156.7437200000004,156.7437200000004,156.7437200000004,156.7437200000004,156.7437200000004,156.7437200000004,156.7437200000004,156.7437200000004,156.7437200000004,156.7437200000004,005,P003,2025_Jan_18_1145,ConditionRich,2021.2.3,59.94176058528163,
128.75,132.0,41,0.0,Stimuli/Blank.png,1,2.25,3.0,0,57,57,57,,,,,,,,,,,,,128.76261969999905,0.012619699999049772,5,3.215619599999627,157.4943948,157.4943948,157.4943948,157.4943948,157.4943948,157.4943948,159.72967740000058,160.48033440000108,157.4943948,157.4943948,005,P003,2025_Jan_18_1145,ConditionRich,2021.2.3,59.94176058528163,
132.0,132.75,14,0.75,Stimuli/P003/sun_bhhtrmwvoadbfucw.jpg,0,0.0,0.0,0,58,58,58,,,,,,,,,,,,,132.0148111999988,0.014811199998803204,None,,160.74724440000136,160.74724440000136,160.74724440000136,160.74724440000136,160.74724440000136,160.74724440000136,160.74724440000136,160.74724440000136,160.74724440000136,160.74724440000136,005,P003,2025_Jan_18_1145,ConditionRich,2021.2.3,59.94176058528163,
132.75,136.0,41,0.0,Stimuli/Blank.png,0,0.0,0.0,0,59,59,59,,,,,,,,,,,,,132.76470659999904,0.014706599999044556,5,1.2122736000001169,161.49790460000077,161.49790460000077,161.49790460000077,161.49790460000077,161.49790460000077,161.49790460000077,161.49790460000077,161.49790460000077,161.49790460000077,161.49790460000077,005,P003,2025_Jan_18_1145,ConditionRich,2021.2.3,59.94176058528163,
136.0,136.75,1,0.75,Stimuli/P003/sun_adgmtzznutwlescq.jpg,0,0.0,0.0,0,60,60,60,,,,,,,,,,,,,136.00182639999912,0.0018263999991177116,None,,164.75076760000047,164.75076760000047,164.75076760000047,164.75076760000047,164.75076760000047,164.75076760000047,164.75076760000047,164.75076760000047,164.75076760000047,164.75076760000047,005,P003,2025_Jan_18_1145,ConditionRich,2021.2.3,59.94176058528163,
136.75,140.0,41,0.0,Stimuli/Blank.png,0,0.0,0.0,0,61,61,61,,,,,,,,,,,,,136.76909739999974,0.019097399999736808,5,1.2084665999991557,165.5014996000009,165.5014996000009,165.5014996000009,165.5014996000009,165.5014996000009,165.5014996000009,165.5014996000009,165.5014996000009,165.5014996000009,165.5014996000009,005,P003,2025_Jan_18_1145,ConditionRich,2021.2.3,59.94176058528163,
140.0,140.75,38,0.75,Stimuli/P003/things_slug_02s.jpg,0,0.0,0.0,0,62,62,62,,,,,,,,,,,,,140.00527939999847,0.00527939999847149,None,,168.73762540000098,168.73762540000098,168.73762540000098,168.73762540000098,168.73762540000098,168.73762540000098,168.73762540000098,168.73762540000098,168.73762540000098,168.73762540000098,005,P003,2025_Jan_18_1145,ConditionRich,2021.2.3,59.94176058528163,
140.75,144.0,41,0.0,Stimuli/Blank.png,0,0.0,0.0,0,63,63,63,,,,,,,,,,,,,140.75572339999962,0.005723399999624235,5,1.2219633999993675,169.4882847000008,169.4882847000008,169.4882847000008,169.4882847000008,169.4882847000008,169.4882847000008,169.4882847000008,169.4882847000008,169.4882847000008,169.4882847000008,005,P003,2025_Jan_18_1145,ConditionRich,2021.2.3,59.94176058528163,
144.0,144.75,10,0.75,Stimuli/P003/sun_azzneunxibjvypza.jpg,0,0.0,0.0,0,64,64,64,,,,,,,,,,,,,144.00805929999842,0.00805929999842192,None,,172.74113380000017,172.74113380000017,172.74113380000017,172.74113380000017,172.74113380000017,172.74113380000017,172.74113380000017,172.74113380000017,172.74113380000017,172.74113380000017,005,P003,2025_Jan_18_1145,ConditionRich,2021.2.3,59.94176058528163,
144.75,148.0,41,0.0,Stimuli/Blank.png,0,0.0,0.0,0,65,65,65,,,,,,,,,,,,,144.75944119999986,0.009441199999855598,5,3.2183216999983415,173.49179490000097,173.49179490000097,173.49179490000097,173.49179490000097,173.49179490000097,173.49179490000097,173.49179490000097,173.49179490000097,173.49179490000097,173.49179490000097,005,P003,2025_Jan_18_1145,ConditionRich,2021.2.3,59.94176058528163,
148.0,148.75,26,0.75,Stimuli/P003/things_ham_02s.jpg,0,0.0,0.0,0,66,66,66,,,,,,,,,,,,,148.01288249999925,0.012882499999250285,None,,176.76133440000012,176.76133440000012,176.76133440000012,176.76133440000012,176.76133440000012,176.76133440000012,176.76133440000012,176.76133440000012,176.76133440000012,176.76133440000012,005,P003,2025_Jan_18_1145,ConditionRich,2021.2.3,59.94176058528163,
148.75,152.0,41,0.0,Stimuli/Blank.png,0,0.0,0.0,0,67,67,67,,,,,,,,,,,,,148.77930259999994,0.02930259999993723,5,3.1978607999990345,177.5121024,177.5121024,177.5121024,177.5121024,177.5121024,177.5121024,177.5121024,177.5121024,177.5121024,177.5121024,005,P003,2025_Jan_18_1145,ConditionRich,2021.2.3,59.94176058528163,
152.0,152.75,3,0.75,Stimuli/P003/sun_afqjzrocqhabifao.jpg,0,0.0,0.0,0,68,68,68,,,,,,,,,,,,,152.0151836999994,0.015183699999397504,None,,180.74840740000036,180.74840740000036,180.74840740000036,180.74840740000036,180.74840740000036,180.74840740000036,180.74840740000036,180.74840740000036,180.74840740000036,180.74840740000036,005,P003,2025_Jan_18_1145,ConditionRich,2021.2.3,59.94176058528163,
152.75,156.0,41,0.0,Stimuli/Blank.png,1,1.25,2.0,0,69,69,69,,,,,,,,,,,,,152.76663929999995,0.016639299999951618,1,1.6832469000000856,181.498841300001,181.498841300001,181.498841300001,181.498841300001,181.498841300001,181.498841300001,182.73325870000008,183.48391920000176,181.498841300001,181.498841300001,005,P003,2025_Jan_18_1145,ConditionRich,2021.2.3,59.94176058528163,
156.0,156.75,29,0.75,Stimuli/P003/things_mat_02s.jpg,0,0.0,0.0,0,70,70,70,,,,,,,,,,,,,156.00273559999914,0.0027355999991414137,None,,184.75169900000037,184.75169900000037,184.75169900000037,184.75169900000037,184.75169900000037,184.75169900000037,184.75169900000037,184.75169900000037,184.75169900000037,184.75169900000037,005,P003,2025_Jan_18_1145,ConditionRich,2021.2.3,59.94176058528163,
156.75,160.0,41,0.0,Stimuli/Blank.png,0,0.0,0.0,0,71,71,71,,,,,,,,,,,,,156.7698053999993,0.019805399999313522,5,1.2076284999984637,185.50236080000104,185.50236080000104,185.50236080000104,185.50236080000104,185.50236080000104,185.50236080000104,185.50236080000104,185.50236080000104,185.50236080000104,185.50236080000104,005,P003,2025_Jan_18_1145,ConditionRich,2021.2.3,59.94176058528163,
160.0,160.75,13,0.75,Stimuli/P003/sun_bhbiqbqmwrowrqpd.jpg,0,0.0,0.0,0,72,72,72,,,,,,,,,,,,,160.0061569999998,0.0061569999998027924,None,,188.73854590000155,188.73854590000155,188.73854590000155,188.73854590000155,188.73854590000155,188.73854590000155,188.73854590000155,188.73854590000155,188.73854590000155,188.73854590000155,005,P003,2025_Jan_18_1145,ConditionRich,2021.2.3,59.94176058528163,
160.75,164.0,41,0.0,Stimuli/Blank.png,0,0.0,0.0,0,73,73,73,,,,,,,,,,,,,160.75671489999877,0.006714899998769397,None,,189.48921040000096,189.48921040000096,189.48921040000096,189.48921040000096,189.48921040000096,189.48921040000096,189.48921040000096,189.48921040000096,189.48921040000096,189.48921040000096,005,P003,2025_Jan_18_1145,ConditionRich,2021.2.3,59.94176058528163,
164.0,164.75,31,0.75,Stimuli/P003/things_pea_02s.jpg,0,0.0,0.0,0,74,74,74,,,,,,,,,,,,,164.00913349999973,0.00913349999973434,None,,192.75876010000138,192.75876010000138,192.75876010000138,192.75876010000138,192.75876010000138,192.75876010000138,192.75876010000138,192.75876010000138,192.75876010000138,192.75876010000138,005,P003,2025_Jan_18_1145,ConditionRich,2021.2.3,59.94176058528163,
164.75,168.0,41,0.0,Stimuli/Blank.png,1,2.25,3.0,0,75,75,75,,,,,,,,,,,,,164.77763539999978,0.02763539999978093,5,3.2006150000015623,193.5094121000002,193.5094121000002,193.5094121000002,193.5094121000002,193.5094121000002,193.5094121000002,195.74471170000106,196.4954275,193.5094121000002,193.5094121000002,005,P003,2025_Jan_18_1145,ConditionRich,2021.2.3,59.94176058528163,
168.0,168.75,5,0.75,Stimuli/P003/sun_amnnxdwfjbdfumns.jpg,0,0.0,0.0,0,76,76,76,,,,,,,,,,,,,168.0132283999992,0.013228399999206886,None,,196.76229260000036,196.76229260000036,196.76229260000036,196.76229260000036,196.76229260000036,196.76229260000036,196.76229260000036,196.76229260000036,196.76229260000036,196.76229260000036,005,P003,2025_Jan_18_1145,ConditionRich,2021.2.3,59.94176058528163,
168.75,172.0,41,0.0,Stimuli/Blank.png,0,0.0,0.0,0,77,77,77,,,,,,,,,,,,,168.7805333999986,0.030533399998603272,5,1.1968563999998878,197.5130095000004,197.5130095000004,197.5130095000004,197.5130095000004,197.5130095000004,197.5130095000004,197.5130095000004,197.5130095000004,197.5130095000004,197.5130095000004,005,P003,2025_Jan_18_1145,ConditionRich,2021.2.3,59.94176058528163,
172.0,172.75,19,0.75,Stimuli/P003/sun_bucebxfexknakpma.jpg,0,0.0,0.0,0,78,78,78,,,,,,,,,,,,,172.0001384999996,0.0001384999995934777,None,,200.74912650000078,200.74912650000078,200.74912650000078,200.74912650000078,200.74912650000078,200.74912650000078,200.74912650000078,200.74912650000078,200.74912650000078,200.74912650000078,005,P003,2025_Jan_18_1145,ConditionRich,2021.2.3,59.94176058528163,
172.75,176.0,41,0.0,Stimuli/Blank.png,0,0.0,0.0,0,79,79,79,,,,,,,,,,,,,172.76714979999997,0.017149799999970128,5,1.2102878000005148,201.49977840000065,201.49977840000065,201.49977840000065,201.49977840000065,201.49977840000065,201.49977840000065,201.49977840000065,201.49977840000065,201.49977840000065,201.49977840000065,005,P003,2025_Jan_18_1145,ConditionRich,2021.2.3,59.94176058528163,
176.0,176.75,15,0.75,Stimuli/P003/sun_bjhtdevvocmwtavk.jpg,0,0.0,0.0,0,80,80,80,,,,,,,,,,,,,176.00340509999842,0.003405099998417427,None,,204.7526549000013,204.7526549000013,204.7526549000013,204.7526549000013,204.7526549000013,204.7526549000013,204.7526549000013,204.7526549000013,204.7526549000013,204.7526549000013,005,P003,2025_Jan_18_1145,ConditionRich,2021.2.3,59.94176058528163,
176.75,180.0,41,0.0,Stimuli/Blank.png,0,0.0,0.0,0,81,81,81,,,,,,,,,,,,,176.77068789999976,0.020687899999757065,5,1.2065246000001935,205.50329190000048,205.50329190000048,205.50329190000048,205.50329190000048,205.50329190000048,205.50329190000048,205.50329190000048,205.50329190000048,205.50329190000048,205.50329190000048,005,P003,2025_Jan_18_1145,ConditionRich,2021.2.3,59.94176058528163,
180.0,196.0,0,0.0,Stimuli/Blank.png,1,11.0,11.75,0,82,82,82,,,,,,,,,,,,,180.0081556999994,0.008155699999406352,5,13.970739800000956,208.73949930000163,208.73949930000163,208.73949930000163,208.73949930000163,208.73949930000163,208.73949930000163,219.73251970000092,220.48317440000028,208.73949930000163,208.73949930000163,005,P003,2025_Jan_18_1145,ConditionRich,2021.2.3,59.94176058528163,
196.0,196.75,21,0.75,Stimuli/P003/things_baby_02s.jpg,0,0.0,0.0,0,83,83,83,,,,,,,,,,,,,196.00430199999937,0.0043019999993703095,None,,224.7368888000001,224.7368888000001,224.7368888000001,224.7368888000001,224.7368888000001,224.7368888000001,224.7368888000001,224.7368888000001,224.7368888000001,224.7368888000001,005,P003,2025_Jan_18_1145,ConditionRich,2021.2.3,59.94176058528163,
196.75,200.0,41,0.0,Stimuli/Blank.png,0,0.0,0.0,0,84,84,84,,,,,,,,,,,,,196.7545956999984,0.004595699998390046,5,1.2236437999999907,225.48756370000046,225.48756370000046,225.48756370000046,225.48756370000046,225.48756370000046,225.48756370000046,225.48756370000046,225.48756370000046,225.48756370000046,225.48756370000046,005,P003,2025_Jan_18_1145,ConditionRich,2021.2.3,59.94176058528163,
200.0,200.75,1,0.75,Stimuli/P003/sun_adgmtzznutwlescq.jpg,0,0.0,0.0,0,85,85,85,,,,,,,,,,,,,200.0078072999986,0.007807299998603412,None,,228.7404133,228.7404133,228.7404133,228.7404133,228.7404133,228.7404133,228.7404133,228.7404133,228.7404133,228.7404133,005,P003,2025_Jan_18_1145,ConditionRich,2021.2.3,59.94176058528163,
200.75,204.0,41,0.0,Stimuli/Blank.png,0,0.0,0.0,0,86,86,86,,,,,,,,,,,,,200.7587112000001,0.008711200000107056,5,3.2200517000001128,229.49107970000114,229.49107970000114,229.49107970000114,229.49107970000114,229.49107970000114,229.49107970000114,229.49107970000114,229.49107970000114,229.49107970000114,229.49107970000114,005,P003,2025_Jan_18_1145,ConditionRich,2021.2.3,59.94176058528163,
204.0,204.75,35,0.75,Stimuli/P003/things_satellite_dish_02s.jpg,0,0.0,0.0,0,87,87,87,,,,,,,,,,,,,204.0116657999988,0.011665799998809234,None,,232.7606235000003,232.7606235000003,232.7606235000003,232.7606235000003,232.7606235000003,232.7606235000003,232.7606235000003,232.7606235000003,232.7606235000003,232.7606235000003,005,P003,2025_Jan_18_1145,ConditionRich,2021.2.3,59.94176058528163,
204.75,208.0,41,0.0,Stimuli/Blank.png,0,0.0,0.0,0,88,88,88,,,,,,,,,,,,,204.77907249999953,0.0290724999995291,5,3.1993735000014567,233.5113738,233.5113738,233.5113738,233.5113738,233.5113738,233.5113738,233.5113738,233.5113738,233.5113738,233.5113738,005,P003,2025_Jan_18_1145,ConditionRich,2021.2.3,59.94176058528163,
208.0,208.75,13,0.75,Stimuli/P003/sun_bhbiqbqmwrowrqpd.jpg,0,0.0,0.0,0,89,89,89,,,,,,,,,,,,,208.01727739999842,0.01727739999842015,None,,236.7641418000003,236.7641418000003,236.7641418000003,236.7641418000003,236.7641418000003,236.7641418000003,236.7641418000003,236.7641418000003,236.7641418000003,236.7641418000003,005,P003,2025_Jan_18_1145,ConditionRich,2021.2.3,59.94176058528163,
208.75,212.0,41,0.0,Stimuli/Blank.png,0,0.0,0.0,0,90,90,90,,,,,,,,,,,,,208.76702189999924,0.017021899999235757,5,3.196234999999433,237.5148119000005,237.5148119000005,237.5148119000005,237.5148119000005,237.5148119000005,237.5148119000005,237.5148119000005,237.5148119000005,237.5148119000005,237.5148119000005,005,P003,2025_Jan_18_1145,ConditionRich,2021.2.3,59.94176058528163,
212.0,212.75,25,0.75,Stimuli/P003/things_girl_02s.jpg,0,0.0,0.0,0,91,91,91,,,,,,,,,,,,,212.01875429999927,0.018754299999272916,None,,240.767684800001,240.767684800001,240.767684800001,240.767684800001,240.767684800001,240.767684800001,240.767684800001,240.767684800001,240.767684800001,240.767684800001,005,P003,2025_Jan_18_1145,ConditionRich,2021.2.3,59.94176058528163,
212.75,216.0,41,0.0,Stimuli/Blank.png,0,0.0,0.0,0,92,92,92,,,,,,,,,,,,,212.76880159999928,0.01880159999927855,5,1.2090796000011323,241.501643900001,241.501643900001,241.501643900001,241.501643900001,241.501643900001,241.501643900001,241.501643900001,241.501643900001,241.501643900001,241.501643900001,005,P003,2025_Jan_18_1145,ConditionRich,2021.2.3,59.94176058528163,
216.0,216.75,24,0.75,Stimuli/P003/things_dumpling_02s.jpg,0,0.0,0.0,0,93,93,93,,,,,,,,,,,,,216.00732199999948,0.0073219999994762475,None,,244.75453030000062,244.75453030000062,244.75453030000062,244.75453030000062,244.75453030000062,244.75453030000062,244.75453030000062,244.75453030000062,244.75453030000062,244.75453030000062,005,P003,2025_Jan_18_1145,ConditionRich,2021.2.3,59.94176058528163,
216.75,220.0,41,0.0,Stimuli/Blank.png,0,0.0,0.0,0,94,94,94,,,,,,,,,,,,,216.773606499999,0.023606499999004882,5,3.188954499999454,245.52185830000053,245.52185830000053,245.52185830000053,245.52185830000053,245.52185830000053,245.52185830000053,245.52185830000053,245.52185830000053,245.52185830000053,245.52185830000053,005,P003,2025_Jan_18_1145,ConditionRich,2021.2.3,59.94176058528163,
220.0,220.75,4,0.75,Stimuli/P003/sun_albtqdieqkajejrg.jpg,0,0.0,0.0,0,95,95,95,,,,,,,,,,,,,220.0275303999988,0.027530399998795474,None,,248.7747212000013,248.7747212000013,248.7747212000013,248.7747212000013,248.7747212000013,248.7747212000013,248.7747212000013,248.7747212000013,248.7747212000013,248.7747212000013,005,P003,2025_Jan_18_1145,ConditionRich,2021.2.3,59.94176058528163,
220.75,224.0,41,0.0,Stimuli/Blank.png,0,0.0,0.0,0,96,96,96,,,,,,,,,,,,,220.77626209999835,0.026262099998348276,5,3.2021467000013217,249.50869610000154,249.50869610000154,249.50869610000154,249.50869610000154,249.50869610000154,249.50869610000154,249.50869610000154,249.50869610000154,249.50869610000154,249.50869610000154,005,P003,2025_Jan_18_1145,ConditionRich,2021.2.3,59.94176058528163,
224.0,224.75,9,0.75,Stimuli/P003/sun_auqtrqkaobyprnjy.jpg,0,0.0,0.0,0,97,97,97,,,,,,,,,,,,,224.01329009999972,0.01329009999972186,None,,252.76154880000104,252.76154880000104,252.76154880000104,252.76154880000104,252.76154880000104,252.76154880000104,252.76154880000104,252.76154880000104,252.76154880000104,252.76154880000104,005,P003,2025_Jan_18_1145,ConditionRich,2021.2.3,59.94176058528163,
224.75,228.0,41,0.0,Stimuli/Blank.png,0,0.0,0.0,0,98,98,98,,,,,,,,,,,,,224.78172819999963,0.031728199999633944,5,3.181829299999663,253.52890230000048,253.52890230000048,253.52890230000048,253.52890230000048,253.52890230000048,253.52890230000048,253.52890230000048,253.52890230000048,253.52890230000048,253.52890230000048,005,P003,2025_Jan_18_1145,ConditionRich,2021.2.3,59.94176058528163,
228.0,228.75,23,0.75,Stimuli/P003/things_butterfly_02s.jpg,0,0.0,0.0,0,99,99,99,,,,,,,,,,,,,228.01618589999998,0.016185899999982212,None,,256.7483978,256.7483978,256.7483978,256.7483978,256.7483978,256.7483978,256.7483978,256.7483978,256.7483978,256.7483978,005,P003,2025_Jan_18_1145,ConditionRich,2021.2.3,59.94176058528163,
228.75,232.0,41,0.0,Stimuli/Blank.png,0,0.0,0.0,0,100,100,100,,,,,,,,,,,,,228.7517541999987,0.0017541999986860901,5,3.211642899999788,257.49906310000006,257.49906310000006,257.49906310000006,257.49906310000006,257.49906310000006,257.49906310000006,257.49906310000006,257.49906310000006,257.49906310000006,257.49906310000006,005,P003,2025_Jan_18_1145,ConditionRich,2021.2.3,59.94176058528163,
232.0,232.75,8,0.75,Stimuli/P003/sun_asxkyzleyfgbqfrs.jpg,0,0.0,0.0,0,101,101,101,,,,,,,,,,,,,232.0199365999997,0.01993659999970987,None,,260.76860580000175,260.76860580000175,260.76860580000175,260.76860580000175,260.76860580000175,260.76860580000175,260.76860580000175,260.76860580000175,260.76860580000175,260.76860580000175,005,P003,2025_Jan_18_1145,ConditionRich,2021.2.3,59.94176058528163,
232.75,236.0,41,0.0,Stimuli/Blank.png,1,1.25,2.0,0,102,102,102,,,,,,,,,,,,,232.7719262999999,0.021926299999904586,5,3.1916834999992716,261.5192803000009,261.5192803000009,261.5192803000009,261.5192803000009,261.5192803000009,261.5192803000009,262.7536809000012,263.5043407000012,261.5192803000009,261.5192803000009,005,P003,2025_Jan_18_1145,ConditionRich,2021.2.3,59.94176058528163,
236.0,236.75,33,0.75,Stimuli/P003/things_recorder_02s.jpg,0,0.0,0.0,0,103,103,103,,,,,,,,,,,,,236.02275009999903,0.02275009999902977,None,,264.77212000000145,264.77212000000145,264.77212000000145,264.77212000000145,264.77212000000145,264.77212000000145,264.77212000000145,264.77212000000145,264.77212000000145,264.77212000000145,005,P003,2025_Jan_18_1145,ConditionRich,2021.2.3,59.94176058528163,
236.75,240.0,41,0.0,Stimuli/Blank.png,0,0.0,0.0,0,104,104,104,,,,,,,,,,,,,236.7736428999997,0.02364289999968605,5,1.2046399000009842,265.5060994000014,265.5060994000014,265.5060994000014,265.5060994000014,265.5060994000014,265.5060994000014,265.5060994000014,265.5060994000014,265.5060994000014,265.5060994000014,005,P003,2025_Jan_18_1145,ConditionRich,2021.2.3,59.94176058528163,
240.0,240.75,3,0.75,Stimuli/P003/sun_afqjzrocqhabifao.jpg,0,0.0,0.0,0,105,105,105,,,,,,,,,,,,,240.01184250000006,0.011842500000057044,None,,268.7589713000016,268.7589713000016,268.7589713000016,268.7589713000016,268.7589713000016,268.7589713000016,268.7589713000016,268.7589713000016,268.7589713000016,268.7589713000016,005,P003,2025_Jan_18_1145,ConditionRich,2021.2.3,59.94176058528163,
240.75,244.0,41,0.0,Stimuli/Blank.png,0,0.0,0.0,0,106,106,106,,,,,,,,,,,,,240.77719869999964,0.027198699999644305,5,3.200986899999407,269.50963070000034,269.50963070000034,269.50963070000034,269.50963070000034,269.50963070000034,269.50963070000034,269.50963070000034,269.50963070000034,269.50963070000034,269.50963070000034,005,P003,2025_Jan_18_1145,ConditionRich,2021.2.3,59.94176058528163,
244.0,244.75,37,0.75,Stimuli/P003/things_ski_lift_02s.jpg,0,0.0,0.0,0,107,107,107,,,,,,,,,,,,,244.0132328999989,0.013232899998911307,None,,272.7457800000011,272.7457800000011,272.7457800000011,272.7457800000011,272.7457800000011,272.7457800000011,272.7457800000011,272.7457800000011,272.7457800000011,272.7457800000011,005,P003,2025_Jan_18_1145,ConditionRich,2021.2.3,59.94176058528163,
244.75,248.0,41,0.0,Stimuli/Blank.png,0,0.0,0.0,0,108,108,108,,,,,,,,,,,,,244.7633214999987,0.013321499998710351,5,1.2141205000007176,273.49647189999996,273.49647189999996,273.49647189999996,273.49647189999996,273.49647189999996,273.49647189999996,273.49647189999996,273.49647189999996,273.49647189999996,273.49647189999996,005,P003,2025_Jan_18_1145,ConditionRich,2021.2.3,59.94176058528163,
248.0,248.75,27,0.75,Stimuli/P003/things_llama_02s.jpg,0,0.0,0.0,0,109,109,109,,,,,,,,,,,,,248.00105409999924,0.0010540999992372235,None,,276.7493391000007,276.7493391000007,276.7493391000007,276.7493391000007,276.7493391000007,276.7493391000007,276.7493391000007,276.7493391000007,276.7493391000007,276.7493391000007,005,P003,2025_Jan_18_1145,ConditionRich,2021.2.3,59.94176058528163,
248.75,252.0,41,0.0,Stimuli/Blank.png,1,1.25,2.0,0,110,110,110,,,,,,,,,,,,,248.76812509999945,0.018125099999451777,5,3.193956299999627,277.5166936000005,277.5166936000005,277.5166936000005,277.5166936000005,277.5166936000005,277.5166936000005,278.7344045000009,279.48511470000085,277.5166936000005,277.5166936000005,005,P003,2025_Jan_18_1145,ConditionRich,2021.2.3,59.94176058528163,
252.0,252.75,12,0.75,Stimuli/P003/sun_bcboctumoxwpdefl.jpg,0,0.0,0.0,0,111,111,111,,,,,,,,,,,,,252.0220047999992,0.022004799999194802,None,,280.76954020000085,280.76954020000085,280.76954020000085,280.76954020000085,280.76954020000085,280.76954020000085,280.76954020000085,280.76954020000085,280.76954020000085,280.76954020000085,005,P003,2025_Jan_18_1145,ConditionRich,2021.2.3,59.94176058528163,
252.75,256.0,41,0.0,Stimuli/Blank.png,0,0.0,0.0,0,112,112,112,,,,,,,,,,,,,252.77122099999906,0.02122099999905913,5,1.2074023000004672,281.5035097,281.5035097,281.5035097,281.5035097,281.5035097,281.5035097,281.5035097,281.5035097,281.5035097,281.5035097,005,P003,2025_Jan_18_1145,ConditionRich,2021.2.3,59.94176058528163,
256.0,256.75,31,0.75,Stimuli/P003/things_pea_02s.jpg,0,0.0,0.0,0,113,113,113,,,,,,,,,,,,,256.0065691,0.006569099999978789,None,,284.7397086000001,284.7397086000001,284.7397086000001,284.7397086000001,284.7397086000001,284.7397086000001,284.7397086000001,284.7397086000001,284.7397086000001,284.7397086000001,005,P003,2025_Jan_18_1145,ConditionRich,2021.2.3,59.94176058528163,
256.75,260.0,41,0.0,Stimuli/Blank.png,0,0.0,0.0,0,114,114,114,,,,,,,,,,,,,256.75788680000005,0.007886800000051153,5,3.2203410000001895,285.49035690000164,285.49035690000164,285.49035690000164,285.49035690000164,285.49035690000164,285.49035690000164,285.49035690000164,285.49035690000164,285.49035690000164,285.49035690000164,005,P003,2025_Jan_18_1145,ConditionRich,2021.2.3,59.94176058528163,
260.0,260.75,28,0.75,Stimuli/P003/things_man_02s.jpg,0,0.0,0.0,0,115,115,115,,,,,,,,,,,,,260.0122859999992,0.01228599999922153,None,,288.75990880000063,288.75990880000063,288.75990880000063,288.75990880000063,288.75990880000063,288.75990880000063,288.75990880000063,288.75990880000063,288.75990880000063,288.75990880000063,005,P003,2025_Jan_18_1145,ConditionRich,2021.2.3,59.94176058528163,
260.75,264.0,41,0.0,Stimuli/Blank.png,0,0.0,0.0,0,116,116,116,,,,,,,,,,,,,260.7773198999985,0.027319899998474284,5,3.1999329999998736,289.5105854000012,289.5105854000012,289.5105854000012,289.5105854000012,289.5105854000012,289.5105854000012,289.5105854000012,289.5105854000012,289.5105854000012,289.5105854000012,005,P003,2025_Jan_18_1145,ConditionRich,2021.2.3,59.94176058528163,
264.0,264.75,17,0.75,Stimuli/P003/sun_bojovhhraxtgafcy.jpg,0,0.0,0.0,0,117,117,117,,,,,,,,,,,,,264.01685349999934,0.016853499999342603,None,,292.76342580000164,292.76342580000164,292.76342580000164,292.76342580000164,292.76342580000164,292.76342580000164,292.76342580000164,292.76342580000164,292.76342580000164,292.76342580000164,005,P003,2025_Jan_18_1145,ConditionRich,2021.2.3,59.94176058528163,
264.75,268.0,41,0.0,Stimuli/Blank.png,0,0.0,0.0,0,118,118,118,,,,,,,,,,,,,264.7666128000001,0.016612800000075367,5,3.196516199999678,293.5140610000017,293.5140610000017,293.5140610000017,293.5140610000017,293.5140610000017,293.5140610000017,293.5140610000017,293.5140610000017,293.5140610000017,293.5140610000017,005,P003,2025_Jan_18_1145,ConditionRich,2021.2.3,59.94176058528163,
268.0,268.75,16,0.75,Stimuli/P003/sun_bjuoemgleyaogrmw.jpg,0,0.0,0.0,0,119,119,119,,,,,,,,,,,,,268.0173971999993,0.017397199999322766,None,,296.75027650000084,296.75027650000084,296.75027650000084,296.75027650000084,296.75027650000084,296.75027650000084,296.75027650000084,296.75027650000084,296.75027650000084,296.75027650000084,005,P003,2025_Jan_18_1145,ConditionRich,2021.2.3,59.94176058528163,
268.75,272.0,41,0.0,Stimuli/Blank.png,1,0.25,1.0,0,120,120,120,,,,,,,,,,,,,268.75231489999896,0.0023148999989643926,5,1.226358199999595,297.48425430000134,297.48425430000134,297.48425430000134,297.48425430000134,297.48425430000134,297.48425430000134,297.7178049000013,298.46843940000144,297.48425430000134,297.48425430000134,005,P003,2025_Jan_18_1145,ConditionRich,2021.2.3,59.94176058528163,
272.0,272.75,14,0.75,Stimuli/P003/sun_bhhtrmwvoadbfucw.jpg,0,0.0,0.0,0,121,121,121,,,,,,,,,,,,,272.0050818999989,0.005081899998913286,None,,300.7537846000014,300.7537846000014,300.7537846000014,300.7537846000014,300.7537846000014,300.7537846000014,300.7537846000014,300.7537846000014,300.7537846000014,300.7537846000014,005,P003,2025_Jan_18_1145,ConditionRich,2021.2.3,59.94176058528163,
272.75,276.0,41,0.0,Stimuli/Blank.png,1,2.25,3.0,0,122,122,122,,,,,,,,,,,,,272.77135799999996,0.021357999999963795,1,2.7650532000006933,301.5044517000006,301.5044517000006,301.5044517000006,301.5044517000006,301.5044517000006,301.5044517000006,303.73974930000077,304.4904094000012,301.5044517000006,301.5044517000006,005,P003,2025_Jan_18_1145,ConditionRich,2021.2.3,59.94176058528163,
276.0,292.0,0,0.0,Stimuli/Blank.png,1,5.0,5.75,0,123,123,123,,,,,,,,,,,,,276.0079932999997,0.007993299999725423,5,13.96990580000056,304.7406288000002,304.7406288000002,304.7406288000002,304.7406288000002,304.7406288000002,304.7406288000002,309.7283529000015,310.4790141000012,304.7406288000002,304.7406288000002,005,P003,2025_Jan_18_1145,ConditionRich,2021.2.3,59.94176058528163,
292.0,292.75,40,0.75,Stimuli/P003/things_woman_02s.jpg,0,0.0,0.0,0,124,124,124,,,,,,,,,,,,,292.00726699999905,0.007266999999046675,None,,320.7547333000002,320.7547333000002,320.7547333000002,320.7547333000002,320.7547333000002,320.7547333000002,320.7547333000002,320.7547333000002,320.7547333000002,320.7547333000002,005,P003,2025_Jan_18_1145,ConditionRich,2021.2.3,59.94176058528163,
292.75,296.0,41,0.0,Stimuli/Blank.png,0,0.0,0.0,0,125,125,125,,,,,,,,,,,,,292.7729243999984,0.0229243999983737,5,1.2053755999986606,321.50538790000064,321.50538790000064,321.50538790000064,321.50538790000064,321.50538790000064,321.50538790000064,321.50538790000064,321.50538790000064,321.50538790000064,321.50538790000064,005,P003,2025_Jan_18_1145,ConditionRich,2021.2.3,59.94176058528163,
296.0,296.75,15,0.75,Stimuli/P003/sun_bjhtdevvocmwtavk.jpg,0,0.0,0.0,0,126,126,126,,,,,,,,,,,,,296.00969089999853,0.009690899998531677,None,,324.75825180000174,324.75825180000174,324.75825180000174,324.75825180000174,324.75825180000174,324.75825180000174,324.75825180000174,324.75825180000174,324.75825180000174,324.75825180000174,005,P003,2025_Jan_18_1145,ConditionRich,2021.2.3,59.94176058528163,
296.75,300.0,41,0.0,Stimuli/Blank.png,0,0.0,0.0,0,127,127,127,,,,,,,,,,,,,296.7772910999993,0.027291099999274593,5,3.2016653000009683,325.5089095000003,325.5089095000003,325.5089095000003,325.5089095000003,325.5089095000003,325.5089095000003,325.5089095000003,325.5089095000003,325.5089095000003,325.5089095000003,005,P003,2025_Jan_18_1145,ConditionRich,2021.2.3,59.94176058528163,
300.0,300.75,7,0.75,Stimuli/P003/sun_asgixjtedklbawgm.jpg,0,0.0,0.0,0,128,128,128,,,,,,,,,,,,,300.01243780000004,0.012437800000043353,None,,328.74508550000064,328.74508550000064,328.74508550000064,328.74508550000064,328.74508550000064,328.74508550000064,328.74508550000064,328.74508550000064,328.74508550000064,328.74508550000064,005,P003,2025_Jan_18_1145,ConditionRich,2021.2.3,59.94176058528163,
300.75,304.0,41,0.0,Stimuli/Blank.png,0,0.0,0.0,0,129,129,129,,,,,,,,,,,,,300.76298419999875,0.012984199998754775,5,1.2146121000005223,329.49574480000047,329.49574480000047,329.49574480000047,329.49574480000047,329.49574480000047,329.49574480000047,329.49574480000047,329.49574480000047,329.49574480000047,329.49574480000047,005,P003,2025_Jan_18_1145,ConditionRich,2021.2.3,59.94176058528163,
304.0,304.75,6,0.75,Stimuli/P003/sun_aoumkoxfhlaobjef.jpg,0,0.0,0.0,0,130,130,130,,,,,,,,,,,,,304.00166649999846,0.0016664999984641327,None,,332.7486107000004,332.7486107000004,332.7486107000004,332.7486107000004,332.7486107000004,332.7486107000004,332.7486107000004,332.7486107000004,332.7486107000004,332.7486107000004,005,P003,2025_Jan_18_1145,ConditionRich,2021.2.3,59.94176058528163,
304.75,308.0,41,0.0,Stimuli/Blank.png,0,0.0,0.0,0,131,131,131,,,,,,,,,,,,,304.76698549999855,0.016985499998554587,5,1.2114175999995496,333.4992781000001,333.4992781000001,333.4992781000001,333.4992781000001,333.4992781000001,333.4992781000001,333.4992781000001,333.4992781000001,333.4992781000001,333.4992781000001,005,P003,2025_Jan_18_1145,ConditionRich,2021.2.3,59.94176058528163,
308.0,308.75,19,0.75,Stimuli/P003/sun_bucebxfexknakpma.jpg,0,0.0,0.0,0,132,132,132,,,,,,,,,,,,,308.0028304999996,0.0028304999996180413,None,,336.7354529000004,336.7354529000004,336.7354529000004,336.7354529000004,336.7354529000004,336.7354529000004,336.7354529000004,336.7354529000004,336.7354529000004,336.7354529000004,005,P003,2025_Jan_18_1145,ConditionRich,2021.2.3,59.94176058528163,
308.75,312.0,41,0.0,Stimuli/Blank.png,0,0.0,0.0,0,133,133,133,,,,,,,,,,,,,308.7532214999992,0.0032214999991992954,5,1.2245911000009073,337.48611340000025,337.48611340000025,337.48611340000025,337.48611340000025,337.48611340000025,337.48611340000025,337.48611340000025,337.48611340000025,337.48611340000025,337.48611340000025,005,P003,2025_Jan_18_1145,ConditionRich,2021.2.3,59.94176058528163,
312.0,312.75,2,0.75,Stimuli/P003/sun_afijjzyziczoqdhz.jpg,0,0.0,0.0,0,134,134,134,,,,,,,,,,,,,312.00663839999834,0.006638399998337263,None,,340.75565350000034,340.75565350000034,340.75565350000034,340.75565350000034,340.75565350000034,340.75565350000034,340.75565350000034,340.75565350000034,340.75565350000034,340.75565350000034,005,P003,2025_Jan_18_1145,ConditionRich,2021.2.3,59.94176058528163,
312.75,316.0,41,0.0,Stimuli/Blank.png,0,0.0,0.0,0,135,135,135,,,,,,,,,,,,,312.77350429999933,0.023504299999331124,5,3.2040591000004497,341.5063155000007,341.5063155000007,341.5063155000007,341.5063155000007,341.5063155000007,341.5063155000007,341.5063155000007,341.5063155000007,341.5063155000007,341.5063155000007,005,P003,2025_Jan_18_1145,ConditionRich,2021.2.3,59.94176058528163,
316.0,316.75,29,0.75,Stimuli/P003/things_mat_02s.jpg,1,0.0,0.75,0,136,136,136,,,,,,,,,,,,,316.0110502999996,0.011050299999624258,1,0.6972607000006974,344.759182400001,344.759182400001,344.759182400001,344.759182400001,344.759182400001,344.759182400001,344.759182400001,345.4931682000006,344.759182400001,344.759182400001,005,P003,2025_Jan_18_1145,ConditionRich,2021.2.3,59.94176058528163,
316.75,320.0,41,0.0,Stimuli/Blank.png,0,0.0,0.0,0,137,137,137,,,,,,,,,,,,,316.77723869999863,0.02723869999863382,5,3.2004937999990943,345.5098439000012,345.5098439000012,345.5098439000012,345.5098439000012,345.5098439000012,345.5098439000012,345.5098439000012,345.5098439000012,345.5098439000012,345.5098439000012,005,P003,2025_Jan_18_1145,ConditionRich,2021.2.3,59.94176058528163,
320.0,320.75,32,0.75,Stimuli/P003/things_pulley_02s.jpg,0,0.0,0.0,0,138,138,138,,,,,,,,,,,,,320.01299499999914,0.01299499999913678,None,,348.74600590000045,348.74600590000045,348.74600590000045,348.74600590000045,348.74600590000045,348.74600590000045,348.74600590000045,348.74600590000045,348.74600590000045,348.74600590000045,005,P003,2025_Jan_18_1145,ConditionRich,2021.2.3,59.94176058528163,
320.75,324.0,41,0.0,Stimuli/Blank.png,1,0.25,1.0,0,139,139,139,,,,,,,,,,,,,320.7640281999993,0.01402819999930216,5,1.2137266999998246,349.4966836000003,349.4966836000003,349.4966836000003,349.4966836000003,349.4966836000003,349.4966836000003,349.7302606000012,350.48088630000166,349.4966836000003,349.4966836000003,005,P003,2025_Jan_18_1145,ConditionRich,2021.2.3,59.94176058528163,
324.0,324.75,22,0.75,Stimuli/P003/things_boy_02s.jpg,1,0.0,0.75,0,140,140,140,,,,,,,,,,,,,324.0009261999985,0.0009261999985028524,1,0.5827551000002131,352.74956360000033,352.74956360000033,352.74956360000033,352.74956360000033,352.74956360000033,352.74956360000033,352.74956360000033,353.46685460000117,352.74956360000033,352.74956360000033,005,P003,2025_Jan_18_1145,ConditionRich,2021.2.3,59.94176058528163,
324.75,328.0,41,0.0,Stimuli/Blank.png,0,0.0,0.0,0,141,141,141,,,,,,,,,,,,,324.76762039999994,0.017620399999941583,5,1.2103207000000111,353.50022050000007,353.50022050000007,353.50022050000007,353.50022050000007,353.50022050000007,353.50022050000007,353.50022050000007,353.50022050000007,353.50022050000007,353.50022050000007,005,P003,2025_Jan_18_1145,ConditionRich,2021.2.3,59.94176058528163,
328.0,328.75,38,0.75,Stimuli/P003/things_slug_02s.jpg,1,0.0,0.75,0,142,142,142,,,,,,,,,,,,,328.0039502999989,0.003950299998905393,1,0.4533237999985431,356.75307580000117,356.75307580000117,356.75307580000117,356.75307580000117,356.75307580000117,356.75307580000117,356.75307580000117,357.47040330000164,356.75307580000117,356.75307580000117,005,P003,2025_Jan_18_1145,ConditionRich,2021.2.3,59.94176058528163,
328.75,332.0,41,0.0,Stimuli/Blank.png,0,0.0,0.0,0,143,143,143,,,,,,,,,,,,,328.77135180000005,0.02135180000004766,5,1.2068927000000258,357.50373650000074,357.50373650000074,357.50373650000074,357.50373650000074,357.50373650000074,357.50373650000074,357.50373650000074,357.50373650000074,357.50373650000074,357.50373650000074,005,P003,2025_Jan_18_1145,ConditionRich,2021.2.3,59.94176058528163,
332.0,332.75,11,0.75,Stimuli/P003/sun_bawmjlzsuuivqjhi.jpg,0,0.0,0.0,0,144,144,144,,,,,,,,,,,,,332.00682489999963,0.006824899999628542,None,,360.7399165000006,360.7399165000006,360.7399165000006,360.7399165000006,360.7399165000006,360.7399165000006,360.7399165000006,360.7399165000006,360.7399165000006,360.7399165000006,005,P003,2025_Jan_18_1145,ConditionRich,2021.2.3,59.94176058528163,
332.75,336.0,41,0.0,Stimuli/Blank.png,0,0.0,0.0,0,145,145,145,,,,,,,,,,,,,332.7582739999998,0.008273999999801163,5,3.219880500000727,361.49057080000057,361.49057080000057,361.49057080000057,361.49057080000057,361.49057080000057,361.49057080000057,361.49057080000057,361.49057080000057,361.49057080000057,361.49057080000057,005,P003,2025_Jan_18_1145,ConditionRich,2021.2.3,59.94176058528163,
336.0,336.75,20,0.75,Stimuli/P003/sun_bwytihadgigwkyht.jpg,1,0.0,0.75,0,146,146,146,,,,,,,,,,,,,336.01108639999984,0.011086399999840069,1,0.5073463000007905,364.7601402,364.7601402,364.7601402,364.7601402,364.7601402,364.7601402,364.7601402,365.47741470000074,364.7601402,364.7601402,005,P003,2025_Jan_18_1145,ConditionRich,2021.2.3,59.94176058528163,
336.75,340.0,41,0.0,Stimuli/Blank.png,0,0.0,0.0,0,147,147,147,,,,,,,,,,,,,336.77814429999853,0.028144299998530187,5,3.199570799999492,365.51078600000073,365.51078600000073,365.51078600000073,365.51078600000073,365.51078600000073,365.51078600000073,365.51078600000073,365.51078600000073,365.51078600000073,365.51078600000073,005,P003,2025_Jan_18_1145,ConditionRich,2021.2.3,59.94176058528163,
340.0,340.75,30,0.75,Stimuli/P003/things_music_box_02s.jpg,0,0.0,0.0,0,148,148,148,,,,,,,,,,,,,340.01671649999844,0.01671649999843794,None,,368.76365110000006,368.76365110000006,368.76365110000006,368.76365110000006,368.76365110000006,368.76365110000006,368.76365110000006,368.76365110000006,368.76365110000006,368.76365110000006,005,P003,2025_Jan_18_1145,ConditionRich,2021.2.3,59.94176058528163,
340.75,344.0,41,0.0,Stimuli/Blank.png,0,0.0,0.0,0,149,149,149,,,,,,,,,,,,,340.76465559999997,0.014655599999969127,5,1.2128580000007787,369.4976190000016,369.4976190000016,369.4976190000016,369.4976190000016,369.4976190000016,369.4976190000016,369.4976190000016,369.4976190000016,369.4976190000016,369.4976190000016,005,P003,2025_Jan_18_1145,ConditionRich,2021.2.3,59.94176058528163,
344.0,344.75,26,0.75,Stimuli/P003/things_ham_02s.jpg,0,0.0,0.0,0,150,150,150,,,,,,,,,,,,,344.00088699999833,0.0008869999983289745,None,,372.7337974000002,372.7337974000002,372.7337974000002,372.7337974000002,372.7337974000002,372.7337974000002,372.7337974000002,372.7337974000002,372.7337974000002,372.7337974000002,005,P003,2025_Jan_18_1145,ConditionRich,2021.2.3,59.94176058528163,
344.75,348.0,41,0.0,Stimuli/Blank.png,0,0.0,0.0,0,151,151,151,,,,,,,,,,,,,344.75223769999866,0.0022376999986590818,5,1.2260019999994256,373.4844557000015,373.4844557000015,373.4844557000015,373.4844557000015,373.4844557000015,373.4844557000015,373.4844557000015,373.4844557000015,373.4844557000015,373.4844557000015,005,P003,2025_Jan_18_1145,ConditionRich,2021.2.3,59.94176058528163,
348.0,348.75,5,0.75,Stimuli/P003/sun_amnnxdwfjbdfumns.jpg,0,0.0,0.0,0,152,152,152,,,,,,,,,,,,,348.0078934999983,0.007893499998317566,None,,376.754026300001,376.754026300001,376.754026300001,376.754026300001,376.754026300001,376.754026300001,376.754026300001,376.754026300001,376.754026300001,376.754026300001,005,P003,2025_Jan_18_1145,ConditionRich,2021.2.3,59.94176058528163,
348.75,352.0,41,0.0,Stimuli/Blank.png,0,0.0,0.0,0,153,153,153,,,,,,,,,,,,,348.7732038999984,0.023203899998406996,5,3.188934599998902,377.5213721,377.5213721,377.5213721,377.5213721,377.5213721,377.5213721,377.5213721,377.5213721,377.5213721,377.5213721,005,P003,2025_Jan_18_1145,ConditionRich,2021.2.3,59.94176058528163,
352.0,352.75,39,0.75,Stimuli/P003/things_toad_02s.jpg,0,0.0,0.0,0,154,154,154,,,,,,,,,,,,,352.0273146999989,0.027314699998896685,None,,380.7742119000013,380.7742119000013,380.7742119000013,380.7742119000013,380.7742119000013,380.7742119000013,380.7742119000013,380.7742119000013,380.7742119000013,380.7742119000013,005,P003,2025_Jan_18_1145,ConditionRich,2021.2.3,59.94176058528163,
352.75,356.0,41,0.0,Stimuli/Blank.png,0,0.0,0.0,0,155,155,155,,,,,,,,,,,,,352.77593069999966,0.025930699999662465,5,3.202008599999317,381.5081839000013,381.5081839000013,381.5081839000013,381.5081839000013,381.5081839000013,381.5081839000013,381.5081839000013,381.5081839000013,381.5081839000013,381.5081839000013,005,P003,2025_Jan_18_1145,ConditionRich,2021.2.3,59.94176058528163,
356.0,356.75,34,0.75,Stimuli/P003/things_roll_02s.jpg,0,0.0,0.0,0,156,156,156,,,,,,,,,,,,,356.01225759999943,0.012257599999429658,None,,384.74436460000106,384.74436460000106,384.74436460000106,384.74436460000106,384.74436460000106,384.74436460000106,384.74436460000106,384.74436460000106,384.74436460000106,384.74436460000106,005,P003,2025_Jan_18_1145,ConditionRich,2021.2.3,59.94176058528163,
356.75,360.0,41,0.0,Stimuli/Blank.png,0,0.0,0.0,0,157,157,157,,,,,,,,,,,,,356.76196439999876,0.0119643999987602,5,3.2152465999988635,385.4950278000015,385.4950278000015,385.4950278000015,385.4950278000015,385.4950278000015,385.4950278000015,385.4950278000015,385.4950278000015,385.4950278000015,385.4950278000015,005,P003,2025_Jan_18_1145,ConditionRich,2021.2.3,59.94176058528163,
360.0,360.75,18,0.75,Stimuli/P003/sun_bplhnzkztpigweny.jpg,0,0.0,0.0,0,158,158,158,,,,,,,,,,,,,360.01749779999955,0.01749779999954626,None,,388.76458190000085,388.76458190000085,388.76458190000085,388.76458190000085,388.76458190000085,388.76458190000085,388.76458190000085,388.76458190000085,388.76458190000085,388.76458190000085,005,P003,2025_Jan_18_1145,ConditionRich,2021.2.3,59.94176058528163,
360.75,364.0,41,0.0,Stimuli/Blank.png,0,0.0,0.0,0,159,159,159,,,,,,,,,,,,,360.7667984999989,0.01679849999891303,5,1.2117144999992888,389.49854230000165,389.49854230000165,389.49854230000165,389.49854230000165,389.49854230000165,389.49854230000165,389.49854230000165,389.49854230000165,389.49854230000165,389.49854230000165,005,P003,2025_Jan_18_1145,ConditionRich,2021.2.3,59.94176058528163,
364.0,364.75,10,0.75,Stimuli/P003/sun_azzneunxibjvypza.jpg,0,0.0,0.0,0,160,160,160,,,,,,,,,,,,,364.00265169999875,0.0026516999987507006,None,,392.7347378000013,392.7347378000013,392.7347378000013,392.7347378000013,392.7347378000013,392.7347378000013,392.7347378000013,392.7347378000013,392.7347378000013,392.7347378000013,005,P003,2025_Jan_18_1145,ConditionRich,2021.2.3,59.94176058528163,
364.75,368.0,41,0.0,Stimuli/Blank.png,0,0.0,0.0,0,161,161,161,,,,,,,,,,,,,364.7525661999989,0.002566199998909724,5,1.224803700000848,393.4854066000007,393.4854066000007,393.4854066000007,393.4854066000007,393.4854066000007,393.4854066000007,393.4854066000007,393.4854066000007,393.4854066000007,393.4854066000007,005,P003,2025_Jan_18_1145,ConditionRich,2021.2.3,59.94176058528163,
368.0,368.75,36,0.75,Stimuli/P003/things_sea_urchin_02s.jpg,0,0.0,0.0,0,162,162,162,,,,,,,,,,,,,368.0061681999996,0.006168199999592616,None,,396.75496020000173,396.75496020000173,396.75496020000173,396.75496020000173,396.75496020000173,396.75496020000173,396.75496020000173,396.75496020000173,396.75496020000173,396.75496020000173,005,P003,2025_Jan_18_1145,ConditionRich,2021.2.3,59.94176058528163,
368.75,372.0,41,0.0,Stimuli/Blank.png,0,0.0,0.0,0,163,163,163,,,,,,,,,,,,,368.77269929999966,0.02269929999965825,5,1.2045563000010588,397.5055960000009,397.5055960000009,397.5055960000009,397.5055960000009,397.5055960000009,397.5055960000009,397.5055960000009,397.5055960000009,397.5055960000009,397.5055960000009,005,P003,2025_Jan_18_1145,ConditionRich,2021.2.3,59.94176058528163,
372.0,388.0,0,0.0,Stimuli/Blank.png,1,7.0,7.75,0,164,164,164,,,,,,,,,,,,,372.0114889999986,0.011488999998618965,5,13.951966999999058,400.75846510000156,400.75846510000156,400.75846510000156,400.75846510000156,400.75846510000156,400.75846510000156,407.74796380000043,408.4819159000017,400.75846510000156,400.75846510000156,005,P003,2025_Jan_18_1145,ConditionRich,2021.2.3,59.94176058528163,
