eventStartTime,eventEndTime,eventCond,imSize,imFile,responseEvent,fixRespStart,fixRespEnd,Events.thisRepN,Events.thisTrialN,Events.thisN,Events.thisIndex,Instructions.started,Instructions.stopped,participantReadyResponse.keys,participantReadyResponse.rt,participantReadyResponse.started,participantReadyResponse.stopped,startWaitforTrigger,triggerResponse.keys,triggerResponse.rt,triggerResponse.started,triggerResponse.stopped,globalTimer,actualStartTime,startTimingDiff,participantResponse.keys,participantResponse.rt,participantResponse.started,participantResponse.stopped,image.started,image.stopped,fixationOutside.started,fixationOutside.stopped,fixationResponse.started,fixationResponse.stopped,fixationInside.started,fixationInside.stopped,session,participant,date,expName,psychopyVersion,frameRate,
,,,,,,,,,,,,15.09976149999784,None,4,2.491148400000384,15.09976149999784,None,,,,,,,,,,,,,,,,,,,,,007,P004,2025_Jan_18_1429,ConditionRich,2021.2.3,59.943808674178285,
,,,,,,,,,,,,,,,,,,17.605863299999328,5,16.258174300000974,17.618806499998755,None,,,,,,,,,,,,,,,,007,P004,2025_Jan_18_1429,ConditionRich,2021.2.3,59.943808674178285,
0.0,4.0,0,0.0,Stimuli/Blank.png,0,0.0,0.0,0,0,0,0,,,,,,,,,,,,33.88652720000027,0.029715199998463504,0.029715199998463504,5,1.943587400000979,33.93324049999865,None,33.93324049999865,None,33.93324049999865,None,33.93324049999865,33.93324049999865,33.93324049999865,None,007,P004,2025_Jan_18_1429,ConditionRich,2021.2.3,59.943808674178285,
4.0,4.75,13,0.75,Stimuli/P004/sun_bhbiqbqmwrowrqpd.jpg,1,0.0,0.75,0,1,1,1,,,,,,,,,,,,,4.002816899999743,0.0028168999997433275,None,,37.9035933999985,37.9035933999985,37.9035933999985,37.9035933999985,37.9035933999985,37.9035933999985,37.9035933999985,38.63726469999892,37.9035933999985,37.9035933999985,007,P004,2025_Jan_18_1429,ConditionRich,2021.2.3,59.943808674178285,
4.75,8.0,41,0.0,Stimuli/Blank.png,0,0.0,0.0,0,2,2,2,,,,,,,,,,,,,4.753277200001321,0.0032772000013210345,5,1.2228117999984534,38.654264000000694,38.654264000000694,38.654264000000694,38.654264000000694,38.654264000000694,38.654264000000694,38.654264000000694,38.654264000000694,38.654264000000694,38.654264000000694,007,P004,2025_Jan_18_1429,ConditionRich,2021.2.3,59.943808674178285,
8.0,8.75,34,0.75,Stimuli/P004/things_roll_02s.jpg,0,0.0,0.0,0,3,3,3,,,,,,,,,,,,,8.00765809999939,0.007658099999389378,None,,41.923613700000715,41.923613700000715,41.923613700000715,41.923613700000715,41.923613700000715,41.923613700000715,41.923613700000715,41.923613700000715,41.923613700000715,41.923613700000715,007,P004,2025_Jan_18_1429,ConditionRich,2021.2.3,59.943808674178285,
8.75,12.0,41,0.0,Stimuli/Blank.png,0,0.0,0.0,0,4,4,4,,,,,,,,,,,,,8.773203199998534,0.02320319999853382,5,3.2026106999983313,42.67416519999824,42.67416519999824,42.67416519999824,42.67416519999824,42.67416519999824,42.67416519999824,42.67416519999824,42.67416519999824,42.67416519999824,42.67416519999824,007,P004,2025_Jan_18_1429,ConditionRich,2021.2.3,59.943808674178285,
12.0,12.75,25,0.75,Stimuli/P004/things_girl_02s.jpg,0,0.0,0.0,0,5,5,5,,,,,,,,,,,,,12.009776499999134,0.009776499999134103,None,,45.91033729999981,45.91033729999981,45.91033729999981,45.91033729999981,45.91033729999981,45.91033729999981,45.91033729999981,45.91033729999981,45.91033729999981,45.91033729999981,007,P004,2025_Jan_18_1429,ConditionRich,2021.2.3,59.943808674178285,
12.75,16.0,41,0.0,Stimuli/Blank.png,0,0.0,0.0,0,6,6,6,,,,,,,,,,,,,12.762777399999322,0.01277739999932237,5,3.1991866999997,46.677682900000946,46.677682900000946,46.677682900000946,46.677682900000946,46.677682900000946,46.677682900000946,46.677682900000946,46.677682900000946,46.677682900000946,46.677682900000946,007,P004,2025_Jan_18_1429,ConditionRich,2021.2.3,59.943808674178285,
16.0,16.75,30,0.75,Stimuli/P004/things_music_box_02s.jpg,1,0.0,0.75,0,7,7,7,,,,,,,,,,,,,16.032063599999674,0.0320635999996739,4,0.5226020000009157,49.947227399999974,50.664514000000054,49.947227399999974,50.664514000000054,49.947227399999974,50.664514000000054,49.947227399999974,None,49.947227399999974,50.664514000000054,007,P004,2025_Jan_18_1429,ConditionRich,2021.2.3,59.943808674178285,
16.75,20.0,41,0.0,Stimuli/Blank.png,0,0.0,0.0,0,8,8,8,,,,,,,,,,,,,16.78235720000157,0.03235720000157016,5,3.1788784000018495,50.69788899999912,None,50.69788899999912,None,50.69788899999912,None,50.69788899999912,50.69788899999912,50.69788899999912,None,007,P004,2025_Jan_18_1429,ConditionRich,2021.2.3,59.943808674178285,
20.0,20.75,35,0.75,Stimuli/P004/things_satellite_dish_02s.jpg,0,0.0,0.0,0,9,9,9,,,,,,,,,,,,,20.016293900000164,0.016293900000164285,None,,53.917375599998195,53.917375599998195,53.917375599998195,53.917375599998195,53.917375599998195,53.917375599998195,53.917375599998195,53.917375599998195,53.917375599998195,53.917375599998195,007,P004,2025_Jan_18_1429,ConditionRich,2021.2.3,59.943808674178285,
20.75,24.0,41,0.0,Stimuli/Blank.png,0,0.0,0.0,0,10,10,10,,,,,,,,,,,,,20.750295599998935,0.0002955999989353586,5,1.2254917999998725,54.65140260000044,54.65140260000044,54.65140260000044,54.65140260000044,54.65140260000044,54.65140260000044,54.65140260000044,54.65140260000044,54.65140260000044,54.65140260000044,007,P004,2025_Jan_18_1429,ConditionRich,2021.2.3,59.943808674178285,
24.0,24.75,38,0.75,Stimuli/P004/things_slug_02s.jpg,0,0.0,0.0,0,11,11,11,,,,,,,,,,,,,24.003707299998496,0.0037072999984957278,None,,57.92091090000031,57.92091090000031,57.92091090000031,57.92091090000031,57.92091090000031,57.92091090000031,57.92091090000031,57.92091090000031,57.92091090000031,57.92091090000031,007,P004,2025_Jan_18_1429,ConditionRich,2021.2.3,59.943808674178285,
24.75,28.0,41,0.0,Stimuli/Blank.png,0,0.0,0.0,0,12,12,12,,,,,,,,,,,,,24.771319100000255,0.021319100000255276,5,1.2054105999995954,58.671580999998696,58.671580999998696,58.671580999998696,58.671580999998696,58.671580999998696,58.671580999998696,58.671580999998696,58.671580999998696,58.671580999998696,58.671580999998696,007,P004,2025_Jan_18_1429,ConditionRich,2021.2.3,59.943808674178285,
28.0,28.75,20,0.75,Stimuli/P004/sun_bwytihadgigwkyht.jpg,0,0.0,0.0,0,13,13,13,,,,,,,,,,,,,28.007356199999776,0.007356199999776436,None,,61.90774400000009,61.90774400000009,61.90774400000009,61.90774400000009,61.90774400000009,61.90774400000009,61.90774400000009,61.90774400000009,61.90774400000009,61.90774400000009,007,P004,2025_Jan_18_1429,ConditionRich,2021.2.3,59.943808674178285,
28.75,32.0,41,0.0,Stimuli/Blank.png,0,0.0,0.0,0,14,14,14,,,,,,,,,,,,,28.75782579999941,0.007825799999409355,5,3.218225100001291,62.658408399998734,62.658408399998734,62.658408399998734,62.658408399998734,62.658408399998734,62.658408399998734,62.658408399998734,62.658408399998734,62.658408399998734,62.658408399998734,007,P004,2025_Jan_18_1429,ConditionRich,2021.2.3,59.943808674178285,
32.0,32.75,11,0.75,Stimuli/P004/sun_bawmjlzsuuivqjhi.jpg,0,0.0,0.0,0,15,15,15,,,,,,,,,,,,,32.01096419999885,0.010964199998852564,None,,65.91126799999984,65.91126799999984,65.91126799999984,65.91126799999984,65.91126799999984,65.91126799999984,65.91126799999984,65.91126799999984,65.91126799999984,65.91126799999984,007,P004,2025_Jan_18_1429,ConditionRich,2021.2.3,59.943808674178285,
32.75,36.0,41,0.0,Stimuli/Blank.png,0,0.0,0.0,0,16,16,16,,,,,,,,,,,,,32.76148770000145,0.01148770000145305,5,3.214727300000959,66.66195570000127,66.66195570000127,66.66195570000127,66.66195570000127,66.66195570000127,66.66195570000127,66.66195570000127,66.66195570000127,66.66195570000127,66.66195570000127,007,P004,2025_Jan_18_1429,ConditionRich,2021.2.3,59.943808674178285,
36.0,36.75,29,0.75,Stimuli/P004/things_mat_02s.jpg,0,0.0,0.0,0,17,17,17,,,,,,,,,,,,,36.01414859999932,0.014148599999316502,None,,69.91480310000043,69.91480310000043,69.91480310000043,69.91480310000043,69.91480310000043,69.91480310000043,69.91480310000043,69.91480310000043,69.91480310000043,69.91480310000043,007,P004,2025_Jan_18_1429,ConditionRich,2021.2.3,59.943808674178285,
36.75,40.0,41,0.0,Stimuli/Blank.png,0,0.0,0.0,0,18,18,18,,,,,,,,,,,,,36.76699430000008,0.01699430000007851,5,3.194561200001772,70.68214019999868,70.68214019999868,70.68214019999868,70.68214019999868,70.68214019999868,70.68214019999868,70.68214019999868,70.68214019999868,70.68214019999868,70.68214019999868,007,P004,2025_Jan_18_1429,ConditionRich,2021.2.3,59.943808674178285,
40.0,40.75,4,0.75,Stimuli/P004/sun_albtqdieqkajejrg.jpg,0,0.0,0.0,0,19,19,19,,,,,,,,,,,,,40.017229599998245,0.01722959999824525,None,,73.91831829999865,73.91831829999865,73.91831829999865,73.91831829999865,73.91831829999865,73.91831829999865,73.91831829999865,73.91831829999865,73.91831829999865,73.91831829999865,007,P004,2025_Jan_18_1429,ConditionRich,2021.2.3,59.943808674178285,
40.75,44.0,41,0.0,Stimuli/Blank.png,1,1.25,2.0,0,20,20,20,,,,,,,,,,,,,40.752253999999084,0.0022539999990840442,4,1.6754000000000815,74.65230560000055,74.65230560000055,74.65230560000055,74.65230560000055,74.65230560000055,74.65230560000055,75.8867089000014,76.63736849999987,74.65230560000055,74.65230560000055,007,P004,2025_Jan_18_1429,ConditionRich,2021.2.3,59.943808674178285,
44.0,44.75,7,0.75,Stimuli/P004/sun_asgixjtedklbawgm.jpg,0,0.0,0.0,0,21,21,21,,,,,,,,,,,,,44.004769499999384,0.004769499999383697,None,,77.90516239999852,77.90516239999852,77.90516239999852,77.90516239999852,77.90516239999852,77.90516239999852,77.90516239999852,77.90516239999852,77.90516239999852,77.90516239999852,007,P004,2025_Jan_18_1429,ConditionRich,2021.2.3,59.943808674178285,
44.75,48.0,41,0.0,Stimuli/Blank.png,0,0.0,0.0,0,22,22,22,,,,,,,,,,,,,44.756746800001565,0.006746800001565134,5,3.2042312000012316,78.67251300000135,78.67251300000135,78.67251300000135,78.67251300000135,78.67251300000135,78.67251300000135,78.67251300000135,78.67251300000135,78.67251300000135,78.67251300000135,007,P004,2025_Jan_18_1429,ConditionRich,2021.2.3,59.943808674178285,
48.0,48.75,12,0.75,Stimuli/P004/sun_bcboctumoxwpdefl.jpg,0,0.0,0.0,0,23,23,23,,,,,,,,,,,,,48.026900699998805,0.026900699998805067,None,,81.94204900000113,81.94204900000113,81.94204900000113,81.94204900000113,81.94204900000113,81.94204900000113,81.94204900000113,81.94204900000113,81.94204900000113,81.94204900000113,007,P004,2025_Jan_18_1429,ConditionRich,2021.2.3,59.943808674178285,
48.75,52.0,41,0.0,Stimuli/Blank.png,0,0.0,0.0,0,24,24,24,,,,,,,,,,,,,48.77696669999932,0.026966699999320554,5,3.1840155999998387,82.69271849999859,82.69271849999859,82.69271849999859,82.69271849999859,82.69271849999859,82.69271849999859,82.69271849999859,82.69271849999859,82.69271849999859,82.69271849999859,007,P004,2025_Jan_18_1429,ConditionRich,2021.2.3,59.943808674178285,
52.0,52.75,27,0.75,Stimuli/P004/things_llama_02s.jpg,0,0.0,0.0,0,25,25,25,,,,,,,,,,,,,52.02805190000072,0.028051900000718888,None,,85.92889569999898,85.92889569999898,85.92889569999898,85.92889569999898,85.92889569999898,85.92889569999898,85.92889569999898,85.92889569999898,85.92889569999898,85.92889569999898,007,P004,2025_Jan_18_1429,ConditionRich,2021.2.3,59.943808674178285,
52.75,56.0,41,0.0,Stimuli/Blank.png,0,0.0,0.0,0,26,26,26,,,,,,,,,,,,,52.76233869999851,0.012338699998508673,5,3.2136916000017663,86.66287319999901,86.66287319999901,86.66287319999901,86.66287319999901,86.66287319999901,86.66287319999901,86.66287319999901,86.66287319999901,86.66287319999901,86.66287319999901,007,P004,2025_Jan_18_1429,ConditionRich,2021.2.3,59.943808674178285,
56.0,56.75,15,0.75,Stimuli/P004/sun_bjhtdevvocmwtavk.jpg,0,0.0,0.0,0,27,27,27,,,,,,,,,,,,,56.017343399998936,0.017343399998935638,None,,89.93241660000058,89.93241660000058,89.93241660000058,89.93241660000058,89.93241660000058,89.93241660000058,89.93241660000058,89.93241660000058,89.93241660000058,89.93241660000058,007,P004,2025_Jan_18_1429,ConditionRich,2021.2.3,59.943808674178285,
56.75,60.0,41,0.0,Stimuli/Blank.png,0,0.0,0.0,0,28,28,28,,,,,,,,,,,,,56.76599559999886,0.01599559999885969,5,1.2102404999968712,90.66640159999952,90.66640159999952,90.66640159999952,90.66640159999952,90.66640159999952,90.66640159999952,90.66640159999952,90.66640159999952,90.66640159999952,90.66640159999952,007,P004,2025_Jan_18_1429,ConditionRich,2021.2.3,59.943808674178285,
60.0,60.75,17,0.75,Stimuli/P004/sun_bojovhhraxtgafcy.jpg,0,0.0,0.0,0,29,29,29,,,,,,,,,,,,,60.002588999999716,0.0025889999997161794,None,,93.91925020000053,93.91925020000053,93.91925020000053,93.91925020000053,93.91925020000053,93.91925020000053,93.91925020000053,93.91925020000053,93.91925020000053,93.91925020000053,007,P004,2025_Jan_18_1429,ConditionRich,2021.2.3,59.943808674178285,
60.75,64.0,41,0.0,Stimuli/Blank.png,1,2.25,3.0,0,30,30,30,,,,,,,,,,,,,60.769501700000546,0.019501700000546407,4,2.6788364999993064,94.66992689999825,94.66992689999825,94.66992689999825,94.66992689999825,94.66992689999825,94.66992689999825,96.90525459999844,97.65590489999886,94.66992689999825,94.66992689999825,007,P004,2025_Jan_18_1429,ConditionRich,2021.2.3,59.943808674178285,
64.0,64.75,5,0.75,Stimuli/P004/sun_amnnxdwfjbdfumns.jpg,1,0.0,0.75,0,31,31,31,,,,,,,,,,,,,64.00521410000147,0.005214100001467159,4,0.468548799999553,97.90610409999863,97.90610409999863,97.90610409999863,97.90610409999863,97.90610409999863,97.90610409999863,97.90610409999863,98.64006710000103,97.90610409999863,97.90610409999863,007,P004,2025_Jan_18_1429,ConditionRich,2021.2.3,59.943808674178285,
64.75,68.0,41,0.0,Stimuli/Blank.png,0,0.0,0.0,0,32,32,32,,,,,,,,,,,,,64.75618150000082,0.006181500000820961,5,3.2198510999987775,98.65675809999811,98.65675809999811,98.65675809999811,98.65675809999811,98.65675809999811,98.65675809999811,98.65675809999811,98.65675809999811,98.65675809999811,98.65675809999811,007,P004,2025_Jan_18_1429,ConditionRich,2021.2.3,59.943808674178285,
68.0,68.75,2,0.75,Stimuli/P004/sun_afijjzyziczoqdhz.jpg,0,0.0,0.0,0,33,33,33,,,,,,,,,,,,,68.00913450000007,0.009134500000072876,None,,101.92631479999909,101.92631479999909,101.92631479999909,101.92631479999909,101.92631479999909,101.92631479999909,101.92631479999909,101.92631479999909,101.92631479999909,101.92631479999909,007,P004,2025_Jan_18_1429,ConditionRich,2021.2.3,59.943808674178285,
68.75,72.0,41,0.0,Stimuli/Blank.png,0,0.0,0.0,0,34,34,34,,,,,,,,,,,,,68.77590739999869,0.025907399998686742,5,3.1996744999996736,102.67696589999832,102.67696589999832,102.67696589999832,102.67696589999832,102.67696589999832,102.67696589999832,102.67696589999832,102.67696589999832,102.67696589999832,102.67696589999832,007,P004,2025_Jan_18_1429,ConditionRich,2021.2.3,59.943808674178285,
72.0,72.75,26,0.75,Stimuli/P004/things_ham_02s.jpg,0,0.0,0.0,0,35,35,35,,,,,,,,,,,,,72.01242009999987,0.012420099999872036,None,,105.9131484999998,105.9131484999998,105.9131484999998,105.9131484999998,105.9131484999998,105.9131484999998,105.9131484999998,105.9131484999998,105.9131484999998,105.9131484999998,007,P004,2025_Jan_18_1429,ConditionRich,2021.2.3,59.943808674178285,
72.75,76.0,41,0.0,Stimuli/Blank.png,0,0.0,0.0,0,36,36,36,,,,,,,,,,,,,72.7634532000011,0.013453200001094956,5,1.212781800000812,106.66380410000056,106.66380410000056,106.66380410000056,106.66380410000056,106.66380410000056,106.66380410000056,106.66380410000056,106.66380410000056,106.66380410000056,106.66380410000056,007,P004,2025_Jan_18_1429,ConditionRich,2021.2.3,59.943808674178285,
76.0,76.75,9,0.75,Stimuli/P004/sun_auqtrqkaobyprnjy.jpg,0,0.0,0.0,0,37,37,37,,,,,,,,,,,,,75.99938190000103,-0.0006180999989737757,None,,109.89999180000086,109.89999180000086,109.89999180000086,109.89999180000086,109.89999180000086,109.89999180000086,109.89999180000086,109.89999180000086,109.89999180000086,109.89999180000086,007,P004,2025_Jan_18_1429,ConditionRich,2021.2.3,59.943808674178285,
76.75,80.0,41,0.0,Stimuli/Blank.png,0,0.0,0.0,0,38,38,38,,,,,,,,,,,,,76.75022600000011,0.00022600000011152588,5,1.2258244000004197,110.65069679999942,110.65069679999942,110.65069679999942,110.65069679999942,110.65069679999942,110.65069679999942,110.65069679999942,110.65069679999942,110.65069679999942,110.65069679999942,007,P004,2025_Jan_18_1429,ConditionRich,2021.2.3,59.943808674178285,
80.0,80.75,10,0.75,Stimuli/P004/sun_azzneunxibjvypza.jpg,0,0.0,0.0,0,39,39,39,,,,,,,,,,,,,80.0026641000004,0.002664100000401959,None,,113.90352379999968,113.90352379999968,113.90352379999968,113.90352379999968,113.90352379999968,113.90352379999968,113.90352379999968,113.90352379999968,113.90352379999968,113.90352379999968,007,P004,2025_Jan_18_1429,ConditionRich,2021.2.3,59.943808674178285,
80.75,84.0,41,0.0,Stimuli/Blank.png,0,0.0,0.0,0,40,40,40,,,,,,,,,,,,,80.753514,0.0035139999999955762,5,1.2221156999985396,114.65436279999994,114.65436279999994,114.65436279999994,114.65436279999994,114.65436279999994,114.65436279999994,114.65436279999994,114.65436279999994,114.65436279999994,114.65436279999994,007,P004,2025_Jan_18_1429,ConditionRich,2021.2.3,59.943808674178285,
84.0,100.0,0,0.0,Stimuli/Blank.png,1,8.0,8.75,0,41,41,41,,,,,,,,,,,,,84.0066321000013,0.006632100001297658,5,13.969607600000018,117.907031499999,117.907031499999,117.907031499999,117.907031499999,117.907031499999,117.907031499999,125.8974014000014,126.64808669999911,117.907031499999,117.907031499999,007,P004,2025_Jan_18_1429,ConditionRich,2021.2.3,59.943808674178285,
100.0,100.75,36,0.75,Stimuli/P004/things_sea_urchin_02s.jpg,0,0.0,0.0,0,42,42,42,,,,,,,,,,,,,100.00412050000159,0.004120500001590699,None,,133.9044443999992,133.9044443999992,133.9044443999992,133.9044443999992,133.9044443999992,133.9044443999992,133.9044443999992,133.9044443999992,133.9044443999992,133.9044443999992,007,P004,2025_Jan_18_1429,ConditionRich,2021.2.3,59.943808674178285,
100.75,104.0,41,0.0,Stimuli/Blank.png,0,0.0,0.0,0,43,43,43,,,,,,,,,,,,,100.75683750000098,0.0068375000009837095,5,3.2047439999987546,134.67179570000008,134.67179570000008,134.67179570000008,134.67179570000008,134.67179570000008,134.67179570000008,134.67179570000008,134.67179570000008,134.67179570000008,134.67179570000008,007,P004,2025_Jan_18_1429,ConditionRich,2021.2.3,59.943808674178285,
104.0,104.75,37,0.75,Stimuli/P004/things_ski_lift_02s.jpg,0,0.0,0.0,0,44,44,44,,,,,,,,,,,,,104.02666129999852,0.026661299998522736,None,,137.9413323000008,137.9413323000008,137.9413323000008,137.9413323000008,137.9413323000008,137.9413323000008,137.9413323000008,137.9413323000008,137.9413323000008,137.9413323000008,007,P004,2025_Jan_18_1429,ConditionRich,2021.2.3,59.943808674178285,
104.75,108.0,41,0.0,Stimuli/Blank.png,0,0.0,0.0,0,45,45,45,,,,,,,,,,,,,104.77521210000123,0.025212100001226645,5,3.201218800000788,138.67532370000117,138.67532370000117,138.67532370000117,138.67532370000117,138.67532370000117,138.67532370000117,138.67532370000117,138.67532370000117,138.67532370000117,138.67532370000117,007,P004,2025_Jan_18_1429,ConditionRich,2021.2.3,59.943808674178285,
108.0,108.75,6,0.75,Stimuli/P004/sun_aoumkoxfhlaobjef.jpg,1,0.0,0.75,0,46,46,46,,,,,,,,,,,,,108.01115109999955,0.011151099999551661,4,0.6279912999998487,141.9114884999981,141.9114884999981,141.9114884999981,141.9114884999981,141.9114884999981,141.9114884999981,141.9114884999981,142.64550969999982,141.9114884999981,141.9114884999981,007,P004,2025_Jan_18_1429,ConditionRich,2021.2.3,59.943808674178285,
108.75,112.0,41,0.0,Stimuli/Blank.png,0,0.0,0.0,0,47,47,47,,,,,,,,,,,,,108.76217270000052,0.012172700000519399,5,3.2142903999992996,142.66215759999977,142.66215759999977,142.66215759999977,142.66215759999977,142.66215759999977,142.66215759999977,142.66215759999977,142.66215759999977,142.66215759999977,142.66215759999977,007,P004,2025_Jan_18_1429,ConditionRich,2021.2.3,59.943808674178285,
112.0,112.75,19,0.75,Stimuli/P004/sun_bucebxfexknakpma.jpg,0,0.0,0.0,0,48,48,48,,,,,,,,,,,,,112.01464159999887,0.014641599998867605,None,,145.9150206000013,145.9150206000013,145.9150206000013,145.9150206000013,145.9150206000013,145.9150206000013,145.9150206000013,145.9150206000013,145.9150206000013,145.9150206000013,007,P004,2025_Jan_18_1429,ConditionRich,2021.2.3,59.943808674178285,
112.75,116.0,41,0.0,Stimuli/Blank.png,0,0.0,0.0,0,49,49,49,,,,,,,,,,,,,112.76666710000063,0.016667100000631763,5,3.1940728000008676,146.6823617000009,146.6823617000009,146.6823617000009,146.6823617000009,146.6823617000009,146.6823617000009,146.6823617000009,146.6823617000009,146.6823617000009,146.6823617000009,007,P004,2025_Jan_18_1429,ConditionRich,2021.2.3,59.943808674178285,
116.0,116.75,16,0.75,Stimuli/P004/sun_bjuoemgleyaogrmw.jpg,0,0.0,0.0,0,50,50,50,,,,,,,,,,,,,116.01785780000137,0.01785780000136583,None,,149.91853759999867,149.91853759999867,149.91853759999867,149.91853759999867,149.91853759999867,149.91853759999867,149.91853759999867,149.91853759999867,149.91853759999867,149.91853759999867,007,P004,2025_Jan_18_1429,ConditionRich,2021.2.3,59.943808674178285,
116.75,120.0,41,0.0,Stimuli/Blank.png,0,0.0,0.0,0,51,51,51,,,,,,,,,,,,,116.75223750000077,0.002237500000774162,5,1.2239277999979095,150.6525150999987,150.6525150999987,150.6525150999987,150.6525150999987,150.6525150999987,150.6525150999987,150.6525150999987,150.6525150999987,150.6525150999987,150.6525150999987,007,P004,2025_Jan_18_1429,ConditionRich,2021.2.3,59.943808674178285,
120.0,120.75,23,0.75,Stimuli/P004/things_butterfly_02s.jpg,0,0.0,0.0,0,52,52,52,,,,,,,,,,,,,120.00562039999932,0.0056203999993158504,None,,153.9053832999998,153.9053832999998,153.9053832999998,153.9053832999998,153.9053832999998,153.9053832999998,153.9053832999998,153.9053832999998,153.9053832999998,153.9053832999998,007,P004,2025_Jan_18_1429,ConditionRich,2021.2.3,59.943808674178285,
120.75,124.0,41,0.0,Stimuli/Blank.png,0,0.0,0.0,0,53,53,53,,,,,,,,,,,,,120.75720880000154,0.007208800001535565,5,3.2036955000003218,154.672726599998,154.672726599998,154.672726599998,154.672726599998,154.672726599998,154.672726599998,154.672726599998,154.672726599998,154.672726599998,154.672726599998,007,P004,2025_Jan_18_1429,ConditionRich,2021.2.3,59.943808674178285,
124.0,124.75,39,0.75,Stimuli/P004/things_toad_02s.jpg,0,0.0,0.0,0,54,54,54,,,,,,,,,,,,,124.02753880000091,0.02753880000091158,None,,157.9422756999993,157.9422756999993,157.9422756999993,157.9422756999993,157.9422756999993,157.9422756999993,157.9422756999993,157.9422756999993,157.9422756999993,157.9422756999993,007,P004,2025_Jan_18_1429,ConditionRich,2021.2.3,59.943808674178285,
124.75,128.0,41,0.0,Stimuli/Blank.png,1,1.25,2.0,0,55,55,55,,,,,,,,,,,,,124.77589660000012,0.025896600000123726,5,3.200136299998121,158.67625419999968,158.67625419999968,158.67625419999968,158.67625419999968,158.67625419999968,158.67625419999968,159.9106662000013,160.66134389999934,158.67625419999968,158.67625419999968,007,P004,2025_Jan_18_1429,ConditionRich,2021.2.3,59.943808674178285,
128.0,128.75,8,0.75,Stimuli/P004/sun_asxkyzleyfgbqfrs.jpg,0,0.0,0.0,0,56,56,56,,,,,,,,,,,,,128.0115783000001,0.011578300000110175,None,,161.91245730000082,161.91245730000082,161.91245730000082,161.91245730000082,161.91245730000082,161.91245730000082,161.91245730000082,161.91245730000082,161.91245730000082,161.91245730000082,007,P004,2025_Jan_18_1429,ConditionRich,2021.2.3,59.943808674178285,
128.75,132.0,41,0.0,Stimuli/Blank.png,0,0.0,0.0,0,57,57,57,,,,,,,,,,,,,128.76248829999895,0.012488299998949515,5,3.21341410000241,162.6631054999998,162.6631054999998,162.6631054999998,162.6631054999998,162.6631054999998,162.6631054999998,162.6631054999998,162.6631054999998,162.6631054999998,162.6631054999998,007,P004,2025_Jan_18_1429,ConditionRich,2021.2.3,59.943808674178285,
132.0,132.75,18,0.75,Stimuli/P004/sun_bplhnzkztpigweny.jpg,0,0.0,0.0,0,58,58,58,,,,,,,,,,,,,132.0152648000003,0.015264800000295509,None,,165.91600029999972,165.91600029999972,165.91600029999972,165.91600029999972,165.91600029999972,165.91600029999972,165.91600029999972,165.91600029999972,165.91600029999972,165.91600029999972,007,P004,2025_Jan_18_1429,ConditionRich,2021.2.3,59.943808674178285,
132.75,136.0,41,0.0,Stimuli/Blank.png,0,0.0,0.0,0,59,59,59,,,,,,,,,,,,,132.74866230000043,-0.0013376999995671213,5,1.2263622999998915,166.6499670000012,166.6499670000012,166.6499670000012,166.6499670000012,166.6499670000012,166.6499670000012,166.6499670000012,166.6499670000012,166.6499670000012,166.6499670000012,007,P004,2025_Jan_18_1429,ConditionRich,2021.2.3,59.943808674178285,
136.0,136.75,31,0.75,Stimuli/P004/things_pea_02s.jpg,0,0.0,0.0,0,60,60,60,,,,,,,,,,,,,136.00255509999988,0.0025550999998813495,None,,169.90279699999883,169.90279699999883,169.90279699999883,169.90279699999883,169.90279699999883,169.90279699999883,169.90279699999883,169.90279699999883,169.90279699999883,169.90279699999883,007,P004,2025_Jan_18_1429,ConditionRich,2021.2.3,59.943808674178285,
136.75,140.0,41,0.0,Stimuli/Blank.png,0,0.0,0.0,0,61,61,61,,,,,,,,,,,,,136.7528151000006,0.0028151000005891547,5,1.2231579999970563,170.6534552999983,170.6534552999983,170.6534552999983,170.6534552999983,170.6534552999983,170.6534552999983,170.6534552999983,170.6534552999983,170.6534552999983,170.6534552999983,007,P004,2025_Jan_18_1429,ConditionRich,2021.2.3,59.943808674178285,
140.0,140.75,1,0.75,Stimuli/P004/sun_adgmtzznutwlescq.jpg,0,0.0,0.0,0,62,62,62,,,,,,,,,,,,,140.00610560000132,0.006105600001319544,None,,173.90631589999975,173.90631589999975,173.90631589999975,173.90631589999975,173.90631589999975,173.90631589999975,173.90631589999975,173.90631589999975,173.90631589999975,173.90631589999975,007,P004,2025_Jan_18_1429,ConditionRich,2021.2.3,59.943808674178285,
140.75,144.0,41,0.0,Stimuli/Blank.png,0,0.0,0.0,0,63,63,63,,,,,,,,,,,,,140.7568285999987,0.006828599998698337,5,3.2194346000032965,174.65698390000034,174.65698390000034,174.65698390000034,174.65698390000034,174.65698390000034,174.65698390000034,174.65698390000034,174.65698390000034,174.65698390000034,174.65698390000034,007,P004,2025_Jan_18_1429,ConditionRich,2021.2.3,59.943808674178285,
144.0,144.75,14,0.75,Stimuli/P004/sun_bhhtrmwvoadbfucw.jpg,1,0.0,0.75,0,64,64,64,,,,,,,,,,,,,144.00932399999874,0.009323999998741783,4,0.4387261000010767,177.90984949999984,177.90984949999984,177.90984949999984,177.90984949999984,177.90984949999984,177.90984949999984,177.90984949999984,178.64385810000022,177.90984949999984,177.90984949999984,007,P004,2025_Jan_18_1429,ConditionRich,2021.2.3,59.943808674178285,
144.75,148.0,41,0.0,Stimuli/Blank.png,0,0.0,0.0,0,65,65,65,,,,,,,,,,,,,144.76171899999827,0.011718999998265645,5,3.1992476000013994,178.67718479999894,178.67718479999894,178.67718479999894,178.67718479999894,178.67718479999894,178.67718479999894,178.67718479999894,178.67718479999894,178.67718479999894,178.67718479999894,007,P004,2025_Jan_18_1429,ConditionRich,2021.2.3,59.943808674178285,
148.0,148.75,21,0.75,Stimuli/P004/things_baby_02s.jpg,0,0.0,0.0,0,66,66,66,,,,,,,,,,,,,148.03152549999868,0.03152549999867915,None,,181.9467373999978,181.9467373999978,181.9467373999978,181.9467373999978,181.9467373999978,181.9467373999978,181.9467373999978,181.9467373999978,181.9467373999978,181.9467373999978,007,P004,2025_Jan_18_1429,ConditionRich,2021.2.3,59.943808674178285,
148.75,152.0,41,0.0,Stimuli/Blank.png,0,0.0,0.0,0,67,67,67,,,,,,,,,,,,,148.78211200000078,0.03211200000077952,5,3.179050200000347,182.69739449999906,182.69739449999906,182.69739449999906,182.69739449999906,182.69739449999906,182.69739449999906,182.69739449999906,182.69739449999906,182.69739449999906,182.69739449999906,007,P004,2025_Jan_18_1429,ConditionRich,2021.2.3,59.943808674178285,
152.0,152.75,22,0.75,Stimuli/P004/things_boy_02s.jpg,0,0.0,0.0,0,68,68,68,,,,,,,,,,,,,152.01616329999888,0.016163299998879666,None,,185.91688919999797,185.91688919999797,185.91688919999797,185.91688919999797,185.91688919999797,185.91688919999797,185.91688919999797,185.91688919999797,185.91688919999797,185.91688919999797,007,P004,2025_Jan_18_1429,ConditionRich,2021.2.3,59.943808674178285,
152.75,156.0,41,0.0,Stimuli/Blank.png,0,0.0,0.0,0,69,69,69,,,,,,,,,,,,,152.7522405000018,0.002240500001789769,5,3.2089674999988347,186.66754859999855,186.66754859999855,186.66754859999855,186.66754859999855,186.66754859999855,186.66754859999855,186.66754859999855,186.66754859999855,186.66754859999855,186.66754859999855,007,P004,2025_Jan_18_1429,ConditionRich,2021.2.3,59.943808674178285,
156.0,156.75,28,0.75,Stimuli/P004/things_man_02s.jpg,0,0.0,0.0,0,70,70,70,,,,,,,,,,,,,156.01943949999986,0.019439499999862164,None,,189.9204107000005,189.9204107000005,189.9204107000005,189.9204107000005,189.9204107000005,189.9204107000005,189.9204107000005,189.9204107000005,189.9204107000005,189.9204107000005,007,P004,2025_Jan_18_1429,ConditionRich,2021.2.3,59.943808674178285,
156.75,160.0,41,0.0,Stimuli/Blank.png,0,0.0,0.0,0,71,71,71,,,,,,,,,,,,,156.75361600000178,0.003616000001784414,5,1.222160299999814,190.65439200000037,190.65439200000037,190.65439200000037,190.65439200000037,190.65439200000037,190.65439200000037,190.65439200000037,190.65439200000037,190.65439200000037,190.65439200000037,007,P004,2025_Jan_18_1429,ConditionRich,2021.2.3,59.943808674178285,
160.0,160.75,40,0.75,Stimuli/P004/things_woman_02s.jpg,0,0.0,0.0,0,72,72,72,,,,,,,,,,,,,160.00680020000073,0.006800200000725454,None,,193.90724979999868,193.90724979999868,193.90724979999868,193.90724979999868,193.90724979999868,193.90724979999868,193.90724979999868,193.90724979999868,193.90724979999868,193.90724979999868,007,P004,2025_Jan_18_1429,ConditionRich,2021.2.3,59.943808674178285,
160.75,164.0,41,0.0,Stimuli/Blank.png,0,0.0,0.0,0,73,73,73,,,,,,,,,,,,,160.75673950000055,0.006739500000549015,5,3.2184335999991163,194.6579113000007,194.6579113000007,194.6579113000007,194.6579113000007,194.6579113000007,194.6579113000007,194.6579113000007,194.6579113000007,194.6579113000007,194.6579113000007,007,P004,2025_Jan_18_1429,ConditionRich,2021.2.3,59.943808674178285,
164.0,164.75,24,0.75,Stimuli/P004/things_dumpling_02s.jpg,0,0.0,0.0,0,74,74,74,,,,,,,,,,,,,164.01000489999933,0.010004899999330519,None,,197.91077529999893,197.91077529999893,197.91077529999893,197.91077529999893,197.91077529999893,197.91077529999893,197.91077529999893,197.91077529999893,197.91077529999893,197.91077529999893,007,P004,2025_Jan_18_1429,ConditionRich,2021.2.3,59.943808674178285,
164.75,168.0,41,0.0,Stimuli/Blank.png,1,2.25,3.0,0,75,75,75,,,,,,,,,,,,,164.76077989999976,0.010779899999761255,5,3.21484540000165,198.66145020000113,198.66145020000113,198.66145020000113,198.66145020000113,198.66145020000113,198.66145020000113,200.89673889999904,201.64739510000072,198.66145020000113,198.66145020000113,007,P004,2025_Jan_18_1429,ConditionRich,2021.2.3,59.943808674178285,
168.0,168.75,32,0.75,Stimuli/P004/things_pulley_02s.jpg,0,0.0,0.0,0,76,76,76,,,,,,,,,,,,,168.01385980000123,0.013859800001227995,None,,201.91429659999994,201.91429659999994,201.91429659999994,201.91429659999994,201.91429659999994,201.91429659999994,201.91429659999994,201.91429659999994,201.91429659999994,201.91429659999994,007,P004,2025_Jan_18_1429,ConditionRich,2021.2.3,59.943808674178285,
168.75,172.0,41,0.0,Stimuli/Blank.png,1,2.25,3.0,0,77,77,77,,,,,,,,,,,,,168.766359199999,0.016359199998987606,5,3.194588599999406,202.6816457999994,202.6816457999994,202.6816457999994,202.6816457999994,202.6816457999994,202.6816457999994,204.9169436000011,205.66763999999966,202.6816457999994,202.6816457999994,007,P004,2025_Jan_18_1429,ConditionRich,2021.2.3,59.943808674178285,
172.0,172.75,3,0.75,Stimuli/P004/sun_afqjzrocqhabifao.jpg,0,0.0,0.0,0,78,78,78,,,,,,,,,,,,,172.01677479999853,0.016774799998529488,None,,205.91782109999986,205.91782109999986,205.91782109999986,205.91782109999986,205.91782109999986,205.91782109999986,205.91782109999986,205.91782109999986,205.91782109999986,205.91782109999986,007,P004,2025_Jan_18_1429,ConditionRich,2021.2.3,59.943808674178285,
172.75,176.0,41,0.0,Stimuli/Blank.png,0,0.0,0.0,0,79,79,79,,,,,,,,,,,,,172.75071440000102,0.000714400001015747,5,1.2242987000026915,206.651885700001,206.651885700001,206.651885700001,206.651885700001,206.651885700001,206.651885700001,206.651885700001,206.651885700001,206.651885700001,206.651885700001,007,P004,2025_Jan_18_1429,ConditionRich,2021.2.3,59.943808674178285,
176.0,176.75,33,0.75,Stimuli/P004/things_recorder_02s.jpg,0,0.0,0.0,0,80,80,80,,,,,,,,,,,,,176.0064738000001,0.006473800000094343,None,,209.921354099999,209.921354099999,209.921354099999,209.921354099999,209.921354099999,209.921354099999,209.921354099999,209.921354099999,209.921354099999,209.921354099999,007,P004,2025_Jan_18_1429,ConditionRich,2021.2.3,59.943808674178285,
176.75,180.0,41,0.0,Stimuli/Blank.png,0,0.0,0.0,0,81,81,81,,,,,,,,,,,,,176.7718015999999,0.02180159999988973,5,3.204253999996581,210.67200619999858,210.67200619999858,210.67200619999858,210.67200619999858,210.67200619999858,210.67200619999858,210.67200619999858,210.67200619999858,210.67200619999858,210.67200619999858,007,P004,2025_Jan_18_1429,ConditionRich,2021.2.3,59.943808674178285,
180.0,196.0,0,0.0,Stimuli/Blank.png,1,13.0,13.75,0,82,82,82,,,,,,,,,,,,,180.00717019999865,0.007170199998654425,5,13.968991699999606,213.90819439999905,213.90819439999905,213.90819439999905,213.90819439999905,213.90819439999905,213.90819439999905,226.88627989999804,227.63694929999838,213.90819439999905,213.90819439999905,007,P004,2025_Jan_18_1429,ConditionRich,2021.2.3,59.943808674178285,
196.0,196.75,24,0.75,Stimuli/P004/things_dumpling_02s.jpg,0,0.0,0.0,0,83,83,83,,,,,,,,,,,,,196.00480130000142,0.004801300001417985,None,,229.9055926000001,229.9055926000001,229.9055926000001,229.9055926000001,229.9055926000001,229.9055926000001,229.9055926000001,229.9055926000001,229.9055926000001,229.9055926000001,007,P004,2025_Jan_18_1429,ConditionRich,2021.2.3,59.943808674178285,
196.75,200.0,41,0.0,Stimuli/Blank.png,1,2.25,3.0,0,84,84,84,,,,,,,,,,,,,196.75570059999882,0.005700599998817779,5,3.220914100002119,230.65626200000042,230.65626200000042,230.65626200000042,230.65626200000042,230.65626200000042,230.65626200000042,232.89155390000087,233.64223689999926,230.65626200000042,230.65626200000042,007,P004,2025_Jan_18_1429,ConditionRich,2021.2.3,59.943808674178285,
200.0,200.75,3,0.75,Stimuli/P004/sun_afqjzrocqhabifao.jpg,0,0.0,0.0,0,85,85,85,,,,,,,,,,,,,200.00885170000038,0.008851700000377605,None,,233.9257988999998,233.9257988999998,233.9257988999998,233.9257988999998,233.9257988999998,233.9257988999998,233.9257988999998,233.9257988999998,233.9257988999998,233.9257988999998,007,P004,2025_Jan_18_1429,ConditionRich,2021.2.3,59.943808674178285,
200.75,204.0,41,0.0,Stimuli/Blank.png,0,0.0,0.0,0,86,86,86,,,,,,,,,,,,,200.77593350000097,0.025933500000974163,5,3.200732200002676,234.6764817000003,234.6764817000003,234.6764817000003,234.6764817000003,234.6764817000003,234.6764817000003,234.6764817000003,234.6764817000003,234.6764817000003,234.6764817000003,007,P004,2025_Jan_18_1429,ConditionRich,2021.2.3,59.943808674178285,
204.0,204.75,25,0.75,Stimuli/P004/things_girl_02s.jpg,0,0.0,0.0,0,87,87,87,,,,,,,,,,,,,204.01209260000178,0.01209260000177892,None,,237.9126503999978,237.9126503999978,237.9126503999978,237.9126503999978,237.9126503999978,237.9126503999978,237.9126503999978,237.9126503999978,237.9126503999978,237.9126503999978,007,P004,2025_Jan_18_1429,ConditionRich,2021.2.3,59.943808674178285,
204.75,208.0,41,0.0,Stimuli/Blank.png,0,0.0,0.0,0,88,88,88,,,,,,,,,,,,,204.76256529999955,0.012565299999550916,5,3.213678100000834,238.6633097999984,238.6633097999984,238.6633097999984,238.6633097999984,238.6633097999984,238.6633097999984,238.6633097999984,238.6633097999984,238.6633097999984,238.6633097999984,007,P004,2025_Jan_18_1429,ConditionRich,2021.2.3,59.943808674178285,
208.0,208.75,5,0.75,Stimuli/P004/sun_amnnxdwfjbdfumns.jpg,0,0.0,0.0,0,89,89,89,,,,,,,,,,,,,208.01670029999877,0.016700299998774426,None,,241.93285729999843,241.93285729999843,241.93285729999843,241.93285729999843,241.93285729999843,241.93285729999843,241.93285729999843,241.93285729999843,241.93285729999843,241.93285729999843,007,P004,2025_Jan_18_1429,ConditionRich,2021.2.3,59.943808674178285,
208.75,212.0,41,0.0,Stimuli/Blank.png,0,0.0,0.0,0,90,90,90,,,,,,,,,,,,,208.76589719999902,0.015897199999017175,5,1.2104013999996823,242.66683349999948,242.66683349999948,242.66683349999948,242.66683349999948,242.66683349999948,242.66683349999948,242.66683349999948,242.66683349999948,242.66683349999948,242.66683349999948,007,P004,2025_Jan_18_1429,ConditionRich,2021.2.3,59.943808674178285,
212.0,212.75,20,0.75,Stimuli/P004/sun_bwytihadgigwkyht.jpg,1,0.0,0.75,0,91,91,91,,,,,,,,,,,,,212.0027564000011,0.002756400001089787,4,0.3861819000012474,245.90301180000097,245.90301180000097,245.90301180000097,245.90301180000097,245.90301180000097,245.90301180000097,245.90301180000097,246.63699279999855,245.90301180000097,245.90301180000097,007,P004,2025_Jan_18_1429,ConditionRich,2021.2.3,59.943808674178285,
212.75,216.0,41,0.0,Stimuli/Blank.png,0,0.0,0.0,0,92,92,92,,,,,,,,,,,,,212.75324000000182,0.003240000001824228,5,1.2232708000010462,246.6537501999992,246.6537501999992,246.6537501999992,246.6537501999992,246.6537501999992,246.6537501999992,246.6537501999992,246.6537501999992,246.6537501999992,246.6537501999992,007,P004,2025_Jan_18_1429,ConditionRich,2021.2.3,59.943808674178285,
216.0,216.75,16,0.75,Stimuli/P004/sun_bjuoemgleyaogrmw.jpg,0,0.0,0.0,0,93,93,93,,,,,,,,,,,,,216.00668909999877,0.0066890999987663236,None,,249.92323169999872,249.92323169999872,249.92323169999872,249.92323169999872,249.92323169999872,249.92323169999872,249.92323169999872,249.92323169999872,249.92323169999872,249.92323169999872,007,P004,2025_Jan_18_1429,ConditionRich,2021.2.3,59.943808674178285,
216.75,220.0,41,0.0,Stimuli/Blank.png,0,0.0,0.0,0,94,94,94,,,,,,,,,,,,,216.773602199999,0.02360219999900437,5,3.203156999999919,250.67388389999905,250.67388389999905,250.67388389999905,250.67388389999905,250.67388389999905,250.67388389999905,250.67388389999905,250.67388389999905,250.67388389999905,250.67388389999905,007,P004,2025_Jan_18_1429,ConditionRich,2021.2.3,59.943808674178285,
220.0,220.75,21,0.75,Stimuli/P004/things_baby_02s.jpg,0,0.0,0.0,0,95,95,95,,,,,,,,,,,,,220.01002430000153,0.010024300001532538,None,,253.92673769999965,253.92673769999965,253.92673769999965,253.92673769999965,253.92673769999965,253.92673769999965,253.92673769999965,253.92673769999965,253.92673769999965,253.92673769999965,007,P004,2025_Jan_18_1429,ConditionRich,2021.2.3,59.943808674178285,
220.75,224.0,41,0.0,Stimuli/Blank.png,0,0.0,0.0,0,96,96,96,,,,,,,,,,,,,220.77685389999897,0.0268538999989687,5,3.1996280000021216,254.677405800001,254.677405800001,254.677405800001,254.677405800001,254.677405800001,254.677405800001,254.677405800001,254.677405800001,254.677405800001,254.677405800001,007,P004,2025_Jan_18_1429,ConditionRich,2021.2.3,59.943808674178285,
224.0,224.75,19,0.75,Stimuli/P004/sun_bucebxfexknakpma.jpg,0,0.0,0.0,0,97,97,97,,,,,,,,,,,,,224.0127562000016,0.012756200001604157,None,,257.9135920000008,257.9135920000008,257.9135920000008,257.9135920000008,257.9135920000008,257.9135920000008,257.9135920000008,257.9135920000008,257.9135920000008,257.9135920000008,007,P004,2025_Jan_18_1429,ConditionRich,2021.2.3,59.943808674178285,
224.75,228.0,41,0.0,Stimuli/Blank.png,0,0.0,0.0,0,98,98,98,,,,,,,,,,,,,224.76331539999956,0.013315399999555666,5,1.2127439999967464,258.6642705999984,258.6642705999984,258.6642705999984,258.6642705999984,258.6642705999984,258.6642705999984,258.6642705999984,258.6642705999984,258.6642705999984,258.6642705999984,007,P004,2025_Jan_18_1429,ConditionRich,2021.2.3,59.943808674178285,
228.0,228.75,9,0.75,Stimuli/P004/sun_auqtrqkaobyprnjy.jpg,0,0.0,0.0,0,99,99,99,,,,,,,,,,,,,227.9996742000003,-0.00032579999970039353,None,,261.90042520000134,261.90042520000134,261.90042520000134,261.90042520000134,261.90042520000134,261.90042520000134,261.90042520000134,261.90042520000134,261.90042520000134,261.90042520000134,007,P004,2025_Jan_18_1429,ConditionRich,2021.2.3,59.943808674178285,
228.75,232.0,41,0.0,Stimuli/Blank.png,0,0.0,0.0,0,100,100,100,,,,,,,,,,,,,228.7504255999993,0.0004255999992892612,5,1.2260920999979135,262.6510851999992,262.6510851999992,262.6510851999992,262.6510851999992,262.6510851999992,262.6510851999992,262.6510851999992,262.6510851999992,262.6510851999992,262.6510851999992,007,P004,2025_Jan_18_1429,ConditionRich,2021.2.3,59.943808674178285,
232.0,232.75,4,0.75,Stimuli/P004/sun_albtqdieqkajejrg.jpg,0,0.0,0.0,0,101,101,101,,,,,,,,,,,,,232.00373409999884,0.003734099998837337,None,,265.9206463999981,265.9206463999981,265.9206463999981,265.9206463999981,265.9206463999981,265.9206463999981,265.9206463999981,265.9206463999981,265.9206463999981,265.9206463999981,007,P004,2025_Jan_18_1429,ConditionRich,2021.2.3,59.943808674178285,
232.75,236.0,41,0.0,Stimuli/Blank.png,0,0.0,0.0,0,102,102,102,,,,,,,,,,,,,232.77137660000153,0.021376600001531187,5,1.205971999999747,266.6712996999995,266.6712996999995,266.6712996999995,266.6712996999995,266.6712996999995,266.6712996999995,266.6712996999995,266.6712996999995,266.6712996999995,266.6712996999995,007,P004,2025_Jan_18_1429,ConditionRich,2021.2.3,59.943808674178285,
236.0,236.75,6,0.75,Stimuli/P004/sun_aoumkoxfhlaobjef.jpg,1,0.0,0.75,0,103,103,103,,,,,,,,,,,,,236.0065676000013,0.006567600001289975,4,0.5126271999979508,269.907478000001,269.907478000001,269.907478000001,269.907478000001,269.907478000001,269.907478000001,269.907478000001,270.64147969999976,269.907478000001,269.907478000001,007,P004,2025_Jan_18_1429,ConditionRich,2021.2.3,59.943808674178285,
236.75,240.0,41,0.0,Stimuli/Blank.png,0,0.0,0.0,0,104,104,104,,,,,,,,,,,,,236.75768959999914,0.007689599999139318,5,3.2188955000019632,270.6581350999986,270.6581350999986,270.6581350999986,270.6581350999986,270.6581350999986,270.6581350999986,270.6581350999986,270.6581350999986,270.6581350999986,270.6581350999986,007,P004,2025_Jan_18_1429,ConditionRich,2021.2.3,59.943808674178285,
240.0,240.75,13,0.75,Stimuli/P004/sun_bhbiqbqmwrowrqpd.jpg,0,0.0,0.0,0,105,105,105,,,,,,,,,,,,,240.01062599999932,0.010625999999319902,None,,273.9276686000012,273.9276686000012,273.9276686000012,273.9276686000012,273.9276686000012,273.9276686000012,273.9276686000012,273.9276686000012,273.9276686000012,273.9276686000012,007,P004,2025_Jan_18_1429,ConditionRich,2021.2.3,59.943808674178285,
240.75,244.0,41,0.0,Stimuli/Blank.png,0,0.0,0.0,0,106,106,106,,,,,,,,,,,,,240.77740389999963,0.027403899999626447,5,3.1985605000008945,274.67834070000026,274.67834070000026,274.67834070000026,274.67834070000026,274.67834070000026,274.67834070000026,274.67834070000026,274.67834070000026,274.67834070000026,274.67834070000026,007,P004,2025_Jan_18_1429,ConditionRich,2021.2.3,59.943808674178285,
244.0,244.75,14,0.75,Stimuli/P004/sun_bhhtrmwvoadbfucw.jpg,0,0.0,0.0,0,107,107,107,,,,,,,,,,,,,244.01350119999915,0.013501199999154778,None,,277.9146115000003,277.9146115000003,277.9146115000003,277.9146115000003,277.9146115000003,277.9146115000003,277.9146115000003,277.9146115000003,277.9146115000003,277.9146115000003,007,P004,2025_Jan_18_1429,ConditionRich,2021.2.3,59.943808674178285,
244.75,248.0,41,0.0,Stimuli/Blank.png,0,0.0,0.0,0,108,108,108,,,,,,,,,,,,,244.76483870000084,0.01483870000083698,5,1.2119137000008777,278.6651821999985,278.6651821999985,278.6651821999985,278.6651821999985,278.6651821999985,278.6651821999985,278.6651821999985,278.6651821999985,278.6651821999985,278.6651821999985,007,P004,2025_Jan_18_1429,ConditionRich,2021.2.3,59.943808674178285,
248.0,248.75,10,0.75,Stimuli/P004/sun_azzneunxibjvypza.jpg,0,0.0,0.0,0,109,109,109,,,,,,,,,,,,,248.0006031999983,0.0006031999982951675,None,,281.901359200001,281.901359200001,281.901359200001,281.901359200001,281.901359200001,281.901359200001,281.901359200001,281.901359200001,281.901359200001,281.901359200001,007,P004,2025_Jan_18_1429,ConditionRich,2021.2.3,59.943808674178285,
248.75,252.0,41,0.0,Stimuli/Blank.png,0,0.0,0.0,0,110,110,110,,,,,,,,,,,,,248.75146920000043,0.0014692000004288275,5,1.2249567999970168,282.65202529999806,282.65202529999806,282.65202529999806,282.65202529999806,282.65202529999806,282.65202529999806,282.65202529999806,282.65202529999806,282.65202529999806,282.65202529999806,007,P004,2025_Jan_18_1429,ConditionRich,2021.2.3,59.943808674178285,
252.0,252.75,1,0.75,Stimuli/P004/sun_adgmtzznutwlescq.jpg,0,0.0,0.0,0,111,111,111,,,,,,,,,,,,,252.00681220000115,0.006812200001149904,None,,285.921572700001,285.921572700001,285.921572700001,285.921572700001,285.921572700001,285.921572700001,285.921572700001,285.921572700001,285.921572700001,285.921572700001,007,P004,2025_Jan_18_1429,ConditionRich,2021.2.3,59.943808674178285,
252.75,256.0,41,0.0,Stimuli/Blank.png,0,0.0,0.0,0,112,112,112,,,,,,,,,,,,,252.77227689999927,0.022276899999269517,5,3.204750000000786,286.67224239999996,286.67224239999996,286.67224239999996,286.67224239999996,286.67224239999996,286.67224239999996,286.67224239999996,286.67224239999996,286.67224239999996,286.67224239999996,007,P004,2025_Jan_18_1429,ConditionRich,2021.2.3,59.943808674178285,
256.0,256.75,15,0.75,Stimuli/P004/sun_bjhtdevvocmwtavk.jpg,0,0.0,0.0,0,113,113,113,,,,,,,,,,,,,256.0074792000014,0.007479200001398567,None,,289.9251081000002,289.9251081000002,289.9251081000002,289.9251081000002,289.9251081000002,289.9251081000002,289.9251081000002,289.9251081000002,289.9251081000002,289.9251081000002,007,P004,2025_Jan_18_1429,ConditionRich,2021.2.3,59.943808674178285,
256.75,260.0,41,0.0,Stimuli/Blank.png,1,1.25,2.0,0,114,114,114,,,,,,,,,,,,,256.77536930000133,0.025369300001329975,5,3.2012452999988454,290.6757590999987,290.6757590999987,290.6757590999987,290.6757590999987,290.6757590999987,290.6757590999987,291.91019360000064,292.6608267999982,290.6757590999987,290.6757590999987,007,P004,2025_Jan_18_1429,ConditionRich,2021.2.3,59.943808674178285,
260.0,260.75,23,0.75,Stimuli/P004/things_butterfly_02s.jpg,0,0.0,0.0,0,115,115,115,,,,,,,,,,,,,260.0123582000015,0.012358200001472142,None,,293.9286042999993,293.9286042999993,293.9286042999993,293.9286042999993,293.9286042999993,293.9286042999993,293.9286042999993,293.9286042999993,293.9286042999993,293.9286042999993,007,P004,2025_Jan_18_1429,ConditionRich,2021.2.3,59.943808674178285,
260.75,264.0,41,0.0,Stimuli/Blank.png,0,0.0,0.0,0,116,116,116,,,,,,,,,,,,,260.7807299999986,0.03072999999858439,5,3.1808345999997982,294.69598549999864,294.69598549999864,294.69598549999864,294.69598549999864,294.69598549999864,294.69598549999864,294.69598549999864,294.69598549999864,294.69598549999864,294.69598549999864,007,P004,2025_Jan_18_1429,ConditionRich,2021.2.3,59.943808674178285,
264.0,264.75,34,0.75,Stimuli/P004/things_roll_02s.jpg,0,0.0,0.0,0,117,117,117,,,,,,,,,,,,,264.01508549999926,0.0150854999992589,None,,297.91545349999797,297.91545349999797,297.91545349999797,297.91545349999797,297.91545349999797,297.91545349999797,297.91545349999797,297.91545349999797,297.91545349999797,297.91545349999797,007,P004,2025_Jan_18_1429,ConditionRich,2021.2.3,59.943808674178285,
264.75,268.0,41,0.0,Stimuli/Blank.png,0,0.0,0.0,0,118,118,118,,,,,,,,,,,,,264.75104009999995,0.0010400999999546912,5,3.210773999999219,298.66612890000033,298.66612890000033,298.66612890000033,298.66612890000033,298.66612890000033,298.66612890000033,298.66612890000033,298.66612890000033,298.66612890000033,298.66612890000033,007,P004,2025_Jan_18_1429,ConditionRich,2021.2.3,59.943808674178285,
268.0,268.75,38,0.75,Stimuli/P004/things_slug_02s.jpg,0,0.0,0.0,0,119,119,119,,,,,,,,,,,,,268.0185598999997,0.01855989999967278,None,,301.9189770000012,301.9189770000012,301.9189770000012,301.9189770000012,301.9189770000012,301.9189770000012,301.9189770000012,301.9189770000012,301.9189770000012,301.9189770000012,007,P004,2025_Jan_18_1429,ConditionRich,2021.2.3,59.943808674178285,
268.75,272.0,41,0.0,Stimuli/Blank.png,1,0.25,1.0,0,120,120,120,,,,,,,,,,,,,268.752432199999,0.0024321999990206677,5,1.2238808000001882,302.65295569999944,302.65295569999944,302.65295569999944,302.65295569999944,302.65295569999944,302.65295569999944,302.88649299999815,303.63720380000086,302.65295569999944,302.65295569999944,007,P004,2025_Jan_18_1429,ConditionRich,2021.2.3,59.943808674178285,
272.0,272.75,22,0.75,Stimuli/P004/things_boy_02s.jpg,0,0.0,0.0,0,121,121,121,,,,,,,,,,,,,272.0057357000005,0.0057357000005140435,None,,305.9058220000006,305.9058220000006,305.9058220000006,305.9058220000006,305.9058220000006,305.9058220000006,305.9058220000006,305.9058220000006,305.9058220000006,305.9058220000006,007,P004,2025_Jan_18_1429,ConditionRich,2021.2.3,59.943808674178285,
272.75,276.0,41,0.0,Stimuli/Blank.png,0,0.0,0.0,0,122,122,122,,,,,,,,,,,,,272.75608490000013,0.00608490000013262,5,3.220393600000534,306.65648209999927,306.65648209999927,306.65648209999927,306.65648209999927,306.65648209999927,306.65648209999927,306.65648209999927,306.65648209999927,306.65648209999927,306.65648209999927,007,P004,2025_Jan_18_1429,ConditionRich,2021.2.3,59.943808674178285,
276.0,292.0,0,0.0,Stimuli/Blank.png,1,7.0,7.75,0,123,123,123,,,,,,,,,,,,,276.00843929999974,0.00843929999973625,5,13.96742080000331,309.90933869999935,309.90933869999935,309.90933869999935,309.90933869999935,309.90933869999935,309.90933869999935,316.8988626999999,317.64949139999953,309.90933869999935,309.90933869999935,007,P004,2025_Jan_18_1429,ConditionRich,2021.2.3,59.943808674178285,
292.0,292.75,40,0.75,Stimuli/P004/things_woman_02s.jpg,1,0.0,0.75,0,124,124,124,,,,,,,,,,,,,292.00616960000116,0.00616960000115796,4,0.4800190999994811,325.9067533999987,325.9067533999987,325.9067533999987,325.9067533999987,325.9067533999987,325.9067533999987,325.9067533999987,326.6407407000006,325.9067533999987,325.9067533999987,007,P004,2025_Jan_18_1429,ConditionRich,2021.2.3,59.943808674178285,
292.75,296.0,41,0.0,Stimuli/Blank.png,0,0.0,0.0,0,125,125,125,,,,,,,,,,,,,292.75707559999864,0.007075599998643156,5,3.2194520000011835,326.6574108999994,326.6574108999994,326.6574108999994,326.6574108999994,326.6574108999994,326.6574108999994,326.6574108999994,326.6574108999994,326.6574108999994,326.6574108999994,007,P004,2025_Jan_18_1429,ConditionRich,2021.2.3,59.943808674178285,
296.0,296.75,29,0.75,Stimuli/P004/things_mat_02s.jpg,0,0.0,0.0,0,126,126,126,,,,,,,,,,,,,296.01136889999907,0.011368899999069981,None,,329.92696499999875,329.92696499999875,329.92696499999875,329.92696499999875,329.92696499999875,329.92696499999875,329.92696499999875,329.92696499999875,329.92696499999875,329.92696499999875,007,P004,2025_Jan_18_1429,ConditionRich,2021.2.3,59.943808674178285,
296.75,300.0,41,0.0,Stimuli/Blank.png,1,1.25,2.0,0,127,127,127,,,,,,,,,,,,,296.7772530000002,0.0272530000002007,5,3.199167700000544,330.67761959999916,330.67761959999916,330.67761959999916,330.67761959999916,330.67761959999916,330.67761959999916,331.91203870000027,332.6627370999995,330.67761959999916,330.67761959999916,007,P004,2025_Jan_18_1429,ConditionRich,2021.2.3,59.943808674178285,
300.0,300.75,26,0.75,Stimuli/P004/things_ham_02s.jpg,0,0.0,0.0,0,128,128,128,,,,,,,,,,,,,300.0133409000009,0.01334090000091237,None,,333.93045379999967,333.93045379999967,333.93045379999967,333.93045379999967,333.93045379999967,333.93045379999967,333.93045379999967,333.93045379999967,333.93045379999967,333.93045379999967,007,P004,2025_Jan_18_1429,ConditionRich,2021.2.3,59.943808674178285,
300.75,304.0,41,0.0,Stimuli/Blank.png,0,0.0,0.0,0,129,129,129,,,,,,,,,,,,,300.78061380000145,0.03061380000144709,5,1.1957901000023412,334.68113639999865,334.68113639999865,334.68113639999865,334.68113639999865,334.68113639999865,334.68113639999865,334.68113639999865,334.68113639999865,334.68113639999865,334.68113639999865,007,P004,2025_Jan_18_1429,ConditionRich,2021.2.3,59.943808674178285,
304.0,304.75,37,0.75,Stimuli/P004/things_ski_lift_02s.jpg,0,0.0,0.0,0,130,130,130,,,,,,,,,,,,,304.0004230000013,0.00042300000131945126,None,,337.9173207999993,337.9173207999993,337.9173207999993,337.9173207999993,337.9173207999993,337.9173207999993,337.9173207999993,337.9173207999993,337.9173207999993,337.9173207999993,007,P004,2025_Jan_18_1429,ConditionRich,2021.2.3,59.943808674178285,
304.75,308.0,41,0.0,Stimuli/Blank.png,0,0.0,0.0,0,131,131,131,,,,,,,,,,,,,304.7670279999984,0.017027999998390442,5,1.2088167000001704,338.667968400001,338.667968400001,338.667968400001,338.667968400001,338.667968400001,338.667968400001,338.667968400001,338.667968400001,338.667968400001,338.667968400001,007,P004,2025_Jan_18_1429,ConditionRich,2021.2.3,59.943808674178285,
308.0,308.75,32,0.75,Stimuli/P004/things_pulley_02s.jpg,0,0.0,0.0,0,132,132,132,,,,,,,,,,,,,308.0057882000001,0.005788200000097277,None,,341.92085809999844,341.92085809999844,341.92085809999844,341.92085809999844,341.92085809999844,341.92085809999844,341.92085809999844,341.92085809999844,341.92085809999844,341.92085809999844,007,P004,2025_Jan_18_1429,ConditionRich,2021.2.3,59.943808674178285,
308.75,312.0,41,0.0,Stimuli/Blank.png,0,0.0,0.0,0,133,133,133,,,,,,,,,,,,,308.7710490999998,0.02104909999980009,5,1.2052142999964417,342.6715129000004,342.6715129000004,342.6715129000004,342.6715129000004,342.6715129000004,342.6715129000004,342.6715129000004,342.6715129000004,342.6715129000004,342.6715129000004,007,P004,2025_Jan_18_1429,ConditionRich,2021.2.3,59.943808674178285,
312.0,312.75,8,0.75,Stimuli/P004/sun_asxkyzleyfgbqfrs.jpg,0,0.0,0.0,0,134,134,134,,,,,,,,,,,,,312.0066092999987,0.006609299998672213,None,,345.9076915000005,345.9076915000005,345.9076915000005,345.9076915000005,345.9076915000005,345.9076915000005,345.9076915000005,345.9076915000005,345.9076915000005,345.9076915000005,007,P004,2025_Jan_18_1429,ConditionRich,2021.2.3,59.943808674178285,
312.75,316.0,41,0.0,Stimuli/Blank.png,1,1.25,2.0,0,135,135,135,,,,,,,,,,,,,312.7573927000012,0.007392700001219055,5,3.21845889999895,346.65834919999907,346.65834919999907,346.65834919999907,346.65834919999907,346.65834919999907,346.65834919999907,347.89280439999857,348.6434737999989,346.65834919999907,346.65834919999907,007,P004,2025_Jan_18_1429,ConditionRich,2021.2.3,59.943808674178285,
316.0,316.75,27,0.75,Stimuli/P004/things_llama_02s.jpg,0,0.0,0.0,0,136,136,136,,,,,,,,,,,,,316.01099949999843,0.010999499998433748,None,,349.9112193000001,349.9112193000001,349.9112193000001,349.9112193000001,349.9112193000001,349.9112193000001,349.9112193000001,349.9112193000001,349.9112193000001,349.9112193000001,007,P004,2025_Jan_18_1429,ConditionRich,2021.2.3,59.943808674178285,
316.75,320.0,41,0.0,Stimuli/Blank.png,0,0.0,0.0,0,137,137,137,,,,,,,,,,,,,316.76142869999967,0.011428699999669334,5,3.2148037999977532,350.6618748000001,350.6618748000001,350.6618748000001,350.6618748000001,350.6618748000001,350.6618748000001,350.6618748000001,350.6618748000001,350.6618748000001,350.6618748000001,007,P004,2025_Jan_18_1429,ConditionRich,2021.2.3,59.943808674178285,
320.0,320.75,11,0.75,Stimuli/P004/sun_bawmjlzsuuivqjhi.jpg,0,0.0,0.0,0,138,138,138,,,,,,,,,,,,,320.0161784999982,0.016178499998204643,None,,353.93141449999894,353.93141449999894,353.93141449999894,353.93141449999894,353.93141449999894,353.93141449999894,353.93141449999894,353.93141449999894,353.93141449999894,353.93141449999894,007,P004,2025_Jan_18_1429,ConditionRich,2021.2.3,59.943808674178285,
320.75,324.0,41,0.0,Stimuli/Blank.png,1,2.25,3.0,0,139,139,139,,,,,,,,,,,,,320.7657164000011,0.015716400001110742,4,2.648490600000514,354.6654052999984,354.6654052999984,354.6654052999984,354.6654052999984,354.6654052999984,354.6654052999984,356.9006980000013,357.6513589999995,354.6654052999984,354.6654052999984,007,P004,2025_Jan_18_1429,ConditionRich,2021.2.3,59.943808674178285,
324.0,324.75,35,0.75,Stimuli/P004/things_satellite_dish_02s.jpg,0,0.0,0.0,0,140,140,140,,,,,,,,,,,,,324.0021889999989,0.002188999998907093,None,,357.9182627000009,357.9182627000009,357.9182627000009,357.9182627000009,357.9182627000009,357.9182627000009,357.9182627000009,357.9182627000009,357.9182627000009,357.9182627000009,007,P004,2025_Jan_18_1429,ConditionRich,2021.2.3,59.943808674178285,
324.75,328.0,41,0.0,Stimuli/Blank.png,0,0.0,0.0,0,141,141,141,,,,,,,,,,,,,324.7683146999989,0.018314699998882134,5,1.2077085999990231,358.66892519999965,358.66892519999965,358.66892519999965,358.66892519999965,358.66892519999965,358.66892519999965,358.66892519999965,358.66892519999965,358.66892519999965,358.66892519999965,007,P004,2025_Jan_18_1429,ConditionRich,2021.2.3,59.943808674178285,
328.0,328.75,31,0.75,Stimuli/P004/things_pea_02s.jpg,0,0.0,0.0,0,142,142,142,,,,,,,,,,,,,328.00703639999847,0.007036399998469278,None,,361.921794599999,361.921794599999,361.921794599999,361.921794599999,361.921794599999,361.921794599999,361.921794599999,361.921794599999,361.921794599999,361.921794599999,007,P004,2025_Jan_18_1429,ConditionRich,2021.2.3,59.943808674178285,
328.75,332.0,41,0.0,Stimuli/Blank.png,0,0.0,0.0,0,143,143,143,,,,,,,,,,,,,328.7717115000014,0.021711500001401873,5,1.2042512999978499,362.67244610000125,362.67244610000125,362.67244610000125,362.67244610000125,362.67244610000125,362.67244610000125,362.67244610000125,362.67244610000125,362.67244610000125,362.67244610000125,007,P004,2025_Jan_18_1429,ConditionRich,2021.2.3,59.943808674178285,
332.0,332.75,7,0.75,Stimuli/P004/sun_asgixjtedklbawgm.jpg,0,0.0,0.0,0,144,144,144,,,,,,,,,,,,,332.0078591999991,0.007859199999074917,None,,365.9253159,365.9253159,365.9253159,365.9253159,365.9253159,365.9253159,365.9253159,365.9253159,365.9253159,365.9253159,007,P004,2025_Jan_18_1429,ConditionRich,2021.2.3,59.943808674178285,
332.75,336.0,41,0.0,Stimuli/Blank.png,0,0.0,0.0,0,145,145,145,,,,,,,,,,,,,332.7762600999995,0.026260099999490194,5,3.2006858000022476,366.67597209999803,366.67597209999803,366.67597209999803,366.67597209999803,366.67597209999803,366.67597209999803,366.67597209999803,366.67597209999803,366.67597209999803,366.67597209999803,007,P004,2025_Jan_18_1429,ConditionRich,2021.2.3,59.943808674178285,
336.0,336.75,30,0.75,Stimuli/P004/things_music_box_02s.jpg,0,0.0,0.0,0,146,146,146,,,,,,,,,,,,,336.0112411000009,0.011241100000916049,None,,369.9121508999997,369.9121508999997,369.9121508999997,369.9121508999997,369.9121508999997,369.9121508999997,369.9121508999997,369.9121508999997,369.9121508999997,369.9121508999997,007,P004,2025_Jan_18_1429,ConditionRich,2021.2.3,59.943808674178285,
336.75,340.0,41,0.0,Stimuli/Blank.png,0,0.0,0.0,0,147,147,147,,,,,,,,,,,,,336.7620645999996,0.012064599999575876,5,3.213975399998162,370.662809999998,370.662809999998,370.662809999998,370.662809999998,370.662809999998,370.662809999998,370.662809999998,370.662809999998,370.662809999998,370.662809999998,007,P004,2025_Jan_18_1429,ConditionRich,2021.2.3,59.943808674178285,
340.0,340.75,2,0.75,Stimuli/P004/sun_afijjzyziczoqdhz.jpg,0,0.0,0.0,0,148,148,148,,,,,,,,,,,,,340.01548900000125,0.015489000001252862,None,,373.9156679999978,373.9156679999978,373.9156679999978,373.9156679999978,373.9156679999978,373.9156679999978,373.9156679999978,373.9156679999978,373.9156679999978,373.9156679999978,007,P004,2025_Jan_18_1429,ConditionRich,2021.2.3,59.943808674178285,
340.75,344.0,41,0.0,Stimuli/Blank.png,0,0.0,0.0,0,149,149,149,,,,,,,,,,,,,340.74917229999846,-0.0008277000015368685,5,1.2272273999988101,374.6496608999987,374.6496608999987,374.6496608999987,374.6496608999987,374.6496608999987,374.6496608999987,374.6496608999987,374.6496608999987,374.6496608999987,374.6496608999987,007,P004,2025_Jan_18_1429,ConditionRich,2021.2.3,59.943808674178285,
344.0,344.75,28,0.75,Stimuli/P004/things_man_02s.jpg,0,0.0,0.0,0,150,150,150,,,,,,,,,,,,,344.00202050000007,0.002020500000071479,None,,377.9025188000014,377.9025188000014,377.9025188000014,377.9025188000014,377.9025188000014,377.9025188000014,377.9025188000014,377.9025188000014,377.9025188000014,377.9025188000014,007,P004,2025_Jan_18_1429,ConditionRich,2021.2.3,59.943808674178285,
344.75,348.0,41,0.0,Stimuli/Blank.png,0,0.0,0.0,0,151,151,151,,,,,,,,,,,,,344.7529520999997,0.0029520999996748287,5,1.2234367999990354,378.65316809999786,378.65316809999786,378.65316809999786,378.65316809999786,378.65316809999786,378.65316809999786,378.65316809999786,378.65316809999786,378.65316809999786,378.65316809999786,007,P004,2025_Jan_18_1429,ConditionRich,2021.2.3,59.943808674178285,
348.0,348.75,33,0.75,Stimuli/P004/things_recorder_02s.jpg,0,0.0,0.0,0,152,152,152,,,,,,,,,,,,,348.00648640000145,0.0064864000014495105,None,,381.922730899998,381.922730899998,381.922730899998,381.922730899998,381.922730899998,381.922730899998,381.922730899998,381.922730899998,381.922730899998,381.922730899998,007,P004,2025_Jan_18_1429,ConditionRich,2021.2.3,59.943808674178285,
348.75,352.0,41,0.0,Stimuli/Blank.png,0,0.0,0.0,0,153,153,153,,,,,,,,,,,,,348.7725724999982,0.022572499998204876,5,3.2031738000005134,382.67339549999815,382.67339549999815,382.67339549999815,382.67339549999815,382.67339549999815,382.67339549999815,382.67339549999815,382.67339549999815,382.67339549999815,382.67339549999815,007,P004,2025_Jan_18_1429,ConditionRich,2021.2.3,59.943808674178285,
352.0,352.75,18,0.75,Stimuli/P004/sun_bplhnzkztpigweny.jpg,0,0.0,0.0,0,154,154,154,,,,,,,,,,,,,352.0108834999992,0.010883499999181367,None,,385.9262490000001,385.9262490000001,385.9262490000001,385.9262490000001,385.9262490000001,385.9262490000001,385.9262490000001,385.9262490000001,385.9262490000001,385.9262490000001,007,P004,2025_Jan_18_1429,ConditionRich,2021.2.3,59.943808674178285,
352.75,356.0,41,0.0,Stimuli/Blank.png,0,0.0,0.0,0,155,155,155,,,,,,,,,,,,,352.7759264999986,0.025926499998604413,5,3.199559100001352,386.67703099999926,386.67703099999926,386.67703099999926,386.67703099999926,386.67703099999926,386.67703099999926,386.67703099999926,386.67703099999926,386.67703099999926,386.67703099999926,007,P004,2025_Jan_18_1429,ConditionRich,2021.2.3,59.943808674178285,
356.0,356.75,12,0.75,Stimuli/P004/sun_bcboctumoxwpdefl.jpg,0,0.0,0.0,0,156,156,156,,,,,,,,,,,,,356.01217520000137,0.012175200001365738,None,,389.9131340999993,389.9131340999993,389.9131340999993,389.9131340999993,389.9131340999993,389.9131340999993,389.9131340999993,389.9131340999993,389.9131340999993,389.9131340999993,007,P004,2025_Jan_18_1429,ConditionRich,2021.2.3,59.943808674178285,
356.75,360.0,41,0.0,Stimuli/Blank.png,0,0.0,0.0,0,157,157,157,,,,,,,,,,,,,356.7631017999993,0.013101799999276409,5,1.2130364999975427,390.66374369999903,390.66374369999903,390.66374369999903,390.66374369999903,390.66374369999903,390.66374369999903,390.66374369999903,390.66374369999903,390.66374369999903,390.66374369999903,007,P004,2025_Jan_18_1429,ConditionRich,2021.2.3,59.943808674178285,
360.0,360.75,39,0.75,Stimuli/P004/things_toad_02s.jpg,0,0.0,0.0,0,158,158,158,,,,,,,,,,,,,359.99943540000095,-0.0005645999990520068,None,,393.89992189999975,393.89992189999975,393.89992189999975,393.89992189999975,393.89992189999975,393.89992189999975,393.89992189999975,393.89992189999975,393.89992189999975,393.89992189999975,007,P004,2025_Jan_18_1429,ConditionRich,2021.2.3,59.943808674178285,
360.75,364.0,41,0.0,Stimuli/Blank.png,0,0.0,0.0,0,159,159,159,,,,,,,,,,,,,360.7501201999985,0.0001201999984914437,5,1.2261216000006243,394.65058900000076,394.65058900000076,394.65058900000076,394.65058900000076,394.65058900000076,394.65058900000076,394.65058900000076,394.65058900000076,394.65058900000076,394.65058900000076,007,P004,2025_Jan_18_1429,ConditionRich,2021.2.3,59.943808674178285,
364.0,364.75,36,0.75,Stimuli/P004/things_sea_urchin_02s.jpg,0,0.0,0.0,0,160,160,160,,,,,,,,,,,,,364.00325650000013,0.0032565000001341105,None,,397.9034467999991,397.9034467999991,397.9034467999991,397.9034467999991,397.9034467999991,397.9034467999991,397.9034467999991,397.9034467999991,397.9034467999991,397.9034467999991,007,P004,2025_Jan_18_1429,ConditionRich,2021.2.3,59.943808674178285,
364.75,368.0,41,0.0,Stimuli/Blank.png,0,0.0,0.0,0,161,161,161,,,,,,,,,,,,,364.75316720000046,0.0031672000004618894,5,1.2223878000004333,398.65410669999983,398.65410669999983,398.65410669999983,398.65410669999983,398.65410669999983,398.65410669999983,398.65410669999983,398.65410669999983,398.65410669999983,398.65410669999983,007,P004,2025_Jan_18_1429,ConditionRich,2021.2.3,59.943808674178285,
368.0,368.75,17,0.75,Stimuli/P004/sun_bojovhhraxtgafcy.jpg,0,0.0,0.0,0,162,162,162,,,,,,,,,,,,,368.0065164000007,0.006516400000691647,None,,401.92367540000123,401.92367540000123,401.92367540000123,401.92367540000123,401.92367540000123,401.92367540000123,401.92367540000123,401.92367540000123,401.92367540000123,401.92367540000123,007,P004,2025_Jan_18_1429,ConditionRich,2021.2.3,59.943808674178285,
368.75,372.0,41,0.0,Stimuli/Blank.png,0,0.0,0.0,0,163,163,163,,,,,,,,,,,,,368.77386509999997,0.023865099999966333,5,3.2021789999998873,402.67429079999783,402.67429079999783,402.67429079999783,402.67429079999783,402.67429079999783,402.67429079999783,402.67429079999783,402.67429079999783,402.67429079999783,402.67429079999783,007,P004,2025_Jan_18_1429,ConditionRich,2021.2.3,59.943808674178285,
372.0,388.0,0,0.0,Stimuli/Blank.png,1,4.0,4.75,0,164,164,164,,,,,,,,,,,,,372.0099521999982,0.009952199998224387,5,13.966247000000294,405.91049439999915,405.91049439999915,405.91049439999915,405.91049439999915,405.91049439999915,405.91049439999915,409.8973365999991,410.64803839999877,405.91049439999915,405.91049439999915,007,P004,2025_Jan_18_1429,ConditionRich,2021.2.3,59.943808674178285,
