eventStartTime,eventEndTime,eventCond,imSize,imFile,responseEvent,fixRespStart,fixRespEnd,Events.thisRepN,Events.thisTrialN,Events.thisN,Events.thisIndex,Instructions.started,Instructions.stopped,participantReadyResponse.keys,participantReadyResponse.rt,participantReadyResponse.started,participantReadyResponse.stopped,startWaitforTrigger,triggerResponse.keys,triggerResponse.rt,triggerResponse.started,triggerResponse.stopped,globalTimer,actualStartTime,startTimingDiff,participantResponse.keys,participantResponse.rt,participantResponse.started,participantResponse.stopped,image.started,image.stopped,fixationOutside.started,fixationOutside.stopped,fixationResponse.started,fixationResponse.stopped,fixationInside.started,fixationInside.stopped,session,participant,date,expName,psychopyVersion,frameRate,
,,,,,,,,,,,,14.199995800001489,None,4,15.261914599999727,14.199995800001489,None,,,,,,,,,,,,,,,,,,,,,001,P004,2025_Jan_18_1331,ConditionRich,2021.2.3,59.9440961359471,
,,,,,,,,,,,,,,,,,,29.47433870000168,5,17.657412000000477,29.487460100001044,None,,,,,,,,,,,,,,,,001,P004,2025_Jan_18_1331,ConditionRich,2021.2.3,59.9440961359471,
0.0,4.0,0,0.0,Stimuli/Blank.png,0,0.0,0.0,0,0,0,0,,,,,,,,,,,,47.156305300002714,0.014987300000939285,0.014987300000939285,5,1.9585272000003897,47.18636090000291,None,47.18636090000291,None,47.18636090000291,None,47.18636090000291,47.18636090000291,47.18636090000291,None,001,P004,2025_Jan_18_1331,ConditionRich,2021.2.3,59.9440961359471,
4.0,4.75,27,0.75,Stimuli/P004/things_llama_02s.jpg,0,0.0,0.0,0,1,1,1,,,,,,,,,,,,,4.003484600001684,0.003484600001684157,None,,51.173470000001544,51.173470000001544,51.173470000001544,51.173470000001544,51.173470000001544,51.173470000001544,51.173470000001544,51.173470000001544,51.173470000001544,51.173470000001544,001,P004,2025_Jan_18_1331,ConditionRich,2021.2.3,59.9440961359471,
4.75,8.0,41,0.0,Stimuli/Blank.png,0,0.0,0.0,0,2,2,2,,,,,,,,,,,,,4.753945399999793,0.003945399999793153,5,1.22083229999771,51.92413950000264,51.92413950000264,51.92413950000264,51.92413950000264,51.92413950000264,51.92413950000264,51.92413950000264,51.92413950000264,51.92413950000264,51.92413950000264,001,P004,2025_Jan_18_1331,ConditionRich,2021.2.3,59.9440961359471,
8.0,8.75,5,0.75,Stimuli/P004/sun_amnnxdwfjbdfumns.jpg,0,0.0,0.0,0,3,3,3,,,,,,,,,,,,,8.00590210000155,0.005902100001549115,None,,55.17675919999965,55.17675919999965,55.17675919999965,55.17675919999965,55.17675919999965,55.17675919999965,55.17675919999965,55.17675919999965,55.17675919999965,55.17675919999965,001,P004,2025_Jan_18_1331,ConditionRich,2021.2.3,59.9440961359471,
8.75,12.0,41,0.0,Stimuli/Blank.png,1,2.25,3.0,0,4,4,4,,,,,,,,,,,,,8.75892709999971,0.008927099999709753,5,3.2007596000003105,55.94407330000104,55.94407330000104,55.94407330000104,55.94407330000104,55.94407330000104,55.94407330000104,58.1794043000009,58.93008780000309,55.94407330000104,55.94407330000104,001,P004,2025_Jan_18_1331,ConditionRich,2021.2.3,59.9440961359471,
12.0,12.75,25,0.75,Stimuli/P004/things_girl_02s.jpg,0,0.0,0.0,0,5,5,5,,,,,,,,,,,,,12.028802600001654,0.028802600001654355,None,,59.213619900001504,59.213619900001504,59.213619900001504,59.213619900001504,59.213619900001504,59.213619900001504,59.213619900001504,59.213619900001504,59.213619900001504,59.213619900001504,001,P004,2025_Jan_18_1331,ConditionRich,2021.2.3,59.9440961359471,
12.75,16.0,41,0.0,Stimuli/Blank.png,0,0.0,0.0,0,6,6,6,,,,,,,,,,,,,12.777479200001835,0.027479200001835125,5,3.19741310000245,59.94759300000078,59.94759300000078,59.94759300000078,59.94759300000078,59.94759300000078,59.94759300000078,59.94759300000078,59.94759300000078,59.94759300000078,59.94759300000078,001,P004,2025_Jan_18_1331,ConditionRich,2021.2.3,59.9440961359471,
16.0,16.75,14,0.75,Stimuli/P004/sun_bhhtrmwvoadbfucw.jpg,1,0.0,0.75,0,7,7,7,,,,,,,,,,,,,16.013224000002083,0.013224000002082903,4,0.4112380000005942,63.183773400000064,63.183773400000064,63.183773400000064,63.183773400000064,63.183773400000064,63.183773400000064,63.183773400000064,63.91774319999968,63.183773400000064,63.183773400000064,001,P004,2025_Jan_18_1331,ConditionRich,2021.2.3,59.9440961359471,
16.75,20.0,41,0.0,Stimuli/Blank.png,0,0.0,0.0,0,8,8,8,,,,,,,,,,,,,16.764241100001527,0.01424110000152723,5,1.210452700001042,63.9344293000031,63.9344293000031,63.9344293000031,63.9344293000031,63.9344293000031,63.9344293000031,63.9344293000031,63.9344293000031,63.9344293000031,63.9344293000031,001,P004,2025_Jan_18_1331,ConditionRich,2021.2.3,59.9440961359471,
20.0,20.75,13,0.75,Stimuli/P004/sun_bhbiqbqmwrowrqpd.jpg,0,0.0,0.0,0,9,9,9,,,,,,,,,,,,,20.00063620000219,0.0006362000021908898,None,,67.18728810000175,67.18728810000175,67.18728810000175,67.18728810000175,67.18728810000175,67.18728810000175,67.18728810000175,67.18728810000175,67.18728810000175,67.18728810000175,001,P004,2025_Jan_18_1331,ConditionRich,2021.2.3,59.9440961359471,
20.75,24.0,41,0.0,Stimuli/Blank.png,1,0.25,1.0,0,10,10,10,,,,,,,,,,,,,20.767989200001466,0.017989200001466088,5,1.2071305999998003,67.93795760000285,67.93795760000285,67.93795760000285,67.93795760000285,67.93795760000285,67.93795760000285,68.17153390000021,68.92215630000283,67.93795760000285,67.93795760000285,001,P004,2025_Jan_18_1331,ConditionRich,2021.2.3,59.9440961359471,
24.0,24.75,23,0.75,Stimuli/P004/things_butterfly_02s.jpg,0,0.0,0.0,0,11,11,11,,,,,,,,,,,,,24.00399760000073,0.003997600000730017,None,,71.17413430000306,71.17413430000306,71.17413430000306,71.17413430000306,71.17413430000306,71.17413430000306,71.17413430000306,71.17413430000306,71.17413430000306,71.17413430000306,001,P004,2025_Jan_18_1331,ConditionRich,2021.2.3,59.9440961359471,
24.75,28.0,41,0.0,Stimuli/Blank.png,0,0.0,0.0,0,12,12,12,,,,,,,,,,,,,24.754570000000967,0.004570000000967411,5,3.2200852999994822,71.92479930000263,71.92479930000263,71.92479930000263,71.92479930000263,71.92479930000263,71.92479930000263,71.92479930000263,71.92479930000263,71.92479930000263,71.92479930000263,001,P004,2025_Jan_18_1331,ConditionRich,2021.2.3,59.9440961359471,
28.0,28.75,20,0.75,Stimuli/P004/sun_bwytihadgigwkyht.jpg,0,0.0,0.0,0,13,13,13,,,,,,,,,,,,,28.006882900001074,0.006882900001073722,None,,75.1776568000023,75.1776568000023,75.1776568000023,75.1776568000023,75.1776568000023,75.1776568000023,75.1776568000023,75.1776568000023,75.1776568000023,75.1776568000023,001,P004,2025_Jan_18_1331,ConditionRich,2021.2.3,59.9440961359471,
28.75,32.0,41,0.0,Stimuli/Blank.png,0,0.0,0.0,0,14,14,14,,,,,,,,,,,,,28.75787649999984,0.007876499999838416,5,3.2165146000006644,75.92831149999984,75.92831149999984,75.92831149999984,75.92831149999984,75.92831149999984,75.92831149999984,75.92831149999984,75.92831149999984,75.92831149999984,75.92831149999984,001,P004,2025_Jan_18_1331,ConditionRich,2021.2.3,59.9440961359471,
32.0,32.75,39,0.75,Stimuli/P004/things_toad_02s.jpg,0,0.0,0.0,0,15,15,15,,,,,,,,,,,,,32.010385000001406,0.010385000001406297,None,,79.18119360000128,79.18119360000128,79.18119360000128,79.18119360000128,79.18119360000128,79.18119360000128,79.18119360000128,79.18119360000128,79.18119360000128,79.18119360000128,001,P004,2025_Jan_18_1331,ConditionRich,2021.2.3,59.9440961359471,
32.75,36.0,41,0.0,Stimuli/Blank.png,0,0.0,0.0,0,16,16,16,,,,,,,,,,,,,32.761506000002555,0.011506000002555083,5,3.2130556000010984,79.93187630000102,79.93187630000102,79.93187630000102,79.93187630000102,79.93187630000102,79.93187630000102,79.93187630000102,79.93187630000102,79.93187630000102,79.93187630000102,001,P004,2025_Jan_18_1331,ConditionRich,2021.2.3,59.9440961359471,
36.0,36.75,8,0.75,Stimuli/P004/sun_asxkyzleyfgbqfrs.jpg,0,0.0,0.0,0,17,17,17,,,,,,,,,,,,,36.014217500000086,0.014217500000086147,None,,83.18469670000195,83.18469670000195,83.18469670000195,83.18469670000195,83.18469670000195,83.18469670000195,83.18469670000195,83.18469670000195,83.18469670000195,83.18469670000195,001,P004,2025_Jan_18_1331,ConditionRich,2021.2.3,59.9440961359471,
36.75,40.0,41,0.0,Stimuli/Blank.png,0,0.0,0.0,0,18,18,18,,,,,,,,,,,,,36.76531460000115,0.015314600001147483,5,1.2094594000009238,83.93535580000025,83.93535580000025,83.93535580000025,83.93535580000025,83.93535580000025,83.93535580000025,83.93535580000025,83.93535580000025,83.93535580000025,83.93535580000025,001,P004,2025_Jan_18_1331,ConditionRich,2021.2.3,59.9440961359471,
40.0,40.75,2,0.75,Stimuli/P004/sun_afijjzyziczoqdhz.jpg,0,0.0,0.0,0,19,19,19,,,,,,,,,,,,,40.001437500002794,0.0014375000027939677,None,,87.17154140000275,87.17154140000275,87.17154140000275,87.17154140000275,87.17154140000275,87.17154140000275,87.17154140000275,87.17154140000275,87.17154140000275,87.17154140000275,001,P004,2025_Jan_18_1331,ConditionRich,2021.2.3,59.9440961359471,
40.75,44.0,41,0.0,Stimuli/Blank.png,0,0.0,0.0,0,20,20,20,,,,,,,,,,,,,40.75378610000189,0.003786100001889281,5,3.205905699996947,87.9388738000016,87.9388738000016,87.9388738000016,87.9388738000016,87.9388738000016,87.9388738000016,87.9388738000016,87.9388738000016,87.9388738000016,87.9388738000016,001,P004,2025_Jan_18_1331,ConditionRich,2021.2.3,59.9440961359471,
44.0,44.75,9,0.75,Stimuli/P004/sun_auqtrqkaobyprnjy.jpg,0,0.0,0.0,0,21,21,21,,,,,,,,,,,,,44.023228500002006,0.023228500002005603,4,0.5584972000033304,91.20842489999995,91.20842489999995,91.20842489999995,91.20842489999995,91.20842489999995,91.20842489999995,91.20842489999995,91.20842489999995,91.20842489999995,91.20842489999995,001,P004,2025_Jan_18_1331,ConditionRich,2021.2.3,59.9440961359471,
44.75,48.0,41,0.0,Stimuli/Blank.png,0,0.0,0.0,0,22,22,22,,,,,,,,,,,,,44.772490900002595,0.02249090000259457,5,3.202487499998824,91.94240870000067,91.94240870000067,91.94240870000067,91.94240870000067,91.94240870000067,91.94240870000067,91.94240870000067,91.94240870000067,91.94240870000067,91.94240870000067,001,P004,2025_Jan_18_1331,ConditionRich,2021.2.3,59.9440961359471,
48.0,48.75,3,0.75,Stimuli/P004/sun_afqjzrocqhabifao.jpg,0,0.0,0.0,0,23,23,23,,,,,,,,,,,,,48.008400900002016,0.008400900002015987,None,,95.17858479999995,95.17858479999995,95.17858479999995,95.17858479999995,95.17858479999995,95.17858479999995,95.17858479999995,95.17858479999995,95.17858479999995,95.17858479999995,001,P004,2025_Jan_18_1331,ConditionRich,2021.2.3,59.9440961359471,
48.75,52.0,41,0.0,Stimuli/Blank.png,0,0.0,0.0,0,24,24,24,,,,,,,,,,,,,48.75833070000226,0.008330700002261437,5,3.2154861999988498,95.92924409999978,95.92924409999978,95.92924409999978,95.92924409999978,95.92924409999978,95.92924409999978,95.92924409999978,95.92924409999978,95.92924409999978,95.92924409999978,001,P004,2025_Jan_18_1331,ConditionRich,2021.2.3,59.9440961359471,
52.0,52.75,19,0.75,Stimuli/P004/sun_bucebxfexknakpma.jpg,0,0.0,0.0,0,25,25,25,,,,,,,,,,,,,52.011707900001056,0.01170790000105626,None,,99.18209910000223,99.18209910000223,99.18209910000223,99.18209910000223,99.18209910000223,99.18209910000223,99.18209910000223,99.18209910000223,99.18209910000223,99.18209910000223,001,P004,2025_Jan_18_1331,ConditionRich,2021.2.3,59.9440961359471,
52.75,56.0,41,0.0,Stimuli/Blank.png,0,0.0,0.0,0,26,26,26,,,,,,,,,,,,,52.76328400000057,0.013284000000567175,5,1.2119254999997793,99.9327704999996,99.9327704999996,99.9327704999996,99.9327704999996,99.9327704999996,99.9327704999996,99.9327704999996,99.9327704999996,99.9327704999996,99.9327704999996,001,P004,2025_Jan_18_1331,ConditionRich,2021.2.3,59.9440961359471,
56.0,56.75,22,0.75,Stimuli/P004/things_boy_02s.jpg,1,0.0,0.75,0,27,27,27,,,,,,,,,,,,,55.9987899000007,-0.0012100999992981087,None,,103.18562310000198,103.18562310000198,103.18562310000198,103.18562310000198,103.18562310000198,103.18562310000198,103.18562310000198,103.90292960000079,103.18562310000198,103.18562310000198,001,P004,2025_Jan_18_1331,ConditionRich,2021.2.3,59.9440961359471,
56.75,60.0,41,0.0,Stimuli/Blank.png,0,0.0,0.0,0,28,28,28,,,,,,,,,,,,,56.76842190000025,0.01842190000024857,5,3.191975999998249,103.95299739999973,103.95299739999973,103.95299739999973,103.95299739999973,103.95299739999973,103.95299739999973,103.95299739999973,103.95299739999973,103.95299739999973,103.95299739999973,001,P004,2025_Jan_18_1331,ConditionRich,2021.2.3,59.9440961359471,
60.0,60.75,21,0.75,Stimuli/P004/things_baby_02s.jpg,0,0.0,0.0,0,29,29,29,,,,,,,,,,,,,60.01915379999991,0.019153799999912735,None,,107.20585190000202,107.20585190000202,107.20585190000202,107.20585190000202,107.20585190000202,107.20585190000202,107.20585190000202,107.20585190000202,107.20585190000202,107.20585190000202,001,P004,2025_Jan_18_1331,ConditionRich,2021.2.3,59.9440961359471,
60.75,64.0,41,0.0,Stimuli/Blank.png,0,0.0,0.0,0,30,30,30,,,,,,,,,,,,,60.76919540000017,0.019195400000171503,5,3.2049418999995396,107.93980600000214,107.93980600000214,107.93980600000214,107.93980600000214,107.93980600000214,107.93980600000214,107.93980600000214,107.93980600000214,107.93980600000214,107.93980600000214,001,P004,2025_Jan_18_1331,ConditionRich,2021.2.3,59.9440961359471,
64.0,64.75,26,0.75,Stimuli/P004/things_ham_02s.jpg,0,0.0,0.0,0,31,31,31,,,,,,,,,,,,,64.0053465000019,0.005346500001905952,None,,111.19268340000053,111.19268340000053,111.19268340000053,111.19268340000053,111.19268340000053,111.19268340000053,111.19268340000053,111.19268340000053,111.19268340000053,111.19268340000053,001,P004,2025_Jan_18_1331,ConditionRich,2021.2.3,59.9440961359471,
64.75,68.0,41,0.0,Stimuli/Blank.png,0,0.0,0.0,0,32,32,32,,,,,,,,,,,,,64.77376420000292,0.02376420000291546,5,3.2014366000003065,111.94333580000239,111.94333580000239,111.94333580000239,111.94333580000239,111.94333580000239,111.94333580000239,111.94333580000239,111.94333580000239,111.94333580000239,111.94333580000239,001,P004,2025_Jan_18_1331,ConditionRich,2021.2.3,59.9440961359471,
68.0,68.75,11,0.75,Stimuli/P004/sun_bawmjlzsuuivqjhi.jpg,0,0.0,0.0,0,33,33,33,,,,,,,,,,,,,68.00904330000049,0.009043300000485033,None,,115.19623649999994,115.19623649999994,115.19623649999994,115.19623649999994,115.19623649999994,115.19623649999994,115.19623649999994,115.19623649999994,115.19623649999994,115.19623649999994,001,P004,2025_Jan_18_1331,ConditionRich,2021.2.3,59.9440961359471,
68.75,72.0,41,0.0,Stimuli/Blank.png,0,0.0,0.0,0,34,34,34,,,,,,,,,,,,,68.7781302000003,0.028130200000305194,5,3.1821182999992743,115.96355350000158,115.96355350000158,115.96355350000158,115.96355350000158,115.96355350000158,115.96355350000158,115.96355350000158,115.96355350000158,115.96355350000158,115.96355350000158,001,P004,2025_Jan_18_1331,ConditionRich,2021.2.3,59.9440961359471,
72.0,72.75,34,0.75,Stimuli/P004/things_roll_02s.jpg,0,0.0,0.0,0,35,35,35,,,,,,,,,,,,,72.02932910000163,0.02932910000163247,None,,119.19973570000002,119.19973570000002,119.19973570000002,119.19973570000002,119.19973570000002,119.19973570000002,119.19973570000002,119.19973570000002,119.19973570000002,119.19973570000002,001,P004,2025_Jan_18_1331,ConditionRich,2021.2.3,59.9440961359471,
72.75,76.0,41,0.0,Stimuli/Blank.png,0,0.0,0.0,0,36,36,36,,,,,,,,,,,,,72.76340270000219,0.013402700002188794,5,1.2119792999983474,119.93369720000192,119.93369720000192,119.93369720000192,119.93369720000192,119.93369720000192,119.93369720000192,119.93369720000192,119.93369720000192,119.93369720000192,119.93369720000192,001,P004,2025_Jan_18_1331,ConditionRich,2021.2.3,59.9440961359471,
76.0,76.75,37,0.75,Stimuli/P004/things_ski_lift_02s.jpg,0,0.0,0.0,0,37,37,37,,,,,,,,,,,,,75.99926620000042,-0.0007337999995797873,None,,123.18657230000099,123.18657230000099,123.18657230000099,123.18657230000099,123.18657230000099,123.18657230000099,123.18657230000099,123.18657230000099,123.18657230000099,123.18657230000099,001,P004,2025_Jan_18_1331,ConditionRich,2021.2.3,59.9440961359471,
76.75,80.0,41,0.0,Stimuli/Blank.png,0,0.0,0.0,0,38,38,38,,,,,,,,,,,,,76.76666950000072,0.016669500000716653,5,1.208444600000803,123.93722290000005,123.93722290000005,123.93722290000005,123.93722290000005,123.93722290000005,123.93722290000005,123.93722290000005,123.93722290000005,123.93722290000005,123.93722290000005,001,P004,2025_Jan_18_1331,ConditionRich,2021.2.3,59.9440961359471,
80.0,80.75,4,0.75,Stimuli/P004/sun_albtqdieqkajejrg.jpg,0,0.0,0.0,0,39,39,39,,,,,,,,,,,,,80.00316620000012,0.0031662000001233537,None,,127.20676110000204,127.20676110000204,127.20676110000204,127.20676110000204,127.20676110000204,127.20676110000204,127.20676110000204,127.20676110000204,127.20676110000204,127.20676110000204,001,P004,2025_Jan_18_1331,ConditionRich,2021.2.3,59.9440961359471,
80.75,84.0,41,0.0,Stimuli/Blank.png,0,0.0,0.0,0,40,40,40,,,,,,,,,,,,,80.78727700000309,0.03727700000308687,5,1.1883419000005233,127.95742880000034,127.95742880000034,127.95742880000034,127.95742880000034,127.95742880000034,127.95742880000034,127.95742880000034,127.95742880000034,127.95742880000034,127.95742880000034,001,P004,2025_Jan_18_1331,ConditionRich,2021.2.3,59.9440961359471,
84.0,100.0,0,0.0,Stimuli/Blank.png,1,12.0,12.75,0,41,41,41,,,,,,,,,,,,,84.00676510000267,0.006765100002667168,5,13.968939399997907,131.1769174000001,131.1769174000001,131.1769174000001,131.1769174000001,131.1769174000001,131.1769174000001,143.15412339999966,143.90481740000178,131.1769174000001,131.1769174000001,001,P004,2025_Jan_18_1331,ConditionRich,2021.2.3,59.9440961359471,
100.0,100.75,36,0.75,Stimuli/P004/things_sea_urchin_02s.jpg,0,0.0,0.0,0,42,42,42,,,,,,,,,,,,,100.0041575000032,0.0041575000032025855,None,,147.19100430000253,147.19100430000253,147.19100430000253,147.19100430000253,147.19100430000253,147.19100430000253,147.19100430000253,147.19100430000253,147.19100430000253,147.19100430000253,001,P004,2025_Jan_18_1331,ConditionRich,2021.2.3,59.9440961359471,
100.75,104.0,41,0.0,Stimuli/Blank.png,0,0.0,0.0,0,43,43,43,,,,,,,,,,,,,100.77319650000209,0.023196500002086395,5,3.1872357000029297,147.95834950000062,147.95834950000062,147.95834950000062,147.95834950000062,147.95834950000062,147.95834950000062,147.95834950000062,147.95834950000062,147.95834950000062,147.95834950000062,001,P004,2025_Jan_18_1331,ConditionRich,2021.2.3,59.9440961359471,
104.0,104.75,18,0.75,Stimuli/P004/sun_bplhnzkztpigweny.jpg,0,0.0,0.0,0,44,44,44,,,,,,,,,,,,,104.02426380000179,0.024263800001790514,None,,151.21120370000062,151.21120370000062,151.21120370000062,151.21120370000062,151.21120370000062,151.21120370000062,151.21120370000062,151.21120370000062,151.21120370000062,151.21120370000062,001,P004,2025_Jan_18_1331,ConditionRich,2021.2.3,59.9440961359471,
104.75,108.0,41,0.0,Stimuli/Blank.png,0,0.0,0.0,0,45,45,45,,,,,,,,,,,,,104.77462360000209,0.024623600002087187,5,3.2003222000021196,151.94521130000066,151.94521130000066,151.94521130000066,151.94521130000066,151.94521130000066,151.94521130000066,151.94521130000066,151.94521130000066,151.94521130000066,151.94521130000066,001,P004,2025_Jan_18_1331,ConditionRich,2021.2.3,59.9440961359471,
108.0,108.75,7,0.75,Stimuli/P004/sun_asgixjtedklbawgm.jpg,0,0.0,0.0,0,46,46,46,,,,,,,,,,,,,108.01041600000099,0.010416000000986969,None,,155.19805330000236,155.19805330000236,155.19805330000236,155.19805330000236,155.19805330000236,155.19805330000236,155.19805330000236,155.19805330000236,155.19805330000236,155.19805330000236,001,P004,2025_Jan_18_1331,ConditionRich,2021.2.3,59.9440961359471,
108.75,112.0,41,0.0,Stimuli/Blank.png,1,1.25,2.0,0,47,47,47,,,,,,,,,,,,,108.778985500001,0.02898550000099931,5,3.196962199999689,155.9487138000004,155.9487138000004,155.9487138000004,155.9487138000004,155.9487138000004,155.9487138000004,157.18313350000244,157.93378460000167,155.9487138000004,155.9487138000004,001,P004,2025_Jan_18_1331,ConditionRich,2021.2.3,59.9440961359471,
112.0,112.75,24,0.75,Stimuli/P004/things_dumpling_02s.jpg,0,0.0,0.0,0,48,48,48,,,,,,,,,,,,,112.01481170000261,0.01481170000261045,None,,159.2015898000027,159.2015898000027,159.2015898000027,159.2015898000027,159.2015898000027,159.2015898000027,159.2015898000027,159.2015898000027,159.2015898000027,159.2015898000027,001,P004,2025_Jan_18_1331,ConditionRich,2021.2.3,59.9440961359471,
112.75,116.0,41,0.0,Stimuli/Blank.png,0,0.0,0.0,0,49,49,49,,,,,,,,,,,,,112.78224760000012,0.03224760000011884,5,1.19330710000213,159.95224750000125,159.95224750000125,159.95224750000125,159.95224750000125,159.95224750000125,159.95224750000125,159.95224750000125,159.95224750000125,159.95224750000125,159.95224750000125,001,P004,2025_Jan_18_1331,ConditionRich,2021.2.3,59.9440961359471,
116.0,116.75,30,0.75,Stimuli/P004/things_music_box_02s.jpg,0,0.0,0.0,0,50,50,50,,,,,,,,,,,,,116.0010555000008,0.0010555000008025672,None,,163.18841780000002,163.18841780000002,163.18841780000002,163.18841780000002,163.18841780000002,163.18841780000002,163.18841780000002,163.18841780000002,163.18841780000002,163.18841780000002,001,P004,2025_Jan_18_1331,ConditionRich,2021.2.3,59.9440961359471,
116.75,120.0,41,0.0,Stimuli/Blank.png,0,0.0,0.0,0,51,51,51,,,,,,,,,,,,,116.76866710000104,0.018667100001039216,5,1.206441000002087,163.9390775000029,163.9390775000029,163.9390775000029,163.9390775000029,163.9390775000029,163.9390775000029,163.9390775000029,163.9390775000029,163.9390775000029,163.9390775000029,001,P004,2025_Jan_18_1331,ConditionRich,2021.2.3,59.9440961359471,
120.0,120.75,16,0.75,Stimuli/P004/sun_bjuoemgleyaogrmw.jpg,0,0.0,0.0,0,52,52,52,,,,,,,,,,,,,120.00436629999967,0.004366299999674084,None,,167.17525800000294,167.17525800000294,167.17525800000294,167.17525800000294,167.17525800000294,167.17525800000294,167.17525800000294,167.17525800000294,167.17525800000294,167.17525800000294,001,P004,2025_Jan_18_1331,ConditionRich,2021.2.3,59.9440961359471,
120.75,124.0,41,0.0,Stimuli/Blank.png,1,1.25,2.0,0,53,53,53,,,,,,,,,,,,,120.75801240000146,0.008012400001462083,5,3.2028121999974246,167.94261530000222,167.94261530000222,167.94261530000222,167.94261530000222,167.94261530000222,167.94261530000222,169.17701060000036,169.92768760000035,167.94261530000222,167.94261530000222,001,P004,2025_Jan_18_1331,ConditionRich,2021.2.3,59.9440961359471,
124.0,124.75,38,0.75,Stimuli/P004/things_slug_02s.jpg,0,0.0,0.0,0,54,54,54,,,,,,,,,,,,,124.02523620000284,0.025236200002836995,None,,171.21214090000285,171.21214090000285,171.21214090000285,171.21214090000285,171.21214090000285,171.21214090000285,171.21214090000285,171.21214090000285,171.21214090000285,171.21214090000285,001,P004,2025_Jan_18_1331,ConditionRich,2021.2.3,59.9440961359471,
124.75,128.0,41,0.0,Stimuli/Blank.png,0,0.0,0.0,0,55,55,55,,,,,,,,,,,,,124.77528320000056,0.02528320000055828,5,3.199486400000751,171.94612190000043,171.94612190000043,171.94612190000043,171.94612190000043,171.94612190000043,171.94612190000043,171.94612190000043,171.94612190000043,171.94612190000043,171.94612190000043,001,P004,2025_Jan_18_1331,ConditionRich,2021.2.3,59.9440961359471,
128.0,128.75,28,0.75,Stimuli/P004/things_man_02s.jpg,1,0.0,0.75,0,56,56,56,,,,,,,,,,,,,128.01174250000258,0.011742500002583256,4,0.4924253999997745,175.19900840000264,175.19900840000264,175.19900840000264,175.19900840000264,175.19900840000264,175.19900840000264,175.19900840000264,175.93296940000073,175.19900840000264,175.19900840000264,001,P004,2025_Jan_18_1331,ConditionRich,2021.2.3,59.9440961359471,
128.75,132.0,41,0.0,Stimuli/Blank.png,0,0.0,0.0,0,57,57,57,,,,,,,,,,,,,128.77888760000133,0.028887600001326064,5,3.195751699997345,175.94964480000272,175.94964480000272,175.94964480000272,175.94964480000272,175.94964480000272,175.94964480000272,175.94964480000272,175.94964480000272,175.94964480000272,175.94964480000272,001,P004,2025_Jan_18_1331,ConditionRich,2021.2.3,59.9440961359471,
132.0,132.75,15,0.75,Stimuli/P004/sun_bjhtdevvocmwtavk.jpg,0,0.0,0.0,0,58,58,58,,,,,,,,,,,,,132.0151033000002,0.015103300000191666,None,,179.20252600000094,179.20252600000094,179.20252600000094,179.20252600000094,179.20252600000094,179.20252600000094,179.20252600000094,179.20252600000094,179.20252600000094,179.20252600000094,001,P004,2025_Jan_18_1331,ConditionRich,2021.2.3,59.9440961359471,
132.75,136.0,41,0.0,Stimuli/Blank.png,0,0.0,0.0,0,59,59,59,,,,,,,,,,,,,132.7661861000015,0.01618610000150511,5,1.209229399999458,179.93648410000242,179.93648410000242,179.93648410000242,179.93648410000242,179.93648410000242,179.93648410000242,179.93648410000242,179.93648410000242,179.93648410000242,179.93648410000242,001,P004,2025_Jan_18_1331,ConditionRich,2021.2.3,59.9440961359471,
136.0,136.75,31,0.75,Stimuli/P004/things_pea_02s.jpg,0,0.0,0.0,0,60,60,60,,,,,,,,,,,,,136.00310460000037,0.003104600000369828,None,,183.1893471000003,183.1893471000003,183.1893471000003,183.1893471000003,183.1893471000003,183.1893471000003,183.1893471000003,183.1893471000003,183.1893471000003,183.1893471000003,001,P004,2025_Jan_18_1331,ConditionRich,2021.2.3,59.9440961359471,
136.75,140.0,41,0.0,Stimuli/Blank.png,0,0.0,0.0,0,61,61,61,,,,,,,,,,,,,136.76926170000297,0.019261700002971338,5,1.2055709000014758,183.94003789999988,183.94003789999988,183.94003789999988,183.94003789999988,183.94003789999988,183.94003789999988,183.94003789999988,183.94003789999988,183.94003789999988,183.94003789999988,001,P004,2025_Jan_18_1331,ConditionRich,2021.2.3,59.9440961359471,
140.0,140.75,33,0.75,Stimuli/P004/things_recorder_02s.jpg,0,0.0,0.0,0,62,62,62,,,,,,,,,,,,,140.0057846000018,0.005784600001788931,None,,187.17618910000238,187.17618910000238,187.17618910000238,187.17618910000238,187.17618910000238,187.17618910000238,187.17618910000238,187.17618910000238,187.17618910000238,187.17618910000238,001,P004,2025_Jan_18_1331,ConditionRich,2021.2.3,59.9440961359471,
140.75,144.0,41,0.0,Stimuli/Blank.png,0,0.0,0.0,0,63,63,63,,,,,,,,,,,,,140.75906550000218,0.00906550000217976,5,3.201921299998503,187.94353270000283,187.94353270000283,187.94353270000283,187.94353270000283,187.94353270000283,187.94353270000283,187.94353270000283,187.94353270000283,187.94353270000283,187.94353270000283,001,P004,2025_Jan_18_1331,ConditionRich,2021.2.3,59.9440961359471,
144.0,144.75,10,0.75,Stimuli/P004/sun_azzneunxibjvypza.jpg,0,0.0,0.0,0,64,64,64,,,,,,,,,,,,,144.02785340000264,0.027853400002641138,None,,191.21312170000238,191.21312170000238,191.21312170000238,191.21312170000238,191.21312170000238,191.21312170000238,191.21312170000238,191.21312170000238,191.21312170000238,191.21312170000238,001,P004,2025_Jan_18_1331,ConditionRich,2021.2.3,59.9440961359471,
144.75,148.0,41,0.0,Stimuli/Blank.png,0,0.0,0.0,0,65,65,65,,,,,,,,,,,,,144.7773644000008,0.0273644000008062,5,3.198494500000379,191.94705489999978,191.94705489999978,191.94705489999978,191.94705489999978,191.94705489999978,191.94705489999978,191.94705489999978,191.94705489999978,191.94705489999978,191.94705489999978,001,P004,2025_Jan_18_1331,ConditionRich,2021.2.3,59.9440961359471,
148.0,148.75,35,0.75,Stimuli/P004/things_satellite_dish_02s.jpg,0,0.0,0.0,0,66,66,66,,,,,,,,,,,,,148.0129932000018,0.012993200001801597,None,,195.19993350000004,195.19993350000004,195.19993350000004,195.19993350000004,195.19993350000004,195.19993350000004,195.19993350000004,195.19993350000004,195.19993350000004,195.19993350000004,001,P004,2025_Jan_18_1331,ConditionRich,2021.2.3,59.9440961359471,
148.75,152.0,41,0.0,Stimuli/Blank.png,0,0.0,0.0,0,67,67,67,,,,,,,,,,,,,148.77995550000196,0.0299555000019609,5,1.1949560000030033,195.95058450000215,195.95058450000215,195.95058450000215,195.95058450000215,195.95058450000215,195.95058450000215,195.95058450000215,195.95058450000215,195.95058450000215,195.95058450000215,001,P004,2025_Jan_18_1331,ConditionRich,2021.2.3,59.9440961359471,
152.0,152.75,40,0.75,Stimuli/P004/things_woman_02s.jpg,0,0.0,0.0,0,68,68,68,,,,,,,,,,,,,152.00009610000052,9.610000051907264e-05,None,,199.18684530000246,199.18684530000246,199.18684530000246,199.18684530000246,199.18684530000246,199.18684530000246,199.18684530000246,199.18684530000246,199.18684530000246,199.18684530000246,001,P004,2025_Jan_18_1331,ConditionRich,2021.2.3,59.9440961359471,
152.75,156.0,41,0.0,Stimuli/Blank.png,0,0.0,0.0,0,69,69,69,,,,,,,,,,,,,152.76743980000174,0.01743980000173906,5,1.207891500002006,199.93741480000244,199.93741480000244,199.93741480000244,199.93741480000244,199.93741480000244,199.93741480000244,199.93741480000244,199.93741480000244,199.93741480000244,199.93741480000244,001,P004,2025_Jan_18_1331,ConditionRich,2021.2.3,59.9440961359471,
156.0,156.75,29,0.75,Stimuli/P004/things_mat_02s.jpg,0,0.0,0.0,0,70,70,70,,,,,,,,,,,,,156.00263880000057,0.0026388000005681533,None,,203.19030420000126,203.19030420000126,203.19030420000126,203.19030420000126,203.19030420000126,203.19030420000126,203.19030420000126,203.19030420000126,203.19030420000126,203.19030420000126,001,P004,2025_Jan_18_1331,ConditionRich,2021.2.3,59.9440961359471,
156.75,160.0,41,0.0,Stimuli/Blank.png,0,0.0,0.0,0,71,71,71,,,,,,,,,,,,,156.7727283000022,0.02272830000219983,5,3.187712000002648,203.95763740000257,203.95763740000257,203.95763740000257,203.95763740000257,203.95763740000257,203.95763740000257,203.95763740000257,203.95763740000257,203.95763740000257,203.95763740000257,001,P004,2025_Jan_18_1331,ConditionRich,2021.2.3,59.9440961359471,
160.0,160.75,1,0.75,Stimuli/P004/sun_adgmtzznutwlescq.jpg,0,0.0,0.0,0,72,72,72,,,,,,,,,,,,,160.0236791999996,0.02367919999960577,None,,207.22717730000295,207.22717730000295,207.22717730000295,207.22717730000295,207.22717730000295,207.22717730000295,207.22717730000295,207.22717730000295,207.22717730000295,207.22717730000295,001,P004,2025_Jan_18_1331,ConditionRich,2021.2.3,59.9440961359471,
160.75,164.0,41,0.0,Stimuli/Blank.png,0,0.0,0.0,0,73,73,73,,,,,,,,,,,,,160.79283900000155,0.04283900000154972,5,3.167457999999897,207.97787280000193,207.97787280000193,207.97787280000193,207.97787280000193,207.97787280000193,207.97787280000193,207.97787280000193,207.97787280000193,207.97787280000193,207.97787280000193,001,P004,2025_Jan_18_1331,ConditionRich,2021.2.3,59.9440961359471,
164.0,164.75,12,0.75,Stimuli/P004/sun_bcboctumoxwpdefl.jpg,0,0.0,0.0,0,74,74,74,,,,,,,,,,,,,164.0268044000004,0.026804400000401074,None,,211.21403100000316,211.21403100000316,211.21403100000316,211.21403100000316,211.21403100000316,211.21403100000316,211.21403100000316,211.21403100000316,211.21403100000316,211.21403100000316,001,P004,2025_Jan_18_1331,ConditionRich,2021.2.3,59.9440961359471,
164.75,168.0,41,0.0,Stimuli/Blank.png,1,0.25,1.0,0,75,75,75,,,,,,,,,,,,,164.77698510000118,0.026985100001184037,5,3.1973225999972783,211.94797710000057,211.94797710000057,211.94797710000057,211.94797710000057,211.94797710000057,211.94797710000057,212.181513800002,212.9321716000013,211.94797710000057,211.94797710000057,001,P004,2025_Jan_18_1331,ConditionRich,2021.2.3,59.9440961359471,
168.0,168.75,32,0.75,Stimuli/P004/things_pulley_02s.jpg,0,0.0,0.0,0,76,76,76,,,,,,,,,,,,,168.0140072000031,0.014007200003106846,None,,215.20082580000235,215.20082580000235,215.20082580000235,215.20082580000235,215.20082580000235,215.20082580000235,215.20082580000235,215.20082580000235,215.20082580000235,215.20082580000235,001,P004,2025_Jan_18_1331,ConditionRich,2021.2.3,59.9440961359471,
168.75,172.0,41,0.0,Stimuli/Blank.png,1,0.25,1.0,0,77,77,77,,,,,,,,,,,,,168.78119000000152,0.031190000001515727,5,1.1937623000012536,215.95150230000218,215.95150230000218,215.95150230000218,215.95150230000218,215.95150230000218,215.95150230000218,216.18508160000056,216.93575730000157,215.95150230000218,215.95150230000218,001,P004,2025_Jan_18_1331,ConditionRich,2021.2.3,59.9440961359471,
172.0,172.75,6,0.75,Stimuli/P004/sun_aoumkoxfhlaobjef.jpg,0,0.0,0.0,0,78,78,78,,,,,,,,,,,,,172.0031153000018,0.0031153000018093735,None,,219.1876869000007,219.1876869000007,219.1876869000007,219.1876869000007,219.1876869000007,219.1876869000007,219.1876869000007,219.1876869000007,219.1876869000007,219.1876869000007,001,P004,2025_Jan_18_1331,ConditionRich,2021.2.3,59.9440961359471,
172.75,176.0,41,0.0,Stimuli/Blank.png,0,0.0,0.0,0,79,79,79,,,,,,,,,,,,,172.768171300002,0.018171300001995405,5,1.2068862000014633,219.93835310000213,219.93835310000213,219.93835310000213,219.93835310000213,219.93835310000213,219.93835310000213,219.93835310000213,219.93835310000213,219.93835310000213,219.93835310000213,001,P004,2025_Jan_18_1331,ConditionRich,2021.2.3,59.9440961359471,
176.0,176.75,17,0.75,Stimuli/P004/sun_bojovhhraxtgafcy.jpg,0,0.0,0.0,0,80,80,80,,,,,,,,,,,,,176.0039840999998,0.003984099999797763,None,,223.19122150000112,223.19122150000112,223.19122150000112,223.19122150000112,223.19122150000112,223.19122150000112,223.19122150000112,223.19122150000112,223.19122150000112,223.19122150000112,001,P004,2025_Jan_18_1331,ConditionRich,2021.2.3,59.9440961359471,
176.75,180.0,41,0.0,Stimuli/Blank.png,0,0.0,0.0,0,81,81,81,,,,,,,,,,,,,176.77334370000244,0.023343700002442347,5,3.186677099998633,223.95855400000073,223.95855400000073,223.95855400000073,223.95855400000073,223.95855400000073,223.95855400000073,223.95855400000073,223.95855400000073,223.95855400000073,223.95855400000073,001,P004,2025_Jan_18_1331,ConditionRich,2021.2.3,59.9440961359471,
180.0,196.0,0,0.0,Stimuli/Blank.png,1,4.0,4.75,0,82,82,82,,,,,,,,,,,,,180.02465080000184,0.024650800001836615,5,13.950436200000695,227.19473350000044,227.19473350000044,227.19473350000044,227.19473350000044,227.19473350000044,227.19473350000044,231.18157340000107,231.9322291999997,227.19473350000044,227.19473350000044,001,P004,2025_Jan_18_1331,ConditionRich,2021.2.3,59.9440961359471,
196.0,196.75,13,0.75,Stimuli/P004/sun_bhbiqbqmwrowrqpd.jpg,0,0.0,0.0,0,83,83,83,,,,,,,,,,,,,196.00508530000297,0.005085300002974691,None,,243.1754561000016,243.1754561000016,243.1754561000016,243.1754561000016,243.1754561000016,243.1754561000016,243.1754561000016,243.1754561000016,243.1754561000016,243.1754561000016,001,P004,2025_Jan_18_1331,ConditionRich,2021.2.3,59.9440961359471,
196.75,200.0,41,0.0,Stimuli/Blank.png,1,1.25,2.0,0,84,84,84,,,,,,,,,,,,,196.7560184000031,0.006018400003085844,5,3.219185499998275,243.92612080000254,243.92612080000254,243.92612080000254,243.92612080000254,243.92612080000254,243.92612080000254,245.16054270000313,245.91122000000178,243.92612080000254,243.92612080000254,001,P004,2025_Jan_18_1331,ConditionRich,2021.2.3,59.9440961359471,
200.0,200.75,3,0.75,Stimuli/P004/sun_afqjzrocqhabifao.jpg,0,0.0,0.0,0,85,85,85,,,,,,,,,,,,,200.0084764000021,0.008476400002109585,None,,247.17899990000296,247.17899990000296,247.17899990000296,247.17899990000296,247.17899990000296,247.17899990000296,247.17899990000296,247.17899990000296,247.17899990000296,247.17899990000296,001,P004,2025_Jan_18_1331,ConditionRich,2021.2.3,59.9440961359471,
200.75,204.0,41,0.0,Stimuli/Blank.png,0,0.0,0.0,0,86,86,86,,,,,,,,,,,,,200.759737700002,0.009737700002006022,5,3.215594000001147,247.92965449999974,247.92965449999974,247.92965449999974,247.92965449999974,247.92965449999974,247.92965449999974,247.92965449999974,247.92965449999974,247.92965449999974,247.92965449999974,001,P004,2025_Jan_18_1331,ConditionRich,2021.2.3,59.9440961359471,
204.0,204.75,25,0.75,Stimuli/P004/things_girl_02s.jpg,0,0.0,0.0,0,87,87,87,,,,,,,,,,,,,204.01212240000314,0.012122400003136136,None,,251.18249840000135,251.18249840000135,251.18249840000135,251.18249840000135,251.18249840000135,251.18249840000135,251.18249840000135,251.18249840000135,251.18249840000135,251.18249840000135,001,P004,2025_Jan_18_1331,ConditionRich,2021.2.3,59.9440961359471,
204.75,208.0,41,0.0,Stimuli/Blank.png,1,1.25,2.0,0,88,88,88,,,,,,,,,,,,,204.7623835000013,0.012383500001305947,5,3.212022399999114,251.93316659999982,251.93316659999982,251.93316659999982,251.93316659999982,251.93316659999982,251.93316659999982,253.16758780000237,253.91820820000066,251.93316659999982,251.93316659999982,001,P004,2025_Jan_18_1331,ConditionRich,2021.2.3,59.9440961359471,
208.0,208.75,9,0.75,Stimuli/P004/sun_auqtrqkaobyprnjy.jpg,0,0.0,0.0,0,89,89,89,,,,,,,,,,,,,208.01774930000101,0.01774930000101449,None,,255.20271409999987,255.20271409999987,255.20271409999987,255.20271409999987,255.20271409999987,255.20271409999987,255.20271409999987,255.20271409999987,255.20271409999987,255.20271409999987,001,P004,2025_Jan_18_1331,ConditionRich,2021.2.3,59.9440961359471,
208.75,212.0,41,0.0,Stimuli/Blank.png,0,0.0,0.0,0,90,90,90,,,,,,,,,,,,,208.76851490000263,0.018514900002628565,5,3.1920552000010503,255.95337930000096,255.95337930000096,255.95337930000096,255.95337930000096,255.95337930000096,255.95337930000096,255.95337930000096,255.95337930000096,255.95337930000096,255.95337930000096,001,P004,2025_Jan_18_1331,ConditionRich,2021.2.3,59.9440961359471,
212.0,212.75,4,0.75,Stimuli/P004/sun_albtqdieqkajejrg.jpg,0,0.0,0.0,0,91,91,91,,,,,,,,,,,,,212.01914430000033,0.019144300000334624,None,,259.18955050000295,259.18955050000295,259.18955050000295,259.18955050000295,259.18955050000295,259.18955050000295,259.18955050000295,259.18955050000295,259.18955050000295,259.18955050000295,001,P004,2025_Jan_18_1331,ConditionRich,2021.2.3,59.9440961359471,
212.75,216.0,41,0.0,Stimuli/Blank.png,0,0.0,0.0,0,92,92,92,,,,,,,,,,,,,212.753256400003,0.00325640000301064,5,1.2217074999971373,259.92352080000273,259.92352080000273,259.92352080000273,259.92352080000273,259.92352080000273,259.92352080000273,259.92352080000273,259.92352080000273,259.92352080000273,259.92352080000273,001,P004,2025_Jan_18_1331,ConditionRich,2021.2.3,59.9440961359471,
216.0,216.75,6,0.75,Stimuli/P004/sun_aoumkoxfhlaobjef.jpg,0,0.0,0.0,0,93,93,93,,,,,,,,,,,,,216.0086173000018,0.008617300001787953,None,,263.19307219999973,263.19307219999973,263.19307219999973,263.19307219999973,263.19307219999973,263.19307219999973,263.19307219999973,263.19307219999973,263.19307219999973,263.19307219999973,001,P004,2025_Jan_18_1331,ConditionRich,2021.2.3,59.9440961359471,
216.75,220.0,41,0.0,Stimuli/Blank.png,0,0.0,0.0,0,94,94,94,,,,,,,,,,,,,216.7730233000002,0.023023300000204472,5,3.2013356999996176,263.94374770000286,263.94374770000286,263.94374770000286,263.94374770000286,263.94374770000286,263.94374770000286,263.94374770000286,263.94374770000286,263.94374770000286,263.94374770000286,001,P004,2025_Jan_18_1331,ConditionRich,2021.2.3,59.9440961359471,
220.0,220.75,20,0.75,Stimuli/P004/sun_bwytihadgigwkyht.jpg,0,0.0,0.0,0,95,95,95,,,,,,,,,,,,,220.00975180000023,0.009751800000231015,None,,267.17990629999986,267.17990629999986,267.17990629999986,267.17990629999986,267.17990629999986,267.17990629999986,267.17990629999986,267.17990629999986,267.17990629999986,267.17990629999986,001,P004,2025_Jan_18_1331,ConditionRich,2021.2.3,59.9440961359471,
220.75,224.0,41,0.0,Stimuli/Blank.png,0,0.0,0.0,0,96,96,96,,,,,,,,,,,,,220.76231100000223,0.012311000002227956,5,3.198024900000746,267.9472267000019,267.9472267000019,267.9472267000019,267.9472267000019,267.9472267000019,267.9472267000019,267.9472267000019,267.9472267000019,267.9472267000019,267.9472267000019,001,P004,2025_Jan_18_1331,ConditionRich,2021.2.3,59.9440961359471,
224.0,224.75,15,0.75,Stimuli/P004/sun_bjhtdevvocmwtavk.jpg,0,0.0,0.0,0,97,97,97,,,,,,,,,,,,,224.0300382000023,0.030038200002309168,None,,271.200126300002,271.200126300002,271.200126300002,271.200126300002,271.200126300002,271.200126300002,271.200126300002,271.200126300002,271.200126300002,271.200126300002,001,P004,2025_Jan_18_1331,ConditionRich,2021.2.3,59.9440961359471,
224.75,228.0,41,0.0,Stimuli/Blank.png,0,0.0,0.0,0,98,98,98,,,,,,,,,,,,,224.76314790000106,0.013147900001058588,5,1.211189400000876,271.9341314000012,271.9341314000012,271.9341314000012,271.9341314000012,271.9341314000012,271.9341314000012,271.9341314000012,271.9341314000012,271.9341314000012,271.9341314000012,001,P004,2025_Jan_18_1331,ConditionRich,2021.2.3,59.9440961359471,
228.0,228.75,38,0.75,Stimuli/P004/things_slug_02s.jpg,0,0.0,0.0,0,99,99,99,,,,,,,,,,,,,228.00034570000207,0.0003457000020716805,None,,275.1869562000029,275.1869562000029,275.1869562000029,275.1869562000029,275.1869562000029,275.1869562000029,275.1869562000029,275.1869562000029,275.1869562000029,275.1869562000029,001,P004,2025_Jan_18_1331,ConditionRich,2021.2.3,59.9440961359471,
228.75,232.0,41,0.0,Stimuli/Blank.png,0,0.0,0.0,0,100,100,100,,,,,,,,,,,,,228.76791159999993,0.01791159999993397,5,1.2077237000012246,275.937629,275.937629,275.937629,275.937629,275.937629,275.937629,275.937629,275.937629,275.937629,275.937629,001,P004,2025_Jan_18_1331,ConditionRich,2021.2.3,59.9440961359471,
232.0,232.75,34,0.75,Stimuli/P004/things_roll_02s.jpg,0,0.0,0.0,0,101,101,101,,,,,,,,,,,,,232.0037556999996,0.0037556999996013474,None,,279.17382,279.17382,279.17382,279.17382,279.17382,279.17382,279.17382,279.17382,279.17382,279.17382,001,P004,2025_Jan_18_1331,ConditionRich,2021.2.3,59.9440961359471,
232.75,236.0,41,0.0,Stimuli/Blank.png,0,0.0,0.0,0,102,102,102,,,,,,,,,,,,,232.75491200000033,0.004912000000331318,5,3.2206076000002213,279.9244983999997,279.9244983999997,279.9244983999997,279.9244983999997,279.9244983999997,279.9244983999997,279.9244983999997,279.9244983999997,279.9244983999997,279.9244983999997,001,P004,2025_Jan_18_1331,ConditionRich,2021.2.3,59.9440961359471,
236.0,236.75,14,0.75,Stimuli/P004/sun_bhhtrmwvoadbfucw.jpg,0,0.0,0.0,0,103,103,103,,,,,,,,,,,,,236.00697670000227,0.006976700002269354,None,,283.1773209000021,283.1773209000021,283.1773209000021,283.1773209000021,283.1773209000021,283.1773209000021,283.1773209000021,283.1773209000021,283.1773209000021,283.1773209000021,001,P004,2025_Jan_18_1331,ConditionRich,2021.2.3,59.9440961359471,
236.75,240.0,41,0.0,Stimuli/Blank.png,0,0.0,0.0,0,104,104,104,,,,,,,,,,,,,236.75791440000103,0.007914400001027388,5,3.2170621999975992,283.9279832000029,283.9279832000029,283.9279832000029,283.9279832000029,283.9279832000029,283.9279832000029,283.9279832000029,283.9279832000029,283.9279832000029,283.9279832000029,001,P004,2025_Jan_18_1331,ConditionRich,2021.2.3,59.9440961359471,
240.0,240.75,24,0.75,Stimuli/P004/things_dumpling_02s.jpg,0,0.0,0.0,0,105,105,105,,,,,,,,,,,,,240.01330400000006,0.013304000000061933,None,,287.19754300000204,287.19754300000204,287.19754300000204,287.19754300000204,287.19754300000204,287.19754300000204,287.19754300000204,287.19754300000204,287.19754300000204,287.19754300000204,001,P004,2025_Jan_18_1331,ConditionRich,2021.2.3,59.9440961359471,
240.75,244.0,41,0.0,Stimuli/Blank.png,0,0.0,0.0,0,106,106,106,,,,,,,,,,,,,240.77734280000004,0.02734280000004219,5,3.196827600000688,287.9481792000006,287.9481792000006,287.9481792000006,287.9481792000006,287.9481792000006,287.9481792000006,287.9481792000006,287.9481792000006,287.9481792000006,287.9481792000006,001,P004,2025_Jan_18_1331,ConditionRich,2021.2.3,59.9440961359471,
244.0,244.75,31,0.75,Stimuli/P004/things_pea_02s.jpg,0,0.0,0.0,0,107,107,107,,,,,,,,,,,,,244.01382110000122,0.013821100001223385,None,,291.18435990000216,291.18435990000216,291.18435990000216,291.18435990000216,291.18435990000216,291.18435990000216,291.18435990000216,291.18435990000216,291.18435990000216,291.18435990000216,001,P004,2025_Jan_18_1331,ConditionRich,2021.2.3,59.9440961359471,
244.75,248.0,41,0.0,Stimuli/Blank.png,0,0.0,0.0,0,108,108,108,,,,,,,,,,,,,244.76480970000193,0.014809700001933379,5,1.2099258999987796,291.9350316000018,291.9350316000018,291.9350316000018,291.9350316000018,291.9350316000018,291.9350316000018,291.9350316000018,291.9350316000018,291.9350316000018,291.9350316000018,001,P004,2025_Jan_18_1331,ConditionRich,2021.2.3,59.9440961359471,
248.0,248.75,1,0.75,Stimuli/P004/sun_adgmtzznutwlescq.jpg,0,0.0,0.0,0,109,109,109,,,,,,,,,,,,,248.00350980000076,0.0035098000007565133,None,,295.18789800000013,295.18789800000013,295.18789800000013,295.18789800000013,295.18789800000013,295.18789800000013,295.18789800000013,295.18789800000013,295.18789800000013,295.18789800000013,001,P004,2025_Jan_18_1331,ConditionRich,2021.2.3,59.9440961359471,
248.75,252.0,41,0.0,Stimuli/Blank.png,0,0.0,0.0,0,110,110,110,,,,,,,,,,,,,248.76827240000057,0.018272400000569178,5,1.2067618000000948,295.93854009999995,295.93854009999995,295.93854009999995,295.93854009999995,295.93854009999995,295.93854009999995,295.93854009999995,295.93854009999995,295.93854009999995,295.93854009999995,001,P004,2025_Jan_18_1331,ConditionRich,2021.2.3,59.9440961359471,
252.0,252.75,5,0.75,Stimuli/P004/sun_amnnxdwfjbdfumns.jpg,0,0.0,0.0,0,111,111,111,,,,,,,,,,,,,252.00468770000225,0.0046877000022504944,None,,299.1747283000004,299.1747283000004,299.1747283000004,299.1747283000004,299.1747283000004,299.1747283000004,299.1747283000004,299.1747283000004,299.1747283000004,299.1747283000004,001,P004,2025_Jan_18_1331,ConditionRich,2021.2.3,59.9440961359471,
252.75,256.0,41,0.0,Stimuli/Blank.png,0,0.0,0.0,0,112,112,112,,,,,,,,,,,,,252.75463060000038,0.004630600000382401,5,3.2198480000006384,299.92536140000084,299.92536140000084,299.92536140000084,299.92536140000084,299.92536140000084,299.92536140000084,299.92536140000084,299.92536140000084,299.92536140000084,299.92536140000084,001,P004,2025_Jan_18_1331,ConditionRich,2021.2.3,59.9440961359471,
256.0,256.75,29,0.75,Stimuli/P004/things_mat_02s.jpg,0,0.0,0.0,0,113,113,113,,,,,,,,,,,,,256.0076939999999,0.00769399999990128,None,,303.1782490000005,303.1782490000005,303.1782490000005,303.1782490000005,303.1782490000005,303.1782490000005,303.1782490000005,303.1782490000005,303.1782490000005,303.1782490000005,001,P004,2025_Jan_18_1331,ConditionRich,2021.2.3,59.9440961359471,
256.75,260.0,41,0.0,Stimuli/Blank.png,0,0.0,0.0,0,114,114,114,,,,,,,,,,,,,256.7586243000005,0.008624300000519725,5,3.2163039999977627,303.9289086000026,303.9289086000026,303.9289086000026,303.9289086000026,303.9289086000026,303.9289086000026,303.9289086000026,303.9289086000026,303.9289086000026,303.9289086000026,001,P004,2025_Jan_18_1331,ConditionRich,2021.2.3,59.9440961359471,
260.0,260.75,28,0.75,Stimuli/P004/things_man_02s.jpg,0,0.0,0.0,0,115,115,115,,,,,,,,,,,,,260.01190810000116,0.011908100001164712,None,,307.1817832000015,307.1817832000015,307.1817832000015,307.1817832000015,307.1817832000015,307.1817832000015,307.1817832000015,307.1817832000015,307.1817832000015,307.1817832000015,001,P004,2025_Jan_18_1331,ConditionRich,2021.2.3,59.9440961359471,
260.75,264.0,41,0.0,Stimuli/Blank.png,0,0.0,0.0,0,116,116,116,,,,,,,,,,,,,260.76368280000315,0.013682800003152806,5,1.2119678999988537,307.93317580000075,307.93317580000075,307.93317580000075,307.93317580000075,307.93317580000075,307.93317580000075,307.93317580000075,307.93317580000075,307.93317580000075,307.93317580000075,001,P004,2025_Jan_18_1331,ConditionRich,2021.2.3,59.9440961359471,
264.0,264.75,27,0.75,Stimuli/P004/things_llama_02s.jpg,0,0.0,0.0,0,117,117,117,,,,,,,,,,,,,263.9978334000007,-0.0021665999993274454,None,,311.16861900000004,311.16861900000004,311.16861900000004,311.16861900000004,311.16861900000004,311.16861900000004,311.16861900000004,311.16861900000004,311.16861900000004,311.16861900000004,001,P004,2025_Jan_18_1331,ConditionRich,2021.2.3,59.9440961359471,
264.75,268.0,41,0.0,Stimuli/Blank.png,1,0.25,1.0,0,118,118,118,,,,,,,,,,,,,264.7671569000013,0.017156900001282338,5,3.192373099998804,311.9526552000025,311.9526552000025,311.9526552000025,311.9526552000025,311.9526552000025,311.9526552000025,312.186230000003,312.93686610000077,311.9526552000025,311.9526552000025,001,P004,2025_Jan_18_1331,ConditionRich,2021.2.3,59.9440961359471,
268.0,268.75,23,0.75,Stimuli/P004/things_butterfly_02s.jpg,0,0.0,0.0,0,119,119,119,,,,,,,,,,,,,268.01795910000146,0.017959100001462502,None,,315.1888652000016,315.1888652000016,315.1888652000016,315.1888652000016,315.1888652000016,315.1888652000016,315.1888652000016,315.1888652000016,315.1888652000016,315.1888652000016,001,P004,2025_Jan_18_1331,ConditionRich,2021.2.3,59.9440961359471,
268.75,272.0,41,0.0,Stimuli/Blank.png,0,0.0,0.0,0,120,120,120,,,,,,,,,,,,,268.75197480000134,0.0019748000013350975,5,1.222224200002529,315.9228022000025,315.9228022000025,315.9228022000025,315.9228022000025,315.9228022000025,315.9228022000025,315.9228022000025,315.9228022000025,315.9228022000025,315.9228022000025,001,P004,2025_Jan_18_1331,ConditionRich,2021.2.3,59.9440961359471,
272.0,272.75,18,0.75,Stimuli/P004/sun_bplhnzkztpigweny.jpg,0,0.0,0.0,0,121,121,121,,,,,,,,,,,,,272.0077678000016,0.007767800001602154,None,,319.19234140000117,319.19234140000117,319.19234140000117,319.19234140000117,319.19234140000117,319.19234140000117,319.19234140000117,319.19234140000117,319.19234140000117,319.19234140000117,001,P004,2025_Jan_18_1331,ConditionRich,2021.2.3,59.9440961359471,
272.75,276.0,41,0.0,Stimuli/Blank.png,1,1.25,2.0,0,122,122,122,,,,,,,,,,,,,272.7731698000025,0.023169800002506236,5,3.2020402000016475,319.94301410000116,319.94301410000116,319.94301410000116,319.94301410000116,319.94301410000116,319.94301410000116,321.1774114,321.9280791000019,319.94301410000116,319.94301410000116,001,P004,2025_Jan_18_1331,ConditionRich,2021.2.3,59.9440961359471,
276.0,292.0,0,0.0,Stimuli/Blank.png,1,3.0,3.75,0,123,123,123,,,,,,,,,,,,,276.009274,0.00927400000000489,5,13.965746999998373,323.179184800003,323.179184800003,323.179184800003,323.179184800003,323.179184800003,323.179184800003,326.16530540000167,326.91583940000055,323.179184800003,323.179184800003,001,P004,2025_Jan_18_1331,ConditionRich,2021.2.3,59.9440961359471,
292.0,292.75,40,0.75,Stimuli/P004/things_woman_02s.jpg,0,0.0,0.0,0,124,124,124,,,,,,,,,,,,,292.0060799000021,0.00607990000207792,None,,339.17659090000234,339.17659090000234,339.17659090000234,339.17659090000234,339.17659090000234,339.17659090000234,339.17659090000234,339.17659090000234,339.17659090000234,339.17659090000234,001,P004,2025_Jan_18_1331,ConditionRich,2021.2.3,59.9440961359471,
292.75,296.0,41,0.0,Stimuli/Blank.png,0,0.0,0.0,0,125,125,125,,,,,,,,,,,,,292.7569825999999,0.00698259999990114,5,3.218547899999976,339.92725900000005,339.92725900000005,339.92725900000005,339.92725900000005,339.92725900000005,339.92725900000005,339.92725900000005,339.92725900000005,339.92725900000005,339.92725900000005,001,P004,2025_Jan_18_1331,ConditionRich,2021.2.3,59.9440961359471,
296.0,296.75,37,0.75,Stimuli/P004/things_ski_lift_02s.jpg,0,0.0,0.0,0,126,126,126,,,,,,,,,,,,,296.00971500000014,0.009715000000142027,None,,343.180113800001,343.180113800001,343.180113800001,343.180113800001,343.180113800001,343.180113800001,343.180113800001,343.180113800001,343.180113800001,343.180113800001,001,P004,2025_Jan_18_1331,ConditionRich,2021.2.3,59.9440961359471,
296.75,300.0,41,0.0,Stimuli/Blank.png,0,0.0,0.0,0,127,127,127,,,,,,,,,,,,,296.76066290000017,0.010662900000170339,5,3.214237399999547,343.93077300000004,343.93077300000004,343.93077300000004,343.93077300000004,343.93077300000004,343.93077300000004,343.93077300000004,343.93077300000004,343.93077300000004,343.93077300000004,001,P004,2025_Jan_18_1331,ConditionRich,2021.2.3,59.9440961359471,
300.0,300.75,30,0.75,Stimuli/P004/things_music_box_02s.jpg,0,0.0,0.0,0,128,128,128,,,,,,,,,,,,,300.0128619999996,0.01286199999958626,None,,347.18363500000123,347.18363500000123,347.18363500000123,347.18363500000123,347.18363500000123,347.18363500000123,347.18363500000123,347.18363500000123,347.18363500000123,347.18363500000123,001,P004,2025_Jan_18_1331,ConditionRich,2021.2.3,59.9440961359471,
300.75,304.0,41,0.0,Stimuli/Blank.png,0,0.0,0.0,0,129,129,129,,,,,,,,,,,,,300.7635216000017,0.013521600001695333,5,1.2114775999980338,347.9342980000001,347.9342980000001,347.9342980000001,347.9342980000001,347.9342980000001,347.9342980000001,347.9342980000001,347.9342980000001,347.9342980000001,347.9342980000001,001,P004,2025_Jan_18_1331,ConditionRich,2021.2.3,59.9440961359471,
304.0,304.75,2,0.75,Stimuli/P004/sun_afijjzyziczoqdhz.jpg,0,0.0,0.0,0,130,130,130,,,,,,,,,,,,,304.0009239000028,0.0009239000028173905,None,,351.1703331000026,351.1703331000026,351.1703331000026,351.1703331000026,351.1703331000026,351.1703331000026,351.1703331000026,351.1703331000026,351.1703331000026,351.1703331000026,001,P004,2025_Jan_18_1331,ConditionRich,2021.2.3,59.9440961359471,
304.75,308.0,41,0.0,Stimuli/Blank.png,0,0.0,0.0,0,131,131,131,,,,,,,,,,,,,304.7509615000017,0.0009615000017220154,5,1.2245617999979004,351.92119040000034,351.92119040000034,351.92119040000034,351.92119040000034,351.92119040000034,351.92119040000034,351.92119040000034,351.92119040000034,351.92119040000034,351.92119040000034,001,P004,2025_Jan_18_1331,ConditionRich,2021.2.3,59.9440961359471,
308.0,308.75,36,0.75,Stimuli/P004/things_sea_urchin_02s.jpg,0,0.0,0.0,0,132,132,132,,,,,,,,,,,,,308.0035564000027,0.00355640000270796,None,,355.1739987000001,355.1739987000001,355.1739987000001,355.1739987000001,355.1739987000001,355.1739987000001,355.1739987000001,355.1739987000001,355.1739987000001,355.1739987000001,001,P004,2025_Jan_18_1331,ConditionRich,2021.2.3,59.9440961359471,
308.75,312.0,41,0.0,Stimuli/Blank.png,0,0.0,0.0,0,133,133,133,,,,,,,,,,,,,308.75411710000117,0.004117100001167273,5,1.2211301000024832,355.92468519999966,355.92468519999966,355.92468519999966,355.92468519999966,355.92468519999966,355.92468519999966,355.92468519999966,355.92468519999966,355.92468519999966,355.92468519999966,001,P004,2025_Jan_18_1331,ConditionRich,2021.2.3,59.9440961359471,
312.0,312.75,22,0.75,Stimuli/P004/things_boy_02s.jpg,0,0.0,0.0,0,134,134,134,,,,,,,,,,,,,312.0079003000028,0.007900300002802396,None,,359.17753390000144,359.17753390000144,359.17753390000144,359.17753390000144,359.17753390000144,359.17753390000144,359.17753390000144,359.17753390000144,359.17753390000144,359.17753390000144,001,P004,2025_Jan_18_1331,ConditionRich,2021.2.3,59.9440961359471,
312.75,316.0,41,0.0,Stimuli/Blank.png,0,0.0,0.0,0,135,135,135,,,,,,,,,,,,,312.7572295000027,0.007229500002722489,5,3.217572999998083,359.92821630000253,359.92821630000253,359.92821630000253,359.92821630000253,359.92821630000253,359.92821630000253,359.92821630000253,359.92821630000253,359.92821630000253,359.92821630000253,001,P004,2025_Jan_18_1331,ConditionRich,2021.2.3,59.9440961359471,
316.0,316.75,16,0.75,Stimuli/P004/sun_bjuoemgleyaogrmw.jpg,0,0.0,0.0,0,136,136,136,,,,,,,,,,,,,316.0114272000028,0.011427200002799509,None,,363.18105260000084,363.18105260000084,363.18105260000084,363.18105260000084,363.18105260000084,363.18105260000084,363.18105260000084,363.18105260000084,363.18105260000084,363.18105260000084,001,P004,2025_Jan_18_1331,ConditionRich,2021.2.3,59.9440961359471,
316.75,320.0,41,0.0,Stimuli/Blank.png,1,2.25,3.0,0,137,137,137,,,,,,,,,,,,,316.7622884000011,0.01228840000112541,5,3.2142282999993768,363.93171319999965,363.93171319999965,363.93171319999965,363.93171319999965,363.93171319999965,363.93171319999965,366.1670121999996,366.91767000000254,363.93171319999965,363.93171319999965,001,P004,2025_Jan_18_1331,ConditionRich,2021.2.3,59.9440961359471,
320.0,320.75,39,0.75,Stimuli/P004/things_toad_02s.jpg,0,0.0,0.0,0,138,138,138,,,,,,,,,,,,,320.01433460000044,0.014334600000438513,None,,367.20126020000316,367.20126020000316,367.20126020000316,367.20126020000316,367.20126020000316,367.20126020000316,367.20126020000316,367.20126020000316,367.20126020000316,367.20126020000316,001,P004,2025_Jan_18_1331,ConditionRich,2021.2.3,59.9440961359471,
320.75,324.0,41,0.0,Stimuli/Blank.png,1,0.25,1.0,0,139,139,139,,,,,,,,,,,,,320.781654800001,0.03165480000097887,5,1.193961599998147,367.95191780000096,367.95191780000096,367.95191780000096,367.95191780000096,367.95191780000096,367.95191780000096,368.18546140000035,368.93613780000305,367.95191780000096,367.95191780000096,001,P004,2025_Jan_18_1331,ConditionRich,2021.2.3,59.9440961359471,
324.0,324.75,33,0.75,Stimuli/P004/things_recorder_02s.jpg,0,0.0,0.0,0,140,140,140,,,,,,,,,,,,,324.00360400000136,0.003604000001359964,None,,371.18809990000227,371.18809990000227,371.18809990000227,371.18809990000227,371.18809990000227,371.18809990000227,371.18809990000227,371.18809990000227,371.18809990000227,371.18809990000227,001,P004,2025_Jan_18_1331,ConditionRich,2021.2.3,59.9440961359471,
324.75,328.0,41,0.0,Stimuli/Blank.png,0,0.0,0.0,0,141,141,141,,,,,,,,,,,,,324.76833610000176,0.018336100001761224,5,1.2070525999988604,371.9387475000003,371.9387475000003,371.9387475000003,371.9387475000003,371.9387475000003,371.9387475000003,371.9387475000003,371.9387475000003,371.9387475000003,371.9387475000003,001,P004,2025_Jan_18_1331,ConditionRich,2021.2.3,59.9440961359471,
328.0,328.75,8,0.75,Stimuli/P004/sun_asxkyzleyfgbqfrs.jpg,0,0.0,0.0,0,142,142,142,,,,,,,,,,,,,328.00540360000014,0.005403600000136066,None,,375.1916291000016,375.1916291000016,375.1916291000016,375.1916291000016,375.1916291000016,375.1916291000016,375.1916291000016,375.1916291000016,375.1916291000016,375.1916291000016,001,P004,2025_Jan_18_1331,ConditionRich,2021.2.3,59.9440961359471,
328.75,332.0,41,0.0,Stimuli/Blank.png,1,2.25,3.0,0,143,143,143,,,,,,,,,,,,,328.77251160000014,0.022511600000143517,5,3.2034669000022404,375.94227669999964,375.94227669999964,375.94227669999964,375.94227669999964,375.94227669999964,375.94227669999964,378.17756870000085,378.9282787000011,375.94227669999964,375.94227669999964,001,P004,2025_Jan_18_1331,ConditionRich,2021.2.3,59.9440961359471,
332.0,332.75,35,0.75,Stimuli/P004/things_satellite_dish_02s.jpg,0,0.0,0.0,0,144,144,144,,,,,,,,,,,,,332.0083160000031,0.008316000003105728,None,,379.1784493000014,379.1784493000014,379.1784493000014,379.1784493000014,379.1784493000014,379.1784493000014,379.1784493000014,379.1784493000014,379.1784493000014,379.1784493000014,001,P004,2025_Jan_18_1331,ConditionRich,2021.2.3,59.9440961359471,
332.75,336.0,41,0.0,Stimuli/Blank.png,0,0.0,0.0,0,145,145,145,,,,,,,,,,,,,332.75834770000074,0.008347700000740588,5,3.2167346000023826,379.9291274999996,379.9291274999996,379.9291274999996,379.9291274999996,379.9291274999996,379.9291274999996,379.9291274999996,379.9291274999996,379.9291274999996,379.9291274999996,001,P004,2025_Jan_18_1331,ConditionRich,2021.2.3,59.9440961359471,
336.0,336.75,11,0.75,Stimuli/P004/sun_bawmjlzsuuivqjhi.jpg,0,0.0,0.0,0,146,146,146,,,,,,,,,,,,,336.01186670000243,0.011866700002428843,None,,383.1819824000013,383.1819824000013,383.1819824000013,383.1819824000013,383.1819824000013,383.1819824000013,383.1819824000013,383.1819824000013,383.1819824000013,383.1819824000013,001,P004,2025_Jan_18_1331,ConditionRich,2021.2.3,59.9440961359471,
336.75,340.0,41,0.0,Stimuli/Blank.png,1,2.25,3.0,0,147,147,147,,,,,,,,,,,,,336.7625629000031,0.012562900003104005,5,3.2130214999997406,383.932632,383.932632,383.932632,383.932632,383.932632,383.932632,386.16793640000105,386.91863250000097,383.932632,383.932632,001,P004,2025_Jan_18_1331,ConditionRich,2021.2.3,59.9440961359471,
340.0,340.75,32,0.75,Stimuli/P004/things_pulley_02s.jpg,0,0.0,0.0,0,148,148,148,,,,,,,,,,,,,340.0160504000014,0.01605040000140434,None,,387.202178800002,387.202178800002,387.202178800002,387.202178800002,387.202178800002,387.202178800002,387.202178800002,387.202178800002,387.202178800002,387.202178800002,001,P004,2025_Jan_18_1331,ConditionRich,2021.2.3,59.9440961359471,
340.75,344.0,41,0.0,Stimuli/Blank.png,0,0.0,0.0,0,149,149,149,,,,,,,,,,,,,340.7672203000002,0.017220300000190036,5,3.1930460000003222,387.95286699999997,387.95286699999997,387.95286699999997,387.95286699999997,387.95286699999997,387.95286699999997,387.95286699999997,387.95286699999997,387.95286699999997,387.95286699999997,001,P004,2025_Jan_18_1331,ConditionRich,2021.2.3,59.9440961359471,
344.0,344.75,26,0.75,Stimuli/P004/things_ham_02s.jpg,0,0.0,0.0,0,150,150,150,,,,,,,,,,,,,344.0188879000016,0.018887900001573144,None,,391.18904290000137,391.18904290000137,391.18904290000137,391.18904290000137,391.18904290000137,391.18904290000137,391.18904290000137,391.18904290000137,391.18904290000137,391.18904290000137,001,P004,2025_Jan_18_1331,ConditionRich,2021.2.3,59.9440961359471,
344.75,348.0,41,0.0,Stimuli/Blank.png,0,0.0,0.0,0,151,151,151,,,,,,,,,,,,,344.7527564000011,0.002756400001089787,5,1.222733499998867,391.92300270000123,391.92300270000123,391.92300270000123,391.92300270000123,391.92300270000123,391.92300270000123,391.92300270000123,391.92300270000123,391.92300270000123,391.92300270000123,001,P004,2025_Jan_18_1331,ConditionRich,2021.2.3,59.9440961359471,
348.0,348.75,7,0.75,Stimuli/P004/sun_asgixjtedklbawgm.jpg,0,0.0,0.0,0,152,152,152,,,,,,,,,,,,,348.00711930000034,0.007119300000340445,None,,395.1925489000023,395.1925489000023,395.1925489000023,395.1925489000023,395.1925489000023,395.1925489000023,395.1925489000023,395.1925489000023,395.1925489000023,395.1925489000023,001,P004,2025_Jan_18_1331,ConditionRich,2021.2.3,59.9440961359471,
348.75,352.0,41,0.0,Stimuli/Blank.png,0,0.0,0.0,0,153,153,153,,,,,,,,,,,,,348.7726909000012,0.022690900001180125,5,3.2024899999996705,395.9431998,395.9431998,395.9431998,395.9431998,395.9431998,395.9431998,395.9431998,395.9431998,395.9431998,395.9431998,001,P004,2025_Jan_18_1331,ConditionRich,2021.2.3,59.9440961359471,
352.0,352.75,10,0.75,Stimuli/P004/sun_azzneunxibjvypza.jpg,0,0.0,0.0,0,154,154,154,,,,,,,,,,,,,352.0093433000002,0.009343300000182353,None,,399.19608000000153,399.19608000000153,399.19608000000153,399.19608000000153,399.19608000000153,399.19608000000153,399.19608000000153,399.19608000000153,399.19608000000153,399.19608000000153,001,P004,2025_Jan_18_1331,ConditionRich,2021.2.3,59.9440961359471,
352.75,356.0,41,0.0,Stimuli/Blank.png,0,0.0,0.0,0,155,155,155,,,,,,,,,,,,,352.77650690000155,0.026506900001550093,5,3.1990208999995957,399.94673460000195,399.94673460000195,399.94673460000195,399.94673460000195,399.94673460000195,399.94673460000195,399.94673460000195,399.94673460000195,399.94673460000195,399.94673460000195,001,P004,2025_Jan_18_1331,ConditionRich,2021.2.3,59.9440961359471,
356.0,356.75,19,0.75,Stimuli/P004/sun_bucebxfexknakpma.jpg,1,0.0,0.75,0,156,156,156,,,,,,,,,,,,,356.0131258000001,0.01312580000012531,None,,403.18290660000275,403.18290660000275,403.18290660000275,403.18290660000275,403.18290660000275,403.18290660000275,403.18290660000275,403.9168948000006,403.18290660000275,403.18290660000275,001,P004,2025_Jan_18_1331,ConditionRich,2021.2.3,59.9440961359471,
356.75,360.0,41,0.0,Stimuli/Blank.png,0,0.0,0.0,0,157,157,157,,,,,,,,,,,,,356.7630078000002,0.013007800000195857,5,1.2120257999995374,403.9335702999997,403.9335702999997,403.9335702999997,403.9335702999997,403.9335702999997,403.9335702999997,403.9335702999997,403.9335702999997,403.9335702999997,403.9335702999997,001,P004,2025_Jan_18_1331,ConditionRich,2021.2.3,59.9440961359471,
360.0,360.75,21,0.75,Stimuli/P004/things_baby_02s.jpg,0,0.0,0.0,0,158,158,158,,,,,,,,,,,,,359.99919969999974,-0.0008003000002645422,None,,407.1864244999997,407.1864244999997,407.1864244999997,407.1864244999997,407.1864244999997,407.1864244999997,407.1864244999997,407.1864244999997,407.1864244999997,407.1864244999997,001,P004,2025_Jan_18_1331,ConditionRich,2021.2.3,59.9440961359471,
360.75,364.0,41,0.0,Stimuli/Blank.png,0,0.0,0.0,0,159,159,159,,,,,,,,,,,,,360.76729460000206,0.01729460000206018,5,1.2085803000009037,407.93708980000156,407.93708980000156,407.93708980000156,407.93708980000156,407.93708980000156,407.93708980000156,407.93708980000156,407.93708980000156,407.93708980000156,407.93708980000156,001,P004,2025_Jan_18_1331,ConditionRich,2021.2.3,59.9440961359471,
364.0,364.75,17,0.75,Stimuli/P004/sun_bojovhhraxtgafcy.jpg,0,0.0,0.0,0,160,160,160,,,,,,,,,,,,,364.0032930000016,0.003293000001576729,None,,411.1732711000004,411.1732711000004,411.1732711000004,411.1732711000004,411.1732711000004,411.1732711000004,411.1732711000004,411.1732711000004,411.1732711000004,411.1732711000004,001,P004,2025_Jan_18_1331,ConditionRich,2021.2.3,59.9440961359471,
364.75,368.0,41,0.0,Stimuli/Blank.png,0,0.0,0.0,0,161,161,161,,,,,,,,,,,,,364.75299280000036,0.0029928000003565103,5,1.221711400001368,411.92393260000244,411.92393260000244,411.92393260000244,411.92393260000244,411.92393260000244,411.92393260000244,411.92393260000244,411.92393260000244,411.92393260000244,411.92393260000244,001,P004,2025_Jan_18_1331,ConditionRich,2021.2.3,59.9440961359471,
368.0,368.75,12,0.75,Stimuli/P004/sun_bcboctumoxwpdefl.jpg,0,0.0,0.0,0,162,162,162,,,,,,,,,,,,,368.00665930000105,0.006659300001047086,None,,415.1934699000012,415.1934699000012,415.1934699000012,415.1934699000012,415.1934699000012,415.1934699000012,415.1934699000012,415.1934699000012,415.1934699000012,415.1934699000012,001,P004,2025_Jan_18_1331,ConditionRich,2021.2.3,59.9440961359471,
368.75,372.0,41,0.0,Stimuli/Blank.png,0,0.0,0.0,0,163,163,163,,,,,,,,,,,,,368.77409270000135,0.02409270000134711,5,3.2014369999997143,415.94414870000037,415.94414870000037,415.94414870000037,415.94414870000037,415.94414870000037,415.94414870000037,415.94414870000037,415.94414870000037,415.94414870000037,415.94414870000037,001,P004,2025_Jan_18_1331,ConditionRich,2021.2.3,59.9440961359471,
372.0,388.0,0,0.0,Stimuli/Blank.png,1,5.0,5.75,0,164,164,164,,,,,,,,,,,,,372.009505500002,0.009505500001978362,5,11.965268200001447,419.1803151000022,419.1803151000022,419.1803151000022,419.1803151000022,419.1803151000022,419.1803151000022,424.16808740000124,424.91874550000284,419.1803151000022,419.1803151000022,001,P004,2025_Jan_18_1331,ConditionRich,2021.2.3,59.9440961359471,
