eventStartTime,eventEndTime,eventCond,imSize,imFile,responseEvent,fixRespStart,fixRespEnd,Events.thisRepN,Events.thisTrialN,Events.thisN,Events.thisIndex,Instructions.started,Instructions.stopped,participantReadyResponse.keys,participantReadyResponse.rt,participantReadyResponse.started,participantReadyResponse.stopped,startWaitforTrigger,triggerResponse.keys,triggerResponse.rt,triggerResponse.started,triggerResponse.stopped,globalTimer,actualStartTime,startTimingDiff,participantResponse.keys,participantResponse.rt,participantResponse.started,participantResponse.stopped,image.started,image.stopped,fixationOutside.started,fixationOutside.stopped,fixationResponse.started,fixationResponse.stopped,fixationInside.started,fixationInside.stopped,session,participant,date,expName,psychopyVersion,frameRate,
,,,,,,,,,,,,11.758657900001708,None,4,29.355519300002925,11.758657900001708,None,,,,,,,,,,,,,,,,,,,,,005,P004,2025_Jan_18_1408,ConditionRich,2021.2.3,59.911881604869734,
,,,,,,,,,,,,,,,,,,41.12656750000315,5,16.781757600001583,41.13980720000109,None,,,,,,,,,,,,,,,,005,P004,2025_Jan_18_1408,ConditionRich,2021.2.3,59.911881604869734,
0.0,4.0,0,0.0,Stimuli/Blank.png,0,0,0.0,0,0,0,0,,,,,,,,,,,,57.92454510000243,0.025240899998607347,0.025240899998607347,5,3.9499098000014783,57.971213000000716,None,57.971213000000716,None,57.971213000000716,None,57.971213000000716,57.971213000000716,57.971213000000716,None,005,P004,2025_Jan_18_1408,ConditionRich,2021.2.3,59.911881604869734,
4.0,7.75,34,0.75,Stimuli/P004/things_roll_02s.jpg,1,2,2.75,0,1,1,1,,,,,,,,,,,,,4.023578799999086,0.023578799999086186,4,2.435957599998801,61.97511790000135,61.97511790000135,61.97511790000135,61.97511790000135,61.97511790000135,61.97511790000135,63.95981960000063,64.7106612000025,61.97511790000135,61.97511790000135,005,P004,2025_Jan_18_1408,ConditionRich,2021.2.3,59.911881604869734,
7.75,8.0,41,0.0,Stimuli/Blank.png,0,0,0.0,0,2,2,2,,,,,,,,,,,,,7.773093199997675,0.023093199997674674,None,,65.71196760000021,65.71196760000021,65.71196760000021,65.71196760000021,65.71196760000021,65.71196760000021,65.71196760000021,65.71196760000021,65.71196760000021,65.71196760000021,005,P004,2025_Jan_18_1408,ConditionRich,2021.2.3,59.911881604869734,
8.0,11.75,39,0.75,Stimuli/P004/things_toad_02s.jpg,0,0,0.0,0,3,3,3,,,,,,,,,,,,,8.006462800000008,0.0064628000000084285,5,1.9761403000011342,65.94490040000164,65.94490040000164,65.94490040000164,65.94490040000164,65.94490040000164,65.94490040000164,65.94490040000164,65.94490040000164,65.94490040000164,65.94490040000164,005,P004,2025_Jan_18_1408,ConditionRich,2021.2.3,59.911881604869734,
11.75,12.0,41,0.0,Stimuli/Blank.png,0,0,0.0,0,4,4,4,,,,,,,,,,,,,11.76196820000041,0.011968200000410434,5,0.20614840000052936,69.71489220000149,69.71489220000149,69.71489220000149,69.71489220000149,69.71489220000149,69.71489220000149,69.71489220000149,69.71489220000149,69.71489220000149,69.71489220000149,005,P004,2025_Jan_18_1408,ConditionRich,2021.2.3,59.911881604869734,
12.0,15.75,38,0.75,Stimuli/P004/things_slug_02s.jpg,0,0,0.0,0,5,5,5,,,,,,,,,,,,,12.02665849999903,0.026658499999030028,5,1.9562394999993558,69.96510290000151,69.96510290000151,69.96510290000151,69.96510290000151,69.96510290000151,69.96510290000151,69.96510290000151,69.96510290000151,69.96510290000151,69.96510290000151,005,P004,2025_Jan_18_1408,ConditionRich,2021.2.3,59.911881604869734,
15.75,16.0,41,0.0,Stimuli/Blank.png,0,0,0.0,0,6,6,6,,,,,,,,,,,,,15.762513300000137,0.012513300000136951,None,,73.70173690000229,73.70173690000229,73.70173690000229,73.70173690000229,73.70173690000229,73.70173690000229,73.70173690000229,73.70173690000229,73.70173690000229,73.70173690000229,005,P004,2025_Jan_18_1408,ConditionRich,2021.2.3,59.911881604869734,
16.0,19.75,32,0.75,Stimuli/P004/things_pulley_02s.jpg,0,0,0.0,0,7,7,7,,,,,,,,,,,,,16.014295900000434,0.014295900000433903,5,1.9524829000001773,73.96862990000227,73.96862990000227,73.96862990000227,73.96862990000227,73.96862990000227,73.96862990000227,73.96862990000227,73.96862990000227,73.96862990000227,73.96862990000227,005,P004,2025_Jan_18_1408,ConditionRich,2021.2.3,59.911881604869734,
19.75,20.0,41,0.0,Stimuli/Blank.png,0,0,0.0,0,8,8,8,,,,,,,,,,,,,19.76619220000066,0.016192200000659795,None,,77.70525720000296,77.70525720000296,77.70525720000296,77.70525720000296,77.70525720000296,77.70525720000296,77.70525720000296,77.70525720000296,77.70525720000296,77.70525720000296,005,P004,2025_Jan_18_1408,ConditionRich,2021.2.3,59.911881604869734,
20.0,23.75,26,0.75,Stimuli/P004/things_ham_02s.jpg,0,0,0.0,0,9,9,9,,,,,,,,,,,,,20.00047409999752,0.0004740999975183513,5,1.9655086999991909,77.95547179999994,77.95547179999994,77.95547179999994,77.95547179999994,77.95547179999994,77.95547179999994,77.95547179999994,77.95547179999994,77.95547179999994,77.95547179999994,005,P004,2025_Jan_18_1408,ConditionRich,2021.2.3,59.911881604869734,
23.75,24.0,41,0.0,Stimuli/Blank.png,0,0,0.0,0,10,10,10,,,,,,,,,,,,,23.76988899999924,0.019888999999238877,None,,81.70879810000042,81.70879810000042,81.70879810000042,81.70879810000042,81.70879810000042,81.70879810000042,81.70879810000042,81.70879810000042,81.70879810000042,81.70879810000042,005,P004,2025_Jan_18_1408,ConditionRich,2021.2.3,59.911881604869734,
24.0,27.75,11,0.75,Stimuli/P004/sun_bawmjlzsuuivqjhi.jpg,1,2,2.75,0,11,11,11,,,,,,,,,,,,,24.006152899997687,0.0061528999976872,4,2.3330128000015975,81.95899690000078,81.95899690000078,81.95899690000078,81.95899690000078,81.95899690000078,81.95899690000078,83.94404620000205,84.69472890000179,81.95899690000078,81.95899690000078,005,P004,2025_Jan_18_1408,ConditionRich,2021.2.3,59.911881604869734,
27.75,28.0,41,0.0,Stimuli/Blank.png,0,0,0.0,0,12,12,12,,,,,,,,,,,,,27.773399699999572,0.023399699999572476,None,,85.71230240000295,85.71230240000295,85.71230240000295,85.71230240000295,85.71230240000295,85.71230240000295,85.71230240000295,85.71230240000295,85.71230240000295,85.71230240000295,005,P004,2025_Jan_18_1408,ConditionRich,2021.2.3,59.911881604869734,
28.0,31.75,10,0.75,Stimuli/P004/sun_azzneunxibjvypza.jpg,1,3,3.75,0,13,13,13,,,,,,,,,,,,,28.006896799997776,0.006896799997775815,4,3.335205600000336,85.94584510000277,85.94584510000277,85.94584510000277,85.94584510000277,85.94584510000277,85.94584510000277,88.93179290000262,89.68249260000084,85.94584510000277,85.94584510000277,005,P004,2025_Jan_18_1408,ConditionRich,2021.2.3,59.911881604869734,
31.75,32.0,41,0.0,Stimuli/Blank.png,0,0,0.0,0,14,14,14,,,,,,,,,,,,,31.760719599998993,0.010719599998992635,None,,89.69915120000223,89.69915120000223,89.69915120000223,89.69915120000223,89.69915120000223,89.69915120000223,89.69915120000223,89.69915120000223,89.69915120000223,89.69915120000223,005,P004,2025_Jan_18_1408,ConditionRich,2021.2.3,59.911881604869734,
32.0,35.75,24,0.75,Stimuli/P004/things_dumpling_02s.jpg,0,0,0.0,0,15,15,15,,,,,,,,,,,,,32.01046270000006,0.010462700000061886,5,1.9716635000004317,89.94936320000124,89.94936320000124,89.94936320000124,89.94936320000124,89.94936320000124,89.94936320000124,89.94936320000124,89.94936320000124,89.94936320000124,89.94936320000124,005,P004,2025_Jan_18_1408,ConditionRich,2021.2.3,59.911881604869734,
35.75,36.0,41,0.0,Stimuli/Blank.png,0,0,0.0,0,16,16,16,,,,,,,,,,,,,35.76352919999772,0.013529199997719843,5,0.21826880000298843,93.7026672000029,93.7026672000029,93.7026672000029,93.7026672000029,93.7026672000029,93.7026672000029,93.7026672000029,93.7026672000029,93.7026672000029,93.7026672000029,005,P004,2025_Jan_18_1408,ConditionRich,2021.2.3,59.911881604869734,
36.0,39.75,21,0.75,Stimuli/P004/things_baby_02s.jpg,0,0,0.0,0,17,17,17,,,,,,,,,,,,,36.01385119999759,0.013851199997588992,5,1.968012199999066,93.95289850000336,93.95289850000336,93.95289850000336,93.95289850000336,93.95289850000336,93.95289850000336,93.95289850000336,93.95289850000336,93.95289850000336,93.95289850000336,005,P004,2025_Jan_18_1408,ConditionRich,2021.2.3,59.911881604869734,
39.75,40.0,41,0.0,Stimuli/Blank.png,0,0,0.0,0,18,18,18,,,,,,,,,,,,,39.751284699999815,0.0012846999998146202,None,,97.6895104000032,97.6895104000032,97.6895104000032,97.6895104000032,97.6895104000032,97.6895104000032,97.6895104000032,97.6895104000032,97.6895104000032,97.6895104000032,005,P004,2025_Jan_18_1408,ConditionRich,2021.2.3,59.911881604869734,
40.0,43.75,5,0.75,Stimuli/P004/sun_amnnxdwfjbdfumns.jpg,0,0,0.0,0,19,19,19,,,,,,,,,,,,,40.00076369999806,0.0007636999980604742,5,1.981268400002591,97.93973400000323,97.93973400000323,97.93973400000323,97.93973400000323,97.93973400000323,97.93973400000323,97.93973400000323,97.93973400000323,97.93973400000323,97.93973400000323,005,P004,2025_Jan_18_1408,ConditionRich,2021.2.3,59.911881604869734,
43.75,44.0,41,0.0,Stimuli/Blank.png,0,0,0.0,0,20,20,20,,,,,,,,,,,,,43.75455420000071,0.004554200000711717,None,,101.69303540000328,101.69303540000328,101.69303540000328,101.69303540000328,101.69303540000328,101.69303540000328,101.69303540000328,101.69303540000328,101.69303540000328,101.69303540000328,005,P004,2025_Jan_18_1408,ConditionRich,2021.2.3,59.911881604869734,
44.0,47.75,31,0.75,Stimuli/P004/things_pea_02s.jpg,0,0,0.0,0,21,21,21,,,,,,,,,,,,,44.00685850000082,0.006858500000817003,5,1.9609294000001682,101.95997270000225,101.95997270000225,101.95997270000225,101.95997270000225,101.95997270000225,101.95997270000225,101.95997270000225,101.95997270000225,101.95997270000225,101.95997270000225,005,P004,2025_Jan_18_1408,ConditionRich,2021.2.3,59.911881604869734,
47.75,48.0,41,0.0,Stimuli/Blank.png,0,0,0.0,0,22,22,22,,,,,,,,,,,,,47.77641609999773,0.02641609999773209,5,0.19093380000049365,105.72995400000218,105.72995400000218,105.72995400000218,105.72995400000218,105.72995400000218,105.72995400000218,105.72995400000218,105.72995400000218,105.72995400000218,105.72995400000218,005,P004,2025_Jan_18_1408,ConditionRich,2021.2.3,59.911881604869734,
48.0,51.75,18,0.75,Stimuli/P004/sun_bplhnzkztpigweny.jpg,0,0,0.0,0,23,23,23,,,,,,,,,,,,,48.025882300000376,0.025882300000375835,5,1.941056400002708,105.98015270000178,105.98015270000178,105.98015270000178,105.98015270000178,105.98015270000178,105.98015270000178,105.98015270000178,105.98015270000178,105.98015270000178,105.98015270000178,005,P004,2025_Jan_18_1408,ConditionRich,2021.2.3,59.911881604869734,
51.75,52.0,41,0.0,Stimuli/Blank.png,0,0,0.0,0,24,24,24,,,,,,,,,,,,,51.77836530000059,0.028365300000587013,None,,109.71687980000206,109.71687980000206,109.71687980000206,109.71687980000206,109.71687980000206,109.71687980000206,109.71687980000206,109.71687980000206,109.71687980000206,109.71687980000206,005,P004,2025_Jan_18_1408,ConditionRich,2021.2.3,59.911881604869734,
52.0,55.75,15,0.75,Stimuli/P004/sun_bjhtdevvocmwtavk.jpg,0,0,0.0,0,25,25,25,,,,,,,,,,,,,52.01191239999753,0.011912399997527245,5,1.9540065999972285,109.96698060000199,109.96698060000199,109.96698060000199,109.96698060000199,109.96698060000199,109.96698060000199,109.96698060000199,109.96698060000199,109.96698060000199,109.96698060000199,005,P004,2025_Jan_18_1408,ConditionRich,2021.2.3,59.911881604869734,
55.75,56.0,41,0.0,Stimuli/Blank.png,0,0,0.0,0,26,26,26,,,,,,,,,,,,,55.78190650000033,0.031906500000332016,5,0.20061180000266177,113.7202881000012,113.7202881000012,113.7202881000012,113.7202881000012,113.7202881000012,113.7202881000012,113.7202881000012,113.7202881000012,113.7202881000012,113.7202881000012,005,P004,2025_Jan_18_1408,ConditionRich,2021.2.3,59.911881604869734,
56.0,59.75,36,0.75,Stimuli/P004/things_sea_urchin_02s.jpg,1,1,1.75,0,27,27,27,,,,,,,,,,,,,56.015116799997486,0.015116799997485941,5,1.9670445999981894,113.95383270000093,113.95383270000093,113.95383270000093,113.95383270000093,113.95383270000093,113.95383270000093,114.9380471000004,115.68868400000065,113.95383270000093,113.95383270000093,005,P004,2025_Jan_18_1408,ConditionRich,2021.2.3,59.911881604869734,
59.75,60.0,41,0.0,Stimuli/Blank.png,0,0,0.0,0,28,28,28,,,,,,,,,,,,,59.751980599998205,0.0019805999982054345,None,,117.6904409000017,117.6904409000017,117.6904409000017,117.6904409000017,117.6904409000017,117.6904409000017,117.6904409000017,117.6904409000017,117.6904409000017,117.6904409000017,005,P004,2025_Jan_18_1408,ConditionRich,2021.2.3,59.911881604869734,
60.0,63.75,6,0.75,Stimuli/P004/sun_aoumkoxfhlaobjef.jpg,0,0,0.0,0,29,29,29,,,,,,,,,,,,,60.0022984999996,0.00229849999959697,5,1.963682499997958,117.9573476000005,117.9573476000005,117.9573476000005,117.9573476000005,117.9573476000005,117.9573476000005,117.9573476000005,117.9573476000005,117.9573476000005,117.9573476000005,005,P004,2025_Jan_18_1408,ConditionRich,2021.2.3,59.911881604869734,
63.75,64.0,41,0.0,Stimuli/Blank.png,0,0,0.0,0,30,30,30,,,,,,,,,,,,,63.7718352999982,0.021835299998201663,None,,121.71066800000335,121.71066800000335,121.71066800000335,121.71066800000335,121.71066800000335,121.71066800000335,121.71066800000335,121.71066800000335,121.71066800000335,121.71066800000335,005,P004,2025_Jan_18_1408,ConditionRich,2021.2.3,59.911881604869734,
64.0,67.75,29,0.75,Stimuli/P004/things_mat_02s.jpg,1,2,2.75,0,31,31,31,,,,,,,,,,,,,64.00696819999939,0.0069681999993918,4,2.4399865999985195,121.96086389999982,121.96086389999982,121.96086389999982,121.96086389999982,121.96086389999982,121.96086389999982,123.94598070000211,124.69666030000008,121.96086389999982,121.96086389999982,005,P004,2025_Jan_18_1408,ConditionRich,2021.2.3,59.911881604869734,
67.75,68.0,41,0.0,Stimuli/Blank.png,0,0,0.0,0,32,32,32,,,,,,,,,,,,,67.77572829999917,0.025728299999173032,None,,125.71416950000275,125.71416950000275,125.71416950000275,125.71416950000275,125.71416950000275,125.71416950000275,125.71416950000275,125.71416950000275,125.71416950000275,125.71416950000275,005,P004,2025_Jan_18_1408,ConditionRich,2021.2.3,59.911881604869734,
68.0,71.75,28,0.75,Stimuli/P004/things_man_02s.jpg,0,0,0.0,0,33,33,33,,,,,,,,,,,,,68.00892489999751,0.008924899997509783,5,1.9734254000031797,125.94771100000071,125.94771100000071,125.94771100000071,125.94771100000071,125.94771100000071,125.94771100000071,125.94771100000071,125.94771100000071,125.94771100000071,125.94771100000071,005,P004,2025_Jan_18_1408,ConditionRich,2021.2.3,59.911881604869734,
71.75,72.0,41,0.0,Stimuli/Blank.png,0,0,0.0,0,34,34,34,,,,,,,,,,,,,71.76200679999965,0.012006799999653595,None,,129.70101110000178,129.70101110000178,129.70101110000178,129.70101110000178,129.70101110000178,129.70101110000178,129.70101110000178,129.70101110000178,129.70101110000178,129.70101110000178,005,P004,2025_Jan_18_1408,ConditionRich,2021.2.3,59.911881604869734,
72.0,75.75,25,0.75,Stimuli/P004/things_girl_02s.jpg,0,0,0.0,0,35,35,35,,,,,,,,,,,,,72.01225229999909,0.01225229999909061,5,1.952922699998453,129.96792910000295,129.96792910000295,129.96792910000295,129.96792910000295,129.96792910000295,129.96792910000295,129.96792910000295,129.96792910000295,129.96792910000295,129.96792910000295,005,P004,2025_Jan_18_1408,ConditionRich,2021.2.3,59.911881604869734,
75.75,76.0,41,0.0,Stimuli/Blank.png,0,0,0.0,0,36,36,36,,,,,,,,,,,,,75.78244839999752,0.03244839999752003,None,,133.72121620000325,133.72121620000325,133.72121620000325,133.72121620000325,133.72121620000325,133.72121620000325,133.72121620000325,133.72121620000325,133.72121620000325,133.72121620000325,005,P004,2025_Jan_18_1408,ConditionRich,2021.2.3,59.911881604869734,
76.0,79.75,20,0.75,Stimuli/P004/sun_bwytihadgigwkyht.jpg,0,0,0.0,0,37,37,37,,,,,,,,,,,,,76.00124610000057,0.0012461000005714595,5,1.9661691000001156,133.95477440000104,133.95477440000104,133.95477440000104,133.95477440000104,133.95477440000104,133.95477440000104,133.95477440000104,133.95477440000104,133.95477440000104,133.95477440000104,005,P004,2025_Jan_18_1408,ConditionRich,2021.2.3,59.911881604869734,
79.75,80.0,41,0.0,Stimuli/Blank.png,0,0,0.0,0,38,38,38,,,,,,,,,,,,,79.77117949999956,0.021179499999561813,5,0.19609859999764012,137.72475010000198,137.72475010000198,137.72475010000198,137.72475010000198,137.72475010000198,137.72475010000198,137.72475010000198,137.72475010000198,137.72475010000198,137.72475010000198,005,P004,2025_Jan_18_1408,ConditionRich,2021.2.3,59.911881604869734,
80.0,83.75,3,0.75,Stimuli/P004/sun_afqjzrocqhabifao.jpg,0,0,0.0,0,39,39,39,,,,,,,,,,,,,80.02029419999963,0.020294199999625562,5,1.9460220000000845,137.97496030000184,137.97496030000184,137.97496030000184,137.97496030000184,137.97496030000184,137.97496030000184,137.97496030000184,137.97496030000184,137.97496030000184,137.97496030000184,005,P004,2025_Jan_18_1408,ConditionRich,2021.2.3,59.911881604869734,
83.75,84.0,41,0.0,Stimuli/Blank.png,0,0,0.0,0,40,40,40,,,,,,,,,,,,,83.77339989999746,0.023399899997457396,None,,141.7115844,141.7115844,141.7115844,141.7115844,141.7115844,141.7115844,141.7115844,141.7115844,141.7115844,141.7115844,005,P004,2025_Jan_18_1408,ConditionRich,2021.2.3,59.911881604869734,
84.0,100.0,0,0.0,Stimuli/Blank.png,1,4,4.75,0,41,41,41,,,,,,,,,,,,,84.0066012999996,0.006601299999601906,5,13.975669000003109,141.94511980000243,141.94511980000243,141.94511980000243,141.94511980000243,141.94511980000243,141.94511980000243,145.93192650000128,146.68262120000145,141.94511980000243,141.94511980000243,005,P004,2025_Jan_18_1408,ConditionRich,2021.2.3,59.911881604869734,
100.0,103.75,40,0.75,Stimuli/P004/things_woman_02s.jpg,0,0,0.0,0,42,42,42,,,,,,,,,,,,,100.00597049999851,0.005970499998511514,5,1.9615262000006624,157.95920220000335,157.95920220000335,157.95920220000335,157.95920220000335,157.95920220000335,157.95920220000335,157.95920220000335,157.95920220000335,157.95920220000335,157.95920220000335,005,P004,2025_Jan_18_1408,ConditionRich,2021.2.3,59.911881604869734,
103.75,104.0,41,0.0,Stimuli/Blank.png,0,0,0.0,0,43,43,43,,,,,,,,,,,,,103.77594129999852,0.025941299998521572,5,0.19150749999971595,161.7292112000032,161.7292112000032,161.7292112000032,161.7292112000032,161.7292112000032,161.7292112000032,161.7292112000032,161.7292112000032,161.7292112000032,161.7292112000032,005,P004,2025_Jan_18_1408,ConditionRich,2021.2.3,59.911881604869734,
104.0,107.75,37,0.75,Stimuli/P004/things_ski_lift_02s.jpg,0,0,0.0,0,44,44,44,,,,,,,,,,,,,104.02481369999805,0.024813699998048833,5,1.9582558000001882,161.9627442000019,161.9627442000019,161.9627442000019,161.9627442000019,161.9627442000019,161.9627442000019,161.9627442000019,161.9627442000019,161.9627442000019,161.9627442000019,005,P004,2025_Jan_18_1408,ConditionRich,2021.2.3,59.911881604869734,
107.75,108.0,41,0.0,Stimuli/Blank.png,0,0,0.0,0,45,45,45,,,,,,,,,,,,,107.76121929999863,0.01121929999862914,None,,165.69937650000065,165.69937650000065,165.69937650000065,165.69937650000065,165.69937650000065,165.69937650000065,165.69937650000065,165.69937650000065,165.69937650000065,165.69937650000065,005,P004,2025_Jan_18_1408,ConditionRich,2021.2.3,59.911881604869734,
108.0,111.75,14,0.75,Stimuli/P004/sun_bhhtrmwvoadbfucw.jpg,0,0,0.0,0,46,46,46,,,,,,,,,,,,,108.0108438999996,0.010843899999599671,5,1.9711735000018962,165.94960950000313,165.94960950000313,165.94960950000313,165.94960950000313,165.94960950000313,165.94960950000313,165.94960950000313,165.94960950000313,165.94960950000313,165.94960950000313,005,P004,2025_Jan_18_1408,ConditionRich,2021.2.3,59.911881604869734,
111.75,112.0,41,0.0,Stimuli/Blank.png,0,0,0.0,0,47,47,47,,,,,,,,,,,,,111.76568209999823,0.015682099998230115,5,0.20112520000111545,169.71961120000196,169.71961120000196,169.71961120000196,169.71961120000196,169.71961120000196,169.71961120000196,169.71961120000196,169.71961120000196,169.71961120000196,169.71961120000196,005,P004,2025_Jan_18_1408,ConditionRich,2021.2.3,59.911881604869734,
112.0,115.75,2,0.75,Stimuli/P004/sun_afijjzyziczoqdhz.jpg,0,0,0.0,0,48,48,48,,,,,,,,,,,,,112.01472730000023,0.01472730000023148,5,1.9509866000007605,169.9698152000019,169.9698152000019,169.9698152000019,169.9698152000019,169.9698152000019,169.9698152000019,169.9698152000019,169.9698152000019,169.9698152000019,169.9698152000019,005,P004,2025_Jan_18_1408,ConditionRich,2021.2.3,59.911881604869734,
115.75,116.0,41,0.0,Stimuli/Blank.png,0,0,0.0,0,49,49,49,,,,,,,,,,,,,115.76773929999763,0.017739299997629132,None,,173.70641980000073,173.70641980000073,173.70641980000073,173.70641980000073,173.70641980000073,173.70641980000073,173.70641980000073,173.70641980000073,173.70641980000073,173.70641980000073,005,P004,2025_Jan_18_1408,ConditionRich,2021.2.3,59.911881604869734,
116.0,119.75,12,0.75,Stimuli/P004/sun_bcboctumoxwpdefl.jpg,1,2,2.75,0,50,50,50,,,,,,,,,,,,,116.00203839999813,0.0020383999981277157,4,2.524067099999229,173.95663530000093,173.95663530000093,173.95663530000093,173.95663530000093,173.95663530000093,173.95663530000093,175.9250862000008,176.6757329000029,173.95663530000093,173.95663530000093,005,P004,2025_Jan_18_1408,ConditionRich,2021.2.3,59.911881604869734,
119.75,120.0,41,0.0,Stimuli/Blank.png,0,0,0.0,0,51,51,51,,,,,,,,,,,,,119.77169599999979,0.021695999999792548,None,,177.70994950000022,177.70994950000022,177.70994950000022,177.70994950000022,177.70994950000022,177.70994950000022,177.70994950000022,177.70994950000022,177.70994950000022,177.70994950000022,005,P004,2025_Jan_18_1408,ConditionRich,2021.2.3,59.911881604869734,
120.0,123.75,1,0.75,Stimuli/P004/sun_adgmtzznutwlescq.jpg,0,0,0.0,0,52,52,52,,,,,,,,,,,,,120.00532380000004,0.005323800000041956,5,1.9605049999991024,177.96014800000194,177.96014800000194,177.96014800000194,177.96014800000194,177.96014800000194,177.96014800000194,177.96014800000194,177.96014800000194,177.96014800000194,177.96014800000194,005,P004,2025_Jan_18_1408,ConditionRich,2021.2.3,59.911881604869734,
123.75,124.0,41,0.0,Stimuli/Blank.png,0,0,0.0,0,53,53,53,,,,,,,,,,,,,123.77557299999899,0.025572999998985324,None,,181.71346489999996,181.71346489999996,181.71346489999996,181.71346489999996,181.71346489999996,181.71346489999996,181.71346489999996,181.71346489999996,181.71346489999996,181.71346489999996,005,P004,2025_Jan_18_1408,ConditionRich,2021.2.3,59.911881604869734,
124.0,127.75,27,0.75,Stimuli/P004/things_llama_02s.jpg,0,0,0.0,0,54,54,54,,,,,,,,,,,,,124.0083252000004,0.00832520000039949,5,1.9739245000018855,181.94697280000037,181.94697280000037,181.94697280000037,181.94697280000037,181.94697280000037,181.94697280000037,181.94697280000037,181.94697280000037,181.94697280000037,181.94697280000037,005,P004,2025_Jan_18_1408,ConditionRich,2021.2.3,59.911881604869734,
127.75,128.0,41,0.0,Stimuli/Blank.png,0,0,0.0,0,55,55,55,,,,,,,,,,,,,127.76204169999983,0.01204169999982696,None,,185.70030279999992,185.70030279999992,185.70030279999992,185.70030279999992,185.70030279999992,185.70030279999992,185.70030279999992,185.70030279999992,185.70030279999992,185.70030279999992,005,P004,2025_Jan_18_1408,ConditionRich,2021.2.3,59.911881604869734,
128.0,131.75,4,0.75,Stimuli/P004/sun_albtqdieqkajejrg.jpg,0,0,0.0,0,56,56,56,,,,,,,,,,,,,128.0122014999979,0.0122014999979001,5,1.9701065000008384,185.9505201000029,185.9505201000029,185.9505201000029,185.9505201000029,185.9505201000029,185.9505201000029,185.9505201000029,185.9505201000029,185.9505201000029,185.9505201000029,005,P004,2025_Jan_18_1408,ConditionRich,2021.2.3,59.911881604869734,
131.75,132.0,41,0.0,Stimuli/Blank.png,0,0,0.0,0,57,57,57,,,,,,,,,,,,,131.76527759999954,0.015277599999535596,5,0.21684640000239597,189.70382800000152,189.70382800000152,189.70382800000152,189.70382800000152,189.70382800000152,189.70382800000152,189.70382800000152,189.70382800000152,189.70382800000152,189.70382800000152,005,P004,2025_Jan_18_1408,ConditionRich,2021.2.3,59.911881604869734,
132.0,135.75,23,0.75,Stimuli/P004/things_butterfly_02s.jpg,1,1,1.75,0,58,58,58,,,,,,,,,,,,,132.01495739999882,0.01495739999882062,5,1.966711099998065,189.95404899999994,189.95404899999994,189.95404899999994,189.95404899999994,189.95404899999994,189.95404899999994,190.9382809000017,191.68904509999993,189.95404899999994,189.95404899999994,005,P004,2025_Jan_18_1408,ConditionRich,2021.2.3,59.911881604869734,
135.75,136.0,41,0.0,Stimuli/Blank.png,0,0,0.0,0,59,59,59,,,,,,,,,,,,,135.75173799999902,0.001737999999022577,None,,193.6906686000002,193.6906686000002,193.6906686000002,193.6906686000002,193.6906686000002,193.6906686000002,193.6906686000002,193.6906686000002,193.6906686000002,193.6906686000002,005,P004,2025_Jan_18_1408,ConditionRich,2021.2.3,59.911881604869734,
136.0,139.75,22,0.75,Stimuli/P004/things_boy_02s.jpg,0,0,0.0,0,60,60,60,,,,,,,,,,,,,136.002277399999,0.0022773999990022276,5,1.979726000001392,193.94092300000193,193.94092300000193,193.94092300000193,193.94092300000193,193.94092300000193,193.94092300000193,193.94092300000193,193.94092300000193,193.94092300000193,193.94092300000193,005,P004,2025_Jan_18_1408,ConditionRich,2021.2.3,59.911881604869734,
139.75,140.0,41,0.0,Stimuli/Blank.png,0,0,0.0,0,61,61,61,,,,,,,,,,,,,139.75610659999802,0.006106599998020101,None,,197.69420730000274,197.69420730000274,197.69420730000274,197.69420730000274,197.69420730000274,197.69420730000274,197.69420730000274,197.69420730000274,197.69420730000274,197.69420730000274,005,P004,2025_Jan_18_1408,ConditionRich,2021.2.3,59.911881604869734,
140.0,143.75,33,0.75,Stimuli/P004/things_recorder_02s.jpg,0,0,0.0,0,62,62,62,,,,,,,,,,,,,140.00653740000052,0.00653740000052494,5,1.959468699998979,197.96109910000087,197.96109910000087,197.96109910000087,197.96109910000087,197.96109910000087,197.96109910000087,197.96109910000087,197.96109910000087,197.96109910000087,197.96109910000087,005,P004,2025_Jan_18_1408,ConditionRich,2021.2.3,59.911881604869734,
143.75,144.0,41,0.0,Stimuli/Blank.png,0,0,0.0,0,63,63,63,,,,,,,,,,,,,143.77519589999793,0.025195899997925153,None,,201.71439660000033,201.71439660000033,201.71439660000033,201.71439660000033,201.71439660000033,201.71439660000033,201.71439660000033,201.71439660000033,201.71439660000033,201.71439660000033,005,P004,2025_Jan_18_1408,ConditionRich,2021.2.3,59.911881604869734,
144.0,147.75,17,0.75,Stimuli/P004/sun_bojovhhraxtgafcy.jpg,0,0,0.0,0,64,64,64,,,,,,,,,,,,,144.00948919999792,0.00948919999791542,5,1.9726940000000468,201.9479373000031,201.9479373000031,201.9479373000031,201.9479373000031,201.9479373000031,201.9479373000031,201.9479373000031,201.9479373000031,201.9479373000031,201.9479373000031,005,P004,2025_Jan_18_1408,ConditionRich,2021.2.3,59.911881604869734,
147.75,148.0,41,0.0,Stimuli/Blank.png,0,0,0.0,0,65,65,65,,,,,,,,,,,,,147.7622343999974,0.012234399997396395,None,,205.70124300000316,205.70124300000316,205.70124300000316,205.70124300000316,205.70124300000316,205.70124300000316,205.70124300000316,205.70124300000316,205.70124300000316,205.70124300000316,005,P004,2025_Jan_18_1408,ConditionRich,2021.2.3,59.911881604869734,
148.0,151.75,35,0.75,Stimuli/P004/things_satellite_dish_02s.jpg,0,0,0.0,0,66,66,66,,,,,,,,,,,,,148.01226680000036,0.0122668000003614,5,1.9691558000013174,205.9514709000032,205.9514709000032,205.9514709000032,205.9514709000032,205.9514709000032,205.9514709000032,205.9514709000032,205.9514709000032,205.9514709000032,205.9514709000032,005,P004,2025_Jan_18_1408,ConditionRich,2021.2.3,59.911881604869734,
151.75,152.0,41,0.0,Stimuli/Blank.png,0,0,0.0,0,67,67,67,,,,,,,,,,,,,151.75005500000043,5.500000042957254e-05,None,,209.6887564000026,209.6887564000026,209.6887564000026,209.6887564000026,209.6887564000026,209.6887564000026,209.6887564000026,209.6887564000026,209.6887564000026,209.6887564000026,005,P004,2025_Jan_18_1408,ConditionRich,2021.2.3,59.911881604869734,
152.0,155.75,16,0.75,Stimuli/P004/sun_bjuoemgleyaogrmw.jpg,0,0,0.0,0,68,68,68,,,,,,,,,,,,,151.9992519999978,-0.0007480000022042077,5,1.9822413000001688,209.93834960000095,209.93834960000095,209.93834960000095,209.93834960000095,209.93834960000095,209.93834960000095,209.93834960000095,209.93834960000095,209.93834960000095,209.93834960000095,005,P004,2025_Jan_18_1408,ConditionRich,2021.2.3,59.911881604869734,
155.75,156.0,41,0.0,Stimuli/Blank.png,0,0,0.0,0,69,69,69,,,,,,,,,,,,,155.7530831999975,0.0030831999974907376,None,,213.69160530000227,213.69160530000227,213.69160530000227,213.69160530000227,213.69160530000227,213.69160530000227,213.69160530000227,213.69160530000227,213.69160530000227,213.69160530000227,005,P004,2025_Jan_18_1408,ConditionRich,2021.2.3,59.911881604869734,
156.0,159.75,8,0.75,Stimuli/P004/sun_asxkyzleyfgbqfrs.jpg,0,0,0.0,0,70,70,70,,,,,,,,,,,,,156.0028538000006,0.0028538000005937647,5,1.9622124000015901,213.95850920000157,213.95850920000157,213.95850920000157,213.95850920000157,213.95850920000157,213.95850920000157,213.95850920000157,213.95850920000157,213.95850920000157,213.95850920000157,005,P004,2025_Jan_18_1408,ConditionRich,2021.2.3,59.911881604869734,
159.75,160.0,41,0.0,Stimuli/Blank.png,0,0,0.0,0,71,71,71,,,,,,,,,,,,,159.77571869999883,0.025718699998833472,5,0.19200030000138213,217.728497600001,217.728497600001,217.728497600001,217.728497600001,217.728497600001,217.728497600001,217.728497600001,217.728497600001,217.728497600001,217.728497600001,005,P004,2025_Jan_18_1408,ConditionRich,2021.2.3,59.911881604869734,
160.0,163.75,13,0.75,Stimuli/P004/sun_bhbiqbqmwrowrqpd.jpg,1,3,3.75,0,72,72,72,,,,,,,,,,,,,160.02313270000013,0.0231327000001329,4,3.3894213999992644,217.9620367000025,217.9620367000025,217.9620367000025,217.9620367000025,217.9620367000025,217.9620367000025,220.94799520000015,None,217.9620367000025,217.9620367000025,005,P004,2025_Jan_18_1408,ConditionRich,2021.2.3,59.911881604869734,
163.75,164.0,41,0.0,Stimuli/Blank.png,0,0,0.0,0,73,73,73,,,,,,,,,,,,,163.7601469000001,0.010146900000108872,None,,221.69865600000048,221.69865600000048,221.69865600000048,221.69865600000048,221.69865600000048,221.69865600000048,221.69865600000048,221.69865600000048,221.69865600000048,221.69865600000048,005,P004,2025_Jan_18_1408,ConditionRich,2021.2.3,59.911881604869734,
164.0,167.75,19,0.75,Stimuli/P004/sun_bucebxfexknakpma.jpg,0,0,0.0,0,74,74,74,,,,,,,,,,,,,164.0108137999996,0.010813799999596085,5,1.9548856000001251,221.96555680000165,221.96555680000165,221.96555680000165,221.96555680000165,221.96555680000165,221.96555680000165,221.96555680000165,221.96555680000165,221.96555680000165,221.96555680000165,005,P004,2025_Jan_18_1408,ConditionRich,2021.2.3,59.911881604869734,
167.75,168.0,41,0.0,Stimuli/Blank.png,0,0,0.0,0,75,75,75,,,,,,,,,,,,,167.78098709999904,0.030987099999038037,None,,225.71886280000035,225.71886280000035,225.71886280000035,225.71886280000035,225.71886280000035,225.71886280000035,225.71886280000035,225.71886280000035,225.71886280000035,225.71886280000035,005,P004,2025_Jan_18_1408,ConditionRich,2021.2.3,59.911881604869734,
168.0,171.75,9,0.75,Stimuli/P004/sun_auqtrqkaobyprnjy.jpg,1,2,2.75,0,76,76,76,,,,,,,,,,,,,168.01359389999925,0.013593899999250425,4,2.2733753000029537,225.95239870000296,225.95239870000296,225.95239870000296,225.95239870000296,225.95239870000296,225.95239870000296,227.9377069000002,228.6881803000033,225.95239870000296,225.95239870000296,005,P004,2025_Jan_18_1408,ConditionRich,2021.2.3,59.911881604869734,
171.75,172.0,41,0.0,Stimuli/Blank.png,0,0,0.0,0,77,77,77,,,,,,,,,,,,,171.75134459999754,0.0013445999975374434,None,,229.6890302000029,229.6890302000029,229.6890302000029,229.6890302000029,229.6890302000029,229.6890302000029,229.6890302000029,229.6890302000029,229.6890302000029,229.6890302000029,005,P004,2025_Jan_18_1408,ConditionRich,2021.2.3,59.911881604869734,
172.0,175.75,7,0.75,Stimuli/P004/sun_asgixjtedklbawgm.jpg,0,0,0.0,0,78,78,78,,,,,,,,,,,,,172.0000564999973,5.6499997299397364e-05,5,1.9812955999987025,229.9392353000003,229.9392353000003,229.9392353000003,229.9392353000003,229.9392353000003,229.9392353000003,229.9392353000003,229.9392353000003,229.9392353000003,229.9392353000003,005,P004,2025_Jan_18_1408,ConditionRich,2021.2.3,59.911881604869734,
175.75,176.0,41,0.0,Stimuli/Blank.png,0,0,0.0,0,79,79,79,,,,,,,,,,,,,175.75612659999751,0.006126599997514859,5,0.21116199999960372,233.70926000000327,233.70926000000327,233.70926000000327,233.70926000000327,233.70926000000327,233.70926000000327,233.70926000000327,233.70926000000327,233.70926000000327,233.70926000000327,005,P004,2025_Jan_18_1408,ConditionRich,2021.2.3,59.911881604869734,
176.0,179.75,30,0.75,Stimuli/P004/things_music_box_02s.jpg,0,0,0.0,0,80,80,80,,,,,,,,,,,,,176.02097329999742,0.020973299997422146,5,1.9611932000007073,233.95944640000016,233.95944640000016,233.95944640000016,233.95944640000016,233.95944640000016,233.95944640000016,233.95944640000016,233.95944640000016,233.95944640000016,233.95944640000016,005,P004,2025_Jan_18_1408,ConditionRich,2021.2.3,59.911881604869734,
179.75,180.0,41,0.0,Stimuli/Blank.png,0,0,0.0,0,81,81,81,,,,,,,,,,,,,179.75705059999746,0.00705059999745572,None,,237.69606660000136,237.69606660000136,237.69606660000136,237.69606660000136,237.69606660000136,237.69606660000136,237.69606660000136,237.69606660000136,237.69606660000136,237.69606660000136,005,P004,2025_Jan_18_1408,ConditionRich,2021.2.3,59.911881604869734,
180.0,196.0,0,0.0,Stimuli/Blank.png,1,13,13.75,0,82,82,82,,,,,,,,,,,,,180.00726170000053,0.007261700000526616,5,13.974422299997968,237.9462609000002,237.9462609000002,237.9462609000002,237.9462609000002,237.9462609000002,237.9462609000002,250.924377000003,251.67509220000284,237.9462609000002,237.9462609000002,005,P004,2025_Jan_18_1408,ConditionRich,2021.2.3,59.911881604869734,
196.0,199.75,8,0.75,Stimuli/P004/sun_asxkyzleyfgbqfrs.jpg,0,0,0.0,0,83,83,83,,,,,,,,,,,,,196.00613969999904,0.006139699999039294,5,1.9599580000030983,253.9604048000001,253.9604048000001,253.9604048000001,253.9604048000001,253.9604048000001,253.9604048000001,253.9604048000001,253.9604048000001,253.9604048000001,253.9604048000001,005,P004,2025_Jan_18_1408,ConditionRich,2021.2.3,59.911881604869734,
199.75,200.0,41,0.0,Stimuli/Blank.png,0,0,0.0,0,84,84,84,,,,,,,,,,,,,199.77489439999772,0.02489439999772003,None,,257.71368840000287,257.71368840000287,257.71368840000287,257.71368840000287,257.71368840000287,257.71368840000287,257.71368840000287,257.71368840000287,257.71368840000287,257.71368840000287,005,P004,2025_Jan_18_1408,ConditionRich,2021.2.3,59.911881604869734,
200.0,203.75,25,0.75,Stimuli/P004/things_girl_02s.jpg,0,0,0.0,0,85,85,85,,,,,,,,,,,,,200.0103371999976,0.010337199997593416,5,1.9565021000016714,257.9639128000017,257.9639128000017,257.9639128000017,257.9639128000017,257.9639128000017,257.9639128000017,257.9639128000017,257.9639128000017,257.9639128000017,257.9639128000017,005,P004,2025_Jan_18_1408,ConditionRich,2021.2.3,59.911881604869734,
203.75,204.0,41,0.0,Stimuli/Blank.png,0,0,0.0,0,86,86,86,,,,,,,,,,,,,203.78054399999746,0.03054399999746238,5,0.18656109999938053,261.7339073000003,261.7339073000003,261.7339073000003,261.7339073000003,261.7339073000003,261.7339073000003,261.7339073000003,261.7339073000003,261.7339073000003,261.7339073000003,005,P004,2025_Jan_18_1408,ConditionRich,2021.2.3,59.911881604869734,
204.0,207.75,6,0.75,Stimuli/P004/sun_aoumkoxfhlaobjef.jpg,0,0,0.0,0,87,87,87,,,,,,,,,,,,,204.03087600000072,0.030876000000716886,5,1.9363344999983383,261.98411660000056,261.98411660000056,261.98411660000056,261.98411660000056,261.98411660000056,261.98411660000056,261.98411660000056,261.98411660000056,261.98411660000056,261.98411660000056,005,P004,2025_Jan_18_1408,ConditionRich,2021.2.3,59.911881604869734,
207.75,208.0,41,0.0,Stimuli/Blank.png,0,0,0.0,0,88,88,88,,,,,,,,,,,,,207.7661807000004,0.016180700000404613,None,,265.7040737000025,265.7040737000025,265.7040737000025,265.7040737000025,265.7040737000025,265.7040737000025,265.7040737000025,265.7040737000025,265.7040737000025,265.7040737000025,005,P004,2025_Jan_18_1408,ConditionRich,2021.2.3,59.911881604869734,
208.0,211.75,13,0.75,Stimuli/P004/sun_bhbiqbqmwrowrqpd.jpg,0,0,0.0,0,89,89,89,,,,,,,,,,,,,207.99908850000065,-0.0009114999993471429,5,1.982879099999991,265.937593300001,265.937593300001,265.937593300001,265.937593300001,265.937593300001,265.937593300001,265.937593300001,265.937593300001,265.937593300001,265.937593300001,005,P004,2025_Jan_18_1408,ConditionRich,2021.2.3,59.911881604869734,
211.75,212.0,41,0.0,Stimuli/Blank.png,0,0,0.0,0,90,90,90,,,,,,,,,,,,,211.75207020000016,0.0020702000001620036,None,,269.6908975000006,269.6908975000006,269.6908975000006,269.6908975000006,269.6908975000006,269.6908975000006,269.6908975000006,269.6908975000006,269.6908975000006,269.6908975000006,005,P004,2025_Jan_18_1408,ConditionRich,2021.2.3,59.911881604869734,
212.0,215.75,34,0.75,Stimuli/P004/things_roll_02s.jpg,0,0,0.0,0,91,91,91,,,,,,,,,,,,,212.00280709999788,0.0028070999978808686,5,1.9627130000008037,269.9578096000005,269.9578096000005,269.9578096000005,269.9578096000005,269.9578096000005,269.9578096000005,269.9578096000005,269.9578096000005,269.9578096000005,269.9578096000005,005,P004,2025_Jan_18_1408,ConditionRich,2021.2.3,59.911881604869734,
215.75,216.0,41,0.0,Stimuli/Blank.png,0,0,0.0,0,92,92,92,,,,,,,,,,,,,215.77283180000086,0.022831800000858493,None,,273.7111025000013,273.7111025000013,273.7111025000013,273.7111025000013,273.7111025000013,273.7111025000013,273.7111025000013,273.7111025000013,273.7111025000013,273.7111025000013,005,P004,2025_Jan_18_1408,ConditionRich,2021.2.3,59.911881604869734,
216.0,219.75,29,0.75,Stimuli/P004/things_mat_02s.jpg,1,3,3.75,0,93,93,93,,,,,,,,,,,,,216.00604549999844,0.006045499998435844,4,3.3616340999979,273.9446566000006,273.9446566000006,273.9446566000006,273.9446566000006,273.9446566000006,273.9446566000006,276.9306026000013,277.68126060000213,273.9446566000006,273.9446566000006,005,P004,2025_Jan_18_1408,ConditionRich,2021.2.3,59.911881604869734,
219.75,220.0,41,0.0,Stimuli/Blank.png,0,0,0.0,0,94,94,94,,,,,,,,,,,,,219.75914159999957,0.009141599999566097,None,,277.69794580000234,277.69794580000234,277.69794580000234,277.69794580000234,277.69794580000234,277.69794580000234,277.69794580000234,277.69794580000234,277.69794580000234,277.69794580000234,005,P004,2025_Jan_18_1408,ConditionRich,2021.2.3,59.911881604869734,
220.0,223.75,1,0.75,Stimuli/P004/sun_adgmtzznutwlescq.jpg,0,0,0.0,0,95,95,95,,,,,,,,,,,,,220.00928869999916,0.009288699999160599,5,1.972168899999815,277.9481583000015,277.9481583000015,277.9481583000015,277.9481583000015,277.9481583000015,277.9481583000015,277.9481583000015,277.9481583000015,277.9481583000015,277.9481583000015,005,P004,2025_Jan_18_1408,ConditionRich,2021.2.3,59.911881604869734,
223.75,224.0,41,0.0,Stimuli/Blank.png,0,0,0.0,0,96,96,96,,,,,,,,,,,,,223.76264339999761,0.012643399997614324,None,,281.70146990000285,281.70146990000285,281.70146990000285,281.70146990000285,281.70146990000285,281.70146990000285,281.70146990000285,281.70146990000285,281.70146990000285,281.70146990000285,005,P004,2025_Jan_18_1408,ConditionRich,2021.2.3,59.911881604869734,
224.0,227.75,20,0.75,Stimuli/P004/sun_bwytihadgigwkyht.jpg,1,2,2.75,0,97,97,97,,,,,,,,,,,,,224.01521919999868,0.015219199998682598,4,2.3902434000010544,281.96837080000114,281.96837080000114,281.96837080000114,281.96837080000114,281.96837080000114,281.96837080000114,283.95345590000215,284.7041156000014,281.96837080000114,281.96837080000114,005,P004,2025_Jan_18_1408,ConditionRich,2021.2.3,59.911881604869734,
227.75,228.0,41,0.0,Stimuli/Blank.png,0,0,0.0,0,98,98,98,,,,,,,,,,,,,227.76654459999918,0.0165445999991789,None,,285.7049842000015,285.7049842000015,285.7049842000015,285.7049842000015,285.7049842000015,285.7049842000015,285.7049842000015,285.7049842000015,285.7049842000015,285.7049842000015,005,P004,2025_Jan_18_1408,ConditionRich,2021.2.3,59.911881604869734,
228.0,231.75,4,0.75,Stimuli/P004/sun_albtqdieqkajejrg.jpg,0,0,0.0,0,99,99,99,,,,,,,,,,,,,227.9997932999977,-0.00020670000230893493,5,1.9828144999992219,285.9385340000008,285.9385340000008,285.9385340000008,285.9385340000008,285.9385340000008,285.9385340000008,285.9385340000008,285.9385340000008,285.9385340000008,285.9385340000008,005,P004,2025_Jan_18_1408,ConditionRich,2021.2.3,59.911881604869734,
231.75,232.0,41,0.0,Stimuli/Blank.png,0,0,0.0,0,100,100,100,,,,,,,,,,,,,231.75569859999814,0.005698599998140708,5,0.21295139999710955,289.7085095000002,289.7085095000002,289.7085095000002,289.7085095000002,289.7085095000002,289.7085095000002,289.7085095000002,289.7085095000002,289.7085095000002,289.7085095000002,005,P004,2025_Jan_18_1408,ConditionRich,2021.2.3,59.911881604869734,
232.0,235.75,30,0.75,Stimuli/P004/things_music_box_02s.jpg,1,3,3.75,0,101,101,101,,,,,,,,,,,,,232.02009619999808,0.0200961999980791,4,3.3356856999998854,289.95873740000025,289.95873740000025,289.95873740000025,289.95873740000025,289.95873740000025,289.95873740000025,292.9446913000029,None,289.95873740000025,289.95873740000025,005,P004,2025_Jan_18_1408,ConditionRich,2021.2.3,59.911881604869734,
235.75,236.0,41,0.0,Stimuli/Blank.png,0,0,0.0,0,102,102,102,,,,,,,,,,,,,235.7571825999985,0.007182599998486694,None,,293.6953769000029,293.6953769000029,293.6953769000029,293.6953769000029,293.6953769000029,293.6953769000029,293.6953769000029,293.6953769000029,293.6953769000029,293.6953769000029,005,P004,2025_Jan_18_1408,ConditionRich,2021.2.3,59.911881604869734,
236.0,239.75,31,0.75,Stimuli/P004/things_pea_02s.jpg,0,0,0.0,0,103,103,103,,,,,,,,,,,,,236.00681500000064,0.006815000000642613,5,1.975967700000183,293.9455752000031,293.9455752000031,293.9455752000031,293.9455752000031,293.9455752000031,293.9455752000031,293.9455752000031,293.9455752000031,293.9455752000031,293.9455752000031,005,P004,2025_Jan_18_1408,ConditionRich,2021.2.3,59.911881604869734,
239.75,240.0,41,0.0,Stimuli/Blank.png,0,0,0.0,0,104,104,104,,,,,,,,,,,,,239.76108229999954,0.011082299999543466,None,,297.69888320000246,297.69888320000246,297.69888320000246,297.69888320000246,297.69888320000246,297.69888320000246,297.69888320000246,297.69888320000246,297.69888320000246,297.69888320000246,005,P004,2025_Jan_18_1408,ConditionRich,2021.2.3,59.911881604869734,
240.0,243.75,3,0.75,Stimuli/P004/sun_afqjzrocqhabifao.jpg,0,0,0.0,0,105,105,105,,,,,,,,,,,,,240.009908,0.009907999999995809,None,,297.94909760000155,297.94909760000155,297.94909760000155,297.94909760000155,297.94909760000155,297.94909760000155,297.94909760000155,297.94909760000155,297.94909760000155,297.94909760000155,005,P004,2025_Jan_18_1408,ConditionRich,2021.2.3,59.911881604869734,
243.75,244.0,41,0.0,Stimuli/Blank.png,0,0,0.0,0,106,106,106,,,,,,,,,,,,,243.7652436999997,0.015243699999700766,5,0.20222759999887785,301.7190934999999,301.7190934999999,301.7190934999999,301.7190934999999,301.7190934999999,301.7190934999999,301.7190934999999,301.7190934999999,301.7190934999999,301.7190934999999,005,P004,2025_Jan_18_1408,ConditionRich,2021.2.3,59.911881604869734,
244.0,247.75,19,0.75,Stimuli/P004/sun_bucebxfexknakpma.jpg,0,0,0.0,0,107,107,107,,,,,,,,,,,,,244.03114640000058,0.031146400000579888,5,1.9355189000016253,301.9860174000023,301.9860174000023,301.9860174000023,301.9860174000023,301.9860174000023,301.9860174000023,301.9860174000023,301.9860174000023,301.9860174000023,301.9860174000023,005,P004,2025_Jan_18_1408,ConditionRich,2021.2.3,59.911881604869734,
247.75,248.0,41,0.0,Stimuli/Blank.png,0,0,0.0,0,108,108,108,,,,,,,,,,,,,247.76683530000082,0.016835300000821007,None,,305.7059229000006,305.7059229000006,305.7059229000006,305.7059229000006,305.7059229000006,305.7059229000006,305.7059229000006,305.7059229000006,305.7059229000006,305.7059229000006,005,P004,2025_Jan_18_1408,ConditionRich,2021.2.3,59.911881604869734,
248.0,251.75,37,0.75,Stimuli/P004/things_ski_lift_02s.jpg,0,0,0.0,0,109,109,109,,,,,,,,,,,,,248.00178479999886,0.0017847999988589436,5,1.9650621000000683,305.95614750000095,305.95614750000095,305.95614750000095,305.95614750000095,305.95614750000095,305.95614750000095,305.95614750000095,305.95614750000095,305.95614750000095,305.95614750000095,005,P004,2025_Jan_18_1408,ConditionRich,2021.2.3,59.911881604869734,
251.75,252.0,41,0.0,Stimuli/Blank.png,0,0,0.0,0,110,110,110,,,,,,,,,,,,,251.77181049999854,0.021810499998537125,5,0.19503180000174325,309.7261546000009,309.7261546000009,309.7261546000009,309.7261546000009,309.7261546000009,309.7261546000009,309.7261546000009,309.7261546000009,309.7261546000009,309.7261546000009,005,P004,2025_Jan_18_1408,ConditionRich,2021.2.3,59.911881604869734,
252.0,255.75,40,0.75,Stimuli/P004/things_woman_02s.jpg,0,0,0.0,0,111,111,111,,,,,,,,,,,,,252.0207064999995,0.020706499999505468,5,1.9616424000014376,309.9596769000018,309.9596769000018,309.9596769000018,309.9596769000018,309.9596769000018,309.9596769000018,309.9596769000018,309.9596769000018,309.9596769000018,309.9596769000018,005,P004,2025_Jan_18_1408,ConditionRich,2021.2.3,59.911881604869734,
255.75,256.0,41,0.0,Stimuli/Blank.png,0,0,0.0,0,112,112,112,,,,,,,,,,,,,255.75863079999908,0.008630799999082228,None,,313.6963093000013,313.6963093000013,313.6963093000013,313.6963093000013,313.6963093000013,313.6963093000013,313.6963093000013,313.6963093000013,313.6963093000013,313.6963093000013,005,P004,2025_Jan_18_1408,ConditionRich,2021.2.3,59.911881604869734,
256.0,259.75,5,0.75,Stimuli/P004/sun_amnnxdwfjbdfumns.jpg,0,0,0.0,0,113,113,113,,,,,,,,,,,,,256.00832699999955,0.008326999999553664,5,1.9581516999969608,313.9631921,313.9631921,313.9631921,313.9631921,313.9631921,313.9631921,313.9631921,313.9631921,313.9631921,313.9631921,005,P004,2025_Jan_18_1408,ConditionRich,2021.2.3,59.911881604869734,
259.75,260.0,41,0.0,Stimuli/Blank.png,0,0,0.0,0,114,114,114,,,,,,,,,,,,,259.78045129999737,0.030451299997366732,5,0.1879771999992954,317.73320610000155,317.73320610000155,317.73320610000155,317.73320610000155,317.73320610000155,317.73320610000155,317.73320610000155,317.73320610000155,317.73320610000155,317.73320610000155,005,P004,2025_Jan_18_1408,ConditionRich,2021.2.3,59.911881604869734,
260.0,263.75,2,0.75,Stimuli/P004/sun_afijjzyziczoqdhz.jpg,1,0,0.75,0,115,115,115,,,,,,,,,,,,,260.0307536,0.03075360000002547,5,1.9378849000022456,317.9834090000004,317.9834090000004,317.9834090000004,317.9834090000004,317.9834090000004,317.9834090000004,317.9834090000004,318.71744740000213,317.9834090000004,317.9834090000004,005,P004,2025_Jan_18_1408,ConditionRich,2021.2.3,59.911881604869734,
263.75,264.0,41,0.0,Stimuli/Blank.png,0,0,0.0,0,116,116,116,,,,,,,,,,,,,263.7653948999978,0.015394899997772882,5,0.21794149999914225,321.703346600003,321.703346600003,321.703346600003,321.703346600003,321.703346600003,321.703346600003,321.703346600003,321.703346600003,321.703346600003,321.703346600003,005,P004,2025_Jan_18_1408,ConditionRich,2021.2.3,59.911881604869734,
264.0,267.75,28,0.75,Stimuli/P004/things_man_02s.jpg,1,0,0.75,0,117,117,117,,,,,,,,,,,,,264.0155343000006,0.015534300000581425,5,1.9677076000007219,321.9535558000025,321.9535558000025,321.9535558000025,321.9535558000025,321.9535558000025,321.9535558000025,321.9535558000025,322.6875660000005,321.9535558000025,321.9535558000025,005,P004,2025_Jan_18_1408,ConditionRich,2021.2.3,59.911881604869734,
267.75,268.0,41,0.0,Stimuli/Blank.png,0,0,0.0,0,118,118,118,,,,,,,,,,,,,267.7515182999996,0.0015182999995886348,None,,325.6901994,325.6901994,325.6901994,325.6901994,325.6901994,325.6901994,325.6901994,325.6901994,325.6901994,325.6901994,005,P004,2025_Jan_18_1408,ConditionRich,2021.2.3,59.911881604869734,
268.0,271.75,15,0.75,Stimuli/P004/sun_bjhtdevvocmwtavk.jpg,0,0,0.0,0,119,119,119,,,,,,,,,,,,,268.0018412999998,0.0018412999997963198,5,1.9808869999978924,325.94040099999984,325.94040099999984,325.94040099999984,325.94040099999984,325.94040099999984,325.94040099999984,325.94040099999984,325.94040099999984,325.94040099999984,325.94040099999984,005,P004,2025_Jan_18_1408,ConditionRich,2021.2.3,59.911881604869734,
271.75,272.0,41,0.0,Stimuli/Blank.png,0,0,0.0,0,120,120,120,,,,,,,,,,,,,271.7551246999974,0.00512469999739551,None,,329.6937106000005,329.6937106000005,329.6937106000005,329.6937106000005,329.6937106000005,329.6937106000005,329.6937106000005,329.6937106000005,329.6937106000005,329.6937106000005,005,P004,2025_Jan_18_1408,ConditionRich,2021.2.3,59.911881604869734,
272.0,275.75,7,0.75,Stimuli/P004/sun_asgixjtedklbawgm.jpg,0,0,0.0,0,121,121,121,,,,,,,,,,,,,272.00543769999786,0.005437699997855816,5,1.9771830000026966,329.9439250000032,329.9439250000032,329.9439250000032,329.9439250000032,329.9439250000032,329.9439250000032,329.9439250000032,329.9439250000032,329.9439250000032,329.9439250000032,005,P004,2025_Jan_18_1408,ConditionRich,2021.2.3,59.911881604869734,
275.75,276.0,41,0.0,Stimuli/Blank.png,0,0,0.0,0,122,122,122,,,,,,,,,,,,,275.7603479999998,0.01034799999979441,5,0.20753169999807142,333.7139393000034,333.7139393000034,333.7139393000034,333.7139393000034,333.7139393000034,333.7139393000034,333.7139393000034,333.7139393000034,333.7139393000034,333.7139393000034,005,P004,2025_Jan_18_1408,ConditionRich,2021.2.3,59.911881604869734,
276.0,292.0,0,0.0,Stimuli/Blank.png,1,9,9.75,0,123,123,123,,,,,,,,,,,,,276.02615709999736,0.02615709999736282,5,13.956961299998511,333.9641448000002,333.9641448000002,333.9641448000002,333.9641448000002,333.9641448000002,333.9641448000002,342.95538950000264,343.7060425000018,333.9641448000002,333.9641448000002,005,P004,2025_Jan_18_1408,ConditionRich,2021.2.3,59.911881604869734,
292.0,295.75,12,0.75,Stimuli/P004/sun_bcboctumoxwpdefl.jpg,0,0,0.0,0,124,124,124,,,,,,,,,,,,,292.0065055999985,0.006505599998490652,5,1.9764678000028653,349.9448681000031,349.9448681000031,349.9448681000031,349.9448681000031,349.9448681000031,349.9448681000031,349.9448681000031,349.9448681000031,349.9448681000031,349.9448681000031,005,P004,2025_Jan_18_1408,ConditionRich,2021.2.3,59.911881604869734,
295.75,296.0,41,0.0,Stimuli/Blank.png,0,0,0.0,0,125,125,125,,,,,,,,,,,,,295.75945929999943,0.009459299999434734,None,,353.69817380000313,353.69817380000313,353.69817380000313,353.69817380000313,353.69817380000313,353.69817380000313,353.69817380000313,353.69817380000313,353.69817380000313,353.69817380000313,005,P004,2025_Jan_18_1408,ConditionRich,2021.2.3,59.911881604869734,
296.0,299.75,36,0.75,Stimuli/P004/things_sea_urchin_02s.jpg,1,3,3.75,0,126,126,126,,,,,,,,,,,,,296.0095760999975,0.009576099997502752,4,3.3836890999991738,353.948389600002,353.948389600002,353.948389600002,353.948389600002,353.948389600002,353.948389600002,356.9343503000018,357.684974900003,353.948389600002,353.948389600002,005,P004,2025_Jan_18_1408,ConditionRich,2021.2.3,59.911881604869734,
299.75,300.0,41,0.0,Stimuli/Blank.png,0,0,0.0,0,127,127,127,,,,,,,,,,,,,299.76261239999803,0.012612399998033652,None,,357.7016967000018,357.7016967000018,357.7016967000018,357.7016967000018,357.7016967000018,357.7016967000018,357.7016967000018,357.7016967000018,357.7016967000018,357.7016967000018,005,P004,2025_Jan_18_1408,ConditionRich,2021.2.3,59.911881604869734,
300.0,303.75,9,0.75,Stimuli/P004/sun_auqtrqkaobyprnjy.jpg,1,0,0.75,0,128,128,128,,,,,,,,,,,,,300.01487479999923,0.014874799999233801,5,1.9524925000005169,357.96861100000024,357.96861100000024,357.96861100000024,357.96861100000024,357.96861100000024,357.96861100000024,357.96861100000024,358.7026012000024,357.96861100000024,357.96861100000024,005,P004,2025_Jan_18_1408,ConditionRich,2021.2.3,59.911881604869734,
303.75,304.0,41,0.0,Stimuli/Blank.png,0,0,0.0,0,129,129,129,,,,,,,,,,,,,303.7667242999996,0.016724299999623327,None,,361.7052156999998,361.7052156999998,361.7052156999998,361.7052156999998,361.7052156999998,361.7052156999998,361.7052156999998,361.7052156999998,361.7052156999998,361.7052156999998,005,P004,2025_Jan_18_1408,ConditionRich,2021.2.3,59.911881604869734,
304.0,307.75,22,0.75,Stimuli/P004/things_boy_02s.jpg,0,0,0.0,0,130,130,130,,,,,,,,,,,,,304.0008067999988,0.0008067999988270458,5,1.9655177999993612,361.95545530000163,361.95545530000163,361.95545530000163,361.95545530000163,361.95545530000163,361.95545530000163,361.95545530000163,361.95545530000163,361.95545530000163,361.95545530000163,005,P004,2025_Jan_18_1408,ConditionRich,2021.2.3,59.911881604869734,
307.75,308.0,41,0.0,Stimuli/Blank.png,0,0,0.0,0,131,131,131,,,,,,,,,,,,,307.7703875999978,0.020387599997775396,None,,365.708740500002,365.708740500002,365.708740500002,365.708740500002,365.708740500002,365.708740500002,365.708740500002,365.708740500002,365.708740500002,365.708740500002,005,P004,2025_Jan_18_1408,ConditionRich,2021.2.3,59.911881604869734,
308.0,311.75,38,0.75,Stimuli/P004/things_slug_02s.jpg,1,0,0.75,0,132,132,132,,,,,,,,,,,,,308.0053626000008,0.0053626000008080155,5,1.9620756999975129,365.95898480000324,365.95898480000324,365.95898480000324,365.95898480000324,365.95898480000324,365.95898480000324,365.95898480000324,366.69294810000065,365.95898480000324,365.95898480000324,005,P004,2025_Jan_18_1408,ConditionRich,2021.2.3,59.911881604869734,
311.75,312.0,41,0.0,Stimuli/Blank.png,0,0,0.0,0,133,133,133,,,,,,,,,,,,,311.7759742999988,0.025974299998779316,5,0.19212030000198865,369.72895229999995,369.72895229999995,369.72895229999995,369.72895229999995,369.72895229999995,369.72895229999995,369.72895229999995,369.72895229999995,369.72895229999995,369.72895229999995,005,P004,2025_Jan_18_1408,ConditionRich,2021.2.3,59.911881604869734,
312.0,315.75,10,0.75,Stimuli/P004/sun_azzneunxibjvypza.jpg,1,2,2.75,0,134,134,134,,,,,,,,,,,,,312.0255228999995,0.02552289999948698,4,2.527856700002303,369.9791673,369.9791673,369.9791673,369.9791673,369.9791673,369.9791673,371.9642509000005,372.71487700000216,369.9791673,369.9791673,005,P004,2025_Jan_18_1408,ConditionRich,2021.2.3,59.911881604869734,
315.75,316.0,41,0.0,Stimuli/Blank.png,0,0,0.0,0,135,135,135,,,,,,,,,,,,,315.77724339999986,0.02724339999986114,None,,373.71579490000295,373.71579490000295,373.71579490000295,373.71579490000295,373.71579490000295,373.71579490000295,373.71579490000295,373.71579490000295,373.71579490000295,373.71579490000295,005,P004,2025_Jan_18_1408,ConditionRich,2021.2.3,59.911881604869734,
316.0,319.75,26,0.75,Stimuli/P004/things_ham_02s.jpg,0,0,0.0,0,136,136,136,,,,,,,,,,,,,316.01107489999777,0.011074899997765897,5,1.9716902999971353,373.9493261000025,373.9493261000025,373.9493261000025,373.9493261000025,373.9493261000025,373.9493261000025,373.9493261000025,373.9493261000025,373.9493261000025,373.9493261000025,005,P004,2025_Jan_18_1408,ConditionRich,2021.2.3,59.911881604869734,
319.75,320.0,41,0.0,Stimuli/Blank.png,0,0,0.0,0,137,137,137,,,,,,,,,,,,,319.7643601999989,0.014360199998918688,5,0.21847130000242032,377.7026319000033,377.7026319000033,377.7026319000033,377.7026319000033,377.7026319000033,377.7026319000033,377.7026319000033,377.7026319000033,377.7026319000033,377.7026319000033,005,P004,2025_Jan_18_1408,ConditionRich,2021.2.3,59.911881604869734,
320.0,323.75,35,0.75,Stimuli/P004/things_satellite_dish_02s.jpg,0,0,0.0,0,138,138,138,,,,,,,,,,,,,320.0139015999994,0.013901599999371683,5,1.9682212000006984,377.9528467000018,377.9528467000018,377.9528467000018,377.9528467000018,377.9528467000018,377.9528467000018,377.9528467000018,377.9528467000018,377.9528467000018,377.9528467000018,005,P004,2025_Jan_18_1408,ConditionRich,2021.2.3,59.911881604869734,
323.75,324.0,41,0.0,Stimuli/Blank.png,0,0,0.0,0,139,139,139,,,,,,,,,,,,,323.7513214999999,0.0013214999999036081,None,,381.6894740000025,381.6894740000025,381.6894740000025,381.6894740000025,381.6894740000025,381.6894740000025,381.6894740000025,381.6894740000025,381.6894740000025,381.6894740000025,005,P004,2025_Jan_18_1408,ConditionRich,2021.2.3,59.911881604869734,
324.0,327.75,16,0.75,Stimuli/P004/sun_bjuoemgleyaogrmw.jpg,0,0,0.0,0,140,140,140,,,,,,,,,,,,,324.0004551999991,0.0004551999991235789,5,1.9812639999981911,381.93971500000043,381.93971500000043,381.93971500000043,381.93971500000043,381.93971500000043,381.93971500000043,381.93971500000043,381.93971500000043,381.93971500000043,381.93971500000043,005,P004,2025_Jan_18_1408,ConditionRich,2021.2.3,59.911881604869734,
327.75,328.0,41,0.0,Stimuli/Blank.png,0,0,0.0,0,141,141,141,,,,,,,,,,,,,327.7554023999983,0.005402399998274632,None,,385.69299970000066,385.69299970000066,385.69299970000066,385.69299970000066,385.69299970000066,385.69299970000066,385.69299970000066,385.69299970000066,385.69299970000066,385.69299970000066,005,P004,2025_Jan_18_1408,ConditionRich,2021.2.3,59.911881604869734,
328.0,331.75,11,0.75,Stimuli/P004/sun_bawmjlzsuuivqjhi.jpg,0,0,0.0,0,142,142,142,,,,,,,,,,,,,328.0047150999999,0.004715099999884842,5,1.9610100999998394,385.95989499999996,385.95989499999996,385.95989499999996,385.95989499999996,385.95989499999996,385.95989499999996,385.95989499999996,385.95989499999996,385.95989499999996,385.95989499999996,005,P004,2025_Jan_18_1408,ConditionRich,2021.2.3,59.911881604869734,
331.75,332.0,41,0.0,Stimuli/Blank.png,0,0,0.0,0,143,143,143,,,,,,,,,,,,,331.7756249999984,0.02562499999839929,None,,389.7132107000034,389.7132107000034,389.7132107000034,389.7132107000034,389.7132107000034,389.7132107000034,389.7132107000034,389.7132107000034,389.7132107000034,389.7132107000034,005,P004,2025_Jan_18_1408,ConditionRich,2021.2.3,59.911881604869734,
332.0,335.75,14,0.75,Stimuli/P004/sun_bhhtrmwvoadbfucw.jpg,0,0,0.0,0,144,144,144,,,,,,,,,,,,,332.0089784999982,0.008978499998193001,5,1.9577793999997084,389.9634240000014,389.9634240000014,389.9634240000014,389.9634240000014,389.9634240000014,389.9634240000014,389.9634240000014,389.9634240000014,389.9634240000014,389.9634240000014,005,P004,2025_Jan_18_1408,ConditionRich,2021.2.3,59.911881604869734,
335.75,336.0,41,0.0,Stimuli/Blank.png,0,0,0.0,0,145,145,145,,,,,,,,,,,,,335.78005459999986,0.0300545999998576,5,0.18759030000001076,393.73341990000335,393.73341990000335,393.73341990000335,393.73341990000335,393.73341990000335,393.73341990000335,393.73341990000335,393.73341990000335,393.73341990000335,393.73341990000335,005,P004,2025_Jan_18_1408,ConditionRich,2021.2.3,59.911881604869734,
336.0,339.75,33,0.75,Stimuli/P004/things_recorder_02s.jpg,0,0,0.0,0,146,146,146,,,,,,,,,,,,,336.0300320999995,0.030032099999516504,5,1.9372516000003088,393.98364050000237,393.98364050000237,393.98364050000237,393.98364050000237,393.98364050000237,393.98364050000237,393.98364050000237,393.98364050000237,393.98364050000237,393.98364050000237,005,P004,2025_Jan_18_1408,ConditionRich,2021.2.3,59.911881604869734,
339.75,340.0,41,0.0,Stimuli/Blank.png,0,0,0.0,0,147,147,147,,,,,,,,,,,,,339.76577460000044,0.01577460000044084,None,,397.7035727000002,397.7035727000002,397.7035727000002,397.7035727000002,397.7035727000002,397.7035727000002,397.7035727000002,397.7035727000002,397.7035727000002,397.7035727000002,005,P004,2025_Jan_18_1408,ConditionRich,2021.2.3,59.911881604869734,
340.0,343.75,21,0.75,Stimuli/P004/things_baby_02s.jpg,0,0,0.0,0,148,148,148,,,,,,,,,,,,,339.9992937999996,-0.000706200000422541,5,1.9672165999982099,397.9537842999998,397.9537842999998,397.9537842999998,397.9537842999998,397.9537842999998,397.9537842999998,397.9537842999998,397.9537842999998,397.9537842999998,397.9537842999998,005,P004,2025_Jan_18_1408,ConditionRich,2021.2.3,59.911881604869734,
343.75,344.0,41,0.0,Stimuli/Blank.png,0,0,0.0,0,149,149,149,,,,,,,,,,,,,343.7702926999991,0.020292699999117758,5,0.19702470000265748,401.72379660000297,401.72379660000297,401.72379660000297,401.72379660000297,401.72379660000297,401.72379660000297,401.72379660000297,401.72379660000297,401.72379660000297,401.72379660000297,005,P004,2025_Jan_18_1408,ConditionRich,2021.2.3,59.911881604869734,
344.0,347.75,18,0.75,Stimuli/P004/sun_bplhnzkztpigweny.jpg,0,0,0.0,0,150,150,150,,,,,,,,,,,,,344.01854399999866,0.018543999998655636,5,1.9637454000003345,401.95731570000135,401.95731570000135,401.95731570000135,401.95731570000135,401.95731570000135,401.95731570000135,401.95731570000135,401.95731570000135,401.95731570000135,401.95731570000135,005,P004,2025_Jan_18_1408,ConditionRich,2021.2.3,59.911881604869734,
347.75,348.0,41,0.0,Stimuli/Blank.png,0,0,0.0,0,151,151,151,,,,,,,,,,,,,347.7554326999998,0.005432699999801116,None,,405.69393160000254,405.69393160000254,405.69393160000254,405.69393160000254,405.69393160000254,405.69393160000254,405.69393160000254,405.69393160000254,405.69393160000254,405.69393160000254,005,P004,2025_Jan_18_1408,ConditionRich,2021.2.3,59.911881604869734,
348.0,351.75,17,0.75,Stimuli/P004/sun_bojovhhraxtgafcy.jpg,0,0,0.0,0,152,152,152,,,,,,,,,,,,,348.0057768999977,0.005776899997727014,5,1.976643400001194,405.94415720000325,405.94415720000325,405.94415720000325,405.94415720000325,405.94415720000325,405.94415720000325,405.94415720000325,405.94415720000325,405.94415720000325,405.94415720000325,005,P004,2025_Jan_18_1408,ConditionRich,2021.2.3,59.911881604869734,
351.75,352.0,41,0.0,Stimuli/Blank.png,0,0,0.0,0,153,153,153,,,,,,,,,,,,,351.7610272999991,0.011027299999113893,5,0.2066415999979654,409.7141675000021,409.7141675000021,409.7141675000021,409.7141675000021,409.7141675000021,409.7141675000021,409.7141675000021,409.7141675000021,409.7141675000021,409.7141675000021,005,P004,2025_Jan_18_1408,ConditionRich,2021.2.3,59.911881604869734,
352.0,355.75,27,0.75,Stimuli/P004/things_llama_02s.jpg,1,3,3.75,0,154,154,154,,,,,,,,,,,,,352.0252365999986,0.025236599998606835,4,3.421480300003168,409.96436200000244,409.96436200000244,409.96436200000244,409.96436200000244,409.96436200000244,409.96436200000244,412.95036000000255,None,409.96436200000244,409.96436200000244,005,P004,2025_Jan_18_1408,ConditionRich,2021.2.3,59.911881604869734,
355.75,356.0,41,0.0,Stimuli/Blank.png,0,0,0.0,0,155,155,155,,,,,,,,,,,,,355.7648072999982,0.01480729999821051,5,0.203264499999932,413.71768740000334,413.71768740000334,413.71768740000334,413.71768740000334,413.71768740000334,413.71768740000334,413.71768740000334,413.71768740000334,413.71768740000334,413.71768740000334,005,P004,2025_Jan_18_1408,ConditionRich,2021.2.3,59.911881604869734,
356.0,359.75,24,0.75,Stimuli/P004/things_dumpling_02s.jpg,0,0,0.0,0,156,156,156,,,,,,,,,,,,,356.02956939999785,0.029569399997853907,5,1.9530324000006658,413.96789210000134,413.96789210000134,413.96789210000134,413.96789210000134,413.96789210000134,413.96789210000134,413.96789210000134,413.96789210000134,413.96789210000134,413.96789210000134,005,P004,2025_Jan_18_1408,ConditionRich,2021.2.3,59.911881604869734,
359.75,360.0,41,0.0,Stimuli/Blank.png,0,0,0.0,0,157,157,157,,,,,,,,,,,,,359.7492267999987,-0.0007732000012765639,None,,417.6878196000034,417.6878196000034,417.6878196000034,417.6878196000034,417.6878196000034,417.6878196000034,417.6878196000034,417.6878196000034,417.6878196000034,417.6878196000034,005,P004,2025_Jan_18_1408,ConditionRich,2021.2.3,59.911881604869734,
360.0,363.75,23,0.75,Stimuli/P004/things_butterfly_02s.jpg,0,0,0.0,0,158,158,158,,,,,,,,,,,,,359.99967259999903,-0.0003274000009696465,5,1.9828229999984615,417.9380505000008,417.9380505000008,417.9380505000008,417.9380505000008,417.9380505000008,417.9380505000008,417.9380505000008,417.9380505000008,417.9380505000008,417.9380505000008,005,P004,2025_Jan_18_1408,ConditionRich,2021.2.3,59.911881604869734,
363.75,364.0,41,0.0,Stimuli/Blank.png,0,0,0.0,0,159,159,159,,,,,,,,,,,,,363.7552317000009,0.0052317000008770265,5,0.21294750000015483,421.7080388000031,421.7080388000031,421.7080388000031,421.7080388000031,421.7080388000031,421.7080388000031,421.7080388000031,421.7080388000031,421.7080388000031,421.7080388000031,005,P004,2025_Jan_18_1408,ConditionRich,2021.2.3,59.911881604869734,
364.0,367.75,32,0.75,Stimuli/P004/things_pulley_02s.jpg,0,0,0.0,0,160,160,160,,,,,,,,,,,,,364.0204969999977,0.020496999997703824,5,1.9460408000013558,421.97494930000175,421.97494930000175,421.97494930000175,421.97494930000175,421.97494930000175,421.97494930000175,421.97494930000175,421.97494930000175,421.97494930000175,421.97494930000175,005,P004,2025_Jan_18_1408,ConditionRich,2021.2.3,59.911881604869734,
367.75,368.0,41,0.0,Stimuli/Blank.png,0,0,0.0,0,161,161,161,,,,,,,,,,,,,367.7751090999991,0.02510909999909927,5,0.19251699999949778,425.728245600003,425.728245600003,425.728245600003,425.728245600003,425.728245600003,425.728245600003,425.728245600003,425.728245600003,425.728245600003,425.728245600003,005,P004,2025_Jan_18_1408,ConditionRich,2021.2.3,59.911881604869734,
368.0,371.75,39,0.75,Stimuli/P004/things_toad_02s.jpg,0,0,0.0,0,162,162,162,,,,,,,,,,,,,368.0234019999989,0.023401999998895917,5,1.9590043000025616,425.9617825000023,425.9617825000023,425.9617825000023,425.9617825000023,425.9617825000023,425.9617825000023,425.9617825000023,425.9617825000023,425.9617825000023,425.9617825000023,005,P004,2025_Jan_18_1408,ConditionRich,2021.2.3,59.911881604869734,
371.75,372.0,41,0.0,Stimuli/Blank.png,0,0,0.0,0,163,163,163,,,,,,,,,,,,,371.75935729999765,0.009357299997645896,None,,429.69839240000147,429.69839240000147,429.69839240000147,429.69839240000147,429.69839240000147,429.69839240000147,429.69839240000147,429.69839240000147,429.69839240000147,429.69839240000147,005,P004,2025_Jan_18_1408,ConditionRich,2021.2.3,59.911881604869734,
372.0,388.0,0,0.0,Stimuli/Blank.png,1,6,6.75,0,164,164,164,,,,,,,,,,,,,372.0105741999978,0.010574199997790856,5,13.972171400000661,429.9486152000027,429.9486152000027,429.9486152000027,429.9486152000027,429.9486152000027,429.9486152000027,435.93721800000276,436.6878917000031,429.9486152000027,429.9486152000027,005,P004,2025_Jan_18_1408,ConditionRich,2021.2.3,59.911881604869734,
