eventStartTime,eventEndTime,eventCond,imSize,imFile,responseEvent,fixRespStart,fixRespEnd,Events.thisRepN,Events.thisTrialN,Events.thisN,Events.thisIndex,Instructions.started,Instructions.stopped,participantReadyResponse.keys,participantReadyResponse.rt,participantReadyResponse.started,participantReadyResponse.stopped,startWaitforTrigger,triggerResponse.keys,triggerResponse.rt,triggerResponse.started,triggerResponse.stopped,globalTimer,actualStartTime,startTimingDiff,participantResponse.keys,participantResponse.rt,participantResponse.started,participantResponse.stopped,image.started,image.stopped,fixationOutside.started,fixationOutside.stopped,fixationResponse.started,fixationResponse.stopped,fixationInside.started,fixationInside.stopped,session,participant,date,expName,psychopyVersion,frameRate,
,,,,,,,,,,,,21.58803600000101,None,4,4.250004900000931,21.58803600000101,None,,,,,,,,,,,,,,,,,,,,,004,P004,2025_Jan_18_1400,ConditionRich,2021.2.3,59.92390862132042,
,,,,,,,,,,,,,,,,,,25.843450000000303,5,13.12158030000137,25.85642590000134,None,,,,,,,,,,,,,,,,004,P004,2025_Jan_18_1400,ConditionRich,2021.2.3,59.92390862132042,
0.0,4.0,0,0.0,Stimuli/Blank.png,0,0.0,0.0,0,0,0,0,,,,,,,,,,,,38.98825339999894,0.028130700000474462,0.028130700000474462,5,3.943537400002242,39.03468110000176,None,39.03468110000176,None,39.03468110000176,None,39.03468110000176,39.03468110000176,39.03468110000176,None,004,P004,2025_Jan_18_1400,ConditionRich,2021.2.3,59.92390862132042,
4.0,4.75,1,0.75,Stimuli/P004/sun_adgmtzznutwlescq.jpg,0,0.0,0.0,0,1,1,1,,,,,,,,,,,,,4.0203159999982745,0.020315999998274492,None,,43.0218051999982,43.0218051999982,43.0218051999982,43.0218051999982,43.0218051999982,43.0218051999982,43.0218051999982,43.0218051999982,43.0218051999982,43.0218051999982,004,P004,2025_Jan_18_1400,ConditionRich,2021.2.3,59.92390862132042,
4.75,8.0,41,0.0,Stimuli/Blank.png,0,0.0,0.0,0,2,2,2,,,,,,,,,,,,,4.753930599999876,0.003930599999875994,5,3.205703399999038,43.772586399998545,43.772586399998545,43.772586399998545,43.772586399998545,43.772586399998545,43.772586399998545,43.772586399998545,43.772586399998545,43.772586399998545,43.772586399998545,004,P004,2025_Jan_18_1400,ConditionRich,2021.2.3,59.92390862132042,
8.0,8.75,23,0.75,Stimuli/P004/things_butterfly_02s.jpg,0,0.0,0.0,0,3,3,3,,,,,,,,,,,,,8.02254449999964,0.02254449999963981,None,,47.025049700001546,47.025049700001546,47.025049700001546,47.025049700001546,47.025049700001546,47.025049700001546,47.025049700001546,47.025049700001546,47.025049700001546,47.025049700001546,004,P004,2025_Jan_18_1400,ConditionRich,2021.2.3,59.92390862132042,
8.75,12.0,41,0.0,Stimuli/Blank.png,0,0.0,0.0,0,4,4,4,,,,,,,,,,,,,8.756512699997984,0.006512699997983873,5,3.2189810999989277,47.75908640000125,47.75908640000125,47.75908640000125,47.75908640000125,47.75908640000125,47.75908640000125,47.75908640000125,47.75908640000125,47.75908640000125,47.75908640000125,004,P004,2025_Jan_18_1400,ConditionRich,2021.2.3,59.92390862132042,
12.0,12.75,14,0.75,Stimuli/P004/sun_bhhtrmwvoadbfucw.jpg,0,0.0,0.0,0,5,5,5,,,,,,,,,,,,,12.009468399999605,0.009468399999605026,None,,51.028587799999514,51.028587799999514,51.028587799999514,51.028587799999514,51.028587799999514,51.028587799999514,51.028587799999514,51.028587799999514,51.028587799999514,51.028587799999514,004,P004,2025_Jan_18_1400,ConditionRich,2021.2.3,59.92390862132042,
12.75,16.0,41,0.0,Stimuli/Blank.png,0,0.0,0.0,0,6,6,6,,,,,,,,,,,,,12.777175600000191,0.02717560000019148,5,3.198825899999065,51.77924999999959,51.77924999999959,51.77924999999959,51.77924999999959,51.77924999999959,51.77924999999959,51.77924999999959,51.77924999999959,51.77924999999959,51.77924999999959,004,P004,2025_Jan_18_1400,ConditionRich,2021.2.3,59.92390862132042,
16.0,16.75,21,0.75,Stimuli/P004/things_baby_02s.jpg,0,0.0,0.0,0,7,7,7,,,,,,,,,,,,,16.013374199999816,0.013374199999816483,None,,55.015425000001414,55.015425000001414,55.015425000001414,55.015425000001414,55.015425000001414,55.015425000001414,55.015425000001414,55.015425000001414,55.015425000001414,55.015425000001414,004,P004,2025_Jan_18_1400,ConditionRich,2021.2.3,59.92390862132042,
16.75,20.0,41,0.0,Stimuli/Blank.png,1,2.25,3.0,0,8,8,8,,,,,,,,,,,,,16.76351589999831,0.013515899998310488,4,2.648011699999188,55.766076100000646,55.766076100000646,55.766076100000646,55.766076100000646,55.766076100000646,55.766076100000646,58.00141649999932,58.75204020000092,55.766076100000646,55.766076100000646,004,P004,2025_Jan_18_1400,ConditionRich,2021.2.3,59.92390862132042,
20.0,20.75,8,0.75,Stimuli/P004/sun_asxkyzleyfgbqfrs.jpg,0,0.0,0.0,0,9,9,9,,,,,,,,,,,,,20.00262239999938,0.0026223999993817415,None,,59.018911499999376,59.018911499999376,59.018911499999376,59.018911499999376,59.018911499999376,59.018911499999376,59.018911499999376,59.018911499999376,59.018911499999376,59.018911499999376,004,P004,2025_Jan_18_1400,ConditionRich,2021.2.3,59.92390862132042,
20.75,24.0,41,0.0,Stimuli/Blank.png,0,0.0,0.0,0,10,10,10,,,,,,,,,,,,,20.76770100000067,0.01770100000067032,5,1.2083496000013838,59.769611100000475,59.769611100000475,59.769611100000475,59.769611100000475,59.769611100000475,59.769611100000475,59.769611100000475,59.769611100000475,59.769611100000475,59.769611100000475,004,P004,2025_Jan_18_1400,ConditionRich,2021.2.3,59.92390862132042,
24.0,24.75,40,0.75,Stimuli/P004/things_woman_02s.jpg,0,0.0,0.0,0,11,11,11,,,,,,,,,,,,,24.00354139999763,0.0035413999976299237,None,,63.005793399999675,63.005793399999675,63.005793399999675,63.005793399999675,63.005793399999675,63.005793399999675,63.005793399999675,63.005793399999675,63.005793399999675,63.005793399999675,004,P004,2025_Jan_18_1400,ConditionRich,2021.2.3,59.92390862132042,
24.75,28.0,41,0.0,Stimuli/Blank.png,1,0.25,1.0,0,12,12,12,,,,,,,,,,,,,24.75453369999741,0.0045336999974097125,5,1.2215388999975403,63.756445999999414,63.756445999999414,63.756445999999414,63.756445999999414,63.756445999999414,63.756445999999414,63.98998019999999,64.74068500000067,63.756445999999414,63.756445999999414,004,P004,2025_Jan_18_1400,ConditionRich,2021.2.3,59.92390862132042,
28.0,28.75,29,0.75,Stimuli/P004/things_mat_02s.jpg,0,0.0,0.0,0,13,13,13,,,,,,,,,,,,,28.00728639999943,0.007286399999429705,None,,67.00930339999832,67.00930339999832,67.00930339999832,67.00930339999832,67.00930339999832,67.00930339999832,67.00930339999832,67.00930339999832,67.00930339999832,67.00930339999832,004,P004,2025_Jan_18_1400,ConditionRich,2021.2.3,59.92390862132042,
28.75,32.0,41,0.0,Stimuli/Blank.png,1,1.25,2.0,0,14,14,14,,,,,,,,,,,,,28.75788829999874,0.007888299998739967,5,3.2179107000010845,67.75997339999958,67.75997339999958,67.75997339999958,67.75997339999958,67.75997339999958,67.75997339999958,68.99439899999925,69.74504719999823,67.75997339999958,67.75997339999958,004,P004,2025_Jan_18_1400,ConditionRich,2021.2.3,59.92390862132042,
32.0,32.75,34,0.75,Stimuli/P004/things_roll_02s.jpg,0,0.0,0.0,0,15,15,15,,,,,,,,,,,,,32.010928600000625,0.01092860000062501,None,,71.01283550000153,71.01283550000153,71.01283550000153,71.01283550000153,71.01283550000153,71.01283550000153,71.01283550000153,71.01283550000153,71.01283550000153,71.01283550000153,004,P004,2025_Jan_18_1400,ConditionRich,2021.2.3,59.92390862132042,
32.75,36.0,41,0.0,Stimuli/Blank.png,0,0.0,0.0,0,16,16,16,,,,,,,,,,,,,32.7607394000006,0.010739400000602473,5,3.214314699998795,71.76355770000009,71.76355770000009,71.76355770000009,71.76355770000009,71.76355770000009,71.76355770000009,71.76355770000009,71.76355770000009,71.76355770000009,71.76355770000009,004,P004,2025_Jan_18_1400,ConditionRich,2021.2.3,59.92390862132042,
36.0,36.75,2,0.75,Stimuli/P004/sun_afijjzyziczoqdhz.jpg,1,0.0,0.75,0,17,17,17,,,,,,,,,,,,,36.01372309999715,0.013723099997150712,4,0.4716121999990719,75.01635650000026,75.01635650000026,75.01635650000026,75.01635650000026,75.01635650000026,75.01635650000026,75.01635650000026,75.7503383000003,75.01635650000026,75.01635650000026,004,P004,2025_Jan_18_1400,ConditionRich,2021.2.3,59.92390862132042,
36.75,40.0,41,0.0,Stimuli/Blank.png,0,0.0,0.0,0,18,18,18,,,,,,,,,,,,,36.76485390000016,0.014853900000161957,5,1.2108561000022746,75.76701220000177,75.76701220000177,75.76701220000177,75.76701220000177,75.76701220000177,75.76701220000177,75.76701220000177,75.76701220000177,75.76701220000177,75.76701220000177,004,P004,2025_Jan_18_1400,ConditionRich,2021.2.3,59.92390862132042,
40.0,40.75,37,0.75,Stimuli/P004/things_ski_lift_02s.jpg,0,0.0,0.0,0,19,19,19,,,,,,,,,,,,,40.001945399999386,0.0019453999993856996,None,,79.01988219999839,79.01988219999839,79.01988219999839,79.01988219999839,79.01988219999839,79.01988219999839,79.01988219999839,79.01988219999839,79.01988219999839,79.01988219999839,004,P004,2025_Jan_18_1400,ConditionRich,2021.2.3,59.92390862132042,
40.75,44.0,41,0.0,Stimuli/Blank.png,0,0.0,0.0,0,20,20,20,,,,,,,,,,,,,40.7685313999973,0.01853139999730047,5,1.2073307000027853,79.77054169999974,79.77054169999974,79.77054169999974,79.77054169999974,79.77054169999974,79.77054169999974,79.77054169999974,79.77054169999974,79.77054169999974,79.77054169999974,004,P004,2025_Jan_18_1400,ConditionRich,2021.2.3,59.92390862132042,
44.0,44.75,9,0.75,Stimuli/P004/sun_auqtrqkaobyprnjy.jpg,0,0.0,0.0,0,21,21,21,,,,,,,,,,,,,44.0047169999998,0.004716999999800464,None,,83.00672420000046,83.00672420000046,83.00672420000046,83.00672420000046,83.00672420000046,83.00672420000046,83.00672420000046,83.00672420000046,83.00672420000046,83.00672420000046,004,P004,2025_Jan_18_1400,ConditionRich,2021.2.3,59.92390862132042,
44.75,48.0,41,0.0,Stimuli/Blank.png,0,0.0,0.0,0,22,22,22,,,,,,,,,,,,,44.75751079999827,0.0075107999982719775,5,3.203817000001436,83.77407129999847,83.77407129999847,83.77407129999847,83.77407129999847,83.77407129999847,83.77407129999847,83.77407129999847,83.77407129999847,83.77407129999847,83.77407129999847,004,P004,2025_Jan_18_1400,ConditionRich,2021.2.3,59.92390862132042,
48.0,48.75,12,0.75,Stimuli/P004/sun_bcboctumoxwpdefl.jpg,0,0.0,0.0,0,23,23,23,,,,,,,,,,,,,48.0241967999973,0.024196799997298513,None,,87.04362079999919,87.04362079999919,87.04362079999919,87.04362079999919,87.04362079999919,87.04362079999919,87.04362079999919,87.04362079999919,87.04362079999919,87.04362079999919,004,P004,2025_Jan_18_1400,ConditionRich,2021.2.3,59.92390862132042,
48.75,52.0,41,0.0,Stimuli/Blank.png,0,0.0,0.0,0,24,24,24,,,,,,,,,,,,,48.77708269999857,0.027082699998572934,5,3.183585899998434,87.79429049999817,87.79429049999817,87.79429049999817,87.79429049999817,87.79429049999817,87.79429049999817,87.79429049999817,87.79429049999817,87.79429049999817,87.79429049999817,004,P004,2025_Jan_18_1400,ConditionRich,2021.2.3,59.92390862132042,
52.0,52.75,38,0.75,Stimuli/P004/things_slug_02s.jpg,0,0.0,0.0,0,25,25,25,,,,,,,,,,,,,52.02838079999856,0.02838079999855836,None,,91.03044819999923,91.03044819999923,91.03044819999923,91.03044819999923,91.03044819999923,91.03044819999923,91.03044819999923,91.03044819999923,91.03044819999923,91.03044819999923,004,P004,2025_Jan_18_1400,ConditionRich,2021.2.3,59.92390862132042,
52.75,56.0,41,0.0,Stimuli/Blank.png,0,0.0,0.0,0,26,26,26,,,,,,,,,,,,,52.76295019999816,0.012950199998158496,5,1.2135221999997157,91.76443550000113,91.76443550000113,91.76443550000113,91.76443550000113,91.76443550000113,91.76443550000113,91.76443550000113,91.76443550000113,91.76443550000113,91.76443550000113,004,P004,2025_Jan_18_1400,ConditionRich,2021.2.3,59.92390862132042,
56.0,56.75,36,0.75,Stimuli/P004/things_sea_urchin_02s.jpg,0,0.0,0.0,0,27,27,27,,,,,,,,,,,,,55.998488799999905,-0.001511200000095414,None,,95.0006171999994,95.0006171999994,95.0006171999994,95.0006171999994,95.0006171999994,95.0006171999994,95.0006171999994,95.0006171999994,95.0006171999994,95.0006171999994,004,P004,2025_Jan_18_1400,ConditionRich,2021.2.3,59.92390862132042,
56.75,60.0,41,0.0,Stimuli/Blank.png,0,0.0,0.0,0,28,28,28,,,,,,,,,,,,,56.74852869999813,-0.0014713000018673483,5,1.2267288000002736,95.75127179999981,95.75127179999981,95.75127179999981,95.75127179999981,95.75127179999981,95.75127179999981,95.75127179999981,95.75127179999981,95.75127179999981,95.75127179999981,004,P004,2025_Jan_18_1400,ConditionRich,2021.2.3,59.92390862132042,
60.0,60.75,31,0.75,Stimuli/P004/things_pea_02s.jpg,0,0.0,0.0,0,29,29,29,,,,,,,,,,,,,60.001294300000154,0.0012943000001541805,None,,99.00416190000033,99.00416190000033,99.00416190000033,99.00416190000033,99.00416190000033,99.00416190000033,99.00416190000033,99.00416190000033,99.00416190000033,99.00416190000033,004,P004,2025_Jan_18_1400,ConditionRich,2021.2.3,59.92390862132042,
60.75,64.0,41,0.0,Stimuli/Blank.png,0,0.0,0.0,0,30,30,30,,,,,,,,,,,,,60.752993699999934,0.0029936999999335967,5,1.223149099998409,99.75479709999854,99.75479709999854,99.75479709999854,99.75479709999854,99.75479709999854,99.75479709999854,99.75479709999854,99.75479709999854,99.75479709999854,99.75479709999854,004,P004,2025_Jan_18_1400,ConditionRich,2021.2.3,59.92390862132042,
64.0,64.75,7,0.75,Stimuli/P004/sun_asgixjtedklbawgm.jpg,0,0.0,0.0,0,31,31,31,,,,,,,,,,,,,64.00544509999963,0.005445099999633385,None,,103.00766600000134,103.00766600000134,103.00766600000134,103.00766600000134,103.00766600000134,103.00766600000134,103.00766600000134,103.00766600000134,103.00766600000134,103.00766600000134,004,P004,2025_Jan_18_1400,ConditionRich,2021.2.3,59.92390862132042,
64.75,68.0,41,0.0,Stimuli/Blank.png,0,0.0,0.0,0,32,32,32,,,,,,,,,,,,,64.75851659999898,0.00851659999898402,5,3.20292469999913,103.77501199999824,103.77501199999824,103.77501199999824,103.77501199999824,103.77501199999824,103.77501199999824,103.77501199999824,103.77501199999824,103.77501199999824,103.77501199999824,004,P004,2025_Jan_18_1400,ConditionRich,2021.2.3,59.92390862132042,
68.0,68.75,17,0.75,Stimuli/P004/sun_bojovhhraxtgafcy.jpg,0,0.0,0.0,0,33,33,33,,,,,,,,,,,,,68.02596690000064,0.025966900000639725,None,,107.02786439999909,107.02786439999909,107.02786439999909,107.02786439999909,107.02786439999909,107.02786439999909,107.02786439999909,107.02786439999909,107.02786439999909,107.02786439999909,004,P004,2025_Jan_18_1400,ConditionRich,2021.2.3,59.92390862132042,
68.75,72.0,41,0.0,Stimuli/Blank.png,0,0.0,0.0,0,34,34,34,,,,,,,,,,,,,68.76186659999803,0.011866599998029415,5,3.1993664000001445,107.77853440000035,107.77853440000035,107.77853440000035,107.77853440000035,107.77853440000035,107.77853440000035,107.77853440000035,107.77853440000035,107.77853440000035,107.77853440000035,004,P004,2025_Jan_18_1400,ConditionRich,2021.2.3,59.92390862132042,
72.0,72.75,10,0.75,Stimuli/P004/sun_azzneunxibjvypza.jpg,0,0.0,0.0,0,35,35,35,,,,,,,,,,,,,72.02873980000004,0.028739800000039395,None,,111.03139690000171,111.03139690000171,111.03139690000171,111.03139690000171,111.03139690000171,111.03139690000171,111.03139690000171,111.03139690000171,111.03139690000171,111.03139690000171,004,P004,2025_Jan_18_1400,ConditionRich,2021.2.3,59.92390862132042,
72.75,76.0,41,0.0,Stimuli/Blank.png,0,0.0,0.0,0,36,36,36,,,,,,,,,,,,,72.76272359999712,0.012723599997116253,5,3.2123900999977195,111.76537800000006,111.76537800000006,111.76537800000006,111.76537800000006,111.76537800000006,111.76537800000006,111.76537800000006,111.76537800000006,111.76537800000006,111.76537800000006,004,P004,2025_Jan_18_1400,ConditionRich,2021.2.3,59.92390862132042,
76.0,76.75,20,0.75,Stimuli/P004/sun_bwytihadgigwkyht.jpg,0,0.0,0.0,0,37,37,37,,,,,,,,,,,,,76.01599669999996,0.015996699999959674,None,,115.01823069999955,115.01823069999955,115.01823069999955,115.01823069999955,115.01823069999955,115.01823069999955,115.01823069999955,115.01823069999955,115.01823069999955,115.01823069999955,004,P004,2025_Jan_18_1400,ConditionRich,2021.2.3,59.92390862132042,
76.75,80.0,41,0.0,Stimuli/Blank.png,0,0.0,0.0,0,38,38,38,,,,,,,,,,,,,76.75211370000034,0.0021137000003363937,5,3.208831199997803,115.76890560000174,115.76890560000174,115.76890560000174,115.76890560000174,115.76890560000174,115.76890560000174,115.76890560000174,115.76890560000174,115.76890560000174,115.76890560000174,004,P004,2025_Jan_18_1400,ConditionRich,2021.2.3,59.92390862132042,
80.0,80.75,15,0.75,Stimuli/P004/sun_bjhtdevvocmwtavk.jpg,0,0.0,0.0,0,39,39,39,,,,,,,,,,,,,80.01938379999774,0.019383799997740425,None,,119.0384559999984,119.0384559999984,119.0384559999984,119.0384559999984,119.0384559999984,119.0384559999984,119.0384559999984,119.0384559999984,119.0384559999984,119.0384559999984,004,P004,2025_Jan_18_1400,ConditionRich,2021.2.3,59.92390862132042,
80.75,84.0,41,0.0,Stimuli/Blank.png,0,0.0,0.0,0,40,40,40,,,,,,,,,,,,,80.77238489999945,0.02238489999945159,5,3.1887003000010736,119.78912679999848,119.78912679999848,119.78912679999848,119.78912679999848,119.78912679999848,119.78912679999848,119.78912679999848,119.78912679999848,119.78912679999848,119.78912679999848,004,P004,2025_Jan_18_1400,ConditionRich,2021.2.3,59.92390862132042,
84.0,100.0,0,0.0,Stimuli/Blank.png,1,10.0,10.75,0,41,41,41,,,,,,,,,,,,,84.02260209999804,0.022602099998039193,5,13.95257820000188,123.02527810000174,123.02527810000174,123.02527810000174,123.02527810000174,123.02527810000174,123.02527810000174,133.00071780000144,133.75144100000034,123.02527810000174,123.02527810000174,004,P004,2025_Jan_18_1400,ConditionRich,2021.2.3,59.92390862132042,
100.0,100.75,18,0.75,Stimuli/P004/sun_bplhnzkztpigweny.jpg,0,0.0,0.0,0,42,42,42,,,,,,,,,,,,,100.00336479999896,0.0033647999989625532,None,,139.00601480000114,139.00601480000114,139.00601480000114,139.00601480000114,139.00601480000114,139.00601480000114,139.00601480000114,139.00601480000114,139.00601480000114,139.00601480000114,004,P004,2025_Jan_18_1400,ConditionRich,2021.2.3,59.92390862132042,
100.75,104.0,41,0.0,Stimuli/Blank.png,0,0.0,0.0,0,43,43,43,,,,,,,,,,,,,100.75421259999712,0.00421259999711765,5,1.2212556000013137,139.75666869999986,139.75666869999986,139.75666869999986,139.75666869999986,139.75666869999986,139.75666869999986,139.75666869999986,139.75666869999986,139.75666869999986,139.75666869999986,004,P004,2025_Jan_18_1400,ConditionRich,2021.2.3,59.92390862132042,
104.0,104.75,25,0.75,Stimuli/P004/things_girl_02s.jpg,0,0.0,0.0,0,44,44,44,,,,,,,,,,,,,104.00745669999742,0.007456699997419491,None,,143.0095360999985,143.0095360999985,143.0095360999985,143.0095360999985,143.0095360999985,143.0095360999985,143.0095360999985,143.0095360999985,143.0095360999985,143.0095360999985,004,P004,2025_Jan_18_1400,ConditionRich,2021.2.3,59.92390862132042,
104.75,108.0,41,0.0,Stimuli/Blank.png,0,0.0,0.0,0,45,45,45,,,,,,,,,,,,,104.75739969999995,0.007399699999950826,5,3.2174126999998407,143.76019459999952,143.76019459999952,143.76019459999952,143.76019459999952,143.76019459999952,143.76019459999952,143.76019459999952,143.76019459999952,143.76019459999952,143.76019459999952,004,P004,2025_Jan_18_1400,ConditionRich,2021.2.3,59.92390862132042,
108.0,108.75,39,0.75,Stimuli/P004/things_toad_02s.jpg,0,0.0,0.0,0,46,46,46,,,,,,,,,,,,,108.01018719999774,0.010187199997744756,None,,147.01305330000105,147.01305330000105,147.01305330000105,147.01305330000105,147.01305330000105,147.01305330000105,147.01305330000105,147.01305330000105,147.01305330000105,147.01305330000105,004,P004,2025_Jan_18_1400,ConditionRich,2021.2.3,59.92390862132042,
108.75,112.0,41,0.0,Stimuli/Blank.png,0,0.0,0.0,0,47,47,47,,,,,,,,,,,,,108.7613265,0.011326499999995576,5,3.214888200000132,147.76371369999833,147.76371369999833,147.76371369999833,147.76371369999833,147.76371369999833,147.76371369999833,147.76371369999833,147.76371369999833,147.76371369999833,147.76371369999833,004,P004,2025_Jan_18_1400,ConditionRich,2021.2.3,59.92390862132042,
112.0,112.75,33,0.75,Stimuli/P004/things_recorder_02s.jpg,0,0.0,0.0,0,48,48,48,,,,,,,,,,,,,112.01450759999716,0.01450759999715956,None,,151.01658279999901,151.01658279999901,151.01658279999901,151.01658279999901,151.01658279999901,151.01658279999901,151.01658279999901,151.01658279999901,151.01658279999901,151.01658279999901,004,P004,2025_Jan_18_1400,ConditionRich,2021.2.3,59.92390862132042,
112.75,116.0,41,0.0,Stimuli/Blank.png,0,0.0,0.0,0,49,49,49,,,,,,,,,,,,,112.76464280000073,0.01464280000072904,5,1.211395900001662,151.76724860000104,151.76724860000104,151.76724860000104,151.76724860000104,151.76724860000104,151.76724860000104,151.76724860000104,151.76724860000104,151.76724860000104,151.76724860000104,004,P004,2025_Jan_18_1400,ConditionRich,2021.2.3,59.92390862132042,
116.0,116.75,30,0.75,Stimuli/P004/things_music_box_02s.jpg,0,0.0,0.0,0,50,50,50,,,,,,,,,,,,,116.00144659999933,0.0014465999993262812,None,,155.00346830000126,155.00346830000126,155.00346830000126,155.00346830000126,155.00346830000126,155.00346830000126,155.00346830000126,155.00346830000126,155.00346830000126,155.00346830000126,004,P004,2025_Jan_18_1400,ConditionRich,2021.2.3,59.92390862132042,
116.75,120.0,41,0.0,Stimuli/Blank.png,0,0.0,0.0,0,51,51,51,,,,,,,,,,,,,116.75178919999962,0.0017891999996209051,5,1.2245456000018748,155.75408160000006,155.75408160000006,155.75408160000006,155.75408160000006,155.75408160000006,155.75408160000006,155.75408160000006,155.75408160000006,155.75408160000006,155.75408160000006,004,P004,2025_Jan_18_1400,ConditionRich,2021.2.3,59.92390862132042,
120.0,120.75,3,0.75,Stimuli/P004/sun_afqjzrocqhabifao.jpg,0,0.0,0.0,0,52,52,52,,,,,,,,,,,,,120.00482159999956,0.004821599999559112,None,,159.00694740000108,159.00694740000108,159.00694740000108,159.00694740000108,159.00694740000108,159.00694740000108,159.00694740000108,159.00694740000108,159.00694740000108,159.00694740000108,004,P004,2025_Jan_18_1400,ConditionRich,2021.2.3,59.92390862132042,
120.75,124.0,41,0.0,Stimuli/Blank.png,0,0.0,0.0,0,53,53,53,,,,,,,,,,,,,120.75698719999855,0.0069871999985480215,5,3.2043167000010726,159.77432659999977,159.77432659999977,159.77432659999977,159.77432659999977,159.77432659999977,159.77432659999977,159.77432659999977,159.77432659999977,159.77432659999977,159.77432659999977,004,P004,2025_Jan_18_1400,ConditionRich,2021.2.3,59.92390862132042,
124.0,124.75,26,0.75,Stimuli/P004/things_ham_02s.jpg,0,0.0,0.0,0,54,54,54,,,,,,,,,,,,,124.02706620000026,0.027066200000263052,None,,163.04383400000006,163.04383400000006,163.04383400000006,163.04383400000006,163.04383400000006,163.04383400000006,163.04383400000006,163.04383400000006,163.04383400000006,163.04383400000006,004,P004,2025_Jan_18_1400,ConditionRich,2021.2.3,59.92390862132042,
124.75,128.0,41,0.0,Stimuli/Blank.png,0,0.0,0.0,0,55,55,55,,,,,,,,,,,,,124.77700379999806,0.02700379999805591,5,3.184018100000685,163.79450110000107,163.79450110000107,163.79450110000107,163.79450110000107,163.79450110000107,163.79450110000107,163.79450110000107,163.79450110000107,163.79450110000107,163.79450110000107,004,P004,2025_Jan_18_1400,ConditionRich,2021.2.3,59.92390862132042,
128.0,128.75,5,0.75,Stimuli/P004/sun_amnnxdwfjbdfumns.jpg,0,0.0,0.0,0,56,56,56,,,,,,,,,,,,,128.0284474,0.028447400000004563,None,,167.03067129999909,167.03067129999909,167.03067129999909,167.03067129999909,167.03067129999909,167.03067129999909,167.03067129999909,167.03067129999909,167.03067129999909,167.03067129999909,004,P004,2025_Jan_18_1400,ConditionRich,2021.2.3,59.92390862132042,
128.75,132.0,41,0.0,Stimuli/Blank.png,1,1.25,2.0,0,57,57,57,,,,,,,,,,,,,128.76243619999877,0.0124361999987741,5,3.213961299999937,167.7646461000004,167.7646461000004,167.7646461000004,167.7646461000004,167.7646461000004,167.7646461000004,168.999089500001,169.74972490000073,167.7646461000004,167.7646461000004,004,P004,2025_Jan_18_1400,ConditionRich,2021.2.3,59.92390862132042,
132.0,132.75,24,0.75,Stimuli/P004/things_dumpling_02s.jpg,0,0.0,0.0,0,58,58,58,,,,,,,,,,,,,132.01473160000023,0.014731600000231992,None,,171.01751629999853,171.01751629999853,171.01751629999853,171.01751629999853,171.01751629999853,171.01751629999853,171.01751629999853,171.01751629999853,171.01751629999853,171.01751629999853,004,P004,2025_Jan_18_1400,ConditionRich,2021.2.3,59.92390862132042,
132.75,136.0,41,0.0,Stimuli/Blank.png,0,0.0,0.0,0,59,59,59,,,,,,,,,,,,,132.76819310000064,0.018193100000644336,5,3.193749799997022,171.784868499999,171.784868499999,171.784868499999,171.784868499999,171.784868499999,171.784868499999,171.784868499999,171.784868499999,171.784868499999,171.784868499999,004,P004,2025_Jan_18_1400,ConditionRich,2021.2.3,59.92390862132042,
136.0,136.75,28,0.75,Stimuli/P004/things_man_02s.jpg,0,0.0,0.0,0,60,60,60,,,,,,,,,,,,,136.01886269999886,0.01886269999886281,None,,175.0377124000006,175.0377124000006,175.0377124000006,175.0377124000006,175.0377124000006,175.0377124000006,175.0377124000006,175.0377124000006,175.0377124000006,175.0377124000006,004,P004,2025_Jan_18_1400,ConditionRich,2021.2.3,59.92390862132042,
136.75,140.0,41,0.0,Stimuli/Blank.png,0,0.0,0.0,0,61,61,61,,,,,,,,,,,,,136.77175409999836,0.021754099998361198,5,3.190382100001443,175.78841059999831,175.78841059999831,175.78841059999831,175.78841059999831,175.78841059999831,175.78841059999831,175.78841059999831,175.78841059999831,175.78841059999831,175.78841059999831,004,P004,2025_Jan_18_1400,ConditionRich,2021.2.3,59.92390862132042,
140.0,140.75,32,0.75,Stimuli/P004/things_pulley_02s.jpg,0,0.0,0.0,0,62,62,62,,,,,,,,,,,,,140.02214149999782,0.022141499997815117,None,,179.02456130000064,179.02456130000064,179.02456130000064,179.02456130000064,179.02456130000064,179.02456130000064,179.02456130000064,179.02456130000064,179.02456130000064,179.02456130000064,004,P004,2025_Jan_18_1400,ConditionRich,2021.2.3,59.92390862132042,
140.75,144.0,41,0.0,Stimuli/Blank.png,0,0.0,0.0,0,63,63,63,,,,,,,,,,,,,140.7566595999997,0.006659599999693455,5,3.220022400000744,179.7585504000017,179.7585504000017,179.7585504000017,179.7585504000017,179.7585504000017,179.7585504000017,179.7585504000017,179.7585504000017,179.7585504000017,179.7585504000017,004,P004,2025_Jan_18_1400,ConditionRich,2021.2.3,59.92390862132042,
144.0,144.75,11,0.75,Stimuli/P004/sun_bawmjlzsuuivqjhi.jpg,0,0.0,0.0,0,64,64,64,,,,,,,,,,,,,144.00852139999915,0.0085213999991538,None,,183.01141460000144,183.01141460000144,183.01141460000144,183.01141460000144,183.01141460000144,183.01141460000144,183.01141460000144,183.01141460000144,183.01141460000144,183.01141460000144,004,P004,2025_Jan_18_1400,ConditionRich,2021.2.3,59.92390862132042,
144.75,148.0,41,0.0,Stimuli/Blank.png,0,0.0,0.0,0,65,65,65,,,,,,,,,,,,,144.76198730000033,0.011987300000328105,5,3.1998525000017253,183.77877109999827,183.77877109999827,183.77877109999827,183.77877109999827,183.77877109999827,183.77877109999827,183.77877109999827,183.77877109999827,183.77877109999827,183.77877109999827,004,P004,2025_Jan_18_1400,ConditionRich,2021.2.3,59.92390862132042,
148.0,148.75,6,0.75,Stimuli/P004/sun_aoumkoxfhlaobjef.jpg,0,0.0,0.0,0,66,66,66,,,,,,,,,,,,,148.02902130000075,0.02902130000074976,None,,187.04830199999924,187.04830199999924,187.04830199999924,187.04830199999924,187.04830199999924,187.04830199999924,187.04830199999924,187.04830199999924,187.04830199999924,187.04830199999924,004,P004,2025_Jan_18_1400,ConditionRich,2021.2.3,59.92390862132042,
148.75,152.0,41,0.0,Stimuli/Blank.png,0,0.0,0.0,0,67,67,67,,,,,,,,,,,,,148.78222090000054,0.03222090000053868,5,3.179558600000746,187.79897060000076,187.79897060000076,187.79897060000076,187.79897060000076,187.79897060000076,187.79897060000076,187.79897060000076,187.79897060000076,187.79897060000076,187.79897060000076,004,P004,2025_Jan_18_1400,ConditionRich,2021.2.3,59.92390862132042,
152.0,152.75,35,0.75,Stimuli/P004/things_satellite_dish_02s.jpg,0,0.0,0.0,0,68,68,68,,,,,,,,,,,,,152.0164380999995,0.01643809999950463,None,,191.01846149999983,191.01846149999983,191.01846149999983,191.01846149999983,191.01846149999983,191.01846149999983,191.01846149999983,191.01846149999983,191.01846149999983,191.01846149999983,004,P004,2025_Jan_18_1400,ConditionRich,2021.2.3,59.92390862132042,
152.75,156.0,41,0.0,Stimuli/Blank.png,0,0.0,0.0,0,69,69,69,,,,,,,,,,,,,152.75040429999717,0.0004042999971716199,5,1.2263112999971781,191.75249740000072,191.75249740000072,191.75249740000072,191.75249740000072,191.75249740000072,191.75249740000072,191.75249740000072,191.75249740000072,191.75249740000072,191.75249740000072,004,P004,2025_Jan_18_1400,ConditionRich,2021.2.3,59.92390862132042,
156.0,156.75,27,0.75,Stimuli/P004/things_llama_02s.jpg,0,0.0,0.0,0,70,70,70,,,,,,,,,,,,,156.00313639999877,0.0031363999987661373,None,,195.00526280000122,195.00526280000122,195.00526280000122,195.00526280000122,195.00526280000122,195.00526280000122,195.00526280000122,195.00526280000122,195.00526280000122,195.00526280000122,004,P004,2025_Jan_18_1400,ConditionRich,2021.2.3,59.92390862132042,
156.75,160.0,41,0.0,Stimuli/Blank.png,0,0.0,0.0,0,71,71,71,,,,,,,,,,,,,156.75406129999828,0.004061299998284085,5,1.2228107999981148,195.75595350000003,195.75595350000003,195.75595350000003,195.75595350000003,195.75595350000003,195.75595350000003,195.75595350000003,195.75595350000003,195.75595350000003,195.75595350000003,004,P004,2025_Jan_18_1400,ConditionRich,2021.2.3,59.92390862132042,
160.0,160.75,4,0.75,Stimuli/P004/sun_albtqdieqkajejrg.jpg,0,0.0,0.0,0,72,72,72,,,,,,,,,,,,,160.0062042999998,0.006204299999808427,None,,199.00900909999837,199.00900909999837,199.00900909999837,199.00900909999837,199.00900909999837,199.00900909999837,199.00900909999837,199.00900909999837,199.00900909999837,199.00900909999837,004,P004,2025_Jan_18_1400,ConditionRich,2021.2.3,59.92390862132042,
160.75,164.0,41,0.0,Stimuli/Blank.png,1,0.25,1.0,0,73,73,73,,,,,,,,,,,,,160.75754740000048,0.0075474000004760455,5,3.2190306999982568,199.75949570000012,199.75949570000012,199.75949570000012,199.75949570000012,199.75949570000012,199.75949570000012,199.99303249999866,200.7436917999985,199.75949570000012,199.75949570000012,004,P004,2025_Jan_18_1400,ConditionRich,2021.2.3,59.92390862132042,
164.0,164.75,13,0.75,Stimuli/P004/sun_bhbiqbqmwrowrqpd.jpg,0,0.0,0.0,0,74,74,74,,,,,,,,,,,,,164.01049929999863,0.010499299998627976,None,,203.01234029999978,203.01234029999978,203.01234029999978,203.01234029999978,203.01234029999978,203.01234029999978,203.01234029999978,203.01234029999978,203.01234029999978,203.01234029999978,004,P004,2025_Jan_18_1400,ConditionRich,2021.2.3,59.92390862132042,
164.75,168.0,41,0.0,Stimuli/Blank.png,1,0.25,1.0,0,75,75,75,,,,,,,,,,,,,164.76287559999764,0.012875599997641984,5,3.198845499999152,203.77969030000168,203.77969030000168,203.77969030000168,203.77969030000168,203.77969030000168,203.77969030000168,204.01322390000132,204.76387859999886,203.77969030000168,203.77969030000168,004,P004,2025_Jan_18_1400,ConditionRich,2021.2.3,59.92390862132042,
168.0,168.75,22,0.75,Stimuli/P004/things_boy_02s.jpg,0,0.0,0.0,0,76,76,76,,,,,,,,,,,,,168.0138064999992,0.013806499999191146,None,,207.03254549999838,207.03254549999838,207.03254549999838,207.03254549999838,207.03254549999838,207.03254549999838,207.03254549999838,207.03254549999838,207.03254549999838,207.03254549999838,004,P004,2025_Jan_18_1400,ConditionRich,2021.2.3,59.92390862132042,
168.75,172.0,41,0.0,Stimuli/Blank.png,1,0.25,1.0,0,77,77,77,,,,,,,,,,,,,168.78122989999974,0.031229899999743793,5,1.1952425999988918,207.78321940000023,207.78321940000023,207.78321940000023,207.78321940000023,207.78321940000023,207.78321940000023,208.01678170000014,208.7674306000008,207.78321940000023,207.78321940000023,004,P004,2025_Jan_18_1400,ConditionRich,2021.2.3,59.92390862132042,
172.0,172.75,19,0.75,Stimuli/P004/sun_bucebxfexknakpma.jpg,0,0.0,0.0,0,78,78,78,,,,,,,,,,,,,172.00322219999725,0.003222199997253483,None,,211.01938099999825,211.01938099999825,211.01938099999825,211.01938099999825,211.01938099999825,211.01938099999825,211.01938099999825,211.01938099999825,211.01938099999825,211.01938099999825,004,P004,2025_Jan_18_1400,ConditionRich,2021.2.3,59.92390862132042,
172.75,176.0,41,0.0,Stimuli/Blank.png,0,0.0,0.0,0,79,79,79,,,,,,,,,,,,,172.76775989999805,0.017759899998054607,5,1.2085317999990366,211.7700517000012,211.7700517000012,211.7700517000012,211.7700517000012,211.7700517000012,211.7700517000012,211.7700517000012,211.7700517000012,211.7700517000012,211.7700517000012,004,P004,2025_Jan_18_1400,ConditionRich,2021.2.3,59.92390862132042,
176.0,176.75,16,0.75,Stimuli/P004/sun_bjuoemgleyaogrmw.jpg,0,0.0,0.0,0,80,80,80,,,,,,,,,,,,,176.0042156999989,0.004215699998894706,None,,215.0062285999993,215.0062285999993,215.0062285999993,215.0062285999993,215.0062285999993,215.0062285999993,215.0062285999993,215.0062285999993,215.0062285999993,215.0062285999993,004,P004,2025_Jan_18_1400,ConditionRich,2021.2.3,59.92390862132042,
176.75,180.0,41,0.0,Stimuli/Blank.png,0,0.0,0.0,0,81,81,81,,,,,,,,,,,,,176.75402570000006,0.004025700000056531,5,1.221815199998673,215.75688609999997,215.75688609999997,215.75688609999997,215.75688609999997,215.75688609999997,215.75688609999997,215.75688609999997,215.75688609999997,215.75688609999997,215.75688609999997,004,P004,2025_Jan_18_1400,ConditionRich,2021.2.3,59.92390862132042,
180.0,196.0,0,0.0,Stimuli/Blank.png,1,5.0,5.75,0,82,82,82,,,,,,,,,,,,,180.00785709999764,0.007857099997636396,5,13.968644299999141,219.0097538000009,219.0097538000009,219.0097538000009,219.0097538000009,219.0097538000009,219.0097538000009,223.99749959999826,224.7481407000014,219.0097538000009,219.0097538000009,004,P004,2025_Jan_18_1400,ConditionRich,2021.2.3,59.92390862132042,
196.0,196.75,34,0.75,Stimuli/P004/things_roll_02s.jpg,0,0.0,0.0,0,83,83,83,,,,,,,,,,,,,196.00674549999894,0.00674549999894225,None,,235.0238528000009,235.0238528000009,235.0238528000009,235.0238528000009,235.0238528000009,235.0238528000009,235.0238528000009,235.0238528000009,235.0238528000009,235.0238528000009,004,P004,2025_Jan_18_1400,ConditionRich,2021.2.3,59.92390862132042,
196.75,200.0,41,0.0,Stimuli/Blank.png,0,0.0,0.0,0,84,84,84,,,,,,,,,,,,,196.77262979999796,0.02262979999795789,5,3.2037421999993967,235.77451700000165,235.77451700000165,235.77451700000165,235.77451700000165,235.77451700000165,235.77451700000165,235.77451700000165,235.77451700000165,235.77451700000165,235.77451700000165,004,P004,2025_Jan_18_1400,ConditionRich,2021.2.3,59.92390862132042,
200.0,200.75,28,0.75,Stimuli/P004/things_man_02s.jpg,0,0.0,0.0,0,85,85,85,,,,,,,,,,,,,200.00854719999916,0.008547199999156874,None,,239.02737720000005,239.02737720000005,239.02737720000005,239.02737720000005,239.02737720000005,239.02737720000005,239.02737720000005,239.02737720000005,239.02737720000005,239.02737720000005,004,P004,2025_Jan_18_1400,ConditionRich,2021.2.3,59.92390862132042,
200.75,204.0,41,0.0,Stimuli/Blank.png,0,0.0,0.0,0,86,86,86,,,,,,,,,,,,,200.77601759999743,0.026017599997430807,5,3.2002474000000802,239.7780348999986,239.7780348999986,239.7780348999986,239.7780348999986,239.7780348999986,239.7780348999986,239.7780348999986,239.7780348999986,239.7780348999986,239.7780348999986,004,P004,2025_Jan_18_1400,ConditionRich,2021.2.3,59.92390862132042,
204.0,204.75,5,0.75,Stimuli/P004/sun_amnnxdwfjbdfumns.jpg,0,0.0,0.0,0,87,87,87,,,,,,,,,,,,,204.01223179999943,0.012231799999426585,None,,243.01421240000127,243.01421240000127,243.01421240000127,243.01421240000127,243.01421240000127,243.01421240000127,243.01421240000127,243.01421240000127,243.01421240000127,243.01421240000127,004,P004,2025_Jan_18_1400,ConditionRich,2021.2.3,59.92390862132042,
204.75,208.0,41,0.0,Stimuli/Blank.png,0,0.0,0.0,0,88,88,88,,,,,,,,,,,,,204.76214629999959,0.012146299999585608,5,3.213469400001486,243.76486360000126,243.76486360000126,243.76486360000126,243.76486360000126,243.76486360000126,243.76486360000126,243.76486360000126,243.76486360000126,243.76486360000126,243.76486360000126,004,P004,2025_Jan_18_1400,ConditionRich,2021.2.3,59.92390862132042,
208.0,208.75,1,0.75,Stimuli/P004/sun_adgmtzznutwlescq.jpg,0,0.0,0.0,0,89,89,89,,,,,,,,,,,,,208.01780049999797,0.01780049999797484,None,,247.03442219999852,247.03442219999852,247.03442219999852,247.03442219999852,247.03442219999852,247.03442219999852,247.03442219999852,247.03442219999852,247.03442219999852,247.03442219999852,004,P004,2025_Jan_18_1400,ConditionRich,2021.2.3,59.92390862132042,
208.75,212.0,41,0.0,Stimuli/Blank.png,0,0.0,0.0,0,90,90,90,,,,,,,,,,,,,208.76688849999846,0.01688849999845843,5,1.2098368000006303,247.76841250000143,247.76841250000143,247.76841250000143,247.76841250000143,247.76841250000143,247.76841250000143,247.76841250000143,247.76841250000143,247.76841250000143,247.76841250000143,004,P004,2025_Jan_18_1400,ConditionRich,2021.2.3,59.92390862132042,
212.0,212.75,23,0.75,Stimuli/P004/things_butterfly_02s.jpg,1,0.0,0.75,0,91,91,91,,,,,,,,,,,,,212.0030712000007,0.003071200000704266,4,0.7170342000026722,251.02127699999983,251.02127699999983,251.02127699999983,251.02127699999983,251.02127699999983,251.02127699999983,251.02127699999983,251.7386105000005,251.02127699999983,251.02127699999983,004,P004,2025_Jan_18_1400,ConditionRich,2021.2.3,59.92390862132042,
212.75,216.0,41,0.0,Stimuli/Blank.png,0,0.0,0.0,0,92,92,92,,,,,,,,,,,,,212.77182299999913,0.021822999999130843,5,3.1897427000003518,251.78861419999885,251.78861419999885,251.78861419999885,251.78861419999885,251.78861419999885,251.78861419999885,251.78861419999885,251.78861419999885,251.78861419999885,251.78861419999885,004,P004,2025_Jan_18_1400,ConditionRich,2021.2.3,59.92390862132042,
216.0,216.75,38,0.75,Stimuli/P004/things_slug_02s.jpg,0,0.0,0.0,0,93,93,93,,,,,,,,,,,,,216.02229129999978,0.022291299999778857,None,,255.02482650000093,255.02482650000093,255.02482650000093,255.02482650000093,255.02482650000093,255.02482650000093,255.02482650000093,255.02482650000093,255.02482650000093,255.02482650000093,004,P004,2025_Jan_18_1400,ConditionRich,2021.2.3,59.92390862132042,
216.75,220.0,41,0.0,Stimuli/Blank.png,0,0.0,0.0,0,94,94,94,,,,,,,,,,,,,216.7562313999988,0.006231399998796405,5,3.2194832999994105,255.7587668999986,255.7587668999986,255.7587668999986,255.7587668999986,255.7587668999986,255.7587668999986,255.7587668999986,255.7587668999986,255.7587668999986,255.7587668999986,004,P004,2025_Jan_18_1400,ConditionRich,2021.2.3,59.92390862132042,
220.0,220.75,10,0.75,Stimuli/P004/sun_azzneunxibjvypza.jpg,0,0.0,0.0,0,95,95,95,,,,,,,,,,,,,220.0095810999992,0.00958109999919543,None,,259.0116366000002,259.0116366000002,259.0116366000002,259.0116366000002,259.0116366000002,259.0116366000002,259.0116366000002,259.0116366000002,259.0116366000002,259.0116366000002,004,P004,2025_Jan_18_1400,ConditionRich,2021.2.3,59.92390862132042,
220.75,224.0,41,0.0,Stimuli/Blank.png,1,2.25,3.0,0,96,96,96,,,,,,,,,,,,,220.76272120000067,0.012721200000669342,5,3.1992109999991953,259.7790497999995,259.7790497999995,259.7790497999995,259.7790497999995,259.7790497999995,259.7790497999995,262.0142702000012,262.76500569999916,259.7790497999995,259.7790497999995,004,P004,2025_Jan_18_1400,ConditionRich,2021.2.3,59.92390862132042,
224.0,224.75,33,0.75,Stimuli/P004/things_recorder_02s.jpg,0,0.0,0.0,0,97,97,97,,,,,,,,,,,,,224.0292109999973,0.02921099999730359,None,,263.03188619999855,263.03188619999855,263.03188619999855,263.03188619999855,263.03188619999855,263.03188619999855,263.03188619999855,263.03188619999855,263.03188619999855,263.03188619999855,004,P004,2025_Jan_18_1400,ConditionRich,2021.2.3,59.92390862132042,
224.75,228.0,41,0.0,Stimuli/Blank.png,1,1.25,2.0,0,98,98,98,,,,,,,,,,,,,224.76314329999877,0.013143299998773728,4,1.6926275000005262,263.7657803000002,263.7657803000002,263.7657803000002,263.7657803000002,263.7657803000002,263.7657803000002,265.0002243000017,265.75092420000146,263.7657803000002,263.7657803000002,004,P004,2025_Jan_18_1400,ConditionRich,2021.2.3,59.92390862132042,
228.0,228.75,13,0.75,Stimuli/P004/sun_bhbiqbqmwrowrqpd.jpg,0,0.0,0.0,0,99,99,99,,,,,,,,,,,,,227.9991631999983,-0.0008368000017071608,None,,267.01864249999926,267.01864249999926,267.01864249999926,267.01864249999926,267.01864249999926,267.01864249999926,267.01864249999926,267.01864249999926,267.01864249999926,267.01864249999926,004,P004,2025_Jan_18_1400,ConditionRich,2021.2.3,59.92390862132042,
228.75,232.0,41,0.0,Stimuli/Blank.png,0,0.0,0.0,0,100,100,100,,,,,,,,,,,,,228.76709159999882,0.01709159999882104,5,1.2092501999977685,267.7693341999984,267.7693341999984,267.7693341999984,267.7693341999984,267.7693341999984,267.7693341999984,267.7693341999984,267.7693341999984,267.7693341999984,267.7693341999984,004,P004,2025_Jan_18_1400,ConditionRich,2021.2.3,59.92390862132042,
232.0,232.75,36,0.75,Stimuli/P004/things_sea_urchin_02s.jpg,0,0.0,0.0,0,101,101,101,,,,,,,,,,,,,232.00328679999802,0.003286799998022616,None,,271.005513600001,271.005513600001,271.005513600001,271.005513600001,271.005513600001,271.005513600001,271.005513600001,271.005513600001,271.005513600001,271.005513600001,004,P004,2025_Jan_18_1400,ConditionRich,2021.2.3,59.92390862132042,
232.75,236.0,41,0.0,Stimuli/Blank.png,1,2.25,3.0,0,102,102,102,,,,,,,,,,,,,232.7538917999991,0.003891799999109935,4,2.567988399998285,271.7561733000002,271.7561733000002,271.7561733000002,271.7561733000002,271.7561733000002,271.7561733000002,273.9914738000007,274.7421318000015,271.7561733000002,271.7561733000002,004,P004,2025_Jan_18_1400,ConditionRich,2021.2.3,59.92390862132042,
236.0,236.75,16,0.75,Stimuli/P004/sun_bjuoemgleyaogrmw.jpg,0,0.0,0.0,0,103,103,103,,,,,,,,,,,,,236.00741539999945,0.0074153999994450714,None,,275.02573739999934,275.02573739999934,275.02573739999934,275.02573739999934,275.02573739999934,275.02573739999934,275.02573739999934,275.02573739999934,275.02573739999934,275.02573739999934,004,P004,2025_Jan_18_1400,ConditionRich,2021.2.3,59.92390862132042,
236.75,240.0,41,0.0,Stimuli/Blank.png,0,0.0,0.0,0,104,104,104,,,,,,,,,,,,,236.77645459999985,0.02645459999985178,5,3.185204800000065,275.7930696000003,275.7930696000003,275.7930696000003,275.7930696000003,275.7930696000003,275.7930696000003,275.7930696000003,275.7930696000003,275.7930696000003,275.7930696000003,004,P004,2025_Jan_18_1400,ConditionRich,2021.2.3,59.92390862132042,
240.0,240.75,31,0.75,Stimuli/P004/things_pea_02s.jpg,0,0.0,0.0,0,105,105,105,,,,,,,,,,,,,240.0269389999994,0.026938999999401858,None,,279.0292382000007,279.0292382000007,279.0292382000007,279.0292382000007,279.0292382000007,279.0292382000007,279.0292382000007,279.0292382000007,279.0292382000007,279.0292382000007,004,P004,2025_Jan_18_1400,ConditionRich,2021.2.3,59.92390862132042,
240.75,244.0,41,0.0,Stimuli/Blank.png,0,0.0,0.0,0,106,106,106,,,,,,,,,,,,,240.7612212999993,0.011221299999306211,5,3.214948499997263,279.7632440999987,279.7632440999987,279.7632440999987,279.7632440999987,279.7632440999987,279.7632440999987,279.7632440999987,279.7632440999987,279.7632440999987,279.7632440999987,004,P004,2025_Jan_18_1400,ConditionRich,2021.2.3,59.92390862132042,
244.0,244.75,17,0.75,Stimuli/P004/sun_bojovhhraxtgafcy.jpg,0,0.0,0.0,0,107,107,107,,,,,,,,,,,,,244.01422459999958,0.014224599999579368,None,,283.01606339999853,283.01606339999853,283.01606339999853,283.01606339999853,283.01606339999853,283.01606339999853,283.01606339999853,283.01606339999853,283.01606339999853,283.01606339999853,004,P004,2025_Jan_18_1400,ConditionRich,2021.2.3,59.92390862132042,
244.75,248.0,41,0.0,Stimuli/Blank.png,0,0.0,0.0,0,108,108,108,,,,,,,,,,,,,244.76412189999974,0.014121899999736343,5,1.2114345999980287,283.76674880000064,283.76674880000064,283.76674880000064,283.76674880000064,283.76674880000064,283.76674880000064,283.76674880000064,283.76674880000064,283.76674880000064,283.76674880000064,004,P004,2025_Jan_18_1400,ConditionRich,2021.2.3,59.92390862132042,
248.0,248.75,30,0.75,Stimuli/P004/things_music_box_02s.jpg,0,0.0,0.0,0,109,109,109,,,,,,,,,,,,,248.00103429999945,0.0010342999994463753,None,,287.0196088999983,287.0196088999983,287.0196088999983,287.0196088999983,287.0196088999983,287.0196088999983,287.0196088999983,287.0196088999983,287.0196088999983,287.0196088999983,004,P004,2025_Jan_18_1400,ConditionRich,2021.2.3,59.92390862132042,
248.75,252.0,41,0.0,Stimuli/Blank.png,0,0.0,0.0,0,110,110,110,,,,,,,,,,,,,248.76805239999885,0.018052399998850888,5,1.207943499997782,287.7702653999986,287.7702653999986,287.7702653999986,287.7702653999986,287.7702653999986,287.7702653999986,287.7702653999986,287.7702653999986,287.7702653999986,287.7702653999986,004,P004,2025_Jan_18_1400,ConditionRich,2021.2.3,59.92390862132042,
252.0,252.75,7,0.75,Stimuli/P004/sun_asgixjtedklbawgm.jpg,0,0.0,0.0,0,111,111,111,,,,,,,,,,,,,252.0067429999981,0.006742999998095911,None,,291.02315309999904,291.02315309999904,291.02315309999904,291.02315309999904,291.02315309999904,291.02315309999904,291.02315309999904,291.02315309999904,291.02315309999904,291.02315309999904,004,P004,2025_Jan_18_1400,ConditionRich,2021.2.3,59.92390862132042,
252.75,256.0,41,0.0,Stimuli/Blank.png,0,0.0,0.0,0,112,112,112,,,,,,,,,,,,,252.7720365999994,0.0220365999994101,5,3.2044008999982907,291.7738199000014,291.7738199000014,291.7738199000014,291.7738199000014,291.7738199000014,291.7738199000014,291.7738199000014,291.7738199000014,291.7738199000014,291.7738199000014,004,P004,2025_Jan_18_1400,ConditionRich,2021.2.3,59.92390862132042,
256.0,256.75,4,0.75,Stimuli/P004/sun_albtqdieqkajejrg.jpg,0,0.0,0.0,0,113,113,113,,,,,,,,,,,,,256.00793899999917,0.007938999999169027,None,,295.0099747999993,295.0099747999993,295.0099747999993,295.0099747999993,295.0099747999993,295.0099747999993,295.0099747999993,295.0099747999993,295.0099747999993,295.0099747999993,004,P004,2025_Jan_18_1400,ConditionRich,2021.2.3,59.92390862132042,
256.75,260.0,41,0.0,Stimuli/Blank.png,0,0.0,0.0,0,114,114,114,,,,,,,,,,,,,256.75790620000043,0.007906200000434183,5,3.2175997999984247,295.7606373999988,295.7606373999988,295.7606373999988,295.7606373999988,295.7606373999988,295.7606373999988,295.7606373999988,295.7606373999988,295.7606373999988,295.7606373999988,004,P004,2025_Jan_18_1400,ConditionRich,2021.2.3,59.92390862132042,
260.0,260.75,14,0.75,Stimuli/P004/sun_bhhtrmwvoadbfucw.jpg,0,0.0,0.0,0,115,115,115,,,,,,,,,,,,,260.0119214999977,0.011921499997697538,None,,299.0135039000015,299.0135039000015,299.0135039000015,299.0135039000015,299.0135039000015,299.0135039000015,299.0135039000015,299.0135039000015,299.0135039000015,299.0135039000015,004,P004,2025_Jan_18_1400,ConditionRich,2021.2.3,59.92390862132042,
260.75,264.0,41,0.0,Stimuli/Blank.png,0,0.0,0.0,0,116,116,116,,,,,,,,,,,,,260.7620480000005,0.012048000000504544,5,3.2139590000006137,299.7641771000017,299.7641771000017,299.7641771000017,299.7641771000017,299.7641771000017,299.7641771000017,299.7641771000017,299.7641771000017,299.7641771000017,299.7641771000017,004,P004,2025_Jan_18_1400,ConditionRich,2021.2.3,59.92390862132042,
264.0,264.75,12,0.75,Stimuli/P004/sun_bcboctumoxwpdefl.jpg,0,0.0,0.0,0,117,117,117,,,,,,,,,,,,,264.0169930999982,0.016993099998217076,None,,303.03370509999877,303.03370509999877,303.03370509999877,303.03370509999877,303.03370509999877,303.03370509999877,303.03370509999877,303.03370509999877,303.03370509999877,303.03370509999877,004,P004,2025_Jan_18_1400,ConditionRich,2021.2.3,59.92390862132042,
264.75,268.0,41,0.0,Stimuli/Blank.png,0,0.0,0.0,0,118,118,118,,,,,,,,,,,,,264.76691989999745,0.01691989999744692,5,3.1939113000007637,303.78435900000113,303.78435900000113,303.78435900000113,303.78435900000113,303.78435900000113,303.78435900000113,303.78435900000113,303.78435900000113,303.78435900000113,303.78435900000113,004,P004,2025_Jan_18_1400,ConditionRich,2021.2.3,59.92390862132042,
268.0,268.75,22,0.75,Stimuli/P004/things_boy_02s.jpg,0,0.0,0.0,0,119,119,119,,,,,,,,,,,,,268.01901519999956,0.019015199999557808,None,,307.02054879999923,307.02054879999923,307.02054879999923,307.02054879999923,307.02054879999923,307.02054879999923,307.02054879999923,307.02054879999923,307.02054879999923,307.02054879999923,004,P004,2025_Jan_18_1400,ConditionRich,2021.2.3,59.92390862132042,
268.75,272.0,41,0.0,Stimuli/Blank.png,0,0.0,0.0,0,120,120,120,,,,,,,,,,,,,268.75263079999786,0.0026307999978598673,5,1.2233212000028288,307.7550110999982,307.7550110999982,307.7550110999982,307.7550110999982,307.7550110999982,307.7550110999982,307.7550110999982,307.7550110999982,307.7550110999982,307.7550110999982,004,P004,2025_Jan_18_1400,ConditionRich,2021.2.3,59.92390862132042,
272.0,272.75,2,0.75,Stimuli/P004/sun_afijjzyziczoqdhz.jpg,0,0.0,0.0,0,121,121,121,,,,,,,,,,,,,272.0071250999972,0.007125099997210782,None,,311.02407289999974,311.02407289999974,311.02407289999974,311.02407289999974,311.02407289999974,311.02407289999974,311.02407289999974,311.02407289999974,311.02407289999974,311.02407289999974,004,P004,2025_Jan_18_1400,ConditionRich,2021.2.3,59.92390862132042,
272.75,276.0,41,0.0,Stimuli/Blank.png,0,0.0,0.0,0,122,122,122,,,,,,,,,,,,,272.7718351000003,0.021835100000316743,5,3.2033450999988418,311.7747323000003,311.7747323000003,311.7747323000003,311.7747323000003,311.7747323000003,311.7747323000003,311.7747323000003,311.7747323000003,311.7747323000003,311.7747323000003,004,P004,2025_Jan_18_1400,ConditionRich,2021.2.3,59.92390862132042,
276.0,292.0,0,0.0,Stimuli/Blank.png,1,1.0,1.75,0,123,123,123,,,,,,,,,,,,,276.0080350999997,0.0080350999996881,5,13.967056999998022,315.01091050000105,315.01091050000105,315.01091050000105,315.01091050000105,315.01091050000105,315.01091050000105,315.99514700000145,316.7458044999985,315.01091050000105,315.01091050000105,004,P004,2025_Jan_18_1400,ConditionRich,2021.2.3,59.92390862132042,
292.0,292.75,8,0.75,Stimuli/P004/sun_asxkyzleyfgbqfrs.jpg,0,0.0,0.0,0,124,124,124,,,,,,,,,,,,,292.00623730000007,0.0062373000000661705,None,,331.02500280000095,331.02500280000095,331.02500280000095,331.02500280000095,331.02500280000095,331.02500280000095,331.02500280000095,331.02500280000095,331.02500280000095,331.02500280000095,004,P004,2025_Jan_18_1400,ConditionRich,2021.2.3,59.92390862132042,
292.75,296.0,41,0.0,Stimuli/Blank.png,0,0.0,0.0,0,125,125,125,,,,,,,,,,,,,292.7736205000001,0.023620500000106404,5,3.2021730999986175,331.7757425000018,331.7757425000018,331.7757425000018,331.7757425000018,331.7757425000018,331.7757425000018,331.7757425000018,331.7757425000018,331.7757425000018,331.7757425000018,004,P004,2025_Jan_18_1400,ConditionRich,2021.2.3,59.92390862132042,
296.0,296.75,6,0.75,Stimuli/P004/sun_aoumkoxfhlaobjef.jpg,0,0.0,0.0,0,126,126,126,,,,,,,,,,,,,296.0115635000002,0.011563500000193017,None,,335.02852709999934,335.02852709999934,335.02852709999934,335.02852709999934,335.02852709999934,335.02852709999934,335.02852709999934,335.02852709999934,335.02852709999934,335.02852709999934,004,P004,2025_Jan_18_1400,ConditionRich,2021.2.3,59.92390862132042,
296.75,300.0,41,0.0,Stimuli/Blank.png,0,0.0,0.0,0,127,127,127,,,,,,,,,,,,,296.7770734000005,0.027073400000517722,5,3.198902599997382,335.77919009999823,335.77919009999823,335.77919009999823,335.77919009999823,335.77919009999823,335.77919009999823,335.77919009999823,335.77919009999823,335.77919009999823,335.77919009999823,004,P004,2025_Jan_18_1400,ConditionRich,2021.2.3,59.92390862132042,
300.0,300.75,3,0.75,Stimuli/P004/sun_afqjzrocqhabifao.jpg,0,0.0,0.0,0,128,128,128,,,,,,,,,,,,,300.0127786999983,0.012778699998307275,None,,339.03205779999917,339.03205779999917,339.03205779999917,339.03205779999917,339.03205779999917,339.03205779999917,339.03205779999917,339.03205779999917,339.03205779999917,339.03205779999917,004,P004,2025_Jan_18_1400,ConditionRich,2021.2.3,59.92390862132042,
300.75,304.0,41,0.0,Stimuli/Blank.png,0,0.0,0.0,0,129,129,129,,,,,,,,,,,,,300.78072709999833,0.030727099998330232,5,1.195265799997287,339.7827184000016,339.7827184000016,339.7827184000016,339.7827184000016,339.7827184000016,339.7827184000016,339.7827184000016,339.7827184000016,339.7827184000016,339.7827184000016,004,P004,2025_Jan_18_1400,ConditionRich,2021.2.3,59.92390862132042,
304.0,304.75,20,0.75,Stimuli/P004/sun_bwytihadgigwkyht.jpg,0,0.0,0.0,0,130,130,130,,,,,,,,,,,,,304.0035336999972,0.0035336999972059857,None,,343.01892059999955,343.01892059999955,343.01892059999955,343.01892059999955,343.01892059999955,343.01892059999955,343.01892059999955,343.01892059999955,343.01892059999955,343.01892059999955,004,P004,2025_Jan_18_1400,ConditionRich,2021.2.3,59.92390862132042,
304.75,308.0,41,0.0,Stimuli/Blank.png,0,0.0,0.0,0,131,131,131,,,,,,,,,,,,,304.767316999998,0.017316999998001847,5,1.2085681999997178,343.7695630999988,343.7695630999988,343.7695630999988,343.7695630999988,343.7695630999988,343.7695630999988,343.7695630999988,343.7695630999988,343.7695630999988,343.7695630999988,004,P004,2025_Jan_18_1400,ConditionRich,2021.2.3,59.92390862132042,
308.0,308.75,35,0.75,Stimuli/P004/things_satellite_dish_02s.jpg,0,0.0,0.0,0,132,132,132,,,,,,,,,,,,,308.00346969999737,0.00346969999736757,None,,347.0224393999997,347.0224393999997,347.0224393999997,347.0224393999997,347.0224393999997,347.0224393999997,347.0224393999997,347.0224393999997,347.0224393999997,347.0224393999997,004,P004,2025_Jan_18_1400,ConditionRich,2021.2.3,59.92390862132042,
308.75,312.0,41,0.0,Stimuli/Blank.png,1,2.25,3.0,0,133,133,133,,,,,,,,,,,,,308.77103870000064,0.021038700000644894,4,3.2029629000026034,347.7730765999986,347.7730765999986,347.7730765999986,347.7730765999986,347.7730765999986,347.7730765999986,350.00834530000066,350.7590691000005,347.7730765999986,347.7730765999986,004,P004,2025_Jan_18_1400,ConditionRich,2021.2.3,59.92390862132042,
312.0,312.75,19,0.75,Stimuli/P004/sun_bucebxfexknakpma.jpg,0,0.0,0.0,0,134,134,134,,,,,,,,,,,,,312.0073823999992,0.007382399999187328,None,,351.0092536999982,351.0092536999982,351.0092536999982,351.0092536999982,351.0092536999982,351.0092536999982,351.0092536999982,351.0092536999982,351.0092536999982,351.0092536999982,004,P004,2025_Jan_18_1400,ConditionRich,2021.2.3,59.92390862132042,
312.75,316.0,41,0.0,Stimuli/Blank.png,0,0.0,0.0,0,135,135,135,,,,,,,,,,,,,312.75757619999786,0.007576199997856747,5,3.217960400001175,351.75992190000034,351.75992190000034,351.75992190000034,351.75992190000034,351.75992190000034,351.75992190000034,351.75992190000034,351.75992190000034,351.75992190000034,351.75992190000034,004,P004,2025_Jan_18_1400,ConditionRich,2021.2.3,59.92390862132042,
316.0,316.75,25,0.75,Stimuli/P004/things_girl_02s.jpg,0,0.0,0.0,0,136,136,136,,,,,,,,,,,,,316.01068959999975,0.010689599999750499,None,,355.0127816999993,355.0127816999993,355.0127816999993,355.0127816999993,355.0127816999993,355.0127816999993,355.0127816999993,355.0127816999993,355.0127816999993,355.0127816999993,004,P004,2025_Jan_18_1400,ConditionRich,2021.2.3,59.92390862132042,
316.75,320.0,41,0.0,Stimuli/Blank.png,0,0.0,0.0,0,137,137,137,,,,,,,,,,,,,316.76072799999747,0.01072799999747076,5,3.2145048000020324,355.7634394000015,355.7634394000015,355.7634394000015,355.7634394000015,355.7634394000015,355.7634394000015,355.7634394000015,355.7634394000015,355.7634394000015,355.7634394000015,004,P004,2025_Jan_18_1400,ConditionRich,2021.2.3,59.92390862132042,
320.0,320.75,11,0.75,Stimuli/P004/sun_bawmjlzsuuivqjhi.jpg,0,0.0,0.0,0,138,138,138,,,,,,,,,,,,,320.01641179999933,0.01641179999933229,None,,359.03298279999944,359.03298279999944,359.03298279999944,359.03298279999944,359.03298279999944,359.03298279999944,359.03298279999944,359.03298279999944,359.03298279999944,359.03298279999944,004,P004,2025_Jan_18_1400,ConditionRich,2021.2.3,59.92390862132042,
320.75,324.0,41,0.0,Stimuli/Blank.png,0,0.0,0.0,0,139,139,139,,,,,,,,,,,,,320.76660529999936,0.01660529999935534,5,3.19423199999801,359.78365589999885,359.78365589999885,359.78365589999885,359.78365589999885,359.78365589999885,359.78365589999885,359.78365589999885,359.78365589999885,359.78365589999885,359.78365589999885,004,P004,2025_Jan_18_1400,ConditionRich,2021.2.3,59.92390862132042,
324.0,324.75,39,0.75,Stimuli/P004/things_toad_02s.jpg,0,0.0,0.0,0,140,140,140,,,,,,,,,,,,,324.01775819999966,0.017758199999661883,None,,363.0198234999989,363.0198234999989,363.0198234999989,363.0198234999989,363.0198234999989,363.0198234999989,363.0198234999989,363.0198234999989,363.0198234999989,363.0198234999989,004,P004,2025_Jan_18_1400,ConditionRich,2021.2.3,59.92390862132042,
324.75,328.0,41,0.0,Stimuli/Blank.png,0,0.0,0.0,0,141,141,141,,,,,,,,,,,,,324.7517360999991,0.0017360999991069548,5,1.2241460000004736,363.75379279999834,363.75379279999834,363.75379279999834,363.75379279999834,363.75379279999834,363.75379279999834,363.75379279999834,363.75379279999834,363.75379279999834,363.75379279999834,004,P004,2025_Jan_18_1400,ConditionRich,2021.2.3,59.92390862132042,
328.0,328.75,15,0.75,Stimuli/P004/sun_bjhtdevvocmwtavk.jpg,0,0.0,0.0,0,142,142,142,,,,,,,,,,,,,328.0070233000006,0.007023300000582822,None,,367.02335120000134,367.02335120000134,367.02335120000134,367.02335120000134,367.02335120000134,367.02335120000134,367.02335120000134,367.02335120000134,367.02335120000134,367.02335120000134,004,P004,2025_Jan_18_1400,ConditionRich,2021.2.3,59.92390862132042,
328.75,332.0,41,0.0,Stimuli/Blank.png,0,0.0,0.0,0,143,143,143,,,,,,,,,,,,,328.77219889999833,0.02219889999832958,5,3.2038432999979705,367.7740190000004,367.7740190000004,367.7740190000004,367.7740190000004,367.7740190000004,367.7740190000004,367.7740190000004,367.7740190000004,367.7740190000004,367.7740190000004,004,P004,2025_Jan_18_1400,ConditionRich,2021.2.3,59.92390862132042,
332.0,332.75,26,0.75,Stimuli/P004/things_ham_02s.jpg,0,0.0,0.0,0,144,144,144,,,,,,,,,,,,,332.0076991999995,0.0076991999994788785,None,,371.01019649999944,371.01019649999944,371.01019649999944,371.01019649999944,371.01019649999944,371.01019649999944,371.01019649999944,371.01019649999944,371.01019649999944,371.01019649999944,004,P004,2025_Jan_18_1400,ConditionRich,2021.2.3,59.92390862132042,
332.75,336.0,41,0.0,Stimuli/Blank.png,0,0.0,0.0,0,145,145,145,,,,,,,,,,,,,332.7583811000004,0.00838110000040615,5,3.2169694999975036,371.76085279999825,371.76085279999825,371.76085279999825,371.76085279999825,371.76085279999825,371.76085279999825,371.76085279999825,371.76085279999825,371.76085279999825,371.76085279999825,004,P004,2025_Jan_18_1400,ConditionRich,2021.2.3,59.92390862132042,
336.0,336.75,40,0.75,Stimuli/P004/things_woman_02s.jpg,0,0.0,0.0,0,146,146,146,,,,,,,,,,,,,336.01227629999994,0.01227629999993951,None,,375.030401,375.030401,375.030401,375.030401,375.030401,375.030401,375.030401,375.030401,375.030401,375.030401,004,P004,2025_Jan_18_1400,ConditionRich,2021.2.3,59.92390862132042,
336.75,340.0,41,0.0,Stimuli/Blank.png,0,0.0,0.0,0,147,147,147,,,,,,,,,,,,,336.77865929999825,0.028659299998253118,5,3.197809599998436,375.7810664999997,375.7810664999997,375.7810664999997,375.7810664999997,375.7810664999997,375.7810664999997,375.7810664999997,375.7810664999997,375.7810664999997,375.7810664999997,004,P004,2025_Jan_18_1400,ConditionRich,2021.2.3,59.92390862132042,
340.0,340.75,24,0.75,Stimuli/P004/things_dumpling_02s.jpg,0,0.0,0.0,0,148,148,148,,,,,,,,,,,,,340.01736249999885,0.01736249999885331,None,,379.03392800000074,379.03392800000074,379.03392800000074,379.03392800000074,379.03392800000074,379.03392800000074,379.03392800000074,379.03392800000074,379.03392800000074,379.03392800000074,004,P004,2025_Jan_18_1400,ConditionRich,2021.2.3,59.92390862132042,
340.75,344.0,41,0.0,Stimuli/Blank.png,0,0.0,0.0,0,149,149,149,,,,,,,,,,,,,340.76567839999916,0.01567839999916032,5,1.2111092999984976,379.7679074000007,379.7679074000007,379.7679074000007,379.7679074000007,379.7679074000007,379.7679074000007,379.7679074000007,379.7679074000007,379.7679074000007,379.7679074000007,004,P004,2025_Jan_18_1400,ConditionRich,2021.2.3,59.92390862132042,
344.0,344.75,29,0.75,Stimuli/P004/things_mat_02s.jpg,0,0.0,0.0,0,150,150,150,,,,,,,,,,,,,344.00206029999754,0.0020602999975380953,None,,383.02078959999926,383.02078959999926,383.02078959999926,383.02078959999926,383.02078959999926,383.02078959999926,383.02078959999926,383.02078959999926,383.02078959999926,383.02078959999926,004,P004,2025_Jan_18_1400,ConditionRich,2021.2.3,59.92390862132042,
344.75,348.0,41,0.0,Stimuli/Blank.png,0,0.0,0.0,0,151,151,151,,,,,,,,,,,,,344.77139700000043,0.021397000000433763,5,3.1909511999983806,383.78814520000014,383.78814520000014,383.78814520000014,383.78814520000014,383.78814520000014,383.78814520000014,383.78814520000014,383.78814520000014,383.78814520000014,383.78814520000014,004,P004,2025_Jan_18_1400,ConditionRich,2021.2.3,59.92390862132042,
348.0,348.75,9,0.75,Stimuli/P004/sun_auqtrqkaobyprnjy.jpg,0,0.0,0.0,0,152,152,152,,,,,,,,,,,,,348.0220178999989,0.022017899998900248,None,,387.0242853000018,387.0242853000018,387.0242853000018,387.0242853000018,387.0242853000018,387.0242853000018,387.0242853000018,387.0242853000018,387.0242853000018,387.0242853000018,004,P004,2025_Jan_18_1400,ConditionRich,2021.2.3,59.92390862132042,
348.75,352.0,41,0.0,Stimuli/Blank.png,1,1.25,2.0,0,153,153,153,,,,,,,,,,,,,348.75598179999724,0.005981799997243797,5,3.2205426000000443,387.75826750000124,387.75826750000124,387.75826750000124,387.75826750000124,387.75826750000124,387.75826750000124,388.99268630000006,389.74334159999853,387.75826750000124,387.75826750000124,004,P004,2025_Jan_18_1400,ConditionRich,2021.2.3,59.92390862132042,
352.0,352.75,32,0.75,Stimuli/P004/things_pulley_02s.jpg,0,0.0,0.0,0,154,154,154,,,,,,,,,,,,,352.0113964999982,0.011396499998227227,None,,391.02781289999984,391.02781289999984,391.02781289999984,391.02781289999984,391.02781289999984,391.02781289999984,391.02781289999984,391.02781289999984,391.02781289999984,391.02781289999984,004,P004,2025_Jan_18_1400,ConditionRich,2021.2.3,59.92390862132042,
352.75,356.0,41,0.0,Stimuli/Blank.png,1,2.25,3.0,0,155,155,155,,,,,,,,,,,,,352.7768619999988,0.026861999998800457,5,3.2004109999979846,391.7784811999991,391.7784811999991,391.7784811999991,391.7784811999991,391.7784811999991,391.7784811999991,394.01378509999995,394.7644685999985,391.7784811999991,391.7784811999991,004,P004,2025_Jan_18_1400,ConditionRich,2021.2.3,59.92390862132042,
356.0,356.75,21,0.75,Stimuli/P004/things_baby_02s.jpg,0,0.0,0.0,0,156,156,156,,,,,,,,,,,,,356.01259299999947,0.012592999999469612,None,,395.0146496000016,395.0146496000016,395.0146496000016,395.0146496000016,395.0146496000016,395.0146496000016,395.0146496000016,395.0146496000016,395.0146496000016,395.0146496000016,004,P004,2025_Jan_18_1400,ConditionRich,2021.2.3,59.92390862132042,
356.75,360.0,41,0.0,Stimuli/Blank.png,0,0.0,0.0,0,157,157,157,,,,,,,,,,,,,356.7634634999995,0.013463499999488704,5,1.2135099000006448,395.7653085999991,395.7653085999991,395.7653085999991,395.7653085999991,395.7653085999991,395.7653085999991,395.7653085999991,395.7653085999991,395.7653085999991,395.7653085999991,004,P004,2025_Jan_18_1400,ConditionRich,2021.2.3,59.92390862132042,
360.0,360.75,18,0.75,Stimuli/P004/sun_bplhnzkztpigweny.jpg,0,0.0,0.0,0,158,158,158,,,,,,,,,,,,,360.00118459999794,0.0011845999979414046,None,,399.01817909999954,399.01817909999954,399.01817909999954,399.01817909999954,399.01817909999954,399.01817909999954,399.01817909999954,399.01817909999954,399.01817909999954,399.01817909999954,004,P004,2025_Jan_18_1400,ConditionRich,2021.2.3,59.92390862132042,
360.75,364.0,41,0.0,Stimuli/Blank.png,1,1.25,2.0,0,159,159,159,,,,,,,,,,,,,360.76745239999946,0.017452399999456247,4,1.5930803999981435,399.7688425000015,399.7688425000015,399.7688425000015,399.7688425000015,399.7688425000015,399.7688425000015,401.0032777999986,401.75388699999894,399.7688425000015,399.7688425000015,004,P004,2025_Jan_18_1400,ConditionRich,2021.2.3,59.92390862132042,
364.0,364.75,37,0.75,Stimuli/P004/things_ski_lift_02s.jpg,0,0.0,0.0,0,160,160,160,,,,,,,,,,,,,364.0032767999983,0.003276799998275237,None,,403.00503150000077,403.00503150000077,403.00503150000077,403.00503150000077,403.00503150000077,403.00503150000077,403.00503150000077,403.00503150000077,403.00503150000077,403.00503150000077,004,P004,2025_Jan_18_1400,ConditionRich,2021.2.3,59.92390862132042,
364.75,368.0,41,0.0,Stimuli/Blank.png,0,0.0,0.0,0,161,161,161,,,,,,,,,,,,,364.75387989999945,0.003879899999446934,5,1.2233352000002924,403.7556732999983,403.7556732999983,403.7556732999983,403.7556732999983,403.7556732999983,403.7556732999983,403.7556732999983,403.7556732999983,403.7556732999983,403.7556732999983,004,P004,2025_Jan_18_1400,ConditionRich,2021.2.3,59.92390862132042,
368.0,368.75,27,0.75,Stimuli/P004/things_llama_02s.jpg,0,0.0,0.0,0,162,162,162,,,,,,,,,,,,,368.006624499998,0.006624499997997191,None,,407.0085368,407.0085368,407.0085368,407.0085368,407.0085368,407.0085368,407.0085368,407.0085368,407.0085368,407.0085368,004,P004,2025_Jan_18_1400,ConditionRich,2021.2.3,59.92390862132042,
368.75,372.0,41,0.0,Stimuli/Blank.png,0,0.0,0.0,0,163,163,163,,,,,,,,,,,,,368.7565763999992,0.006576399999175919,5,3.21948159999738,407.7591988999993,407.7591988999993,407.7591988999993,407.7591988999993,407.7591988999993,407.7591988999993,407.7591988999993,407.7591988999993,407.7591988999993,407.7591988999993,004,P004,2025_Jan_18_1400,ConditionRich,2021.2.3,59.92390862132042,
372.0,388.0,0,0.0,Stimuli/Blank.png,1,1.0,1.75,0,164,164,164,,,,,,,,,,,,,372.01234420000037,0.01234420000037062,5,13.950223600000754,411.02875230000063,411.02875230000063,411.02875230000063,411.02875230000063,411.02875230000063,411.02875230000063,412.012944099999,412.7636037000011,411.02875230000063,411.02875230000063,004,P004,2025_Jan_18_1400,ConditionRich,2021.2.3,59.92390862132042,
