eventStartTime,eventEndTime,eventCond,imSize,imFile,responseEvent,fixRespStart,fixRespEnd,Events.thisRepN,Events.thisTrialN,Events.thisN,Events.thisIndex,Instructions.started,Instructions.stopped,participantReadyResponse.keys,participantReadyResponse.rt,participantReadyResponse.started,participantReadyResponse.stopped,startWaitforTrigger,triggerResponse.keys,triggerResponse.rt,triggerResponse.started,triggerResponse.stopped,globalTimer,actualStartTime,startTimingDiff,participantResponse.keys,participantResponse.rt,participantResponse.started,participantResponse.stopped,image.started,image.stopped,fixationOutside.started,fixationOutside.stopped,fixationResponse.started,fixationResponse.stopped,fixationInside.started,fixationInside.stopped,session,participant,date,expName,psychopyVersion,frameRate,
,,,,,,,,,,,,32.734996299997874,None,4,2.755556100000831,32.734996299997874,None,,,,,,,,,,,,,,,,,,,,,009,P004,2025_Jan_18_1445,ConditionRich,2021.2.3,59.93080389455538,
,,,,,,,,,,,,,,,,,,35.49592829999892,5,14.872608000001492,35.50891679999768,None,,,,,,,,,,,,,,,,009,P004,2025_Jan_18_1445,ConditionRich,2021.2.3,59.93080389455538,
0.0,4.0,0,0.0,Stimuli/Blank.png,0,0,0.0,0,0,0,0,,,,,,,,,,,,50.3919034999999,0.07751360000111163,0.07751360000111163,5,3.893004800000199,50.48876989999917,None,50.48876989999917,None,50.48876989999917,None,50.48876989999917,50.48876989999917,50.48876989999917,None,009,P004,2025_Jan_18_1445,ConditionRich,2021.2.3,59.93080389455538,
4.0,4.75,18,0.75,Stimuli/P004/sun_bplhnzkztpigweny.jpg,0,0,0.0,0,1,1,1,,,,,,,,,,,,,4.020687299998826,0.020687299998826347,None,,54.44262019999951,54.44262019999951,54.44262019999951,54.44262019999951,54.44262019999951,54.44262019999951,54.44262019999951,54.44262019999951,54.44262019999951,54.44262019999951,009,P004,2025_Jan_18_1445,ConditionRich,2021.2.3,59.93080389455538,
4.75,5.0,41,0.0,Stimuli/Blank.png,0,0,0.0,0,2,2,2,,,,,,,,,,,,,4.770622500000172,0.020622500000172295,None,,55.17678059999889,55.17678059999889,55.17678059999889,55.17678059999889,55.17678059999889,55.17678059999889,55.17678059999889,55.17678059999889,55.17678059999889,55.17678059999889,009,P004,2025_Jan_18_1445,ConditionRich,2021.2.3,59.93080389455538,
5.0,5.75,18,0.75,Stimuli/P004/sun_bplhnzkztpigweny.jpg,0,0,0.0,0,3,3,3,,,,,,,,,,,,,5.004121699999814,0.004121699999814155,None,,55.40975999999864,55.40975999999864,55.40975999999864,55.40975999999864,55.40975999999864,55.40975999999864,55.40975999999864,55.40975999999864,55.40975999999864,55.40975999999864,009,P004,2025_Jan_18_1445,ConditionRich,2021.2.3,59.93080389455538,
5.75,6.0,41,0.0,Stimuli/Blank.png,0,0,0.0,0,4,4,4,,,,,,,,,,,,,5.754705799998192,0.004705799998191651,4,0.19527780000134953,56.16043669999999,56.16043669999999,56.16043669999999,56.16043669999999,56.16043669999999,56.16043669999999,56.16043669999999,56.16043669999999,56.16043669999999,56.16043669999999,009,P004,2025_Jan_18_1445,ConditionRich,2021.2.3,59.93080389455538,
6.0,6.75,18,0.75,Stimuli/P004/sun_bplhnzkztpigweny.jpg,0,0,0.0,0,5,5,5,,,,,,,,,,,,,6.00511479999841,0.0051147999984095804,None,,56.42735130000074,56.42735130000074,56.42735130000074,56.42735130000074,56.42735130000074,56.42735130000074,56.42735130000074,56.42735130000074,56.42735130000074,56.42735130000074,009,P004,2025_Jan_18_1445,ConditionRich,2021.2.3,59.93080389455538,
6.75,7.0,41,0.0,Stimuli/Blank.png,0,0,0.0,0,6,6,6,,,,,,,,,,,,,6.773938499998621,0.02393849999862141,None,,57.194675700000516,57.194675700000516,57.194675700000516,57.194675700000516,57.194675700000516,57.194675700000516,57.194675700000516,57.194675700000516,57.194675700000516,57.194675700000516,009,P004,2025_Jan_18_1445,ConditionRich,2021.2.3,59.93080389455538,
7.0,7.75,18,0.75,Stimuli/P004/sun_bplhnzkztpigweny.jpg,0,0,0.0,0,7,7,7,,,,,,,,,,,,,7.022370200000296,0.02237020000029588,None,,57.42820690000008,57.42820690000008,57.42820690000008,57.42820690000008,57.42820690000008,57.42820690000008,57.42820690000008,57.42820690000008,57.42820690000008,57.42820690000008,009,P004,2025_Jan_18_1445,ConditionRich,2021.2.3,59.93080389455538,
7.75,8.0,41,0.0,Stimuli/Blank.png,0,0,0.0,0,8,8,8,,,,,,,,,,,,,7.758299999997689,0.008299999997689156,5,0.20261089999985415,58.17887359999804,58.17887359999804,58.17887359999804,58.17887359999804,58.17887359999804,58.17887359999804,58.17887359999804,58.17887359999804,58.17887359999804,58.17887359999804,009,P004,2025_Jan_18_1445,ConditionRich,2021.2.3,59.93080389455538,
8.0,8.75,23,0.75,Stimuli/P004/things_butterfly_02s.jpg,0,0,0.0,0,9,9,9,,,,,,,,,,,,,8.02325650000057,0.023256500000570668,None,,58.42909339999824,58.42909339999824,58.42909339999824,58.42909339999824,58.42909339999824,58.42909339999824,58.42909339999824,58.42909339999824,58.42909339999824,58.42909339999824,009,P004,2025_Jan_18_1445,ConditionRich,2021.2.3,59.93080389455538,
8.75,9.0,41,0.0,Stimuli/Blank.png,0,0,0.0,0,10,10,10,,,,,,,,,,,,,8.75842239999838,0.00842239999838057,None,,59.16359419999935,59.16359419999935,59.16359419999935,59.16359419999935,59.16359419999935,59.16359419999935,59.16359419999935,59.16359419999935,59.16359419999935,59.16359419999935,009,P004,2025_Jan_18_1445,ConditionRich,2021.2.3,59.93080389455538,
9.0,9.75,23,0.75,Stimuli/P004/things_butterfly_02s.jpg,0,0,0.0,0,11,11,11,,,,,,,,,,,,,9.007776099999319,0.007776099999318831,4,0.6564128000027267,59.41331459999856,59.41331459999856,59.41331459999856,59.41331459999856,59.41331459999856,59.41331459999856,59.41331459999856,59.41331459999856,59.41331459999856,59.41331459999856,009,P004,2025_Jan_18_1445,ConditionRich,2021.2.3,59.93080389455538,
9.75,10.0,41,0.0,Stimuli/Blank.png,0,0,0.0,0,12,12,12,,,,,,,,,,,,,9.758832799998345,0.008832799998344854,5,0.21760119999817107,60.16395279999779,60.16395279999779,60.16395279999779,60.16395279999779,60.16395279999779,60.16395279999779,60.16395279999779,60.16395279999779,60.16395279999779,60.16395279999779,009,P004,2025_Jan_18_1445,ConditionRich,2021.2.3,59.93080389455538,
10.0,10.75,23,0.75,Stimuli/P004/things_butterfly_02s.jpg,0,0,0.0,0,13,13,13,,,,,,,,,,,,,10.008473300000333,0.008473300000332529,None,,60.41416659999959,60.41416659999959,60.41416659999959,60.41416659999959,60.41416659999959,60.41416659999959,60.41416659999959,60.41416659999959,60.41416659999959,60.41416659999959,009,P004,2025_Jan_18_1445,ConditionRich,2021.2.3,59.93080389455538,
10.75,11.0,41,0.0,Stimuli/Blank.png,0,0,0.0,0,14,14,14,,,,,,,,,,,,,10.759041199999047,0.009041199999046512,None,,61.164837699998316,61.164837699998316,61.164837699998316,61.164837699998316,61.164837699998316,61.164837699998316,61.164837699998316,61.164837699998316,61.164837699998316,61.164837699998316,009,P004,2025_Jan_18_1445,ConditionRich,2021.2.3,59.93080389455538,
11.0,11.75,23,0.75,Stimuli/P004/things_butterfly_02s.jpg,0,0,0.0,0,15,15,15,,,,,,,,,,,,,11.008904399997846,0.008904399997845758,None,,61.41504949999944,61.41504949999944,61.41504949999944,61.41504949999944,61.41504949999944,61.41504949999944,61.41504949999944,61.41504949999944,61.41504949999944,61.41504949999944,009,P004,2025_Jan_18_1445,ConditionRich,2021.2.3,59.93080389455538,
11.75,12.0,41,0.0,Stimuli/Blank.png,0,0,0.0,0,16,16,16,,,,,,,,,,,,,11.75988739999957,0.009887399999570334,5,0.21590090000245254,62.165709400000196,62.165709400000196,62.165709400000196,62.165709400000196,62.165709400000196,62.165709400000196,62.165709400000196,62.165709400000196,62.165709400000196,62.165709400000196,009,P004,2025_Jan_18_1445,ConditionRich,2021.2.3,59.93080389455538,
12.0,12.75,13,0.75,Stimuli/P004/sun_bhbiqbqmwrowrqpd.jpg,0,0,0.0,0,17,17,17,,,,,,,,,,,,,12.010116800000105,0.010116800000105286,None,,62.432643899999675,62.432643899999675,62.432643899999675,62.432643899999675,62.432643899999675,62.432643899999675,62.432643899999675,62.432643899999675,62.432643899999675,62.432643899999675,009,P004,2025_Jan_18_1445,ConditionRich,2021.2.3,59.93080389455538,
12.75,13.0,41,0.0,Stimuli/Blank.png,0,0,0.0,0,18,18,18,,,,,,,,,,,,,12.777646200000163,0.027646200000162935,None,,63.1832719999984,63.1832719999984,63.1832719999984,63.1832719999984,63.1832719999984,63.1832719999984,63.1832719999984,63.1832719999984,63.1832719999984,63.1832719999984,009,P004,2025_Jan_18_1445,ConditionRich,2021.2.3,59.93080389455538,
13.0,13.75,13,0.75,Stimuli/P004/sun_bhbiqbqmwrowrqpd.jpg,0,0,0.0,0,19,19,19,,,,,,,,,,,,,13.010459199998877,0.010459199998877011,None,,63.43350149999969,63.43350149999969,63.43350149999969,63.43350149999969,63.43350149999969,63.43350149999969,63.43350149999969,63.43350149999969,63.43350149999969,63.43350149999969,009,P004,2025_Jan_18_1445,ConditionRich,2021.2.3,59.93080389455538,
13.75,14.0,41,0.0,Stimuli/Blank.png,0,0,0.0,0,20,20,20,,,,,,,,,,,,,13.778436799999326,0.028436799999326468,5,0.19730920000074548,64.1841588999996,64.1841588999996,64.1841588999996,64.1841588999996,64.1841588999996,64.1841588999996,64.1841588999996,64.1841588999996,64.1841588999996,64.1841588999996,009,P004,2025_Jan_18_1445,ConditionRich,2021.2.3,59.93080389455538,
14.0,14.75,13,0.75,Stimuli/P004/sun_bhbiqbqmwrowrqpd.jpg,0,0,0.0,0,21,21,21,,,,,,,,,,,,,14.011737099997845,0.01173709999784478,None,,64.41768749999756,64.41768749999756,64.41768749999756,64.41768749999756,64.41768749999756,64.41768749999756,64.41768749999756,64.41768749999756,64.41768749999756,64.41768749999756,009,P004,2025_Jan_18_1445,ConditionRich,2021.2.3,59.93080389455538,
14.75,15.0,41,0.0,Stimuli/Blank.png,0,0,0.0,0,22,22,22,,,,,,,,,,,,,14.76189759999761,0.011897599997610087,None,,65.16835889999857,65.16835889999857,65.16835889999857,65.16835889999857,65.16835889999857,65.16835889999857,65.16835889999857,65.16835889999857,65.16835889999857,65.16835889999857,009,P004,2025_Jan_18_1445,ConditionRich,2021.2.3,59.93080389455538,
15.0,15.75,13,0.75,Stimuli/P004/sun_bhbiqbqmwrowrqpd.jpg,0,0,0.0,0,23,23,23,,,,,,,,,,,,,15.012671299999056,0.012671299999055918,None,,65.41858040000079,65.41858040000079,65.41858040000079,65.41858040000079,65.41858040000079,65.41858040000079,65.41858040000079,65.41858040000079,65.41858040000079,65.41858040000079,009,P004,2025_Jan_18_1445,ConditionRich,2021.2.3,59.93080389455538,
15.75,16.0,41,0.0,Stimuli/Blank.png,0,0,0.0,0,24,24,24,,,,,,,,,,,,,15.763689899999008,0.013689899999008048,5,0.2123548000017763,66.16924069999732,66.16924069999732,66.16924069999732,66.16924069999732,66.16924069999732,66.16924069999732,66.16924069999732,66.16924069999732,66.16924069999732,66.16924069999732,009,P004,2025_Jan_18_1445,ConditionRich,2021.2.3,59.93080389455538,
16.0,16.75,32,0.75,Stimuli/P004/things_pulley_02s.jpg,0,0,0.0,0,25,25,25,,,,,,,,,,,,,16.013396599999396,0.01339659999939613,None,,66.41945669999768,66.41945669999768,66.41945669999768,66.41945669999768,66.41945669999768,66.41945669999768,66.41945669999768,66.41945669999768,66.41945669999768,66.41945669999768,009,P004,2025_Jan_18_1445,ConditionRich,2021.2.3,59.93080389455538,
16.75,17.0,41,0.0,Stimuli/Blank.png,0,0,0.0,0,26,26,26,,,,,,,,,,,,,16.76445489999969,0.014454899999691406,None,,67.17011739999725,67.17011739999725,67.17011739999725,67.17011739999725,67.17011739999725,67.17011739999725,67.17011739999725,67.17011739999725,67.17011739999725,67.17011739999725,009,P004,2025_Jan_18_1445,ConditionRich,2021.2.3,59.93080389455538,
17.0,17.75,32,0.75,Stimuli/P004/things_pulley_02s.jpg,0,0,0.0,0,27,27,27,,,,,,,,,,,,,17.01391009999861,0.013910099998611258,None,,67.42033029999948,67.42033029999948,67.42033029999948,67.42033029999948,67.42033029999948,67.42033029999948,67.42033029999948,67.42033029999948,67.42033029999948,67.42033029999948,009,P004,2025_Jan_18_1445,ConditionRich,2021.2.3,59.93080389455538,
17.75,18.0,41,0.0,Stimuli/Blank.png,0,0,0.0,0,28,28,28,,,,,,,,,,,,,17.764890499998728,0.014890499998728046,5,0.21056429999953252,68.17099869999947,68.17099869999947,68.17099869999947,68.17099869999947,68.17099869999947,68.17099869999947,68.17099869999947,68.17099869999947,68.17099869999947,68.17099869999947,009,P004,2025_Jan_18_1445,ConditionRich,2021.2.3,59.93080389455538,
18.0,18.75,32,0.75,Stimuli/P004/things_pulley_02s.jpg,0,0,0.0,0,29,29,29,,,,,,,,,,,,,18.015165500000876,0.015165500000875909,None,,68.4379087999987,68.4379087999987,68.4379087999987,68.4379087999987,68.4379087999987,68.4379087999987,68.4379087999987,68.4379087999987,68.4379087999987,68.4379087999987,009,P004,2025_Jan_18_1445,ConditionRich,2021.2.3,59.93080389455538,
18.75,19.0,41,0.0,Stimuli/Blank.png,0,0,0.0,0,30,30,30,,,,,,,,,,,,,18.76809019999928,0.01809019999927841,None,,69.18856600000072,69.18856600000072,69.18856600000072,69.18856600000072,69.18856600000072,69.18856600000072,69.18856600000072,69.18856600000072,69.18856600000072,69.18856600000072,009,P004,2025_Jan_18_1445,ConditionRich,2021.2.3,59.93080389455538,
19.0,19.75,32,0.75,Stimuli/P004/things_pulley_02s.jpg,0,0,0.0,0,31,31,31,,,,,,,,,,,,,19.017857799997728,0.017857799997727852,None,,69.43878100000074,69.43878100000074,69.43878100000074,69.43878100000074,69.43878100000074,69.43878100000074,69.43878100000074,69.43878100000074,69.43878100000074,69.43878100000074,009,P004,2025_Jan_18_1445,ConditionRich,2021.2.3,59.93080389455538,
19.75,20.0,41,0.0,Stimuli/Blank.png,0,0,0.0,0,32,32,32,,,,,,,,,,,,,19.768991599998117,0.018991599998116726,5,0.19196910000027856,70.18944209999972,70.18944209999972,70.18944209999972,70.18944209999972,70.18944209999972,70.18944209999972,70.18944209999972,70.18944209999972,70.18944209999972,70.18944209999972,009,P004,2025_Jan_18_1445,ConditionRich,2021.2.3,59.93080389455538,
20.0,20.75,35,0.75,Stimuli/P004/things_satellite_dish_02s.jpg,0,0,0.0,0,33,33,33,,,,,,,,,,,,,20.01798290000079,0.017982900000788504,None,,70.43965799999933,70.43965799999933,70.43965799999933,70.43965799999933,70.43965799999933,70.43965799999933,70.43965799999933,70.43965799999933,70.43965799999933,70.43965799999933,009,P004,2025_Jan_18_1445,ConditionRich,2021.2.3,59.93080389455538,
20.75,21.0,41,0.0,Stimuli/Blank.png,0,0,0.0,0,34,34,34,,,,,,,,,,,,,20.767838899999333,0.01783889999933308,None,,71.17366709999988,71.17366709999988,71.17366709999988,71.17366709999988,71.17366709999988,71.17366709999988,71.17366709999988,71.17366709999988,71.17366709999988,71.17366709999988,009,P004,2025_Jan_18_1445,ConditionRich,2021.2.3,59.93080389455538,
21.0,21.75,35,0.75,Stimuli/P004/things_satellite_dish_02s.jpg,0,0,0.0,0,35,35,35,,,,,,,,,,,,,21.00082079999993,0.0008207999999285676,None,,71.40717699999732,71.40717699999732,71.40717699999732,71.40717699999732,71.40717699999732,71.40717699999732,71.40717699999732,71.40717699999732,71.40717699999732,71.40717699999732,009,P004,2025_Jan_18_1445,ConditionRich,2021.2.3,59.93080389455538,
21.75,22.0,41,0.0,Stimuli/Blank.png,0,0,0.0,0,36,36,36,,,,,,,,,,,,,21.75168819999817,0.001688199998170603,None,,72.15783449999799,72.15783449999799,72.15783449999799,72.15783449999799,72.15783449999799,72.15783449999799,72.15783449999799,72.15783449999799,72.15783449999799,72.15783449999799,009,P004,2025_Jan_18_1445,ConditionRich,2021.2.3,59.93080389455538,
22.0,22.75,35,0.75,Stimuli/P004/things_satellite_dish_02s.jpg,0,0,0.0,0,37,37,37,,,,,,,,,,,,,22.002022299999226,0.002022299999225652,None,,72.4080847999976,72.4080847999976,72.4080847999976,72.4080847999976,72.4080847999976,72.4080847999976,72.4080847999976,72.4080847999976,72.4080847999976,72.4080847999976,009,P004,2025_Jan_18_1445,ConditionRich,2021.2.3,59.93080389455538,
22.75,23.0,41,0.0,Stimuli/Blank.png,0,0,0.0,0,38,38,38,,,,,,,,,,,,,22.7535429999989,0.0035429999988991767,None,,73.15867209999851,73.15867209999851,73.15867209999851,73.15867209999851,73.15867209999851,73.15867209999851,73.15867209999851,73.15867209999851,73.15867209999851,73.15867209999851,009,P004,2025_Jan_18_1445,ConditionRich,2021.2.3,59.93080389455538,
23.0,23.75,35,0.75,Stimuli/P004/things_satellite_dish_02s.jpg,1,0,0.75,0,39,39,39,,,,,,,,,,,,,23.00394619999861,0.00394619999860879,4,0.42777750000095693,73.42559759999858,73.42559759999858,73.42559759999858,73.42559759999858,73.42559759999858,73.42559759999858,73.42559759999858,74.14293869999892,73.42559759999858,73.42559759999858,009,P004,2025_Jan_18_1445,ConditionRich,2021.2.3,59.93080389455538,
23.75,24.0,41,0.0,Stimuli/Blank.png,0,0,0.0,0,40,40,40,,,,,,,,,,,,,23.771372799998062,0.021372799998061964,None,,74.17631059999985,74.17631059999985,74.17631059999985,74.17631059999985,74.17631059999985,74.17631059999985,74.17631059999985,74.17631059999985,74.17631059999985,74.17631059999985,009,P004,2025_Jan_18_1445,ConditionRich,2021.2.3,59.93080389455538,
24.0,24.75,10,0.75,Stimuli/P004/sun_azzneunxibjvypza.jpg,0,0,0.0,0,41,41,41,,,,,,,,,,,,,24.00407550000091,0.004075500000908505,None,,74.40983209999831,74.40983209999831,74.40983209999831,74.40983209999831,74.40983209999831,74.40983209999831,74.40983209999831,74.40983209999831,74.40983209999831,74.40983209999831,009,P004,2025_Jan_18_1445,ConditionRich,2021.2.3,59.93080389455538,
24.75,25.0,41,0.0,Stimuli/Blank.png,0,0,0.0,0,42,42,42,,,,,,,,,,,,,24.7542532999978,0.004253299997799331,None,,75.16048699999737,75.16048699999737,75.16048699999737,75.16048699999737,75.16048699999737,75.16048699999737,75.16048699999737,75.16048699999737,75.16048699999737,75.16048699999737,009,P004,2025_Jan_18_1445,ConditionRich,2021.2.3,59.93080389455538,
25.0,25.75,10,0.75,Stimuli/P004/sun_azzneunxibjvypza.jpg,0,0,0.0,0,43,43,43,,,,,,,,,,,,,25.00434479999967,0.0043447999996715225,None,,75.4107053000007,75.4107053000007,75.4107053000007,75.4107053000007,75.4107053000007,75.4107053000007,75.4107053000007,75.4107053000007,75.4107053000007,75.4107053000007,009,P004,2025_Jan_18_1445,ConditionRich,2021.2.3,59.93080389455538,
25.75,26.0,41,0.0,Stimuli/Blank.png,0,0,0.0,0,44,44,44,,,,,,,,,,,,,25.755517300000065,0.005517300000065006,None,,76.16136039999765,76.16136039999765,76.16136039999765,76.16136039999765,76.16136039999765,76.16136039999765,76.16136039999765,76.16136039999765,76.16136039999765,76.16136039999765,009,P004,2025_Jan_18_1445,ConditionRich,2021.2.3,59.93080389455538,
26.0,26.75,10,0.75,Stimuli/P004/sun_azzneunxibjvypza.jpg,0,0,0.0,0,45,45,45,,,,,,,,,,,,,26.005665799999406,0.005665799999405863,None,,76.41158919999725,76.41158919999725,76.41158919999725,76.41158919999725,76.41158919999725,76.41158919999725,76.41158919999725,76.41158919999725,76.41158919999725,76.41158919999725,009,P004,2025_Jan_18_1445,ConditionRich,2021.2.3,59.93080389455538,
26.75,27.0,41,0.0,Stimuli/Blank.png,0,0,0.0,0,46,46,46,,,,,,,,,,,,,26.757849199999328,0.007849199999327539,None,,77.179032,77.179032,77.179032,77.179032,77.179032,77.179032,77.179032,77.179032,77.179032,77.179032,009,P004,2025_Jan_18_1445,ConditionRich,2021.2.3,59.93080389455538,
27.0,27.75,10,0.75,Stimuli/P004/sun_azzneunxibjvypza.jpg,0,0,0.0,0,47,47,47,,,,,,,,,,,,,27.02372739999919,0.023727399999188492,None,,77.44590759999846,77.44590759999846,77.44590759999846,77.44590759999846,77.44590759999846,77.44590759999846,77.44590759999846,77.44590759999846,77.44590759999846,77.44590759999846,009,P004,2025_Jan_18_1445,ConditionRich,2021.2.3,59.93080389455538,
27.75,28.0,41,0.0,Stimuli/Blank.png,0,0,0.0,0,48,48,48,,,,,,,,,,,,,27.77428019999934,0.024280199999338947,5,0.2016050999991421,78.17980339999849,78.17980339999849,78.17980339999849,78.17980339999849,78.17980339999849,78.17980339999849,78.17980339999849,78.17980339999849,78.17980339999849,78.17980339999849,009,P004,2025_Jan_18_1445,ConditionRich,2021.2.3,59.93080389455538,
28.0,28.75,20,0.75,Stimuli/P004/sun_bwytihadgigwkyht.jpg,0,0,0.0,0,49,49,49,,,,,,,,,,,,,28.007570699999633,0.0075706999996327795,None,,78.41334640000059,78.41334640000059,78.41334640000059,78.41334640000059,78.41334640000059,78.41334640000059,78.41334640000059,78.41334640000059,78.41334640000059,78.41334640000059,009,P004,2025_Jan_18_1445,ConditionRich,2021.2.3,59.93080389455538,
28.75,29.0,41,0.0,Stimuli/Blank.png,0,0,0.0,0,50,50,50,,,,,,,,,,,,,28.759047399998963,0.009047399998962646,None,,79.16401589999805,79.16401589999805,79.16401589999805,79.16401589999805,79.16401589999805,79.16401589999805,79.16401589999805,79.16401589999805,79.16401589999805,79.16401589999805,009,P004,2025_Jan_18_1445,ConditionRich,2021.2.3,59.93080389455538,
29.0,29.75,20,0.75,Stimuli/P004/sun_bwytihadgigwkyht.jpg,0,0,0.0,0,51,51,51,,,,,,,,,,,,,29.00874599999952,0.008745999999518972,None,,79.41423629999917,79.41423629999917,79.41423629999917,79.41423629999917,79.41423629999917,79.41423629999917,79.41423629999917,79.41423629999917,79.41423629999917,79.41423629999917,009,P004,2025_Jan_18_1445,ConditionRich,2021.2.3,59.93080389455538,
29.75,30.0,41,0.0,Stimuli/Blank.png,0,0,0.0,0,52,52,52,,,,,,,,,,,,,29.759287799999584,0.009287799999583513,5,0.21652890000041225,80.16488499999832,80.16488499999832,80.16488499999832,80.16488499999832,80.16488499999832,80.16488499999832,80.16488499999832,80.16488499999832,80.16488499999832,80.16488499999832,009,P004,2025_Jan_18_1445,ConditionRich,2021.2.3,59.93080389455538,
30.0,30.75,20,0.75,Stimuli/P004/sun_bwytihadgigwkyht.jpg,0,0,0.0,0,53,53,53,,,,,,,,,,,,,30.00955579999936,0.009555799999361625,None,,80.41510749999725,80.41510749999725,80.41510749999725,80.41510749999725,80.41510749999725,80.41510749999725,80.41510749999725,80.41510749999725,80.41510749999725,80.41510749999725,009,P004,2025_Jan_18_1445,ConditionRich,2021.2.3,59.93080389455538,
30.75,31.0,41,0.0,Stimuli/Blank.png,0,0,0.0,0,54,54,54,,,,,,,,,,,,,30.75948939999944,0.00948939999943832,None,,81.16576449999775,81.16576449999775,81.16576449999775,81.16576449999775,81.16576449999775,81.16576449999775,81.16576449999775,81.16576449999775,81.16576449999775,81.16576449999775,009,P004,2025_Jan_18_1445,ConditionRich,2021.2.3,59.93080389455538,
31.0,31.75,20,0.75,Stimuli/P004/sun_bwytihadgigwkyht.jpg,1,0,0.75,0,55,55,55,,,,,,,,,,,,,31.00996699999814,0.009966999998141546,None,,81.43268069999976,81.43268069999976,81.43268069999976,81.43268069999976,81.43268069999976,81.43268069999976,81.43268069999976,82.15001239999765,81.43268069999976,81.43268069999976,009,P004,2025_Jan_18_1445,ConditionRich,2021.2.3,59.93080389455538,
31.75,32.0,41,0.0,Stimuli/Blank.png,0,0,0.0,0,56,56,56,,,,,,,,,,,,,31.77687800000058,0.02687800000057905,5,0.19807629999922938,82.18333409999832,82.18333409999832,82.18333409999832,82.18333409999832,82.18333409999832,82.18333409999832,82.18333409999832,82.18333409999832,82.18333409999832,82.18333409999832,009,P004,2025_Jan_18_1445,ConditionRich,2021.2.3,59.93080389455538,
32.0,32.75,36,0.75,Stimuli/P004/things_sea_urchin_02s.jpg,0,0,0.0,0,57,57,57,,,,,,,,,,,,,32.01175779999903,0.011757799999031704,None,,82.43354669999826,82.43354669999826,82.43354669999826,82.43354669999826,82.43354669999826,82.43354669999826,82.43354669999826,82.43354669999826,82.43354669999826,82.43354669999826,009,P004,2025_Jan_18_1445,ConditionRich,2021.2.3,59.93080389455538,
32.75,33.0,41,0.0,Stimuli/Blank.png,0,0,0.0,0,58,58,58,,,,,,,,,,,,,32.778652500001044,0.028652500001044245,None,,83.18421979999766,83.18421979999766,83.18421979999766,83.18421979999766,83.18421979999766,83.18421979999766,83.18421979999766,83.18421979999766,83.18421979999766,83.18421979999766,009,P004,2025_Jan_18_1445,ConditionRich,2021.2.3,59.93080389455538,
33.0,33.75,36,0.75,Stimuli/P004/things_sea_urchin_02s.jpg,0,0,0.0,0,59,59,59,,,,,,,,,,,,,33.0134266999994,0.013426699999399716,None,,83.43440179999743,83.43440179999743,83.43440179999743,83.43440179999743,83.43440179999743,83.43440179999743,83.43440179999743,83.43440179999743,83.43440179999743,83.43440179999743,009,P004,2025_Jan_18_1445,ConditionRich,2021.2.3,59.93080389455538,
33.75,34.0,41,0.0,Stimuli/Blank.png,0,0,0.0,0,60,60,60,,,,,,,,,,,,,33.778885299998365,0.028885299998364644,5,0.19644160000098054,84.18509099999937,84.18509099999937,84.18509099999937,84.18509099999937,84.18509099999937,84.18509099999937,84.18509099999937,84.18509099999937,84.18509099999937,84.18509099999937,009,P004,2025_Jan_18_1445,ConditionRich,2021.2.3,59.93080389455538,
34.0,34.75,36,0.75,Stimuli/P004/things_sea_urchin_02s.jpg,0,0,0.0,0,61,61,61,,,,,,,,,,,,,34.01306459999978,0.013064599999779603,None,,84.41862910000054,84.41862910000054,84.41862910000054,84.41862910000054,84.41862910000054,84.41862910000054,84.41862910000054,84.41862910000054,84.41862910000054,84.41862910000054,009,P004,2025_Jan_18_1445,ConditionRich,2021.2.3,59.93080389455538,
34.75,35.0,41,0.0,Stimuli/Blank.png,0,0,0.0,0,62,62,62,,,,,,,,,,,,,34.76362479999807,0.013624799998069648,None,,85.16929610000079,85.16929610000079,85.16929610000079,85.16929610000079,85.16929610000079,85.16929610000079,85.16929610000079,85.16929610000079,85.16929610000079,85.16929610000079,009,P004,2025_Jan_18_1445,ConditionRich,2021.2.3,59.93080389455538,
35.0,35.75,36,0.75,Stimuli/P004/things_sea_urchin_02s.jpg,0,0,0.0,0,63,63,63,,,,,,,,,,,,,35.01339209999787,0.01339209999787272,None,,85.41951010000048,85.41951010000048,85.41951010000048,85.41951010000048,85.41951010000048,85.41951010000048,85.41951010000048,85.41951010000048,85.41951010000048,85.41951010000048,009,P004,2025_Jan_18_1445,ConditionRich,2021.2.3,59.93080389455538,
35.75,36.0,41,0.0,Stimuli/Blank.png,0,0,0.0,0,64,64,64,,,,,,,,,,,,,35.7643719000007,0.014371900000696769,5,0.21138110000174493,86.17017289999785,86.17017289999785,86.17017289999785,86.17017289999785,86.17017289999785,86.17017289999785,86.17017289999785,86.17017289999785,86.17017289999785,86.17017289999785,009,P004,2025_Jan_18_1445,ConditionRich,2021.2.3,59.93080389455538,
36.0,36.75,3,0.75,Stimuli/P004/sun_afqjzrocqhabifao.jpg,0,0,0.0,0,65,65,65,,,,,,,,,,,,,36.01469139999972,0.014691399999719579,None,,86.42038459999821,86.42038459999821,86.42038459999821,86.42038459999821,86.42038459999821,86.42038459999821,86.42038459999821,86.42038459999821,86.42038459999821,86.42038459999821,009,P004,2025_Jan_18_1445,ConditionRich,2021.2.3,59.93080389455538,
36.75,37.0,41,0.0,Stimuli/Blank.png,0,0,0.0,0,66,66,66,,,,,,,,,,,,,36.76492919999873,0.014929199998732656,None,,87.17105620000075,87.17105620000075,87.17105620000075,87.17105620000075,87.17105620000075,87.17105620000075,87.17105620000075,87.17105620000075,87.17105620000075,87.17105620000075,009,P004,2025_Jan_18_1445,ConditionRich,2021.2.3,59.93080389455538,
37.0,37.75,3,0.75,Stimuli/P004/sun_afqjzrocqhabifao.jpg,0,0,0.0,0,67,67,67,,,,,,,,,,,,,37.0151349000007,0.015134900000703055,None,,87.43796279999879,87.43796279999879,87.43796279999879,87.43796279999879,87.43796279999879,87.43796279999879,87.43796279999879,87.43796279999879,87.43796279999879,87.43796279999879,009,P004,2025_Jan_18_1445,ConditionRich,2021.2.3,59.93080389455538,
37.75,38.0,41,0.0,Stimuli/Blank.png,0,0,0.0,0,68,68,68,,,,,,,,,,,,,37.76567639999848,0.015676399998483248,None,,88.17196829999739,88.17196829999739,88.17196829999739,88.17196829999739,88.17196829999739,88.17196829999739,88.17196829999739,88.17196829999739,88.17196829999739,88.17196829999739,009,P004,2025_Jan_18_1445,ConditionRich,2021.2.3,59.93080389455538,
38.0,38.75,3,0.75,Stimuli/P004/sun_afqjzrocqhabifao.jpg,0,0,0.0,0,69,69,69,,,,,,,,,,,,,37.999010100000305,-0.0009898999996948987,None,,88.40547359999982,88.40547359999982,88.40547359999982,88.40547359999982,88.40547359999982,88.40547359999982,88.40547359999982,88.40547359999982,88.40547359999982,88.40547359999982,009,P004,2025_Jan_18_1445,ConditionRich,2021.2.3,59.93080389455538,
38.75,39.0,41,0.0,Stimuli/Blank.png,0,0,0.0,0,70,70,70,,,,,,,,,,,,,38.750313799999276,0.00031379999927594326,None,,89.15612939999846,89.15612939999846,89.15612939999846,89.15612939999846,89.15612939999846,89.15612939999846,89.15612939999846,89.15612939999846,89.15612939999846,89.15612939999846,009,P004,2025_Jan_18_1445,ConditionRich,2021.2.3,59.93080389455538,
39.0,39.75,3,0.75,Stimuli/P004/sun_afqjzrocqhabifao.jpg,0,0,0.0,0,71,71,71,,,,,,,,,,,,,39.000527399999555,0.0005273999995552003,None,,89.42309609999938,89.42309609999938,89.42309609999938,89.42309609999938,89.42309609999938,89.42309609999938,89.42309609999938,89.42309609999938,89.42309609999938,89.42309609999938,009,P004,2025_Jan_18_1445,ConditionRich,2021.2.3,59.93080389455538,
39.75,40.0,41,0.0,Stimuli/Blank.png,0,0,0.0,0,72,72,72,,,,,,,,,,,,,39.767497199998616,0.017497199998615542,None,,90.17369150000013,90.17369150000013,90.17369150000013,90.17369150000013,90.17369150000013,90.17369150000013,90.17369150000013,90.17369150000013,90.17369150000013,90.17369150000013,009,P004,2025_Jan_18_1445,ConditionRich,2021.2.3,59.93080389455538,
40.0,40.75,37,0.75,Stimuli/P004/things_ski_lift_02s.jpg,0,0,0.0,0,73,73,73,,,,,,,,,,,,,40.000784799998655,0.0007847999986552168,None,,90.40723779999826,90.40723779999826,90.40723779999826,90.40723779999826,90.40723779999826,90.40723779999826,90.40723779999826,90.40723779999826,90.40723779999826,90.40723779999826,009,P004,2025_Jan_18_1445,ConditionRich,2021.2.3,59.93080389455538,
40.75,41.0,41,0.0,Stimuli/Blank.png,0,0,0.0,0,74,74,74,,,,,,,,,,,,,40.75401240000065,0.004012400000647176,None,,91.17458529999931,91.17458529999931,91.17458529999931,91.17458529999931,91.17458529999931,91.17458529999931,91.17458529999931,91.17458529999931,91.17458529999931,91.17458529999931,009,P004,2025_Jan_18_1445,ConditionRich,2021.2.3,59.93080389455538,
41.0,41.75,37,0.75,Stimuli/P004/things_ski_lift_02s.jpg,0,0,0.0,0,75,75,75,,,,,,,,,,,,,41.01839399999881,0.018393999998806976,None,,91.42479789999925,91.42479789999925,91.42479789999925,91.42479789999925,91.42479789999925,91.42479789999925,91.42479789999925,91.42479789999925,91.42479789999925,91.42479789999925,009,P004,2025_Jan_18_1445,ConditionRich,2021.2.3,59.93080389455538,
41.75,42.0,41,0.0,Stimuli/Blank.png,0,0,0.0,0,76,76,76,,,,,,,,,,,,,41.7535527,0.0035527000000001863,None,,92.15877969999929,92.15877969999929,92.15877969999929,92.15877969999929,92.15877969999929,92.15877969999929,92.15877969999929,92.15877969999929,92.15877969999929,92.15877969999929,009,P004,2025_Jan_18_1445,ConditionRich,2021.2.3,59.93080389455538,
42.0,42.75,37,0.75,Stimuli/P004/things_ski_lift_02s.jpg,0,0,0.0,0,77,77,77,,,,,,,,,,,,,42.003228699999454,0.0032286999994539656,None,,92.40899929999796,92.40899929999796,92.40899929999796,92.40899929999796,92.40899929999796,92.40899929999796,92.40899929999796,92.40899929999796,92.40899929999796,92.40899929999796,009,P004,2025_Jan_18_1445,ConditionRich,2021.2.3,59.93080389455538,
42.75,43.0,41,0.0,Stimuli/Blank.png,0,0,0.0,0,78,78,78,,,,,,,,,,,,,42.753871799999615,0.0038717999996151775,None,,93.15966409999965,93.15966409999965,93.15966409999965,93.15966409999965,93.15966409999965,93.15966409999965,93.15966409999965,93.15966409999965,93.15966409999965,93.15966409999965,009,P004,2025_Jan_18_1445,ConditionRich,2021.2.3,59.93080389455538,
43.0,43.75,37,0.75,Stimuli/P004/things_ski_lift_02s.jpg,0,0,0.0,0,79,79,79,,,,,,,,,,,,,43.0038581000008,0.0038581000007980037,None,,93.40987799999857,93.40987799999857,93.40987799999857,93.40987799999857,93.40987799999857,93.40987799999857,93.40987799999857,93.40987799999857,93.40987799999857,93.40987799999857,009,P004,2025_Jan_18_1445,ConditionRich,2021.2.3,59.93080389455538,
43.75,44.0,41,0.0,Stimuli/Blank.png,0,0,0.0,0,80,80,80,,,,,,,,,,,,,43.75461269999869,0.004612699998688186,None,,94.16053689999899,94.16053689999899,94.16053689999899,94.16053689999899,94.16053689999899,94.16053689999899,94.16053689999899,94.16053689999899,94.16053689999899,94.16053689999899,009,P004,2025_Jan_18_1445,ConditionRich,2021.2.3,59.93080389455538,
44.0,44.75,16,0.75,Stimuli/P004/sun_bjuoemgleyaogrmw.jpg,0,0,0.0,0,81,81,81,,,,,,,,,,,,,44.00471969999853,0.004719699998531723,None,,94.42744479999965,94.42744479999965,94.42744479999965,94.42744479999965,94.42744479999965,94.42744479999965,94.42744479999965,94.42744479999965,94.42744479999965,94.42744479999965,009,P004,2025_Jan_18_1445,ConditionRich,2021.2.3,59.93080389455538,
44.75,45.0,41,0.0,Stimuli/Blank.png,0,0,0.0,0,82,82,82,,,,,,,,,,,,,44.772349799997755,0.022349799997755326,None,,95.17811079999956,95.17811079999956,95.17811079999956,95.17811079999956,95.17811079999956,95.17811079999956,95.17811079999956,95.17811079999956,95.17811079999956,95.17811079999956,009,P004,2025_Jan_18_1445,ConditionRich,2021.2.3,59.93080389455538,
45.0,45.75,16,0.75,Stimuli/P004/sun_bjuoemgleyaogrmw.jpg,0,0,0.0,0,83,83,83,,,,,,,,,,,,,45.00772169999982,0.007721699999819975,None,,95.4287977999993,95.4287977999993,95.4287977999993,95.4287977999993,95.4287977999993,95.4287977999993,95.4287977999993,95.4287977999993,95.4287977999993,95.4287977999993,009,P004,2025_Jan_18_1445,ConditionRich,2021.2.3,59.93080389455538,
45.75,46.0,41,0.0,Stimuli/Blank.png,0,0,0.0,0,84,84,84,,,,,,,,,,,,,45.77250930000082,0.022509300000820076,None,,96.17897850000008,96.17897850000008,96.17897850000008,96.17897850000008,96.17897850000008,96.17897850000008,96.17897850000008,96.17897850000008,96.17897850000008,96.17897850000008,009,P004,2025_Jan_18_1445,ConditionRich,2021.2.3,59.93080389455538,
46.0,46.75,16,0.75,Stimuli/P004/sun_bjuoemgleyaogrmw.jpg,1,0,0.75,0,85,85,85,,,,,,,,,,,,,46.005900799998926,0.005900799998926232,4,0.45709050000004936,96.41252049999821,96.41252049999821,96.41252049999821,96.41252049999821,96.41252049999821,96.41252049999821,96.41252049999821,97.14653729999918,96.41252049999821,96.41252049999821,009,P004,2025_Jan_18_1445,ConditionRich,2021.2.3,59.93080389455538,
46.75,47.0,41,0.0,Stimuli/Blank.png,0,0,0.0,0,86,86,86,,,,,,,,,,,,,46.75798329999816,0.007983299998159055,None,,97.16318329999922,97.16318329999922,97.16318329999922,97.16318329999922,97.16318329999922,97.16318329999922,97.16318329999922,97.16318329999922,97.16318329999922,97.16318329999922,009,P004,2025_Jan_18_1445,ConditionRich,2021.2.3,59.93080389455538,
47.0,47.75,16,0.75,Stimuli/P004/sun_bjuoemgleyaogrmw.jpg,0,0,0.0,0,87,87,87,,,,,,,,,,,,,47.0073670999991,0.007367099999100901,None,,97.41340370000034,97.41340370000034,97.41340370000034,97.41340370000034,97.41340370000034,97.41340370000034,97.41340370000034,97.41340370000034,97.41340370000034,97.41340370000034,009,P004,2025_Jan_18_1445,ConditionRich,2021.2.3,59.93080389455538,
47.75,48.0,41,0.0,Stimuli/Blank.png,0,0,0.0,0,88,88,88,,,,,,,,,,,,,47.75891209999827,0.008912099998269696,5,0.21731759999966016,98.16406339999958,98.16406339999958,98.16406339999958,98.16406339999958,98.16406339999958,98.16406339999958,98.16406339999958,98.16406339999958,98.16406339999958,98.16406339999958,009,P004,2025_Jan_18_1445,ConditionRich,2021.2.3,59.93080389455538,
48.0,48.75,5,0.75,Stimuli/P004/sun_amnnxdwfjbdfumns.jpg,0,0,0.0,0,89,89,89,,,,,,,,,,,,,48.00866289999976,0.008662899999762885,None,,98.41427169999952,98.41427169999952,98.41427169999952,98.41427169999952,98.41427169999952,98.41427169999952,98.41427169999952,98.41427169999952,98.41427169999952,98.41427169999952,009,P004,2025_Jan_18_1445,ConditionRich,2021.2.3,59.93080389455538,
48.75,49.0,41,0.0,Stimuli/Blank.png,0,0,0.0,0,90,90,90,,,,,,,,,,,,,48.758690200000274,0.008690200000273762,None,,99.16494429999875,99.16494429999875,99.16494429999875,99.16494429999875,99.16494429999875,99.16494429999875,99.16494429999875,99.16494429999875,99.16494429999875,99.16494429999875,009,P004,2025_Jan_18_1445,ConditionRich,2021.2.3,59.93080389455538,
49.0,49.75,5,0.75,Stimuli/P004/sun_amnnxdwfjbdfumns.jpg,0,0,0.0,0,91,91,91,,,,,,,,,,,,,49.00914289999855,0.009142899998551002,None,,99.41515710000021,99.41515710000021,99.41515710000021,99.41515710000021,99.41515710000021,99.41515710000021,99.41515710000021,99.41515710000021,99.41515710000021,99.41515710000021,009,P004,2025_Jan_18_1445,ConditionRich,2021.2.3,59.93080389455538,
49.75,50.0,41,0.0,Stimuli/Blank.png,0,0,0.0,0,92,92,92,,,,,,,,,,,,,49.760034999999334,0.010034999999334104,5,0.21559499999784748,100.16582749999725,100.16582749999725,100.16582749999725,100.16582749999725,100.16582749999725,100.16582749999725,100.16582749999725,100.16582749999725,100.16582749999725,100.16582749999725,009,P004,2025_Jan_18_1445,ConditionRich,2021.2.3,59.93080389455538,
50.0,50.75,5,0.75,Stimuli/P004/sun_amnnxdwfjbdfumns.jpg,0,0,0.0,0,93,93,93,,,,,,,,,,,,,50.01044940000065,0.010449400000652531,None,,100.43275369999901,100.43275369999901,100.43275369999901,100.43275369999901,100.43275369999901,100.43275369999901,100.43275369999901,100.43275369999901,100.43275369999901,100.43275369999901,009,P004,2025_Jan_18_1445,ConditionRich,2021.2.3,59.93080389455538,
50.75,51.0,41,0.0,Stimuli/Blank.png,0,0,0.0,0,94,94,94,,,,,,,,,,,,,50.77727080000113,0.027270800001133466,None,,101.18337519999841,101.18337519999841,101.18337519999841,101.18337519999841,101.18337519999841,101.18337519999841,101.18337519999841,101.18337519999841,101.18337519999841,101.18337519999841,009,P004,2025_Jan_18_1445,ConditionRich,2021.2.3,59.93080389455538,
51.0,51.75,5,0.75,Stimuli/P004/sun_amnnxdwfjbdfumns.jpg,1,0,0.75,0,95,95,95,,,,,,,,,,,,,51.0107081999995,0.010708199999498902,4,0.45142420000047423,101.41692429999966,101.41692429999966,101.41692429999966,101.41692429999966,101.41692429999966,101.41692429999966,101.41692429999966,102.15093759999945,101.41692429999966,101.41692429999966,009,P004,2025_Jan_18_1445,ConditionRich,2021.2.3,59.93080389455538,
51.75,52.0,41,0.0,Stimuli/Blank.png,0,0,0.0,0,96,96,96,,,,,,,,,,,,,51.7635365999995,0.013536599999497412,5,0.1971747999996296,102.18426859999818,102.18426859999818,102.18426859999818,102.18426859999818,102.18426859999818,102.18426859999818,102.18426859999818,102.18426859999818,102.18426859999818,102.18426859999818,009,P004,2025_Jan_18_1445,ConditionRich,2021.2.3,59.93080389455538,
52.0,52.75,28,0.75,Stimuli/P004/things_man_02s.jpg,0,0,0.0,0,97,97,97,,,,,,,,,,,,,52.02872550000029,0.028725500000291504,None,,102.4344792999982,102.4344792999982,102.4344792999982,102.4344792999982,102.4344792999982,102.4344792999982,102.4344792999982,102.4344792999982,102.4344792999982,102.4344792999982,009,P004,2025_Jan_18_1445,ConditionRich,2021.2.3,59.93080389455538,
52.75,53.0,41,0.0,Stimuli/Blank.png,0,0,0.0,0,98,98,98,,,,,,,,,,,,,52.76327400000082,0.013274000000819797,None,,103.16847109999799,103.16847109999799,103.16847109999799,103.16847109999799,103.16847109999799,103.16847109999799,103.16847109999799,103.16847109999799,103.16847109999799,103.16847109999799,009,P004,2025_Jan_18_1445,ConditionRich,2021.2.3,59.93080389455538,
53.0,53.75,28,0.75,Stimuli/P004/things_man_02s.jpg,0,0,0.0,0,99,99,99,,,,,,,,,,,,,53.01302869999927,0.013028699999267701,None,,103.41872969999895,103.41872969999895,103.41872969999895,103.41872969999895,103.41872969999895,103.41872969999895,103.41872969999895,103.41872969999895,103.41872969999895,103.41872969999895,009,P004,2025_Jan_18_1445,ConditionRich,2021.2.3,59.93080389455538,
53.75,54.0,41,0.0,Stimuli/Blank.png,0,0,0.0,0,100,100,100,,,,,,,,,,,,,53.76392599999963,0.013925999999628402,5,0.21212240000022575,104.16935259999809,104.16935259999809,104.16935259999809,104.16935259999809,104.16935259999809,104.16935259999809,104.16935259999809,104.16935259999809,104.16935259999809,104.16935259999809,009,P004,2025_Jan_18_1445,ConditionRich,2021.2.3,59.93080389455538,
54.0,54.75,28,0.75,Stimuli/P004/things_man_02s.jpg,0,0,0.0,0,101,101,101,,,,,,,,,,,,,54.01369530000011,0.013695300000108546,None,,104.4195684999977,104.4195684999977,104.4195684999977,104.4195684999977,104.4195684999977,104.4195684999977,104.4195684999977,104.4195684999977,104.4195684999977,104.4195684999977,009,P004,2025_Jan_18_1445,ConditionRich,2021.2.3,59.93080389455538,
54.75,55.0,41,0.0,Stimuli/Blank.png,0,0,0.0,0,102,102,102,,,,,,,,,,,,,54.76369390000036,0.013693900000362191,None,,105.17022169999836,105.17022169999836,105.17022169999836,105.17022169999836,105.17022169999836,105.17022169999836,105.17022169999836,105.17022169999836,105.17022169999836,105.17022169999836,009,P004,2025_Jan_18_1445,ConditionRich,2021.2.3,59.93080389455538,
55.0,55.75,28,0.75,Stimuli/P004/things_man_02s.jpg,0,0,0.0,0,103,103,103,,,,,,,,,,,,,55.01430319999781,0.014303199997812044,None,,105.42046099999789,105.42046099999789,105.42046099999789,105.42046099999789,105.42046099999789,105.42046099999789,105.42046099999789,105.42046099999789,105.42046099999789,105.42046099999789,009,P004,2025_Jan_18_1445,ConditionRich,2021.2.3,59.93080389455538,
55.75,56.0,41,0.0,Stimuli/Blank.png,0,0,0.0,0,104,104,104,,,,,,,,,,,,,55.765122099997825,0.01512209999782499,5,0.21022920000177692,106.17111060000025,106.17111060000025,106.17111060000025,106.17111060000025,106.17111060000025,106.17111060000025,106.17111060000025,106.17111060000025,106.17111060000025,106.17111060000025,009,P004,2025_Jan_18_1445,ConditionRich,2021.2.3,59.93080389455538,
56.0,56.75,22,0.75,Stimuli/P004/things_boy_02s.jpg,0,0,0.0,0,105,105,105,,,,,,,,,,,,,56.01553050000075,0.01553050000075018,None,,106.43801890000032,106.43801890000032,106.43801890000032,106.43801890000032,106.43801890000032,106.43801890000032,106.43801890000032,106.43801890000032,106.43801890000032,106.43801890000032,009,P004,2025_Jan_18_1445,ConditionRich,2021.2.3,59.93080389455538,
56.75,57.0,41,0.0,Stimuli/Blank.png,0,0,0.0,0,106,106,106,,,,,,,,,,,,,56.76545629999964,0.015456299999641487,None,,107.17198949999874,107.17198949999874,107.17198949999874,107.17198949999874,107.17198949999874,107.17198949999874,107.17198949999874,107.17198949999874,107.17198949999874,107.17198949999874,009,P004,2025_Jan_18_1445,ConditionRich,2021.2.3,59.93080389455538,
57.0,57.75,22,0.75,Stimuli/P004/things_boy_02s.jpg,0,0,0.0,0,107,107,107,,,,,,,,,,,,,57.0181167999981,0.01811679999809712,None,,107.43890420000025,107.43890420000025,107.43890420000025,107.43890420000025,107.43890420000025,107.43890420000025,107.43890420000025,107.43890420000025,107.43890420000025,107.43890420000025,009,P004,2025_Jan_18_1445,ConditionRich,2021.2.3,59.93080389455538,
57.75,58.0,41,0.0,Stimuli/Blank.png,0,0,0.0,0,108,108,108,,,,,,,,,,,,,57.76930789999824,0.01930789999823901,5,0.19170590000067023,108.18954879999728,108.18954879999728,108.18954879999728,108.18954879999728,108.18954879999728,108.18954879999728,108.18954879999728,108.18954879999728,108.18954879999728,108.18954879999728,009,P004,2025_Jan_18_1445,ConditionRich,2021.2.3,59.93080389455538,
58.0,58.75,22,0.75,Stimuli/P004/things_boy_02s.jpg,0,0,0.0,0,109,109,109,,,,,,,,,,,,,58.016654299997754,0.016654299997753697,None,,108.42308849999972,108.42308849999972,108.42308849999972,108.42308849999972,108.42308849999972,108.42308849999972,108.42308849999972,108.42308849999972,108.42308849999972,108.42308849999972,009,P004,2025_Jan_18_1445,ConditionRich,2021.2.3,59.93080389455538,
58.75,59.0,41,0.0,Stimuli/Blank.png,0,0,0.0,0,110,110,110,,,,,,,,,,,,,58.75120969999989,0.0012096999998902902,None,,109.15708589999849,109.15708589999849,109.15708589999849,109.15708589999849,109.15708589999849,109.15708589999849,109.15708589999849,109.15708589999849,109.15708589999849,109.15708589999849,009,P004,2025_Jan_18_1445,ConditionRich,2021.2.3,59.93080389455538,
59.0,59.75,22,0.75,Stimuli/P004/things_boy_02s.jpg,0,0,0.0,0,111,111,111,,,,,,,,,,,,,59.00295019999976,0.0029501999997592065,None,,109.42399010000008,109.42399010000008,109.42399010000008,109.42399010000008,109.42399010000008,109.42399010000008,109.42399010000008,109.42399010000008,109.42399010000008,109.42399010000008,009,P004,2025_Jan_18_1445,ConditionRich,2021.2.3,59.93080389455538,
59.75,60.0,41,0.0,Stimuli/Blank.png,0,0,0.0,0,112,112,112,,,,,,,,,,,,,59.76887910000005,0.01887910000004922,None,,110.17463329999737,110.17463329999737,110.17463329999737,110.17463329999737,110.17463329999737,110.17463329999737,110.17463329999737,110.17463329999737,110.17463329999737,110.17463329999737,009,P004,2025_Jan_18_1445,ConditionRich,2021.2.3,59.93080389455538,
60.0,60.75,19,0.75,Stimuli/P004/sun_bucebxfexknakpma.jpg,0,0,0.0,0,113,113,113,,,,,,,,,,,,,60.00196569999753,0.0019656999975268263,None,,110.40817310000057,110.40817310000057,110.40817310000057,110.40817310000057,110.40817310000057,110.40817310000057,110.40817310000057,110.40817310000057,110.40817310000057,110.40817310000057,009,P004,2025_Jan_18_1445,ConditionRich,2021.2.3,59.93080389455538,
60.75,61.0,41,0.0,Stimuli/Blank.png,0,0,0.0,0,114,114,114,,,,,,,,,,,,,60.75375939999867,0.0037593999986711424,None,,111.15883720000056,111.15883720000056,111.15883720000056,111.15883720000056,111.15883720000056,111.15883720000056,111.15883720000056,111.15883720000056,111.15883720000056,111.15883720000056,009,P004,2025_Jan_18_1445,ConditionRich,2021.2.3,59.93080389455538,
61.0,61.75,19,0.75,Stimuli/P004/sun_bucebxfexknakpma.jpg,0,0,0.0,0,115,115,115,,,,,,,,,,,,,61.002530800000386,0.0025308000003860798,None,,111.4090475999983,111.4090475999983,111.4090475999983,111.4090475999983,111.4090475999983,111.4090475999983,111.4090475999983,111.4090475999983,111.4090475999983,111.4090475999983,009,P004,2025_Jan_18_1445,ConditionRich,2021.2.3,59.93080389455538,
61.75,62.0,41,0.0,Stimuli/Blank.png,0,0,0.0,0,116,116,116,,,,,,,,,,,,,61.75352560000101,0.003525600001012208,None,,112.1597142999999,112.1597142999999,112.1597142999999,112.1597142999999,112.1597142999999,112.1597142999999,112.1597142999999,112.1597142999999,112.1597142999999,112.1597142999999,009,P004,2025_Jan_18_1445,ConditionRich,2021.2.3,59.93080389455538,
62.0,62.75,19,0.75,Stimuli/P004/sun_bucebxfexknakpma.jpg,0,0,0.0,0,117,117,117,,,,,,,,,,,,,62.00375419999909,0.0037541999990935437,None,,112.40992879999976,112.40992879999976,112.40992879999976,112.40992879999976,112.40992879999976,112.40992879999976,112.40992879999976,112.40992879999976,112.40992879999976,112.40992879999976,009,P004,2025_Jan_18_1445,ConditionRich,2021.2.3,59.93080389455538,
62.75,63.0,41,0.0,Stimuli/Blank.png,0,0,0.0,0,118,118,118,,,,,,,,,,,,,62.75496750000093,0.004967500000930158,None,,113.16067850000036,113.16067850000036,113.16067850000036,113.16067850000036,113.16067850000036,113.16067850000036,113.16067850000036,113.16067850000036,113.16067850000036,113.16067850000036,009,P004,2025_Jan_18_1445,ConditionRich,2021.2.3,59.93080389455538,
63.0,63.75,19,0.75,Stimuli/P004/sun_bucebxfexknakpma.jpg,0,0,0.0,0,119,119,119,,,,,,,,,,,,,63.005268900000374,0.005268900000373833,None,,113.42752079999991,113.42752079999991,113.42752079999991,113.42752079999991,113.42752079999991,113.42752079999991,113.42752079999991,113.42752079999991,113.42752079999991,113.42752079999991,009,P004,2025_Jan_18_1445,ConditionRich,2021.2.3,59.93080389455538,
63.75,64.0,41,0.0,Stimuli/Blank.png,0,0,0.0,0,120,120,120,,,,,,,,,,,,,63.77240420000089,0.02240420000089216,None,,114.17817229999855,114.17817229999855,114.17817229999855,114.17817229999855,114.17817229999855,114.17817229999855,114.17817229999855,114.17817229999855,114.17817229999855,114.17817229999855,009,P004,2025_Jan_18_1445,ConditionRich,2021.2.3,59.93080389455538,
64.0,64.75,29,0.75,Stimuli/P004/things_mat_02s.jpg,0,0,0.0,0,121,121,121,,,,,,,,,,,,,64.00596179999775,0.00596179999774904,None,,114.4116912999998,114.4116912999998,114.4116912999998,114.4116912999998,114.4116912999998,114.4116912999998,114.4116912999998,114.4116912999998,114.4116912999998,114.4116912999998,009,P004,2025_Jan_18_1445,ConditionRich,2021.2.3,59.93080389455538,
64.75,65.0,41,0.0,Stimuli/Blank.png,0,0,0.0,0,122,122,122,,,,,,,,,,,,,64.75783299999966,0.007832999999664025,None,,115.17904099999942,115.17904099999942,115.17904099999942,115.17904099999942,115.17904099999942,115.17904099999942,115.17904099999942,115.17904099999942,115.17904099999942,115.17904099999942,009,P004,2025_Jan_18_1445,ConditionRich,2021.2.3,59.93080389455538,
65.0,65.75,29,0.75,Stimuli/P004/things_mat_02s.jpg,0,0,0.0,0,123,123,123,,,,,,,,,,,,,65.02370859999792,0.02370859999791719,None,,115.44597779999822,115.44597779999822,115.44597779999822,115.44597779999822,115.44597779999822,115.44597779999822,115.44597779999822,115.44597779999822,115.44597779999822,115.44597779999822,009,P004,2025_Jan_18_1445,ConditionRich,2021.2.3,59.93080389455538,
65.75,66.0,41,0.0,Stimuli/Blank.png,0,0,0.0,0,124,124,124,,,,,,,,,,,,,65.77427549999993,0.024275499999930616,5,0.20136959999945248,116.17990859999918,116.17990859999918,116.17990859999918,116.17990859999918,116.17990859999918,116.17990859999918,116.17990859999918,116.17990859999918,116.17990859999918,116.17990859999918,009,P004,2025_Jan_18_1445,ConditionRich,2021.2.3,59.93080389455538,
66.0,66.75,29,0.75,Stimuli/P004/things_mat_02s.jpg,0,0,0.0,0,125,125,125,,,,,,,,,,,,,66.00756309999997,0.007563099999970291,None,,116.41345309999815,116.41345309999815,116.41345309999815,116.41345309999815,116.41345309999815,116.41345309999815,116.41345309999815,116.41345309999815,116.41345309999815,116.41345309999815,009,P004,2025_Jan_18_1445,ConditionRich,2021.2.3,59.93080389455538,
66.75,67.0,41,0.0,Stimuli/Blank.png,0,0,0.0,0,126,126,126,,,,,,,,,,,,,66.75749910000013,0.007499100000131875,None,,117.16411429999789,117.16411429999789,117.16411429999789,117.16411429999789,117.16411429999789,117.16411429999789,117.16411429999789,117.16411429999789,117.16411429999789,117.16411429999789,009,P004,2025_Jan_18_1445,ConditionRich,2021.2.3,59.93080389455538,
67.0,67.75,29,0.75,Stimuli/P004/things_mat_02s.jpg,0,0,0.0,0,127,127,127,,,,,,,,,,,,,67.00841049999872,0.008410499998717569,None,,117.43103319999864,117.43103319999864,117.43103319999864,117.43103319999864,117.43103319999864,117.43103319999864,117.43103319999864,117.43103319999864,117.43103319999864,117.43103319999864,009,P004,2025_Jan_18_1445,ConditionRich,2021.2.3,59.93080389455538,
67.75,68.0,41,0.0,Stimuli/Blank.png,0,0,0.0,0,128,128,128,,,,,,,,,,,,,67.7778118999995,0.02781189999950584,5,0.18288399999801186,118.19836009999926,118.19836009999926,118.19836009999926,118.19836009999926,118.19836009999926,118.19836009999926,118.19836009999926,118.19836009999926,118.19836009999926,118.19836009999926,009,P004,2025_Jan_18_1445,ConditionRich,2021.2.3,59.93080389455538,
68.0,68.75,14,0.75,Stimuli/P004/sun_bhhtrmwvoadbfucw.jpg,0,0,0.0,0,129,129,129,,,,,,,,,,,,,68.02824689999761,0.028246899997611763,None,,118.44861429999946,118.44861429999946,118.44861429999946,118.44861429999946,118.44861429999946,118.44861429999946,118.44861429999946,118.44861429999946,118.44861429999946,118.44861429999946,009,P004,2025_Jan_18_1445,ConditionRich,2021.2.3,59.93080389455538,
68.75,69.0,41,0.0,Stimuli/Blank.png,0,0,0.0,0,130,130,130,,,,,,,,,,,,,68.77809680000064,0.028096800000639632,None,,119.1992465000003,119.1992465000003,119.1992465000003,119.1992465000003,119.1992465000003,119.1992465000003,119.1992465000003,119.1992465000003,119.1992465000003,119.1992465000003,009,P004,2025_Jan_18_1445,ConditionRich,2021.2.3,59.93080389455538,
69.0,69.75,14,0.75,Stimuli/P004/sun_bhhtrmwvoadbfucw.jpg,0,0,0.0,0,131,131,131,,,,,,,,,,,,,69.02832370000033,0.028323700000328245,None,,119.44948809999914,119.44948809999914,119.44948809999914,119.44948809999914,119.44948809999914,119.44948809999914,119.44948809999914,119.44948809999914,119.44948809999914,119.44948809999914,009,P004,2025_Jan_18_1445,ConditionRich,2021.2.3,59.93080389455538,
69.75,70.0,41,0.0,Stimuli/Blank.png,0,0,0.0,0,132,132,132,,,,,,,,,,,,,69.77734269999928,0.02734269999928074,5,0.19782970000233036,120.18343869999808,120.18343869999808,120.18343869999808,120.18343869999808,120.18343869999808,120.18343869999808,120.18343869999808,120.18343869999808,120.18343869999808,120.18343869999808,009,P004,2025_Jan_18_1445,ConditionRich,2021.2.3,59.93080389455538,
70.0,70.75,14,0.75,Stimuli/P004/sun_bhhtrmwvoadbfucw.jpg,0,0,0.0,0,133,133,133,,,,,,,,,,,,,70.01140609999857,0.011406099998566788,None,,120.43365690000064,120.43365690000064,120.43365690000064,120.43365690000064,120.43365690000064,120.43365690000064,120.43365690000064,120.43365690000064,120.43365690000064,120.43365690000064,009,P004,2025_Jan_18_1445,ConditionRich,2021.2.3,59.93080389455538,
70.75,71.0,41,0.0,Stimuli/Blank.png,0,0,0.0,0,134,134,134,,,,,,,,,,,,,70.77921799999967,0.02921799999967334,None,,121.18433649999861,121.18433649999861,121.18433649999861,121.18433649999861,121.18433649999861,121.18433649999861,121.18433649999861,121.18433649999861,121.18433649999861,121.18433649999861,009,P004,2025_Jan_18_1445,ConditionRich,2021.2.3,59.93080389455538,
71.0,71.75,14,0.75,Stimuli/P004/sun_bhhtrmwvoadbfucw.jpg,0,0,0.0,0,135,135,135,,,,,,,,,,,,,71.01401769999939,0.014017699999385513,None,,121.43455139999787,121.43455139999787,121.43455139999787,121.43455139999787,121.43455139999787,121.43455139999787,121.43455139999787,121.43455139999787,121.43455139999787,121.43455139999787,009,P004,2025_Jan_18_1445,ConditionRich,2021.2.3,59.93080389455538,
71.75,72.0,41,0.0,Stimuli/Blank.png,0,0,0.0,0,136,136,136,,,,,,,,,,,,,71.779176,0.029176000000006752,5,0.19620960000247578,122.18521369999871,122.18521369999871,122.18521369999871,122.18521369999871,122.18521369999871,122.18521369999871,122.18521369999871,122.18521369999871,122.18521369999871,122.18521369999871,009,P004,2025_Jan_18_1445,ConditionRich,2021.2.3,59.93080389455538,
72.0,72.75,40,0.75,Stimuli/P004/things_woman_02s.jpg,0,0,0.0,0,137,137,137,,,,,,,,,,,,,72.01351419999992,0.013514199999917764,None,,122.43542099999831,122.43542099999831,122.43542099999831,122.43542099999831,122.43542099999831,122.43542099999831,122.43542099999831,122.43542099999831,122.43542099999831,122.43542099999831,009,P004,2025_Jan_18_1445,ConditionRich,2021.2.3,59.93080389455538,
72.75,73.0,41,0.0,Stimuli/Blank.png,0,0,0.0,0,138,138,138,,,,,,,,,,,,,72.77997659999892,0.029976599998917663,None,,123.18618679999781,123.18618679999781,123.18618679999781,123.18618679999781,123.18618679999781,123.18618679999781,123.18618679999781,123.18618679999781,123.18618679999781,123.18618679999781,009,P004,2025_Jan_18_1445,ConditionRich,2021.2.3,59.93080389455538,
73.0,73.75,40,0.75,Stimuli/P004/things_woman_02s.jpg,0,0,0.0,0,139,139,139,,,,,,,,,,,,,73.01379000000088,0.013790000000881264,None,,123.4363271000002,123.4363271000002,123.4363271000002,123.4363271000002,123.4363271000002,123.4363271000002,123.4363271000002,123.4363271000002,123.4363271000002,123.4363271000002,009,P004,2025_Jan_18_1445,ConditionRich,2021.2.3,59.93080389455538,
73.75,74.0,41,0.0,Stimuli/Blank.png,0,0,0.0,0,140,140,140,,,,,,,,,,,,,73.78316070000074,0.03316070000073523,5,0.17752139999720384,124.2036608999988,124.2036608999988,124.2036608999988,124.2036608999988,124.2036608999988,124.2036608999988,124.2036608999988,124.2036608999988,124.2036608999988,124.2036608999988,009,P004,2025_Jan_18_1445,ConditionRich,2021.2.3,59.93080389455538,
74.0,74.75,40,0.75,Stimuli/P004/things_woman_02s.jpg,0,0,0.0,0,141,141,141,,,,,,,,,,,,,74.0143872999979,0.014387299997906666,None,,124.42049699999916,124.42049699999916,124.42049699999916,124.42049699999916,124.42049699999916,124.42049699999916,124.42049699999916,124.42049699999916,124.42049699999916,124.42049699999916,009,P004,2025_Jan_18_1445,ConditionRich,2021.2.3,59.93080389455538,
74.75,75.0,41,0.0,Stimuli/Blank.png,0,0,0.0,0,142,142,142,,,,,,,,,,,,,74.76550979999956,0.015509799999563256,None,,125.17118009999831,125.17118009999831,125.17118009999831,125.17118009999831,125.17118009999831,125.17118009999831,125.17118009999831,125.17118009999831,125.17118009999831,125.17118009999831,009,P004,2025_Jan_18_1445,ConditionRich,2021.2.3,59.93080389455538,
75.0,75.75,40,0.75,Stimuli/P004/things_woman_02s.jpg,0,0,0.0,0,143,143,143,,,,,,,,,,,,,74.9982932999992,-0.0017067000007955357,None,,125.40470519999872,125.40470519999872,125.40470519999872,125.40470519999872,125.40470519999872,125.40470519999872,125.40470519999872,125.40470519999872,125.40470519999872,125.40470519999872,009,P004,2025_Jan_18_1445,ConditionRich,2021.2.3,59.93080389455538,
75.75,76.0,41,0.0,Stimuli/Blank.png,0,0,0.0,0,144,144,144,,,,,,,,,,,,,75.76810750000004,0.01810750000004191,5,0.19253830000161543,126.18873359999998,126.18873359999998,126.18873359999998,126.18873359999998,126.18873359999998,126.18873359999998,126.18873359999998,126.18873359999998,126.18873359999998,126.18873359999998,009,P004,2025_Jan_18_1445,ConditionRich,2021.2.3,59.93080389455538,
76.0,76.75,9,0.75,Stimuli/P004/sun_auqtrqkaobyprnjy.jpg,0,0,0.0,0,145,145,145,,,,,,,,,,,,,76.01652349999858,0.016523499998584157,None,,126.4222594999992,126.4222594999992,126.4222594999992,126.4222594999992,126.4222594999992,126.4222594999992,126.4222594999992,126.4222594999992,126.4222594999992,126.4222594999992,009,P004,2025_Jan_18_1445,ConditionRich,2021.2.3,59.93080389455538,
76.75,77.0,41,0.0,Stimuli/Blank.png,0,0,0.0,0,146,146,146,,,,,,,,,,,,,76.75045529999989,0.00045529999988502823,None,,127.15633039999739,127.15633039999739,127.15633039999739,127.15633039999739,127.15633039999739,127.15633039999739,127.15633039999739,127.15633039999739,127.15633039999739,127.15633039999739,009,P004,2025_Jan_18_1445,ConditionRich,2021.2.3,59.93080389455538,
77.0,77.75,9,0.75,Stimuli/P004/sun_auqtrqkaobyprnjy.jpg,0,0,0.0,0,147,147,147,,,,,,,,,,,,,77.00077220000094,0.0007722000009380281,None,,127.42315229999804,127.42315229999804,127.42315229999804,127.42315229999804,127.42315229999804,127.42315229999804,127.42315229999804,127.42315229999804,127.42315229999804,127.42315229999804,009,P004,2025_Jan_18_1445,ConditionRich,2021.2.3,59.93080389455538,
77.75,78.0,41,0.0,Stimuli/Blank.png,0,0,0.0,0,148,148,148,,,,,,,,,,,,,77.76859069999773,0.018590699997730553,None,,128.17381749999913,128.17381749999913,128.17381749999913,128.17381749999913,128.17381749999913,128.17381749999913,128.17381749999913,128.17381749999913,128.17381749999913,128.17381749999913,009,P004,2025_Jan_18_1445,ConditionRich,2021.2.3,59.93080389455538,
78.0,78.75,9,0.75,Stimuli/P004/sun_auqtrqkaobyprnjy.jpg,0,0,0.0,0,149,149,149,,,,,,,,,,,,,78.00142219999907,0.0014221999990695622,None,,128.40733949999776,128.40733949999776,128.40733949999776,128.40733949999776,128.40733949999776,128.40733949999776,128.40733949999776,128.40733949999776,128.40733949999776,128.40733949999776,009,P004,2025_Jan_18_1445,ConditionRich,2021.2.3,59.93080389455538,
78.75,79.0,41,0.0,Stimuli/Blank.png,0,0,0.0,0,150,150,150,,,,,,,,,,,,,78.75144499999806,0.0014449999980570283,None,,129.15804650000064,129.15804650000064,129.15804650000064,129.15804650000064,129.15804650000064,129.15804650000064,129.15804650000064,129.15804650000064,129.15804650000064,129.15804650000064,009,P004,2025_Jan_18_1445,ConditionRich,2021.2.3,59.93080389455538,
79.0,79.75,9,0.75,Stimuli/P004/sun_auqtrqkaobyprnjy.jpg,0,0,0.0,0,151,151,151,,,,,,,,,,,,,79.00242660000004,0.0024266000000352506,None,,129.4082211999994,129.4082211999994,129.4082211999994,129.4082211999994,129.4082211999994,129.4082211999994,129.4082211999994,129.4082211999994,129.4082211999994,129.4082211999994,009,P004,2025_Jan_18_1445,ConditionRich,2021.2.3,59.93080389455538,
79.75,80.0,41,0.0,Stimuli/Blank.png,0,0,0.0,0,152,152,152,,,,,,,,,,,,,79.75244150000071,0.0024415000007138588,None,,130.15888450000057,130.15888450000057,130.15888450000057,130.15888450000057,130.15888450000057,130.15888450000057,130.15888450000057,130.15888450000057,130.15888450000057,130.15888450000057,009,P004,2025_Jan_18_1445,ConditionRich,2021.2.3,59.93080389455538,
80.0,80.75,25,0.75,Stimuli/P004/things_girl_02s.jpg,0,0,0.0,0,153,153,153,,,,,,,,,,,,,80.00265799999761,0.002657999997609295,None,,130.4091202999989,130.4091202999989,130.4091202999989,130.4091202999989,130.4091202999989,130.4091202999989,130.4091202999989,130.4091202999989,130.4091202999989,130.4091202999989,009,P004,2025_Jan_18_1445,ConditionRich,2021.2.3,59.93080389455538,
80.75,81.0,41,0.0,Stimuli/Blank.png,0,0,0.0,0,154,154,154,,,,,,,,,,,,,80.75320310000097,0.003203100000973791,None,,131.1597617999978,131.1597617999978,131.1597617999978,131.1597617999978,131.1597617999978,131.1597617999978,131.1597617999978,131.1597617999978,131.1597617999978,131.1597617999978,009,P004,2025_Jan_18_1445,ConditionRich,2021.2.3,59.93080389455538,
81.0,81.75,25,0.75,Stimuli/P004/things_girl_02s.jpg,0,0,0.0,0,155,155,155,,,,,,,,,,,,,81.00353600000017,0.0035360000001674052,None,,131.4099884999996,131.4099884999996,131.4099884999996,131.4099884999996,131.4099884999996,131.4099884999996,131.4099884999996,131.4099884999996,131.4099884999996,131.4099884999996,009,P004,2025_Jan_18_1445,ConditionRich,2021.2.3,59.93080389455538,
81.75,82.0,41,0.0,Stimuli/Blank.png,0,0,0.0,0,156,156,156,,,,,,,,,,,,,81.75472169999921,0.004721699999208795,None,,132.16064919999917,132.16064919999917,132.16064919999917,132.16064919999917,132.16064919999917,132.16064919999917,132.16064919999917,132.16064919999917,132.16064919999917,132.16064919999917,009,P004,2025_Jan_18_1445,ConditionRich,2021.2.3,59.93080389455538,
82.0,82.75,25,0.75,Stimuli/P004/things_girl_02s.jpg,0,0,0.0,0,157,157,157,,,,,,,,,,,,,82.0047455999993,0.004745599999296246,None,,132.4275635999984,132.4275635999984,132.4275635999984,132.4275635999984,132.4275635999984,132.4275635999984,132.4275635999984,132.4275635999984,132.4275635999984,132.4275635999984,009,P004,2025_Jan_18_1445,ConditionRich,2021.2.3,59.93080389455538,
82.75,83.0,41,0.0,Stimuli/Blank.png,0,0,0.0,0,158,158,158,,,,,,,,,,,,,82.77235839999776,0.02235839999775635,None,,133.17822259999957,133.17822259999957,133.17822259999957,133.17822259999957,133.17822259999957,133.17822259999957,133.17822259999957,133.17822259999957,133.17822259999957,133.17822259999957,009,P004,2025_Jan_18_1445,ConditionRich,2021.2.3,59.93080389455538,
83.0,83.75,25,0.75,Stimuli/P004/things_girl_02s.jpg,0,0,0.0,0,159,159,159,,,,,,,,,,,,,83.00812500000029,0.008125000000291038,None,,133.4284396999974,133.4284396999974,133.4284396999974,133.4284396999974,133.4284396999974,133.4284396999974,133.4284396999974,133.4284396999974,133.4284396999974,133.4284396999974,009,P004,2025_Jan_18_1445,ConditionRich,2021.2.3,59.93080389455538,
83.75,84.0,41,0.0,Stimuli/Blank.png,0,0,0.0,0,160,160,160,,,,,,,,,,,,,83.7737148999986,0.023714899998594774,None,,134.17910109999866,134.17910109999866,134.17910109999866,134.17910109999866,134.17910109999866,134.17910109999866,134.17910109999866,134.17910109999866,134.17910109999866,134.17910109999866,009,P004,2025_Jan_18_1445,ConditionRich,2021.2.3,59.93080389455538,
84.0,100.0,0,0.0,Stimuli/Blank.png,1,5,5.75,0,161,161,161,,,,,,,,,,,,,84.0064338000011,0.006433800001104828,5,13.968816800002969,134.41262949999873,134.41262949999873,134.41262949999873,134.41262949999873,134.41262949999873,134.41262949999873,139.40041329999804,140.15105349999794,134.41262949999873,134.41262949999873,009,P004,2025_Jan_18_1445,ConditionRich,2021.2.3,59.93080389455538,
100.0,100.75,11,0.75,Stimuli/P004/sun_bawmjlzsuuivqjhi.jpg,0,0,0.0,0,162,162,162,,,,,,,,,,,,,100.00367320000078,0.003673200000775978,None,,150.41005790000054,150.41005790000054,150.41005790000054,150.41005790000054,150.41005790000054,150.41005790000054,150.41005790000054,150.41005790000054,150.41005790000054,150.41005790000054,009,P004,2025_Jan_18_1445,ConditionRich,2021.2.3,59.93080389455538,
100.75,101.0,41,0.0,Stimuli/Blank.png,0,0,0.0,0,163,163,163,,,,,,,,,,,,,100.75464730000022,0.004647300000215182,None,,151.16070240000045,151.16070240000045,151.16070240000045,151.16070240000045,151.16070240000045,151.16070240000045,151.16070240000045,151.16070240000045,151.16070240000045,151.16070240000045,009,P004,2025_Jan_18_1445,ConditionRich,2021.2.3,59.93080389455538,
101.0,101.75,11,0.75,Stimuli/P004/sun_bawmjlzsuuivqjhi.jpg,0,0,0.0,0,164,164,164,,,,,,,,,,,,,101.00493690000076,0.004936900000757305,None,,151.4109227000008,151.4109227000008,151.4109227000008,151.4109227000008,151.4109227000008,151.4109227000008,151.4109227000008,151.4109227000008,151.4109227000008,151.4109227000008,009,P004,2025_Jan_18_1445,ConditionRich,2021.2.3,59.93080389455538,
101.75,102.0,41,0.0,Stimuli/Blank.png,0,0,0.0,0,165,165,165,,,,,,,,,,,,,101.75579809999908,0.005798099999083206,None,,152.1615826999987,152.1615826999987,152.1615826999987,152.1615826999987,152.1615826999987,152.1615826999987,152.1615826999987,152.1615826999987,152.1615826999987,152.1615826999987,009,P004,2025_Jan_18_1445,ConditionRich,2021.2.3,59.93080389455538,
102.0,102.75,11,0.75,Stimuli/P004/sun_bawmjlzsuuivqjhi.jpg,0,0,0.0,0,166,166,166,,,,,,,,,,,,,102.0060971999992,0.00609719999920344,None,,152.41180359999998,152.41180359999998,152.41180359999998,152.41180359999998,152.41180359999998,152.41180359999998,152.41180359999998,152.41180359999998,152.41180359999998,152.41180359999998,009,P004,2025_Jan_18_1445,ConditionRich,2021.2.3,59.93080389455538,
102.75,103.0,41,0.0,Stimuli/Blank.png,0,0,0.0,0,167,167,167,,,,,,,,,,,,,102.75596909999877,0.005969099998765159,None,,153.16246359999786,153.16246359999786,153.16246359999786,153.16246359999786,153.16246359999786,153.16246359999786,153.16246359999786,153.16246359999786,153.16246359999786,153.16246359999786,009,P004,2025_Jan_18_1445,ConditionRich,2021.2.3,59.93080389455538,
103.0,103.75,11,0.75,Stimuli/P004/sun_bawmjlzsuuivqjhi.jpg,0,0,0.0,0,168,168,168,,,,,,,,,,,,,103.00665719999961,0.006657199999608565,None,,153.41268800000034,153.41268800000034,153.41268800000034,153.41268800000034,153.41268800000034,153.41268800000034,153.41268800000034,153.41268800000034,153.41268800000034,153.41268800000034,009,P004,2025_Jan_18_1445,ConditionRich,2021.2.3,59.93080389455538,
103.75,104.0,41,0.0,Stimuli/Blank.png,0,0,0.0,0,169,169,169,,,,,,,,,,,,,103.75764530000015,0.007645300000149291,None,,154.1633542999989,154.1633542999989,154.1633542999989,154.1633542999989,154.1633542999989,154.1633542999989,154.1633542999989,154.1633542999989,154.1633542999989,154.1633542999989,009,P004,2025_Jan_18_1445,ConditionRich,2021.2.3,59.93080389455538,
104.0,104.75,27,0.75,Stimuli/P004/things_llama_02s.jpg,0,0,0.0,0,170,170,170,,,,,,,,,,,,,104.00805340000079,0.008053400000790134,None,,154.41355710000062,154.41355710000062,154.41355710000062,154.41355710000062,154.41355710000062,154.41355710000062,154.41355710000062,154.41355710000062,154.41355710000062,154.41355710000062,009,P004,2025_Jan_18_1445,ConditionRich,2021.2.3,59.93080389455538,
104.75,105.0,41,0.0,Stimuli/Blank.png,0,0,0.0,0,171,171,171,,,,,,,,,,,,,104.75855439999941,0.008554399999411544,None,,155.16422989999774,155.16422989999774,155.16422989999774,155.16422989999774,155.16422989999774,155.16422989999774,155.16422989999774,155.16422989999774,155.16422989999774,155.16422989999774,009,P004,2025_Jan_18_1445,ConditionRich,2021.2.3,59.93080389455538,
105.0,105.75,27,0.75,Stimuli/P004/things_llama_02s.jpg,0,0,0.0,0,172,172,172,,,,,,,,,,,,,105.00933570000052,0.009335700000519864,None,,155.4311364999994,155.4311364999994,155.4311364999994,155.4311364999994,155.4311364999994,155.4311364999994,155.4311364999994,155.4311364999994,155.4311364999994,155.4311364999994,009,P004,2025_Jan_18_1445,ConditionRich,2021.2.3,59.93080389455538,
105.75,106.0,41,0.0,Stimuli/Blank.png,0,0,0.0,0,173,173,173,,,,,,,,,,,,,105.77784709999833,0.027847099998325575,5,0.18373459999929764,156.19847749999826,156.19847749999826,156.19847749999826,156.19847749999826,156.19847749999826,156.19847749999826,156.19847749999826,156.19847749999826,156.19847749999826,156.19847749999826,009,P004,2025_Jan_18_1445,ConditionRich,2021.2.3,59.93080389455538,
106.0,106.75,27,0.75,Stimuli/P004/things_llama_02s.jpg,0,0,0.0,0,174,174,174,,,,,,,,,,,,,106.0262416000005,0.02624160000050324,None,,156.43200629999774,156.43200629999774,156.43200629999774,156.43200629999774,156.43200629999774,156.43200629999774,156.43200629999774,156.43200629999774,156.43200629999774,156.43200629999774,009,P004,2025_Jan_18_1445,ConditionRich,2021.2.3,59.93080389455538,
106.75,107.0,41,0.0,Stimuli/Blank.png,0,0,0.0,0,175,175,175,,,,,,,,,,,,,106.76029949999793,0.010299499997927342,None,,157.1660740999978,157.1660740999978,157.1660740999978,157.1660740999978,157.1660740999978,157.1660740999978,157.1660740999978,157.1660740999978,157.1660740999978,157.1660740999978,009,P004,2025_Jan_18_1445,ConditionRich,2021.2.3,59.93080389455538,
107.0,107.75,27,0.75,Stimuli/P004/things_llama_02s.jpg,0,0,0.0,0,176,176,176,,,,,,,,,,,,,107.01047810000091,0.010478100000909762,None,,157.41620899999907,157.41620899999907,157.41620899999907,157.41620899999907,157.41620899999907,157.41620899999907,157.41620899999907,157.41620899999907,157.41620899999907,157.41620899999907,009,P004,2025_Jan_18_1445,ConditionRich,2021.2.3,59.93080389455538,
107.75,108.0,41,0.0,Stimuli/Blank.png,0,0,0.0,0,177,177,177,,,,,,,,,,,,,107.76276489999873,0.012764899998728652,5,0.19851729999936651,158.18356689999928,158.18356689999928,158.18356689999928,158.18356689999928,158.18356689999928,158.18356689999928,158.18356689999928,158.18356689999928,158.18356689999928,158.18356689999928,009,P004,2025_Jan_18_1445,ConditionRich,2021.2.3,59.93080389455538,
108.0,108.75,30,0.75,Stimuli/P004/things_music_box_02s.jpg,0,0,0.0,0,178,178,178,,,,,,,,,,,,,108.02724070000113,0.02724070000112988,None,,158.43376969999736,158.43376969999736,158.43376969999736,158.43376969999736,158.43376969999736,158.43376969999736,158.43376969999736,158.43376969999736,158.43376969999736,158.43376969999736,009,P004,2025_Jan_18_1445,ConditionRich,2021.2.3,59.93080389455538,
108.75,109.0,41,0.0,Stimuli/Blank.png,0,0,0.0,0,179,179,179,,,,,,,,,,,,,108.76321520000056,0.01321520000055898,None,,159.18443750000006,159.18443750000006,159.18443750000006,159.18443750000006,159.18443750000006,159.18443750000006,159.18443750000006,159.18443750000006,159.18443750000006,159.18443750000006,009,P004,2025_Jan_18_1445,ConditionRich,2021.2.3,59.93080389455538,
109.0,109.75,30,0.75,Stimuli/P004/things_music_box_02s.jpg,0,0,0.0,0,180,180,180,,,,,,,,,,,,,109.0286101999991,0.02861019999909331,None,,159.43465519999882,159.43465519999882,159.43465519999882,159.43465519999882,159.43465519999882,159.43465519999882,159.43465519999882,159.43465519999882,159.43465519999882,159.43465519999882,009,P004,2025_Jan_18_1445,ConditionRich,2021.2.3,59.93080389455538,
109.75,110.0,41,0.0,Stimuli/Blank.png,0,0,0.0,0,181,181,181,,,,,,,,,,,,,109.7636605000007,0.01366050000069663,5,0.2135822999989614,160.16863649999868,160.16863649999868,160.16863649999868,160.16863649999868,160.16863649999868,160.16863649999868,160.16863649999868,160.16863649999868,160.16863649999868,160.16863649999868,009,P004,2025_Jan_18_1445,ConditionRich,2021.2.3,59.93080389455538,
110.0,110.75,30,0.75,Stimuli/P004/things_music_box_02s.jpg,0,0,0.0,0,182,182,182,,,,,,,,,,,,,110.0124141999986,0.012414199998602271,None,,160.41885089999778,160.41885089999778,160.41885089999778,160.41885089999778,160.41885089999778,160.41885089999778,160.41885089999778,160.41885089999778,160.41885089999778,160.41885089999778,009,P004,2025_Jan_18_1445,ConditionRich,2021.2.3,59.93080389455538,
110.75,111.0,41,0.0,Stimuli/Blank.png,0,0,0.0,0,183,183,183,,,,,,,,,,,,,110.76378719999775,0.013787199997750577,None,,161.16950720000023,161.16950720000023,161.16950720000023,161.16950720000023,161.16950720000023,161.16950720000023,161.16950720000023,161.16950720000023,161.16950720000023,161.16950720000023,009,P004,2025_Jan_18_1445,ConditionRich,2021.2.3,59.93080389455538,
111.0,111.75,30,0.75,Stimuli/P004/things_music_box_02s.jpg,0,0,0.0,0,184,184,184,,,,,,,,,,,,,111.01311399999759,0.013113999997585779,None,,161.41973119999966,161.41973119999966,161.41973119999966,161.41973119999966,161.41973119999966,161.41973119999966,161.41973119999966,161.41973119999966,161.41973119999966,161.41973119999966,009,P004,2025_Jan_18_1445,ConditionRich,2021.2.3,59.93080389455538,
111.75,112.0,41,0.0,Stimuli/Blank.png,0,0,0.0,0,185,185,185,,,,,,,,,,,,,111.76424059999772,0.014240599997719983,5,0.2118216000017128,162.17039229999864,162.17039229999864,162.17039229999864,162.17039229999864,162.17039229999864,162.17039229999864,162.17039229999864,162.17039229999864,162.17039229999864,162.17039229999864,009,P004,2025_Jan_18_1445,ConditionRich,2021.2.3,59.93080389455538,
112.0,112.75,26,0.75,Stimuli/P004/things_ham_02s.jpg,0,0,0.0,0,186,186,186,,,,,,,,,,,,,112.01440849999926,0.014408499999262858,None,,162.42061479999757,162.42061479999757,162.42061479999757,162.42061479999757,162.42061479999757,162.42061479999757,162.42061479999757,162.42061479999757,162.42061479999757,162.42061479999757,009,P004,2025_Jan_18_1445,ConditionRich,2021.2.3,59.93080389455538,
112.75,113.0,41,0.0,Stimuli/Blank.png,0,0,0.0,0,187,187,187,,,,,,,,,,,,,112.7677205,0.01772049999999581,None,,163.1879588999982,163.1879588999982,163.1879588999982,163.1879588999982,163.1879588999982,163.1879588999982,163.1879588999982,163.1879588999982,163.1879588999982,163.1879588999982,009,P004,2025_Jan_18_1445,ConditionRich,2021.2.3,59.93080389455538,
113.0,113.75,26,0.75,Stimuli/P004/things_ham_02s.jpg,0,0,0.0,0,188,188,188,,,,,,,,,,,,,113.01510319999943,0.015103199999430217,None,,163.42149739999877,163.42149739999877,163.42149739999877,163.42149739999877,163.42149739999877,163.42149739999877,163.42149739999877,163.42149739999877,163.42149739999877,163.42149739999877,009,P004,2025_Jan_18_1445,ConditionRich,2021.2.3,59.93080389455538,
113.75,114.0,41,0.0,Stimuli/Blank.png,0,0,0.0,0,189,189,189,,,,,,,,,,,,,113.74911190000057,-0.0008880999994289596,None,,164.15548489999856,164.15548489999856,164.15548489999856,164.15548489999856,164.15548489999856,164.15548489999856,164.15548489999856,164.15548489999856,164.15548489999856,164.15548489999856,009,P004,2025_Jan_18_1445,ConditionRich,2021.2.3,59.93080389455538,
114.0,114.75,26,0.75,Stimuli/P004/things_ham_02s.jpg,0,0,0.0,0,190,190,190,,,,,,,,,,,,,113.99993600000016,-6.399999983841553e-05,None,,164.4223768999982,164.4223768999982,164.4223768999982,164.4223768999982,164.4223768999982,164.4223768999982,164.4223768999982,164.4223768999982,164.4223768999982,164.4223768999982,009,P004,2025_Jan_18_1445,ConditionRich,2021.2.3,59.93080389455538,
114.75,115.0,41,0.0,Stimuli/Blank.png,0,0,0.0,0,191,191,191,,,,,,,,,,,,,114.76718699999765,0.017186999997647945,None,,165.17302890000065,165.17302890000065,165.17302890000065,165.17302890000065,165.17302890000065,165.17302890000065,165.17302890000065,165.17302890000065,165.17302890000065,165.17302890000065,009,P004,2025_Jan_18_1445,ConditionRich,2021.2.3,59.93080389455538,
115.0,115.75,26,0.75,Stimuli/P004/things_ham_02s.jpg,0,0,0.0,0,192,192,192,,,,,,,,,,,,,115.00313639999877,0.0031363999987661373,None,,165.42327359999763,165.42327359999763,165.42327359999763,165.42327359999763,165.42327359999763,165.42327359999763,165.42327359999763,165.42327359999763,165.42327359999763,165.42327359999763,009,P004,2025_Jan_18_1445,ConditionRich,2021.2.3,59.93080389455538,
115.75,116.0,41,0.0,Stimuli/Blank.png,0,0,0.0,0,193,193,193,,,,,,,,,,,,,115.76868729999842,0.018687299998418894,None,,166.1739235999994,166.1739235999994,166.1739235999994,166.1739235999994,166.1739235999994,166.1739235999994,166.1739235999994,166.1739235999994,166.1739235999994,166.1739235999994,009,P004,2025_Jan_18_1445,ConditionRich,2021.2.3,59.93080389455538,
116.0,116.75,8,0.75,Stimuli/P004/sun_asxkyzleyfgbqfrs.jpg,0,0,0.0,0,194,194,194,,,,,,,,,,,,,116.00208969999949,0.002089699999487493,None,,166.42413970000052,166.42413970000052,166.42413970000052,166.42413970000052,166.42413970000052,166.42413970000052,166.42413970000052,166.42413970000052,166.42413970000052,166.42413970000052,009,P004,2025_Jan_18_1445,ConditionRich,2021.2.3,59.93080389455538,
116.75,117.0,41,0.0,Stimuli/Blank.png,0,0,0.0,0,195,195,195,,,,,,,,,,,,,116.76906790000066,0.01906790000066394,None,,167.17479399999866,167.17479399999866,167.17479399999866,167.17479399999866,167.17479399999866,167.17479399999866,167.17479399999866,167.17479399999866,167.17479399999866,167.17479399999866,009,P004,2025_Jan_18_1445,ConditionRich,2021.2.3,59.93080389455538,
117.0,117.75,8,0.75,Stimuli/P004/sun_asxkyzleyfgbqfrs.jpg,0,0,0.0,0,196,196,196,,,,,,,,,,,,,117.0023399999991,0.002339999999094289,None,,167.40831500000058,167.40831500000058,167.40831500000058,167.40831500000058,167.40831500000058,167.40831500000058,167.40831500000058,167.40831500000058,167.40831500000058,167.40831500000058,009,P004,2025_Jan_18_1445,ConditionRich,2021.2.3,59.93080389455538,
117.75,118.0,41,0.0,Stimuli/Blank.png,0,0,0.0,0,197,197,197,,,,,,,,,,,,,117.75372299999799,0.003722999997989973,None,,168.15906899999754,168.15906899999754,168.15906899999754,168.15906899999754,168.15906899999754,168.15906899999754,168.15906899999754,168.15906899999754,168.15906899999754,168.15906899999754,009,P004,2025_Jan_18_1445,ConditionRich,2021.2.3,59.93080389455538,
118.0,118.75,8,0.75,Stimuli/P004/sun_asxkyzleyfgbqfrs.jpg,0,0,0.0,0,198,198,198,,,,,,,,,,,,,118.00341639999897,0.0034163999989687,None,,168.40921919999892,168.40921919999892,168.40921919999892,168.40921919999892,168.40921919999892,168.40921919999892,168.40921919999892,168.40921919999892,168.40921919999892,168.40921919999892,009,P004,2025_Jan_18_1445,ConditionRich,2021.2.3,59.93080389455538,
118.75,119.0,41,0.0,Stimuli/Blank.png,0,0,0.0,0,199,199,199,,,,,,,,,,,,,118.75330200000099,0.003302000000985572,None,,169.1598806999973,169.1598806999973,169.1598806999973,169.1598806999973,169.1598806999973,169.1598806999973,169.1598806999973,169.1598806999973,169.1598806999973,169.1598806999973,009,P004,2025_Jan_18_1445,ConditionRich,2021.2.3,59.93080389455538,
119.0,119.75,8,0.75,Stimuli/P004/sun_asxkyzleyfgbqfrs.jpg,0,0,0.0,0,200,200,200,,,,,,,,,,,,,119.0047197999993,0.004719799999293173,None,,169.42678220000016,169.42678220000016,169.42678220000016,169.42678220000016,169.42678220000016,169.42678220000016,169.42678220000016,169.42678220000016,169.42678220000016,169.42678220000016,009,P004,2025_Jan_18_1445,ConditionRich,2021.2.3,59.93080389455538,
119.75,120.0,41,0.0,Stimuli/Blank.png,0,0,0.0,0,201,201,201,,,,,,,,,,,,,119.77197230000093,0.021972300000925316,None,,170.17744889999813,170.17744889999813,170.17744889999813,170.17744889999813,170.17744889999813,170.17744889999813,170.17744889999813,170.17744889999813,170.17744889999813,170.17744889999813,009,P004,2025_Jan_18_1445,ConditionRich,2021.2.3,59.93080389455538,
120.0,120.75,1,0.75,Stimuli/P004/sun_adgmtzznutwlescq.jpg,0,0,0.0,0,202,202,202,,,,,,,,,,,,,120.00488349999796,0.004883499997959007,None,,170.42766990000018,170.42766990000018,170.42766990000018,170.42766990000018,170.42766990000018,170.42766990000018,170.42766990000018,170.42766990000018,170.42766990000018,170.42766990000018,009,P004,2025_Jan_18_1445,ConditionRich,2021.2.3,59.93080389455538,
120.75,121.0,41,0.0,Stimuli/Blank.png,0,0,0.0,0,203,203,203,,,,,,,,,,,,,120.77250289999938,0.022502899999381043,None,,171.17833039999823,171.17833039999823,171.17833039999823,171.17833039999823,171.17833039999823,171.17833039999823,171.17833039999823,171.17833039999823,171.17833039999823,171.17833039999823,009,P004,2025_Jan_18_1445,ConditionRich,2021.2.3,59.93080389455538,
121.0,121.75,1,0.75,Stimuli/P004/sun_adgmtzznutwlescq.jpg,0,0,0.0,0,204,204,204,,,,,,,,,,,,,121.00778910000008,0.007789100000081817,None,,171.42854499999885,171.42854499999885,171.42854499999885,171.42854499999885,171.42854499999885,171.42854499999885,171.42854499999885,171.42854499999885,171.42854499999885,171.42854499999885,009,P004,2025_Jan_18_1445,ConditionRich,2021.2.3,59.93080389455538,
121.75,122.0,41,0.0,Stimuli/Blank.png,0,0,0.0,0,205,205,205,,,,,,,,,,,,,121.77348960000018,0.023489600000175415,None,,172.17920429999867,172.17920429999867,172.17920429999867,172.17920429999867,172.17920429999867,172.17920429999867,172.17920429999867,172.17920429999867,172.17920429999867,172.17920429999867,009,P004,2025_Jan_18_1445,ConditionRich,2021.2.3,59.93080389455538,
122.0,122.75,1,0.75,Stimuli/P004/sun_adgmtzznutwlescq.jpg,0,0,0.0,0,206,206,206,,,,,,,,,,,,,122.00617389999752,0.006173899997520493,None,,172.41274200000043,172.41274200000043,172.41274200000043,172.41274200000043,172.41274200000043,172.41274200000043,172.41274200000043,172.41274200000043,172.41274200000043,172.41274200000043,009,P004,2025_Jan_18_1445,ConditionRich,2021.2.3,59.93080389455538,
122.75,123.0,41,0.0,Stimuli/Blank.png,0,0,0.0,0,207,207,207,,,,,,,,,,,,,122.75717499999882,0.007174999998824205,None,,173.16340449999916,173.16340449999916,173.16340449999916,173.16340449999916,173.16340449999916,173.16340449999916,173.16340449999916,173.16340449999916,173.16340449999916,173.16340449999916,009,P004,2025_Jan_18_1445,ConditionRich,2021.2.3,59.93080389455538,
123.0,123.75,1,0.75,Stimuli/P004/sun_adgmtzznutwlescq.jpg,0,0,0.0,0,208,208,208,,,,,,,,,,,,,123.00750250000056,0.007502500000555301,None,,173.4136271999996,173.4136271999996,173.4136271999996,173.4136271999996,173.4136271999996,173.4136271999996,173.4136271999996,173.4136271999996,173.4136271999996,173.4136271999996,009,P004,2025_Jan_18_1445,ConditionRich,2021.2.3,59.93080389455538,
123.75,124.0,41,0.0,Stimuli/Blank.png,0,0,0.0,0,209,209,209,,,,,,,,,,,,,123.7591997999989,0.009199799998896196,5,0.21784720000141533,174.1642936999997,174.1642936999997,174.1642936999997,174.1642936999997,174.1642936999997,174.1642936999997,174.1642936999997,174.1642936999997,174.1642936999997,174.1642936999997,009,P004,2025_Jan_18_1445,ConditionRich,2021.2.3,59.93080389455538,
124.0,124.75,39,0.75,Stimuli/P004/things_toad_02s.jpg,0,0,0.0,0,210,210,210,,,,,,,,,,,,,124.0083483999988,0.008348399998794775,None,,174.41450369999802,174.41450369999802,174.41450369999802,174.41450369999802,174.41450369999802,174.41450369999802,174.41450369999802,174.41450369999802,174.41450369999802,174.41450369999802,009,P004,2025_Jan_18_1445,ConditionRich,2021.2.3,59.93080389455538,
124.75,125.0,41,0.0,Stimuli/Blank.png,0,0,0.0,0,211,211,211,,,,,,,,,,,,,124.75913489999948,0.009134899999480695,None,,175.16517629999726,175.16517629999726,175.16517629999726,175.16517629999726,175.16517629999726,175.16517629999726,175.16517629999726,175.16517629999726,175.16517629999726,175.16517629999726,009,P004,2025_Jan_18_1445,ConditionRich,2021.2.3,59.93080389455538,
125.0,125.75,39,0.75,Stimuli/P004/things_toad_02s.jpg,0,0,0.0,0,212,212,212,,,,,,,,,,,,,125.0089330999981,0.008933099998102989,None,,175.43207299999995,175.43207299999995,175.43207299999995,175.43207299999995,175.43207299999995,175.43207299999995,175.43207299999995,175.43207299999995,175.43207299999995,175.43207299999995,009,P004,2025_Jan_18_1445,ConditionRich,2021.2.3,59.93080389455538,
125.75,126.0,41,0.0,Stimuli/Blank.png,0,0,0.0,0,213,213,213,,,,,,,,,,,,,125.77876209999886,0.028762099998857593,5,0.18263819999992847,176.19940900000074,176.19940900000074,176.19940900000074,176.19940900000074,176.19940900000074,176.19940900000074,176.19940900000074,176.19940900000074,176.19940900000074,176.19940900000074,009,P004,2025_Jan_18_1445,ConditionRich,2021.2.3,59.93080389455538,
126.0,126.75,39,0.75,Stimuli/P004/things_toad_02s.jpg,0,0,0.0,0,214,214,214,,,,,,,,,,,,,126.02713419999782,0.027134199997817632,None,,176.4329469000004,176.4329469000004,176.4329469000004,176.4329469000004,176.4329469000004,176.4329469000004,176.4329469000004,176.4329469000004,176.4329469000004,176.4329469000004,009,P004,2025_Jan_18_1445,ConditionRich,2021.2.3,59.93080389455538,
126.75,127.0,41,0.0,Stimuli/Blank.png,0,0,0.0,0,215,215,215,,,,,,,,,,,,,126.76310559999911,0.013105599999107653,None,,177.18360960000064,177.18360960000064,177.18360960000064,177.18360960000064,177.18360960000064,177.18360960000064,177.18360960000064,177.18360960000064,177.18360960000064,177.18360960000064,009,P004,2025_Jan_18_1445,ConditionRich,2021.2.3,59.93080389455538,
127.0,127.75,39,0.75,Stimuli/P004/things_toad_02s.jpg,0,0,0.0,0,216,216,216,,,,,,,,,,,,,127.02797049999936,0.027970499999355525,None,,177.45050120000087,177.45050120000087,177.45050120000087,177.45050120000087,177.45050120000087,177.45050120000087,177.45050120000087,177.45050120000087,177.45050120000087,177.45050120000087,009,P004,2025_Jan_18_1445,ConditionRich,2021.2.3,59.93080389455538,
127.75,128.0,41,0.0,Stimuli/Blank.png,0,0,0.0,0,217,217,217,,,,,,,,,,,,,127.77805009999793,0.028050099997926736,5,0.1976407999973162,178.18450519999897,178.18450519999897,178.18450519999897,178.18450519999897,178.18450519999897,178.18450519999897,178.18450519999897,178.18450519999897,178.18450519999897,178.18450519999897,009,P004,2025_Jan_18_1445,ConditionRich,2021.2.3,59.93080389455538,
128.0,128.75,17,0.75,Stimuli/P004/sun_bojovhhraxtgafcy.jpg,0,0,0.0,0,218,218,218,,,,,,,,,,,,,128.01169970000046,0.011699700000463054,None,,178.4180344999986,178.4180344999986,178.4180344999986,178.4180344999986,178.4180344999986,178.4180344999986,178.4180344999986,178.4180344999986,178.4180344999986,178.4180344999986,009,P004,2025_Jan_18_1445,ConditionRich,2021.2.3,59.93080389455538,
128.75,129.0,41,0.0,Stimuli/Blank.png,0,0,0.0,0,219,219,219,,,,,,,,,,,,,128.76320339999802,0.01320339999801945,None,,179.16869600000064,179.16869600000064,179.16869600000064,179.16869600000064,179.16869600000064,179.16869600000064,179.16869600000064,179.16869600000064,179.16869600000064,179.16869600000064,009,P004,2025_Jan_18_1445,ConditionRich,2021.2.3,59.93080389455538,
129.0,129.75,17,0.75,Stimuli/P004/sun_bojovhhraxtgafcy.jpg,0,0,0.0,0,220,220,220,,,,,,,,,,,,,129.01318750000064,0.013187500000640284,None,,179.41890769999736,179.41890769999736,179.41890769999736,179.41890769999736,179.41890769999736,179.41890769999736,179.41890769999736,179.41890769999736,179.41890769999736,179.41890769999736,009,P004,2025_Jan_18_1445,ConditionRich,2021.2.3,59.93080389455538,
129.75,130.0,41,0.0,Stimuli/Blank.png,0,0,0.0,0,221,221,221,,,,,,,,,,,,,129.76324589999786,0.013245899997855304,5,0.2125534000006155,180.16959040000074,180.16959040000074,180.16959040000074,180.16959040000074,180.16959040000074,180.16959040000074,180.16959040000074,180.16959040000074,180.16959040000074,180.16959040000074,009,P004,2025_Jan_18_1445,ConditionRich,2021.2.3,59.93080389455538,
130.0,130.75,17,0.75,Stimuli/P004/sun_bojovhhraxtgafcy.jpg,0,0,0.0,0,222,222,222,,,,,,,,,,,,,130.01356250000026,0.013562500000261934,None,,180.4197920000006,180.4197920000006,180.4197920000006,180.4197920000006,180.4197920000006,180.4197920000006,180.4197920000006,180.4197920000006,180.4197920000006,180.4197920000006,009,P004,2025_Jan_18_1445,ConditionRich,2021.2.3,59.93080389455538,
130.75,131.0,41,0.0,Stimuli/Blank.png,0,0,0.0,0,223,223,223,,,,,,,,,,,,,130.76401830000032,0.01401830000031623,None,,181.1704484999973,181.1704484999973,181.1704484999973,181.1704484999973,181.1704484999973,181.1704484999973,181.1704484999973,181.1704484999973,181.1704484999973,181.1704484999973,009,P004,2025_Jan_18_1445,ConditionRich,2021.2.3,59.93080389455538,
131.0,131.75,17,0.75,Stimuli/P004/sun_bojovhhraxtgafcy.jpg,0,0,0.0,0,224,224,224,,,,,,,,,,,,,131.01423579999755,0.014235799997550203,None,,181.4206787999974,181.4206787999974,181.4206787999974,181.4206787999974,181.4206787999974,181.4206787999974,181.4206787999974,181.4206787999974,181.4206787999974,181.4206787999974,009,P004,2025_Jan_18_1445,ConditionRich,2021.2.3,59.93080389455538,
131.75,132.0,41,0.0,Stimuli/Blank.png,0,0,0.0,0,225,225,225,,,,,,,,,,,,,131.76522000000114,0.015220000001136214,5,0.21072500000082073,182.17133399999875,182.17133399999875,182.17133399999875,182.17133399999875,182.17133399999875,182.17133399999875,182.17133399999875,182.17133399999875,182.17133399999875,182.17133399999875,009,P004,2025_Jan_18_1445,ConditionRich,2021.2.3,59.93080389455538,
132.0,132.75,38,0.75,Stimuli/P004/things_slug_02s.jpg,0,0,0.0,0,226,226,226,,,,,,,,,,,,,132.0155210999983,0.01552109999829554,None,,182.4215538999997,182.4215538999997,182.4215538999997,182.4215538999997,182.4215538999997,182.4215538999997,182.4215538999997,182.4215538999997,182.4215538999997,182.4215538999997,009,P004,2025_Jan_18_1445,ConditionRich,2021.2.3,59.93080389455538,
132.75,133.0,41,0.0,Stimuli/Blank.png,0,0,0.0,0,227,227,227,,,,,,,,,,,,,132.75087519999943,0.0008751999994274229,None,,183.15555569999924,183.15555569999924,183.15555569999924,183.15555569999924,183.15555569999924,183.15555569999924,183.15555569999924,183.15555569999924,183.15555569999924,183.15555569999924,009,P004,2025_Jan_18_1445,ConditionRich,2021.2.3,59.93080389455538,
133.0,133.75,38,0.75,Stimuli/P004/things_slug_02s.jpg,1,0,0.75,0,228,228,228,,,,,,,,,,,,,132.99926829999822,-0.0007317000017792452,4,0.5105328999998164,183.42244159999973,183.42244159999973,183.42244159999973,183.42244159999973,183.42244159999973,183.42244159999973,183.42244159999973,184.13976869999897,183.42244159999973,183.42244159999973,009,P004,2025_Jan_18_1445,ConditionRich,2021.2.3,59.93080389455538,
133.75,134.0,41,0.0,Stimuli/Blank.png,0,0,0.0,0,229,229,229,,,,,,,,,,,,,133.7681745000009,0.018174500000895932,None,,184.17310179999913,184.17310179999913,184.17310179999913,184.17310179999913,184.17310179999913,184.17310179999913,184.17310179999913,184.17310179999913,184.17310179999913,184.17310179999913,009,P004,2025_Jan_18_1445,ConditionRich,2021.2.3,59.93080389455538,
134.0,134.75,38,0.75,Stimuli/P004/things_slug_02s.jpg,0,0,0.0,0,230,230,230,,,,,,,,,,,,,134.00295489999917,0.0029548999991675373,None,,184.42331419999755,184.42331419999755,184.42331419999755,184.42331419999755,184.42331419999755,184.42331419999755,184.42331419999755,184.42331419999755,184.42331419999755,184.42331419999755,009,P004,2025_Jan_18_1445,ConditionRich,2021.2.3,59.93080389455538,
134.75,135.0,41,0.0,Stimuli/Blank.png,0,0,0.0,0,231,231,231,,,,,,,,,,,,,134.76838900000075,0.018389000000752276,None,,185.1739768999978,185.1739768999978,185.1739768999978,185.1739768999978,185.1739768999978,185.1739768999978,185.1739768999978,185.1739768999978,185.1739768999978,185.1739768999978,009,P004,2025_Jan_18_1445,ConditionRich,2021.2.3,59.93080389455538,
135.0,135.75,38,0.75,Stimuli/P004/things_slug_02s.jpg,0,0,0.0,0,232,232,232,,,,,,,,,,,,,135.0012913999999,0.0012913999999000225,None,,185.40751119999913,185.40751119999913,185.40751119999913,185.40751119999913,185.40751119999913,185.40751119999913,185.40751119999913,185.40751119999913,185.40751119999913,185.40751119999913,009,P004,2025_Jan_18_1445,ConditionRich,2021.2.3,59.93080389455538,
135.75,136.0,41,0.0,Stimuli/Blank.png,0,0,0.0,0,233,233,233,,,,,,,,,,,,,135.75250600000072,0.002506000000721542,None,,186.15835750000042,186.15835750000042,186.15835750000042,186.15835750000042,186.15835750000042,186.15835750000042,186.15835750000042,186.15835750000042,186.15835750000042,186.15835750000042,009,P004,2025_Jan_18_1445,ConditionRich,2021.2.3,59.93080389455538,
136.0,136.75,31,0.75,Stimuli/P004/things_pea_02s.jpg,1,0,0.75,0,234,234,234,,,,,,,,,,,,,136.00262799999837,0.0026279999983671587,4,0.5127843999980541,186.40839249999772,186.40839249999772,186.40839249999772,186.40839249999772,186.40839249999772,186.40839249999772,186.40839249999772,187.1423365999981,186.40839249999772,186.40839249999772,009,P004,2025_Jan_18_1445,ConditionRich,2021.2.3,59.93080389455538,
136.75,137.0,41,0.0,Stimuli/Blank.png,0,0,0.0,0,235,235,235,,,,,,,,,,,,,136.75293959999908,0.0029395999990811106,None,,187.1590565999977,187.1590565999977,187.1590565999977,187.1590565999977,187.1590565999977,187.1590565999977,187.1590565999977,187.1590565999977,187.1590565999977,187.1590565999977,009,P004,2025_Jan_18_1445,ConditionRich,2021.2.3,59.93080389455538,
137.0,137.75,31,0.75,Stimuli/P004/things_pea_02s.jpg,0,0,0.0,0,236,236,236,,,,,,,,,,,,,137.00322640000013,0.003226400000130525,None,,187.40927409999858,187.40927409999858,187.40927409999858,187.40927409999858,187.40927409999858,187.40927409999858,187.40927409999858,187.40927409999858,187.40927409999858,187.40927409999858,009,P004,2025_Jan_18_1445,ConditionRich,2021.2.3,59.93080389455538,
137.75,138.0,41,0.0,Stimuli/Blank.png,0,0,0.0,0,237,237,237,,,,,,,,,,,,,137.75423749999754,0.004237499997543637,None,,188.15993239999807,188.15993239999807,188.15993239999807,188.15993239999807,188.15993239999807,188.15993239999807,188.15993239999807,188.15993239999807,188.15993239999807,188.15993239999807,009,P004,2025_Jan_18_1445,ConditionRich,2021.2.3,59.93080389455538,
138.0,138.75,31,0.75,Stimuli/P004/things_pea_02s.jpg,0,0,0.0,0,238,238,238,,,,,,,,,,,,,138.0044405999979,0.004440599997906247,None,,188.42686319999848,188.42686319999848,188.42686319999848,188.42686319999848,188.42686319999848,188.42686319999848,188.42686319999848,188.42686319999848,188.42686319999848,188.42686319999848,009,P004,2025_Jan_18_1445,ConditionRich,2021.2.3,59.93080389455538,
138.75,139.0,41,0.0,Stimuli/Blank.png,0,0,0.0,0,239,239,239,,,,,,,,,,,,,138.7736459000007,0.02364590000070166,None,,189.1941827999981,189.1941827999981,189.1941827999981,189.1941827999981,189.1941827999981,189.1941827999981,189.1941827999981,189.1941827999981,189.1941827999981,189.1941827999981,009,P004,2025_Jan_18_1445,ConditionRich,2021.2.3,59.93080389455538,
139.0,139.75,31,0.75,Stimuli/P004/things_pea_02s.jpg,0,0,0.0,0,240,240,240,,,,,,,,,,,,,139.02254439999888,0.02254439999887836,None,,189.44439860000057,189.44439860000057,189.44439860000057,189.44439860000057,189.44439860000057,189.44439860000057,189.44439860000057,189.44439860000057,189.44439860000057,189.44439860000057,009,P004,2025_Jan_18_1445,ConditionRich,2021.2.3,59.93080389455538,
139.75,140.0,41,0.0,Stimuli/Blank.png,0,0,0.0,0,241,241,241,,,,,,,,,,,,,139.77223129999766,0.022231299997656606,None,,190.17838660000052,190.17838660000052,190.17838660000052,190.17838660000052,190.17838660000052,190.17838660000052,190.17838660000052,190.17838660000052,190.17838660000052,190.17838660000052,009,P004,2025_Jan_18_1445,ConditionRich,2021.2.3,59.93080389455538,
140.0,140.75,12,0.75,Stimuli/P004/sun_bcboctumoxwpdefl.jpg,0,0,0.0,0,242,242,242,,,,,,,,,,,,,140.00553070000024,0.005530700000235811,None,,190.41192709999814,190.41192709999814,190.41192709999814,190.41192709999814,190.41192709999814,190.41192709999814,190.41192709999814,190.41192709999814,190.41192709999814,190.41192709999814,009,P004,2025_Jan_18_1445,ConditionRich,2021.2.3,59.93080389455538,
140.75,141.0,41,0.0,Stimuli/Blank.png,0,0,0.0,0,243,243,243,,,,,,,,,,,,,140.7584566000005,0.008456600000499748,None,,191.17927209999834,191.17927209999834,191.17927209999834,191.17927209999834,191.17927209999834,191.17927209999834,191.17927209999834,191.17927209999834,191.17927209999834,191.17927209999834,009,P004,2025_Jan_18_1445,ConditionRich,2021.2.3,59.93080389455538,
141.0,141.75,12,0.75,Stimuli/P004/sun_bcboctumoxwpdefl.jpg,0,0,0.0,0,244,244,244,,,,,,,,,,,,,141.02387760000056,0.02387760000056005,None,,191.44617870000002,191.44617870000002,191.44617870000002,191.44617870000002,191.44617870000002,191.44617870000002,191.44617870000002,191.44617870000002,191.44617870000002,191.44617870000002,009,P004,2025_Jan_18_1445,ConditionRich,2021.2.3,59.93080389455538,
141.75,142.0,41,0.0,Stimuli/Blank.png,0,0,0.0,0,245,245,245,,,,,,,,,,,,,141.77387559999988,0.02387559999988298,5,0.2018941000023915,192.18013529999735,192.18013529999735,192.18013529999735,192.18013529999735,192.18013529999735,192.18013529999735,192.18013529999735,192.18013529999735,192.18013529999735,192.18013529999735,009,P004,2025_Jan_18_1445,ConditionRich,2021.2.3,59.93080389455538,
142.0,142.75,12,0.75,Stimuli/P004/sun_bcboctumoxwpdefl.jpg,0,0,0.0,0,246,246,246,,,,,,,,,,,,,142.00714809999772,0.007148099997721147,None,,192.4136737000008,192.4136737000008,192.4136737000008,192.4136737000008,192.4136737000008,192.4136737000008,192.4136737000008,192.4136737000008,192.4136737000008,192.4136737000008,009,P004,2025_Jan_18_1445,ConditionRich,2021.2.3,59.93080389455538,
142.75,143.0,41,0.0,Stimuli/Blank.png,0,0,0.0,0,247,247,247,,,,,,,,,,,,,142.75814230000105,0.008142300001054537,None,,193.16433619999952,193.16433619999952,193.16433619999952,193.16433619999952,193.16433619999952,193.16433619999952,193.16433619999952,193.16433619999952,193.16433619999952,193.16433619999952,009,P004,2025_Jan_18_1445,ConditionRich,2021.2.3,59.93080389455538,
143.0,143.75,12,0.75,Stimuli/P004/sun_bcboctumoxwpdefl.jpg,0,0,0.0,0,248,248,248,,,,,,,,,,,,,143.00854400000026,0.008544000000256347,None,,193.43124289999832,193.43124289999832,193.43124289999832,193.43124289999832,193.43124289999832,193.43124289999832,193.43124289999832,193.43124289999832,193.43124289999832,193.43124289999832,009,P004,2025_Jan_18_1445,ConditionRich,2021.2.3,59.93080389455538,
143.75,144.0,41,0.0,Stimuli/Blank.png,0,0,0.0,0,249,249,249,,,,,,,,,,,,,143.7775221999982,0.027522199998202268,5,0.20019650000176625,194.18191709999883,194.18191709999883,194.18191709999883,194.18191709999883,194.18191709999883,194.18191709999883,194.18191709999883,194.18191709999883,194.18191709999883,194.18191709999883,009,P004,2025_Jan_18_1445,ConditionRich,2021.2.3,59.93080389455538,
144.0,144.75,6,0.75,Stimuli/P004/sun_aoumkoxfhlaobjef.jpg,0,0,0.0,0,250,250,250,,,,,,,,,,,,,144.00993539999763,0.009935399997630157,None,,194.43214779999835,194.43214779999835,194.43214779999835,194.43214779999835,194.43214779999835,194.43214779999835,194.43214779999835,194.43214779999835,194.43214779999835,194.43214779999835,009,P004,2025_Jan_18_1445,ConditionRich,2021.2.3,59.93080389455538,
144.75,145.0,41,0.0,Stimuli/Blank.png,0,0,0.0,0,251,251,251,,,,,,,,,,,,,144.77691559999948,0.026915599999483675,None,,195.18277999999918,195.18277999999918,195.18277999999918,195.18277999999918,195.18277999999918,195.18277999999918,195.18277999999918,195.18277999999918,195.18277999999918,195.18277999999918,009,P004,2025_Jan_18_1445,ConditionRich,2021.2.3,59.93080389455538,
145.0,145.75,6,0.75,Stimuli/P004/sun_aoumkoxfhlaobjef.jpg,0,0,0.0,0,252,252,252,,,,,,,,,,,,,145.0103025999997,0.010302599999704398,None,,195.41633209999782,195.41633209999782,195.41633209999782,195.41633209999782,195.41633209999782,195.41633209999782,195.41633209999782,195.41633209999782,195.41633209999782,195.41633209999782,009,P004,2025_Jan_18_1445,ConditionRich,2021.2.3,59.93080389455538,
145.75,146.0,41,0.0,Stimuli/Blank.png,0,0,0.0,0,253,253,253,,,,,,,,,,,,,145.76126830000067,0.011268300000665477,5,0.21499739999853773,196.16695519999848,196.16695519999848,196.16695519999848,196.16695519999848,196.16695519999848,196.16695519999848,196.16695519999848,196.16695519999848,196.16695519999848,196.16695519999848,009,P004,2025_Jan_18_1445,ConditionRich,2021.2.3,59.93080389455538,
146.0,146.75,6,0.75,Stimuli/P004/sun_aoumkoxfhlaobjef.jpg,0,0,0.0,0,254,254,254,,,,,,,,,,,,,146.0115994000007,0.011599400000704918,None,,196.41720449999775,196.41720449999775,196.41720449999775,196.41720449999775,196.41720449999775,196.41720449999775,196.41720449999775,196.41720449999775,196.41720449999775,196.41720449999775,009,P004,2025_Jan_18_1445,ConditionRich,2021.2.3,59.93080389455538,
146.75,147.0,41,0.0,Stimuli/Blank.png,0,0,0.0,0,255,255,255,,,,,,,,,,,,,146.76216179999756,0.012161799997556955,None,,197.16786589999901,197.16786589999901,197.16786589999901,197.16786589999901,197.16786589999901,197.16786589999901,197.16786589999901,197.16786589999901,197.16786589999901,197.16786589999901,009,P004,2025_Jan_18_1445,ConditionRich,2021.2.3,59.93080389455538,
147.0,147.75,6,0.75,Stimuli/P004/sun_aoumkoxfhlaobjef.jpg,0,0,0.0,0,256,256,256,,,,,,,,,,,,,147.0119209000004,0.0119209000004048,None,,197.41807970000082,197.41807970000082,197.41807970000082,197.41807970000082,197.41807970000082,197.41807970000082,197.41807970000082,197.41807970000082,197.41807970000082,197.41807970000082,009,P004,2025_Jan_18_1445,ConditionRich,2021.2.3,59.93080389455538,
147.75,148.0,41,0.0,Stimuli/Blank.png,0,0,0.0,0,257,257,257,,,,,,,,,,,,,147.76352679999763,0.013526799997634953,5,0.2133670000002894,198.16875009999785,198.16875009999785,198.16875009999785,198.16875009999785,198.16875009999785,198.16875009999785,198.16875009999785,198.16875009999785,198.16875009999785,198.16875009999785,009,P004,2025_Jan_18_1445,ConditionRich,2021.2.3,59.93080389455538,
148.0,148.75,2,0.75,Stimuli/P004/sun_afijjzyziczoqdhz.jpg,0,0,0.0,0,258,258,258,,,,,,,,,,,,,148.01354379999975,0.013543799999752082,None,,198.4189652999994,198.4189652999994,198.4189652999994,198.4189652999994,198.4189652999994,198.4189652999994,198.4189652999994,198.4189652999994,198.4189652999994,198.4189652999994,009,P004,2025_Jan_18_1445,ConditionRich,2021.2.3,59.93080389455538,
148.75,149.0,41,0.0,Stimuli/Blank.png,0,0,0.0,0,259,259,259,,,,,,,,,,,,,148.76370849999876,0.013708499998756452,None,,199.1696305000005,199.1696305000005,199.1696305000005,199.1696305000005,199.1696305000005,199.1696305000005,199.1696305000005,199.1696305000005,199.1696305000005,199.1696305000005,009,P004,2025_Jan_18_1445,ConditionRich,2021.2.3,59.93080389455538,
