eventStartTime,eventEndTime,eventCond,imSize,imFile,responseEvent,fixRespStart,fixRespEnd,Events.thisRepN,Events.thisTrialN,Events.thisN,Events.thisIndex,Instructions.started,Instructions.stopped,participantReadyResponse.keys,participantReadyResponse.rt,participantReadyResponse.started,participantReadyResponse.stopped,startWaitforTrigger,triggerResponse.keys,triggerResponse.rt,triggerResponse.started,triggerResponse.stopped,globalTimer,actualStartTime,startTimingDiff,participantResponse.keys,participantResponse.rt,participantResponse.started,participantResponse.stopped,image.started,image.stopped,fixationOutside.started,fixationOutside.stopped,fixationResponse.started,fixationResponse.stopped,fixationInside.started,fixationInside.stopped,session,participant,date,expName,psychopyVersion,frameRate,
,,,,,,,,,,,,17.686784500001522,None,4,1.2451443999998446,17.686784500001522,None,,,,,,,,,,,,,,,,,,,,,002,P004,2025_Jan_18_1338,ConditionRich,2021.2.3,59.950456942447865,
,,,,,,,,,,,,,,,,,,18.949126999999862,5,13.15418249999857,18.961627900000167,None,,,,,,,,,,,,,,,,002,P004,2025_Jan_18_1338,ConditionRich,2021.2.3,59.950456942447865,
0.0,4.0,0,0.0,Stimuli/Blank.png,0,0,0.0,0,0,0,0,,,,,,,,,,,,32.12710160000279,0.028357700000924524,0.028357700000924524,5,3.942845800000214,32.17322000000058,None,32.17322000000058,None,32.17322000000058,None,32.17322000000058,32.17322000000058,32.17322000000058,None,002,P004,2025_Jan_18_1338,ConditionRich,2021.2.3,59.950456942447865,
4.0,7.75,19,0.75,Stimuli/P004/sun_bucebxfexknakpma.jpg,0,0,0.0,0,1,1,1,,,,,,,,,,,,,4.019184200002201,0.01918420000220067,5,1.938803299999563,36.17704880000019,36.17704880000019,36.17704880000019,36.17704880000019,36.17704880000019,36.17704880000019,36.17704880000019,36.17704880000019,36.17704880000019,36.17704880000019,002,P004,2025_Jan_18_1338,ConditionRich,2021.2.3,59.950456942447865,
7.75,8.0,41,0.0,Stimuli/Blank.png,0,0,0.0,0,2,2,2,,,,,,,,,,,,,7.772805399999925,0.022805399999924703,5,0.18544010000186972,39.93038720000186,39.93038720000186,39.93038720000186,39.93038720000186,39.93038720000186,39.93038720000186,39.93038720000186,39.93038720000186,39.93038720000186,39.93038720000186,002,P004,2025_Jan_18_1338,ConditionRich,2021.2.3,59.950456942447865,
8.0,11.75,26,0.75,Stimuli/P004/things_ham_02s.jpg,0,0,0.0,0,3,3,3,,,,,,,,,,,,,8.022519000001921,0.022519000001921086,5,1.9522362999996403,40.16357540000172,40.16357540000172,40.16357540000172,40.16357540000172,40.16357540000172,40.16357540000172,40.16357540000172,40.16357540000172,40.16357540000172,40.16357540000172,002,P004,2025_Jan_18_1338,ConditionRich,2021.2.3,59.950456942447865,
11.75,12.0,41,0.0,Stimuli/Blank.png,0,0,0.0,0,4,4,4,,,,,,,,,,,,,11.758655699999508,0.008655699999508215,5,0.21560499999759486,43.90020180000283,43.90020180000283,43.90020180000283,43.90020180000283,43.90020180000283,43.90020180000283,43.90020180000283,43.90020180000283,43.90020180000283,43.90020180000283,002,P004,2025_Jan_18_1338,ConditionRich,2021.2.3,59.950456942447865,
12.0,15.75,30,0.75,Stimuli/P004/things_music_box_02s.jpg,0,0,0.0,0,5,5,5,,,,,,,,,,,,,12.00895280000259,0.008952800002589356,5,1.9653857999983302,44.15043910000168,44.15043910000168,44.15043910000168,44.15043910000168,44.15043910000168,44.15043910000168,44.15043910000168,44.15043910000168,44.15043910000168,44.15043910000168,002,P004,2025_Jan_18_1338,ConditionRich,2021.2.3,59.950456942447865,
15.75,16.0,41,0.0,Stimuli/Blank.png,0,0,0.0,0,6,6,6,,,,,,,,,,,,,15.762214300000778,0.012214300000778167,5,0.21219059999930323,47.90369490000012,47.90369490000012,47.90369490000012,47.90369490000012,47.90369490000012,47.90369490000012,47.90369490000012,47.90369490000012,47.90369490000012,47.90369490000012,002,P004,2025_Jan_18_1338,ConditionRich,2021.2.3,59.950456942447865,
16.0,19.75,22,0.75,Stimuli/P004/things_boy_02s.jpg,1,1,1.75,0,7,7,7,,,,,,,,,,,,,16.013108099999954,0.013108099999953993,5,1.945278099999996,48.1705965000001,48.1705965000001,48.1705965000001,48.1705965000001,48.1705965000001,48.1705965000001,49.13812880000114,49.88879029999953,48.1705965000001,48.1705965000001,002,P004,2025_Jan_18_1338,ConditionRich,2021.2.3,59.950456942447865,
19.75,20.0,41,0.0,Stimuli/Blank.png,0,0,0.0,0,8,8,8,,,,,,,,,,,,,19.7678178999995,0.017817899999499787,5,0.19208879999860073,51.92394070000228,51.92394070000228,51.92394070000228,51.92394070000228,51.92394070000228,51.92394070000228,51.92394070000228,51.92394070000228,51.92394070000228,51.92394070000228,002,P004,2025_Jan_18_1338,ConditionRich,2021.2.3,59.950456942447865,
20.0,23.75,2,0.75,Stimuli/P004/sun_afijjzyziczoqdhz.jpg,0,0,0.0,0,9,9,9,,,,,,,,,,,,,20.016634300001897,0.016634300001896918,5,1.9585234000005585,52.15747209999972,52.15747209999972,52.15747209999972,52.15747209999972,52.15747209999972,52.15747209999972,52.15747209999972,52.15747209999972,52.15747209999972,52.15747209999972,002,P004,2025_Jan_18_1338,ConditionRich,2021.2.3,59.950456942447865,
23.75,24.0,41,0.0,Stimuli/Blank.png,0,0,0.0,0,10,10,10,,,,,,,,,,,,,23.753955300002417,0.0039553000024170615,5,0.20489459999953397,55.9107834000024,55.9107834000024,55.9107834000024,55.9107834000024,55.9107834000024,55.9107834000024,55.9107834000024,55.9107834000024,55.9107834000024,55.9107834000024,002,P004,2025_Jan_18_1338,ConditionRich,2021.2.3,59.950456942447865,
24.0,27.75,23,0.75,Stimuli/P004/things_butterfly_02s.jpg,0,0,0.0,0,11,11,11,,,,,,,,,,,,,24.01977910000278,0.01977910000277916,5,1.954763699999603,56.16098140000031,56.16098140000031,56.16098140000031,56.16098140000031,56.16098140000031,56.16098140000031,56.16098140000031,56.16098140000031,56.16098140000031,56.16098140000031,002,P004,2025_Jan_18_1338,ConditionRich,2021.2.3,59.950456942447865,
27.75,28.0,41,0.0,Stimuli/Blank.png,0,0,0.0,0,12,12,12,,,,,,,,,,,,,27.756897999999637,0.00689799999963725,5,0.2180984000005992,59.897614800000156,59.897614800000156,59.897614800000156,59.897614800000156,59.897614800000156,59.897614800000156,59.897614800000156,59.897614800000156,59.897614800000156,59.897614800000156,002,P004,2025_Jan_18_1338,ConditionRich,2021.2.3,59.950456942447865,
28.0,31.75,35,0.75,Stimuli/P004/things_satellite_dish_02s.jpg,1,3,3.75,0,13,13,13,,,,,,,,,,,,,28.006725999999617,0.006725999999616761,4,3.500855900001625,60.147825800002465,60.147825800002465,60.147825800002465,60.147825800002465,60.147825800002465,60.147825800002465,63.133785800000624,63.884524600001896,60.147825800002465,60.147825800002465,002,P004,2025_Jan_18_1338,ConditionRich,2021.2.3,59.950456942447865,
31.75,32.0,41,0.0,Stimuli/Blank.png,0,0,0.0,0,14,14,14,,,,,,,,,,,,,31.76215510000111,0.012155100001109531,5,0.1978942999994615,63.91782199999943,63.91782199999943,63.91782199999943,63.91782199999943,63.91782199999943,63.91782199999943,63.91782199999943,63.91782199999943,63.91782199999943,63.91782199999943,002,P004,2025_Jan_18_1338,ConditionRich,2021.2.3,59.950456942447865,
32.0,35.75,1,0.75,Stimuli/P004/sun_adgmtzznutwlescq.jpg,1,2,2.75,0,15,15,15,,,,,,,,,,,,,32.02629610000076,0.026296100000763545,4,2.637731000002532,64.168044500002,64.168044500002,64.168044500002,64.168044500002,64.168044500002,64.168044500002,66.1531109000025,66.90376880000258,64.168044500002,64.168044500002,002,P004,2025_Jan_18_1338,ConditionRich,2021.2.3,59.950456942447865,
35.75,36.0,41,0.0,Stimuli/Blank.png,0,0,0.0,0,16,16,16,,,,,,,,,,,,,35.763314899999386,0.013314899999386398,5,0.2110735999995086,67.90464410000277,67.90464410000277,67.90464410000277,67.90464410000277,67.90464410000277,67.90464410000277,67.90464410000277,67.90464410000277,67.90464410000277,67.90464410000277,002,P004,2025_Jan_18_1338,ConditionRich,2021.2.3,59.950456942447865,
36.0,39.75,27,0.75,Stimuli/P004/things_llama_02s.jpg,0,0,0.0,0,17,17,17,,,,,,,,,,,,,36.01352510000288,0.013525100002880208,5,1.960840099996858,68.15487480000229,68.15487480000229,68.15487480000229,68.15487480000229,68.15487480000229,68.15487480000229,68.15487480000229,68.15487480000229,68.15487480000229,68.15487480000229,002,P004,2025_Jan_18_1338,ConditionRich,2021.2.3,59.950456942447865,
39.75,40.0,41,0.0,Stimuli/Blank.png,0,0,0.0,0,18,18,18,,,,,,,,,,,,,39.752339000002394,0.002339000002393732,5,0.2074685999978101,71.90818960000252,71.90818960000252,71.90818960000252,71.90818960000252,71.90818960000252,71.90818960000252,71.90818960000252,71.90818960000252,71.90818960000252,71.90818960000252,002,P004,2025_Jan_18_1338,ConditionRich,2021.2.3,59.950456942447865,
40.0,43.75,37,0.75,Stimuli/P004/things_ski_lift_02s.jpg,0,0,0.0,0,19,19,19,,,,,,,,,,,,,40.01748640000005,0.017486400000052527,5,1.957529200000863,72.15840279999975,72.15840279999975,72.15840279999975,72.15840279999975,72.15840279999975,72.15840279999975,72.15840279999975,72.15840279999975,72.15840279999975,72.15840279999975,002,P004,2025_Jan_18_1338,ConditionRich,2021.2.3,59.950456942447865,
43.75,44.0,41,0.0,Stimuli/Blank.png,0,0,0.0,0,20,20,20,,,,,,,,,,,,,43.753403400001844,0.0034034000018436927,None,,75.89501890000247,75.89501890000247,75.89501890000247,75.89501890000247,75.89501890000247,75.89501890000247,75.89501890000247,75.89501890000247,75.89501890000247,75.89501890000247,002,P004,2025_Jan_18_1338,ConditionRich,2021.2.3,59.950456942447865,
44.0,47.75,24,0.75,Stimuli/P004/things_dumpling_02s.jpg,0,0,0.0,0,21,21,21,,,,,,,,,,,,,44.00363099999959,0.0036309999995864928,5,1.9704326999999466,76.14524420000089,76.14524420000089,76.14524420000089,76.14524420000089,76.14524420000089,76.14524420000089,76.14524420000089,76.14524420000089,76.14524420000089,76.14524420000089,002,P004,2025_Jan_18_1338,ConditionRich,2021.2.3,59.950456942447865,
47.75,48.0,41,0.0,Stimuli/Blank.png,0,0,0.0,0,22,22,22,,,,,,,,,,,,,47.756867500000226,0.006867500000225846,5,0.21752070000002277,79.89854390000255,79.89854390000255,79.89854390000255,79.89854390000255,79.89854390000255,79.89854390000255,79.89854390000255,79.89854390000255,79.89854390000255,79.89854390000255,002,P004,2025_Jan_18_1338,ConditionRich,2021.2.3,59.950456942447865,
48.0,51.75,33,0.75,Stimuli/P004/things_recorder_02s.jpg,0,0,0.0,0,23,23,23,,,,,,,,,,,,,48.00736710000274,0.00736710000273888,5,1.9502278999971168,80.16546400000152,80.16546400000152,80.16546400000152,80.16546400000152,80.16546400000152,80.16546400000152,80.16546400000152,80.16546400000152,80.16546400000152,80.16546400000152,002,P004,2025_Jan_18_1338,ConditionRich,2021.2.3,59.950456942447865,
51.75,52.0,41,0.0,Stimuli/Blank.png,0,0,0.0,0,24,24,24,,,,,,,,,,,,,51.77773900000102,0.02773900000102003,5,0.19670330000008107,83.91892530000041,83.91892530000041,83.91892530000041,83.91892530000041,83.91892530000041,83.91892530000041,83.91892530000041,83.91892530000041,83.91892530000041,83.91892530000041,002,P004,2025_Jan_18_1338,ConditionRich,2021.2.3,59.950456942447865,
52.0,55.75,31,0.75,Stimuli/P004/things_pea_02s.jpg,0,0,0.0,0,25,25,25,,,,,,,,,,,,,52.011474500002805,0.011474500002805144,5,1.9633208999985072,84.15228720000232,84.15228720000232,84.15228720000232,84.15228720000232,84.15228720000232,84.15228720000232,84.15228720000232,84.15228720000232,84.15228720000232,84.15228720000232,002,P004,2025_Jan_18_1338,ConditionRich,2021.2.3,59.950456942447865,
55.75,56.0,41,0.0,Stimuli/Blank.png,0,0,0.0,0,26,26,26,,,,,,,,,,,,,55.7644990000008,0.014499000000796514,5,0.21008710000023711,87.90558940000119,87.90558940000119,87.90558940000119,87.90558940000119,87.90558940000119,87.90558940000119,87.90558940000119,87.90558940000119,87.90558940000119,87.90558940000119,002,P004,2025_Jan_18_1338,ConditionRich,2021.2.3,59.950456942447865,
56.0,59.75,6,0.75,Stimuli/P004/sun_aoumkoxfhlaobjef.jpg,0,0,0.0,0,27,27,27,,,,,,,,,,,,,56.015519100001256,0.015519100001256447,5,1.9433998000022257,88.1724850999999,88.1724850999999,88.1724850999999,88.1724850999999,88.1724850999999,88.1724850999999,88.1724850999999,88.1724850999999,88.1724850999999,88.1724850999999,002,P004,2025_Jan_18_1338,ConditionRich,2021.2.3,59.950456942447865,
59.75,60.0,41,0.0,Stimuli/Blank.png,0,0,0.0,0,28,28,28,,,,,,,,,,,,,59.76811970000199,0.01811970000198926,None,,91.9091135000017,91.9091135000017,91.9091135000017,91.9091135000017,91.9091135000017,91.9091135000017,91.9091135000017,91.9091135000017,91.9091135000017,91.9091135000017,002,P004,2025_Jan_18_1338,ConditionRich,2021.2.3,59.950456942447865,
60.0,63.75,20,0.75,Stimuli/P004/sun_bwytihadgigwkyht.jpg,0,0,0.0,0,29,29,29,,,,,,,,,,,,,60.000871399999596,0.0008713999995961785,5,1.9729494000021077,92.14265340000202,92.14265340000202,92.14265340000202,92.14265340000202,92.14265340000202,92.14265340000202,92.14265340000202,92.14265340000202,92.14265340000202,92.14265340000202,002,P004,2025_Jan_18_1338,ConditionRich,2021.2.3,59.950456942447865,
63.75,64.0,41,0.0,Stimuli/Blank.png,0,0,0.0,0,30,30,30,,,,,,,,,,,,,63.75719050000043,0.007190500000433531,5,0.2029547000020102,95.91263990000152,95.91263990000152,95.91263990000152,95.91263990000152,95.91263990000152,95.91263990000152,95.91263990000152,95.91263990000152,95.91263990000152,95.91263990000152,002,P004,2025_Jan_18_1338,ConditionRich,2021.2.3,59.950456942447865,
64.0,67.75,9,0.75,Stimuli/P004/sun_auqtrqkaobyprnjy.jpg,0,0,0.0,0,31,31,31,,,,,,,,,,,,,64.02156870000181,0.021568700001807883,5,1.9528047000021616,96.1628531000024,96.1628531000024,96.1628531000024,96.1628531000024,96.1628531000024,96.1628531000024,96.1628531000024,96.1628531000024,96.1628531000024,96.1628531000024,002,P004,2025_Jan_18_1338,ConditionRich,2021.2.3,59.950456942447865,
67.75,68.0,41,0.0,Stimuli/Blank.png,0,0,0.0,0,32,32,32,,,,,,,,,,,,,67.75840729999982,0.008407299999817042,5,0.21615169999859063,99.89951440000004,99.89951440000004,99.89951440000004,99.89951440000004,99.89951440000004,99.89951440000004,99.89951440000004,99.89951440000004,99.89951440000004,99.89951440000004,002,P004,2025_Jan_18_1338,ConditionRich,2021.2.3,59.950456942447865,
68.0,71.75,28,0.75,Stimuli/P004/things_man_02s.jpg,0,0,0.0,0,33,33,33,,,,,,,,,,,,,68.00804500000231,0.008045000002312008,5,1.965871899999911,100.14969190000193,100.14969190000193,100.14969190000193,100.14969190000193,100.14969190000193,100.14969190000193,100.14969190000193,100.14969190000193,100.14969190000193,100.14969190000193,002,P004,2025_Jan_18_1338,ConditionRich,2021.2.3,59.950456942447865,
71.75,72.0,41,0.0,Stimuli/Blank.png,0,0,0.0,0,34,34,34,,,,,,,,,,,,,71.76154020000104,0.011540200001036283,5,0.21272010000029695,103.90299610000147,103.90299610000147,103.90299610000147,103.90299610000147,103.90299610000147,103.90299610000147,103.90299610000147,103.90299610000147,103.90299610000147,103.90299610000147,002,P004,2025_Jan_18_1338,ConditionRich,2021.2.3,59.950456942447865,
72.0,75.75,7,0.75,Stimuli/P004/sun_asgixjtedklbawgm.jpg,0,0,0.0,0,35,35,35,,,,,,,,,,,,,72.01183590000073,0.01183590000073309,5,1.962267899998551,104.15321810000023,104.15321810000023,104.15321810000023,104.15321810000023,104.15321810000023,104.15321810000023,104.15321810000023,104.15321810000023,104.15321810000023,104.15321810000023,002,P004,2025_Jan_18_1338,ConditionRich,2021.2.3,59.950456942447865,
75.75,76.0,41,0.0,Stimuli/Blank.png,0,0,0.0,0,36,36,36,,,,,,,,,,,,,75.7655534000005,0.015553400000499096,None,,107.90656920000038,107.90656920000038,107.90656920000038,107.90656920000038,107.90656920000038,107.90656920000038,107.90656920000038,107.90656920000038,107.90656920000038,107.90656920000038,002,P004,2025_Jan_18_1338,ConditionRich,2021.2.3,59.950456942447865,
76.0,79.75,3,0.75,Stimuli/P004/sun_afqjzrocqhabifao.jpg,0,0,0.0,0,37,37,37,,,,,,,,,,,,,75.99904489999972,-0.0009551000002829824,5,1.9591503000010562,108.15675370000099,108.15675370000099,108.15675370000099,108.15675370000099,108.15675370000099,108.15675370000099,108.15675370000099,108.15675370000099,108.15675370000099,108.15675370000099,002,P004,2025_Jan_18_1338,ConditionRich,2021.2.3,59.950456942447865,
79.75,80.0,41,0.0,Stimuli/Blank.png,0,0,0.0,0,38,38,38,,,,,,,,,,,,,79.76886500000182,0.018865000001824228,None,,111.91004600000088,111.91004600000088,111.91004600000088,111.91004600000088,111.91004600000088,111.91004600000088,111.91004600000088,111.91004600000088,111.91004600000088,111.91004600000088,002,P004,2025_Jan_18_1338,ConditionRich,2021.2.3,59.950456942447865,
80.0,83.75,12,0.75,Stimuli/P004/sun_bcboctumoxwpdefl.jpg,1,3,3.75,0,39,39,39,,,,,,,,,,,,,80.00201450000168,0.0020145000016782433,4,3.298029800000222,112.1435831000017,112.1435831000017,112.1435831000017,112.1435831000017,112.1435831000017,112.1435831000017,115.12953969999944,115.88022860000274,112.1435831000017,112.1435831000017,002,P004,2025_Jan_18_1338,ConditionRich,2021.2.3,59.950456942447865,
83.75,84.0,41,0.0,Stimuli/Blank.png,0,0,0.0,0,40,40,40,,,,,,,,,,,,,83.75583820000247,0.005838200002472149,5,0.21867700000075274,115.89688709999973,115.89688709999973,115.89688709999973,115.89688709999973,115.89688709999973,115.89688709999973,115.89688709999973,115.89688709999973,115.89688709999973,115.89688709999973,002,P004,2025_Jan_18_1338,ConditionRich,2021.2.3,59.950456942447865,
84.0,100.0,0,0.0,Stimuli/Blank.png,1,5,5.75,0,41,41,41,,,,,,,,,,,,,84.00557300000219,0.005573000002186745,5,13.968305499998678,116.14710340000238,116.14710340000238,116.14710340000238,116.14710340000238,116.14710340000238,116.14710340000238,121.13489960000152,121.88549100000091,116.14710340000238,116.14710340000238,002,P004,2025_Jan_18_1338,ConditionRich,2021.2.3,59.950456942447865,
100.0,103.75,39,0.75,Stimuli/P004/things_toad_02s.jpg,0,0,0.0,0,42,42,42,,,,,,,,,,,,,100.00308679999944,0.003086799999437062,5,1.970892499997717,132.14452370000072,132.14452370000072,132.14452370000072,132.14452370000072,132.14452370000072,132.14452370000072,132.14452370000072,132.14452370000072,132.14452370000072,132.14452370000072,002,P004,2025_Jan_18_1338,ConditionRich,2021.2.3,59.950456942447865,
103.75,104.0,41,0.0,Stimuli/Blank.png,0,0,0.0,0,43,43,43,,,,,,,,,,,,,103.75768869999956,0.007688699999562232,5,0.2176411000000371,135.89783180000086,135.89783180000086,135.89783180000086,135.89783180000086,135.89783180000086,135.89783180000086,135.89783180000086,135.89783180000086,135.89783180000086,135.89783180000086,002,P004,2025_Jan_18_1338,ConditionRich,2021.2.3,59.950456942447865,
104.0,107.75,34,0.75,Stimuli/P004/things_roll_02s.jpg,0,0,0.0,0,44,44,44,,,,,,,,,,,,,104.00644330000068,0.006443300000682939,5,1.9673360999986471,136.14804990000266,136.14804990000266,136.14804990000266,136.14804990000266,136.14804990000266,136.14804990000266,136.14804990000266,136.14804990000266,136.14804990000266,136.14804990000266,002,P004,2025_Jan_18_1338,ConditionRich,2021.2.3,59.950456942447865,
107.75,108.0,41,0.0,Stimuli/Blank.png,0,0,0.0,0,45,45,45,,,,,,,,,,,,,107.760467600001,0.010467600000993116,5,0.21397849999993923,139.90134340000077,139.90134340000077,139.90134340000077,139.90134340000077,139.90134340000077,139.90134340000077,139.90134340000077,139.90134340000077,139.90134340000077,139.90134340000077,002,P004,2025_Jan_18_1338,ConditionRich,2021.2.3,59.950456942447865,
108.0,111.75,18,0.75,Stimuli/P004/sun_bplhnzkztpigweny.jpg,1,0,0.75,0,46,46,46,,,,,,,,,,,,,108.01299810000273,0.012998100002732826,5,1.9470956999975897,140.1682510999999,140.1682510999999,140.1682510999999,140.1682510999999,140.1682510999999,140.1682510999999,140.1682510999999,140.90221320000273,140.1682510999999,140.1682510999999,002,P004,2025_Jan_18_1338,ConditionRich,2021.2.3,59.950456942447865,
111.75,112.0,41,0.0,Stimuli/Blank.png,0,0,0.0,0,47,47,47,,,,,,,,,,,,,111.76325870000073,0.01325870000073337,5,0.210573000000295,143.90487620000204,143.90487620000204,143.90487620000204,143.90487620000204,143.90487620000204,143.90487620000204,143.90487620000204,143.90487620000204,143.90487620000204,143.90487620000204,002,P004,2025_Jan_18_1338,ConditionRich,2021.2.3,59.950456942447865,
112.0,115.75,29,0.75,Stimuli/P004/things_mat_02s.jpg,0,0,0.0,0,48,48,48,,,,,,,,,,,,,112.0135893000006,0.013589300000603544,5,1.9603605999982392,144.15508630000113,144.15508630000113,144.15508630000113,144.15508630000113,144.15508630000113,144.15508630000113,144.15508630000113,144.15508630000113,144.15508630000113,144.15508630000113,002,P004,2025_Jan_18_1338,ConditionRich,2021.2.3,59.950456942447865,
115.75,116.0,41,0.0,Stimuli/Blank.png,0,0,0.0,0,49,49,49,,,,,,,,,,,,,115.75317490000089,0.0031749000008858275,5,0.20695699999851058,147.9083974000023,147.9083974000023,147.9083974000023,147.9083974000023,147.9083974000023,147.9083974000023,147.9083974000023,147.9083974000023,147.9083974000023,147.9083974000023,002,P004,2025_Jan_18_1338,ConditionRich,2021.2.3,59.950456942447865,
116.0,119.75,8,0.75,Stimuli/P004/sun_asxkyzleyfgbqfrs.jpg,0,0,0.0,0,50,50,50,,,,,,,,,,,,,116.01724250000188,0.017242500001884764,5,1.9568594000011217,148.1586113000012,148.1586113000012,148.1586113000012,148.1586113000012,148.1586113000012,148.1586113000012,148.1586113000012,148.1586113000012,148.1586113000012,148.1586113000012,002,P004,2025_Jan_18_1338,ConditionRich,2021.2.3,59.950456942447865,
119.75,120.0,41,0.0,Stimuli/Blank.png,0,0,0.0,0,51,51,51,,,,,,,,,,,,,119.75417220000236,0.004172200002358295,None,,151.89531270000225,151.89531270000225,151.89531270000225,151.89531270000225,151.89531270000225,151.89531270000225,151.89531270000225,151.89531270000225,151.89531270000225,151.89531270000225,002,P004,2025_Jan_18_1338,ConditionRich,2021.2.3,59.950456942447865,
120.0,123.75,32,0.75,Stimuli/P004/things_pulley_02s.jpg,0,0,0.0,0,52,52,52,,,,,,,,,,,,,120.0044624000002,0.004462400000193156,5,1.9533277999980783,152.1621453000007,152.1621453000007,152.1621453000007,152.1621453000007,152.1621453000007,152.1621453000007,152.1621453000007,152.1621453000007,152.1621453000007,152.1621453000007,002,P004,2025_Jan_18_1338,ConditionRich,2021.2.3,59.950456942447865,
123.75,124.0,41,0.0,Stimuli/Blank.png,0,0,0.0,0,53,53,53,,,,,,,,,,,,,123.7743799000018,0.024379900001804344,5,0.19993439999961993,155.91552760000195,155.91552760000195,155.91552760000195,155.91552760000195,155.91552760000195,155.91552760000195,155.91552760000195,155.91552760000195,155.91552760000195,155.91552760000195,002,P004,2025_Jan_18_1338,ConditionRich,2021.2.3,59.950456942447865,
124.0,127.75,15,0.75,Stimuli/P004/sun_bjhtdevvocmwtavk.jpg,1,3,3.75,0,54,54,54,,,,,,,,,,,,,124.00747650000267,0.007476500002667308,4,3.3663951000016823,156.14898230000108,156.14898230000108,156.14898230000108,156.14898230000108,156.14898230000108,156.14898230000108,159.13493000000017,159.8855951000005,156.14898230000108,156.14898230000108,002,P004,2025_Jan_18_1338,ConditionRich,2021.2.3,59.950456942447865,
127.75,128.0,41,0.0,Stimuli/Blank.png,0,0,0.0,0,55,55,55,,,,,,,,,,,,,127.7612294999999,0.011229499999899417,5,0.21321810000154073,159.90229069999987,159.90229069999987,159.90229069999987,159.90229069999987,159.90229069999987,159.90229069999987,159.90229069999987,159.90229069999987,159.90229069999987,159.90229069999987,002,P004,2025_Jan_18_1338,ConditionRich,2021.2.3,59.950456942447865,
128.0,131.75,21,0.75,Stimuli/P004/things_baby_02s.jpg,0,0,0.0,0,56,56,56,,,,,,,,,,,,,128.01155540000036,0.01155540000036126,5,1.9630182000000787,160.15249949999998,160.15249949999998,160.15249949999998,160.15249949999998,160.15249949999998,160.15249949999998,160.15249949999998,160.15249949999998,160.15249949999998,160.15249949999998,002,P004,2025_Jan_18_1338,ConditionRich,2021.2.3,59.950456942447865,
131.75,132.0,41,0.0,Stimuli/Blank.png,0,0,0.0,0,57,57,57,,,,,,,,,,,,,131.76487380000253,0.014873800002533244,5,0.2095459000011033,163.9058165000024,163.9058165000024,163.9058165000024,163.9058165000024,163.9058165000024,163.9058165000024,163.9058165000024,163.9058165000024,163.9058165000024,163.9058165000024,002,P004,2025_Jan_18_1338,ConditionRich,2021.2.3,59.950456942447865,
132.0,135.75,11,0.75,Stimuli/P004/sun_bawmjlzsuuivqjhi.jpg,1,3,3.75,0,58,58,58,,,,,,,,,,,,,132.01446040000155,0.014460400001553353,4,3.428260999997292,164.1560285000014,164.1560285000014,164.1560285000014,164.1560285000014,164.1560285000014,164.1560285000014,167.14198490000126,None,164.1560285000014,164.1560285000014,002,P004,2025_Jan_18_1338,ConditionRich,2021.2.3,59.950456942447865,
135.75,136.0,41,0.0,Stimuli/Blank.png,0,0,0.0,0,59,59,59,,,,,,,,,,,,,135.7525643000008,0.002564300000813091,None,,167.89265739999973,167.89265739999973,167.89265739999973,167.89265739999973,167.89265739999973,167.89265739999973,167.89265739999973,167.89265739999973,167.89265739999973,167.89265739999973,002,P004,2025_Jan_18_1338,ConditionRich,2021.2.3,59.950456942447865,
136.0,139.75,4,0.75,Stimuli/P004/sun_albtqdieqkajejrg.jpg,0,0,0.0,0,60,60,60,,,,,,,,,,,,,136.00124530000176,0.0012453000017558224,5,1.972557199998846,168.14286390000052,168.14286390000052,168.14286390000052,168.14286390000052,168.14286390000052,168.14286390000052,168.14286390000052,168.14286390000052,168.14286390000052,168.14286390000052,002,P004,2025_Jan_18_1338,ConditionRich,2021.2.3,59.950456942447865,
139.75,140.0,41,0.0,Stimuli/Blank.png,0,0,0.0,0,61,61,61,,,,,,,,,,,,,139.7572648000023,0.007264800002303673,5,0.2024619999974675,171.9128559000019,171.9128559000019,171.9128559000019,171.9128559000019,171.9128559000019,171.9128559000019,171.9128559000019,171.9128559000019,171.9128559000019,171.9128559000019,002,P004,2025_Jan_18_1338,ConditionRich,2021.2.3,59.950456942447865,
140.0,143.75,38,0.75,Stimuli/P004/things_slug_02s.jpg,0,0,0.0,0,62,62,62,,,,,,,,,,,,,140.0220941000007,0.022094100000686012,5,1.9523001000015938,172.16307679999954,172.16307679999954,172.16307679999954,172.16307679999954,172.16307679999954,172.16307679999954,172.16307679999954,172.16307679999954,172.16307679999954,172.16307679999954,002,P004,2025_Jan_18_1338,ConditionRich,2021.2.3,59.950456942447865,
143.75,144.0,41,0.0,Stimuli/Blank.png,0,0,0.0,0,63,63,63,,,,,,,,,,,,,143.75895650000166,0.008956500001659151,5,0.21555240000088816,175.89977120000185,175.89977120000185,175.89977120000185,175.89977120000185,175.89977120000185,175.89977120000185,175.89977120000185,175.89977120000185,175.89977120000185,175.89977120000185,002,P004,2025_Jan_18_1338,ConditionRich,2021.2.3,59.950456942447865,
144.0,147.75,13,0.75,Stimuli/P004/sun_bhbiqbqmwrowrqpd.jpg,0,0,0.0,0,64,64,64,,,,,,,,,,,,,144.00909339999998,0.009093399999983376,5,1.9653869999965536,176.14991050000026,176.14991050000026,176.14991050000026,176.14991050000026,176.14991050000026,176.14991050000026,176.14991050000026,176.14991050000026,176.14991050000026,176.14991050000026,002,P004,2025_Jan_18_1338,ConditionRich,2021.2.3,59.950456942447865,
147.75,148.0,41,0.0,Stimuli/Blank.png,0,0,0.0,0,65,65,65,,,,,,,,,,,,,147.7621669,0.012166900000011083,5,0.21221429999786778,179.90323050000006,179.90323050000006,179.90323050000006,179.90323050000006,179.90323050000006,179.90323050000006,179.90323050000006,179.90323050000006,179.90323050000006,179.90323050000006,002,P004,2025_Jan_18_1338,ConditionRich,2021.2.3,59.950456942447865,
148.0,151.75,10,0.75,Stimuli/P004/sun_azzneunxibjvypza.jpg,0,0,0.0,0,66,66,66,,,,,,,,,,,,,148.01262660000066,0.012626600000658073,5,1.9620064000009734,180.15343150000263,180.15343150000263,180.15343150000263,180.15343150000263,180.15343150000263,180.15343150000263,180.15343150000263,180.15343150000263,180.15343150000263,180.15343150000263,002,P004,2025_Jan_18_1338,ConditionRich,2021.2.3,59.950456942447865,
151.75,152.0,41,0.0,Stimuli/Blank.png,0,0,0.0,0,67,67,67,,,,,,,,,,,,,151.74878829999943,-0.0012117000005673617,None,,183.8900504000012,183.8900504000012,183.8900504000012,183.8900504000012,183.8900504000012,183.8900504000012,183.8900504000012,183.8900504000012,183.8900504000012,183.8900504000012,002,P004,2025_Jan_18_1338,ConditionRich,2021.2.3,59.950456942447865,
152.0,155.75,40,0.75,Stimuli/P004/things_woman_02s.jpg,1,0,0.75,0,68,68,68,,,,,,,,,,,,,151.99906330000158,-0.000936699998419499,5,1.9583662000004551,184.15696560000288,184.15696560000288,184.15696560000288,184.15696560000288,184.15696560000288,184.15696560000288,184.15696560000288,184.87422340000194,184.15696560000288,184.15696560000288,002,P004,2025_Jan_18_1338,ConditionRich,2021.2.3,59.950456942447865,
155.75,156.0,41,0.0,Stimuli/Blank.png,0,0,0.0,0,69,69,69,,,,,,,,,,,,,155.76897920000192,0.018979200001922436,None,,187.91033059999972,187.91033059999972,187.91033059999972,187.91033059999972,187.91033059999972,187.91033059999972,187.91033059999972,187.91033059999972,187.91033059999972,187.91033059999972,002,P004,2025_Jan_18_1338,ConditionRich,2021.2.3,59.950456942447865,
156.0,159.75,5,0.75,Stimuli/P004/sun_amnnxdwfjbdfumns.jpg,0,0,0.0,0,70,70,70,,,,,,,,,,,,,156.0022949000013,0.0022949000012886245,5,1.9723916000002646,188.14380040000106,188.14380040000106,188.14380040000106,188.14380040000106,188.14380040000106,188.14380040000106,188.14380040000106,188.14380040000106,188.14380040000106,188.14380040000106,002,P004,2025_Jan_18_1338,ConditionRich,2021.2.3,59.950456942447865,
159.75,160.0,41,0.0,Stimuli/Blank.png,0,0,0.0,0,71,71,71,,,,,,,,,,,,,159.75632380000025,0.006323800000245683,None,,191.8971276000011,191.8971276000011,191.8971276000011,191.8971276000011,191.8971276000011,191.8971276000011,191.8971276000011,191.8971276000011,191.8971276000011,191.8971276000011,002,P004,2025_Jan_18_1338,ConditionRich,2021.2.3,59.950456942447865,
160.0,163.75,36,0.75,Stimuli/P004/things_sea_urchin_02s.jpg,0,0,0.0,0,72,72,72,,,,,,,,,,,,,160.00582829999985,0.005828299999848241,5,1.968956700002309,192.14732170000207,192.14732170000207,192.14732170000207,192.14732170000207,192.14732170000207,192.14732170000207,192.14732170000207,192.14732170000207,192.14732170000207,192.14732170000207,002,P004,2025_Jan_18_1338,ConditionRich,2021.2.3,59.950456942447865,
163.75,164.0,41,0.0,Stimuli/Blank.png,0,0,0.0,0,73,73,73,,,,,,,,,,,,,163.76191550000294,0.01191550000294228,5,0.19885029999932158,195.91732590000174,195.91732590000174,195.91732590000174,195.91732590000174,195.91732590000174,195.91732590000174,195.91732590000174,195.91732590000174,195.91732590000174,195.91732590000174,002,P004,2025_Jan_18_1338,ConditionRich,2021.2.3,59.950456942447865,
164.0,167.75,16,0.75,Stimuli/P004/sun_bjuoemgleyaogrmw.jpg,0,0,0.0,0,74,74,74,,,,,,,,,,,,,164.0261172999999,0.026117299999896204,5,1.9487825999967754,196.1675326000004,196.1675326000004,196.1675326000004,196.1675326000004,196.1675326000004,196.1675326000004,196.1675326000004,196.1675326000004,196.1675326000004,196.1675326000004,002,P004,2025_Jan_18_1338,ConditionRich,2021.2.3,59.950456942447865,
167.75,168.0,41,0.0,Stimuli/Blank.png,0,0,0.0,0,75,75,75,,,,,,,,,,,,,167.76250280000022,0.012502800000220304,5,0.21216699999786215,199.9041505000023,199.9041505000023,199.9041505000023,199.9041505000023,199.9041505000023,199.9041505000023,199.9041505000023,199.9041505000023,199.9041505000023,199.9041505000023,002,P004,2025_Jan_18_1338,ConditionRich,2021.2.3,59.950456942447865,
168.0,171.75,14,0.75,Stimuli/P004/sun_bhhtrmwvoadbfucw.jpg,0,0,0.0,0,76,76,76,,,,,,,,,,,,,168.01275720000194,0.012757200001942692,5,1.9618453999974008,200.15437530000054,200.15437530000054,200.15437530000054,200.15437530000054,200.15437530000054,200.15437530000054,200.15437530000054,200.15437530000054,200.15437530000054,200.15437530000054,002,P004,2025_Jan_18_1338,ConditionRich,2021.2.3,59.950456942447865,
171.75,172.0,41,0.0,Stimuli/Blank.png,0,0,0.0,0,77,77,77,,,,,,,,,,,,,171.75009300000238,9.300000237999484e-05,None,,203.8910407000003,203.8910407000003,203.8910407000003,203.8910407000003,203.8910407000003,203.8910407000003,203.8910407000003,203.8910407000003,203.8910407000003,203.8910407000003,002,P004,2025_Jan_18_1338,ConditionRich,2021.2.3,59.950456942447865,
172.0,175.75,17,0.75,Stimuli/P004/sun_bojovhhraxtgafcy.jpg,0,0,0.0,0,78,78,78,,,,,,,,,,,,,171.99982010000167,-0.000179899998329347,5,1.9749693000012485,204.14120970000295,204.14120970000295,204.14120970000295,204.14120970000295,204.14120970000295,204.14120970000295,204.14120970000295,204.14120970000295,204.14120970000295,204.14120970000295,002,P004,2025_Jan_18_1338,ConditionRich,2021.2.3,59.950456942447865,
175.75,176.0,41,0.0,Stimuli/Blank.png,0,0,0.0,0,79,79,79,,,,,,,,,,,,,175.75360680000085,0.0036068000008526724,None,,207.89451779999945,207.89451779999945,207.89451779999945,207.89451779999945,207.89451779999945,207.89451779999945,207.89451779999945,207.89451779999945,207.89451779999945,207.89451779999945,002,P004,2025_Jan_18_1338,ConditionRich,2021.2.3,59.950456942447865,
176.0,179.75,25,0.75,Stimuli/P004/things_girl_02s.jpg,0,0,0.0,0,80,80,80,,,,,,,,,,,,,176.00389039999936,0.0038903999993635807,5,1.9550224999984493,208.1614265999997,208.1614265999997,208.1614265999997,208.1614265999997,208.1614265999997,208.1614265999997,208.1614265999997,208.1614265999997,208.1614265999997,208.1614265999997,002,P004,2025_Jan_18_1338,ConditionRich,2021.2.3,59.950456942447865,
179.75,180.0,41,0.0,Stimuli/Blank.png,0,0,0.0,0,81,81,81,,,,,,,,,,,,,179.77322819999972,0.023228199999721255,None,,211.91472050000084,211.91472050000084,211.91472050000084,211.91472050000084,211.91472050000084,211.91472050000084,211.91472050000084,211.91472050000084,211.91472050000084,211.91472050000084,002,P004,2025_Jan_18_1338,ConditionRich,2021.2.3,59.950456942447865,
180.0,196.0,0,0.0,Stimuli/Blank.png,1,1,1.75,0,82,82,82,,,,,,,,,,,,,180.0074894999998,0.007489499999792315,5,15.951443099998869,212.1649565000007,212.1649565000007,212.1649565000007,212.1649565000007,212.1649565000007,212.1649565000007,213.13245140000072,213.88312679999945,212.1649565000007,212.1649565000007,002,P004,2025_Jan_18_1338,ConditionRich,2021.2.3,59.950456942447865,
196.0,199.75,14,0.75,Stimuli/P004/sun_bhhtrmwvoadbfucw.jpg,0,0,0.0,0,83,83,83,,,,,,,,,,,,,196.02220320000197,0.02220320000196807,5,1.9373151999971014,228.17903830000068,228.17903830000068,228.17903830000068,228.17903830000068,228.17903830000068,228.17903830000068,228.17903830000068,228.17903830000068,228.17903830000068,228.17903830000068,002,P004,2025_Jan_18_1338,ConditionRich,2021.2.3,59.950456942447865,
199.75,200.0,41,0.0,Stimuli/Blank.png,0,0,0.0,0,84,84,84,,,,,,,,,,,,,199.77679820000048,0.02679820000048494,5,0.1837554999983695,231.93234160000065,231.93234160000065,231.93234160000065,231.93234160000065,231.93234160000065,231.93234160000065,231.93234160000065,231.93234160000065,231.93234160000065,231.93234160000065,002,P004,2025_Jan_18_1338,ConditionRich,2021.2.3,59.950456942447865,
200.0,203.75,39,0.75,Stimuli/P004/things_toad_02s.jpg,0,0,0.0,0,85,85,85,,,,,,,,,,,,,200.0250823000024,0.02508230000239564,5,1.9502232000013464,232.16587250000157,232.16587250000157,232.16587250000157,232.16587250000157,232.16587250000157,232.16587250000157,232.16587250000157,232.16587250000157,232.16587250000157,232.16587250000157,002,P004,2025_Jan_18_1338,ConditionRich,2021.2.3,59.950456942447865,
203.75,204.0,41,0.0,Stimuli/Blank.png,0,0,0.0,0,86,86,86,,,,,,,,,,,,,203.76103650000005,0.011036500000045635,5,0.2135870000020077,235.90250160000141,235.90250160000141,235.90250160000141,235.90250160000141,235.90250160000141,235.90250160000141,235.90250160000141,235.90250160000141,235.90250160000141,235.90250160000141,002,P004,2025_Jan_18_1338,ConditionRich,2021.2.3,59.950456942447865,
204.0,207.75,8,0.75,Stimuli/P004/sun_asxkyzleyfgbqfrs.jpg,0,0,0.0,0,87,87,87,,,,,,,,,,,,,204.01195759999973,0.011957599999732338,5,1.9632822000021406,236.15272510000068,236.15272510000068,236.15272510000068,236.15272510000068,236.15272510000068,236.15272510000068,236.15272510000068,236.15272510000068,236.15272510000068,236.15272510000068,002,P004,2025_Jan_18_1338,ConditionRich,2021.2.3,59.950456942447865,
207.75,208.0,41,0.0,Stimuli/Blank.png,0,0,0.0,0,88,88,88,,,,,,,,,,,,,207.7669988000016,0.01699880000160192,5,0.19338299999799347,239.92270780000035,239.92270780000035,239.92270780000035,239.92270780000035,239.92270780000035,239.92270780000035,239.92270780000035,239.92270780000035,239.92270780000035,239.92270780000035,002,P004,2025_Jan_18_1338,ConditionRich,2021.2.3,59.950456942447865,
208.0,211.75,12,0.75,Stimuli/P004/sun_bcboctumoxwpdefl.jpg,0,0,0.0,0,89,89,89,,,,,,,,,,,,,208.01521390000198,0.015213900001981528,5,1.9598893000002136,240.15624480000042,240.15624480000042,240.15624480000042,240.15624480000042,240.15624480000042,240.15624480000042,240.15624480000042,240.15624480000042,240.15624480000042,240.15624480000042,002,P004,2025_Jan_18_1338,ConditionRich,2021.2.3,59.950456942447865,
211.75,212.0,41,0.0,Stimuli/Blank.png,0,0,0.0,0,90,90,90,,,,,,,,,,,,,211.75192940000125,0.0019294000012450852,None,,243.89287760000298,243.89287760000298,243.89287760000298,243.89287760000298,243.89287760000298,243.89287760000298,243.89287760000298,243.89287760000298,243.89287760000298,243.89287760000298,002,P004,2025_Jan_18_1338,ConditionRich,2021.2.3,59.950456942447865,
212.0,215.75,27,0.75,Stimuli/P004/things_llama_02s.jpg,0,0,0.0,0,91,91,91,,,,,,,,,,,,,212.00219540000035,0.002195400000346126,5,1.9565369999982067,244.1597830999999,244.1597830999999,244.1597830999999,244.1597830999999,244.1597830999999,244.1597830999999,244.1597830999999,244.1597830999999,244.1597830999999,244.1597830999999,002,P004,2025_Jan_18_1338,ConditionRich,2021.2.3,59.950456942447865,
215.75,216.0,41,0.0,Stimuli/Blank.png,0,0,0.0,0,92,92,92,,,,,,,,,,,,,215.77234619999945,0.02234619999944698,None,,247.9130643000026,247.9130643000026,247.9130643000026,247.9130643000026,247.9130643000026,247.9130643000026,247.9130643000026,247.9130643000026,247.9130643000026,247.9130643000026,002,P004,2025_Jan_18_1338,ConditionRich,2021.2.3,59.950456942447865,
216.0,219.75,25,0.75,Stimuli/P004/things_girl_02s.jpg,1,3,3.75,0,93,93,93,,,,,,,,,,,,,216.0050865000012,0.0050865000011981465,4,3.4224646000002394,248.1466072000003,248.1466072000003,248.1466072000003,248.1466072000003,248.1466072000003,248.1466072000003,251.1325695000014,251.88327100000242,248.1466072000003,248.1466072000003,002,P004,2025_Jan_18_1338,ConditionRich,2021.2.3,59.950456942447865,
219.75,220.0,41,0.0,Stimuli/Blank.png,0,0,0.0,0,94,94,94,,,,,,,,,,,,,219.75984830000016,0.009848300000157906,5,0.216148700001213,251.89991830000145,251.89991830000145,251.89991830000145,251.89991830000145,251.89991830000145,251.89991830000145,251.89991830000145,251.89991830000145,251.89991830000145,251.89991830000145,002,P004,2025_Jan_18_1338,ConditionRich,2021.2.3,59.950456942447865,
220.0,223.75,9,0.75,Stimuli/P004/sun_auqtrqkaobyprnjy.jpg,0,0,0.0,0,95,95,95,,,,,,,,,,,,,220.0094054000001,0.009405400000105146,5,1.9493194999995467,252.16681560000143,252.16681560000143,252.16681560000143,252.16681560000143,252.16681560000143,252.16681560000143,252.16681560000143,252.16681560000143,252.16681560000143,252.16681560000143,002,P004,2025_Jan_18_1338,ConditionRich,2021.2.3,59.950456942447865,
223.75,224.0,41,0.0,Stimuli/Blank.png,0,0,0.0,0,96,96,96,,,,,,,,,,,,,223.7790829000005,0.029082900000503287,5,0.19601089999923715,255.92011380000258,255.92011380000258,255.92011380000258,255.92011380000258,255.92011380000258,255.92011380000258,255.92011380000258,255.92011380000258,255.92011380000258,255.92011380000258,002,P004,2025_Jan_18_1338,ConditionRich,2021.2.3,59.950456942447865,
224.0,227.75,32,0.75,Stimuli/P004/things_pulley_02s.jpg,0,0,0.0,0,97,97,97,,,,,,,,,,,,,224.0126154000027,0.012615400002687238,5,1.9624220999976387,256.1536507000019,256.1536507000019,256.1536507000019,256.1536507000019,256.1536507000019,256.1536507000019,256.1536507000019,256.1536507000019,256.1536507000019,256.1536507000019,002,P004,2025_Jan_18_1338,ConditionRich,2021.2.3,59.950456942447865,
227.75,228.0,41,0.0,Stimuli/Blank.png,0,0,0.0,0,98,98,98,,,,,,,,,,,,,227.7515381000012,0.0015381000011984725,5,0.209193900001992,259.90697640000144,259.90697640000144,259.90697640000144,259.90697640000144,259.90697640000144,259.90697640000144,259.90697640000144,259.90697640000144,259.90697640000144,259.90697640000144,002,P004,2025_Jan_18_1338,ConditionRich,2021.2.3,59.950456942447865,
228.0,231.75,2,0.75,Stimuli/P004/sun_afijjzyziczoqdhz.jpg,1,0,0.75,0,99,99,99,,,,,,,,,,,,,228.01588760000232,0.015887600002315594,5,1.9589758999973128,260.1571772000025,260.1571772000025,260.1571772000025,260.1571772000025,260.1571772000025,260.1571772000025,260.1571772000025,260.891176000001,260.1571772000025,260.1571772000025,002,P004,2025_Jan_18_1338,ConditionRich,2021.2.3,59.950456942447865,
231.75,232.0,41,0.0,Stimuli/Blank.png,0,0,0.0,0,100,100,100,,,,,,,,,,,,,231.75269789999948,0.0026978999994753394,None,,263.8938020000023,263.8938020000023,263.8938020000023,263.8938020000023,263.8938020000023,263.8938020000023,263.8938020000023,263.8938020000023,263.8938020000023,263.8938020000023,002,P004,2025_Jan_18_1338,ConditionRich,2021.2.3,59.950456942447865,
232.0,235.75,11,0.75,Stimuli/P004/sun_bawmjlzsuuivqjhi.jpg,1,0,0.75,0,101,101,101,,,,,,,,,,,,,232.00315469999987,0.0031546999998681713,5,1.955524199998763,264.16072630000053,264.16072630000053,264.16072630000053,264.16072630000053,264.16072630000053,264.16072630000053,264.16072630000053,264.87799430000086,264.16072630000053,264.16072630000053,002,P004,2025_Jan_18_1338,ConditionRich,2021.2.3,59.950456942447865,
235.75,236.0,41,0.0,Stimuli/Blank.png,0,0,0.0,0,102,102,102,,,,,,,,,,,,,235.77275930000178,0.022759300001780502,None,,267.9140174000022,267.9140174000022,267.9140174000022,267.9140174000022,267.9140174000022,267.9140174000022,267.9140174000022,267.9140174000022,267.9140174000022,267.9140174000022,002,P004,2025_Jan_18_1338,ConditionRich,2021.2.3,59.950456942447865,
236.0,239.75,29,0.75,Stimuli/P004/things_mat_02s.jpg,0,0,0.0,0,103,103,103,,,,,,,,,,,,,236.00622280000243,0.00622280000243336,5,1.9684606999981042,268.14755380000133,268.14755380000133,268.14755380000133,268.14755380000133,268.14755380000133,268.14755380000133,268.14755380000133,268.14755380000133,268.14755380000133,268.14755380000133,002,P004,2025_Jan_18_1338,ConditionRich,2021.2.3,59.950456942447865,
239.75,240.0,41,0.0,Stimuli/Blank.png,0,0,0.0,0,104,104,104,,,,,,,,,,,,,239.76176690000284,0.011766900002839975,5,0.19842229999994743,271.91752970000016,271.91752970000016,271.91752970000016,271.91752970000016,271.91752970000016,271.91752970000016,271.91752970000016,271.91752970000016,271.91752970000016,271.91752970000016,002,P004,2025_Jan_18_1338,ConditionRich,2021.2.3,59.950456942447865,
240.0,243.75,4,0.75,Stimuli/P004/sun_albtqdieqkajejrg.jpg,0,0,0.0,0,105,105,105,,,,,,,,,,,,,240.02697110000008,0.026971100000082515,5,1.9316065999992134,272.1844486000009,272.1844486000009,272.1844486000009,272.1844486000009,272.1844486000009,272.1844486000009,272.1844486000009,272.1844486000009,272.1844486000009,272.1844486000009,002,P004,2025_Jan_18_1338,ConditionRich,2021.2.3,59.950456942447865,
243.75,244.0,41,0.0,Stimuli/Blank.png,0,0,0.0,0,106,106,106,,,,,,,,,,,,,243.7807845999996,0.030784599999606144,5,0.19498980000207666,275.9210619000005,275.9210619000005,275.9210619000005,275.9210619000005,275.9210619000005,275.9210619000005,275.9210619000005,275.9210619000005,275.9210619000005,275.9210619000005,002,P004,2025_Jan_18_1338,ConditionRich,2021.2.3,59.950456942447865,
244.0,247.75,35,0.75,Stimuli/P004/things_satellite_dish_02s.jpg,1,2,2.75,0,107,107,107,,,,,,,,,,,,,244.01368709999952,0.01368709999951534,4,2.335753700001078,276.1712774000007,276.1712774000007,276.1712774000007,276.1712774000007,276.1712774000007,276.1712774000007,278.1397083000011,278.8903683999997,276.1712774000007,276.1712774000007,002,P004,2025_Jan_18_1338,ConditionRich,2021.2.3,59.950456942447865,
247.75,248.0,41,0.0,Stimuli/Blank.png,0,0,0.0,0,108,108,108,,,,,,,,,,,,,247.76738280000063,0.017382800000632415,None,,279.907903000003,279.907903000003,279.907903000003,279.907903000003,279.907903000003,279.907903000003,279.907903000003,279.907903000003,279.907903000003,279.907903000003,002,P004,2025_Jan_18_1338,ConditionRich,2021.2.3,59.950456942447865,
248.0,251.75,33,0.75,Stimuli/P004/things_recorder_02s.jpg,0,0,0.0,0,109,109,109,,,,,,,,,,,,,248.00003570000263,3.5700002626981586e-05,5,1.9753539000012097,280.1414175000027,280.1414175000027,280.1414175000027,280.1414175000027,280.1414175000027,280.1414175000027,280.1414175000027,280.1414175000027,280.1414175000027,280.1414175000027,002,P004,2025_Jan_18_1338,ConditionRich,2021.2.3,59.950456942447865,
251.75,252.0,41,0.0,Stimuli/Blank.png,0,0,0.0,0,110,110,110,,,,,,,,,,,,,251.75399560000005,0.003995600000052946,None,,283.89473460000227,283.89473460000227,283.89473460000227,283.89473460000227,283.89473460000227,283.89473460000227,283.89473460000227,283.89473460000227,283.89473460000227,283.89473460000227,002,P004,2025_Jan_18_1338,ConditionRich,2021.2.3,59.950456942447865,
252.0,255.75,22,0.75,Stimuli/P004/things_boy_02s.jpg,1,1,1.75,0,111,111,111,,,,,,,,,,,,,252.00611840000056,0.006118400000559632,5,1.954313500002172,284.1616439000027,284.1616439000027,284.1616439000027,284.1616439000027,284.1616439000027,284.1616439000027,285.14586170000257,285.8964825000003,284.1616439000027,284.1616439000027,002,P004,2025_Jan_18_1338,ConditionRich,2021.2.3,59.950456942447865,
255.75,256.0,41,0.0,Stimuli/Blank.png,0,0,0.0,0,112,112,112,,,,,,,,,,,,,255.77381550000064,0.023815500000637257,5,0.20096689999991213,287.9150068000017,287.9150068000017,287.9150068000017,287.9150068000017,287.9150068000017,287.9150068000017,287.9150068000017,287.9150068000017,287.9150068000017,287.9150068000017,002,P004,2025_Jan_18_1338,ConditionRich,2021.2.3,59.950456942447865,
256.0,259.75,40,0.75,Stimuli/P004/things_woman_02s.jpg,0,0,0.0,0,113,113,113,,,,,,,,,,,,,256.00722120000137,0.0072212000013678335,5,1.9673949999996694,288.1484890000029,288.1484890000029,288.1484890000029,288.1484890000029,288.1484890000029,288.1484890000029,288.1484890000029,288.1484890000029,288.1484890000029,288.1484890000029,002,P004,2025_Jan_18_1338,ConditionRich,2021.2.3,59.950456942447865,
259.75,260.0,41,0.0,Stimuli/Blank.png,0,0,0.0,0,114,114,114,,,,,,,,,,,,,259.7617113000015,0.011711300001479685,5,0.21418379999886383,291.90179210000133,291.90179210000133,291.90179210000133,291.90179210000133,291.90179210000133,291.90179210000133,291.90179210000133,291.90179210000133,291.90179210000133,291.90179210000133,002,P004,2025_Jan_18_1338,ConditionRich,2021.2.3,59.950456942447865,
260.0,263.75,6,0.75,Stimuli/P004/sun_aoumkoxfhlaobjef.jpg,0,0,0.0,0,115,115,115,,,,,,,,,,,,,260.0110915000005,0.011091500000475207,5,1.947141600001487,292.16882760000226,292.16882760000226,292.16882760000226,292.16882760000226,292.16882760000226,292.16882760000226,292.16882760000226,292.16882760000226,292.16882760000226,292.16882760000226,002,P004,2025_Jan_18_1338,ConditionRich,2021.2.3,59.950456942447865,
263.75,264.0,41,0.0,Stimuli/Blank.png,0,0,0.0,0,116,116,116,,,,,,,,,,,,,263.7806158000021,0.03061580000212416,5,0.1938626999981352,295.9219957999994,295.9219957999994,295.9219957999994,295.9219957999994,295.9219957999994,295.9219957999994,295.9219957999994,295.9219957999994,295.9219957999994,295.9219957999994,002,P004,2025_Jan_18_1338,ConditionRich,2021.2.3,59.950456942447865,
264.0,267.75,38,0.75,Stimuli/P004/things_slug_02s.jpg,0,0,0.0,0,117,117,117,,,,,,,,,,,,,264.01414400000067,0.014144000000669621,5,1.9603306999997585,296.15552780000144,296.15552780000144,296.15552780000144,296.15552780000144,296.15552780000144,296.15552780000144,296.15552780000144,296.15552780000144,296.15552780000144,296.15552780000144,002,P004,2025_Jan_18_1338,ConditionRich,2021.2.3,59.950456942447865,
267.75,268.0,41,0.0,Stimuli/Blank.png,0,0,0.0,0,118,118,118,,,,,,,,,,,,,267.7507724999996,0.0007724999995843973,None,,299.8921513000023,299.8921513000023,299.8921513000023,299.8921513000023,299.8921513000023,299.8921513000023,299.8921513000023,299.8921513000023,299.8921513000023,299.8921513000023,002,P004,2025_Jan_18_1338,ConditionRich,2021.2.3,59.950456942447865,
268.0,271.75,23,0.75,Stimuli/P004/things_butterfly_02s.jpg,0,0,0.0,0,119,119,119,,,,,,,,,,,,,268.0016601999996,0.0016601999996055383,5,1.956812099997478,300.1590630000028,300.1590630000028,300.1590630000028,300.1590630000028,300.1590630000028,300.1590630000028,300.1590630000028,300.1590630000028,300.1590630000028,300.1590630000028,002,P004,2025_Jan_18_1338,ConditionRich,2021.2.3,59.950456942447865,
271.75,272.0,41,0.0,Stimuli/Blank.png,0,0,0.0,0,120,120,120,,,,,,,,,,,,,271.77178020000065,0.02178020000064862,None,,303.91236180000124,303.91236180000124,303.91236180000124,303.91236180000124,303.91236180000124,303.91236180000124,303.91236180000124,303.91236180000124,303.91236180000124,303.91236180000124,002,P004,2025_Jan_18_1338,ConditionRich,2021.2.3,59.950456942447865,
272.0,275.75,34,0.75,Stimuli/P004/things_roll_02s.jpg,0,0,0.0,0,121,121,121,,,,,,,,,,,,,272.0062304000021,0.006230400002095848,5,1.9535443999993731,304.1625711000015,304.1625711000015,304.1625711000015,304.1625711000015,304.1625711000015,304.1625711000015,304.1625711000015,304.1625711000015,304.1625711000015,304.1625711000015,002,P004,2025_Jan_18_1338,ConditionRich,2021.2.3,59.950456942447865,
275.75,276.0,41,0.0,Stimuli/Blank.png,0,0,0.0,0,122,122,122,,,,,,,,,,,,,275.77477089999957,0.02477089999956661,5,0.1999787999993714,307.9159185999997,307.9159185999997,307.9159185999997,307.9159185999997,307.9159185999997,307.9159185999997,307.9159185999997,307.9159185999997,307.9159185999997,307.9159185999997,002,P004,2025_Jan_18_1338,ConditionRich,2021.2.3,59.950456942447865,
276.0,292.0,0,0.0,Stimuli/Blank.png,1,11,11.75,0,123,123,123,,,,,,,,,,,,,276.0082674000005,0.00826740000047721,5,13.966590900003212,308.14941120000003,308.14941120000003,308.14941120000003,308.14941120000003,308.14941120000003,308.14941120000003,319.12575500000094,319.8764262000004,308.14941120000003,308.14941120000003,002,P004,2025_Jan_18_1338,ConditionRich,2021.2.3,59.950456942447865,
292.0,295.75,17,0.75,Stimuli/P004/sun_bojovhhraxtgafcy.jpg,0,0,0.0,0,124,124,124,,,,,,,,,,,,,292.00587970000197,0.005879700001969468,5,1.9689891999987594,324.14682320000065,324.14682320000065,324.14682320000065,324.14682320000065,324.14682320000065,324.14682320000065,324.14682320000065,324.14682320000065,324.14682320000065,324.14682320000065,002,P004,2025_Jan_18_1338,ConditionRich,2021.2.3,59.950456942447865,
295.75,296.0,41,0.0,Stimuli/Blank.png,0,0,0.0,0,125,125,125,,,,,,,,,,,,,295.7614495000016,0.011449500001617707,5,0.19901089999984833,327.91681900000185,327.91681900000185,327.91681900000185,327.91681900000185,327.91681900000185,327.91681900000185,327.91681900000185,327.91681900000185,327.91681900000185,327.91681900000185,002,P004,2025_Jan_18_1338,ConditionRich,2021.2.3,59.950456942447865,
296.0,299.75,10,0.75,Stimuli/P004/sun_azzneunxibjvypza.jpg,1,3,3.75,0,126,126,126,,,,,,,,,,,,,296.02614000000176,0.0261400000017602,4,3.40375579999818,328.1670460999994,328.1670460999994,328.1670460999994,328.1670460999994,328.1670460999994,328.1670460999994,331.1529950000004,None,328.1670460999994,328.1670460999994,002,P004,2025_Jan_18_1338,ConditionRich,2021.2.3,59.950456942447865,
299.75,300.0,41,0.0,Stimuli/Blank.png,0,0,0.0,0,127,127,127,,,,,,,,,,,,,299.76256430000285,0.01256430000285036,5,0.21219240000209538,331.9036911000003,331.9036911000003,331.9036911000003,331.9036911000003,331.9036911000003,331.9036911000003,331.9036911000003,331.9036911000003,331.9036911000003,331.9036911000003,002,P004,2025_Jan_18_1338,ConditionRich,2021.2.3,59.950456942447865,
300.0,303.75,26,0.75,Stimuli/P004/things_ham_02s.jpg,0,0,0.0,0,128,128,128,,,,,,,,,,,,,300.01318750000064,0.013187500000640284,5,1.9451908000010008,332.1705753999995,332.1705753999995,332.1705753999995,332.1705753999995,332.1705753999995,332.1705753999995,332.1705753999995,332.1705753999995,332.1705753999995,332.1705753999995,002,P004,2025_Jan_18_1338,ConditionRich,2021.2.3,59.950456942447865,
303.75,304.0,41,0.0,Stimuli/Blank.png,0,0,0.0,0,129,129,129,,,,,,,,,,,,,303.76566620000085,0.01566620000085095,None,,335.9072001000022,335.9072001000022,335.9072001000022,335.9072001000022,335.9072001000022,335.9072001000022,335.9072001000022,335.9072001000022,335.9072001000022,335.9072001000022,002,P004,2025_Jan_18_1338,ConditionRich,2021.2.3,59.950456942447865,
304.0,307.75,30,0.75,Stimuli/P004/things_music_box_02s.jpg,1,3,3.75,0,130,130,130,,,,,,,,,,,,,304.00147410000136,0.001474100001360057,4,3.3554022000025725,336.15740189999997,336.15740189999997,336.15740189999997,336.15740189999997,336.15740189999997,336.15740189999997,339.1433480000014,339.8940107000017,336.15740189999997,336.15740189999997,002,P004,2025_Jan_18_1338,ConditionRich,2021.2.3,59.950456942447865,
307.75,308.0,41,0.0,Stimuli/Blank.png,0,0,0.0,0,131,131,131,,,,,,,,,,,,,307.7717236999997,0.021723699999711243,5,0.18832609999662964,339.927388600001,339.927388600001,339.927388600001,339.927388600001,339.927388600001,339.927388600001,339.927388600001,339.927388600001,339.927388600001,339.927388600001,002,P004,2025_Jan_18_1338,ConditionRich,2021.2.3,59.950456942447865,
308.0,311.75,18,0.75,Stimuli/P004/sun_bplhnzkztpigweny.jpg,0,0,0.0,0,132,132,132,,,,,,,,,,,,,308.02169920000233,0.021699200002331054,5,1.9383801000003587,340.1776086000027,340.1776086000027,340.1776086000027,340.1776086000027,340.1776086000027,340.1776086000027,340.1776086000027,340.1776086000027,340.1776086000027,340.1776086000027,002,P004,2025_Jan_18_1338,ConditionRich,2021.2.3,59.950456942447865,
311.75,312.0,41,0.0,Stimuli/Blank.png,0,0,0.0,0,133,133,133,,,,,,,,,,,,,311.7730224000006,0.023022400000627385,5,0.2017374999995809,343.91423550000036,343.91423550000036,343.91423550000036,343.91423550000036,343.91423550000036,343.91423550000036,343.91423550000036,343.91423550000036,343.91423550000036,343.91423550000036,002,P004,2025_Jan_18_1338,ConditionRich,2021.2.3,59.950456942447865,
312.0,315.75,5,0.75,Stimuli/P004/sun_amnnxdwfjbdfumns.jpg,0,0,0.0,0,134,134,134,,,,,,,,,,,,,312.00687350000226,0.00687350000225706,5,1.9512828000006266,344.16447640000115,344.16447640000115,344.16447640000115,344.16447640000115,344.16447640000115,344.16447640000115,344.16447640000115,344.16447640000115,344.16447640000115,344.16447640000115,002,P004,2025_Jan_18_1338,ConditionRich,2021.2.3,59.950456942447865,
315.75,316.0,41,0.0,Stimuli/Blank.png,0,0,0.0,0,135,135,135,,,,,,,,,,,,,315.7768333000022,0.026833300002181204,5,0.1979250000003958,347.9177598999995,347.9177598999995,347.9177598999995,347.9177598999995,347.9177598999995,347.9177598999995,347.9177598999995,347.9177598999995,347.9177598999995,347.9177598999995,002,P004,2025_Jan_18_1338,ConditionRich,2021.2.3,59.950456942447865,
316.0,319.75,13,0.75,Stimuli/P004/sun_bhbiqbqmwrowrqpd.jpg,0,0,0.0,0,136,136,136,,,,,,,,,,,,,316.0121362000027,0.012136200002714759,5,1.9476582999996026,348.16796850000173,348.16796850000173,348.16796850000173,348.16796850000173,348.16796850000173,348.16796850000173,348.16796850000173,348.16796850000173,348.16796850000173,348.16796850000173,002,P004,2025_Jan_18_1338,ConditionRich,2021.2.3,59.950456942447865,
319.75,320.0,41,0.0,Stimuli/Blank.png,0,0,0.0,0,137,137,137,,,,,,,,,,,,,319.78170570000293,0.031705700002930826,5,0.17772830000103568,351.9379270999998,351.9379270999998,351.9379270999998,351.9379270999998,351.9379270999998,351.9379270999998,351.9379270999998,351.9379270999998,351.9379270999998,351.9379270999998,002,P004,2025_Jan_18_1338,ConditionRich,2021.2.3,59.950456942447865,
320.0,323.75,21,0.75,Stimuli/P004/things_baby_02s.jpg,1,3,3.75,0,138,138,138,,,,,,,,,,,,,320.03057960000297,0.03057960000296589,4,3.5485402999984217,352.1881652000011,352.1881652000011,352.1881652000011,352.1881652000011,352.1881652000011,352.1881652000011,355.1574503000011,None,352.1881652000011,352.1881652000011,002,P004,2025_Jan_18_1338,ConditionRich,2021.2.3,59.950456942447865,
323.75,324.0,41,0.0,Stimuli/Blank.png,0,0,0.0,0,139,139,139,,,,,,,,,,,,,323.76674249999996,0.01674249999996391,None,,355.9083060000012,355.9083060000012,355.9083060000012,355.9083060000012,355.9083060000012,355.9083060000012,355.9083060000012,355.9083060000012,355.9083060000012,355.9083060000012,002,P004,2025_Jan_18_1338,ConditionRich,2021.2.3,59.950456942447865,
324.0,327.75,28,0.75,Stimuli/P004/things_man_02s.jpg,1,1,1.75,0,140,140,140,,,,,,,,,,,,,324.00148510000145,0.0014851000014459714,5,1.9572607000009157,356.158352800001,356.158352800001,356.158352800001,356.158352800001,356.158352800001,356.158352800001,357.1258775999995,357.8765053999996,356.158352800001,356.158352800001,002,P004,2025_Jan_18_1338,ConditionRich,2021.2.3,59.950456942447865,
327.75,328.0,41,0.0,Stimuli/Blank.png,0,0,0.0,0,141,141,141,,,,,,,,,,,,,327.77098620000106,0.02098620000106166,None,,359.91163380000216,359.91163380000216,359.91163380000216,359.91163380000216,359.91163380000216,359.91163380000216,359.91163380000216,359.91163380000216,359.91163380000216,359.91163380000216,002,P004,2025_Jan_18_1338,ConditionRich,2021.2.3,59.950456942447865,
328.0,331.75,16,0.75,Stimuli/P004/sun_bjuoemgleyaogrmw.jpg,0,0,0.0,0,142,142,142,,,,,,,,,,,,,328.0062340000004,0.006234000000404194,5,1.953859500001272,360.1618601000009,360.1618601000009,360.1618601000009,360.1618601000009,360.1618601000009,360.1618601000009,360.1618601000009,360.1618601000009,360.1618601000009,360.1618601000009,002,P004,2025_Jan_18_1338,ConditionRich,2021.2.3,59.950456942447865,
331.75,332.0,41,0.0,Stimuli/Blank.png,0,0,0.0,0,143,143,143,,,,,,,,,,,,,331.77640579999934,0.026405799999338342,5,0.18382090000159224,363.9318440999996,363.9318440999996,363.9318440999996,363.9318440999996,363.9318440999996,363.9318440999996,363.9318440999996,363.9318440999996,363.9318440999996,363.9318440999996,002,P004,2025_Jan_18_1338,ConditionRich,2021.2.3,59.950456942447865,
332.0,335.75,36,0.75,Stimuli/P004/things_sea_urchin_02s.jpg,0,0,0.0,0,144,144,144,,,,,,,,,,,,,332.02442900000096,0.02442900000096415,5,1.9502791999984765,364.16537869999956,364.16537869999956,364.16537869999956,364.16537869999956,364.16537869999956,364.16537869999956,364.16537869999956,364.16537869999956,364.16537869999956,364.16537869999956,002,P004,2025_Jan_18_1338,ConditionRich,2021.2.3,59.950456942447865,
335.75,336.0,41,0.0,Stimuli/Blank.png,0,0,0.0,0,145,145,145,,,,,,,,,,,,,335.7618887000026,0.011888700002600672,5,0.2136370000007446,367.90200900000127,367.90200900000127,367.90200900000127,367.90200900000127,367.90200900000127,367.90200900000127,367.90200900000127,367.90200900000127,367.90200900000127,367.90200900000127,002,P004,2025_Jan_18_1338,ConditionRich,2021.2.3,59.950456942447865,
336.0,339.75,19,0.75,Stimuli/P004/sun_bucebxfexknakpma.jpg,0,0,0.0,0,146,146,146,,,,,,,,,,,,,336.0106240999994,0.01062409999940428,5,1.9634059999989404,368.152220400003,368.152220400003,368.152220400003,368.152220400003,368.152220400003,368.152220400003,368.152220400003,368.152220400003,368.152220400003,368.152220400003,002,P004,2025_Jan_18_1338,ConditionRich,2021.2.3,59.950456942447865,
339.75,340.0,41,0.0,Stimuli/Blank.png,0,0,0.0,0,147,147,147,,,,,,,,,,,,,339.76473590000023,0.014735900000232505,5,0.21011210000142455,371.9055217000023,371.9055217000023,371.9055217000023,371.9055217000023,371.9055217000023,371.9055217000023,371.9055217000023,371.9055217000023,371.9055217000023,371.9055217000023,002,P004,2025_Jan_18_1338,ConditionRich,2021.2.3,59.950456942447865,
340.0,343.75,15,0.75,Stimuli/P004/sun_bjhtdevvocmwtavk.jpg,0,0,0.0,0,148,148,148,,,,,,,,,,,,,340.0157094000024,0.01570940000237897,5,1.9431982999994943,372.1724198000011,372.1724198000011,372.1724198000011,372.1724198000011,372.1724198000011,372.1724198000011,372.1724198000011,372.1724198000011,372.1724198000011,372.1724198000011,002,P004,2025_Jan_18_1338,ConditionRich,2021.2.3,59.950456942447865,
343.75,344.0,41,0.0,Stimuli/Blank.png,0,0,0.0,0,149,149,149,,,,,,,,,,,,,343.7681295000002,0.01812950000021374,None,,375.90905190000194,375.90905190000194,375.90905190000194,375.90905190000194,375.90905190000194,375.90905190000194,375.90905190000194,375.90905190000194,375.90905190000194,375.90905190000194,002,P004,2025_Jan_18_1338,ConditionRich,2021.2.3,59.950456942447865,
344.0,347.75,24,0.75,Stimuli/P004/things_dumpling_02s.jpg,0,0,0.0,0,150,150,150,,,,,,,,,,,,,344.00165449999986,0.0016544999998586718,5,1.9730473999989044,376.142584600002,376.142584600002,376.142584600002,376.142584600002,376.142584600002,376.142584600002,376.142584600002,376.142584600002,376.142584600002,376.142584600002,002,P004,2025_Jan_18_1338,ConditionRich,2021.2.3,59.950456942447865,
347.75,348.0,41,0.0,Stimuli/Blank.png,0,0,0.0,0,151,151,151,,,,,,,,,,,,,347.75459350000165,0.004593500001647044,None,,379.89589350000097,379.89589350000097,379.89589350000097,379.89589350000097,379.89589350000097,379.89589350000097,379.89589350000097,379.89589350000097,379.89589350000097,379.89589350000097,002,P004,2025_Jan_18_1338,ConditionRich,2021.2.3,59.950456942447865,
348.0,351.75,1,0.75,Stimuli/P004/sun_adgmtzznutwlescq.jpg,0,0,0.0,0,152,152,152,,,,,,,,,,,,,348.00683220000064,0.0068322000006446615,5,1.9528398000002198,380.1627985000014,380.1627985000014,380.1627985000014,380.1627985000014,380.1627985000014,380.1627985000014,380.1627985000014,380.1627985000014,380.1627985000014,380.1627985000014,002,P004,2025_Jan_18_1338,ConditionRich,2021.2.3,59.950456942447865,
351.75,352.0,41,0.0,Stimuli/Blank.png,0,0,0.0,0,153,153,153,,,,,,,,,,,,,351.7770331000029,0.027033100002881838,5,0.182853399997839,383.9327871000023,383.9327871000023,383.9327871000023,383.9327871000023,383.9327871000023,383.9327871000023,383.9327871000023,383.9327871000023,383.9327871000023,383.9327871000023,002,P004,2025_Jan_18_1338,ConditionRich,2021.2.3,59.950456942447865,
352.0,355.75,31,0.75,Stimuli/P004/things_pea_02s.jpg,0,0,0.0,0,154,154,154,,,,,,,,,,,,,352.0261000999999,0.026100099999894155,5,1.9325405999989016,384.183001100002,384.183001100002,384.183001100002,384.183001100002,384.183001100002,384.183001100002,384.183001100002,384.183001100002,384.183001100002,384.183001100002,002,P004,2025_Jan_18_1338,ConditionRich,2021.2.3,59.950456942447865,
355.75,356.0,41,0.0,Stimuli/Blank.png,0,0,0.0,0,155,155,155,,,,,,,,,,,,,355.77817720000166,0.02817720000166446,5,0.19601890000194544,387.91963469999973,387.91963469999973,387.91963469999973,387.91963469999973,387.91963469999973,387.91963469999973,387.91963469999973,387.91963469999973,387.91963469999973,387.91963469999973,002,P004,2025_Jan_18_1338,ConditionRich,2021.2.3,59.950456942447865,
356.0,359.75,37,0.75,Stimuli/P004/things_ski_lift_02s.jpg,0,0,0.0,0,156,156,156,,,,,,,,,,,,,356.01203570000143,0.012035700001433725,5,1.9624148000002606,388.15316000000166,388.15316000000166,388.15316000000166,388.15316000000166,388.15316000000166,388.15316000000166,388.15316000000166,388.15316000000166,388.15316000000166,388.15316000000166,002,P004,2025_Jan_18_1338,ConditionRich,2021.2.3,59.950456942447865,
359.75,360.0,41,0.0,Stimuli/Blank.png,0,0,0.0,0,157,157,157,,,,,,,,,,,,,359.7657059000012,0.015705900001194095,None,,391.90646710000146,391.90646710000146,391.90646710000146,391.90646710000146,391.90646710000146,391.90646710000146,391.90646710000146,391.90646710000146,391.90646710000146,391.90646710000146,002,P004,2025_Jan_18_1338,ConditionRich,2021.2.3,59.950456942447865,
360.0,363.75,7,0.75,Stimuli/P004/sun_asgixjtedklbawgm.jpg,0,0,0.0,0,158,158,158,,,,,,,,,,,,,360.00079200000255,0.0007920000025478657,5,1.9586103000001458,392.1569023000011,392.1569023000011,392.1569023000011,392.1569023000011,392.1569023000011,392.1569023000011,392.1569023000011,392.1569023000011,392.1569023000011,392.1569023000011,002,P004,2025_Jan_18_1338,ConditionRich,2021.2.3,59.950456942447865,
363.75,364.0,41,0.0,Stimuli/Blank.png,0,0,0.0,0,159,159,159,,,,,,,,,,,,,363.7686481000019,0.018648100001882995,None,,395.9099900000001,395.9099900000001,395.9099900000001,395.9099900000001,395.9099900000001,395.9099900000001,395.9099900000001,395.9099900000001,395.9099900000001,395.9099900000001,002,P004,2025_Jan_18_1338,ConditionRich,2021.2.3,59.950456942447865,
364.0,367.75,20,0.75,Stimuli/P004/sun_bwytihadgigwkyht.jpg,0,0,0.0,0,160,160,160,,,,,,,,,,,,,364.00206040000194,0.0020604000019375235,5,1.9722521000003326,396.1435242000007,396.1435242000007,396.1435242000007,396.1435242000007,396.1435242000007,396.1435242000007,396.1435242000007,396.1435242000007,396.1435242000007,396.1435242000007,002,P004,2025_Jan_18_1338,ConditionRich,2021.2.3,59.950456942447865,
367.75,368.0,41,0.0,Stimuli/Blank.png,0,0,0.0,0,161,161,161,,,,,,,,,,,,,367.75661070000206,0.0066107000020565465,5,0.2187000000012631,399.89683570000125,399.89683570000125,399.89683570000125,399.89683570000125,399.89683570000125,399.89683570000125,399.89683570000125,399.89683570000125,399.89683570000125,399.89683570000125,002,P004,2025_Jan_18_1338,ConditionRich,2021.2.3,59.950456942447865,
368.0,371.75,3,0.75,Stimuli/P004/sun_afqjzrocqhabifao.jpg,1,0,0.75,0,162,162,162,,,,,,,,,,,,,368.00546380000014,0.005463800000143237,5,1.9685103000010713,400.1470491,400.1470491,400.1470491,400.1470491,400.1470491,400.1470491,400.1470491,400.88105200000064,400.1470491,400.1470491,002,P004,2025_Jan_18_1338,ConditionRich,2021.2.3,59.950456942447865,
371.75,372.0,41,0.0,Stimuli/Blank.png,0,0,0.0,0,163,163,163,,,,,,,,,,,,,371.760915400002,0.010915400001977105,5,0.19845789999817498,403.91704010000103,403.91704010000103,403.91704010000103,403.91704010000103,403.91704010000103,403.91704010000103,403.91704010000103,403.91704010000103,403.91704010000103,403.91704010000103,002,P004,2025_Jan_18_1338,ConditionRich,2021.2.3,59.950456942447865,
372.0,388.0,0,0.0,Stimuli/Blank.png,1,12,12.75,0,164,164,164,,,,,,,,,,,,,372.026075400001,0.026075400000991067,5,13.949265600000217,404.1672526000002,404.1672526000002,404.1672526000002,404.1672526000002,404.1672526000002,404.1672526000002,416.14446099999986,416.89511010000206,404.1672526000002,404.1672526000002,002,P004,2025_Jan_18_1338,ConditionRich,2021.2.3,59.950456942447865,
