eventStartTime,eventEndTime,eventCond,imSize,imFile,responseEvent,fixRespStart,fixRespEnd,Events.thisRepN,Events.thisTrialN,Events.thisN,Events.thisIndex,Instructions.started,Instructions.stopped,participantReadyResponse.keys,participantReadyResponse.rt,participantReadyResponse.started,participantReadyResponse.stopped,startWaitforTrigger,triggerResponse.keys,triggerResponse.rt,triggerResponse.started,triggerResponse.stopped,globalTimer,actualStartTime,startTimingDiff,participantResponse.keys,participantResponse.rt,participantResponse.started,participantResponse.stopped,image.started,image.stopped,fixationOutside.started,fixationOutside.stopped,fixationResponse.started,fixationResponse.stopped,fixationInside.started,fixationInside.stopped,session,participant,date,expName,psychopyVersion,frameRate,
,,,,,,,,,,,,10.95162479999999,None,4,18.21816200000103,10.95162479999999,None,,,,,,,,,,,,,,,,,,,,,008,P004,2025_Jan_18_1437,ConditionRich,2021.2.3,59.95333232584824,
,,,,,,,,,,,,,,,,,,29.176666299998033,5,15.428143099998124,29.189649199997802,None,,,,,,,,,,,,,,,,008,P004,2025_Jan_18_1437,ConditionRich,2021.2.3,59.95333232584824,
0.0,4.0,0,0.0,Stimuli/Blank.png,0,0,0.0,0,0,0,0,,,,,,,,,,,,44.62354409999898,0.030624999999417923,0.030624999999417923,5,1.9477566999994451,44.669911400000274,None,44.669911400000274,None,44.669911400000274,None,44.669911400000274,44.669911400000274,44.669911400000274,None,008,P004,2025_Jan_18_1437,ConditionRich,2021.2.3,59.95333232584824,
4.0,7.75,28,0.75,Stimuli/P004/things_man_02s.jpg,0,0,0.0,0,1,1,1,,,,,,,,,,,,,4.00303939999867,0.0030393999986699782,5,1.960847600003035,48.657036399999924,48.657036399999924,48.657036399999924,48.657036399999924,48.657036399999924,48.657036399999924,48.657036399999924,48.657036399999924,48.657036399999924,48.657036399999924,008,P004,2025_Jan_18_1437,ConditionRich,2021.2.3,59.95333232584824,
7.75,8.0,41,0.0,Stimuli/Blank.png,0,0,0.0,0,2,2,2,,,,,,,,,,,,,7.772564800001419,0.022564800001418917,None,,52.41029509999862,52.41029509999862,52.41029509999862,52.41029509999862,52.41029509999862,52.41029509999862,52.41029509999862,52.41029509999862,52.41029509999862,52.41029509999862,008,P004,2025_Jan_18_1437,ConditionRich,2021.2.3,59.95333232584824,
8.0,11.75,6,0.75,Stimuli/P004/sun_aoumkoxfhlaobjef.jpg,0,0,0.0,0,3,3,3,,,,,,,,,,,,,8.006586100000277,0.006586100000276929,5,1.9584570000006352,52.66026829999828,52.66026829999828,52.66026829999828,52.66026829999828,52.66026829999828,52.66026829999828,52.66026829999828,52.66026829999828,52.66026829999828,52.66026829999828,008,P004,2025_Jan_18_1437,ConditionRich,2021.2.3,59.95333232584824,
11.75,12.0,41,0.0,Stimuli/Blank.png,0,0,0.0,0,4,4,4,,,,,,,,,,,,,11.776630600001226,0.026630600001226412,None,,56.41358219999893,56.41358219999893,56.41358219999893,56.41358219999893,56.41358219999893,56.41358219999893,56.41358219999893,56.41358219999893,56.41358219999893,56.41358219999893,008,P004,2025_Jan_18_1437,ConditionRich,2021.2.3,59.95333232584824,
12.0,15.75,12,0.75,Stimuli/P004/sun_bcboctumoxwpdefl.jpg,0,0,0.0,0,5,5,5,,,,,,,,,,,,,12.009893099999317,0.0098930999993172,5,1.971856600001047,56.64711399999942,56.64711399999942,56.64711399999942,56.64711399999942,56.64711399999942,56.64711399999942,56.64711399999942,56.64711399999942,56.64711399999942,56.64711399999942,008,P004,2025_Jan_18_1437,ConditionRich,2021.2.3,59.95333232584824,
15.75,16.0,41,0.0,Stimuli/Blank.png,0,0,0.0,0,6,6,6,,,,,,,,,,,,,15.763146000001143,0.013146000001142966,None,,60.40051229999881,60.40051229999881,60.40051229999881,60.40051229999881,60.40051229999881,60.40051229999881,60.40051229999881,60.40051229999881,60.40051229999881,60.40051229999881,008,P004,2025_Jan_18_1437,ConditionRich,2021.2.3,59.95333232584824,
16.0,19.75,33,0.75,Stimuli/P004/things_recorder_02s.jpg,0,0,0.0,0,7,7,7,,,,,,,,,,,,,16.01270740000109,0.012707400001090718,5,1.9514546000027622,60.667363900000055,60.667363900000055,60.667363900000055,60.667363900000055,60.667363900000055,60.667363900000055,60.667363900000055,60.667363900000055,60.667363900000055,60.667363900000055,008,P004,2025_Jan_18_1437,ConditionRich,2021.2.3,59.95333232584824,
19.75,20.0,41,0.0,Stimuli/Blank.png,0,0,0.0,0,8,8,8,,,,,,,,,,,,,19.766426000001957,0.01642600000195671,None,,64.40401649999694,64.40401649999694,64.40401649999694,64.40401649999694,64.40401649999694,64.40401649999694,64.40401649999694,64.40401649999694,64.40401649999694,64.40401649999694,008,P004,2025_Jan_18_1437,ConditionRich,2021.2.3,59.95333232584824,
20.0,23.75,7,0.75,Stimuli/P004/sun_asgixjtedklbawgm.jpg,1,2,2.75,0,9,9,9,,,,,,,,,,,,,20.000418399999035,0.000418399999034591,4,2.409479099998862,64.65415749999738,64.65415749999738,64.65415749999738,64.65415749999738,64.65415749999738,64.65415749999738,66.62256219999836,67.37321220000013,64.65415749999738,64.65415749999738,008,P004,2025_Jan_18_1437,ConditionRich,2021.2.3,59.95333232584824,
23.75,24.0,41,0.0,Stimuli/Blank.png,0,0,0.0,0,10,10,10,,,,,,,,,,,,,23.77011599999969,0.020115999999688938,None,,68.40746179999769,68.40746179999769,68.40746179999769,68.40746179999769,68.40746179999769,68.40746179999769,68.40746179999769,68.40746179999769,68.40746179999769,68.40746179999769,008,P004,2025_Jan_18_1437,ConditionRich,2021.2.3,59.95333232584824,
24.0,27.75,36,0.75,Stimuli/P004/things_sea_urchin_02s.jpg,0,0,0.0,0,11,11,11,,,,,,,,,,,,,24.005619800002023,0.005619800002023112,5,1.9611483000007865,68.65768009999738,68.65768009999738,68.65768009999738,68.65768009999738,68.65768009999738,68.65768009999738,68.65768009999738,68.65768009999738,68.65768009999738,68.65768009999738,008,P004,2025_Jan_18_1437,ConditionRich,2021.2.3,59.95333232584824,
27.75,28.0,41,0.0,Stimuli/Blank.png,0,0,0.0,0,12,12,12,,,,,,,,,,,,,27.773317099999986,0.023317099999985658,None,,72.41098819999752,72.41098819999752,72.41098819999752,72.41098819999752,72.41098819999752,72.41098819999752,72.41098819999752,72.41098819999752,72.41098819999752,72.41098819999752,008,P004,2025_Jan_18_1437,ConditionRich,2021.2.3,59.95333232584824,
28.0,31.75,39,0.75,Stimuli/P004/things_toad_02s.jpg,0,0,0.0,0,13,13,13,,,,,,,,,,,,,28.006789499999286,0.006789499999285908,5,1.9577195000019856,72.66120799999771,72.66120799999771,72.66120799999771,72.66120799999771,72.66120799999771,72.66120799999771,72.66120799999771,72.66120799999771,72.66120799999771,72.66120799999771,008,P004,2025_Jan_18_1437,ConditionRich,2021.2.3,59.95333232584824,
31.75,32.0,41,0.0,Stimuli/Blank.png,0,0,0.0,0,14,14,14,,,,,,,,,,,,,31.776911900000414,0.02691190000041388,None,,76.41450479999912,76.41450479999912,76.41450479999912,76.41450479999912,76.41450479999912,76.41450479999912,76.41450479999912,76.41450479999912,76.41450479999912,76.41450479999912,008,P004,2025_Jan_18_1437,ConditionRich,2021.2.3,59.95333232584824,
32.0,35.75,21,0.75,Stimuli/P004/things_baby_02s.jpg,1,2,2.75,0,15,15,15,,,,,,,,,,,,,32.010558000001765,0.010558000001765322,4,2.2947245000032126,76.64805049999995,76.64805049999995,76.64805049999995,76.64805049999995,76.64805049999995,76.64805049999995,78.63312589999987,79.383784499998,76.64805049999995,76.64805049999995,008,P004,2025_Jan_18_1437,ConditionRich,2021.2.3,59.95333232584824,
35.75,36.0,41,0.0,Stimuli/Blank.png,0,0,0.0,0,16,16,16,,,,,,,,,,,,,35.76594300000215,0.015943000002152985,5,0.20054349999918486,80.41803739999887,80.41803739999887,80.41803739999887,80.41803739999887,80.41803739999887,80.41803739999887,80.41803739999887,80.41803739999887,80.41803739999887,80.41803739999887,008,P004,2025_Jan_18_1437,ConditionRich,2021.2.3,59.95333232584824,
36.0,39.75,40,0.75,Stimuli/P004/things_woman_02s.jpg,0,0,0.0,0,17,17,17,,,,,,,,,,,,,36.014157599998725,0.014157599998725345,5,1.9671585000032792,80.65156529999877,80.65156529999877,80.65156529999877,80.65156529999877,80.65156529999877,80.65156529999877,80.65156529999877,80.65156529999877,80.65156529999877,80.65156529999877,008,P004,2025_Jan_18_1437,ConditionRich,2021.2.3,59.95333232584824,
39.75,40.0,41,0.0,Stimuli/Blank.png,0,0,0.0,0,18,18,18,,,,,,,,,,,,,39.750169099999766,0.00016909999976633117,None,,84.38819220000005,84.38819220000005,84.38819220000005,84.38819220000005,84.38819220000005,84.38819220000005,84.38819220000005,84.38819220000005,84.38819220000005,84.38819220000005,008,P004,2025_Jan_18_1437,ConditionRich,2021.2.3,59.95333232584824,
40.0,43.75,27,0.75,Stimuli/P004/things_llama_02s.jpg,0,0,0.0,0,19,19,19,,,,,,,,,,,,,40.000348000001395,0.0003480000013951212,5,1.9802073999999266,84.63841469999898,84.63841469999898,84.63841469999898,84.63841469999898,84.63841469999898,84.63841469999898,84.63841469999898,84.63841469999898,84.63841469999898,84.63841469999898,008,P004,2025_Jan_18_1437,ConditionRich,2021.2.3,59.95333232584824,
43.75,44.0,41,0.0,Stimuli/Blank.png,0,0,0.0,0,20,20,20,,,,,,,,,,,,,43.75594160000037,0.0059416000003693625,5,0.2101005999975314,88.40840979999848,88.40840979999848,88.40840979999848,88.40840979999848,88.40840979999848,88.40840979999848,88.40840979999848,88.40840979999848,88.40840979999848,88.40840979999848,008,P004,2025_Jan_18_1437,ConditionRich,2021.2.3,59.95333232584824,
44.0,47.75,14,0.75,Stimuli/P004/sun_bhhtrmwvoadbfucw.jpg,1,1,1.75,0,21,21,21,,,,,,,,,,,,,44.021292299999914,0.021292299999913666,5,1.960148999998637,88.65861829999994,88.65861829999994,88.65861829999994,88.65861829999994,88.65861829999994,88.65861829999994,89.6428238999979,90.39346799999839,88.65861829999994,88.65861829999994,008,P004,2025_Jan_18_1437,ConditionRich,2021.2.3,59.95333232584824,
47.75,48.0,41,0.0,Stimuli/Blank.png,0,0,0.0,0,22,22,22,,,,,,,,,,,,,47.75772069999948,0.00772069999948144,None,,92.39529449999827,92.39529449999827,92.39529449999827,92.39529449999827,92.39529449999827,92.39529449999827,92.39529449999827,92.39529449999827,92.39529449999827,92.39529449999827,008,P004,2025_Jan_18_1437,ConditionRich,2021.2.3,59.95333232584824,
48.0,51.75,18,0.75,Stimuli/P004/sun_bplhnzkztpigweny.jpg,0,0,0.0,0,23,23,23,,,,,,,,,,,,,48.00802040000053,0.00802040000053239,5,1.9567066999989038,92.66215829999783,92.66215829999783,92.66215829999783,92.66215829999783,92.66215829999783,92.66215829999783,92.66215829999783,92.66215829999783,92.66215829999783,92.66215829999783,008,P004,2025_Jan_18_1437,ConditionRich,2021.2.3,59.95333232584824,
51.75,52.0,41,0.0,Stimuli/Blank.png,0,0,0.0,0,24,24,24,,,,,,,,,,,,,51.777946000001975,0.027946000001975335,None,,96.41544040000008,96.41544040000008,96.41544040000008,96.41544040000008,96.41544040000008,96.41544040000008,96.41544040000008,96.41544040000008,96.41544040000008,96.41544040000008,008,P004,2025_Jan_18_1437,ConditionRich,2021.2.3,59.95333232584824,
52.0,55.75,22,0.75,Stimuli/P004/things_boy_02s.jpg,1,1,1.75,0,25,25,25,,,,,,,,,,,,,52.01114740000048,0.011147400000481866,5,1.9696349000005284,96.6489855999971,96.6489855999971,96.6489855999971,96.6489855999971,96.6489855999971,96.6489855999971,97.63311549999707,98.38383759999851,96.6489855999971,96.6489855999971,008,P004,2025_Jan_18_1437,ConditionRich,2021.2.3,59.95333232584824,
55.75,56.0,41,0.0,Stimuli/Blank.png,0,0,0.0,0,26,26,26,,,,,,,,,,,,,55.764947600000596,0.01494760000059614,5,0.2162112000005436,100.40227669999877,100.40227669999877,100.40227669999877,100.40227669999877,100.40227669999877,100.40227669999877,100.40227669999877,100.40227669999877,100.40227669999877,100.40227669999877,008,P004,2025_Jan_18_1437,ConditionRich,2021.2.3,59.95333232584824,
56.0,59.75,4,0.75,Stimuli/P004/sun_albtqdieqkajejrg.jpg,0,0,0.0,0,27,27,27,,,,,,,,,,,,,56.01525400000173,0.015254000001732493,5,1.9660690999990038,100.65250530000048,100.65250530000048,100.65250530000048,100.65250530000048,100.65250530000048,100.65250530000048,100.65250530000048,100.65250530000048,100.65250530000048,100.65250530000048,008,P004,2025_Jan_18_1437,ConditionRich,2021.2.3,59.95333232584824,
59.75,60.0,41,0.0,Stimuli/Blank.png,0,0,0.0,0,28,28,28,,,,,,,,,,,,,59.75141150000127,0.0014115000012679957,None,,104.3890982999983,104.3890982999983,104.3890982999983,104.3890982999983,104.3890982999983,104.3890982999983,104.3890982999983,104.3890982999983,104.3890982999983,104.3890982999983,008,P004,2025_Jan_18_1437,ConditionRich,2021.2.3,59.95333232584824,
60.0,63.75,25,0.75,Stimuli/P004/things_girl_02s.jpg,0,0,0.0,0,29,29,29,,,,,,,,,,,,,60.00171709999995,0.001717099999950733,5,1.97938989999966,104.63931260000027,104.63931260000027,104.63931260000027,104.63931260000027,104.63931260000027,104.63931260000027,104.63931260000027,104.63931260000027,104.63931260000027,104.63931260000027,008,P004,2025_Jan_18_1437,ConditionRich,2021.2.3,59.95333232584824,
63.75,64.0,41,0.0,Stimuli/Blank.png,0,0,0.0,0,30,30,30,,,,,,,,,,,,,63.755233300002146,0.0052333000021462794,None,,108.39265449999948,108.39265449999948,108.39265449999948,108.39265449999948,108.39265449999948,108.39265449999948,108.39265449999948,108.39265449999948,108.39265449999948,108.39265449999948,008,P004,2025_Jan_18_1437,ConditionRich,2021.2.3,59.95333232584824,
64.0,67.75,29,0.75,Stimuli/P004/things_mat_02s.jpg,0,0,0.0,0,31,31,31,,,,,,,,,,,,,64.00509880000027,0.005098800000268966,5,1.9756637000027695,108.64288669999951,108.64288669999951,108.64288669999951,108.64288669999951,108.64288669999951,108.64288669999951,108.64288669999951,108.64288669999951,108.64288669999951,108.64288669999951,008,P004,2025_Jan_18_1437,ConditionRich,2021.2.3,59.95333232584824,
67.75,68.0,41,0.0,Stimuli/Blank.png,0,0,0.0,0,32,32,32,,,,,,,,,,,,,67.75821840000208,0.008218400002078852,None,,112.3961896999972,112.3961896999972,112.3961896999972,112.3961896999972,112.3961896999972,112.3961896999972,112.3961896999972,112.3961896999972,112.3961896999972,112.3961896999972,008,P004,2025_Jan_18_1437,ConditionRich,2021.2.3,59.95333232584824,
68.0,71.75,34,0.75,Stimuli/P004/things_roll_02s.jpg,1,0,0.75,0,33,33,33,,,,,,,,,,,,,68.00847369999974,0.008473699999740347,5,1.9721893000023556,112.64640139999756,112.64640139999756,112.64640139999756,112.64640139999756,112.64640139999756,112.64640139999756,112.64640139999756,113.38042059999862,112.64640139999756,112.64640139999756,008,P004,2025_Jan_18_1437,ConditionRich,2021.2.3,59.95333232584824,
71.75,72.0,41,0.0,Stimuli/Blank.png,0,0,0.0,0,34,34,34,,,,,,,,,,,,,71.76260940000066,0.012609400000656024,None,,116.39978019999762,116.39978019999762,116.39978019999762,116.39978019999762,116.39978019999762,116.39978019999762,116.39978019999762,116.39978019999762,116.39978019999762,116.39978019999762,008,P004,2025_Jan_18_1437,ConditionRich,2021.2.3,59.95333232584824,
72.0,75.75,10,0.75,Stimuli/P004/sun_azzneunxibjvypza.jpg,0,0,0.0,0,35,35,35,,,,,,,,,,,,,72.01168179999877,0.011681799998768838,5,1.968717599997035,116.64991209999789,116.64991209999789,116.64991209999789,116.64991209999789,116.64991209999789,116.64991209999789,116.64991209999789,116.64991209999789,116.64991209999789,116.64991209999789,008,P004,2025_Jan_18_1437,ConditionRich,2021.2.3,59.95333232584824,
75.75,76.0,41,0.0,Stimuli/Blank.png,0,0,0.0,0,36,36,36,,,,,,,,,,,,,75.76589779999995,0.015897799999947893,None,,120.4032256999999,120.4032256999999,120.4032256999999,120.4032256999999,120.4032256999999,120.4032256999999,120.4032256999999,120.4032256999999,120.4032256999999,120.4032256999999,008,P004,2025_Jan_18_1437,ConditionRich,2021.2.3,59.95333232584824,
76.0,79.75,32,0.75,Stimuli/P004/things_pulley_02s.jpg,0,0,0.0,0,37,37,37,,,,,,,,,,,,,76.00080320000052,0.0008032000005187001,5,1.96496660000048,120.65343469999789,120.65343469999789,120.65343469999789,120.65343469999789,120.65343469999789,120.65343469999789,120.65343469999789,120.65343469999789,120.65343469999789,120.65343469999789,008,P004,2025_Jan_18_1437,ConditionRich,2021.2.3,59.95333232584824,
79.75,80.0,41,0.0,Stimuli/Blank.png,0,0,0.0,0,38,38,38,,,,,,,,,,,,,79.76920600000085,0.0192060000008496,None,,124.40675980000015,124.40675980000015,124.40675980000015,124.40675980000015,124.40675980000015,124.40675980000015,124.40675980000015,124.40675980000015,124.40675980000015,124.40675980000015,008,P004,2025_Jan_18_1437,ConditionRich,2021.2.3,59.95333232584824,
80.0,83.75,3,0.75,Stimuli/P004/sun_afqjzrocqhabifao.jpg,0,0,0.0,0,39,39,39,,,,,,,,,,,,,80.0026555000004,0.0026555000004009344,5,1.9783963000008953,124.64025909999691,124.64025909999691,124.64025909999691,124.64025909999691,124.64025909999691,124.64025909999691,124.64025909999691,124.64025909999691,124.64025909999691,124.64025909999691,008,P004,2025_Jan_18_1437,ConditionRich,2021.2.3,59.95333232584824,
83.75,84.0,41,0.0,Stimuli/Blank.png,0,0,0.0,0,40,40,40,,,,,,,,,,,,,83.75651490000018,0.006514900000183843,None,,128.39360110000052,128.39360110000052,128.39360110000052,128.39360110000052,128.39360110000052,128.39360110000052,128.39360110000052,128.39360110000052,128.39360110000052,128.39360110000052,008,P004,2025_Jan_18_1437,ConditionRich,2021.2.3,59.95333232584824,
84.0,100.0,0,0.0,Stimuli/Blank.png,1,3,3.75,0,41,41,41,,,,,,,,,,,,,84.00652669999909,0.006526699999085395,5,13.974622899997485,128.64380489999894,128.64380489999894,128.64380489999894,128.64380489999894,128.64380489999894,128.64380489999894,131.62980059999973,132.38047219999862,128.64380489999894,128.64380489999894,008,P004,2025_Jan_18_1437,ConditionRich,2021.2.3,59.95333232584824,
100.0,103.75,17,0.75,Stimuli/P004/sun_bojovhhraxtgafcy.jpg,0,0,0.0,0,42,42,42,,,,,,,,,,,,,100.0059211000007,0.005921100000705337,5,1.960622999999032,144.65787569999884,144.65787569999884,144.65787569999884,144.65787569999884,144.65787569999884,144.65787569999884,144.65787569999884,144.65787569999884,144.65787569999884,144.65787569999884,008,P004,2025_Jan_18_1437,ConditionRich,2021.2.3,59.95333232584824,
103.75,104.0,41,0.0,Stimuli/Blank.png,0,0,0.0,0,43,43,43,,,,,,,,,,,,,103.77591549999852,0.0259154999985185,5,0.19062549999944167,148.42788909999945,148.42788909999945,148.42788909999945,148.42788909999945,148.42788909999945,148.42788909999945,148.42788909999945,148.42788909999945,148.42788909999945,148.42788909999945,008,P004,2025_Jan_18_1437,ConditionRich,2021.2.3,59.95333232584824,
104.0,107.75,5,0.75,Stimuli/P004/sun_amnnxdwfjbdfumns.jpg,1,1,1.75,0,44,44,44,,,,,,,,,,,,,104.02407089999906,0.024070899999060202,5,1.9571934000014153,148.66143050000028,148.66143050000028,148.66143050000028,148.66143050000028,148.66143050000028,148.66143050000028,149.6456588000001,150.39630380000017,148.66143050000028,148.66143050000028,008,P004,2025_Jan_18_1437,ConditionRich,2021.2.3,59.95333232584824,
107.75,108.0,41,0.0,Stimuli/Blank.png,0,0,0.0,0,45,45,45,,,,,,,,,,,,,107.76020810000045,0.010208100000454579,None,,152.39804619999995,152.39804619999995,152.39804619999995,152.39804619999995,152.39804619999995,152.39804619999995,152.39804619999995,152.39804619999995,152.39804619999995,152.39804619999995,008,P004,2025_Jan_18_1437,ConditionRich,2021.2.3,59.95333232584824,
108.0,111.75,15,0.75,Stimuli/P004/sun_bjhtdevvocmwtavk.jpg,1,2,2.75,0,46,46,46,,,,,,,,,,,,,108.01027339999928,0.010273399999277899,4,2.3311436000003596,152.64838789999703,152.64838789999703,152.64838789999703,152.64838789999703,152.64838789999703,152.64838789999703,154.63334979999854,155.38404629999786,152.64838789999703,152.64838789999703,008,P004,2025_Jan_18_1437,ConditionRich,2021.2.3,59.95333232584824,
111.75,112.0,41,0.0,Stimuli/Blank.png,0,0,0.0,0,47,47,47,,,,,,,,,,,,,111.76569930000187,0.015699300001870142,5,0.20014889999947627,156.41825549999703,156.41825549999703,156.41825549999703,156.41825549999703,156.41825549999703,156.41825549999703,156.41825549999703,156.41825549999703,156.41825549999703,156.41825549999703,008,P004,2025_Jan_18_1437,ConditionRich,2021.2.3,59.95333232584824,
112.0,115.75,23,0.75,Stimuli/P004/things_butterfly_02s.jpg,0,0,0.0,0,48,48,48,,,,,,,,,,,,,112.01433990000078,0.014339900000777561,5,1.9666766000009375,156.65178729999752,156.65178729999752,156.65178729999752,156.65178729999752,156.65178729999752,156.65178729999752,156.65178729999752,156.65178729999752,156.65178729999752,156.65178729999752,008,P004,2025_Jan_18_1437,ConditionRich,2021.2.3,59.95333232584824,
115.75,116.0,41,0.0,Stimuli/Blank.png,0,0,0.0,0,49,49,49,,,,,,,,,,,,,115.7517943999992,0.0017943999991985038,None,,160.38843609999822,160.38843609999822,160.38843609999822,160.38843609999822,160.38843609999822,160.38843609999822,160.38843609999822,160.38843609999822,160.38843609999822,160.38843609999822,008,P004,2025_Jan_18_1437,ConditionRich,2021.2.3,59.95333232584824,
116.0,119.75,37,0.75,Stimuli/P004/things_ski_lift_02s.jpg,0,0,0.0,0,50,50,50,,,,,,,,,,,,,116.00088229999892,0.0008822999989206437,5,1.9797947999977623,160.63870499999757,160.63870499999757,160.63870499999757,160.63870499999757,160.63870499999757,160.63870499999757,160.63870499999757,160.63870499999757,160.63870499999757,160.63870499999757,008,P004,2025_Jan_18_1437,ConditionRich,2021.2.3,59.95333232584824,
119.75,120.0,41,0.0,Stimuli/Blank.png,0,0,0.0,0,51,51,51,,,,,,,,,,,,,119.75668280000173,0.006682800001726719,5,0.20966069999849424,164.40861839999707,164.40861839999707,164.40861839999707,164.40861839999707,164.40861839999707,164.40861839999707,164.40861839999707,164.40861839999707,164.40861839999707,164.40861839999707,008,P004,2025_Jan_18_1437,ConditionRich,2021.2.3,59.95333232584824,
120.0,123.75,24,0.75,Stimuli/P004/things_dumpling_02s.jpg,0,0,0.0,0,52,52,52,,,,,,,,,,,,,120.02097689999937,0.02097689999936847,5,1.959582399998908,164.65884729999743,164.65884729999743,164.65884729999743,164.65884729999743,164.65884729999743,164.65884729999743,164.65884729999743,164.65884729999743,164.65884729999743,164.65884729999743,008,P004,2025_Jan_18_1437,ConditionRich,2021.2.3,59.95333232584824,
123.75,124.0,41,0.0,Stimuli/Blank.png,0,0,0.0,0,53,53,53,,,,,,,,,,,,,123.7578523000011,0.007852300001104595,None,,168.3954550999988,168.3954550999988,168.3954550999988,168.3954550999988,168.3954550999988,168.3954550999988,168.3954550999988,168.3954550999988,168.3954550999988,168.3954550999988,008,P004,2025_Jan_18_1437,ConditionRich,2021.2.3,59.95333232584824,
124.0,127.75,8,0.75,Stimuli/P004/sun_asxkyzleyfgbqfrs.jpg,1,1,1.75,0,54,54,54,,,,,,,,,,,,,124.00871860000188,0.008718600001884624,5,1.9559451999994053,168.66235569999844,168.66235569999844,168.66235569999844,168.66235569999844,168.66235569999844,168.66235569999844,169.6299254000005,170.3805754999994,168.66235569999844,168.66235569999844,008,P004,2025_Jan_18_1437,ConditionRich,2021.2.3,59.95333232584824,
127.75,128.0,41,0.0,Stimuli/Blank.png,0,0,0.0,0,55,55,55,,,,,,,,,,,,,127.7786754000008,0.02867540000079316,None,,172.4156860999974,172.4156860999974,172.4156860999974,172.4156860999974,172.4156860999974,172.4156860999974,172.4156860999974,172.4156860999974,172.4156860999974,172.4156860999974,008,P004,2025_Jan_18_1437,ConditionRich,2021.2.3,59.95333232584824,
128.0,131.75,2,0.75,Stimuli/P004/sun_afijjzyziczoqdhz.jpg,0,0,0.0,0,56,56,56,,,,,,,,,,,,,128.011465399999,0.011465399998996872,5,1.9690708999987692,172.6492020000005,172.6492020000005,172.6492020000005,172.6492020000005,172.6492020000005,172.6492020000005,172.6492020000005,172.6492020000005,172.6492020000005,172.6492020000005,008,P004,2025_Jan_18_1437,ConditionRich,2021.2.3,59.95333232584824,
131.75,132.0,41,0.0,Stimuli/Blank.png,0,0,0.0,0,57,57,57,,,,,,,,,,,,,131.765078299999,0.01507829999900423,5,0.21589640000092913,176.40250530000048,176.40250530000048,176.40250530000048,176.40250530000048,176.40250530000048,176.40250530000048,176.40250530000048,176.40250530000048,176.40250530000048,176.40250530000048,008,P004,2025_Jan_18_1437,ConditionRich,2021.2.3,59.95333232584824,
132.0,135.75,30,0.75,Stimuli/P004/things_music_box_02s.jpg,0,0,0.0,0,58,58,58,,,,,,,,,,,,,132.01569580000069,0.015695800000685267,5,1.9656635999999708,176.65272829999958,176.65272829999958,176.65272829999958,176.65272829999958,176.65272829999958,176.65272829999958,176.65272829999958,176.65272829999958,176.65272829999958,176.65272829999958,008,P004,2025_Jan_18_1437,ConditionRich,2021.2.3,59.95333232584824,
135.75,136.0,41,0.0,Stimuli/Blank.png,0,0,0.0,0,59,59,59,,,,,,,,,,,,,135.75114480000047,0.0011448000004747882,None,,180.38934949999748,180.38934949999748,180.38934949999748,180.38934949999748,180.38934949999748,180.38934949999748,180.38934949999748,180.38934949999748,180.38934949999748,180.38934949999748,008,P004,2025_Jan_18_1437,ConditionRich,2021.2.3,59.95333232584824,
136.0,139.75,16,0.75,Stimuli/P004/sun_bjuoemgleyaogrmw.jpg,0,0,0.0,0,60,60,60,,,,,,,,,,,,,136.00172999999995,0.0017299999999522697,5,1.9787273000001733,180.63956739999776,180.63956739999776,180.63956739999776,180.63956739999776,180.63956739999776,180.63956739999776,180.63956739999776,180.63956739999776,180.63956739999776,180.63956739999776,008,P004,2025_Jan_18_1437,ConditionRich,2021.2.3,59.95333232584824,
139.75,140.0,41,0.0,Stimuli/Blank.png,0,0,0.0,0,61,61,61,,,,,,,,,,,,,139.7553614999997,0.00536149999970803,None,,184.39287639999748,184.39287639999748,184.39287639999748,184.39287639999748,184.39287639999748,184.39287639999748,184.39287639999748,184.39287639999748,184.39287639999748,184.39287639999748,008,P004,2025_Jan_18_1437,ConditionRich,2021.2.3,59.95333232584824,
140.0,143.75,9,0.75,Stimuli/P004/sun_auqtrqkaobyprnjy.jpg,0,0,0.0,0,62,62,62,,,,,,,,,,,,,140.0062853999989,0.006285399998887442,5,1.9585222999994585,184.65977349999957,184.65977349999957,184.65977349999957,184.65977349999957,184.65977349999957,184.65977349999957,184.65977349999957,184.65977349999957,184.65977349999957,184.65977349999957,008,P004,2025_Jan_18_1437,ConditionRich,2021.2.3,59.95333232584824,
143.75,144.0,41,0.0,Stimuli/Blank.png,0,0,0.0,0,63,63,63,,,,,,,,,,,,,143.77635980000196,0.02635980000195559,5,0.1884533000011288,188.4297321999984,188.4297321999984,188.4297321999984,188.4297321999984,188.4297321999984,188.4297321999984,188.4297321999984,188.4297321999984,188.4297321999984,188.4297321999984,008,P004,2025_Jan_18_1437,ConditionRich,2021.2.3,59.95333232584824,
144.0,147.75,1,0.75,Stimuli/P004/sun_adgmtzznutwlescq.jpg,1,2,2.75,0,64,64,64,,,,,,,,,,,,,144.02576350000163,0.025763500001630746,4,2.8799819000014395,188.66329699999915,188.66329699999915,188.66329699999915,188.66329699999915,188.66329699999915,188.66329699999915,190.64838489999966,191.3990773000005,188.66329699999915,188.66329699999915,008,P004,2025_Jan_18_1437,ConditionRich,2021.2.3,59.95333232584824,
147.75,148.0,41,0.0,Stimuli/Blank.png,0,0,0.0,0,65,65,65,,,,,,,,,,,,,147.76210849999916,0.012108499999158084,None,,192.39995409999756,192.39995409999756,192.39995409999756,192.39995409999756,192.39995409999756,192.39995409999756,192.39995409999756,192.39995409999756,192.39995409999756,192.39995409999756,008,P004,2025_Jan_18_1437,ConditionRich,2021.2.3,59.95333232584824,
148.0,151.75,35,0.75,Stimuli/P004/things_satellite_dish_02s.jpg,0,0,0.0,0,66,66,66,,,,,,,,,,,,,148.01225619999968,0.012256199999683304,5,1.951521100003447,192.66682759999821,192.66682759999821,192.66682759999821,192.66682759999821,192.66682759999821,192.66682759999821,192.66682759999821,192.66682759999821,192.66682759999821,192.66682759999821,008,P004,2025_Jan_18_1437,ConditionRich,2021.2.3,59.95333232584824,
151.75,152.0,41,0.0,Stimuli/Blank.png,0,0,0.0,0,67,67,67,,,,,,,,,,,,,151.78284229999917,0.03284229999917443,None,,196.42019879999862,196.42019879999862,196.42019879999862,196.42019879999862,196.42019879999862,196.42019879999862,196.42019879999862,196.42019879999862,196.42019879999862,196.42019879999862,008,P004,2025_Jan_18_1437,ConditionRich,2021.2.3,59.95333232584824,
152.0,155.75,38,0.75,Stimuli/P004/things_slug_02s.jpg,0,0,0.0,0,68,68,68,,,,,,,,,,,,,151.99966290000157,-0.00033709999843267724,5,1.981254700000136,196.63698459999796,196.63698459999796,196.63698459999796,196.63698459999796,196.63698459999796,196.63698459999796,196.63698459999796,196.63698459999796,196.63698459999796,196.63698459999796,008,P004,2025_Jan_18_1437,ConditionRich,2021.2.3,59.95333232584824,
155.75,156.0,41,0.0,Stimuli/Blank.png,0,0,0.0,0,69,69,69,,,,,,,,,,,,,155.75305619999926,0.0030561999992642086,None,,200.39030429999912,200.39030429999912,200.39030429999912,200.39030429999912,200.39030429999912,200.39030429999912,200.39030429999912,200.39030429999912,200.39030429999912,200.39030429999912,008,P004,2025_Jan_18_1437,ConditionRich,2021.2.3,59.95333232584824,
156.0,159.75,26,0.75,Stimuli/P004/things_ham_02s.jpg,0,0,0.0,0,70,70,70,,,,,,,,,,,,,156.00276590000067,0.002765900000667898,5,1.9612137000003713,200.65717809999842,200.65717809999842,200.65717809999842,200.65717809999842,200.65717809999842,200.65717809999842,200.65717809999842,200.65717809999842,200.65717809999842,200.65717809999842,008,P004,2025_Jan_18_1437,ConditionRich,2021.2.3,59.95333232584824,
159.75,160.0,41,0.0,Stimuli/Blank.png,0,0,0.0,0,71,71,71,,,,,,,,,,,,,159.77255969999896,0.02255969999896479,None,,204.41049059999932,204.41049059999932,204.41049059999932,204.41049059999932,204.41049059999932,204.41049059999932,204.41049059999932,204.41049059999932,204.41049059999932,204.41049059999932,008,P004,2025_Jan_18_1437,ConditionRich,2021.2.3,59.95333232584824,
160.0,163.75,13,0.75,Stimuli/P004/sun_bhbiqbqmwrowrqpd.jpg,0,0,0.0,0,72,72,72,,,,,,,,,,,,,160.00606630000038,0.006066300000384217,5,1.9744258999999147,204.6440350999983,204.6440350999983,204.6440350999983,204.6440350999983,204.6440350999983,204.6440350999983,204.6440350999983,204.6440350999983,204.6440350999983,204.6440350999983,008,P004,2025_Jan_18_1437,ConditionRich,2021.2.3,59.95333232584824,
163.75,164.0,41,0.0,Stimuli/Blank.png,0,0,0.0,0,73,73,73,,,,,,,,,,,,,163.7596291000009,0.009629100000893231,None,,208.39734029999818,208.39734029999818,208.39734029999818,208.39734029999818,208.39734029999818,208.39734029999818,208.39734029999818,208.39734029999818,208.39734029999818,208.39734029999818,008,P004,2025_Jan_18_1437,ConditionRich,2021.2.3,59.95333232584824,
164.0,167.75,31,0.75,Stimuli/P004/things_pea_02s.jpg,0,0,0.0,0,74,74,74,,,,,,,,,,,,,164.01074449999942,0.010744499999418622,5,1.953868099997635,208.66422690000036,208.66422690000036,208.66422690000036,208.66422690000036,208.66422690000036,208.66422690000036,208.66422690000036,208.66422690000036,208.66422690000036,208.66422690000036,008,P004,2025_Jan_18_1437,ConditionRich,2021.2.3,59.95333232584824,
167.75,168.0,41,0.0,Stimuli/Blank.png,0,0,0.0,0,75,75,75,,,,,,,,,,,,,167.78079359999901,0.030793599999014987,5,0.2005643999982567,212.41754219999711,212.41754219999711,212.41754219999711,212.41754219999711,212.41754219999711,212.41754219999711,212.41754219999711,212.41754219999711,212.41754219999711,212.41754219999711,008,P004,2025_Jan_18_1437,ConditionRich,2021.2.3,59.95333232584824,
168.0,171.75,20,0.75,Stimuli/P004/sun_bwytihadgigwkyht.jpg,0,0,0.0,0,76,76,76,,,,,,,,,,,,,168.01410150000083,0.014101500000833767,5,1.9505056000016339,212.66775419999976,212.66775419999976,212.66775419999976,212.66775419999976,212.66775419999976,212.66775419999976,212.66775419999976,212.66775419999976,212.66775419999976,212.66775419999976,008,P004,2025_Jan_18_1437,ConditionRich,2021.2.3,59.95333232584824,
171.75,172.0,41,0.0,Stimuli/Blank.png,0,0,0.0,0,77,77,77,,,,,,,,,,,,,171.76649700000053,0.016497000000526896,None,,216.40437419999944,216.40437419999944,216.40437419999944,216.40437419999944,216.40437419999944,216.40437419999944,216.40437419999944,216.40437419999944,216.40437419999944,216.40437419999944,008,P004,2025_Jan_18_1437,ConditionRich,2021.2.3,59.95333232584824,
172.0,175.75,11,0.75,Stimuli/P004/sun_bawmjlzsuuivqjhi.jpg,1,1,1.75,0,78,78,78,,,,,,,,,,,,,172.0010035000014,0.001003500001388602,5,1.9634725000032631,216.65462109999862,216.65462109999862,216.65462109999862,216.65462109999862,216.65462109999862,216.65462109999862,217.6221141999995,218.3727770000005,216.65462109999862,216.65462109999862,008,P004,2025_Jan_18_1437,ConditionRich,2021.2.3,59.95333232584824,
175.75,176.0,41,0.0,Stimuli/Blank.png,0,0,0.0,0,79,79,79,,,,,,,,,,,,,175.7707847999991,0.020784799999091774,None,,220.4079079999974,220.4079079999974,220.4079079999974,220.4079079999974,220.4079079999974,220.4079079999974,220.4079079999974,220.4079079999974,220.4079079999974,220.4079079999974,008,P004,2025_Jan_18_1437,ConditionRich,2021.2.3,59.95333232584824,
176.0,179.75,19,0.75,Stimuli/P004/sun_bucebxfexknakpma.jpg,0,0,0.0,0,80,80,80,,,,,,,,,,,,,176.00544639999862,0.00544639999861829,5,1.9601308000019344,220.65814019999743,220.65814019999743,220.65814019999743,220.65814019999743,220.65814019999743,220.65814019999743,220.65814019999743,220.65814019999743,220.65814019999743,220.65814019999743,008,P004,2025_Jan_18_1437,ConditionRich,2021.2.3,59.95333232584824,
179.75,180.0,41,0.0,Stimuli/Blank.png,0,0,0.0,0,81,81,81,,,,,,,,,,,,,179.77602870000192,0.02602870000191615,5,0.19002959999852465,224.42812059999778,224.42812059999778,224.42812059999778,224.42812059999778,224.42812059999778,224.42812059999778,224.42812059999778,224.42812059999778,224.42812059999778,224.42812059999778,008,P004,2025_Jan_18_1437,ConditionRich,2021.2.3,59.95333232584824,
180.0,196.0,0,0.0,Stimuli/Blank.png,1,13,13.75,0,82,82,82,,,,,,,,,,,,,180.02633309999874,0.026333099998737453,5,15.939876300002652,224.67835410000043,224.67835410000043,224.67835410000043,224.67835410000043,224.67835410000043,224.67835410000043,237.6564428999991,238.40707900000052,224.67835410000043,224.67835410000043,008,P004,2025_Jan_18_1437,ConditionRich,2021.2.3,59.95333232584824,
196.0,199.75,32,0.75,Stimuli/P004/things_pulley_02s.jpg,0,0,0.0,0,83,83,83,,,,,,,,,,,,,196.02104719999988,0.02104719999988447,5,1.9590552000008756,240.65906030000042,240.65906030000042,240.65906030000042,240.65906030000042,240.65906030000042,240.65906030000042,240.65906030000042,240.65906030000042,240.65906030000042,240.65906030000042,008,P004,2025_Jan_18_1437,ConditionRich,2021.2.3,59.95333232584824,
199.75,200.0,41,0.0,Stimuli/Blank.png,0,0,0.0,0,84,84,84,,,,,,,,,,,,,199.75745800000004,0.007458000000042375,None,,244.3956948999985,244.3956948999985,244.3956948999985,244.3956948999985,244.3956948999985,244.3956948999985,244.3956948999985,244.3956948999985,244.3956948999985,244.3956948999985,008,P004,2025_Jan_18_1437,ConditionRich,2021.2.3,59.95333232584824,
200.0,203.75,21,0.75,Stimuli/P004/things_baby_02s.jpg,0,0,0.0,0,85,85,85,,,,,,,,,,,,,200.0085997999995,0.008599799999501556,5,1.9724357000013697,244.64590209999733,244.64590209999733,244.64590209999733,244.64590209999733,244.64590209999733,244.64590209999733,244.64590209999733,244.64590209999733,244.64590209999733,244.64590209999733,008,P004,2025_Jan_18_1437,ConditionRich,2021.2.3,59.95333232584824,
203.75,204.0,41,0.0,Stimuli/Blank.png,0,0,0.0,0,86,86,86,,,,,,,,,,,,,203.76139070000136,0.01139070000135689,None,,248.39920319999874,248.39920319999874,248.39920319999874,248.39920319999874,248.39920319999874,248.39920319999874,248.39920319999874,248.39920319999874,248.39920319999874,248.39920319999874,008,P004,2025_Jan_18_1437,ConditionRich,2021.2.3,59.95333232584824,
204.0,207.75,4,0.75,Stimuli/P004/sun_albtqdieqkajejrg.jpg,0,0,0.0,0,87,87,87,,,,,,,,,,,,,204.01165570000012,0.011655700000119396,5,1.9686681999992288,248.6494246000002,248.6494246000002,248.6494246000002,248.6494246000002,248.6494246000002,248.6494246000002,248.6494246000002,248.6494246000002,248.6494246000002,248.6494246000002,008,P004,2025_Jan_18_1437,ConditionRich,2021.2.3,59.95333232584824,
207.75,208.0,41,0.0,Stimuli/Blank.png,0,0,0.0,0,88,88,88,,,,,,,,,,,,,207.76578000000154,0.01578000000154134,None,,252.4027332000005,252.4027332000005,252.4027332000005,252.4027332000005,252.4027332000005,252.4027332000005,252.4027332000005,252.4027332000005,252.4027332000005,252.4027332000005,008,P004,2025_Jan_18_1437,ConditionRich,2021.2.3,59.95333232584824,
208.0,211.75,23,0.75,Stimuli/P004/things_butterfly_02s.jpg,0,0,0.0,0,89,89,89,,,,,,,,,,,,,207.99881580000147,-0.001184199998533586,5,1.9817430000002787,252.6362638999999,252.6362638999999,252.6362638999999,252.6362638999999,252.6362638999999,252.6362638999999,252.6362638999999,252.6362638999999,252.6362638999999,252.6362638999999,008,P004,2025_Jan_18_1437,ConditionRich,2021.2.3,59.95333232584824,
211.75,212.0,41,0.0,Stimuli/Blank.png,0,0,0.0,0,90,90,90,,,,,,,,,,,,,211.75179779999962,0.0017977999996219296,None,,256.38956619999954,256.38956619999954,256.38956619999954,256.38956619999954,256.38956619999954,256.38956619999954,256.38956619999954,256.38956619999954,256.38956619999954,256.38956619999954,008,P004,2025_Jan_18_1437,ConditionRich,2021.2.3,59.95333232584824,
212.0,215.75,35,0.75,Stimuli/P004/things_satellite_dish_02s.jpg,0,0,0.0,0,91,91,91,,,,,,,,,,,,,212.0021330999989,0.002133099998900434,5,1.9782169999998587,256.63978700000007,256.63978700000007,256.63978700000007,256.63978700000007,256.63978700000007,256.63978700000007,256.63978700000007,256.63978700000007,256.63978700000007,256.63978700000007,008,P004,2025_Jan_18_1437,ConditionRich,2021.2.3,59.95333232584824,
215.75,216.0,41,0.0,Stimuli/Blank.png,0,0,0.0,0,92,92,92,,,,,,,,,,,,,215.75643950000085,0.0064395000008516945,5,0.2082464000013715,260.40981199999806,260.40981199999806,260.40981199999806,260.40981199999806,260.40981199999806,260.40981199999806,260.40981199999806,260.40981199999806,260.40981199999806,260.40981199999806,008,P004,2025_Jan_18_1437,ConditionRich,2021.2.3,59.95333232584824,
216.0,219.75,2,0.75,Stimuli/P004/sun_afijjzyziczoqdhz.jpg,0,0,0.0,0,93,93,93,,,,,,,,,,,,,216.02263030000177,0.022630300001765136,5,1.9415802000003168,260.6766785999971,260.6766785999971,260.6766785999971,260.6766785999971,260.6766785999971,260.6766785999971,260.6766785999971,260.6766785999971,260.6766785999971,260.6766785999971,008,P004,2025_Jan_18_1437,ConditionRich,2021.2.3,59.95333232584824,
219.75,220.0,41,0.0,Stimuli/Blank.png,0,0,0.0,0,94,94,94,,,,,,,,,,,,,219.7759150999991,0.02591509999911068,5,0.18792559999928926,264.42999939999936,264.42999939999936,264.42999939999936,264.42999939999936,264.42999939999936,264.42999939999936,264.42999939999936,264.42999939999936,264.42999939999936,264.42999939999936,008,P004,2025_Jan_18_1437,ConditionRich,2021.2.3,59.95333232584824,
220.0,223.75,17,0.75,Stimuli/P004/sun_bojovhhraxtgafcy.jpg,0,0,0.0,0,95,95,95,,,,,,,,,,,,,220.0262713000011,0.026271300001099007,5,1.954481599997962,264.66352509999706,264.66352509999706,264.66352509999706,264.66352509999706,264.66352509999706,264.66352509999706,264.66352509999706,264.66352509999706,264.66352509999706,264.66352509999706,008,P004,2025_Jan_18_1437,ConditionRich,2021.2.3,59.95333232584824,
223.75,224.0,41,0.0,Stimuli/Blank.png,0,0,0.0,0,96,96,96,,,,,,,,,,,,,223.76500250000026,0.015002500000264263,5,0.20112169999993057,268.4168609999979,268.4168609999979,268.4168609999979,268.4168609999979,268.4168609999979,268.4168609999979,268.4168609999979,268.4168609999979,268.4168609999979,268.4168609999979,008,P004,2025_Jan_18_1437,ConditionRich,2021.2.3,59.95333232584824,
224.0,227.75,28,0.75,Stimuli/P004/things_man_02s.jpg,0,0,0.0,0,97,97,97,,,,,,,,,,,,,224.02930860000197,0.029308600001968443,5,1.9510288999990735,268.6670406999983,268.6670406999983,268.6670406999983,268.6670406999983,268.6670406999983,268.6670406999983,268.6670406999983,268.6670406999983,268.6670406999983,268.6670406999983,008,P004,2025_Jan_18_1437,ConditionRich,2021.2.3,59.95333232584824,
227.75,228.0,41,0.0,Stimuli/Blank.png,0,0,0.0,0,98,98,98,,,,,,,,,,,,,227.74929390000034,-0.0007060999996610917,None,,272.3869878999976,272.3869878999976,272.3869878999976,272.3869878999976,272.3869878999976,272.3869878999976,272.3869878999976,272.3869878999976,272.3869878999976,272.3869878999976,008,P004,2025_Jan_18_1437,ConditionRich,2021.2.3,59.95333232584824,
228.0,231.75,36,0.75,Stimuli/P004/things_sea_urchin_02s.jpg,0,0,0.0,0,99,99,99,,,,,,,,,,,,,227.9998145999998,-0.00018540000019129366,5,1.9807552999991458,272.6372001999989,272.6372001999989,272.6372001999989,272.6372001999989,272.6372001999989,272.6372001999989,272.6372001999989,272.6372001999989,272.6372001999989,272.6372001999989,008,P004,2025_Jan_18_1437,ConditionRich,2021.2.3,59.95333232584824,
231.75,232.0,41,0.0,Stimuli/Blank.png,0,0,0.0,0,100,100,100,,,,,,,,,,,,,231.75248949999877,0.002489499998773681,None,,276.39057259999754,276.39057259999754,276.39057259999754,276.39057259999754,276.39057259999754,276.39057259999754,276.39057259999754,276.39057259999754,276.39057259999754,276.39057259999754,008,P004,2025_Jan_18_1437,ConditionRich,2021.2.3,59.95333232584824,
232.0,235.75,31,0.75,Stimuli/P004/things_pea_02s.jpg,0,0,0.0,0,101,101,101,,,,,,,,,,,,,232.0048807000021,0.004880700002104277,5,1.9605236999996123,276.65742789999786,276.65742789999786,276.65742789999786,276.65742789999786,276.65742789999786,276.65742789999786,276.65742789999786,276.65742789999786,276.65742789999786,276.65742789999786,008,P004,2025_Jan_18_1437,ConditionRich,2021.2.3,59.95333232584824,
235.75,236.0,41,0.0,Stimuli/Blank.png,0,0,0.0,0,102,102,102,,,,,,,,,,,,,235.77504599999884,0.025045999998837942,5,0.19055630000002566,280.4274058999981,280.4274058999981,280.4274058999981,280.4274058999981,280.4274058999981,280.4274058999981,280.4274058999981,280.4274058999981,280.4274058999981,280.4274058999981,008,P004,2025_Jan_18_1437,ConditionRich,2021.2.3,59.95333232584824,
236.0,239.75,11,0.75,Stimuli/P004/sun_bawmjlzsuuivqjhi.jpg,1,1,1.75,0,103,103,103,,,,,,,,,,,,,236.02507920000062,0.025079200000618584,5,1.9415509999998903,280.6776224999994,280.6776224999994,280.6776224999994,280.6776224999994,280.6776224999994,280.6776224999994,281.6618133999982,282.4124687000003,280.6776224999994,280.6776224999994,008,P004,2025_Jan_18_1437,ConditionRich,2021.2.3,59.95333232584824,
239.75,240.0,41,0.0,Stimuli/Blank.png,0,0,0.0,0,104,104,104,,,,,,,,,,,,,239.7772088999991,0.027208899999095593,None,,284.414302899997,284.414302899997,284.414302899997,284.414302899997,284.414302899997,284.414302899997,284.414302899997,284.414302899997,284.414302899997,284.414302899997,008,P004,2025_Jan_18_1437,ConditionRich,2021.2.3,59.95333232584824,
240.0,243.75,6,0.75,Stimuli/P004/sun_aoumkoxfhlaobjef.jpg,1,1,1.75,0,105,105,105,,,,,,,,,,,,,240.01038060000064,0.010380600000644336,5,1.9701741999997466,284.6477741999988,284.6477741999988,284.6477741999988,284.6477741999988,284.6477741999988,284.6477741999988,285.6319678999971,286.38263259999803,284.6477741999988,284.6477741999988,008,P004,2025_Jan_18_1437,ConditionRich,2021.2.3,59.95333232584824,
243.75,244.0,41,0.0,Stimuli/Blank.png,0,0,0.0,0,106,106,106,,,,,,,,,,,,,243.76365950000036,0.013659500000358094,5,0.2178636999997252,288.40108659999896,288.40108659999896,288.40108659999896,288.40108659999896,288.40108659999896,288.40108659999896,288.40108659999896,288.40108659999896,288.40108659999896,288.40108659999896,008,P004,2025_Jan_18_1437,ConditionRich,2021.2.3,59.95333232584824,
244.0,247.75,10,0.75,Stimuli/P004/sun_azzneunxibjvypza.jpg,0,0,0.0,0,107,107,107,,,,,,,,,,,,,244.01610770000116,0.016107700001157355,5,1.951013600002625,288.66798259999996,288.66798259999996,288.66798259999996,288.66798259999996,288.66798259999996,288.66798259999996,288.66798259999996,288.66798259999996,288.66798259999996,288.66798259999996,008,P004,2025_Jan_18_1437,ConditionRich,2021.2.3,59.95333232584824,
247.75,248.0,41,0.0,Stimuli/Blank.png,0,0,0.0,0,108,108,108,,,,,,,,,,,,,247.7673274000008,0.017327400000795024,None,,292.4045965999976,292.4045965999976,292.4045965999976,292.4045965999976,292.4045965999976,292.4045965999976,292.4045965999976,292.4045965999976,292.4045965999976,292.4045965999976,008,P004,2025_Jan_18_1437,ConditionRich,2021.2.3,59.95333232584824,
248.0,251.75,19,0.75,Stimuli/P004/sun_bucebxfexknakpma.jpg,0,0,0.0,0,109,109,109,,,,,,,,,,,,,248.00053520000074,0.0005352000007405877,5,1.980693200002861,292.63814459999776,292.63814459999776,292.63814459999776,292.63814459999776,292.63814459999776,292.63814459999776,292.63814459999776,292.63814459999776,292.63814459999776,292.63814459999776,008,P004,2025_Jan_18_1437,ConditionRich,2021.2.3,59.95333232584824,
251.75,252.0,41,0.0,Stimuli/Blank.png,0,0,0.0,0,110,110,110,,,,,,,,,,,,,251.7537224000007,0.0037224000006972346,None,,296.3914442999994,296.3914442999994,296.3914442999994,296.3914442999994,296.3914442999994,296.3914442999994,296.3914442999994,296.3914442999994,296.3914442999994,296.3914442999994,008,P004,2025_Jan_18_1437,ConditionRich,2021.2.3,59.95333232584824,
252.0,255.75,9,0.75,Stimuli/P004/sun_auqtrqkaobyprnjy.jpg,1,0,0.75,0,111,111,111,,,,,,,,,,,,,252.00441580000188,0.004415800001879688,5,1.9772990999990725,296.64166209999894,296.64166209999894,296.64166209999894,296.64166209999894,296.64166209999894,296.64166209999894,296.64166209999894,297.37569090000034,296.64166209999894,296.64166209999894,008,P004,2025_Jan_18_1437,ConditionRich,2021.2.3,59.95333232584824,
255.75,256.0,41,0.0,Stimuli/Blank.png,0,0,0.0,0,112,112,112,,,,,,,,,,,,,255.75732010000138,0.007320100001379615,None,,300.39501670000027,300.39501670000027,300.39501670000027,300.39501670000027,300.39501670000027,300.39501670000027,300.39501670000027,300.39501670000027,300.39501670000027,300.39501670000027,008,P004,2025_Jan_18_1437,ConditionRich,2021.2.3,59.95333232584824,
256.0,259.75,1,0.75,Stimuli/P004/sun_adgmtzznutwlescq.jpg,0,0,0.0,0,113,113,113,,,,,,,,,,,,,256.0098566000015,0.009856600001512561,5,1.9570061999984318,300.66187009999703,300.66187009999703,300.66187009999703,300.66187009999703,300.66187009999703,300.66187009999703,300.66187009999703,300.66187009999703,300.66187009999703,300.66187009999703,008,P004,2025_Jan_18_1437,ConditionRich,2021.2.3,59.95333232584824,
259.75,260.0,41,0.0,Stimuli/Blank.png,0,0,0.0,0,114,114,114,,,,,,,,,,,,,259.7773981999999,0.02739819999987958,None,,304.41520089999904,304.41520089999904,304.41520089999904,304.41520089999904,304.41520089999904,304.41520089999904,304.41520089999904,304.41520089999904,304.41520089999904,304.41520089999904,008,P004,2025_Jan_18_1437,ConditionRich,2021.2.3,59.95333232584824,
260.0,263.75,34,0.75,Stimuli/P004/things_roll_02s.jpg,0,0,0.0,0,115,115,115,,,,,,,,,,,,,260.01069070000085,0.010690700000850484,None,,304.648718299999,304.648718299999,304.648718299999,304.648718299999,304.648718299999,304.648718299999,304.648718299999,304.648718299999,304.648718299999,304.648718299999,008,P004,2025_Jan_18_1437,ConditionRich,2021.2.3,59.95333232584824,
263.75,264.0,41,0.0,Stimuli/Blank.png,0,0,0.0,0,116,116,116,,,,,,,,,,,,,263.7652491000008,0.015249100000801263,5,0.21720389999973122,308.4020266999978,308.4020266999978,308.4020266999978,308.4020266999978,308.4020266999978,308.4020266999978,308.4020266999978,308.4020266999978,308.4020266999978,308.4020266999978,008,P004,2025_Jan_18_1437,ConditionRich,2021.2.3,59.95333232584824,
264.0,267.75,24,0.75,Stimuli/P004/things_dumpling_02s.jpg,0,0,0.0,0,117,117,117,,,,,,,,,,,,,264.01532230000157,0.01532230000157142,5,1.949834799997916,308.6689129999977,308.6689129999977,308.6689129999977,308.6689129999977,308.6689129999977,308.6689129999977,308.6689129999977,308.6689129999977,308.6689129999977,308.6689129999977,008,P004,2025_Jan_18_1437,ConditionRich,2021.2.3,59.95333232584824,
267.75,268.0,41,0.0,Stimuli/Blank.png,0,0,0.0,0,118,118,118,,,,,,,,,,,,,267.76972060000116,0.019720600001164712,5,0.19658540000091307,312.4222539000002,312.4222539000002,312.4222539000002,312.4222539000002,312.4222539000002,312.4222539000002,312.4222539000002,312.4222539000002,312.4222539000002,312.4222539000002,008,P004,2025_Jan_18_1437,ConditionRich,2021.2.3,59.95333232584824,
268.0,271.75,20,0.75,Stimuli/P004/sun_bwytihadgigwkyht.jpg,0,0,0.0,0,119,119,119,,,,,,,,,,,,,268.02016540000113,0.020165400001133094,5,1.9465156000005663,312.67244310000024,312.67244310000024,312.67244310000024,312.67244310000024,312.67244310000024,312.67244310000024,312.67244310000024,312.67244310000024,312.67244310000024,312.67244310000024,008,P004,2025_Jan_18_1437,ConditionRich,2021.2.3,59.95333232584824,
271.75,272.0,41,0.0,Stimuli/Blank.png,0,0,0.0,0,120,120,120,,,,,,,,,,,,,271.7717775000019,0.02177750000191736,None,,316.4090720999993,316.4090720999993,316.4090720999993,316.4090720999993,316.4090720999993,316.4090720999993,316.4090720999993,316.4090720999993,316.4090720999993,316.4090720999993,008,P004,2025_Jan_18_1437,ConditionRich,2021.2.3,59.95333232584824,
272.0,275.75,25,0.75,Stimuli/P004/things_girl_02s.jpg,1,2,2.75,0,121,121,121,,,,,,,,,,,,,272.00502929999857,0.005029299998568604,4,2.426127600003383,316.6426103999984,316.6426103999984,316.6426103999984,316.6426103999984,316.6426103999984,316.6426103999984,318.62769969999863,319.3783571999993,316.6426103999984,316.6426103999984,008,P004,2025_Jan_18_1437,ConditionRich,2021.2.3,59.95333232584824,
275.75,276.0,41,0.0,Stimuli/Blank.png,0,0,0.0,0,122,122,122,,,,,,,,,,,,,275.757891199999,0.007891199998994125,None,,320.3959142999993,320.3959142999993,320.3959142999993,320.3959142999993,320.3959142999993,320.3959142999993,320.3959142999993,320.3959142999993,320.3959142999993,320.3959142999993,008,P004,2025_Jan_18_1437,ConditionRich,2021.2.3,59.95333232584824,
276.0,292.0,0,0.0,Stimuli/Blank.png,1,5,5.75,0,123,123,123,,,,,,,,,,,,,276.0082134000004,0.008213400000386173,5,13.972749500000646,320.6461487999986,320.6461487999986,320.6461487999986,320.6461487999986,320.6461487999986,320.6461487999986,325.63384679999945,326.38447769999766,320.6461487999986,320.6461487999986,008,P004,2025_Jan_18_1437,ConditionRich,2021.2.3,59.95333232584824,
292.0,295.75,40,0.75,Stimuli/P004/things_woman_02s.jpg,1,1,1.75,0,124,124,124,,,,,,,,,,,,,292.00632119999864,0.006321199998637894,4,2.1291629999977886,336.64355779999823,336.64355779999823,336.64355779999823,336.64355779999823,336.64355779999823,336.64355779999823,337.6277472999973,338.3784350999995,336.64355779999823,336.64355779999823,008,P004,2025_Jan_18_1437,ConditionRich,2021.2.3,59.95333232584824,
295.75,296.0,41,0.0,Stimuli/Blank.png,0,0,0.0,0,125,125,125,,,,,,,,,,,,,295.7592226000015,0.009222600001521641,None,,340.39684809999744,340.39684809999744,340.39684809999744,340.39684809999744,340.39684809999744,340.39684809999744,340.39684809999744,340.39684809999744,340.39684809999744,340.39684809999744,008,P004,2025_Jan_18_1437,ConditionRich,2021.2.3,59.95333232584824,
296.0,299.75,39,0.75,Stimuli/P004/things_toad_02s.jpg,0,0,0.0,0,126,126,126,,,,,,,,,,,,,296.00924809999924,0.009248099999240367,5,1.971708299999591,340.64706920000026,340.64706920000026,340.64706920000026,340.64706920000026,340.64706920000026,340.64706920000026,340.64706920000026,340.64706920000026,340.64706920000026,340.64706920000026,008,P004,2025_Jan_18_1437,ConditionRich,2021.2.3,59.95333232584824,
299.75,300.0,41,0.0,Stimuli/Blank.png,0,0,0.0,0,127,127,127,,,,,,,,,,,,,299.7651885000014,0.015188500001386274,5,0.2016354000006686,344.41707119999774,344.41707119999774,344.41707119999774,344.41707119999774,344.41707119999774,344.41707119999774,344.41707119999774,344.41707119999774,344.41707119999774,344.41707119999774,008,P004,2025_Jan_18_1437,ConditionRich,2021.2.3,59.95333232584824,
300.0,303.75,8,0.75,Stimuli/P004/sun_asxkyzleyfgbqfrs.jpg,0,0,0.0,0,128,128,128,,,,,,,,,,,,,300.03076130000045,0.03076130000044941,5,1.9348310999994283,344.6839751999978,344.6839751999978,344.6839751999978,344.6839751999978,344.6839751999978,344.6839751999978,344.6839751999978,344.6839751999978,344.6839751999978,344.6839751999978,008,P004,2025_Jan_18_1437,ConditionRich,2021.2.3,59.95333232584824,
303.75,304.0,41,0.0,Stimuli/Blank.png,0,0,0.0,0,129,129,129,,,,,,,,,,,,,303.7667603000009,0.016760300000896677,None,,348.4039025999991,348.4039025999991,348.4039025999991,348.4039025999991,348.4039025999991,348.4039025999991,348.4039025999991,348.4039025999991,348.4039025999991,348.4039025999991,008,P004,2025_Jan_18_1437,ConditionRich,2021.2.3,59.95333232584824,
304.0,307.75,27,0.75,Stimuli/P004/things_llama_02s.jpg,1,1,1.75,0,130,130,130,,,,,,,,,,,,,304.00010029999976,0.00010029999975813553,5,1.981292399999802,348.637428799997,348.637428799997,348.637428799997,348.637428799997,348.637428799997,348.637428799997,349.6216319999985,350.37229979999756,348.637428799997,348.637428799997,008,P004,2025_Jan_18_1437,ConditionRich,2021.2.3,59.95333232584824,
307.75,308.0,41,0.0,Stimuli/Blank.png,0,0,0.0,0,131,131,131,,,,,,,,,,,,,307.75478809999913,0.0047880999991321005,5,0.2112516000015603,352.4074318999992,352.4074318999992,352.4074318999992,352.4074318999992,352.4074318999992,352.4074318999992,352.4074318999992,352.4074318999992,352.4074318999992,352.4074318999992,008,P004,2025_Jan_18_1437,ConditionRich,2021.2.3,59.95333232584824,
308.0,311.75,29,0.75,Stimuli/P004/things_mat_02s.jpg,0,0,0.0,0,132,132,132,,,,,,,,,,,,,308.02016319999893,0.020163199998933123,5,1.9609884999990754,352.6576352999982,352.6576352999982,352.6576352999982,352.6576352999982,352.6576352999982,352.6576352999982,352.6576352999982,352.6576352999982,352.6576352999982,352.6576352999982,008,P004,2025_Jan_18_1437,ConditionRich,2021.2.3,59.95333232584824,
311.75,312.0,41,0.0,Stimuli/Blank.png,0,0,0.0,0,133,133,133,,,,,,,,,,,,,311.7562496999999,0.006249699999898439,None,,356.39423149999857,356.39423149999857,356.39423149999857,356.39423149999857,356.39423149999857,356.39423149999857,356.39423149999857,356.39423149999857,356.39423149999857,356.39423149999857,008,P004,2025_Jan_18_1437,ConditionRich,2021.2.3,59.95333232584824,
312.0,315.75,3,0.75,Stimuli/P004/sun_afqjzrocqhabifao.jpg,1,1,1.75,0,134,134,134,,,,,,,,,,,,,312.00667969999995,0.006679699999949662,5,1.9577511999996204,356.6611718999993,356.6611718999993,356.6611718999993,356.6611718999993,356.6611718999993,356.6611718999993,357.62872699999934,358.3793286,356.6611718999993,356.6611718999993,008,P004,2025_Jan_18_1437,ConditionRich,2021.2.3,59.95333232584824,
315.75,316.0,41,0.0,Stimuli/Blank.png,0,0,0.0,0,135,135,135,,,,,,,,,,,,,315.77715660000104,0.027156600001035258,None,,360.41446319999886,360.41446319999886,360.41446319999886,360.41446319999886,360.41446319999886,360.41446319999886,360.41446319999886,360.41446319999886,360.41446319999886,360.41446319999886,008,P004,2025_Jan_18_1437,ConditionRich,2021.2.3,59.95333232584824,
316.0,319.75,16,0.75,Stimuli/P004/sun_bjuoemgleyaogrmw.jpg,0,0,0.0,0,136,136,136,,,,,,,,,,,,,316.010347200001,0.010347200000978773,5,1.9706455999985337,360.64800059999834,360.64800059999834,360.64800059999834,360.64800059999834,360.64800059999834,360.64800059999834,360.64800059999834,360.64800059999834,360.64800059999834,360.64800059999834,008,P004,2025_Jan_18_1437,ConditionRich,2021.2.3,59.95333232584824,
319.75,320.0,41,0.0,Stimuli/Blank.png,0,0,0.0,0,137,137,137,,,,,,,,,,,,,319.7642046000001,0.01420460000008461,5,0.21737189999839757,364.40130809999755,364.40130809999755,364.40130809999755,364.40130809999755,364.40130809999755,364.40130809999755,364.40130809999755,364.40130809999755,364.40130809999755,364.40130809999755,008,P004,2025_Jan_18_1437,ConditionRich,2021.2.3,59.95333232584824,
320.0,323.75,15,0.75,Stimuli/P004/sun_bjhtdevvocmwtavk.jpg,0,0,0.0,0,138,138,138,,,,,,,,,,,,,320.01431460000094,0.014314600000943756,5,1.9504299000000174,364.6682054999983,364.6682054999983,364.6682054999983,364.6682054999983,364.6682054999983,364.6682054999983,364.6682054999983,364.6682054999983,364.6682054999983,364.6682054999983,008,P004,2025_Jan_18_1437,ConditionRich,2021.2.3,59.95333232584824,
323.75,324.0,41,0.0,Stimuli/Blank.png,0,0,0.0,0,139,139,139,,,,,,,,,,,,,323.76731440000003,0.017314400000032037,None,,368.40482789999805,368.40482789999805,368.40482789999805,368.40482789999805,368.40482789999805,368.40482789999805,368.40482789999805,368.40482789999805,368.40482789999805,368.40482789999805,008,P004,2025_Jan_18_1437,ConditionRich,2021.2.3,59.95333232584824,
324.0,327.75,13,0.75,Stimuli/P004/sun_bhbiqbqmwrowrqpd.jpg,0,0,0.0,0,140,140,140,,,,,,,,,,,,,324.00063950000185,0.0006395000018528663,5,1.980265000001964,368.63836829999855,368.63836829999855,368.63836829999855,368.63836829999855,368.63836829999855,368.63836829999855,368.63836829999855,368.63836829999855,368.63836829999855,368.63836829999855,008,P004,2025_Jan_18_1437,ConditionRich,2021.2.3,59.95333232584824,
327.75,328.0,41,0.0,Stimuli/Blank.png,0,0,0.0,0,141,141,141,,,,,,,,,,,,,327.75518999999986,0.005189999999856809,None,,372.391678699998,372.391678699998,372.391678699998,372.391678699998,372.391678699998,372.391678699998,372.391678699998,372.391678699998,372.391678699998,372.391678699998,008,P004,2025_Jan_18_1437,ConditionRich,2021.2.3,59.95333232584824,
328.0,331.75,5,0.75,Stimuli/P004/sun_amnnxdwfjbdfumns.jpg,0,0,0.0,0,142,142,142,,,,,,,,,,,,,328.0040501000003,0.00405010000031325,5,1.976634800001193,372.64189540000007,372.64189540000007,372.64189540000007,372.64189540000007,372.64189540000007,372.64189540000007,372.64189540000007,372.64189540000007,372.64189540000007,372.64189540000007,008,P004,2025_Jan_18_1437,ConditionRich,2021.2.3,59.95333232584824,
331.75,332.0,41,0.0,Stimuli/Blank.png,0,0,0.0,0,143,143,143,,,,,,,,,,,,,331.7599025000018,0.009902500001771841,5,0.20667619999949238,376.41187779999746,376.41187779999746,376.41187779999746,376.41187779999746,376.41187779999746,376.41187779999746,376.41187779999746,376.41187779999746,376.41187779999746,376.41187779999746,008,P004,2025_Jan_18_1437,ConditionRich,2021.2.3,59.95333232584824,
332.0,335.75,22,0.75,Stimuli/P004/things_boy_02s.jpg,0,0,0.0,0,144,144,144,,,,,,,,,,,,,332.02469420000125,0.024694200001249555,5,1.9567392000026302,376.662108499997,376.662108499997,376.662108499997,376.662108499997,376.662108499997,376.662108499997,376.662108499997,376.662108499997,376.662108499997,376.662108499997,008,P004,2025_Jan_18_1437,ConditionRich,2021.2.3,59.95333232584824,
335.75,336.0,41,0.0,Stimuli/Blank.png,0,0,0.0,0,145,145,145,,,,,,,,,,,,,335.7610514000007,0.011051400000724243,None,,380.39872769999783,380.39872769999783,380.39872769999783,380.39872769999783,380.39872769999783,380.39872769999783,380.39872769999783,380.39872769999783,380.39872769999783,380.39872769999783,008,P004,2025_Jan_18_1437,ConditionRich,2021.2.3,59.95333232584824,
336.0,339.75,33,0.75,Stimuli/P004/things_recorder_02s.jpg,0,0,0.0,0,146,146,146,,,,,,,,,,,,,336.011176,0.011175999999977648,5,1.9696211999980733,380.64895629999955,380.64895629999955,380.64895629999955,380.64895629999955,380.64895629999955,380.64895629999955,380.64895629999955,380.64895629999955,380.64895629999955,380.64895629999955,008,P004,2025_Jan_18_1437,ConditionRich,2021.2.3,59.95333232584824,
339.75,340.0,41,0.0,Stimuli/Blank.png,0,0,0.0,0,147,147,147,,,,,,,,,,,,,339.7644540000001,0.01445400000011432,5,0.21639560000039637,384.40224209999724,384.40224209999724,384.40224209999724,384.40224209999724,384.40224209999724,384.40224209999724,384.40224209999724,384.40224209999724,384.40224209999724,384.40224209999724,008,P004,2025_Jan_18_1437,ConditionRich,2021.2.3,59.95333232584824,
340.0,343.75,26,0.75,Stimuli/P004/things_ham_02s.jpg,0,0,0.0,0,148,148,148,,,,,,,,,,,,,340.0152624000002,0.015262400000210619,5,1.949475400000665,384.66916449999917,384.66916449999917,384.66916449999917,384.66916449999917,384.66916449999917,384.66916449999917,384.66916449999917,384.66916449999917,384.66916449999917,384.66916449999917,008,P004,2025_Jan_18_1437,ConditionRich,2021.2.3,59.95333232584824,
343.75,344.0,41,0.0,Stimuli/Blank.png,0,0,0.0,0,149,149,149,,,,,,,,,,,,,343.7708719000002,0.020871900000202004,5,0.19598390000101062,388.4225191999976,388.4225191999976,388.4225191999976,388.4225191999976,388.4225191999976,388.4225191999976,388.4225191999976,388.4225191999976,388.4225191999976,388.4225191999976,008,P004,2025_Jan_18_1437,ConditionRich,2021.2.3,59.95333232584824,
344.0,347.75,18,0.75,Stimuli/P004/sun_bplhnzkztpigweny.jpg,0,0,0.0,0,150,150,150,,,,,,,,,,,,,344.02050379999855,0.020503799998550676,5,1.9459957999970356,388.6726705999972,388.6726705999972,388.6726705999972,388.6726705999972,388.6726705999972,388.6726705999972,388.6726705999972,388.6726705999972,388.6726705999972,388.6726705999972,008,P004,2025_Jan_18_1437,ConditionRich,2021.2.3,59.95333232584824,
347.75,348.0,41,0.0,Stimuli/Blank.png,0,0,0.0,0,151,151,151,,,,,,,,,,,,,347.77183629999854,0.0218362999985402,None,,392.4092853999973,392.4092853999973,392.4092853999973,392.4092853999973,392.4092853999973,392.4092853999973,392.4092853999973,392.4092853999973,392.4092853999973,392.4092853999973,008,P004,2025_Jan_18_1437,ConditionRich,2021.2.3,59.95333232584824,
348.0,351.75,14,0.75,Stimuli/P004/sun_bhhtrmwvoadbfucw.jpg,0,0,0.0,0,152,152,152,,,,,,,,,,,,,348.00567579999915,0.0056757999991532415,5,1.9592491000003065,392.6595082999993,392.6595082999993,392.6595082999993,392.6595082999993,392.6595082999993,392.6595082999993,392.6595082999993,392.6595082999993,392.6595082999993,392.6595082999993,008,P004,2025_Jan_18_1437,ConditionRich,2021.2.3,59.95333232584824,
351.75,352.0,41,0.0,Stimuli/Blank.png,0,0,0.0,0,153,153,153,,,,,,,,,,,,,351.77610560000176,0.026105600001756102,5,0.18895970000085072,396.42951509999693,396.42951509999693,396.42951509999693,396.42951509999693,396.42951509999693,396.42951509999693,396.42951509999693,396.42951509999693,396.42951509999693,396.42951509999693,008,P004,2025_Jan_18_1437,ConditionRich,2021.2.3,59.95333232584824,
352.0,355.75,12,0.75,Stimuli/P004/sun_bcboctumoxwpdefl.jpg,0,0,0.0,0,154,154,154,,,,,,,,,,,,,352.0252722000005,0.025272200000472367,5,1.9555624999993597,396.6630288999986,396.6630288999986,396.6630288999986,396.6630288999986,396.6630288999986,396.6630288999986,396.6630288999986,396.6630288999986,396.6630288999986,396.6630288999986,008,P004,2025_Jan_18_1437,ConditionRich,2021.2.3,59.95333232584824,
355.75,356.0,41,0.0,Stimuli/Blank.png,0,0,0.0,0,155,155,155,,,,,,,,,,,,,355.76207290000093,0.012072900000930531,None,,400.3996843999994,400.3996843999994,400.3996843999994,400.3996843999994,400.3996843999994,400.3996843999994,400.3996843999994,400.3996843999994,400.3996843999994,400.3996843999994,008,P004,2025_Jan_18_1437,ConditionRich,2021.2.3,59.95333232584824,
356.0,359.75,37,0.75,Stimuli/P004/things_ski_lift_02s.jpg,1,0,0.75,0,156,156,156,,,,,,,,,,,,,356.0143449999996,0.01434499999959371,5,1.952009699998598,400.66655179999725,400.66655179999725,400.66655179999725,400.66655179999725,400.66655179999725,400.66655179999725,400.66655179999725,401.4005036999988,400.66655179999725,400.66655179999725,008,P004,2025_Jan_18_1437,ConditionRich,2021.2.3,59.95333232584824,
359.75,360.0,41,0.0,Stimuli/Blank.png,0,0,0.0,0,157,157,157,,,,,,,,,,,,,359.76539830000183,0.015398300001834286,5,0.21542219999901135,404.4031787999993,404.4031787999993,404.4031787999993,404.4031787999993,404.4031787999993,404.4031787999993,404.4031787999993,404.4031787999993,404.4031787999993,404.4031787999993,008,P004,2025_Jan_18_1437,ConditionRich,2021.2.3,59.95333232584824,
360.0,363.75,38,0.75,Stimuli/P004/things_slug_02s.jpg,1,2,2.75,0,158,158,158,,,,,,,,,,,,,360.0156769999994,0.015676999999413965,4,2.322339500002272,404.6533992000004,404.6533992000004,404.6533992000004,404.6533992000004,404.6533992000004,404.6533992000004,406.6384905999985,407.3891330999977,404.6533992000004,404.6533992000004,008,P004,2025_Jan_18_1437,ConditionRich,2021.2.3,59.95333232584824,
363.75,364.0,41,0.0,Stimuli/Blank.png,0,0,0.0,0,159,159,159,,,,,,,,,,,,,363.7520036999995,0.0020036999994772486,None,,408.39002099999925,408.39002099999925,408.39002099999925,408.39002099999925,408.39002099999925,408.39002099999925,408.39002099999925,408.39002099999925,408.39002099999925,408.39002099999925,008,P004,2025_Jan_18_1437,ConditionRich,2021.2.3,59.95333232584824,
364.0,367.75,30,0.75,Stimuli/P004/things_music_box_02s.jpg,0,0,0.0,0,160,160,160,,,,,,,,,,,,,364.0043931,0.004393100000015693,5,1.96148710000125,408.65693199999805,408.65693199999805,408.65693199999805,408.65693199999805,408.65693199999805,408.65693199999805,408.65693199999805,408.65693199999805,408.65693199999805,408.65693199999805,008,P004,2025_Jan_18_1437,ConditionRich,2021.2.3,59.95333232584824,
367.75,368.0,41,0.0,Stimuli/Blank.png,0,0,0.0,0,161,161,161,,,,,,,,,,,,,367.7743913000013,0.024391300001298077,5,0.1916228999980376,412.42692039999747,412.42692039999747,412.42692039999747,412.42692039999747,412.42692039999747,412.42692039999747,412.42692039999747,412.42692039999747,412.42692039999747,412.42692039999747,008,P004,2025_Jan_18_1437,ConditionRich,2021.2.3,59.95333232584824,
368.0,371.75,7,0.75,Stimuli/P004/sun_asgixjtedklbawgm.jpg,0,0,0.0,0,162,162,162,,,,,,,,,,,,,368.02475929999855,0.024759299998549977,5,1.9413327000002027,412.67712929999834,412.67712929999834,412.67712929999834,412.67712929999834,412.67712929999834,412.67712929999834,412.67712929999834,412.67712929999834,412.67712929999834,412.67712929999834,008,P004,2025_Jan_18_1437,ConditionRich,2021.2.3,59.95333232584824,
371.75,372.0,41,0.0,Stimuli/Blank.png,0,0,0.0,0,163,163,163,,,,,,,,,,,,,371.77661960000114,0.026619600001140498,None,,416.41381909999836,416.41381909999836,416.41381909999836,416.41381909999836,416.41381909999836,416.41381909999836,416.41381909999836,416.41381909999836,416.41381909999836,416.41381909999836,008,P004,2025_Jan_18_1437,ConditionRich,2021.2.3,59.95333232584824,
372.0,388.0,0,0.0,Stimuli/Blank.png,1,12,12.75,0,164,164,164,,,,,,,,,,,,,372.0098609000015,0.009860900001513073,5,13.971148099997663,416.64728990000003,416.64728990000003,416.64728990000003,416.64728990000003,416.64728990000003,416.64728990000003,428.6244912000002,429.3751343999975,416.64728990000003,416.64728990000003,008,P004,2025_Jan_18_1437,ConditionRich,2021.2.3,59.95333232584824,
