eventStartTime,eventEndTime,eventCond,imSize,imFile,responseEvent,fixRespStart,fixRespEnd,Events.thisRepN,Events.thisTrialN,Events.thisN,Events.thisIndex,Instructions.started,Instructions.stopped,participantReadyResponse.keys,participantReadyResponse.rt,participantReadyResponse.started,participantReadyResponse.stopped,startWaitforTrigger,triggerResponse.keys,triggerResponse.rt,triggerResponse.started,triggerResponse.stopped,globalTimer,actualStartTime,startTimingDiff,participantResponse.keys,participantResponse.rt,participantResponse.started,participantResponse.stopped,image.started,image.stopped,fixationOutside.started,fixationOutside.stopped,fixationResponse.started,fixationResponse.stopped,fixationInside.started,fixationInside.stopped,session,participant,date,expName,psychopyVersion,frameRate,
,,,,,,,,,,,,41.58342899999843,None,4,7.223458799999207,41.58342899999843,None,,,,,,,,,,,,,,,,,,,,,003,P004,2025_Jan_18_1346,ConditionRich,2021.2.3,59.93004964626763,
,,,,,,,,,,,,,,,,,,48.810744800000975,5,15.386004299998604,48.82412829999885,None,,,,,,,,,,,,,,,,003,P004,2025_Jan_18_1346,ConditionRich,2021.2.3,59.93004964626763,
0.0,4.0,0,0.0,Stimuli/Blank.png,0,0,0.0,0,0,0,0,,,,,,,,,,,,64.22495659999913,0.05288049999944633,0.05288049999944633,5,1.9222759999975096,64.28766170000017,None,64.28766170000017,None,64.28766170000017,None,64.28766170000017,64.28766170000017,64.28766170000017,None,003,P004,2025_Jan_18_1346,ConditionRich,2021.2.3,59.93004964626763,
4.0,4.75,16,0.75,Stimuli/P004/sun_bjuoemgleyaogrmw.jpg,0,0,0.0,0,1,1,1,,,,,,,,,,,,,4.007761999997456,0.0077619999974558596,None,,68.258116099998,68.258116099998,68.258116099998,68.258116099998,68.258116099998,68.258116099998,68.258116099998,68.258116099998,68.258116099998,68.258116099998,003,P004,2025_Jan_18_1346,ConditionRich,2021.2.3,59.93004964626763,
4.75,5.0,41,0.0,Stimuli/Blank.png,0,0,0.0,0,2,2,2,,,,,,,,,,,,,4.769001199998456,0.019001199998456286,None,,69.00874919999842,69.00874919999842,69.00874919999842,69.00874919999842,69.00874919999842,69.00874919999842,69.00874919999842,69.00874919999842,69.00874919999842,69.00874919999842,003,P004,2025_Jan_18_1346,ConditionRich,2021.2.3,59.93004964626763,
5.0,5.75,16,0.75,Stimuli/P004/sun_bjuoemgleyaogrmw.jpg,0,0,0.0,0,3,3,3,,,,,,,,,,,,,5.003923799999029,0.003923799999029143,None,,69.24202719999812,69.24202719999812,69.24202719999812,69.24202719999812,69.24202719999812,69.24202719999812,69.24202719999812,69.24202719999812,69.24202719999812,69.24202719999812,003,P004,2025_Jan_18_1346,ConditionRich,2021.2.3,59.93004964626763,
5.75,6.0,41,0.0,Stimuli/Blank.png,0,0,0.0,0,4,4,4,,,,,,,,,,,,,5.753002199999173,0.003002199999173172,5,0.21728090000033262,69.99268799999845,69.99268799999845,69.99268799999845,69.99268799999845,69.99268799999845,69.99268799999845,69.99268799999845,69.99268799999845,69.99268799999845,69.99268799999845,003,P004,2025_Jan_18_1346,ConditionRich,2021.2.3,59.93004964626763,
6.0,6.75,16,0.75,Stimuli/P004/sun_bjuoemgleyaogrmw.jpg,0,0,0.0,0,5,5,5,,,,,,,,,,,,,6.003480799998215,0.003480799998214934,None,,70.24290570000085,70.24290570000085,70.24290570000085,70.24290570000085,70.24290570000085,70.24290570000085,70.24290570000085,70.24290570000085,70.24290570000085,70.24290570000085,003,P004,2025_Jan_18_1346,ConditionRich,2021.2.3,59.93004964626763,
6.75,7.0,41,0.0,Stimuli/Blank.png,0,0,0.0,0,6,6,6,,,,,,,,,,,,,6.754317399998399,0.004317399998399196,None,,70.99356429999898,70.99356429999898,70.99356429999898,70.99356429999898,70.99356429999898,70.99356429999898,70.99356429999898,70.99356429999898,70.99356429999898,70.99356429999898,003,P004,2025_Jan_18_1346,ConditionRich,2021.2.3,59.93004964626763,
7.0,7.75,16,0.75,Stimuli/P004/sun_bjuoemgleyaogrmw.jpg,0,0,0.0,0,7,7,7,,,,,,,,,,,,,7.004734399997687,0.004734399997687433,None,,71.24378979999892,71.24378979999892,71.24378979999892,71.24378979999892,71.24378979999892,71.24378979999892,71.24378979999892,71.24378979999892,71.24378979999892,71.24378979999892,003,P004,2025_Jan_18_1346,ConditionRich,2021.2.3,59.93004964626763,
7.75,8.0,41,0.0,Stimuli/Blank.png,0,0,0.0,0,8,8,8,,,,,,,,,,,,,7.755388400000811,0.005388400000811089,5,0.21531339999637567,71.99453359999825,71.99453359999825,71.99453359999825,71.99453359999825,71.99453359999825,71.99453359999825,71.99453359999825,71.99453359999825,71.99453359999825,71.99453359999825,003,P004,2025_Jan_18_1346,ConditionRich,2021.2.3,59.93004964626763,
8.0,8.75,21,0.75,Stimuli/P004/things_baby_02s.jpg,0,0,0.0,0,9,9,9,,,,,,,,,,,,,8.005712099999073,0.0057120999990729615,None,,72.24469809999937,72.24469809999937,72.24469809999937,72.24469809999937,72.24469809999937,72.24469809999937,72.24469809999937,72.24469809999937,72.24469809999937,72.24469809999937,003,P004,2025_Jan_18_1346,ConditionRich,2021.2.3,59.93004964626763,
8.75,9.0,41,0.0,Stimuli/Blank.png,0,0,0.0,0,10,10,10,,,,,,,,,,,,,8.7585837000006,0.008583700000599492,None,,73.01198469999872,73.01198469999872,73.01198469999872,73.01198469999872,73.01198469999872,73.01198469999872,73.01198469999872,73.01198469999872,73.01198469999872,73.01198469999872,003,P004,2025_Jan_18_1346,ConditionRich,2021.2.3,59.93004964626763,
9.0,9.75,21,0.75,Stimuli/P004/things_baby_02s.jpg,0,0,0.0,0,11,11,11,,,,,,,,,,,,,9.022738100000424,0.02273810000042431,None,,73.26222290000078,73.26222290000078,73.26222290000078,73.26222290000078,73.26222290000078,73.26222290000078,73.26222290000078,73.26222290000078,73.26222290000078,73.26222290000078,003,P004,2025_Jan_18_1346,ConditionRich,2021.2.3,59.93004964626763,
9.75,10.0,41,0.0,Stimuli/Blank.png,0,0,0.0,0,12,12,12,,,,,,,,,,,,,9.759533199998259,0.009533199998259079,5,0.19680220000009285,74.01296499999808,74.01296499999808,74.01296499999808,74.01296499999808,74.01296499999808,74.01296499999808,74.01296499999808,74.01296499999808,74.01296499999808,74.01296499999808,003,P004,2025_Jan_18_1346,ConditionRich,2021.2.3,59.93004964626763,
10.0,10.75,21,0.75,Stimuli/P004/things_baby_02s.jpg,0,0,0.0,0,13,13,13,,,,,,,,,,,,,10.023908299997856,0.023908299997856375,None,,74.26312229999894,74.26312229999894,74.26312229999894,74.26312229999894,74.26312229999894,74.26312229999894,74.26312229999894,74.26312229999894,74.26312229999894,74.26312229999894,003,P004,2025_Jan_18_1346,ConditionRich,2021.2.3,59.93004964626763,
10.75,11.0,41,0.0,Stimuli/Blank.png,0,0,0.0,0,14,14,14,,,,,,,,,,,,,10.75899919999938,0.008999199999379925,None,,74.99709589999838,74.99709589999838,74.99709589999838,74.99709589999838,74.99709589999838,74.99709589999838,74.99709589999838,74.99709589999838,74.99709589999838,74.99709589999838,003,P004,2025_Jan_18_1346,ConditionRich,2021.2.3,59.93004964626763,
11.0,11.75,21,0.75,Stimuli/P004/things_baby_02s.jpg,0,0,0.0,0,15,15,15,,,,,,,,,,,,,11.007782500000758,0.007782500000757864,None,,75.24731020000036,75.24731020000036,75.24731020000036,75.24731020000036,75.24731020000036,75.24731020000036,75.24731020000036,75.24731020000036,75.24731020000036,75.24731020000036,003,P004,2025_Jan_18_1346,ConditionRich,2021.2.3,59.93004964626763,
11.75,12.0,41,0.0,Stimuli/Blank.png,0,0,0.0,0,16,16,16,,,,,,,,,,,,,11.758843899999192,0.008843899999192217,5,0.21199049999995623,75.99796810000043,75.99796810000043,75.99796810000043,75.99796810000043,75.99796810000043,75.99796810000043,75.99796810000043,75.99796810000043,75.99796810000043,75.99796810000043,003,P004,2025_Jan_18_1346,ConditionRich,2021.2.3,59.93004964626763,
12.0,12.75,1,0.75,Stimuli/P004/sun_adgmtzznutwlescq.jpg,0,0,0.0,0,17,17,17,,,,,,,,,,,,,12.009179900000163,0.009179900000162888,None,,76.24818989999767,76.24818989999767,76.24818989999767,76.24818989999767,76.24818989999767,76.24818989999767,76.24818989999767,76.24818989999767,76.24818989999767,76.24818989999767,003,P004,2025_Jan_18_1346,ConditionRich,2021.2.3,59.93004964626763,
12.75,13.0,41,0.0,Stimuli/Blank.png,0,0,0.0,0,18,18,18,,,,,,,,,,,,,12.75932069999908,0.009320699999079807,None,,76.99885379999978,76.99885379999978,76.99885379999978,76.99885379999978,76.99885379999978,76.99885379999978,76.99885379999978,76.99885379999978,76.99885379999978,76.99885379999978,003,P004,2025_Jan_18_1346,ConditionRich,2021.2.3,59.93004964626763,
13.0,13.75,1,0.75,Stimuli/P004/sun_adgmtzznutwlescq.jpg,0,0,0.0,0,19,19,19,,,,,,,,,,,,,13.009640699998272,0.009640699998271884,None,,77.24908040000082,77.24908040000082,77.24908040000082,77.24908040000082,77.24908040000082,77.24908040000082,77.24908040000082,77.24908040000082,77.24908040000082,77.24908040000082,003,P004,2025_Jan_18_1346,ConditionRich,2021.2.3,59.93004964626763,
13.75,14.0,41,0.0,Stimuli/Blank.png,0,0,0.0,0,20,20,20,,,,,,,,,,,,,13.76088030000028,0.01088030000028084,5,0.20996840000225347,77.99980309999955,77.99980309999955,77.99980309999955,77.99980309999955,77.99980309999955,77.99980309999955,77.99980309999955,77.99980309999955,77.99980309999955,77.99980309999955,003,P004,2025_Jan_18_1346,ConditionRich,2021.2.3,59.93004964626763,
14.0,14.75,1,0.75,Stimuli/P004/sun_adgmtzznutwlescq.jpg,0,0,0.0,0,21,21,21,,,,,,,,,,,,,14.01107150000098,0.01107150000098045,None,,78.24995379999746,78.24995379999746,78.24995379999746,78.24995379999746,78.24995379999746,78.24995379999746,78.24995379999746,78.24995379999746,78.24995379999746,78.24995379999746,003,P004,2025_Jan_18_1346,ConditionRich,2021.2.3,59.93004964626763,
14.75,15.0,41,0.0,Stimuli/Blank.png,0,0,0.0,0,22,22,22,,,,,,,,,,,,,14.761856199998874,0.011856199998874217,None,,79.00061669999923,79.00061669999923,79.00061669999923,79.00061669999923,79.00061669999923,79.00061669999923,79.00061669999923,79.00061669999923,79.00061669999923,79.00061669999923,003,P004,2025_Jan_18_1346,ConditionRich,2021.2.3,59.93004964626763,
15.0,15.75,1,0.75,Stimuli/P004/sun_adgmtzznutwlescq.jpg,0,0,0.0,0,23,23,23,,,,,,,,,,,,,15.014165000000503,0.014165000000502914,None,,79.26751660000082,79.26751660000082,79.26751660000082,79.26751660000082,79.26751660000082,79.26751660000082,79.26751660000082,79.26751660000082,79.26751660000082,79.26751660000082,003,P004,2025_Jan_18_1346,ConditionRich,2021.2.3,59.93004964626763,
15.75,16.0,41,0.0,Stimuli/Blank.png,0,0,0.0,0,24,24,24,,,,,,,,,,,,,15.778885899999295,0.02888589999929536,5,0.19191570000111824,80.01818339999954,80.01818339999954,80.01818339999954,80.01818339999954,80.01818339999954,80.01818339999954,80.01818339999954,80.01818339999954,80.01818339999954,80.01818339999954,003,P004,2025_Jan_18_1346,ConditionRich,2021.2.3,59.93004964626763,
16.0,16.75,27,0.75,Stimuli/P004/things_llama_02s.jpg,0,0,0.0,0,25,25,25,,,,,,,,,,,,,16.012238100000104,0.012238100000104168,None,,80.25171760000012,80.25171760000012,80.25171760000012,80.25171760000012,80.25171760000012,80.25171760000012,80.25171760000012,80.25171760000012,80.25171760000012,80.25171760000012,003,P004,2025_Jan_18_1346,ConditionRich,2021.2.3,59.93004964626763,
16.75,17.0,41,0.0,Stimuli/Blank.png,0,0,0.0,0,26,26,26,,,,,,,,,,,,,16.763681599997653,0.013681599997653393,None,,81.01908539999931,81.01908539999931,81.01908539999931,81.01908539999931,81.01908539999931,81.01908539999931,81.01908539999931,81.01908539999931,81.01908539999931,81.01908539999931,003,P004,2025_Jan_18_1346,ConditionRich,2021.2.3,59.93004964626763,
17.0,17.75,27,0.75,Stimuli/P004/things_llama_02s.jpg,0,0,0.0,0,27,27,27,,,,,,,,,,,,,17.030517600000167,0.030517600000166567,None,,81.28596389999802,81.28596389999802,81.28596389999802,81.28596389999802,81.28596389999802,81.28596389999802,81.28596389999802,81.28596389999802,81.28596389999802,81.28596389999802,003,P004,2025_Jan_18_1346,ConditionRich,2021.2.3,59.93004964626763,
17.75,18.0,41,0.0,Stimuli/Blank.png,0,0,0.0,0,28,28,28,,,,,,,,,,,,,17.780574099997466,0.030574099997465964,5,0.18985460000112653,82.0199403000006,82.0199403000006,82.0199403000006,82.0199403000006,82.0199403000006,82.0199403000006,82.0199403000006,82.0199403000006,82.0199403000006,82.0199403000006,003,P004,2025_Jan_18_1346,ConditionRich,2021.2.3,59.93004964626763,
18.0,18.75,27,0.75,Stimuli/P004/things_llama_02s.jpg,0,0,0.0,0,29,29,29,,,,,,,,,,,,,18.014008499998454,0.014008499998453772,None,,82.25347699999838,82.25347699999838,82.25347699999838,82.25347699999838,82.25347699999838,82.25347699999838,82.25347699999838,82.25347699999838,82.25347699999838,82.25347699999838,003,P004,2025_Jan_18_1346,ConditionRich,2021.2.3,59.93004964626763,
18.75,19.0,41,0.0,Stimuli/Blank.png,0,0,0.0,0,30,30,30,,,,,,,,,,,,,18.76448049999817,0.014480499998171581,None,,83.00414049999745,83.00414049999745,83.00414049999745,83.00414049999745,83.00414049999745,83.00414049999745,83.00414049999745,83.00414049999745,83.00414049999745,83.00414049999745,003,P004,2025_Jan_18_1346,ConditionRich,2021.2.3,59.93004964626763,
19.0,19.75,27,0.75,Stimuli/P004/things_llama_02s.jpg,0,0,0.0,0,31,31,31,,,,,,,,,,,,,19.01477370000066,0.014773700000660028,None,,83.25436289999925,83.25436289999925,83.25436289999925,83.25436289999925,83.25436289999925,83.25436289999925,83.25436289999925,83.25436289999925,83.25436289999925,83.25436289999925,003,P004,2025_Jan_18_1346,ConditionRich,2021.2.3,59.93004964626763,
19.75,20.0,41,0.0,Stimuli/Blank.png,0,0,0.0,0,32,32,32,,,,,,,,,,,,,19.765892699997494,0.015892699997493764,None,,84.00504079999882,84.00504079999882,84.00504079999882,84.00504079999882,84.00504079999882,84.00504079999882,84.00504079999882,84.00504079999882,84.00504079999882,84.00504079999882,003,P004,2025_Jan_18_1346,ConditionRich,2021.2.3,59.93004964626763,
20.0,20.75,26,0.75,Stimuli/P004/things_ham_02s.jpg,0,0,0.0,0,33,33,33,,,,,,,,,,,,,19.999232699999993,-0.0007673000000067987,None,,84.23853369999779,84.23853369999779,84.23853369999779,84.23853369999779,84.23853369999779,84.23853369999779,84.23853369999779,84.23853369999779,84.23853369999779,84.23853369999779,003,P004,2025_Jan_18_1346,ConditionRich,2021.2.3,59.93004964626763,
20.75,21.0,41,0.0,Stimuli/Blank.png,0,0,0.0,0,34,34,34,,,,,,,,,,,,,20.75014419999934,0.00014419999934034422,None,,84.98922219999804,84.98922219999804,84.98922219999804,84.98922219999804,84.98922219999804,84.98922219999804,84.98922219999804,84.98922219999804,84.98922219999804,84.98922219999804,003,P004,2025_Jan_18_1346,ConditionRich,2021.2.3,59.93004964626763,
21.0,21.75,26,0.75,Stimuli/P004/things_ham_02s.jpg,0,0,0.0,0,35,35,35,,,,,,,,,,,,,21.000662099999317,0.0006620999993174337,None,,85.2394521999995,85.2394521999995,85.2394521999995,85.2394521999995,85.2394521999995,85.2394521999995,85.2394521999995,85.2394521999995,85.2394521999995,85.2394521999995,003,P004,2025_Jan_18_1346,ConditionRich,2021.2.3,59.93004964626763,
21.75,22.0,41,0.0,Stimuli/Blank.png,0,0,0.0,0,36,36,36,,,,,,,,,,,,,21.751297299997532,0.001297299997531809,None,,85.99011919999975,85.99011919999975,85.99011919999975,85.99011919999975,85.99011919999975,85.99011919999975,85.99011919999975,85.99011919999975,85.99011919999975,85.99011919999975,003,P004,2025_Jan_18_1346,ConditionRich,2021.2.3,59.93004964626763,
22.0,22.75,26,0.75,Stimuli/P004/things_ham_02s.jpg,0,0,0.0,0,37,37,37,,,,,,,,,,,,,22.00098629999775,0.0009862999977485742,None,,86.24032649999936,86.24032649999936,86.24032649999936,86.24032649999936,86.24032649999936,86.24032649999936,86.24032649999936,86.24032649999936,86.24032649999936,86.24032649999936,003,P004,2025_Jan_18_1346,ConditionRich,2021.2.3,59.93004964626763,
22.75,23.0,41,0.0,Stimuli/Blank.png,0,0,0.0,0,38,38,38,,,,,,,,,,,,,22.75180829999954,0.0018082999995385762,None,,86.99102059999859,86.99102059999859,86.99102059999859,86.99102059999859,86.99102059999859,86.99102059999859,86.99102059999859,86.99102059999859,86.99102059999859,86.99102059999859,003,P004,2025_Jan_18_1346,ConditionRich,2021.2.3,59.93004964626763,
23.0,23.75,26,0.75,Stimuli/P004/things_ham_02s.jpg,0,0,0.0,0,39,39,39,,,,,,,,,,,,,23.004066699999385,0.004066699999384582,None,,87.25789059999806,87.25789059999806,87.25789059999806,87.25789059999806,87.25789059999806,87.25789059999806,87.25789059999806,87.25789059999806,87.25789059999806,87.25789059999806,003,P004,2025_Jan_18_1346,ConditionRich,2021.2.3,59.93004964626763,
23.75,24.0,41,0.0,Stimuli/Blank.png,0,0,0.0,0,40,40,40,,,,,,,,,,,,,23.76919949999865,0.019199499998649117,5,0.20134450000114157,88.00854260000051,88.00854260000051,88.00854260000051,88.00854260000051,88.00854260000051,88.00854260000051,88.00854260000051,88.00854260000051,88.00854260000051,88.00854260000051,003,P004,2025_Jan_18_1346,ConditionRich,2021.2.3,59.93004964626763,
24.0,24.75,12,0.75,Stimuli/P004/sun_bcboctumoxwpdefl.jpg,0,0,0.0,0,41,41,41,,,,,,,,,,,,,24.00360720000026,0.003607200000260491,None,,88.24208599999838,88.24208599999838,88.24208599999838,88.24208599999838,88.24208599999838,88.24208599999838,88.24208599999838,88.24208599999838,88.24208599999838,88.24208599999838,003,P004,2025_Jan_18_1346,ConditionRich,2021.2.3,59.93004964626763,
24.75,25.0,41,0.0,Stimuli/Blank.png,0,0,0.0,0,42,42,42,,,,,,,,,,,,,24.753816399999778,0.0038163999997777864,None,,88.99275829999897,88.99275829999897,88.99275829999897,88.99275829999897,88.99275829999897,88.99275829999897,88.99275829999897,88.99275829999897,88.99275829999897,88.99275829999897,003,P004,2025_Jan_18_1346,ConditionRich,2021.2.3,59.93004964626763,
25.0,25.75,12,0.75,Stimuli/P004/sun_bcboctumoxwpdefl.jpg,1,0,0.75,0,43,43,43,,,,,,,,,,,,,25.00428699999975,0.004286999999749241,4,0.5130229999995208,89.25966179999887,89.25966179999887,89.25966179999887,89.25966179999887,89.25966179999887,89.25966179999887,89.25966179999887,89.97694069999852,89.25966179999887,89.25966179999887,003,P004,2025_Jan_18_1346,ConditionRich,2021.2.3,59.93004964626763,
25.75,26.0,41,0.0,Stimuli/Blank.png,0,0,0.0,0,44,44,44,,,,,,,,,,,,,25.773296799998207,0.023296799998206552,5,0.18266220000077737,90.0270148999989,90.0270148999989,90.0270148999989,90.0270148999989,90.0270148999989,90.0270148999989,90.0270148999989,90.0270148999989,90.0270148999989,90.0270148999989,003,P004,2025_Jan_18_1346,ConditionRich,2021.2.3,59.93004964626763,
26.0,26.75,12,0.75,Stimuli/P004/sun_bcboctumoxwpdefl.jpg,0,0,0.0,0,45,45,45,,,,,,,,,,,,,26.02374449999843,0.02374449999842909,None,,90.27720919999774,90.27720919999774,90.27720919999774,90.27720919999774,90.27720919999774,90.27720919999774,90.27720919999774,90.27720919999774,90.27720919999774,90.27720919999774,003,P004,2025_Jan_18_1346,ConditionRich,2021.2.3,59.93004964626763,
26.75,27.0,41,0.0,Stimuli/Blank.png,0,0,0.0,0,46,46,46,,,,,,,,,,,,,26.771876700000576,0.02187670000057551,None,,91.01122279999981,91.01122279999981,91.01122279999981,91.01122279999981,91.01122279999981,91.01122279999981,91.01122279999981,91.01122279999981,91.01122279999981,91.01122279999981,003,P004,2025_Jan_18_1346,ConditionRich,2021.2.3,59.93004964626763,
27.0,27.75,12,0.75,Stimuli/P004/sun_bcboctumoxwpdefl.jpg,0,0,0.0,0,47,47,47,,,,,,,,,,,,,27.005955199998425,0.005955199998425087,None,,91.2614035000006,91.2614035000006,91.2614035000006,91.2614035000006,91.2614035000006,91.2614035000006,91.2614035000006,91.2614035000006,91.2614035000006,91.2614035000006,003,P004,2025_Jan_18_1346,ConditionRich,2021.2.3,59.93004964626763,
27.75,28.0,41,0.0,Stimuli/Blank.png,0,0,0.0,0,48,48,48,,,,,,,,,,,,,27.773754499998176,0.02375449999817647,5,0.19754959999772836,92.01226359999782,92.01226359999782,92.01226359999782,92.01226359999782,92.01226359999782,92.01226359999782,92.01226359999782,92.01226359999782,92.01226359999782,92.01226359999782,003,P004,2025_Jan_18_1346,ConditionRich,2021.2.3,59.93004964626763,
28.0,28.75,5,0.75,Stimuli/P004/sun_amnnxdwfjbdfumns.jpg,0,0,0.0,0,49,49,49,,,,,,,,,,,,,28.006536900000356,0.006536900000355672,None,,92.24561569999787,92.24561569999787,92.24561569999787,92.24561569999787,92.24561569999787,92.24561569999787,92.24561569999787,92.24561569999787,92.24561569999787,92.24561569999787,003,P004,2025_Jan_18_1346,ConditionRich,2021.2.3,59.93004964626763,
28.75,29.0,41,0.0,Stimuli/Blank.png,0,0,0.0,0,50,50,50,,,,,,,,,,,,,28.756912799999554,0.006912799999554409,None,,92.99626589999752,92.99626589999752,92.99626589999752,92.99626589999752,92.99626589999752,92.99626589999752,92.99626589999752,92.99626589999752,92.99626589999752,92.99626589999752,003,P004,2025_Jan_18_1346,ConditionRich,2021.2.3,59.93004964626763,
29.0,29.75,5,0.75,Stimuli/P004/sun_amnnxdwfjbdfumns.jpg,0,0,0.0,0,51,51,51,,,,,,,,,,,,,29.007799499999237,0.007799499999237014,None,,93.26317369999742,93.26317369999742,93.26317369999742,93.26317369999742,93.26317369999742,93.26317369999742,93.26317369999742,93.26317369999742,93.26317369999742,93.26317369999742,003,P004,2025_Jan_18_1346,ConditionRich,2021.2.3,59.93004964626763,
29.75,30.0,41,0.0,Stimuli/Blank.png,0,0,0.0,0,52,52,52,,,,,,,,,,,,,29.774934400000348,0.024934400000347523,5,0.19605120000051102,94.01382999999987,94.01382999999987,94.01382999999987,94.01382999999987,94.01382999999987,94.01382999999987,94.01382999999987,94.01382999999987,94.01382999999987,94.01382999999987,003,P004,2025_Jan_18_1346,ConditionRich,2021.2.3,59.93004964626763,
30.0,30.75,5,0.75,Stimuli/P004/sun_amnnxdwfjbdfumns.jpg,0,0,0.0,0,53,53,53,,,,,,,,,,,,,30.008540099999664,0.008540099999663653,None,,94.24737579999783,94.24737579999783,94.24737579999783,94.24737579999783,94.24737579999783,94.24737579999783,94.24737579999783,94.24737579999783,94.24737579999783,94.24737579999783,003,P004,2025_Jan_18_1346,ConditionRich,2021.2.3,59.93004964626763,
30.75,31.0,41,0.0,Stimuli/Blank.png,0,0,0.0,0,54,54,54,,,,,,,,,,,,,30.759425599997485,0.009425599997484824,None,,94.9980300999996,94.9980300999996,94.9980300999996,94.9980300999996,94.9980300999996,94.9980300999996,94.9980300999996,94.9980300999996,94.9980300999996,94.9980300999996,003,P004,2025_Jan_18_1346,ConditionRich,2021.2.3,59.93004964626763,
31.0,31.75,5,0.75,Stimuli/P004/sun_amnnxdwfjbdfumns.jpg,0,0,0.0,0,55,55,55,,,,,,,,,,,,,31.008817899997666,0.008817899997666245,None,,95.24825209999835,95.24825209999835,95.24825209999835,95.24825209999835,95.24825209999835,95.24825209999835,95.24825209999835,95.24825209999835,95.24825209999835,95.24825209999835,003,P004,2025_Jan_18_1346,ConditionRich,2021.2.3,59.93004964626763,
31.75,32.0,41,0.0,Stimuli/Blank.png,0,0,0.0,0,56,56,56,,,,,,,,,,,,,31.759756699997524,0.009756699997524265,5,0.21085220000168192,95.99891139999818,95.99891139999818,95.99891139999818,95.99891139999818,95.99891139999818,95.99891139999818,95.99891139999818,95.99891139999818,95.99891139999818,95.99891139999818,003,P004,2025_Jan_18_1346,ConditionRich,2021.2.3,59.93004964626763,
32.0,32.75,2,0.75,Stimuli/P004/sun_afijjzyziczoqdhz.jpg,0,0,0.0,0,57,57,57,,,,,,,,,,,,,32.01002850000077,0.0100285000007716,None,,96.24912739999854,96.24912739999854,96.24912739999854,96.24912739999854,96.24912739999854,96.24912739999854,96.24912739999854,96.24912739999854,96.24912739999854,96.24912739999854,003,P004,2025_Jan_18_1346,ConditionRich,2021.2.3,59.93004964626763,
32.75,33.0,41,0.0,Stimuli/Blank.png,0,0,0.0,0,58,58,58,,,,,,,,,,,,,32.76320280000073,0.013202800000726711,None,,97.01648619999833,97.01648619999833,97.01648619999833,97.01648619999833,97.01648619999833,97.01648619999833,97.01648619999833,97.01648619999833,97.01648619999833,97.01648619999833,003,P004,2025_Jan_18_1346,ConditionRich,2021.2.3,59.93004964626763,
33.0,33.75,2,0.75,Stimuli/P004/sun_afijjzyziczoqdhz.jpg,0,0,0.0,0,59,59,59,,,,,,,,,,,,,33.02814120000039,0.02814120000039111,None,,97.28342619999967,97.28342619999967,97.28342619999967,97.28342619999967,97.28342619999967,97.28342619999967,97.28342619999967,97.28342619999967,97.28342619999967,97.28342619999967,003,P004,2025_Jan_18_1346,ConditionRich,2021.2.3,59.93004964626763,
33.75,34.0,41,0.0,Stimuli/Blank.png,0,0,0.0,0,60,60,60,,,,,,,,,,,,,33.778664299999946,0.028664299999945797,5,0.19239849999939906,98.01735840000038,98.01735840000038,98.01735840000038,98.01735840000038,98.01735840000038,98.01735840000038,98.01735840000038,98.01735840000038,98.01735840000038,98.01735840000038,003,P004,2025_Jan_18_1346,ConditionRich,2021.2.3,59.93004964626763,
34.0,34.75,2,0.75,Stimuli/P004/sun_afijjzyziczoqdhz.jpg,0,0,0.0,0,61,61,61,,,,,,,,,,,,,34.01144349999959,0.011443499999586493,None,,98.25089250000019,98.25089250000019,98.25089250000019,98.25089250000019,98.25089250000019,98.25089250000019,98.25089250000019,98.25089250000019,98.25089250000019,98.25089250000019,003,P004,2025_Jan_18_1346,ConditionRich,2021.2.3,59.93004964626763,
34.75,35.0,41,0.0,Stimuli/Blank.png,0,0,0.0,0,62,62,62,,,,,,,,,,,,,34.761942000001,0.011942000000999542,None,,99.00155090000044,99.00155090000044,99.00155090000044,99.00155090000044,99.00155090000044,99.00155090000044,99.00155090000044,99.00155090000044,99.00155090000044,99.00155090000044,003,P004,2025_Jan_18_1346,ConditionRich,2021.2.3,59.93004964626763,
35.0,35.75,2,0.75,Stimuli/P004/sun_afijjzyziczoqdhz.jpg,0,0,0.0,0,63,63,63,,,,,,,,,,,,,35.01308000000063,0.013080000000627479,None,,99.26847959999941,99.26847959999941,99.26847959999941,99.26847959999941,99.26847959999941,99.26847959999941,99.26847959999941,99.26847959999941,99.26847959999941,99.26847959999941,003,P004,2025_Jan_18_1346,ConditionRich,2021.2.3,59.93004964626763,
35.75,36.0,41,0.0,Stimuli/Blank.png,0,0,0.0,0,64,64,64,,,,,,,,,,,,,35.77975299999889,0.029752999998891028,5,0.1908664000002318,100.01911939999991,100.01911939999991,100.01911939999991,100.01911939999991,100.01911939999991,100.01911939999991,100.01911939999991,100.01911939999991,100.01911939999991,100.01911939999991,003,P004,2025_Jan_18_1346,ConditionRich,2021.2.3,59.93004964626763,
36.0,36.75,7,0.75,Stimuli/P004/sun_asgixjtedklbawgm.jpg,0,0,0.0,0,65,65,65,,,,,,,,,,,,,36.01396899999963,0.013968999999633525,None,,100.25268909999795,100.25268909999795,100.25268909999795,100.25268909999795,100.25268909999795,100.25268909999795,100.25268909999795,100.25268909999795,100.25268909999795,100.25268909999795,003,P004,2025_Jan_18_1346,ConditionRich,2021.2.3,59.93004964626763,
36.75,37.0,41,0.0,Stimuli/Blank.png,0,0,0.0,0,66,66,66,,,,,,,,,,,,,36.763948699997854,0.013948699997854419,None,,101.00331860000006,101.00331860000006,101.00331860000006,101.00331860000006,101.00331860000006,101.00331860000006,101.00331860000006,101.00331860000006,101.00331860000006,101.00331860000006,003,P004,2025_Jan_18_1346,ConditionRich,2021.2.3,59.93004964626763,
37.0,37.75,7,0.75,Stimuli/P004/sun_asgixjtedklbawgm.jpg,0,0,0.0,0,67,67,67,,,,,,,,,,,,,37.01438659999985,0.014386599999852479,None,,101.25353529999848,101.25353529999848,101.25353529999848,101.25353529999848,101.25353529999848,101.25353529999848,101.25353529999848,101.25353529999848,101.25353529999848,101.25353529999848,003,P004,2025_Jan_18_1346,ConditionRich,2021.2.3,59.93004964626763,
37.75,38.0,41,0.0,Stimuli/Blank.png,0,0,0.0,0,68,68,68,,,,,,,,,,,,,37.764818299998296,0.014818299998296425,5,0.20571969999946305,102.00419939999847,102.00419939999847,102.00419939999847,102.00419939999847,102.00419939999847,102.00419939999847,102.00419939999847,102.00419939999847,102.00419939999847,102.00419939999847,003,P004,2025_Jan_18_1346,ConditionRich,2021.2.3,59.93004964626763,
38.0,38.75,7,0.75,Stimuli/P004/sun_asgixjtedklbawgm.jpg,0,0,0.0,0,69,69,69,,,,,,,,,,,,,38.0152586999975,0.015258699997502845,None,,102.27109930000006,102.27109930000006,102.27109930000006,102.27109930000006,102.27109930000006,102.27109930000006,102.27109930000006,102.27109930000006,102.27109930000006,102.27109930000006,003,P004,2025_Jan_18_1346,ConditionRich,2021.2.3,59.93004964626763,
38.75,39.0,41,0.0,Stimuli/Blank.png,0,0,0.0,0,70,70,70,,,,,,,,,,,,,38.76808439999877,0.018084399998770095,None,,103.0217707999982,103.0217707999982,103.0217707999982,103.0217707999982,103.0217707999982,103.0217707999982,103.0217707999982,103.0217707999982,103.0217707999982,103.0217707999982,003,P004,2025_Jan_18_1346,ConditionRich,2021.2.3,59.93004964626763,
39.0,39.75,7,0.75,Stimuli/P004/sun_asgixjtedklbawgm.jpg,0,0,0.0,0,71,71,71,,,,,,,,,,,,,39.01843299999746,0.018432999997457955,None,,103.27198109999881,103.27198109999881,103.27198109999881,103.27198109999881,103.27198109999881,103.27198109999881,103.27198109999881,103.27198109999881,103.27198109999881,103.27198109999881,003,P004,2025_Jan_18_1346,ConditionRich,2021.2.3,59.93004964626763,
39.75,40.0,41,0.0,Stimuli/Blank.png,0,0,0.0,0,72,72,72,,,,,,,,,,,,,39.766868499998964,0.01686849999896367,None,,104.0059599999986,104.0059599999986,104.0059599999986,104.0059599999986,104.0059599999986,104.0059599999986,104.0059599999986,104.0059599999986,104.0059599999986,104.0059599999986,003,P004,2025_Jan_18_1346,ConditionRich,2021.2.3,59.93004964626763,
40.0,40.75,14,0.75,Stimuli/P004/sun_bhhtrmwvoadbfucw.jpg,0,0,0.0,0,73,73,73,,,,,,,,,,,,,40.0000629999995,6.299999949987978e-05,None,,104.25619119999828,104.25619119999828,104.25619119999828,104.25619119999828,104.25619119999828,104.25619119999828,104.25619119999828,104.25619119999828,104.25619119999828,104.25619119999828,003,P004,2025_Jan_18_1346,ConditionRich,2021.2.3,59.93004964626763,
40.75,41.0,41,0.0,Stimuli/Blank.png,0,0,0.0,0,74,74,74,,,,,,,,,,,,,40.76778519999789,0.017785199997888412,None,,105.00683310000022,105.00683310000022,105.00683310000022,105.00683310000022,105.00683310000022,105.00683310000022,105.00683310000022,105.00683310000022,105.00683310000022,105.00683310000022,003,P004,2025_Jan_18_1346,ConditionRich,2021.2.3,59.93004964626763,
41.0,41.75,14,0.75,Stimuli/P004/sun_bhhtrmwvoadbfucw.jpg,0,0,0.0,0,75,75,75,,,,,,,,,,,,,41.003082399998675,0.0030823999986751005,None,,105.25707189999957,105.25707189999957,105.25707189999957,105.25707189999957,105.25707189999957,105.25707189999957,105.25707189999957,105.25707189999957,105.25707189999957,105.25707189999957,003,P004,2025_Jan_18_1346,ConditionRich,2021.2.3,59.93004964626763,
41.75,42.0,41,0.0,Stimuli/Blank.png,0,0,0.0,0,76,76,76,,,,,,,,,,,,,41.76973920000091,0.019739200000913115,5,0.1852519999993092,106.02441499999986,106.02441499999986,106.02441499999986,106.02441499999986,106.02441499999986,106.02441499999986,106.02441499999986,106.02441499999986,106.02441499999986,106.02441499999986,003,P004,2025_Jan_18_1346,ConditionRich,2021.2.3,59.93004964626763,
42.0,42.75,14,0.75,Stimuli/P004/sun_bhhtrmwvoadbfucw.jpg,0,0,0.0,0,77,77,77,,,,,,,,,,,,,42.01898629999778,0.018986299997777678,None,,106.25793879999765,106.25793879999765,106.25793879999765,106.25793879999765,106.25793879999765,106.25793879999765,106.25793879999765,106.25793879999765,106.25793879999765,106.25793879999765,003,P004,2025_Jan_18_1346,ConditionRich,2021.2.3,59.93004964626763,
42.75,43.0,41,0.0,Stimuli/Blank.png,0,0,0.0,0,78,78,78,,,,,,,,,,,,,42.752977699998155,0.0029776999981550034,None,,106.99192629999743,106.99192629999743,106.99192629999743,106.99192629999743,106.99192629999743,106.99192629999743,106.99192629999743,106.99192629999743,106.99192629999743,106.99192629999743,003,P004,2025_Jan_18_1346,ConditionRich,2021.2.3,59.93004964626763,
43.0,43.75,14,0.75,Stimuli/P004/sun_bhhtrmwvoadbfucw.jpg,0,0,0.0,0,79,79,79,,,,,,,,,,,,,43.00384420000046,0.0038442000004579313,None,,107.25884120000046,107.25884120000046,107.25884120000046,107.25884120000046,107.25884120000046,107.25884120000046,107.25884120000046,107.25884120000046,107.25884120000046,107.25884120000046,003,P004,2025_Jan_18_1346,ConditionRich,2021.2.3,59.93004964626763,
43.75,44.0,41,0.0,Stimuli/Blank.png,0,0,0.0,0,80,80,80,,,,,,,,,,,,,43.7701092999996,0.020109299999603536,5,0.20015510000303038,108.00948629999766,108.00948629999766,108.00948629999766,108.00948629999766,108.00948629999766,108.00948629999766,108.00948629999766,108.00948629999766,108.00948629999766,108.00948629999766,003,P004,2025_Jan_18_1346,ConditionRich,2021.2.3,59.93004964626763,
44.0,44.75,6,0.75,Stimuli/P004/sun_aoumkoxfhlaobjef.jpg,1,0,0.75,0,81,81,81,,,,,,,,,,,,,44.00393079999776,0.003930799997760914,4,0.5366778000025079,108.24301879999985,108.24301879999985,108.24301879999985,108.24301879999985,108.24301879999985,108.24301879999985,108.24301879999985,108.9769985999992,108.24301879999985,108.24301879999985,003,P004,2025_Jan_18_1346,ConditionRich,2021.2.3,59.93004964626763,
44.75,45.0,41,0.0,Stimuli/Blank.png,0,0,0.0,0,82,82,82,,,,,,,,,,,,,44.75487169999906,0.004871699999057455,None,,108.99368909999976,108.99368909999976,108.99368909999976,108.99368909999976,108.99368909999976,108.99368909999976,108.99368909999976,108.99368909999976,108.99368909999976,108.99368909999976,003,P004,2025_Jan_18_1346,ConditionRich,2021.2.3,59.93004964626763,
45.0,45.75,6,0.75,Stimuli/P004/sun_aoumkoxfhlaobjef.jpg,0,0,0.0,0,83,83,83,,,,,,,,,,,,,45.00515230000019,0.005152300000190735,None,,109.26055129999804,109.26055129999804,109.26055129999804,109.26055129999804,109.26055129999804,109.26055129999804,109.26055129999804,109.26055129999804,109.26055129999804,109.26055129999804,003,P004,2025_Jan_18_1346,ConditionRich,2021.2.3,59.93004964626763,
45.75,46.0,41,0.0,Stimuli/Blank.png,0,0,0.0,0,84,84,84,,,,,,,,,,,,,45.77304340000046,0.02304340000046068,5,0.1975653000008606,110.01205349999873,110.01205349999873,110.01205349999873,110.01205349999873,110.01205349999873,110.01205349999873,110.01205349999873,110.01205349999873,110.01205349999873,110.01205349999873,003,P004,2025_Jan_18_1346,ConditionRich,2021.2.3,59.93004964626763,
46.0,46.75,6,0.75,Stimuli/P004/sun_aoumkoxfhlaobjef.jpg,0,0,0.0,0,85,85,85,,,,,,,,,,,,,46.00656929999968,0.006569299999682698,None,,110.26151489999756,110.26151489999756,110.26151489999756,110.26151489999756,110.26151489999756,110.26151489999756,110.26151489999756,110.26151489999756,110.26151489999756,110.26151489999756,003,P004,2025_Jan_18_1346,ConditionRich,2021.2.3,59.93004964626763,
46.75,47.0,41,0.0,Stimuli/Blank.png,0,0,0.0,0,86,86,86,,,,,,,,,,,,,46.773013800000626,0.02301380000062636,None,,111.01212379999924,111.01212379999924,111.01212379999924,111.01212379999924,111.01212379999924,111.01212379999924,111.01212379999924,111.01212379999924,111.01212379999924,111.01212379999924,003,P004,2025_Jan_18_1346,ConditionRich,2021.2.3,59.93004964626763,
47.0,47.75,6,0.75,Stimuli/P004/sun_aoumkoxfhlaobjef.jpg,0,0,0.0,0,87,87,87,,,,,,,,,,,,,47.00817939999979,0.008179399999789894,None,,111.2623485999975,111.2623485999975,111.2623485999975,111.2623485999975,111.2623485999975,111.2623485999975,111.2623485999975,111.2623485999975,111.2623485999975,111.2623485999975,003,P004,2025_Jan_18_1346,ConditionRich,2021.2.3,59.93004964626763,
47.75,48.0,41,0.0,Stimuli/Blank.png,0,0,0.0,0,88,88,88,,,,,,,,,,,,,47.77400769999804,0.024007699998037424,5,0.19670760000008158,112.01300629999969,112.01300629999969,112.01300629999969,112.01300629999969,112.01300629999969,112.01300629999969,112.01300629999969,112.01300629999969,112.01300629999969,112.01300629999969,003,P004,2025_Jan_18_1346,ConditionRich,2021.2.3,59.93004964626763,
48.0,48.75,11,0.75,Stimuli/P004/sun_bawmjlzsuuivqjhi.jpg,0,0,0.0,0,89,89,89,,,,,,,,,,,,,48.00790679999773,0.007906799997726921,None,,112.24653810000018,112.24653810000018,112.24653810000018,112.24653810000018,112.24653810000018,112.24653810000018,112.24653810000018,112.24653810000018,112.24653810000018,112.24653810000018,003,P004,2025_Jan_18_1346,ConditionRich,2021.2.3,59.93004964626763,
48.75,49.0,41,0.0,Stimuli/Blank.png,0,0,0.0,0,90,90,90,,,,,,,,,,,,,48.75783469999806,0.007834699998056749,None,,112.99719379999806,112.99719379999806,112.99719379999806,112.99719379999806,112.99719379999806,112.99719379999806,112.99719379999806,112.99719379999806,112.99719379999806,112.99719379999806,003,P004,2025_Jan_18_1346,ConditionRich,2021.2.3,59.93004964626763,
49.0,49.75,11,0.75,Stimuli/P004/sun_bawmjlzsuuivqjhi.jpg,1,0,0.75,0,91,91,91,,,,,,,,,,,,,49.00885429999835,0.008854299998347415,4,0.47255760000189184,113.26412789999813,113.26412789999813,113.26412789999813,113.26412789999813,113.26412789999813,113.26412789999813,113.26412789999813,113.98137789999964,113.26412789999813,113.26412789999813,003,P004,2025_Jan_18_1346,ConditionRich,2021.2.3,59.93004964626763,
49.75,50.0,41,0.0,Stimuli/Blank.png,0,0,0.0,0,92,92,92,,,,,,,,,,,,,49.77604149999752,0.026041499997518258,5,0.1950782000021718,114.01477629999863,114.01477629999863,114.01477629999863,114.01477629999863,114.01477629999863,114.01477629999863,114.01477629999863,114.01477629999863,114.01477629999863,114.01477629999863,003,P004,2025_Jan_18_1346,ConditionRich,2021.2.3,59.93004964626763,
50.0,50.75,11,0.75,Stimuli/P004/sun_bawmjlzsuuivqjhi.jpg,0,0,0.0,0,93,93,93,,,,,,,,,,,,,50.00906649999888,0.009066499998880317,None,,114.24829839999802,114.24829839999802,114.24829839999802,114.24829839999802,114.24829839999802,114.24829839999802,114.24829839999802,114.24829839999802,114.24829839999802,114.24829839999802,003,P004,2025_Jan_18_1346,ConditionRich,2021.2.3,59.93004964626763,
50.75,51.0,41,0.0,Stimuli/Blank.png,0,0,0.0,0,94,94,94,,,,,,,,,,,,,50.760048500000266,0.010048500000266358,None,,114.99897670000064,114.99897670000064,114.99897670000064,114.99897670000064,114.99897670000064,114.99897670000064,114.99897670000064,114.99897670000064,114.99897670000064,114.99897670000064,003,P004,2025_Jan_18_1346,ConditionRich,2021.2.3,59.93004964626763,
51.0,51.75,11,0.75,Stimuli/P004/sun_bawmjlzsuuivqjhi.jpg,0,0,0.0,0,95,95,95,,,,,,,,,,,,,51.009708699999464,0.009708699999464443,None,,115.2491869000005,115.2491869000005,115.2491869000005,115.2491869000005,115.2491869000005,115.2491869000005,115.2491869000005,115.2491869000005,115.2491869000005,115.2491869000005,003,P004,2025_Jan_18_1346,ConditionRich,2021.2.3,59.93004964626763,
51.75,52.0,41,0.0,Stimuli/Blank.png,0,0,0.0,0,96,96,96,,,,,,,,,,,,,51.760699899998144,0.010699899998144247,5,0.20983429999978398,115.99984530000074,115.99984530000074,115.99984530000074,115.99984530000074,115.99984530000074,115.99984530000074,115.99984530000074,115.99984530000074,115.99984530000074,115.99984530000074,003,P004,2025_Jan_18_1346,ConditionRich,2021.2.3,59.93004964626763,
52.0,52.75,24,0.75,Stimuli/P004/things_dumpling_02s.jpg,0,0,0.0,0,97,97,97,,,,,,,,,,,,,52.01162959999783,0.011629599997831974,None,,116.26674500000081,116.26674500000081,116.26674500000081,116.26674500000081,116.26674500000081,116.26674500000081,116.26674500000081,116.26674500000081,116.26674500000081,116.26674500000081,003,P004,2025_Jan_18_1346,ConditionRich,2021.2.3,59.93004964626763,
52.75,53.0,41,0.0,Stimuli/Blank.png,0,0,0.0,0,98,98,98,,,,,,,,,,,,,52.77851759999976,0.028517599999759113,None,,117.01743949999945,117.01743949999945,117.01743949999945,117.01743949999945,117.01743949999945,117.01743949999945,117.01743949999945,117.01743949999945,117.01743949999945,117.01743949999945,003,P004,2025_Jan_18_1346,ConditionRich,2021.2.3,59.93004964626763,
53.0,53.75,24,0.75,Stimuli/P004/things_dumpling_02s.jpg,0,0,0.0,0,99,99,99,,,,,,,,,,,,,53.01435239999773,0.0143523999977333,None,,117.26764579999872,117.26764579999872,117.26764579999872,117.26764579999872,117.26764579999872,117.26764579999872,117.26764579999872,117.26764579999872,117.26764579999872,117.26764579999872,003,P004,2025_Jan_18_1346,ConditionRich,2021.2.3,59.93004964626763,
53.75,54.0,41,0.0,Stimuli/Blank.png,0,0,0.0,0,100,100,100,,,,,,,,,,,,,53.7795449999976,0.029544999997597188,5,0.19126340000002529,118.01835729999948,118.01835729999948,118.01835729999948,118.01835729999948,118.01835729999948,118.01835729999948,118.01835729999948,118.01835729999948,118.01835729999948,118.01835729999948,003,P004,2025_Jan_18_1346,ConditionRich,2021.2.3,59.93004964626763,
54.0,54.75,24,0.75,Stimuli/P004/things_dumpling_02s.jpg,0,0,0.0,0,101,101,101,,,,,,,,,,,,,54.01283219999823,0.012832199998229044,None,,118.25182349999886,118.25182349999886,118.25182349999886,118.25182349999886,118.25182349999886,118.25182349999886,118.25182349999886,118.25182349999886,118.25182349999886,118.25182349999886,003,P004,2025_Jan_18_1346,ConditionRich,2021.2.3,59.93004964626763,
54.75,55.0,41,0.0,Stimuli/Blank.png,0,0,0.0,0,102,102,102,,,,,,,,,,,,,54.76369049999994,0.013690499999938766,None,,119.0024928999992,119.0024928999992,119.0024928999992,119.0024928999992,119.0024928999992,119.0024928999992,119.0024928999992,119.0024928999992,119.0024928999992,119.0024928999992,003,P004,2025_Jan_18_1346,ConditionRich,2021.2.3,59.93004964626763,
55.0,55.75,24,0.75,Stimuli/P004/things_dumpling_02s.jpg,0,0,0.0,0,103,103,103,,,,,,,,,,,,,55.013785399998596,0.013785399998596404,None,,119.25271480000083,119.25271480000083,119.25271480000083,119.25271480000083,119.25271480000083,119.25271480000083,119.25271480000083,119.25271480000083,119.25271480000083,119.25271480000083,003,P004,2025_Jan_18_1346,ConditionRich,2021.2.3,59.93004964626763,
55.75,56.0,41,0.0,Stimuli/Blank.png,0,0,0.0,0,104,104,104,,,,,,,,,,,,,55.76426540000102,0.014265400001022499,5,0.20653089999905205,120.00337339999896,120.00337339999896,120.00337339999896,120.00337339999896,120.00337339999896,120.00337339999896,120.00337339999896,120.00337339999896,120.00337339999896,120.00337339999896,003,P004,2025_Jan_18_1346,ConditionRich,2021.2.3,59.93004964626763,
56.0,56.75,23,0.75,Stimuli/P004/things_butterfly_02s.jpg,0,0,0.0,0,105,105,105,,,,,,,,,,,,,56.014670399999886,0.014670399999886286,None,,120.2536,120.2536,120.2536,120.2536,120.2536,120.2536,120.2536,120.2536,120.2536,120.2536,003,P004,2025_Jan_18_1346,ConditionRich,2021.2.3,59.93004964626763,
56.75,57.0,41,0.0,Stimuli/Blank.png,0,0,0.0,0,106,106,106,,,,,,,,,,,,,56.76545260000057,0.015452600000571692,None,,121.00425080000059,121.00425080000059,121.00425080000059,121.00425080000059,121.00425080000059,121.00425080000059,121.00425080000059,121.00425080000059,121.00425080000059,121.00425080000059,003,P004,2025_Jan_18_1346,ConditionRich,2021.2.3,59.93004964626763,
57.0,57.75,23,0.75,Stimuli/P004/things_butterfly_02s.jpg,0,0,0.0,0,107,107,107,,,,,,,,,,,,,57.01479929999914,0.014799299999140203,None,,121.25446480000028,121.25446480000028,121.25446480000028,121.25446480000028,121.25446480000028,121.25446480000028,121.25446480000028,121.25446480000028,121.25446480000028,121.25446480000028,003,P004,2025_Jan_18_1346,ConditionRich,2021.2.3,59.93004964626763,
57.75,58.0,41,0.0,Stimuli/Blank.png,0,0,0.0,0,108,108,108,,,,,,,,,,,,,57.76578460000019,0.01578460000018822,None,,122.00512969999909,122.00512969999909,122.00512969999909,122.00512969999909,122.00512969999909,122.00512969999909,122.00512969999909,122.00512969999909,122.00512969999909,122.00512969999909,003,P004,2025_Jan_18_1346,ConditionRich,2021.2.3,59.93004964626763,
58.0,58.75,23,0.75,Stimuli/P004/things_butterfly_02s.jpg,0,0,0.0,0,109,109,109,,,,,,,,,,,,,57.99921439999889,-0.0007856000011088327,None,,122.23867690000043,122.23867690000043,122.23867690000043,122.23867690000043,122.23867690000043,122.23867690000043,122.23867690000043,122.23867690000043,122.23867690000043,122.23867690000043,003,P004,2025_Jan_18_1346,ConditionRich,2021.2.3,59.93004964626763,
58.75,59.0,41,0.0,Stimuli/Blank.png,0,0,0.0,0,110,110,110,,,,,,,,,,,,,58.75027449999834,0.000274499998340616,None,,122.9894166999984,122.9894166999984,122.9894166999984,122.9894166999984,122.9894166999984,122.9894166999984,122.9894166999984,122.9894166999984,122.9894166999984,122.9894166999984,003,P004,2025_Jan_18_1346,ConditionRich,2021.2.3,59.93004964626763,
59.0,59.75,23,0.75,Stimuli/P004/things_butterfly_02s.jpg,0,0,0.0,0,111,111,111,,,,,,,,,,,,,59.00053879999905,0.0005387999990489334,None,,123.25625229999787,123.25625229999787,123.25625229999787,123.25625229999787,123.25625229999787,123.25625229999787,123.25625229999787,123.25625229999787,123.25625229999787,123.25625229999787,003,P004,2025_Jan_18_1346,ConditionRich,2021.2.3,59.93004964626763,
59.75,60.0,41,0.0,Stimuli/Blank.png,0,0,0.0,0,112,112,112,,,,,,,,,,,,,59.767451699997764,0.01745169999776408,None,,124.00693580000006,124.00693580000006,124.00693580000006,124.00693580000006,124.00693580000006,124.00693580000006,124.00693580000006,124.00693580000006,124.00693580000006,124.00693580000006,003,P004,2025_Jan_18_1346,ConditionRich,2021.2.3,59.93004964626763,
60.0,60.75,34,0.75,Stimuli/P004/things_roll_02s.jpg,0,0,0.0,0,113,113,113,,,,,,,,,,,,,60.00085200000103,0.0008520000010321382,None,,124.24042769999869,124.24042769999869,124.24042769999869,124.24042769999869,124.24042769999869,124.24042769999869,124.24042769999869,124.24042769999869,124.24042769999869,124.24042769999869,003,P004,2025_Jan_18_1346,ConditionRich,2021.2.3,59.93004964626763,
60.75,61.0,41,0.0,Stimuli/Blank.png,0,0,0.0,0,114,114,114,,,,,,,,,,,,,60.75180739999996,0.0018073999999614898,None,,124.99109019999742,124.99109019999742,124.99109019999742,124.99109019999742,124.99109019999742,124.99109019999742,124.99109019999742,124.99109019999742,124.99109019999742,124.99109019999742,003,P004,2025_Jan_18_1346,ConditionRich,2021.2.3,59.93004964626763,
61.0,61.75,34,0.75,Stimuli/P004/things_roll_02s.jpg,0,0,0.0,0,115,115,115,,,,,,,,,,,,,61.00169610000012,0.0016961000001174398,None,,125.24130729999888,125.24130729999888,125.24130729999888,125.24130729999888,125.24130729999888,125.24130729999888,125.24130729999888,125.24130729999888,125.24130729999888,125.24130729999888,003,P004,2025_Jan_18_1346,ConditionRich,2021.2.3,59.93004964626763,
61.75,62.0,41,0.0,Stimuli/Blank.png,0,0,0.0,0,116,116,116,,,,,,,,,,,,,61.752807900000334,0.0028079000003344845,5,0.21772090000013122,125.99197120000099,125.99197120000099,125.99197120000099,125.99197120000099,125.99197120000099,125.99197120000099,125.99197120000099,125.99197120000099,125.99197120000099,125.99197120000099,003,P004,2025_Jan_18_1346,ConditionRich,2021.2.3,59.93004964626763,
62.0,62.75,34,0.75,Stimuli/P004/things_roll_02s.jpg,0,0,0.0,0,117,117,117,,,,,,,,,,,,,62.003055099998164,0.0030550999981642235,None,,126.24219449999873,126.24219449999873,126.24219449999873,126.24219449999873,126.24219449999873,126.24219449999873,126.24219449999873,126.24219449999873,126.24219449999873,126.24219449999873,003,P004,2025_Jan_18_1346,ConditionRich,2021.2.3,59.93004964626763,
62.75,63.0,41,0.0,Stimuli/Blank.png,0,0,0.0,0,118,118,118,,,,,,,,,,,,,62.75467369999751,0.004673699997510994,None,,127.00954989999809,127.00954989999809,127.00954989999809,127.00954989999809,127.00954989999809,127.00954989999809,127.00954989999809,127.00954989999809,127.00954989999809,127.00954989999809,003,P004,2025_Jan_18_1346,ConditionRich,2021.2.3,59.93004964626763,
63.0,63.75,34,0.75,Stimuli/P004/things_roll_02s.jpg,0,0,0.0,0,119,119,119,,,,,,,,,,,,,63.02040859999761,0.02040859999760869,None,,127.27643429999807,127.27643429999807,127.27643429999807,127.27643429999807,127.27643429999807,127.27643429999807,127.27643429999807,127.27643429999807,127.27643429999807,127.27643429999807,003,P004,2025_Jan_18_1346,ConditionRich,2021.2.3,59.93004964626763,
63.75,64.0,41,0.0,Stimuli/Blank.png,0,0,0.0,0,120,120,120,,,,,,,,,,,,,63.773341600001004,0.023341600001003826,5,0.1824969000008423,128.02710169999773,128.02710169999773,128.02710169999773,128.02710169999773,128.02710169999773,128.02710169999773,128.02710169999773,128.02710169999773,128.02710169999773,128.02710169999773,003,P004,2025_Jan_18_1346,ConditionRich,2021.2.3,59.93004964626763,
64.0,64.75,40,0.75,Stimuli/P004/things_woman_02s.jpg,0,0,0.0,0,121,121,121,,,,,,,,,,,,,64.02174430000014,0.021744300000136718,None,,128.26085030000104,128.26085030000104,128.26085030000104,128.26085030000104,128.26085030000104,128.26085030000104,128.26085030000104,128.26085030000104,128.26085030000104,128.26085030000104,003,P004,2025_Jan_18_1346,ConditionRich,2021.2.3,59.93004964626763,
64.75,65.0,41,0.0,Stimuli/Blank.png,0,0,0.0,0,122,122,122,,,,,,,,,,,,,64.75573910000094,0.005739100000937469,None,,128.9946201999992,128.9946201999992,128.9946201999992,128.9946201999992,128.9946201999992,128.9946201999992,128.9946201999992,128.9946201999992,128.9946201999992,128.9946201999992,003,P004,2025_Jan_18_1346,ConditionRich,2021.2.3,59.93004964626763,
65.0,65.75,40,0.75,Stimuli/P004/things_woman_02s.jpg,0,0,0.0,0,123,123,123,,,,,,,,,,,,,65.00804459999927,0.008044599999266211,None,,129.2615158999979,129.2615158999979,129.2615158999979,129.2615158999979,129.2615158999979,129.2615158999979,129.2615158999979,129.2615158999979,129.2615158999979,129.2615158999979,003,P004,2025_Jan_18_1346,ConditionRich,2021.2.3,59.93004964626763,
65.75,66.0,41,0.0,Stimuli/Blank.png,0,0,0.0,0,124,124,124,,,,,,,,,,,,,65.7728449999995,0.0228449999995064,5,0.19742560000304366,130.0121822000001,130.0121822000001,130.0121822000001,130.0121822000001,130.0121822000001,130.0121822000001,130.0121822000001,130.0121822000001,130.0121822000001,130.0121822000001,003,P004,2025_Jan_18_1346,ConditionRich,2021.2.3,59.93004964626763,
66.0,66.75,40,0.75,Stimuli/P004/things_woman_02s.jpg,0,0,0.0,0,125,125,125,,,,,,,,,,,,,66.00638329999856,0.0063832999985606875,None,,130.2457985000001,130.2457985000001,130.2457985000001,130.2457985000001,130.2457985000001,130.2457985000001,130.2457985000001,130.2457985000001,130.2457985000001,130.2457985000001,003,P004,2025_Jan_18_1346,ConditionRich,2021.2.3,59.93004964626763,
66.75,67.0,41,0.0,Stimuli/Blank.png,0,0,0.0,0,126,126,126,,,,,,,,,,,,,66.7574375999975,0.00743759999750182,None,,130.99637319999965,130.99637319999965,130.99637319999965,130.99637319999965,130.99637319999965,130.99637319999965,130.99637319999965,130.99637319999965,130.99637319999965,130.99637319999965,003,P004,2025_Jan_18_1346,ConditionRich,2021.2.3,59.93004964626763,
67.0,67.75,40,0.75,Stimuli/P004/things_woman_02s.jpg,0,0,0.0,0,127,127,127,,,,,,,,,,,,,67.00763369999913,0.007633699999132659,None,,131.2465931000006,131.2465931000006,131.2465931000006,131.2465931000006,131.2465931000006,131.2465931000006,131.2465931000006,131.2465931000006,131.2465931000006,131.2465931000006,003,P004,2025_Jan_18_1346,ConditionRich,2021.2.3,59.93004964626763,
67.75,68.0,41,0.0,Stimuli/Blank.png,0,0,0.0,0,128,128,128,,,,,,,,,,,,,67.75763939999888,0.007639399998879526,5,0.21249819999866304,131.9972564999989,131.9972564999989,131.9972564999989,131.9972564999989,131.9972564999989,131.9972564999989,131.9972564999989,131.9972564999989,131.9972564999989,131.9972564999989,003,P004,2025_Jan_18_1346,ConditionRich,2021.2.3,59.93004964626763,
68.0,68.75,30,0.75,Stimuli/P004/things_music_box_02s.jpg,0,0,0.0,0,129,129,129,,,,,,,,,,,,,68.0079455999985,0.00794559999849298,None,,132.24748039999758,132.24748039999758,132.24748039999758,132.24748039999758,132.24748039999758,132.24748039999758,132.24748039999758,132.24748039999758,132.24748039999758,132.24748039999758,003,P004,2025_Jan_18_1346,ConditionRich,2021.2.3,59.93004964626763,
68.75,69.0,41,0.0,Stimuli/Blank.png,0,0,0.0,0,130,130,130,,,,,,,,,,,,,68.75910199999998,0.0091019999999844,None,,132.99814879999758,132.99814879999758,132.99814879999758,132.99814879999758,132.99814879999758,132.99814879999758,132.99814879999758,132.99814879999758,132.99814879999758,132.99814879999758,003,P004,2025_Jan_18_1346,ConditionRich,2021.2.3,59.93004964626763,
69.0,69.75,30,0.75,Stimuli/P004/things_music_box_02s.jpg,0,0,0.0,0,131,131,131,,,,,,,,,,,,,69.00943320000079,0.009433200000785291,None,,133.2483676999982,133.2483676999982,133.2483676999982,133.2483676999982,133.2483676999982,133.2483676999982,133.2483676999982,133.2483676999982,133.2483676999982,133.2483676999982,003,P004,2025_Jan_18_1346,ConditionRich,2021.2.3,59.93004964626763,
69.75,70.0,41,0.0,Stimuli/Blank.png,0,0,0.0,0,132,132,132,,,,,,,,,,,,,69.76026559999809,0.010265599998092512,5,0.21072020000065095,133.99901949999912,133.99901949999912,133.99901949999912,133.99901949999912,133.99901949999912,133.99901949999912,133.99901949999912,133.99901949999912,133.99901949999912,133.99901949999912,003,P004,2025_Jan_18_1346,ConditionRich,2021.2.3,59.93004964626763,
70.0,70.75,30,0.75,Stimuli/P004/things_music_box_02s.jpg,0,0,0.0,0,133,133,133,,,,,,,,,,,,,70.00986069999999,0.009860699999990175,None,,134.24924159999864,134.24924159999864,134.24924159999864,134.24924159999864,134.24924159999864,134.24924159999864,134.24924159999864,134.24924159999864,134.24924159999864,134.24924159999864,003,P004,2025_Jan_18_1346,ConditionRich,2021.2.3,59.93004964626763,
70.75,71.0,41,0.0,Stimuli/Blank.png,0,0,0.0,0,134,134,134,,,,,,,,,,,,,70.76079910000044,0.010799100000440376,None,,134.99997119999898,134.99997119999898,134.99997119999898,134.99997119999898,134.99997119999898,134.99997119999898,134.99997119999898,134.99997119999898,134.99997119999898,134.99997119999898,003,P004,2025_Jan_18_1346,ConditionRich,2021.2.3,59.93004964626763,
71.0,71.75,30,0.75,Stimuli/P004/things_music_box_02s.jpg,0,0,0.0,0,135,135,135,,,,,,,,,,,,,71.0136136000001,0.013613600000098813,None,,135.2668104000004,135.2668104000004,135.2668104000004,135.2668104000004,135.2668104000004,135.2668104000004,135.2668104000004,135.2668104000004,135.2668104000004,135.2668104000004,003,P004,2025_Jan_18_1346,ConditionRich,2021.2.3,59.93004964626763,
71.75,72.0,41,0.0,Stimuli/Blank.png,0,0,0.0,0,136,136,136,,,,,,,,,,,,,71.77892240000074,0.02892240000073798,5,0.19211899999936577,136.0174702999975,136.0174702999975,136.0174702999975,136.0174702999975,136.0174702999975,136.0174702999975,136.0174702999975,136.0174702999975,136.0174702999975,136.0174702999975,003,P004,2025_Jan_18_1346,ConditionRich,2021.2.3,59.93004964626763,
72.0,72.75,3,0.75,Stimuli/P004/sun_afqjzrocqhabifao.jpg,0,0,0.0,0,137,137,137,,,,,,,,,,,,,72.01181849999921,0.011818499999208143,None,,136.25099919999775,136.25099919999775,136.25099919999775,136.25099919999775,136.25099919999775,136.25099919999775,136.25099919999775,136.25099919999775,136.25099919999775,136.25099919999775,003,P004,2025_Jan_18_1346,ConditionRich,2021.2.3,59.93004964626763,
72.75,73.0,41,0.0,Stimuli/Blank.png,0,0,0.0,0,138,138,138,,,,,,,,,,,,,72.7627293000005,0.012729300000501098,None,,137.00166180000087,137.00166180000087,137.00166180000087,137.00166180000087,137.00166180000087,137.00166180000087,137.00166180000087,137.00166180000087,137.00166180000087,137.00166180000087,003,P004,2025_Jan_18_1346,ConditionRich,2021.2.3,59.93004964626763,
73.0,73.75,3,0.75,Stimuli/P004/sun_afqjzrocqhabifao.jpg,0,0,0.0,0,139,139,139,,,,,,,,,,,,,73.01362199999858,0.013621999998576939,None,,137.2685683999989,137.2685683999989,137.2685683999989,137.2685683999989,137.2685683999989,137.2685683999989,137.2685683999989,137.2685683999989,137.2685683999989,137.2685683999989,003,P004,2025_Jan_18_1346,ConditionRich,2021.2.3,59.93004964626763,
73.75,74.0,41,0.0,Stimuli/Blank.png,0,0,0.0,0,140,140,140,,,,,,,,,,,,,73.78026709999904,0.030267099999036873,5,0.19022269999913988,138.01929919999748,138.01929919999748,138.01929919999748,138.01929919999748,138.01929919999748,138.01929919999748,138.01929919999748,138.01929919999748,138.01929919999748,138.01929919999748,003,P004,2025_Jan_18_1346,ConditionRich,2021.2.3,59.93004964626763,
74.0,74.75,3,0.75,Stimuli/P004/sun_afqjzrocqhabifao.jpg,0,0,0.0,0,141,141,141,,,,,,,,,,,,,74.01350950000051,0.013509500000509433,None,,138.25276010000016,138.25276010000016,138.25276010000016,138.25276010000016,138.25276010000016,138.25276010000016,138.25276010000016,138.25276010000016,138.25276010000016,138.25276010000016,003,P004,2025_Jan_18_1346,ConditionRich,2021.2.3,59.93004964626763,
74.75,75.0,41,0.0,Stimuli/Blank.png,0,0,0.0,0,142,142,142,,,,,,,,,,,,,74.76447929999995,0.014479299999948125,None,,139.0034244999988,139.0034244999988,139.0034244999988,139.0034244999988,139.0034244999988,139.0034244999988,139.0034244999988,139.0034244999988,139.0034244999988,139.0034244999988,003,P004,2025_Jan_18_1346,ConditionRich,2021.2.3,59.93004964626763,
75.0,75.75,3,0.75,Stimuli/P004/sun_afqjzrocqhabifao.jpg,0,0,0.0,0,143,143,143,,,,,,,,,,,,,75.01495919999797,0.014959199997974792,None,,139.25364329999866,139.25364329999866,139.25364329999866,139.25364329999866,139.25364329999866,139.25364329999866,139.25364329999866,139.25364329999866,139.25364329999866,139.25364329999866,003,P004,2025_Jan_18_1346,ConditionRich,2021.2.3,59.93004964626763,
75.75,76.0,41,0.0,Stimuli/Blank.png,0,0,0.0,0,144,144,144,,,,,,,,,,,,,75.76495090000026,0.014950900000258116,5,0.20542729999942821,140.00433490000069,140.00433490000069,140.00433490000069,140.00433490000069,140.00433490000069,140.00433490000069,140.00433490000069,140.00433490000069,140.00433490000069,140.00433490000069,003,P004,2025_Jan_18_1346,ConditionRich,2021.2.3,59.93004964626763,
76.0,76.75,13,0.75,Stimuli/P004/sun_bhbiqbqmwrowrqpd.jpg,0,0,0.0,0,145,145,145,,,,,,,,,,,,,76.01534579999861,0.015345799998613074,None,,140.27121999999872,140.27121999999872,140.27121999999872,140.27121999999872,140.27121999999872,140.27121999999872,140.27121999999872,140.27121999999872,140.27121999999872,140.27121999999872,003,P004,2025_Jan_18_1346,ConditionRich,2021.2.3,59.93004964626763,
76.75,77.0,41,0.0,Stimuli/Blank.png,0,0,0.0,0,146,146,146,,,,,,,,,,,,,76.76822659999743,0.018226599997433368,None,,141.02186729999812,141.02186729999812,141.02186729999812,141.02186729999812,141.02186729999812,141.02186729999812,141.02186729999812,141.02186729999812,141.02186729999812,141.02186729999812,003,P004,2025_Jan_18_1346,ConditionRich,2021.2.3,59.93004964626763,
77.0,77.75,13,0.75,Stimuli/P004/sun_bhbiqbqmwrowrqpd.jpg,0,0,0.0,0,147,147,147,,,,,,,,,,,,,77.01858859999993,0.01858859999993001,None,,141.27208769999925,141.27208769999925,141.27208769999925,141.27208769999925,141.27208769999925,141.27208769999925,141.27208769999925,141.27208769999925,141.27208769999925,141.27208769999925,003,P004,2025_Jan_18_1346,ConditionRich,2021.2.3,59.93004964626763,
77.75,78.0,41,0.0,Stimuli/Blank.png,0,0,0.0,0,148,148,148,,,,,,,,,,,,,77.76860149999993,0.018601499999931548,5,0.18677649999881396,142.02276569999958,142.02276569999958,142.02276569999958,142.02276569999958,142.02276569999958,142.02276569999958,142.02276569999958,142.02276569999958,142.02276569999958,142.02276569999958,003,P004,2025_Jan_18_1346,ConditionRich,2021.2.3,59.93004964626763,
78.0,78.75,13,0.75,Stimuli/P004/sun_bhbiqbqmwrowrqpd.jpg,1,0,0.75,0,149,149,149,,,,,,,,,,,,,78.01706429999831,0.017064299998310162,4,0.48229279999941355,142.2562900999983,142.2562900999983,142.2562900999983,142.2562900999983,142.2562900999983,142.2562900999983,142.2562900999983,None,142.2562900999983,142.2562900999983,003,P004,2025_Jan_18_1346,ConditionRich,2021.2.3,59.93004964626763,
78.75,79.0,41,0.0,Stimuli/Blank.png,0,0,0.0,0,150,150,150,,,,,,,,,,,,,78.75400599999921,0.004005999999208143,None,,143.00695819999964,143.00695819999964,143.00695819999964,143.00695819999964,143.00695819999964,143.00695819999964,143.00695819999964,143.00695819999964,143.00695819999964,143.00695819999964,003,P004,2025_Jan_18_1346,ConditionRich,2021.2.3,59.93004964626763,
79.0,79.75,13,0.75,Stimuli/P004/sun_bhbiqbqmwrowrqpd.jpg,0,0,0.0,0,151,151,151,,,,,,,,,,,,,79.0181765999987,0.018176599998696474,None,,143.25716349999857,143.25716349999857,143.25716349999857,143.25716349999857,143.25716349999857,143.25716349999857,143.25716349999857,143.25716349999857,143.25716349999857,143.25716349999857,003,P004,2025_Jan_18_1346,ConditionRich,2021.2.3,59.93004964626763,
79.75,80.0,41,0.0,Stimuli/Blank.png,0,0,0.0,0,152,152,152,,,,,,,,,,,,,79.75242470000012,0.0024247000001196284,None,,143.99117800000022,143.99117800000022,143.99117800000022,143.99117800000022,143.99117800000022,143.99117800000022,143.99117800000022,143.99117800000022,143.99117800000022,143.99117800000022,003,P004,2025_Jan_18_1346,ConditionRich,2021.2.3,59.93004964626763,
80.0,80.75,35,0.75,Stimuli/P004/things_satellite_dish_02s.jpg,0,0,0.0,0,153,153,153,,,,,,,,,,,,,80.00212209999881,0.0021220999988145195,None,,144.24136599999838,144.24136599999838,144.24136599999838,144.24136599999838,144.24136599999838,144.24136599999838,144.24136599999838,144.24136599999838,144.24136599999838,144.24136599999838,003,P004,2025_Jan_18_1346,ConditionRich,2021.2.3,59.93004964626763,
80.75,81.0,41,0.0,Stimuli/Blank.png,0,0,0.0,0,154,154,154,,,,,,,,,,,,,80.75355750000017,0.0035575000001699664,None,,144.99203370000032,144.99203370000032,144.99203370000032,144.99203370000032,144.99203370000032,144.99203370000032,144.99203370000032,144.99203370000032,144.99203370000032,144.99203370000032,003,P004,2025_Jan_18_1346,ConditionRich,2021.2.3,59.93004964626763,
81.0,81.75,35,0.75,Stimuli/P004/things_satellite_dish_02s.jpg,0,0,0.0,0,155,155,155,,,,,,,,,,,,,81.00355809999746,0.0035580999974627048,None,,145.24225549999755,145.24225549999755,145.24225549999755,145.24225549999755,145.24225549999755,145.24225549999755,145.24225549999755,145.24225549999755,145.24225549999755,145.24225549999755,003,P004,2025_Jan_18_1346,ConditionRich,2021.2.3,59.93004964626763,
81.75,82.0,41,0.0,Stimuli/Blank.png,0,0,0.0,0,156,156,156,,,,,,,,,,,,,81.75377359999766,0.003773599997657584,5,0.21673660000305972,145.99290589999873,145.99290589999873,145.99290589999873,145.99290589999873,145.99290589999873,145.99290589999873,145.99290589999873,145.99290589999873,145.99290589999873,145.99290589999873,003,P004,2025_Jan_18_1346,ConditionRich,2021.2.3,59.93004964626763,
82.0,82.75,35,0.75,Stimuli/P004/things_satellite_dish_02s.jpg,0,0,0.0,0,157,157,157,,,,,,,,,,,,,82.00413189999745,0.004131899997446453,None,,146.243132399999,146.243132399999,146.243132399999,146.243132399999,146.243132399999,146.243132399999,146.243132399999,146.243132399999,146.243132399999,146.243132399999,003,P004,2025_Jan_18_1346,ConditionRich,2021.2.3,59.93004964626763,
82.75,83.0,41,0.0,Stimuli/Blank.png,0,0,0.0,0,158,158,158,,,,,,,,,,,,,82.75431639999806,0.0043163999980606604,None,,146.9937839999984,146.9937839999984,146.9937839999984,146.9937839999984,146.9937839999984,146.9937839999984,146.9937839999984,146.9937839999984,146.9937839999984,146.9937839999984,003,P004,2025_Jan_18_1346,ConditionRich,2021.2.3,59.93004964626763,
83.0,83.75,35,0.75,Stimuli/P004/things_satellite_dish_02s.jpg,0,0,0.0,0,159,159,159,,,,,,,,,,,,,83.0046411000003,0.004641100000299048,None,,147.2440091999997,147.2440091999997,147.2440091999997,147.2440091999997,147.2440091999997,147.2440091999997,147.2440091999997,147.2440091999997,147.2440091999997,147.2440091999997,003,P004,2025_Jan_18_1346,ConditionRich,2021.2.3,59.93004964626763,
83.75,84.0,41,0.0,Stimuli/Blank.png,0,0,0.0,0,160,160,160,,,,,,,,,,,,,83.75566079999771,0.005660799997713184,5,0.21488479999970878,147.99466240000038,147.99466240000038,147.99466240000038,147.99466240000038,147.99466240000038,147.99466240000038,147.99466240000038,147.99466240000038,147.99466240000038,147.99466240000038,003,P004,2025_Jan_18_1346,ConditionRich,2021.2.3,59.93004964626763,
84.0,100.0,0,0.0,Stimuli/Blank.png,1,6,6.75,0,161,161,161,,,,,,,,,,,,,84.00547409999854,0.005474099998536985,5,15.964549100001022,148.24488539999948,148.24488539999948,148.24488539999948,148.24488539999948,148.24488539999948,148.24488539999948,154.2335039999998,154.98419659999854,148.24488539999948,148.24488539999948,003,P004,2025_Jan_18_1346,ConditionRich,2021.2.3,59.93004964626763,
100.0,100.75,22,0.75,Stimuli/P004/things_boy_02s.jpg,0,0,0.0,0,162,162,162,,,,,,,,,,,,,100.00272749999931,0.002727499999309657,None,,164.24230410000018,164.24230410000018,164.24230410000018,164.24230410000018,164.24230410000018,164.24230410000018,164.24230410000018,164.24230410000018,164.24230410000018,164.24230410000018,003,P004,2025_Jan_18_1346,ConditionRich,2021.2.3,59.93004964626763,
100.75,101.0,41,0.0,Stimuli/Blank.png,0,0,0.0,0,163,163,163,,,,,,,,,,,,,100.75373359999867,0.003733599998668069,None,,164.99296239999967,164.99296239999967,164.99296239999967,164.99296239999967,164.99296239999967,164.99296239999967,164.99296239999967,164.99296239999967,164.99296239999967,164.99296239999967,003,P004,2025_Jan_18_1346,ConditionRich,2021.2.3,59.93004964626763,
101.0,101.75,22,0.75,Stimuli/P004/things_boy_02s.jpg,0,0,0.0,0,164,164,164,,,,,,,,,,,,,101.00436139999874,0.004361399998742854,None,,165.24317969999902,165.24317969999902,165.24317969999902,165.24317969999902,165.24317969999902,165.24317969999902,165.24317969999902,165.24317969999902,165.24317969999902,165.24317969999902,003,P004,2025_Jan_18_1346,ConditionRich,2021.2.3,59.93004964626763,
101.75,102.0,41,0.0,Stimuli/Blank.png,0,0,0.0,0,165,165,165,,,,,,,,,,,,,101.75435119999747,0.004351199997472577,5,0.21568549999938114,165.99384169999757,165.99384169999757,165.99384169999757,165.99384169999757,165.99384169999757,165.99384169999757,165.99384169999757,165.99384169999757,165.99384169999757,165.99384169999757,003,P004,2025_Jan_18_1346,ConditionRich,2021.2.3,59.93004964626763,
102.0,102.75,22,0.75,Stimuli/P004/things_boy_02s.jpg,0,0,0.0,0,166,166,166,,,,,,,,,,,,,102.00470309999946,0.004703099999460392,None,,166.2441042999999,166.2441042999999,166.2441042999999,166.2441042999999,166.2441042999999,166.2441042999999,166.2441042999999,166.2441042999999,166.2441042999999,166.2441042999999,003,P004,2025_Jan_18_1346,ConditionRich,2021.2.3,59.93004964626763,
102.75,103.0,41,0.0,Stimuli/Blank.png,0,0,0.0,0,167,167,167,,,,,,,,,,,,,102.75606680000055,0.006066800000553485,None,,166.99472719999903,166.99472719999903,166.99472719999903,166.99472719999903,166.99472719999903,166.99472719999903,166.99472719999903,166.99472719999903,166.99472719999903,166.99472719999903,003,P004,2025_Jan_18_1346,ConditionRich,2021.2.3,59.93004964626763,
103.0,103.75,22,0.75,Stimuli/P004/things_boy_02s.jpg,0,0,0.0,0,168,168,168,,,,,,,,,,,,,103.00554009999905,0.005540099999052472,None,,167.2616679999992,167.2616679999992,167.2616679999992,167.2616679999992,167.2616679999992,167.2616679999992,167.2616679999992,167.2616679999992,167.2616679999992,167.2616679999992,003,P004,2025_Jan_18_1346,ConditionRich,2021.2.3,59.93004964626763,
103.75,104.0,41,0.0,Stimuli/Blank.png,0,0,0.0,0,169,169,169,,,,,,,,,,,,,103.77342289999797,0.02342289999796776,5,0.1971573000009812,168.01229769999918,168.01229769999918,168.01229769999918,168.01229769999918,168.01229769999918,168.01229769999918,168.01229769999918,168.01229769999918,168.01229769999918,168.01229769999918,003,P004,2025_Jan_18_1346,ConditionRich,2021.2.3,59.93004964626763,
104.0,104.75,29,0.75,Stimuli/P004/things_mat_02s.jpg,1,0,0.75,0,170,170,170,,,,,,,,,,,,,104.00710389999949,0.007103899999492569,4,0.42780710000079125,168.24582369999916,168.24582369999916,168.24582369999916,168.24582369999916,168.24582369999916,168.24582369999916,168.24582369999916,None,168.24582369999916,168.24582369999916,003,P004,2025_Jan_18_1346,ConditionRich,2021.2.3,59.93004964626763,
104.75,105.0,41,0.0,Stimuli/Blank.png,0,0,0.0,0,171,171,171,,,,,,,,,,,,,104.75715029999992,0.007150299999921117,None,,168.99649489999865,168.99649489999865,168.99649489999865,168.99649489999865,168.99649489999865,168.99649489999865,168.99649489999865,168.99649489999865,168.99649489999865,168.99649489999865,003,P004,2025_Jan_18_1346,ConditionRich,2021.2.3,59.93004964626763,
105.0,105.75,29,0.75,Stimuli/P004/things_mat_02s.jpg,0,0,0.0,0,172,172,172,,,,,,,,,,,,,105.00755790000039,0.007557900000392692,None,,169.2467031999986,169.2467031999986,169.2467031999986,169.2467031999986,169.2467031999986,169.2467031999986,169.2467031999986,169.2467031999986,169.2467031999986,169.2467031999986,003,P004,2025_Jan_18_1346,ConditionRich,2021.2.3,59.93004964626763,
105.75,106.0,41,0.0,Stimuli/Blank.png,0,0,0.0,0,173,173,173,,,,,,,,,,,,,105.75859209999908,0.008592099999077618,5,0.21226890000252752,169.99736149999808,169.99736149999808,169.99736149999808,169.99736149999808,169.99736149999808,169.99736149999808,169.99736149999808,169.99736149999808,169.99736149999808,169.99736149999808,003,P004,2025_Jan_18_1346,ConditionRich,2021.2.3,59.93004964626763,
106.0,106.75,29,0.75,Stimuli/P004/things_mat_02s.jpg,0,0,0.0,0,174,174,174,,,,,,,,,,,,,106.00893939999878,0.008939399998780573,None,,170.24758649999785,170.24758649999785,170.24758649999785,170.24758649999785,170.24758649999785,170.24758649999785,170.24758649999785,170.24758649999785,170.24758649999785,170.24758649999785,003,P004,2025_Jan_18_1346,ConditionRich,2021.2.3,59.93004964626763,
106.75,107.0,41,0.0,Stimuli/Blank.png,0,0,0.0,0,175,175,175,,,,,,,,,,,,,106.75900739999997,0.009007399999973131,None,,170.99825509999937,170.99825509999937,170.99825509999937,170.99825509999937,170.99825509999937,170.99825509999937,170.99825509999937,170.99825509999937,170.99825509999937,170.99825509999937,003,P004,2025_Jan_18_1346,ConditionRich,2021.2.3,59.93004964626763,
107.0,107.75,29,0.75,Stimuli/P004/things_mat_02s.jpg,0,0,0.0,0,176,176,176,,,,,,,,,,,,,107.00935749999917,0.009357499999168795,None,,171.24846949999846,171.24846949999846,171.24846949999846,171.24846949999846,171.24846949999846,171.24846949999846,171.24846949999846,171.24846949999846,171.24846949999846,171.24846949999846,003,P004,2025_Jan_18_1346,ConditionRich,2021.2.3,59.93004964626763,
107.75,108.0,41,0.0,Stimuli/Blank.png,0,0,0.0,0,177,177,177,,,,,,,,,,,,,107.76037429999997,0.010374299999966752,5,0.2103772000009485,171.99913169999854,171.99913169999854,171.99913169999854,171.99913169999854,171.99913169999854,171.99913169999854,171.99913169999854,171.99913169999854,171.99913169999854,171.99913169999854,003,P004,2025_Jan_18_1346,ConditionRich,2021.2.3,59.93004964626763,
108.0,108.75,15,0.75,Stimuli/P004/sun_bjhtdevvocmwtavk.jpg,0,0,0.0,0,178,178,178,,,,,,,,,,,,,108.01007949999985,0.01007949999984703,None,,172.2660422000008,172.2660422000008,172.2660422000008,172.2660422000008,172.2660422000008,172.2660422000008,172.2660422000008,172.2660422000008,172.2660422000008,172.2660422000008,003,P004,2025_Jan_18_1346,ConditionRich,2021.2.3,59.93004964626763,
108.75,109.0,41,0.0,Stimuli/Blank.png,0,0,0.0,0,179,179,179,,,,,,,,,,,,,108.77852799999891,0.02852799999891431,None,,173.01669709999987,173.01669709999987,173.01669709999987,173.01669709999987,173.01669709999987,173.01669709999987,173.01669709999987,173.01669709999987,173.01669709999987,173.01669709999987,003,P004,2025_Jan_18_1346,ConditionRich,2021.2.3,59.93004964626763,
109.0,109.75,15,0.75,Stimuli/P004/sun_bjhtdevvocmwtavk.jpg,0,0,0.0,0,180,180,180,,,,,,,,,,,,,109.01328849999845,0.013288499998452608,None,,173.26692619999812,173.26692619999812,173.26692619999812,173.26692619999812,173.26692619999812,173.26692619999812,173.26692619999812,173.26692619999812,173.26692619999812,173.26692619999812,003,P004,2025_Jan_18_1346,ConditionRich,2021.2.3,59.93004964626763,
109.75,110.0,41,0.0,Stimuli/Blank.png,0,0,0.0,0,181,181,181,,,,,,,,,,,,,109.77838949999932,0.028389499999320833,5,0.19229300000006333,174.01757179999913,174.01757179999913,174.01757179999913,174.01757179999913,174.01757179999913,174.01757179999913,174.01757179999913,174.01757179999913,174.01757179999913,174.01757179999913,003,P004,2025_Jan_18_1346,ConditionRich,2021.2.3,59.93004964626763,
110.0,110.75,15,0.75,Stimuli/P004/sun_bjhtdevvocmwtavk.jpg,0,0,0.0,0,182,182,182,,,,,,,,,,,,,110.01164119999885,0.011641199998848606,None,,174.2511102999997,174.2511102999997,174.2511102999997,174.2511102999997,174.2511102999997,174.2511102999997,174.2511102999997,174.2511102999997,174.2511102999997,174.2511102999997,003,P004,2025_Jan_18_1346,ConditionRich,2021.2.3,59.93004964626763,
110.75,111.0,41,0.0,Stimuli/Blank.png,0,0,0.0,0,183,183,183,,,,,,,,,,,,,110.76352380000026,0.013523800000257324,None,,175.01847189999899,175.01847189999899,175.01847189999899,175.01847189999899,175.01847189999899,175.01847189999899,175.01847189999899,175.01847189999899,175.01847189999899,175.01847189999899,003,P004,2025_Jan_18_1346,ConditionRich,2021.2.3,59.93004964626763,
111.0,111.75,15,0.75,Stimuli/P004/sun_bjhtdevvocmwtavk.jpg,0,0,0.0,0,184,184,184,,,,,,,,,,,,,111.02989809999781,0.02989809999780846,None,,175.28536669999812,175.28536669999812,175.28536669999812,175.28536669999812,175.28536669999812,175.28536669999812,175.28536669999812,175.28536669999812,175.28536669999812,175.28536669999812,003,P004,2025_Jan_18_1346,ConditionRich,2021.2.3,59.93004964626763,
111.75,112.0,41,0.0,Stimuli/Blank.png,0,0,0.0,0,185,185,185,,,,,,,,,,,,,111.78134330000103,0.031343300001026364,5,0.19038039999941248,176.01934869999968,176.01934869999968,176.01934869999968,176.01934869999968,176.01934869999968,176.01934869999968,176.01934869999968,176.01934869999968,176.01934869999968,176.01934869999968,003,P004,2025_Jan_18_1346,ConditionRich,2021.2.3,59.93004964626763,
112.0,112.75,39,0.75,Stimuli/P004/things_toad_02s.jpg,0,0,0.0,0,186,186,186,,,,,,,,,,,,,112.01420069999949,0.014200699999491917,None,,176.25287249999747,176.25287249999747,176.25287249999747,176.25287249999747,176.25287249999747,176.25287249999747,176.25287249999747,176.25287249999747,176.25287249999747,176.25287249999747,003,P004,2025_Jan_18_1346,ConditionRich,2021.2.3,59.93004964626763,
112.75,113.0,41,0.0,Stimuli/Blank.png,0,0,0.0,0,187,187,187,,,,,,,,,,,,,112.76412929999788,0.014129299997875933,None,,177.00352209999983,177.00352209999983,177.00352209999983,177.00352209999983,177.00352209999983,177.00352209999983,177.00352209999983,177.00352209999983,177.00352209999983,177.00352209999983,003,P004,2025_Jan_18_1346,ConditionRich,2021.2.3,59.93004964626763,
113.0,113.75,39,0.75,Stimuli/P004/things_toad_02s.jpg,0,0,0.0,0,188,188,188,,,,,,,,,,,,,113.01445840000088,0.014458400000876281,None,,177.25372760000027,177.25372760000027,177.25372760000027,177.25372760000027,177.25372760000027,177.25372760000027,177.25372760000027,177.25372760000027,177.25372760000027,177.25372760000027,003,P004,2025_Jan_18_1346,ConditionRich,2021.2.3,59.93004964626763,
113.75,114.0,41,0.0,Stimuli/Blank.png,0,0,0.0,0,189,189,189,,,,,,,,,,,,,113.76545160000023,0.015451600000233157,5,0.2050161000006483,178.00441189999765,178.00441189999765,178.00441189999765,178.00441189999765,178.00441189999765,178.00441189999765,178.00441189999765,178.00441189999765,178.00441189999765,178.00441189999765,003,P004,2025_Jan_18_1346,ConditionRich,2021.2.3,59.93004964626763,
114.0,114.75,39,0.75,Stimuli/P004/things_toad_02s.jpg,0,0,0.0,0,190,190,190,,,,,,,,,,,,,114.0151764000002,0.015176400000200374,None,,178.27132449999772,178.27132449999772,178.27132449999772,178.27132449999772,178.27132449999772,178.27132449999772,178.27132449999772,178.27132449999772,178.27132449999772,178.27132449999772,003,P004,2025_Jan_18_1346,ConditionRich,2021.2.3,59.93004964626763,
114.75,115.0,41,0.0,Stimuli/Blank.png,0,0,0.0,0,191,191,191,,,,,,,,,,,,,114.76807809999809,0.01807809999809251,None,,179.02199979999932,179.02199979999932,179.02199979999932,179.02199979999932,179.02199979999932,179.02199979999932,179.02199979999932,179.02199979999932,179.02199979999932,179.02199979999932,003,P004,2025_Jan_18_1346,ConditionRich,2021.2.3,59.93004964626763,
115.0,115.75,39,0.75,Stimuli/P004/things_toad_02s.jpg,0,0,0.0,0,192,192,192,,,,,,,,,,,,,115.01842530000067,0.018425300000671996,None,,179.27220149999994,179.27220149999994,179.27220149999994,179.27220149999994,179.27220149999994,179.27220149999994,179.27220149999994,179.27220149999994,179.27220149999994,179.27220149999994,003,P004,2025_Jan_18_1346,ConditionRich,2021.2.3,59.93004964626763,
115.75,116.0,41,0.0,Stimuli/Blank.png,0,0,0.0,0,193,193,193,,,,,,,,,,,,,115.76941169999918,0.01941169999918202,5,0.18657960000200546,180.0228578999995,180.0228578999995,180.0228578999995,180.0228578999995,180.0228578999995,180.0228578999995,180.0228578999995,180.0228578999995,180.0228578999995,180.0228578999995,003,P004,2025_Jan_18_1346,ConditionRich,2021.2.3,59.93004964626763,
116.0,116.75,28,0.75,Stimuli/P004/things_man_02s.jpg,0,0,0.0,0,194,194,194,,,,,,,,,,,,,116.01754230000006,0.017542300000059186,None,,180.2563971999989,180.2563971999989,180.2563971999989,180.2563971999989,180.2563971999989,180.2563971999989,180.2563971999989,180.2563971999989,180.2563971999989,180.2563971999989,003,P004,2025_Jan_18_1346,ConditionRich,2021.2.3,59.93004964626763,
116.75,117.0,41,0.0,Stimuli/Blank.png,0,0,0.0,0,195,195,195,,,,,,,,,,,,,116.75173480000012,0.0017348000001220498,None,,180.99038459999792,180.99038459999792,180.99038459999792,180.99038459999792,180.99038459999792,180.99038459999792,180.99038459999792,180.99038459999792,180.99038459999792,180.99038459999792,003,P004,2025_Jan_18_1346,ConditionRich,2021.2.3,59.93004964626763,
117.0,117.75,28,0.75,Stimuli/P004/things_man_02s.jpg,0,0,0.0,0,196,196,196,,,,,,,,,,,,,117.00150769999891,0.0015076999989105389,None,,181.24059789999956,181.24059789999956,181.24059789999956,181.24059789999956,181.24059789999956,181.24059789999956,181.24059789999956,181.24059789999956,181.24059789999956,181.24059789999956,003,P004,2025_Jan_18_1346,ConditionRich,2021.2.3,59.93004964626763,
117.75,118.0,41,0.0,Stimuli/Blank.png,0,0,0.0,0,197,197,197,,,,,,,,,,,,,117.75162329999876,0.0016232999987551011,5,0.2181075000007695,181.9912578000003,181.9912578000003,181.9912578000003,181.9912578000003,181.9912578000003,181.9912578000003,181.9912578000003,181.9912578000003,181.9912578000003,181.9912578000003,003,P004,2025_Jan_18_1346,ConditionRich,2021.2.3,59.93004964626763,
118.0,118.75,28,0.75,Stimuli/P004/things_man_02s.jpg,0,0,0.0,0,198,198,198,,,,,,,,,,,,,118.00182859999768,0.001828599997679703,None,,182.24147059999814,182.24147059999814,182.24147059999814,182.24147059999814,182.24147059999814,182.24147059999814,182.24147059999814,182.24147059999814,182.24147059999814,182.24147059999814,003,P004,2025_Jan_18_1346,ConditionRich,2021.2.3,59.93004964626763,
118.75,119.0,41,0.0,Stimuli/Blank.png,0,0,0.0,0,199,199,199,,,,,,,,,,,,,118.75340529999812,0.003405299998121336,None,,182.99213690000033,182.99213690000033,182.99213690000033,182.99213690000033,182.99213690000033,182.99213690000033,182.99213690000033,182.99213690000033,182.99213690000033,182.99213690000033,003,P004,2025_Jan_18_1346,ConditionRich,2021.2.3,59.93004964626763,
119.0,119.75,28,0.75,Stimuli/P004/things_man_02s.jpg,1,0,0.75,0,200,200,200,,,,,,,,,,,,,119.00324429999819,0.0032442999981867615,4,0.5104456000008213,183.24235199999748,183.24235199999748,183.24235199999748,183.24235199999748,183.24235199999748,183.24235199999748,183.24235199999748,183.97634710000057,183.24235199999748,183.24235199999748,003,P004,2025_Jan_18_1346,ConditionRich,2021.2.3,59.93004964626763,
119.75,120.0,41,0.0,Stimuli/Blank.png,0,0,0.0,0,201,201,201,,,,,,,,,,,,,119.75434640000094,0.0043464000009407755,5,0.21652019999964978,183.99301320000086,183.99301320000086,183.99301320000086,183.99301320000086,183.99301320000086,183.99301320000086,183.99301320000086,183.99301320000086,183.99301320000086,183.99301320000086,003,P004,2025_Jan_18_1346,ConditionRich,2021.2.3,59.93004964626763,
120.0,120.75,10,0.75,Stimuli/P004/sun_azzneunxibjvypza.jpg,0,0,0.0,0,202,202,202,,,,,,,,,,,,,120.00382669999817,0.0038266999981715344,None,,184.24323770000046,184.24323770000046,184.24323770000046,184.24323770000046,184.24323770000046,184.24323770000046,184.24323770000046,184.24323770000046,184.24323770000046,184.24323770000046,003,P004,2025_Jan_18_1346,ConditionRich,2021.2.3,59.93004964626763,
120.75,121.0,41,0.0,Stimuli/Blank.png,0,0,0.0,0,203,203,203,,,,,,,,,,,,,120.75501869999789,0.005018699997890508,None,,184.99389660000088,184.99389660000088,184.99389660000088,184.99389660000088,184.99389660000088,184.99389660000088,184.99389660000088,184.99389660000088,184.99389660000088,184.99389660000088,003,P004,2025_Jan_18_1346,ConditionRich,2021.2.3,59.93004964626763,
121.0,121.75,10,0.75,Stimuli/P004/sun_azzneunxibjvypza.jpg,0,0,0.0,0,204,204,204,,,,,,,,,,,,,121.00513349999892,0.005133499998919433,None,,185.26081219999833,185.26081219999833,185.26081219999833,185.26081219999833,185.26081219999833,185.26081219999833,185.26081219999833,185.26081219999833,185.26081219999833,185.26081219999833,003,P004,2025_Jan_18_1346,ConditionRich,2021.2.3,59.93004964626763,
121.75,122.0,41,0.0,Stimuli/Blank.png,0,0,0.0,0,205,205,205,,,,,,,,,,,,,121.77252120000048,0.022521200000483077,5,0.19793310000022757,186.011465399999,186.011465399999,186.011465399999,186.011465399999,186.011465399999,186.011465399999,186.011465399999,186.011465399999,186.011465399999,186.011465399999,003,P004,2025_Jan_18_1346,ConditionRich,2021.2.3,59.93004964626763,
122.0,122.75,10,0.75,Stimuli/P004/sun_azzneunxibjvypza.jpg,0,0,0.0,0,206,206,206,,,,,,,,,,,,,122.00630359999923,0.006303599999228027,None,,186.24499169999763,186.24499169999763,186.24499169999763,186.24499169999763,186.24499169999763,186.24499169999763,186.24499169999763,186.24499169999763,186.24499169999763,186.24499169999763,003,P004,2025_Jan_18_1346,ConditionRich,2021.2.3,59.93004964626763,
122.75,123.0,41,0.0,Stimuli/Blank.png,0,0,0.0,0,207,207,207,,,,,,,,,,,,,122.75872130000062,0.008721300000615884,None,,187.0123519000008,187.0123519000008,187.0123519000008,187.0123519000008,187.0123519000008,187.0123519000008,187.0123519000008,187.0123519000008,187.0123519000008,187.0123519000008,003,P004,2025_Jan_18_1346,ConditionRich,2021.2.3,59.93004964626763,
123.0,123.75,10,0.75,Stimuli/P004/sun_azzneunxibjvypza.jpg,0,0,0.0,0,208,208,208,,,,,,,,,,,,,123.02362849999918,0.02362849999917671,None,,187.27928650000104,187.27928650000104,187.27928650000104,187.27928650000104,187.27928650000104,187.27928650000104,187.27928650000104,187.27928650000104,187.27928650000104,187.27928650000104,003,P004,2025_Jan_18_1346,ConditionRich,2021.2.3,59.93004964626763,
123.75,124.0,41,0.0,Stimuli/Blank.png,0,0,0.0,0,209,209,209,,,,,,,,,,,,,123.77419169999848,0.024191699998482363,5,0.19632269999783603,188.01322419999997,188.01322419999997,188.01322419999997,188.01322419999997,188.01322419999997,188.01322419999997,188.01322419999997,188.01322419999997,188.01322419999997,188.01322419999997,003,P004,2025_Jan_18_1346,ConditionRich,2021.2.3,59.93004964626763,
124.0,124.75,33,0.75,Stimuli/P004/things_recorder_02s.jpg,0,0,0.0,0,210,210,210,,,,,,,,,,,,,124.00739859999885,0.007398599998850841,None,,188.24679879999894,188.24679879999894,188.24679879999894,188.24679879999894,188.24679879999894,188.24679879999894,188.24679879999894,188.24679879999894,188.24679879999894,188.24679879999894,003,P004,2025_Jan_18_1346,ConditionRich,2021.2.3,59.93004964626763,
124.75,125.0,41,0.0,Stimuli/Blank.png,0,0,0.0,0,211,211,211,,,,,,,,,,,,,124.75894649999827,0.008946499998273794,None,,188.997445099998,188.997445099998,188.997445099998,188.997445099998,188.997445099998,188.997445099998,188.997445099998,188.997445099998,188.997445099998,188.997445099998,003,P004,2025_Jan_18_1346,ConditionRich,2021.2.3,59.93004964626763,
125.0,125.75,33,0.75,Stimuli/P004/things_recorder_02s.jpg,0,0,0.0,0,212,212,212,,,,,,,,,,,,,125.00927539999975,0.009275399999751244,None,,189.26432270000078,189.26432270000078,189.26432270000078,189.26432270000078,189.26432270000078,189.26432270000078,189.26432270000078,189.26432270000078,189.26432270000078,189.26432270000078,003,P004,2025_Jan_18_1346,ConditionRich,2021.2.3,59.93004964626763,
125.75,126.0,41,0.0,Stimuli/Blank.png,0,0,0.0,0,213,213,213,,,,,,,,,,,,,125.77662469999996,0.026624699999956647,5,0.19434629999886965,190.01500039999883,190.01500039999883,190.01500039999883,190.01500039999883,190.01500039999883,190.01500039999883,190.01500039999883,190.01500039999883,190.01500039999883,190.01500039999883,003,P004,2025_Jan_18_1346,ConditionRich,2021.2.3,59.93004964626763,
126.0,126.75,33,0.75,Stimuli/P004/things_recorder_02s.jpg,1,0,0.75,0,214,214,214,,,,,,,,,,,,,126.00951999999961,0.009519999999611173,4,0.3920216000005894,190.24851979999949,190.24851979999949,190.24851979999949,190.24851979999949,190.24851979999949,190.24851979999949,190.24851979999949,190.9825067999991,190.24851979999949,190.24851979999949,003,P004,2025_Jan_18_1346,ConditionRich,2021.2.3,59.93004964626763,
126.75,127.0,41,0.0,Stimuli/Blank.png,0,0,0.0,0,215,215,215,,,,,,,,,,,,,126.76034290000098,0.010342900000978261,None,,190.99918210000033,190.99918210000033,190.99918210000033,190.99918210000033,190.99918210000033,190.99918210000033,190.99918210000033,190.99918210000033,190.99918210000033,190.99918210000033,003,P004,2025_Jan_18_1346,ConditionRich,2021.2.3,59.93004964626763,
127.0,127.75,33,0.75,Stimuli/P004/things_recorder_02s.jpg,0,0,0.0,0,216,216,216,,,,,,,,,,,,,127.01053989999855,0.010539899998548208,None,,191.24940149999748,191.24940149999748,191.24940149999748,191.24940149999748,191.24940149999748,191.24940149999748,191.24940149999748,191.24940149999748,191.24940149999748,191.24940149999748,003,P004,2025_Jan_18_1346,ConditionRich,2021.2.3,59.93004964626763,
127.75,128.0,41,0.0,Stimuli/Blank.png,0,0,0.0,0,217,217,217,,,,,,,,,,,,,127.76053169999796,0.010531699997955002,5,0.20936710000023595,192.00006310000026,192.00006310000026,192.00006310000026,192.00006310000026,192.00006310000026,192.00006310000026,192.00006310000026,192.00006310000026,192.00006310000026,192.00006310000026,003,P004,2025_Jan_18_1346,ConditionRich,2021.2.3,59.93004964626763,
128.0,128.75,19,0.75,Stimuli/P004/sun_bucebxfexknakpma.jpg,0,0,0.0,0,218,218,218,,,,,,,,,,,,,128.01149019999866,0.01149019999866141,None,,192.26696509999965,192.26696509999965,192.26696509999965,192.26696509999965,192.26696509999965,192.26696509999965,192.26696509999965,192.26696509999965,192.26696509999965,192.26696509999965,003,P004,2025_Jan_18_1346,ConditionRich,2021.2.3,59.93004964626763,
128.75,129.0,41,0.0,Stimuli/Blank.png,0,0,0.0,0,219,219,219,,,,,,,,,,,,,128.77941649999775,0.02941649999775109,None,,193.01765589999923,193.01765589999923,193.01765589999923,193.01765589999923,193.01765589999923,193.01765589999923,193.01765589999923,193.01765589999923,193.01765589999923,193.01765589999923,003,P004,2025_Jan_18_1346,ConditionRich,2021.2.3,59.93004964626763,
129.0,129.75,19,0.75,Stimuli/P004/sun_bucebxfexknakpma.jpg,0,0,0.0,0,220,220,220,,,,,,,,,,,,,129.01268870000058,0.012688700000580866,None,,193.26786889999858,193.26786889999858,193.26786889999858,193.26786889999858,193.26786889999858,193.26786889999858,193.26786889999858,193.26786889999858,193.26786889999858,193.26786889999858,003,P004,2025_Jan_18_1346,ConditionRich,2021.2.3,59.93004964626763,
129.75,130.0,41,0.0,Stimuli/Blank.png,0,0,0.0,0,221,221,221,,,,,,,,,,,,,129.77939989999868,0.029399899998679757,5,0.19114080000144895,194.0185094999979,194.0185094999979,194.0185094999979,194.0185094999979,194.0185094999979,194.0185094999979,194.0185094999979,194.0185094999979,194.0185094999979,194.0185094999979,003,P004,2025_Jan_18_1346,ConditionRich,2021.2.3,59.93004964626763,
130.0,130.75,19,0.75,Stimuli/P004/sun_bucebxfexknakpma.jpg,0,0,0.0,0,222,222,222,,,,,,,,,,,,,130.01297319999867,0.01297319999866886,None,,194.25204479999957,194.25204479999957,194.25204479999957,194.25204479999957,194.25204479999957,194.25204479999957,194.25204479999957,194.25204479999957,194.25204479999957,194.25204479999957,003,P004,2025_Jan_18_1346,ConditionRich,2021.2.3,59.93004964626763,
130.75,131.0,41,0.0,Stimuli/Blank.png,0,0,0.0,0,223,223,223,,,,,,,,,,,,,130.76353689999814,0.013536899998143781,None,,195.0027095000005,195.0027095000005,195.0027095000005,195.0027095000005,195.0027095000005,195.0027095000005,195.0027095000005,195.0027095000005,195.0027095000005,195.0027095000005,003,P004,2025_Jan_18_1346,ConditionRich,2021.2.3,59.93004964626763,
131.0,131.75,19,0.75,Stimuli/P004/sun_bucebxfexknakpma.jpg,0,0,0.0,0,224,224,224,,,,,,,,,,,,,131.01398010000048,0.013980100000480888,None,,195.2529281999996,195.2529281999996,195.2529281999996,195.2529281999996,195.2529281999996,195.2529281999996,195.2529281999996,195.2529281999996,195.2529281999996,195.2529281999996,003,P004,2025_Jan_18_1346,ConditionRich,2021.2.3,59.93004964626763,
131.75,132.0,41,0.0,Stimuli/Blank.png,0,0,0.0,0,225,225,225,,,,,,,,,,,,,131.76447650000046,0.014476500000455417,5,0.20603490000212332,196.00359249999747,196.00359249999747,196.00359249999747,196.00359249999747,196.00359249999747,196.00359249999747,196.00359249999747,196.00359249999747,196.00359249999747,196.00359249999747,003,P004,2025_Jan_18_1346,ConditionRich,2021.2.3,59.93004964626763,
132.0,132.75,25,0.75,Stimuli/P004/things_girl_02s.jpg,0,0,0.0,0,226,226,226,,,,,,,,,,,,,132.01474679999956,0.01474679999955697,None,,196.27050410000084,196.27050410000084,196.27050410000084,196.27050410000084,196.27050410000084,196.27050410000084,196.27050410000084,196.27050410000084,196.27050410000084,196.27050410000084,003,P004,2025_Jan_18_1346,ConditionRich,2021.2.3,59.93004964626763,
132.75,133.0,41,0.0,Stimuli/Blank.png,0,0,0.0,0,227,227,227,,,,,,,,,,,,,132.78175980000015,0.03175980000014533,None,,197.02116159999787,197.02116159999787,197.02116159999787,197.02116159999787,197.02116159999787,197.02116159999787,197.02116159999787,197.02116159999787,197.02116159999787,197.02116159999787,003,P004,2025_Jan_18_1346,ConditionRich,2021.2.3,59.93004964626763,
133.0,133.75,25,0.75,Stimuli/P004/things_girl_02s.jpg,0,0,0.0,0,228,228,228,,,,,,,,,,,,,133.01710140000068,0.017101400000683498,None,,197.27139469999747,197.27139469999747,197.27139469999747,197.27139469999747,197.27139469999747,197.27139469999747,197.27139469999747,197.27139469999747,197.27139469999747,197.27139469999747,003,P004,2025_Jan_18_1346,ConditionRich,2021.2.3,59.93004964626763,
133.75,134.0,41,0.0,Stimuli/Blank.png,0,0,0.0,0,229,229,229,,,,,,,,,,,,,133.76795439999842,0.017954399998416193,5,0.18732709999676445,198.02204189999975,198.02204189999975,198.02204189999975,198.02204189999975,198.02204189999975,198.02204189999975,198.02204189999975,198.02204189999975,198.02204189999975,198.02204189999975,003,P004,2025_Jan_18_1346,ConditionRich,2021.2.3,59.93004964626763,
134.0,134.75,25,0.75,Stimuli/P004/things_girl_02s.jpg,0,0,0.0,0,230,230,230,,,,,,,,,,,,,134.01678339999853,0.016783399998530513,None,,198.25556999999753,198.25556999999753,198.25556999999753,198.25556999999753,198.25556999999753,198.25556999999753,198.25556999999753,198.25556999999753,198.25556999999753,198.25556999999753,003,P004,2025_Jan_18_1346,ConditionRich,2021.2.3,59.93004964626763,
134.75,135.0,41,0.0,Stimuli/Blank.png,0,0,0.0,0,231,231,231,,,,,,,,,,,,,134.75018909999926,0.00018909999926108867,None,,198.9895507000001,198.9895507000001,198.9895507000001,198.9895507000001,198.9895507000001,198.9895507000001,198.9895507000001,198.9895507000001,198.9895507000001,198.9895507000001,003,P004,2025_Jan_18_1346,ConditionRich,2021.2.3,59.93004964626763,
135.0,135.75,25,0.75,Stimuli/P004/things_girl_02s.jpg,0,0,0.0,0,232,232,232,,,,,,,,,,,,,135.00058179999905,0.0005817999990540557,None,,199.25646009999764,199.25646009999764,199.25646009999764,199.25646009999764,199.25646009999764,199.25646009999764,199.25646009999764,199.25646009999764,199.25646009999764,199.25646009999764,003,P004,2025_Jan_18_1346,ConditionRich,2021.2.3,59.93004964626763,
135.75,136.0,41,0.0,Stimuli/Blank.png,0,0,0.0,0,233,233,233,,,,,,,,,,,,,135.76837890000024,0.018378900000243448,None,,200.00711210000009,200.00711210000009,200.00711210000009,200.00711210000009,200.00711210000009,200.00711210000009,200.00711210000009,200.00711210000009,200.00711210000009,200.00711210000009,003,P004,2025_Jan_18_1346,ConditionRich,2021.2.3,59.93004964626763,
136.0,136.75,8,0.75,Stimuli/P004/sun_asxkyzleyfgbqfrs.jpg,0,0,0.0,0,234,234,234,,,,,,,,,,,,,136.00165619999825,0.0016561999982513953,None,,200.24062649999905,200.24062649999905,200.24062649999905,200.24062649999905,200.24062649999905,200.24062649999905,200.24062649999905,200.24062649999905,200.24062649999905,200.24062649999905,003,P004,2025_Jan_18_1346,ConditionRich,2021.2.3,59.93004964626763,
136.75,137.0,41,0.0,Stimuli/Blank.png,0,0,0.0,0,235,235,235,,,,,,,,,,,,,136.75168900000062,0.001689000000624219,None,,200.9913603999994,200.9913603999994,200.9913603999994,200.9913603999994,200.9913603999994,200.9913603999994,200.9913603999994,200.9913603999994,200.9913603999994,200.9913603999994,003,P004,2025_Jan_18_1346,ConditionRich,2021.2.3,59.93004964626763,
137.0,137.75,8,0.75,Stimuli/P004/sun_asxkyzleyfgbqfrs.jpg,0,0,0.0,0,236,236,236,,,,,,,,,,,,,137.00319390000004,0.003193900000042049,None,,201.25824379999904,201.25824379999904,201.25824379999904,201.25824379999904,201.25824379999904,201.25824379999904,201.25824379999904,201.25824379999904,201.25824379999904,201.25824379999904,003,P004,2025_Jan_18_1346,ConditionRich,2021.2.3,59.93004964626763,
137.75,138.0,41,0.0,Stimuli/Blank.png,0,0,0.0,0,237,237,237,,,,,,,,,,,,,137.76995130000068,0.01995130000068457,5,0.20069769999827258,202.008870499998,202.008870499998,202.008870499998,202.008870499998,202.008870499998,202.008870499998,202.008870499998,202.008870499998,202.008870499998,202.008870499998,003,P004,2025_Jan_18_1346,ConditionRich,2021.2.3,59.93004964626763,
138.0,138.75,8,0.75,Stimuli/P004/sun_asxkyzleyfgbqfrs.jpg,0,0,0.0,0,238,238,238,,,,,,,,,,,,,138.00357480000093,0.0035748000009334646,None,,202.24242439999944,202.24242439999944,202.24242439999944,202.24242439999944,202.24242439999944,202.24242439999944,202.24242439999944,202.24242439999944,202.24242439999944,202.24242439999944,003,P004,2025_Jan_18_1346,ConditionRich,2021.2.3,59.93004964626763,
138.75,139.0,41,0.0,Stimuli/Blank.png,0,0,0.0,0,239,239,239,,,,,,,,,,,,,138.7537506999979,0.0037506999979086686,None,,202.99307599999884,202.99307599999884,202.99307599999884,202.99307599999884,202.99307599999884,202.99307599999884,202.99307599999884,202.99307599999884,202.99307599999884,202.99307599999884,003,P004,2025_Jan_18_1346,ConditionRich,2021.2.3,59.93004964626763,
139.0,139.75,8,0.75,Stimuli/P004/sun_asxkyzleyfgbqfrs.jpg,0,0,0.0,0,240,240,240,,,,,,,,,,,,,139.00406339999972,0.004063399999722606,None,,203.2432955999975,203.2432955999975,203.2432955999975,203.2432955999975,203.2432955999975,203.2432955999975,203.2432955999975,203.2432955999975,203.2432955999975,203.2432955999975,003,P004,2025_Jan_18_1346,ConditionRich,2021.2.3,59.93004964626763,
139.75,140.0,41,0.0,Stimuli/Blank.png,0,0,0.0,0,241,241,241,,,,,,,,,,,,,139.75506069999756,0.005060699997557094,5,0.21549039999808883,203.9939564999986,203.9939564999986,203.9939564999986,203.9939564999986,203.9939564999986,203.9939564999986,203.9939564999986,203.9939564999986,203.9939564999986,203.9939564999986,003,P004,2025_Jan_18_1346,ConditionRich,2021.2.3,59.93004964626763,
140.0,140.75,4,0.75,Stimuli/P004/sun_albtqdieqkajejrg.jpg,0,0,0.0,0,242,242,242,,,,,,,,,,,,,140.0052453999997,0.0052453999996942,None,,204.26086729999952,204.26086729999952,204.26086729999952,204.26086729999952,204.26086729999952,204.26086729999952,204.26086729999952,204.26086729999952,204.26086729999952,204.26086729999952,003,P004,2025_Jan_18_1346,ConditionRich,2021.2.3,59.93004964626763,
140.75,141.0,41,0.0,Stimuli/Blank.png,0,0,0.0,0,243,243,243,,,,,,,,,,,,,140.77323129999786,0.023231299997860333,None,,205.0115267000001,205.0115267000001,205.0115267000001,205.0115267000001,205.0115267000001,205.0115267000001,205.0115267000001,205.0115267000001,205.0115267000001,205.0115267000001,003,P004,2025_Jan_18_1346,ConditionRich,2021.2.3,59.93004964626763,
141.0,141.75,4,0.75,Stimuli/P004/sun_albtqdieqkajejrg.jpg,0,0,0.0,0,244,244,244,,,,,,,,,,,,,141.00827389999904,0.008273899999039713,None,,205.26173879999988,205.26173879999988,205.26173879999988,205.26173879999988,205.26173879999988,205.26173879999988,205.26173879999988,205.26173879999988,205.26173879999988,205.26173879999988,003,P004,2025_Jan_18_1346,ConditionRich,2021.2.3,59.93004964626763,
141.75,142.0,41,0.0,Stimuli/Blank.png,0,0,0.0,0,245,245,245,,,,,,,,,,,,,141.7733593999983,0.023359399998298613,5,0.1968832000020484,206.01240619999953,206.01240619999953,206.01240619999953,206.01240619999953,206.01240619999953,206.01240619999953,206.01240619999953,206.01240619999953,206.01240619999953,206.01240619999953,003,P004,2025_Jan_18_1346,ConditionRich,2021.2.3,59.93004964626763,
142.0,142.75,4,0.75,Stimuli/P004/sun_albtqdieqkajejrg.jpg,0,0,0.0,0,246,246,246,,,,,,,,,,,,,142.0072758999995,0.007275899999513058,None,,206.24593639999875,206.24593639999875,206.24593639999875,206.24593639999875,206.24593639999875,206.24593639999875,206.24593639999875,206.24593639999875,206.24593639999875,206.24593639999875,003,P004,2025_Jan_18_1346,ConditionRich,2021.2.3,59.93004964626763,
142.75,143.0,41,0.0,Stimuli/Blank.png,0,0,0.0,0,247,247,247,,,,,,,,,,,,,142.75780269999814,0.007802699998137541,None,,206.99659379999866,206.99659379999866,206.99659379999866,206.99659379999866,206.99659379999866,206.99659379999866,206.99659379999866,206.99659379999866,206.99659379999866,206.99659379999866,003,P004,2025_Jan_18_1346,ConditionRich,2021.2.3,59.93004964626763,
143.0,143.75,4,0.75,Stimuli/P004/sun_albtqdieqkajejrg.jpg,0,0,0.0,0,248,248,248,,,,,,,,,,,,,143.008705799999,0.008705799999006558,None,,207.26349570000093,207.26349570000093,207.26349570000093,207.26349570000093,207.26349570000093,207.26349570000093,207.26349570000093,207.26349570000093,207.26349570000093,207.26349570000093,003,P004,2025_Jan_18_1346,ConditionRich,2021.2.3,59.93004964626763,
143.75,144.0,41,0.0,Stimuli/Blank.png,0,0,0.0,0,249,249,249,,,,,,,,,,,,,143.77526529999886,0.025265299998864066,5,0.19522299999880488,208.0141576999995,208.0141576999995,208.0141576999995,208.0141576999995,208.0141576999995,208.0141576999995,208.0141576999995,208.0141576999995,208.0141576999995,208.0141576999995,003,P004,2025_Jan_18_1346,ConditionRich,2021.2.3,59.93004964626763,
144.0,144.75,37,0.75,Stimuli/P004/things_ski_lift_02s.jpg,0,0,0.0,0,250,250,250,,,,,,,,,,,,,144.00854009999966,0.008540099999663653,None,,208.24769899999956,208.24769899999956,208.24769899999956,208.24769899999956,208.24769899999956,208.24769899999956,208.24769899999956,208.24769899999956,208.24769899999956,208.24769899999956,003,P004,2025_Jan_18_1346,ConditionRich,2021.2.3,59.93004964626763,
144.75,145.0,41,0.0,Stimuli/Blank.png,0,0,0.0,0,251,251,251,,,,,,,,,,,,,144.7594371999985,0.009437199998501455,None,,208.9983566999981,208.9983566999981,208.9983566999981,208.9983566999981,208.9983566999981,208.9983566999981,208.9983566999981,208.9983566999981,208.9983566999981,208.9983566999981,003,P004,2025_Jan_18_1346,ConditionRich,2021.2.3,59.93004964626763,
145.0,145.75,37,0.75,Stimuli/P004/things_ski_lift_02s.jpg,0,0,0.0,0,252,252,252,,,,,,,,,,,,,145.00979440000083,0.009794400000828318,None,,209.26526509999894,209.26526509999894,209.26526509999894,209.26526509999894,209.26526509999894,209.26526509999894,209.26526509999894,209.26526509999894,209.26526509999894,209.26526509999894,003,P004,2025_Jan_18_1346,ConditionRich,2021.2.3,59.93004964626763,
145.75,146.0,41,0.0,Stimuli/Blank.png,0,0,0.0,0,253,253,253,,,,,,,,,,,,,145.77666350000072,0.026663500000722706,5,0.19439350000175182,210.0159425999991,210.0159425999991,210.0159425999991,210.0159425999991,210.0159425999991,210.0159425999991,210.0159425999991,210.0159425999991,210.0159425999991,210.0159425999991,003,P004,2025_Jan_18_1346,ConditionRich,2021.2.3,59.93004964626763,
146.0,146.75,37,0.75,Stimuli/P004/things_ski_lift_02s.jpg,0,0,0.0,0,254,254,254,,,,,,,,,,,,,146.00995089999924,0.009950899999239482,None,,210.26615029999812,210.26615029999812,210.26615029999812,210.26615029999812,210.26615029999812,210.26615029999812,210.26615029999812,210.26615029999812,210.26615029999812,210.26615029999812,003,P004,2025_Jan_18_1346,ConditionRich,2021.2.3,59.93004964626763,
146.75,147.0,41,0.0,Stimuli/Blank.png,0,0,0.0,0,255,255,255,,,,,,,,,,,,,146.77837630000067,0.028376300000672927,None,,211.01681140000073,211.01681140000073,211.01681140000073,211.01681140000073,211.01681140000073,211.01681140000073,211.01681140000073,211.01681140000073,211.01681140000073,211.01681140000073,003,P004,2025_Jan_18_1346,ConditionRich,2021.2.3,59.93004964626763,
147.0,147.75,37,0.75,Stimuli/P004/things_ski_lift_02s.jpg,0,0,0.0,0,256,256,256,,,,,,,,,,,,,147.01113310000073,0.011133100000733975,None,,211.25034279999818,211.25034279999818,211.25034279999818,211.25034279999818,211.25034279999818,211.25034279999818,211.25034279999818,211.25034279999818,211.25034279999818,211.25034279999818,003,P004,2025_Jan_18_1346,ConditionRich,2021.2.3,59.93004964626763,
147.75,148.0,41,0.0,Stimuli/Blank.png,0,0,0.0,0,257,257,257,,,,,,,,,,,,,147.7627470999978,0.012747099997795885,5,0.20946530000219354,212.00100259999817,212.00100259999817,212.00100259999817,212.00100259999817,212.00100259999817,212.00100259999817,212.00100259999817,212.00100259999817,212.00100259999817,212.00100259999817,003,P004,2025_Jan_18_1346,ConditionRich,2021.2.3,59.93004964626763,
148.0,148.75,17,0.75,Stimuli/P004/sun_bojovhhraxtgafcy.jpg,0,0,0.0,0,258,258,258,,,,,,,,,,,,,148.01250459999937,0.012504599999374477,None,,212.25122179999744,212.25122179999744,212.25122179999744,212.25122179999744,212.25122179999744,212.25122179999744,212.25122179999744,212.25122179999744,212.25122179999744,212.25122179999744,003,P004,2025_Jan_18_1346,ConditionRich,2021.2.3,59.93004964626763,
