eventStartTime,eventEndTime,eventCond,imSize,imFile,responseEvent,fixRespStart,fixRespEnd,Events.thisRepN,Events.thisTrialN,Events.thisN,Events.thisIndex,Instructions.started,Instructions.stopped,participantReadyResponse.keys,participantReadyResponse.rt,participantReadyResponse.started,participantReadyResponse.stopped,startWaitforTrigger,triggerResponse.keys,triggerResponse.rt,triggerResponse.started,triggerResponse.stopped,globalTimer,actualStartTime,startTimingDiff,participantResponse.keys,participantResponse.rt,participantResponse.started,participantResponse.stopped,image.started,image.stopped,fixationOutside.started,fixationOutside.stopped,fixationResponse.started,fixationResponse.stopped,fixationInside.started,fixationInside.stopped,session,participant,date,expName,psychopyVersion,frameRate,
,,,,,,,,,,,,11.219219800001156,None,4,30.542034499998408,11.219219800001156,None,,,,,,,,,,,,,,,,,,,,,006,P004,2025_Jan_18_1415,ConditionRich,2021.2.3,59.927643363586846,
,,,,,,,,,,,,,,,,,,41.77142679999815,5,15.070271799999318,41.78419629999917,None,,,,,,,,,,,,,,,,006,P004,2025_Jan_18_1415,ConditionRich,2021.2.3,59.927643363586846,
0.0,4.0,0,0.0,Stimuli/Blank.png,0,0,0.0,0,0,0,0,,,,,,,,,,,,56.867851700000756,0.05399810000017169,0.05399810000017169,5,3.906686600003013,56.94754599999942,None,56.94754599999942,None,56.94754599999942,None,56.94754599999942,56.94754599999942,56.94754599999942,None,006,P004,2025_Jan_18_1415,ConditionRich,2021.2.3,59.927643363586846,
4.0,4.75,11,0.75,Stimuli/P004/sun_bawmjlzsuuivqjhi.jpg,0,0,0.0,0,1,1,1,,,,,,,,,,,,,4.020639200000005,0.020639200000005076,None,,60.90132910000102,60.90132910000102,60.90132910000102,60.90132910000102,60.90132910000102,60.90132910000102,60.90132910000102,60.90132910000102,60.90132910000102,60.90132910000102,006,P004,2025_Jan_18_1415,ConditionRich,2021.2.3,59.927643363586846,
4.75,5.0,41,0.0,Stimuli/Blank.png,0,0,0.0,0,2,2,2,,,,,,,,,,,,,4.755301500001224,0.005301500001223758,None,,61.6519902,61.6519902,61.6519902,61.6519902,61.6519902,61.6519902,61.6519902,61.6519902,61.6519902,61.6519902,006,P004,2025_Jan_18_1415,ConditionRich,2021.2.3,59.927643363586846,
5.0,5.75,11,0.75,Stimuli/P004/sun_bawmjlzsuuivqjhi.jpg,0,0,0.0,0,3,3,3,,,,,,,,,,,,,5.019254100003309,0.01925410000330885,None,,61.90190910000092,61.90190910000092,61.90190910000092,61.90190910000092,61.90190910000092,61.90190910000092,61.90190910000092,61.90190910000092,61.90190910000092,61.90190910000092,006,P004,2025_Jan_18_1415,ConditionRich,2021.2.3,59.927643363586846,
5.75,6.0,41,0.0,Stimuli/Blank.png,0,0,0.0,0,4,4,4,,,,,,,,,,,,,5.753403300001082,0.0034033000010822434,5,0.2183560999983456,62.635888599998,62.635888599998,62.635888599998,62.635888599998,62.635888599998,62.635888599998,62.635888599998,62.635888599998,62.635888599998,62.635888599998,006,P004,2025_Jan_18_1415,ConditionRich,2021.2.3,59.927643363586846,
6.0,6.75,11,0.75,Stimuli/P004/sun_bawmjlzsuuivqjhi.jpg,0,0,0.0,0,5,5,5,,,,,,,,,,,,,6.003907400001481,0.00390740000148071,None,,62.88611999999921,62.88611999999921,62.88611999999921,62.88611999999921,62.88611999999921,62.88611999999921,62.88611999999921,62.88611999999921,62.88611999999921,62.88611999999921,006,P004,2025_Jan_18_1415,ConditionRich,2021.2.3,59.927643363586846,
6.75,7.0,41,0.0,Stimuli/Blank.png,0,0,0.0,0,6,6,6,,,,,,,,,,,,,6.755282900001475,0.005282900001475355,None,,63.63704009999856,63.63704009999856,63.63704009999856,63.63704009999856,63.63704009999856,63.63704009999856,63.63704009999856,63.63704009999856,63.63704009999856,63.63704009999856,006,P004,2025_Jan_18_1415,ConditionRich,2021.2.3,59.927643363586846,
7.0,7.75,11,0.75,Stimuli/P004/sun_bawmjlzsuuivqjhi.jpg,0,0,0.0,0,7,7,7,,,,,,,,,,,,,7.00560140000016,0.005601400000159629,None,,63.90368939999826,63.90368939999826,63.90368939999826,63.90368939999826,63.90368939999826,63.90368939999826,63.90368939999826,63.90368939999826,63.90368939999826,63.90368939999826,006,P004,2025_Jan_18_1415,ConditionRich,2021.2.3,59.927643363586846,
7.75,8.0,41,0.0,Stimuli/Blank.png,0,0,0.0,0,8,8,8,,,,,,,,,,,,,7.772034200002963,0.02203420000296319,5,0.19972990000314894,64.65431460000036,64.65431460000036,64.65431460000036,64.65431460000036,64.65431460000036,64.65431460000036,64.65431460000036,64.65431460000036,64.65431460000036,64.65431460000036,006,P004,2025_Jan_18_1415,ConditionRich,2021.2.3,59.927643363586846,
8.0,8.75,12,0.75,Stimuli/P004/sun_bcboctumoxwpdefl.jpg,0,0,0.0,0,9,9,9,,,,,,,,,,,,,8.005421800000477,0.005421800000476651,None,,64.88787560000128,64.88787560000128,64.88787560000128,64.88787560000128,64.88787560000128,64.88787560000128,64.88787560000128,64.88787560000128,64.88787560000128,64.88787560000128,006,P004,2025_Jan_18_1415,ConditionRich,2021.2.3,59.927643363586846,
8.75,9.0,41,0.0,Stimuli/Blank.png,0,0,0.0,0,10,10,10,,,,,,,,,,,,,8.756377400000929,0.006377400000928901,None,,65.63854799999899,65.63854799999899,65.63854799999899,65.63854799999899,65.63854799999899,65.63854799999899,65.63854799999899,65.63854799999899,65.63854799999899,65.63854799999899,006,P004,2025_Jan_18_1415,ConditionRich,2021.2.3,59.927643363586846,
9.0,9.75,12,0.75,Stimuli/P004/sun_bcboctumoxwpdefl.jpg,0,0,0.0,0,11,11,11,,,,,,,,,,,,,9.00682560000132,0.0068256000013207085,None,,65.90545579999889,65.90545579999889,65.90545579999889,65.90545579999889,65.90545579999889,65.90545579999889,65.90545579999889,65.90545579999889,65.90545579999889,65.90545579999889,006,P004,2025_Jan_18_1415,ConditionRich,2021.2.3,59.927643363586846,
9.75,10.0,41,0.0,Stimuli/Blank.png,0,0,0.0,0,12,12,12,,,,,,,,,,,,,9.775204900000972,0.025204900000971975,5,0.19798859999718843,66.6560959999988,66.6560959999988,66.6560959999988,66.6560959999988,66.6560959999988,66.6560959999988,66.6560959999988,66.6560959999988,66.6560959999988,66.6560959999988,006,P004,2025_Jan_18_1415,ConditionRich,2021.2.3,59.927643363586846,
10.0,10.75,12,0.75,Stimuli/P004/sun_bcboctumoxwpdefl.jpg,0,0,0.0,0,13,13,13,,,,,,,,,,,,,10.007238500002131,0.007238500002131332,None,,66.88962950000132,66.88962950000132,66.88962950000132,66.88962950000132,66.88962950000132,66.88962950000132,66.88962950000132,66.88962950000132,66.88962950000132,66.88962950000132,006,P004,2025_Jan_18_1415,ConditionRich,2021.2.3,59.927643363586846,
10.75,11.0,41,0.0,Stimuli/Blank.png,0,0,0.0,0,14,14,14,,,,,,,,,,,,,10.760761500001536,0.010761500001535751,None,,67.6569845999984,67.6569845999984,67.6569845999984,67.6569845999984,67.6569845999984,67.6569845999984,67.6569845999984,67.6569845999984,67.6569845999984,67.6569845999984,006,P004,2025_Jan_18_1415,ConditionRich,2021.2.3,59.927643363586846,
11.0,11.75,12,0.75,Stimuli/P004/sun_bcboctumoxwpdefl.jpg,0,0,0.0,0,15,15,15,,,,,,,,,,,,,11.025646800000686,0.0256468000006862,None,,67.92388279999795,67.92388279999795,67.92388279999795,67.92388279999795,67.92388279999795,67.92388279999795,67.92388279999795,67.92388279999795,67.92388279999795,67.92388279999795,006,P004,2025_Jan_18_1415,ConditionRich,2021.2.3,59.927643363586846,
11.75,12.0,41,0.0,Stimuli/Blank.png,0,0,0.0,0,16,16,16,,,,,,,,,,,,,11.776181900000665,0.026181900000665337,5,0.19644619999962742,68.65785959999994,68.65785959999994,68.65785959999994,68.65785959999994,68.65785959999994,68.65785959999994,68.65785959999994,68.65785959999994,68.65785959999994,68.65785959999994,006,P004,2025_Jan_18_1415,ConditionRich,2021.2.3,59.927643363586846,
12.0,12.75,14,0.75,Stimuli/P004/sun_bhhtrmwvoadbfucw.jpg,0,0,0.0,0,17,17,17,,,,,,,,,,,,,12.009512900000118,0.009512900000117952,None,,68.89140399999815,68.89140399999815,68.89140399999815,68.89140399999815,68.89140399999815,68.89140399999815,68.89140399999815,68.89140399999815,68.89140399999815,68.89140399999815,006,P004,2025_Jan_18_1415,ConditionRich,2021.2.3,59.927643363586846,
12.75,13.0,41,0.0,Stimuli/Blank.png,0,0,0.0,0,18,18,18,,,,,,,,,,,,,12.760965800000122,0.010965800000121817,None,,69.64206339999873,69.64206339999873,69.64206339999873,69.64206339999873,69.64206339999873,69.64206339999873,69.64206339999873,69.64206339999873,69.64206339999873,69.64206339999873,006,P004,2025_Jan_18_1415,ConditionRich,2021.2.3,59.927643363586846,
13.0,13.75,14,0.75,Stimuli/P004/sun_bhhtrmwvoadbfucw.jpg,0,0,0.0,0,19,19,19,,,,,,,,,,,,,13.011161800000991,0.011161800000991207,None,,69.90896430000066,69.90896430000066,69.90896430000066,69.90896430000066,69.90896430000066,69.90896430000066,69.90896430000066,69.90896430000066,69.90896430000066,69.90896430000066,006,P004,2025_Jan_18_1415,ConditionRich,2021.2.3,59.927643363586846,
13.75,14.0,41,0.0,Stimuli/Blank.png,0,0,0.0,0,20,20,20,,,,,,,,,,,,,13.778130100003182,0.028130100003181724,5,0.19468369999958668,70.65962600000057,70.65962600000057,70.65962600000057,70.65962600000057,70.65962600000057,70.65962600000057,70.65962600000057,70.65962600000057,70.65962600000057,70.65962600000057,006,P004,2025_Jan_18_1415,ConditionRich,2021.2.3,59.927643363586846,
14.0,14.75,14,0.75,Stimuli/P004/sun_bhhtrmwvoadbfucw.jpg,0,0,0.0,0,21,21,21,,,,,,,,,,,,,14.010953600001812,0.010953600001812447,None,,70.89317099999971,70.89317099999971,70.89317099999971,70.89317099999971,70.89317099999971,70.89317099999971,70.89317099999971,70.89317099999971,70.89317099999971,70.89317099999971,006,P004,2025_Jan_18_1415,ConditionRich,2021.2.3,59.927643363586846,
14.75,15.0,41,0.0,Stimuli/Blank.png,0,0,0.0,0,22,22,22,,,,,,,,,,,,,14.762021900001855,0.012021900001855101,None,,71.6438249999992,71.6438249999992,71.6438249999992,71.6438249999992,71.6438249999992,71.6438249999992,71.6438249999992,71.6438249999992,71.6438249999992,71.6438249999992,006,P004,2025_Jan_18_1415,ConditionRich,2021.2.3,59.927643363586846,
15.0,15.75,14,0.75,Stimuli/P004/sun_bhhtrmwvoadbfucw.jpg,0,0,0.0,0,23,23,23,,,,,,,,,,,,,15.012194300001283,0.012194300001283409,None,,71.91072630000053,71.91072630000053,71.91072630000053,71.91072630000053,71.91072630000053,71.91072630000053,71.91072630000053,71.91072630000053,71.91072630000053,71.91072630000053,006,P004,2025_Jan_18_1415,ConditionRich,2021.2.3,59.927643363586846,
15.75,16.0,41,0.0,Stimuli/Blank.png,0,0,0.0,0,24,24,24,,,,,,,,,,,,,15.779617300002428,0.029617300002428237,5,0.19269990000248072,72.66138219999993,72.66138219999993,72.66138219999993,72.66138219999993,72.66138219999993,72.66138219999993,72.66138219999993,72.66138219999993,72.66138219999993,72.66138219999993,006,P004,2025_Jan_18_1415,ConditionRich,2021.2.3,59.927643363586846,
16.0,16.75,32,0.75,Stimuli/P004/things_pulley_02s.jpg,0,0,0.0,0,25,25,25,,,,,,,,,,,,,16.012462900001992,0.012462900001992239,None,,72.89492099999916,72.89492099999916,72.89492099999916,72.89492099999916,72.89492099999916,72.89492099999916,72.89492099999916,72.89492099999916,72.89492099999916,72.89492099999916,006,P004,2025_Jan_18_1415,ConditionRich,2021.2.3,59.927643363586846,
16.75,17.0,41,0.0,Stimuli/Blank.png,0,0,0.0,0,26,26,26,,,,,,,,,,,,,16.763584000000264,0.013584000000264496,None,,73.64558530000068,73.64558530000068,73.64558530000068,73.64558530000068,73.64558530000068,73.64558530000068,73.64558530000068,73.64558530000068,73.64558530000068,73.64558530000068,006,P004,2025_Jan_18_1415,ConditionRich,2021.2.3,59.927643363586846,
17.0,17.75,32,0.75,Stimuli/P004/things_pulley_02s.jpg,1,0,0.75,0,27,27,27,,,,,,,,,,,,,17.01579480000146,0.015794800001458498,4,0.4567293999971298,73.91248669999914,73.91248669999914,73.91248669999914,73.91248669999914,73.91248669999914,73.91248669999914,73.91248669999914,None,73.91248669999914,73.91248669999914,006,P004,2025_Jan_18_1415,ConditionRich,2021.2.3,59.927643363586846,
17.75,18.0,41,0.0,Stimuli/Blank.png,0,0,0.0,0,28,28,28,,,,,,,,,,,,,17.765809500000614,0.015809500000614207,None,,74.64646889999858,74.64646889999858,74.64646889999858,74.64646889999858,74.64646889999858,74.64646889999858,74.64646889999858,74.64646889999858,74.64646889999858,74.64646889999858,006,P004,2025_Jan_18_1415,ConditionRich,2021.2.3,59.927643363586846,
18.0,18.75,32,0.75,Stimuli/P004/things_pulley_02s.jpg,0,0,0.0,0,29,29,29,,,,,,,,,,,,,17.998085800001718,-0.001914199998282129,None,,74.88000470000043,74.88000470000043,74.88000470000043,74.88000470000043,74.88000470000043,74.88000470000043,74.88000470000043,74.88000470000043,74.88000470000043,74.88000470000043,006,P004,2025_Jan_18_1415,ConditionRich,2021.2.3,59.927643363586846,
18.75,19.0,41,0.0,Stimuli/Blank.png,0,0,0.0,0,30,30,30,,,,,,,,,,,,,18.76564100000178,0.015641000001778593,None,,75.64735120000114,75.64735120000114,75.64735120000114,75.64735120000114,75.64735120000114,75.64735120000114,75.64735120000114,75.64735120000114,75.64735120000114,75.64735120000114,006,P004,2025_Jan_18_1415,ConditionRich,2021.2.3,59.927643363586846,
19.0,19.75,32,0.75,Stimuli/P004/things_pulley_02s.jpg,0,0,0.0,0,31,31,31,,,,,,,,,,,,,18.999056399999972,-0.0009436000000278,None,,75.89755729999888,75.89755729999888,75.89755729999888,75.89755729999888,75.89755729999888,75.89755729999888,75.89755729999888,75.89755729999888,75.89755729999888,75.89755729999888,006,P004,2025_Jan_18_1415,ConditionRich,2021.2.3,59.927643363586846,
19.75,20.0,41,0.0,Stimuli/Blank.png,0,0,0.0,0,32,32,32,,,,,,,,,,,,,19.766454800002975,0.01645480000297539,None,,76.64823539999998,76.64823539999998,76.64823539999998,76.64823539999998,76.64823539999998,76.64823539999998,76.64823539999998,76.64823539999998,76.64823539999998,76.64823539999998,006,P004,2025_Jan_18_1415,ConditionRich,2021.2.3,59.927643363586846,
20.0,20.75,13,0.75,Stimuli/P004/sun_bhbiqbqmwrowrqpd.jpg,0,0,0.0,0,33,33,33,,,,,,,,,,,,,19.999625899999955,-0.0003741000000445638,None,,76.88175989999945,76.88175989999945,76.88175989999945,76.88175989999945,76.88175989999945,76.88175989999945,76.88175989999945,76.88175989999945,76.88175989999945,76.88175989999945,006,P004,2025_Jan_18_1415,ConditionRich,2021.2.3,59.927643363586846,
20.75,21.0,41,0.0,Stimuli/Blank.png,0,0,0.0,0,34,34,34,,,,,,,,,,,,,20.75053520000074,0.0005352000007405877,None,,77.63241850000122,77.63241850000122,77.63241850000122,77.63241850000122,77.63241850000122,77.63241850000122,77.63241850000122,77.63241850000122,77.63241850000122,77.63241850000122,006,P004,2025_Jan_18_1415,ConditionRich,2021.2.3,59.927643363586846,
21.0,21.75,13,0.75,Stimuli/P004/sun_bhbiqbqmwrowrqpd.jpg,0,0,0.0,0,35,35,35,,,,,,,,,,,,,21.00085890000264,0.0008589000026404392,None,,77.8826380999999,77.8826380999999,77.8826380999999,77.8826380999999,77.8826380999999,77.8826380999999,77.8826380999999,77.8826380999999,77.8826380999999,77.8826380999999,006,P004,2025_Jan_18_1415,ConditionRich,2021.2.3,59.927643363586846,
21.75,22.0,41,0.0,Stimuli/Blank.png,0,0,0.0,0,36,36,36,,,,,,,,,,,,,21.751799700003176,0.0017997000031755306,None,,78.63331059999837,78.63331059999837,78.63331059999837,78.63331059999837,78.63331059999837,78.63331059999837,78.63331059999837,78.63331059999837,78.63331059999837,78.63331059999837,006,P004,2025_Jan_18_1415,ConditionRich,2021.2.3,59.927643363586846,
22.0,22.75,13,0.75,Stimuli/P004/sun_bhbiqbqmwrowrqpd.jpg,0,0,0.0,0,37,37,37,,,,,,,,,,,,,22.00116010000056,0.001160100000561215,None,,78.8835250000011,78.8835250000011,78.8835250000011,78.8835250000011,78.8835250000011,78.8835250000011,78.8835250000011,78.8835250000011,78.8835250000011,78.8835250000011,006,P004,2025_Jan_18_1415,ConditionRich,2021.2.3,59.927643363586846,
22.75,23.0,41,0.0,Stimuli/Blank.png,0,0,0.0,0,38,38,38,,,,,,,,,,,,,22.752071400002023,0.002071400002023438,None,,79.63419919999797,79.63419919999797,79.63419919999797,79.63419919999797,79.63419919999797,79.63419919999797,79.63419919999797,79.63419919999797,79.63419919999797,79.63419919999797,006,P004,2025_Jan_18_1415,ConditionRich,2021.2.3,59.927643363586846,
23.0,23.75,13,0.75,Stimuli/P004/sun_bhbiqbqmwrowrqpd.jpg,0,0,0.0,0,39,39,39,,,,,,,,,,,,,23.002370600002905,0.002370600002905121,None,,79.88440479999917,79.88440479999917,79.88440479999917,79.88440479999917,79.88440479999917,79.88440479999917,79.88440479999917,79.88440479999917,79.88440479999917,79.88440479999917,006,P004,2025_Jan_18_1415,ConditionRich,2021.2.3,59.927643363586846,
23.75,24.0,41,0.0,Stimuli/Blank.png,0,0,0.0,0,40,40,40,,,,,,,,,,,,,23.753354800002853,0.0033548000028531533,None,,80.63511219999782,80.63511219999782,80.63511219999782,80.63511219999782,80.63511219999782,80.63511219999782,80.63511219999782,80.63511219999782,80.63511219999782,80.63511219999782,006,P004,2025_Jan_18_1415,ConditionRich,2021.2.3,59.927643363586846,
24.0,24.75,30,0.75,Stimuli/P004/things_music_box_02s.jpg,0,0,0.0,0,41,41,41,,,,,,,,,,,,,24.002967100001115,0.0029671000011148863,None,,80.88529239999843,80.88529239999843,80.88529239999843,80.88529239999843,80.88529239999843,80.88529239999843,80.88529239999843,80.88529239999843,80.88529239999843,80.88529239999843,006,P004,2025_Jan_18_1415,ConditionRich,2021.2.3,59.927643363586846,
24.75,25.0,41,0.0,Stimuli/Blank.png,0,0,0.0,0,42,42,42,,,,,,,,,,,,,24.754532599999948,0.004532599999947706,None,,81.63596020000114,81.63596020000114,81.63596020000114,81.63596020000114,81.63596020000114,81.63596020000114,81.63596020000114,81.63596020000114,81.63596020000114,81.63596020000114,006,P004,2025_Jan_18_1415,ConditionRich,2021.2.3,59.927643363586846,
25.0,25.75,30,0.75,Stimuli/P004/things_music_box_02s.jpg,0,0,0.0,0,43,43,43,,,,,,,,,,,,,25.004220000002533,0.004220000002533197,None,,81.88632359999974,81.88632359999974,81.88632359999974,81.88632359999974,81.88632359999974,81.88632359999974,81.88632359999974,81.88632359999974,81.88632359999974,81.88632359999974,006,P004,2025_Jan_18_1415,ConditionRich,2021.2.3,59.927643363586846,
25.75,26.0,41,0.0,Stimuli/Blank.png,0,0,0.0,0,44,44,44,,,,,,,,,,,,,25.755757200000517,0.005757200000516605,5,0.21734259999720962,82.6368380999993,82.6368380999993,82.6368380999993,82.6368380999993,82.6368380999993,82.6368380999993,82.6368380999993,82.6368380999993,82.6368380999993,82.6368380999993,006,P004,2025_Jan_18_1415,ConditionRich,2021.2.3,59.927643363586846,
26.0,26.75,30,0.75,Stimuli/P004/things_music_box_02s.jpg,0,0,0.0,0,45,45,45,,,,,,,,,,,,,26.004509400001552,0.004509400001552422,None,,82.8870597999994,82.8870597999994,82.8870597999994,82.8870597999994,82.8870597999994,82.8870597999994,82.8870597999994,82.8870597999994,82.8870597999994,82.8870597999994,006,P004,2025_Jan_18_1415,ConditionRich,2021.2.3,59.927643363586846,
26.75,27.0,41,0.0,Stimuli/Blank.png,0,0,0.0,0,46,46,46,,,,,,,,,,,,,26.755670200000168,0.005670200000167824,None,,83.63771400000041,83.63771400000041,83.63771400000041,83.63771400000041,83.63771400000041,83.63771400000041,83.63771400000041,83.63771400000041,83.63771400000041,83.63771400000041,006,P004,2025_Jan_18_1415,ConditionRich,2021.2.3,59.927643363586846,
27.0,27.75,30,0.75,Stimuli/P004/things_music_box_02s.jpg,0,0,0.0,0,47,47,47,,,,,,,,,,,,,27.00599140000122,0.005991400001221336,None,,83.8879233000007,83.8879233000007,83.8879233000007,83.8879233000007,83.8879233000007,83.8879233000007,83.8879233000007,83.8879233000007,83.8879233000007,83.8879233000007,006,P004,2025_Jan_18_1415,ConditionRich,2021.2.3,59.927643363586846,
27.75,28.0,41,0.0,Stimuli/Blank.png,0,0,0.0,0,48,48,48,,,,,,,,,,,,,27.757005400002527,0.007005400002526585,5,0.2154953999997815,84.63859400000001,84.63859400000001,84.63859400000001,84.63859400000001,84.63859400000001,84.63859400000001,84.63859400000001,84.63859400000001,84.63859400000001,84.63859400000001,006,P004,2025_Jan_18_1415,ConditionRich,2021.2.3,59.927643363586846,
28.0,28.75,33,0.75,Stimuli/P004/things_recorder_02s.jpg,0,0,0.0,0,49,49,49,,,,,,,,,,,,,28.00720220000221,0.007202200002211612,None,,84.90551630000118,84.90551630000118,84.90551630000118,84.90551630000118,84.90551630000118,84.90551630000118,84.90551630000118,84.90551630000118,84.90551630000118,84.90551630000118,006,P004,2025_Jan_18_1415,ConditionRich,2021.2.3,59.927643363586846,
28.75,29.0,41,0.0,Stimuli/Blank.png,0,0,0.0,0,50,50,50,,,,,,,,,,,,,28.77419060000102,0.024190600001020357,None,,85.65616849999788,85.65616849999788,85.65616849999788,85.65616849999788,85.65616849999788,85.65616849999788,85.65616849999788,85.65616849999788,85.65616849999788,85.65616849999788,006,P004,2025_Jan_18_1415,ConditionRich,2021.2.3,59.927643363586846,
29.0,29.75,33,0.75,Stimuli/P004/things_recorder_02s.jpg,0,0,0.0,0,51,51,51,,,,,,,,,,,,,29.008143000002747,0.008143000002746703,None,,85.90636710000035,85.90636710000035,85.90636710000035,85.90636710000035,85.90636710000035,85.90636710000035,85.90636710000035,85.90636710000035,85.90636710000035,85.90636710000035,006,P004,2025_Jan_18_1415,ConditionRich,2021.2.3,59.927643363586846,
29.75,30.0,41,0.0,Stimuli/Blank.png,0,0,0.0,0,52,52,52,,,,,,,,,,,,,29.77527060000284,0.025270600002841093,5,0.1970328999996127,86.65704109999933,86.65704109999933,86.65704109999933,86.65704109999933,86.65704109999933,86.65704109999933,86.65704109999933,86.65704109999933,86.65704109999933,86.65704109999933,006,P004,2025_Jan_18_1415,ConditionRich,2021.2.3,59.927643363586846,
30.0,30.75,33,0.75,Stimuli/P004/things_recorder_02s.jpg,0,0,0.0,0,53,53,53,,,,,,,,,,,,,30.008837600002153,0.008837600002152612,None,,86.89057459999822,86.89057459999822,86.89057459999822,86.89057459999822,86.89057459999822,86.89057459999822,86.89057459999822,86.89057459999822,86.89057459999822,86.89057459999822,006,P004,2025_Jan_18_1415,ConditionRich,2021.2.3,59.927643363586846,
30.75,31.0,41,0.0,Stimuli/Blank.png,0,0,0.0,0,54,54,54,,,,,,,,,,,,,30.759663400000136,0.00966340000013588,None,,87.64125570000033,87.64125570000033,87.64125570000033,87.64125570000033,87.64125570000033,87.64125570000033,87.64125570000033,87.64125570000033,87.64125570000033,87.64125570000033,006,P004,2025_Jan_18_1415,ConditionRich,2021.2.3,59.927643363586846,
31.0,31.75,33,0.75,Stimuli/P004/things_recorder_02s.jpg,0,0,0.0,0,55,55,55,,,,,,,,,,,,,31.00928930000009,0.009289300000091316,None,,87.89145479999934,87.89145479999934,87.89145479999934,87.89145479999934,87.89145479999934,87.89145479999934,87.89145479999934,87.89145479999934,87.89145479999934,87.89145479999934,006,P004,2025_Jan_18_1415,ConditionRich,2021.2.3,59.927643363586846,
31.75,32.0,41,0.0,Stimuli/Blank.png,0,0,0.0,0,56,56,56,,,,,,,,,,,,,31.761079400002927,0.011079400002927287,5,0.19550840000010794,88.65879629999836,88.65879629999836,88.65879629999836,88.65879629999836,88.65879629999836,88.65879629999836,88.65879629999836,88.65879629999836,88.65879629999836,88.65879629999836,006,P004,2025_Jan_18_1415,ConditionRich,2021.2.3,59.927643363586846,
32.0,32.75,22,0.75,Stimuli/P004/things_boy_02s.jpg,0,0,0.0,0,57,57,57,,,,,,,,,,,,,32.02686990000075,0.026869900000747293,None,,88.92570110000088,88.92570110000088,88.92570110000088,88.92570110000088,88.92570110000088,88.92570110000088,88.92570110000088,88.92570110000088,88.92570110000088,88.92570110000088,006,P004,2025_Jan_18_1415,ConditionRich,2021.2.3,59.927643363586846,
32.75,33.0,41,0.0,Stimuli/Blank.png,0,0,0.0,0,58,58,58,,,,,,,,,,,,,32.77974820000236,0.029748200002359226,None,,89.67636560000028,89.67636560000028,89.67636560000028,89.67636560000028,89.67636560000028,89.67636560000028,89.67636560000028,89.67636560000028,89.67636560000028,89.67636560000028,006,P004,2025_Jan_18_1415,ConditionRich,2021.2.3,59.927643363586846,
33.0,33.75,22,0.75,Stimuli/P004/things_boy_02s.jpg,0,0,0.0,0,59,59,59,,,,,,,,,,,,,33.030302300001495,0.030302300001494586,None,,89.92657959999997,89.92657959999997,89.92657959999997,89.92657959999997,89.92657959999997,89.92657959999997,89.92657959999997,89.92657959999997,89.92657959999997,89.92657959999997,006,P004,2025_Jan_18_1415,ConditionRich,2021.2.3,59.927643363586846,
33.75,34.0,41,0.0,Stimuli/Blank.png,0,0,0.0,0,60,60,60,,,,,,,,,,,,,33.78010450000147,0.030104500001471024,5,0.17682569999669795,90.67724530000123,90.67724530000123,90.67724530000123,90.67724530000123,90.67724530000123,90.67724530000123,90.67724530000123,90.67724530000123,90.67724530000123,90.67724530000123,006,P004,2025_Jan_18_1415,ConditionRich,2021.2.3,59.927643363586846,
34.0,34.75,22,0.75,Stimuli/P004/things_boy_02s.jpg,0,0,0.0,0,61,61,61,,,,,,,,,,,,,34.02852640000128,0.028526400001283037,None,,90.91085139999996,90.91085139999996,90.91085139999996,90.91085139999996,90.91085139999996,90.91085139999996,90.91085139999996,90.91085139999996,90.91085139999996,90.91085139999996,006,P004,2025_Jan_18_1415,ConditionRich,2021.2.3,59.927643363586846,
34.75,35.0,41,0.0,Stimuli/Blank.png,0,0,0.0,0,62,62,62,,,,,,,,,,,,,34.764438600002904,0.014438600002904423,None,,91.66144110000096,91.66144110000096,91.66144110000096,91.66144110000096,91.66144110000096,91.66144110000096,91.66144110000096,91.66144110000096,91.66144110000096,91.66144110000096,006,P004,2025_Jan_18_1415,ConditionRich,2021.2.3,59.927643363586846,
35.0,35.75,22,0.75,Stimuli/P004/things_boy_02s.jpg,0,0,0.0,0,63,63,63,,,,,,,,,,,,,35.03006340000138,0.030063400001381524,None,,91.9116670000003,91.9116670000003,91.9116670000003,91.9116670000003,91.9116670000003,91.9116670000003,91.9116670000003,91.9116670000003,91.9116670000003,91.9116670000003,006,P004,2025_Jan_18_1415,ConditionRich,2021.2.3,59.927643363586846,
35.75,36.0,41,0.0,Stimuli/Blank.png,0,0,0.0,0,64,64,64,,,,,,,,,,,,,35.76416170000084,0.014161700000840938,5,0.20868619999964722,92.64564590000009,92.64564590000009,92.64564590000009,92.64564590000009,92.64564590000009,92.64564590000009,92.64564590000009,92.64564590000009,92.64564590000009,92.64564590000009,006,P004,2025_Jan_18_1415,ConditionRich,2021.2.3,59.927643363586846,
36.0,36.75,25,0.75,Stimuli/P004/things_girl_02s.jpg,0,0,0.0,0,65,65,65,,,,,,,,,,,,,36.01379580000139,0.01379580000138958,None,,92.89585810000062,92.89585810000062,92.89585810000062,92.89585810000062,92.89585810000062,92.89585810000062,92.89585810000062,92.89585810000062,92.89585810000062,92.89585810000062,006,P004,2025_Jan_18_1415,ConditionRich,2021.2.3,59.927643363586846,
36.75,37.0,41,0.0,Stimuli/Blank.png,0,0,0.0,0,66,66,66,,,,,,,,,,,,,36.76528430000326,0.015284300003258977,None,,93.64651909999884,93.64651909999884,93.64651909999884,93.64651909999884,93.64651909999884,93.64651909999884,93.64651909999884,93.64651909999884,93.64651909999884,93.64651909999884,006,P004,2025_Jan_18_1415,ConditionRich,2021.2.3,59.927643363586846,
37.0,37.75,25,0.75,Stimuli/P004/things_girl_02s.jpg,0,0,0.0,0,67,67,67,,,,,,,,,,,,,37.015648300002795,0.015648300002794713,None,,93.91341720000128,93.91341720000128,93.91341720000128,93.91341720000128,93.91341720000128,93.91341720000128,93.91341720000128,93.91341720000128,93.91341720000128,93.91341720000128,006,P004,2025_Jan_18_1415,ConditionRich,2021.2.3,59.927643363586846,
37.75,38.0,41,0.0,Stimuli/Blank.png,0,0,0.0,0,68,68,68,,,,,,,,,,,,,37.76587830000062,0.015878300000622403,None,,94.64740109999912,94.64740109999912,94.64740109999912,94.64740109999912,94.64740109999912,94.64740109999912,94.64740109999912,94.64740109999912,94.64740109999912,94.64740109999912,006,P004,2025_Jan_18_1415,ConditionRich,2021.2.3,59.927643363586846,
38.0,38.75,25,0.75,Stimuli/P004/things_girl_02s.jpg,0,0,0.0,0,69,69,69,,,,,,,,,,,,,37.99917190000269,-0.0008280999973067082,None,,94.88094009999986,94.88094009999986,94.88094009999986,94.88094009999986,94.88094009999986,94.88094009999986,94.88094009999986,94.88094009999986,94.88094009999986,94.88094009999986,006,P004,2025_Jan_18_1415,ConditionRich,2021.2.3,59.927643363586846,
38.75,39.0,41,0.0,Stimuli/Blank.png,0,0,0.0,0,70,70,70,,,,,,,,,,,,,38.75068540000211,0.0006854000021121465,None,,95.63160720000087,95.63160720000087,95.63160720000087,95.63160720000087,95.63160720000087,95.63160720000087,95.63160720000087,95.63160720000087,95.63160720000087,95.63160720000087,006,P004,2025_Jan_18_1415,ConditionRich,2021.2.3,59.927643363586846,
39.0,39.75,25,0.75,Stimuli/P004/things_girl_02s.jpg,0,0,0.0,0,71,71,71,,,,,,,,,,,,,39.000011500000255,1.1500000255182385e-05,None,,95.88183899999785,95.88183899999785,95.88183899999785,95.88183899999785,95.88183899999785,95.88183899999785,95.88183899999785,95.88183899999785,95.88183899999785,95.88183899999785,006,P004,2025_Jan_18_1415,ConditionRich,2021.2.3,59.927643363586846,
39.75,40.0,41,0.0,Stimuli/Blank.png,0,0,0.0,0,72,72,72,,,,,,,,,,,,,39.75007200000255,7.200000254670158e-05,None,,96.63249119999819,96.63249119999819,96.63249119999819,96.63249119999819,96.63249119999819,96.63249119999819,96.63249119999819,96.63249119999819,96.63249119999819,96.63249119999819,006,P004,2025_Jan_18_1415,ConditionRich,2021.2.3,59.927643363586846,
40.0,40.75,15,0.75,Stimuli/P004/sun_bjhtdevvocmwtavk.jpg,0,0,0.0,0,73,73,73,,,,,,,,,,,,,40.00057960000049,0.0005796000004920643,None,,96.88276799999949,96.88276799999949,96.88276799999949,96.88276799999949,96.88276799999949,96.88276799999949,96.88276799999949,96.88276799999949,96.88276799999949,96.88276799999949,006,P004,2025_Jan_18_1415,ConditionRich,2021.2.3,59.927643363586846,
40.75,41.0,41,0.0,Stimuli/Blank.png,0,0,0.0,0,74,74,74,,,,,,,,,,,,,40.7513022000021,0.0013022000021010172,None,,97.63337269999829,97.63337269999829,97.63337269999829,97.63337269999829,97.63337269999829,97.63337269999829,97.63337269999829,97.63337269999829,97.63337269999829,97.63337269999829,006,P004,2025_Jan_18_1415,ConditionRich,2021.2.3,59.927643363586846,
41.0,41.75,15,0.75,Stimuli/P004/sun_bjhtdevvocmwtavk.jpg,0,0,0.0,0,75,75,75,,,,,,,,,,,,,41.00170250000156,0.0017025000015564729,None,,97.90027289999853,97.90027289999853,97.90027289999853,97.90027289999853,97.90027289999853,97.90027289999853,97.90027289999853,97.90027289999853,97.90027289999853,97.90027289999853,006,P004,2025_Jan_18_1415,ConditionRich,2021.2.3,59.927643363586846,
41.75,42.0,41,0.0,Stimuli/Blank.png,0,0,0.0,0,76,76,76,,,,,,,,,,,,,41.76934590000019,0.01934590000018943,None,,98.65093799999886,98.65093799999886,98.65093799999886,98.65093799999886,98.65093799999886,98.65093799999886,98.65093799999886,98.65093799999886,98.65093799999886,98.65093799999886,006,P004,2025_Jan_18_1415,ConditionRich,2021.2.3,59.927643363586846,
42.0,42.75,15,0.75,Stimuli/P004/sun_bjhtdevvocmwtavk.jpg,0,0,0.0,0,77,77,77,,,,,,,,,,,,,42.002171900003304,0.002171900003304472,None,,98.90114999999787,98.90114999999787,98.90114999999787,98.90114999999787,98.90114999999787,98.90114999999787,98.90114999999787,98.90114999999787,98.90114999999787,98.90114999999787,006,P004,2025_Jan_18_1415,ConditionRich,2021.2.3,59.927643363586846,
42.75,43.0,41,0.0,Stimuli/Blank.png,0,0,0.0,0,78,78,78,,,,,,,,,,,,,42.771068200003356,0.02106820000335574,None,,99.6518173000004,99.6518173000004,99.6518173000004,99.6518173000004,99.6518173000004,99.6518173000004,99.6518173000004,99.6518173000004,99.6518173000004,99.6518173000004,006,P004,2025_Jan_18_1415,ConditionRich,2021.2.3,59.927643363586846,
43.0,43.75,15,0.75,Stimuli/P004/sun_bjhtdevvocmwtavk.jpg,0,0,0.0,0,79,79,79,,,,,,,,,,,,,43.005020200002036,0.00502020000203629,None,,99.9021614000012,99.9021614000012,99.9021614000012,99.9021614000012,99.9021614000012,99.9021614000012,99.9021614000012,99.9021614000012,99.9021614000012,99.9021614000012,006,P004,2025_Jan_18_1415,ConditionRich,2021.2.3,59.927643363586846,
43.75,44.0,41,0.0,Stimuli/Blank.png,0,0,0.0,0,80,80,80,,,,,,,,,,,,,43.77103630000056,0.021036300000560004,5,0.20147360000191838,100.65268199999991,100.65268199999991,100.65268199999991,100.65268199999991,100.65268199999991,100.65268199999991,100.65268199999991,100.65268199999991,100.65268199999991,100.65268199999991,006,P004,2025_Jan_18_1415,ConditionRich,2021.2.3,59.927643363586846,
44.0,44.75,37,0.75,Stimuli/P004/things_ski_lift_02s.jpg,0,0,0.0,0,81,81,81,,,,,,,,,,,,,44.004375500000606,0.004375500000605825,None,,100.88622369999939,100.88622369999939,100.88622369999939,100.88622369999939,100.88622369999939,100.88622369999939,100.88622369999939,100.88622369999939,100.88622369999939,100.88622369999939,006,P004,2025_Jan_18_1415,ConditionRich,2021.2.3,59.927643363586846,
44.75,45.0,41,0.0,Stimuli/Blank.png,0,0,0.0,0,82,82,82,,,,,,,,,,,,,44.75443840000298,0.004438400002982235,None,,101.63688470000125,101.63688470000125,101.63688470000125,101.63688470000125,101.63688470000125,101.63688470000125,101.63688470000125,101.63688470000125,101.63688470000125,101.63688470000125,006,P004,2025_Jan_18_1415,ConditionRich,2021.2.3,59.927643363586846,
45.0,45.75,37,0.75,Stimuli/P004/things_ski_lift_02s.jpg,0,0,0.0,0,83,83,83,,,,,,,,,,,,,45.00615620000099,0.006156200000987155,None,,101.9038006999981,101.9038006999981,101.9038006999981,101.9038006999981,101.9038006999981,101.9038006999981,101.9038006999981,101.9038006999981,101.9038006999981,101.9038006999981,006,P004,2025_Jan_18_1415,ConditionRich,2021.2.3,59.927643363586846,
45.75,46.0,41,0.0,Stimuli/Blank.png,0,0,0.0,0,84,84,84,,,,,,,,,,,,,45.77448700000241,0.02448700000240933,5,0.18291450000106124,102.67112690000067,102.67112690000067,102.67112690000067,102.67112690000067,102.67112690000067,102.67112690000067,102.67112690000067,102.67112690000067,102.67112690000067,102.67112690000067,006,P004,2025_Jan_18_1415,ConditionRich,2021.2.3,59.927643363586846,
46.0,46.75,37,0.75,Stimuli/P004/things_ski_lift_02s.jpg,0,0,0.0,0,85,85,85,,,,,,,,,,,,,46.02299620000122,0.022996200001216494,None,,102.92134430000078,102.92134430000078,102.92134430000078,102.92134430000078,102.92134430000078,102.92134430000078,102.92134430000078,102.92134430000078,102.92134430000078,102.92134430000078,006,P004,2025_Jan_18_1415,ConditionRich,2021.2.3,59.927643363586846,
46.75,47.0,41,0.0,Stimuli/Blank.png,0,0,0.0,0,86,86,86,,,,,,,,,,,,,46.773328900002525,0.023328900002525188,None,,103.65533320000031,103.65533320000031,103.65533320000031,103.65533320000031,103.65533320000031,103.65533320000031,103.65533320000031,103.65533320000031,103.65533320000031,103.65533320000031,006,P004,2025_Jan_18_1415,ConditionRich,2021.2.3,59.927643363586846,
47.0,47.75,37,0.75,Stimuli/P004/things_ski_lift_02s.jpg,0,0,0.0,0,87,87,87,,,,,,,,,,,,,47.00682159999997,0.0068215999999665655,None,,103.90555490000042,103.90555490000042,103.90555490000042,103.90555490000042,103.90555490000042,103.90555490000042,103.90555490000042,103.90555490000042,103.90555490000042,103.90555490000042,006,P004,2025_Jan_18_1415,ConditionRich,2021.2.3,59.927643363586846,
47.75,48.0,41,0.0,Stimuli/Blank.png,0,0,0.0,0,88,88,88,,,,,,,,,,,,,47.775208800001565,0.02520880000156467,5,0.1977387999977509,104.65622630000144,104.65622630000144,104.65622630000144,104.65622630000144,104.65622630000144,104.65622630000144,104.65622630000144,104.65622630000144,104.65622630000144,104.65622630000144,006,P004,2025_Jan_18_1415,ConditionRich,2021.2.3,59.927643363586846,
48.0,48.75,20,0.75,Stimuli/P004/sun_bwytihadgigwkyht.jpg,0,0,0.0,0,89,89,89,,,,,,,,,,,,,48.009331200002634,0.009331200002634432,None,,104.9063954000012,104.9063954000012,104.9063954000012,104.9063954000012,104.9063954000012,104.9063954000012,104.9063954000012,104.9063954000012,104.9063954000012,104.9063954000012,006,P004,2025_Jan_18_1415,ConditionRich,2021.2.3,59.927643363586846,
48.75,49.0,41,0.0,Stimuli/Blank.png,0,0,0.0,0,90,90,90,,,,,,,,,,,,,48.775664900000265,0.025664900000265334,None,,105.65710519999993,105.65710519999993,105.65710519999993,105.65710519999993,105.65710519999993,105.65710519999993,105.65710519999993,105.65710519999993,105.65710519999993,105.65710519999993,006,P004,2025_Jan_18_1415,ConditionRich,2021.2.3,59.927643363586846,
49.0,49.75,20,0.75,Stimuli/P004/sun_bwytihadgigwkyht.jpg,0,0,0.0,0,91,91,91,,,,,,,,,,,,,49.01179800000318,0.011798000003182096,None,,105.90732669999852,105.90732669999852,105.90732669999852,105.90732669999852,105.90732669999852,105.90732669999852,105.90732669999852,105.90732669999852,105.90732669999852,105.90732669999852,006,P004,2025_Jan_18_1415,ConditionRich,2021.2.3,59.927643363586846,
49.75,50.0,41,0.0,Stimuli/Blank.png,0,0,0.0,0,92,92,92,,,,,,,,,,,,,49.77611770000294,0.026117700002942,5,0.1961527000021306,106.65797419999944,106.65797419999944,106.65797419999944,106.65797419999944,106.65797419999944,106.65797419999944,106.65797419999944,106.65797419999944,106.65797419999944,106.65797419999944,006,P004,2025_Jan_18_1415,ConditionRich,2021.2.3,59.927643363586846,
50.0,50.75,20,0.75,Stimuli/P004/sun_bwytihadgigwkyht.jpg,0,0,0.0,0,93,93,93,,,,,,,,,,,,,50.009461600002396,0.009461600002396153,None,,106.8915061000007,106.8915061000007,106.8915061000007,106.8915061000007,106.8915061000007,106.8915061000007,106.8915061000007,106.8915061000007,106.8915061000007,106.8915061000007,006,P004,2025_Jan_18_1415,ConditionRich,2021.2.3,59.927643363586846,
50.75,51.0,41,0.0,Stimuli/Blank.png,0,0,0.0,0,94,94,94,,,,,,,,,,,,,50.76034980000259,0.010349800002586562,None,,107.64216010000018,107.64216010000018,107.64216010000018,107.64216010000018,107.64216010000018,107.64216010000018,107.64216010000018,107.64216010000018,107.64216010000018,107.64216010000018,006,P004,2025_Jan_18_1415,ConditionRich,2021.2.3,59.927643363586846,
51.0,51.75,20,0.75,Stimuli/P004/sun_bwytihadgigwkyht.jpg,0,0,0.0,0,95,95,95,,,,,,,,,,,,,51.01074680000238,0.010746800002380041,None,,107.8923919000008,107.8923919000008,107.8923919000008,107.8923919000008,107.8923919000008,107.8923919000008,107.8923919000008,107.8923919000008,107.8923919000008,107.8923919000008,006,P004,2025_Jan_18_1415,ConditionRich,2021.2.3,59.927643363586846,
51.75,52.0,41,0.0,Stimuli/Blank.png,0,0,0.0,0,96,96,96,,,,,,,,,,,,,51.76139250000051,0.011392500000511063,5,0.21113139999943087,108.64304179999817,108.64304179999817,108.64304179999817,108.64304179999817,108.64304179999817,108.64304179999817,108.64304179999817,108.64304179999817,108.64304179999817,108.64304179999817,006,P004,2025_Jan_18_1415,ConditionRich,2021.2.3,59.927643363586846,
52.0,52.75,23,0.75,Stimuli/P004/things_butterfly_02s.jpg,0,0,0.0,0,97,97,97,,,,,,,,,,,,,52.011698700000125,0.011698700000124518,None,,108.9099572999985,108.9099572999985,108.9099572999985,108.9099572999985,108.9099572999985,108.9099572999985,108.9099572999985,108.9099572999985,108.9099572999985,108.9099572999985,006,P004,2025_Jan_18_1415,ConditionRich,2021.2.3,59.927643363586846,
52.75,53.0,41,0.0,Stimuli/Blank.png,0,0,0.0,0,98,98,98,,,,,,,,,,,,,52.780651700002636,0.030651700002636062,None,,109.67730110000048,109.67730110000048,109.67730110000048,109.67730110000048,109.67730110000048,109.67730110000048,109.67730110000048,109.67730110000048,109.67730110000048,109.67730110000048,006,P004,2025_Jan_18_1415,ConditionRich,2021.2.3,59.927643363586846,
53.0,53.75,23,0.75,Stimuli/P004/things_butterfly_02s.jpg,0,0,0.0,0,99,99,99,,,,,,,,,,,,,53.028994900003454,0.02899490000345395,None,,109.91084680000131,109.91084680000131,109.91084680000131,109.91084680000131,109.91084680000131,109.91084680000131,109.91084680000131,109.91084680000131,109.91084680000131,109.91084680000131,006,P004,2025_Jan_18_1415,ConditionRich,2021.2.3,59.927643363586846,
53.75,54.0,41,0.0,Stimuli/Blank.png,0,0,0.0,0,100,100,100,,,,,,,,,,,,,53.76449400000274,0.014494000002741814,5,0.19252659999983734,110.66150629999902,110.66150629999902,110.66150629999902,110.66150629999902,110.66150629999902,110.66150629999902,110.66150629999902,110.66150629999902,110.66150629999902,110.66150629999902,006,P004,2025_Jan_18_1415,ConditionRich,2021.2.3,59.927643363586846,
54.0,54.75,23,0.75,Stimuli/P004/things_butterfly_02s.jpg,0,0,0.0,0,101,101,101,,,,,,,,,,,,,54.02978300000177,0.029783000001771143,None,,110.91172060000099,110.91172060000099,110.91172060000099,110.91172060000099,110.91172060000099,110.91172060000099,110.91172060000099,110.91172060000099,110.91172060000099,110.91172060000099,006,P004,2025_Jan_18_1415,ConditionRich,2021.2.3,59.927643363586846,
54.75,55.0,41,0.0,Stimuli/Blank.png,0,0,0.0,0,102,102,102,,,,,,,,,,,,,54.7643390000012,0.014339000001200475,None,,111.64570670000103,111.64570670000103,111.64570670000103,111.64570670000103,111.64570670000103,111.64570670000103,111.64570670000103,111.64570670000103,111.64570670000103,111.64570670000103,006,P004,2025_Jan_18_1415,ConditionRich,2021.2.3,59.927643363586846,
55.0,55.75,23,0.75,Stimuli/P004/things_butterfly_02s.jpg,0,0,0.0,0,103,103,103,,,,,,,,,,,,,55.01409830000193,0.01409830000193324,None,,111.89591730000029,111.89591730000029,111.89591730000029,111.89591730000029,111.89591730000029,111.89591730000029,111.89591730000029,111.89591730000029,111.89591730000029,111.89591730000029,006,P004,2025_Jan_18_1415,ConditionRich,2021.2.3,59.927643363586846,
55.75,56.0,41,0.0,Stimuli/Blank.png,0,0,0.0,0,104,104,104,,,,,,,,,,,,,55.764642100002675,0.014642100002674852,5,0.20766849999927217,112.64658779999809,112.64658779999809,112.64658779999809,112.64658779999809,112.64658779999809,112.64658779999809,112.64658779999809,112.64658779999809,112.64658779999809,112.64658779999809,006,P004,2025_Jan_18_1415,ConditionRich,2021.2.3,59.927643363586846,
56.0,56.75,40,0.75,Stimuli/P004/things_woman_02s.jpg,0,0,0.0,0,105,105,105,,,,,,,,,,,,,56.01462100000208,0.014621000002080109,None,,112.89680360000057,112.89680360000057,112.89680360000057,112.89680360000057,112.89680360000057,112.89680360000057,112.89680360000057,112.89680360000057,112.89680360000057,112.89680360000057,006,P004,2025_Jan_18_1415,ConditionRich,2021.2.3,59.927643363586846,
56.75,57.0,41,0.0,Stimuli/Blank.png,0,0,0.0,0,106,106,106,,,,,,,,,,,,,56.76565970000229,0.015659700002288446,None,,113.64745870000115,113.64745870000115,113.64745870000115,113.64745870000115,113.64745870000115,113.64745870000115,113.64745870000115,113.64745870000115,113.64745870000115,113.64745870000115,006,P004,2025_Jan_18_1415,ConditionRich,2021.2.3,59.927643363586846,
57.0,57.75,40,0.75,Stimuli/P004/things_woman_02s.jpg,1,0,0.75,0,107,107,107,,,,,,,,,,,,,56.999468800000614,-0.0005311999993864447,4,0.4950329999992391,113.8809900999986,113.8809900999986,113.8809900999986,113.8809900999986,113.8809900999986,113.8809900999986,113.8809900999986,114.61497299999974,113.8809900999986,113.8809900999986,006,P004,2025_Jan_18_1415,ConditionRich,2021.2.3,59.927643363586846,
57.75,58.0,41,0.0,Stimuli/Blank.png,0,0,0.0,0,108,108,108,,,,,,,,,,,,,57.74935850000111,-0.000641499998891959,None,,114.63166120000096,114.63166120000096,114.63166120000096,114.63166120000096,114.63166120000096,114.63166120000096,114.63166120000096,114.63166120000096,114.63166120000096,114.63166120000096,006,P004,2025_Jan_18_1415,ConditionRich,2021.2.3,59.927643363586846,
58.0,58.75,40,0.75,Stimuli/P004/things_woman_02s.jpg,0,0,0.0,0,109,109,109,,,,,,,,,,,,,57.99957140000333,-0.00042859999666688964,None,,114.88189109999803,114.88189109999803,114.88189109999803,114.88189109999803,114.88189109999803,114.88189109999803,114.88189109999803,114.88189109999803,114.88189109999803,114.88189109999803,006,P004,2025_Jan_18_1415,ConditionRich,2021.2.3,59.927643363586846,
58.75,59.0,41,0.0,Stimuli/Blank.png,0,0,0.0,0,110,110,110,,,,,,,,,,,,,58.75006510000094,6.510000093840063e-05,None,,115.63254020000022,115.63254020000022,115.63254020000022,115.63254020000022,115.63254020000022,115.63254020000022,115.63254020000022,115.63254020000022,115.63254020000022,115.63254020000022,006,P004,2025_Jan_18_1415,ConditionRich,2021.2.3,59.927643363586846,
59.0,59.75,40,0.75,Stimuli/P004/things_woman_02s.jpg,0,0,0.0,0,111,111,111,,,,,,,,,,,,,59.00076220000119,0.0007622000011906493,None,,115.88275470000008,115.88275470000008,115.88275470000008,115.88275470000008,115.88275470000008,115.88275470000008,115.88275470000008,115.88275470000008,115.88275470000008,115.88275470000008,006,P004,2025_Jan_18_1415,ConditionRich,2021.2.3,59.927643363586846,
59.75,60.0,41,0.0,Stimuli/Blank.png,0,0,0.0,0,112,112,112,,,,,,,,,,,,,59.751801800000976,0.0018018000009760726,None,,116.63342130000092,116.63342130000092,116.63342130000092,116.63342130000092,116.63342130000092,116.63342130000092,116.63342130000092,116.63342130000092,116.63342130000092,116.63342130000092,006,P004,2025_Jan_18_1415,ConditionRich,2021.2.3,59.927643363586846,
60.0,60.75,17,0.75,Stimuli/P004/sun_bojovhhraxtgafcy.jpg,0,0,0.0,0,113,113,113,,,,,,,,,,,,,60.00172100000054,0.0017210000005434267,None,,116.90032810000048,116.90032810000048,116.90032810000048,116.90032810000048,116.90032810000048,116.90032810000048,116.90032810000048,116.90032810000048,116.90032810000048,116.90032810000048,006,P004,2025_Jan_18_1415,ConditionRich,2021.2.3,59.927643363586846,
60.75,61.0,41,0.0,Stimuli/Blank.png,0,0,0.0,0,114,114,114,,,,,,,,,,,,,60.769368700002815,0.019368700002814876,None,,117.65099940000073,117.65099940000073,117.65099940000073,117.65099940000073,117.65099940000073,117.65099940000073,117.65099940000073,117.65099940000073,117.65099940000073,117.65099940000073,006,P004,2025_Jan_18_1415,ConditionRich,2021.2.3,59.927643363586846,
61.0,61.75,17,0.75,Stimuli/P004/sun_bojovhhraxtgafcy.jpg,0,0,0.0,0,115,115,115,,,,,,,,,,,,,61.00438920000306,0.004389200003060978,None,,117.90120799999931,117.90120799999931,117.90120799999931,117.90120799999931,117.90120799999931,117.90120799999931,117.90120799999931,117.90120799999931,117.90120799999931,117.90120799999931,006,P004,2025_Jan_18_1415,ConditionRich,2021.2.3,59.927643363586846,
61.75,62.0,41,0.0,Stimuli/Blank.png,0,0,0.0,0,116,116,116,,,,,,,,,,,,,61.77007830000002,0.020078300000022864,None,,118.65188900000066,118.65188900000066,118.65188900000066,118.65188900000066,118.65188900000066,118.65188900000066,118.65188900000066,118.65188900000066,118.65188900000066,118.65188900000066,006,P004,2025_Jan_18_1415,ConditionRich,2021.2.3,59.927643363586846,
62.0,62.75,17,0.75,Stimuli/P004/sun_bojovhhraxtgafcy.jpg,0,0,0.0,0,117,117,117,,,,,,,,,,,,,62.00573770000119,0.005737700001191115,None,,118.9020563999984,118.9020563999984,118.9020563999984,118.9020563999984,118.9020563999984,118.9020563999984,118.9020563999984,118.9020563999984,118.9020563999984,118.9020563999984,006,P004,2025_Jan_18_1415,ConditionRich,2021.2.3,59.927643363586846,
62.75,63.0,41,0.0,Stimuli/Blank.png,0,0,0.0,0,118,118,118,,,,,,,,,,,,,62.77086260000215,0.02086260000214679,None,,119.65274950000094,119.65274950000094,119.65274950000094,119.65274950000094,119.65274950000094,119.65274950000094,119.65274950000094,119.65274950000094,119.65274950000094,119.65274950000094,006,P004,2025_Jan_18_1415,ConditionRich,2021.2.3,59.927643363586846,
63.0,63.75,17,0.75,Stimuli/P004/sun_bojovhhraxtgafcy.jpg,0,0,0.0,0,119,119,119,,,,,,,,,,,,,63.00425500000347,0.0042550000034680124,None,,119.88627859999906,119.88627859999906,119.88627859999906,119.88627859999906,119.88627859999906,119.88627859999906,119.88627859999906,119.88627859999906,119.88627859999906,119.88627859999906,006,P004,2025_Jan_18_1415,ConditionRich,2021.2.3,59.927643363586846,
63.75,64.0,41,0.0,Stimuli/Blank.png,0,0,0.0,0,120,120,120,,,,,,,,,,,,,63.7551850000018,0.005185000001802109,5,0.21732559999873047,120.63693649999914,120.63693649999914,120.63693649999914,120.63693649999914,120.63693649999914,120.63693649999914,120.63693649999914,120.63693649999914,120.63693649999914,120.63693649999914,006,P004,2025_Jan_18_1415,ConditionRich,2021.2.3,59.927643363586846,
64.0,64.75,28,0.75,Stimuli/P004/things_man_02s.jpg,0,0,0.0,0,121,121,121,,,,,,,,,,,,,64.00544100000116,0.005441000001155771,None,,120.88716329999806,120.88716329999806,120.88716329999806,120.88716329999806,120.88716329999806,120.88716329999806,120.88716329999806,120.88716329999806,120.88716329999806,120.88716329999806,006,P004,2025_Jan_18_1415,ConditionRich,2021.2.3,59.927643363586846,
64.75,65.0,41,0.0,Stimuli/Blank.png,0,0,0.0,0,122,122,122,,,,,,,,,,,,,64.75551950000226,0.0055195000022649765,None,,121.637831,121.637831,121.637831,121.637831,121.637831,121.637831,121.637831,121.637831,121.637831,121.637831,006,P004,2025_Jan_18_1415,ConditionRich,2021.2.3,59.927643363586846,
65.0,65.75,28,0.75,Stimuli/P004/things_man_02s.jpg,0,0,0.0,0,123,123,123,,,,,,,,,,,,,65.00598390000232,0.005983900002320297,None,,121.88804739999978,121.88804739999978,121.88804739999978,121.88804739999978,121.88804739999978,121.88804739999978,121.88804739999978,121.88804739999978,121.88804739999978,121.88804739999978,006,P004,2025_Jan_18_1415,ConditionRich,2021.2.3,59.927643363586846,
65.75,66.0,41,0.0,Stimuli/Blank.png,0,0,0.0,0,124,124,124,,,,,,,,,,,,,65.7570424000005,0.007042400000500493,5,0.2153673000029812,122.63869590000104,122.63869590000104,122.63869590000104,122.63869590000104,122.63869590000104,122.63869590000104,122.63869590000104,122.63869590000104,122.63869590000104,122.63869590000104,006,P004,2025_Jan_18_1415,ConditionRich,2021.2.3,59.927643363586846,
66.0,66.75,28,0.75,Stimuli/P004/things_man_02s.jpg,0,0,0.0,0,125,125,125,,,,,,,,,,,,,66.00672720000148,0.006727200001478195,None,,122.90560669999832,122.90560669999832,122.90560669999832,122.90560669999832,122.90560669999832,122.90560669999832,122.90560669999832,122.90560669999832,122.90560669999832,122.90560669999832,006,P004,2025_Jan_18_1415,ConditionRich,2021.2.3,59.927643363586846,
66.75,67.0,41,0.0,Stimuli/Blank.png,0,0,0.0,0,126,126,126,,,,,,,,,,,,,66.77451199999996,0.02451199999995879,None,,123.65627599999789,123.65627599999789,123.65627599999789,123.65627599999789,123.65627599999789,123.65627599999789,123.65627599999789,123.65627599999789,123.65627599999789,123.65627599999789,006,P004,2025_Jan_18_1415,ConditionRich,2021.2.3,59.927643363586846,
67.0,67.75,28,0.75,Stimuli/P004/things_man_02s.jpg,0,0,0.0,0,127,127,127,,,,,,,,,,,,,67.00991790000262,0.009917900002619717,None,,123.90650180000011,123.90650180000011,123.90650180000011,123.90650180000011,123.90650180000011,123.90650180000011,123.90650180000011,123.90650180000011,123.90650180000011,123.90650180000011,006,P004,2025_Jan_18_1415,ConditionRich,2021.2.3,59.927643363586846,
67.75,68.0,41,0.0,Stimuli/Blank.png,0,0,0.0,0,128,128,128,,,,,,,,,,,,,67.7754479000032,0.02544790000320063,5,0.17999129999952856,124.67384550000133,124.67384550000133,124.67384550000133,124.67384550000133,124.67384550000133,124.67384550000133,124.67384550000133,124.67384550000133,124.67384550000133,124.67384550000133,006,P004,2025_Jan_18_1415,ConditionRich,2021.2.3,59.927643363586846,
68.0,68.75,6,0.75,Stimuli/P004/sun_aoumkoxfhlaobjef.jpg,0,0,0.0,0,129,129,129,,,,,,,,,,,,,68.02601240000149,0.026012400001491187,None,,124.92406719999781,124.92406719999781,124.92406719999781,124.92406719999781,124.92406719999781,124.92406719999781,124.92406719999781,124.92406719999781,124.92406719999781,124.92406719999781,006,P004,2025_Jan_18_1415,ConditionRich,2021.2.3,59.927643363586846,
68.75,69.0,41,0.0,Stimuli/Blank.png,0,0,0.0,0,130,130,130,,,,,,,,,,,,,68.77654670000265,0.02654670000265469,None,,125.65811259999828,125.65811259999828,125.65811259999828,125.65811259999828,125.65811259999828,125.65811259999828,125.65811259999828,125.65811259999828,125.65811259999828,125.65811259999828,006,P004,2025_Jan_18_1415,ConditionRich,2021.2.3,59.927643363586846,
69.0,69.75,6,0.75,Stimuli/P004/sun_aoumkoxfhlaobjef.jpg,0,0,0.0,0,131,131,131,,,,,,,,,,,,,69.01033480000115,0.010334800001146505,None,,125.9082414000004,125.9082414000004,125.9082414000004,125.9082414000004,125.9082414000004,125.9082414000004,125.9082414000004,125.9082414000004,125.9082414000004,125.9082414000004,006,P004,2025_Jan_18_1415,ConditionRich,2021.2.3,59.927643363586846,
69.75,70.0,41,0.0,Stimuli/Blank.png,0,0,0.0,0,132,132,132,,,,,,,,,,,,,69.77685090000159,0.02685090000159107,5,0.1950007999985246,126.65893259999939,126.65893259999939,126.65893259999939,126.65893259999939,126.65893259999939,126.65893259999939,126.65893259999939,126.65893259999939,126.65893259999939,126.65893259999939,006,P004,2025_Jan_18_1415,ConditionRich,2021.2.3,59.927643363586846,
70.0,70.75,6,0.75,Stimuli/P004/sun_aoumkoxfhlaobjef.jpg,0,0,0.0,0,133,133,133,,,,,,,,,,,,,70.01017960000172,0.010179600001720246,None,,126.89244930000132,126.89244930000132,126.89244930000132,126.89244930000132,126.89244930000132,126.89244930000132,126.89244930000132,126.89244930000132,126.89244930000132,126.89244930000132,006,P004,2025_Jan_18_1415,ConditionRich,2021.2.3,59.927643363586846,
70.75,71.0,41,0.0,Stimuli/Blank.png,0,0,0.0,0,134,134,134,,,,,,,,,,,,,70.76110320000225,0.011103200002253288,None,,127.6431104000003,127.6431104000003,127.6431104000003,127.6431104000003,127.6431104000003,127.6431104000003,127.6431104000003,127.6431104000003,127.6431104000003,127.6431104000003,006,P004,2025_Jan_18_1415,ConditionRich,2021.2.3,59.927643363586846,
71.0,71.75,6,0.75,Stimuli/P004/sun_aoumkoxfhlaobjef.jpg,0,0,0.0,0,135,135,135,,,,,,,,,,,,,71.01166720000037,0.011667200000374578,None,,127.91001609999876,127.91001609999876,127.91001609999876,127.91001609999876,127.91001609999876,127.91001609999876,127.91001609999876,127.91001609999876,127.91001609999876,127.91001609999876,006,P004,2025_Jan_18_1415,ConditionRich,2021.2.3,59.927643363586846,
71.75,72.0,41,0.0,Stimuli/Blank.png,0,0,0.0,0,136,136,136,,,,,,,,,,,,,71.77904310000304,0.02904310000303667,5,0.19328719999975874,128.66068969999833,128.66068969999833,128.66068969999833,128.66068969999833,128.66068969999833,128.66068969999833,128.66068969999833,128.66068969999833,128.66068969999833,128.66068969999833,006,P004,2025_Jan_18_1415,ConditionRich,2021.2.3,59.927643363586846,
72.0,72.75,9,0.75,Stimuli/P004/sun_auqtrqkaobyprnjy.jpg,0,0,0.0,0,137,137,137,,,,,,,,,,,,,72.01255790000141,0.012557900001411326,None,,128.91091120000056,128.91091120000056,128.91091120000056,128.91091120000056,128.91091120000056,128.91091120000056,128.91091120000056,128.91091120000056,128.91091120000056,128.91091120000056,006,P004,2025_Jan_18_1415,ConditionRich,2021.2.3,59.927643363586846,
72.75,73.0,41,0.0,Stimuli/Blank.png,0,0,0.0,0,138,138,138,,,,,,,,,,,,,72.77950750000309,0.02950750000309199,None,,129.66155319999962,129.66155319999962,129.66155319999962,129.66155319999962,129.66155319999962,129.66155319999962,129.66155319999962,129.66155319999962,129.66155319999962,129.66155319999962,006,P004,2025_Jan_18_1415,ConditionRich,2021.2.3,59.927643363586846,
73.0,73.75,9,0.75,Stimuli/P004/sun_auqtrqkaobyprnjy.jpg,0,0,0.0,0,139,139,139,,,,,,,,,,,,,73.01482040000337,0.014820400003372924,None,,129.91177349999998,129.91177349999998,129.91177349999998,129.91177349999998,129.91177349999998,129.91177349999998,129.91177349999998,129.91177349999998,129.91177349999998,129.91177349999998,006,P004,2025_Jan_18_1415,ConditionRich,2021.2.3,59.927643363586846,
73.75,74.0,41,0.0,Stimuli/Blank.png,0,0,0.0,0,140,140,140,,,,,,,,,,,,,73.78094170000259,0.030941700002586003,5,0.19145749999734107,130.6624296000009,130.6624296000009,130.6624296000009,130.6624296000009,130.6624296000009,130.6624296000009,130.6624296000009,130.6624296000009,130.6624296000009,130.6624296000009,006,P004,2025_Jan_18_1415,ConditionRich,2021.2.3,59.927643363586846,
74.0,74.75,9,0.75,Stimuli/P004/sun_auqtrqkaobyprnjy.jpg,0,0,0.0,0,141,141,141,,,,,,,,,,,,,74.01427260000128,0.01427260000127717,None,,130.8959845999998,130.8959845999998,130.8959845999998,130.8959845999998,130.8959845999998,130.8959845999998,130.8959845999998,130.8959845999998,130.8959845999998,130.8959845999998,006,P004,2025_Jan_18_1415,ConditionRich,2021.2.3,59.927643363586846,
74.75,75.0,41,0.0,Stimuli/Blank.png,0,0,0.0,0,142,142,142,,,,,,,,,,,,,74.76419750000059,0.01419750000059139,None,,131.6466419999997,131.6466419999997,131.6466419999997,131.6466419999997,131.6466419999997,131.6466419999997,131.6466419999997,131.6466419999997,131.6466419999997,131.6466419999997,006,P004,2025_Jan_18_1415,ConditionRich,2021.2.3,59.927643363586846,
75.0,75.75,9,0.75,Stimuli/P004/sun_auqtrqkaobyprnjy.jpg,1,0,0.75,0,143,143,143,,,,,,,,,,,,,75.01507670000137,0.015076700001372956,4,0.4543477000006533,131.9135607999997,131.9135607999997,131.9135607999997,131.9135607999997,131.9135607999997,131.9135607999997,131.9135607999997,132.63082999999824,131.9135607999997,131.9135607999997,006,P004,2025_Jan_18_1415,ConditionRich,2021.2.3,59.927643363586846,
75.75,76.0,41,0.0,Stimuli/Blank.png,0,0,0.0,0,144,144,144,,,,,,,,,,,,,75.76581650000298,0.015816500002983958,None,,132.64751690000048,132.64751690000048,132.64751690000048,132.64751690000048,132.64751690000048,132.64751690000048,132.64751690000048,132.64751690000048,132.64751690000048,132.64751690000048,006,P004,2025_Jan_18_1415,ConditionRich,2021.2.3,59.927643363586846,
76.0,76.75,16,0.75,Stimuli/P004/sun_bjuoemgleyaogrmw.jpg,0,0,0.0,0,145,145,145,,,,,,,,,,,,,75.99852520000059,-0.0014747999994142447,None,,132.88105129999894,132.88105129999894,132.88105129999894,132.88105129999894,132.88105129999894,132.88105129999894,132.88105129999894,132.88105129999894,132.88105129999894,132.88105129999894,006,P004,2025_Jan_18_1415,ConditionRich,2021.2.3,59.927643363586846,
76.75,77.0,41,0.0,Stimuli/Blank.png,0,0,0.0,0,146,146,146,,,,,,,,,,,,,76.75020460000087,0.00020460000087041408,None,,133.63171539999894,133.63171539999894,133.63171539999894,133.63171539999894,133.63171539999894,133.63171539999894,133.63171539999894,133.63171539999894,133.63171539999894,133.63171539999894,006,P004,2025_Jan_18_1415,ConditionRich,2021.2.3,59.927643363586846,
77.0,77.75,16,0.75,Stimuli/P004/sun_bjuoemgleyaogrmw.jpg,0,0,0.0,0,147,147,147,,,,,,,,,,,,,77.00011450000238,0.00011450000238255598,None,,133.88193120000142,133.88193120000142,133.88193120000142,133.88193120000142,133.88193120000142,133.88193120000142,133.88193120000142,133.88193120000142,133.88193120000142,133.88193120000142,006,P004,2025_Jan_18_1415,ConditionRich,2021.2.3,59.927643363586846,
77.75,78.0,41,0.0,Stimuli/Blank.png,0,0,0.0,0,148,148,148,,,,,,,,,,,,,77.75025660000028,0.00025660000028437935,None,,134.63258719999794,134.63258719999794,134.63258719999794,134.63258719999794,134.63258719999794,134.63258719999794,134.63258719999794,134.63258719999794,134.63258719999794,134.63258719999794,006,P004,2025_Jan_18_1415,ConditionRich,2021.2.3,59.927643363586846,
78.0,78.75,16,0.75,Stimuli/P004/sun_bjuoemgleyaogrmw.jpg,0,0,0.0,0,149,149,149,,,,,,,,,,,,,78.00063510000109,0.0006351000010909047,None,,134.89951819999987,134.89951819999987,134.89951819999987,134.89951819999987,134.89951819999987,134.89951819999987,134.89951819999987,134.89951819999987,134.89951819999987,134.89951819999987,006,P004,2025_Jan_18_1415,ConditionRich,2021.2.3,59.927643363586846,
78.75,79.0,41,0.0,Stimuli/Blank.png,0,0,0.0,0,150,150,150,,,,,,,,,,,,,78.77045750000252,0.020457500002521556,None,,135.6668142999988,135.6668142999988,135.6668142999988,135.6668142999988,135.6668142999988,135.6668142999988,135.6668142999988,135.6668142999988,135.6668142999988,135.6668142999988,006,P004,2025_Jan_18_1415,ConditionRich,2021.2.3,59.927643363586846,
79.0,79.75,16,0.75,Stimuli/P004/sun_bjuoemgleyaogrmw.jpg,1,0,0.75,0,151,151,151,,,,,,,,,,,,,79.01838390000194,0.018383900001936127,4,0.42857090000325115,135.90037849999862,135.90037849999862,135.90037849999862,135.90037849999862,135.90037849999862,135.90037849999862,135.90037849999862,None,135.90037849999862,135.90037849999862,006,P004,2025_Jan_18_1415,ConditionRich,2021.2.3,59.927643363586846,
79.75,80.0,41,0.0,Stimuli/Blank.png,0,0,0.0,0,152,152,152,,,,,,,,,,,,,79.7546003000025,0.004600300002493896,5,0.20290530000056606,136.65104079999946,136.65104079999946,136.65104079999946,136.65104079999946,136.65104079999946,136.65104079999946,136.65104079999946,136.65104079999946,136.65104079999946,136.65104079999946,006,P004,2025_Jan_18_1415,ConditionRich,2021.2.3,59.927643363586846,
80.0,80.75,7,0.75,Stimuli/P004/sun_asgixjtedklbawgm.jpg,0,0,0.0,0,153,153,153,,,,,,,,,,,,,80.01895980000336,0.018959800003358396,None,,136.90126070000042,136.90126070000042,136.90126070000042,136.90126070000042,136.90126070000042,136.90126070000042,136.90126070000042,136.90126070000042,136.90126070000042,136.90126070000042,006,P004,2025_Jan_18_1415,ConditionRich,2021.2.3,59.927643363586846,
80.75,81.0,41,0.0,Stimuli/Blank.png,0,0,0.0,0,154,154,154,,,,,,,,,,,,,80.7549082000005,0.004908200000500074,None,,137.65192159999788,137.65192159999788,137.65192159999788,137.65192159999788,137.65192159999788,137.65192159999788,137.65192159999788,137.65192159999788,137.65192159999788,137.65192159999788,006,P004,2025_Jan_18_1415,ConditionRich,2021.2.3,59.927643363586846,
81.0,81.75,7,0.75,Stimuli/P004/sun_asgixjtedklbawgm.jpg,0,0,0.0,0,155,155,155,,,,,,,,,,,,,81.02075220000188,0.020752200001879828,None,,137.91881369999828,137.91881369999828,137.91881369999828,137.91881369999828,137.91881369999828,137.91881369999828,137.91881369999828,137.91881369999828,137.91881369999828,137.91881369999828,006,P004,2025_Jan_18_1415,ConditionRich,2021.2.3,59.927643363586846,
81.75,82.0,41,0.0,Stimuli/Blank.png,0,0,0.0,0,156,156,156,,,,,,,,,,,,,81.77045610000278,0.0204561000027752,5,0.201088300000265,138.65281350000078,138.65281350000078,138.65281350000078,138.65281350000078,138.65281350000078,138.65281350000078,138.65281350000078,138.65281350000078,138.65281350000078,138.65281350000078,006,P004,2025_Jan_18_1415,ConditionRich,2021.2.3,59.927643363586846,
82.0,82.75,7,0.75,Stimuli/P004/sun_asgixjtedklbawgm.jpg,0,0,0.0,0,157,157,157,,,,,,,,,,,,,82.00437750000128,0.004377500001282897,None,,138.88634040000034,138.88634040000034,138.88634040000034,138.88634040000034,138.88634040000034,138.88634040000034,138.88634040000034,138.88634040000034,138.88634040000034,138.88634040000034,006,P004,2025_Jan_18_1415,ConditionRich,2021.2.3,59.927643363586846,
82.75,83.0,41,0.0,Stimuli/Blank.png,0,0,0.0,0,158,158,158,,,,,,,,,,,,,82.75515400000222,0.005154000002221437,None,,139.63700809999864,139.63700809999864,139.63700809999864,139.63700809999864,139.63700809999864,139.63700809999864,139.63700809999864,139.63700809999864,139.63700809999864,139.63700809999864,006,P004,2025_Jan_18_1415,ConditionRich,2021.2.3,59.927643363586846,
83.0,83.75,7,0.75,Stimuli/P004/sun_asgixjtedklbawgm.jpg,0,0,0.0,0,159,159,159,,,,,,,,,,,,,83.00478090000252,0.004780900002515409,None,,139.8872182999985,139.8872182999985,139.8872182999985,139.8872182999985,139.8872182999985,139.8872182999985,139.8872182999985,139.8872182999985,139.8872182999985,139.8872182999985,006,P004,2025_Jan_18_1415,ConditionRich,2021.2.3,59.927643363586846,
83.75,84.0,41,0.0,Stimuli/Blank.png,0,0,0.0,0,160,160,160,,,,,,,,,,,,,83.7560338000003,0.0060338000002957415,5,0.21599699999933364,140.6378869,140.6378869,140.6378869,140.6378869,140.6378869,140.6378869,140.6378869,140.6378869,140.6378869,140.6378869,006,P004,2025_Jan_18_1415,ConditionRich,2021.2.3,59.927643363586846,
84.0,100.0,0,0.0,Stimuli/Blank.png,1,2,2.75,0,161,161,161,,,,,,,,,,,,,84.00623220000125,0.006232200001250021,5,13.967024000001402,140.8880949000013,140.8880949000013,140.8880949000013,140.8880949000013,140.8880949000013,140.8880949000013,142.873173699998,143.62382799999978,140.8880949000013,140.8880949000013,006,P004,2025_Jan_18_1415,ConditionRich,2021.2.3,59.927643363586846,
100.0,100.75,19,0.75,Stimuli/P004/sun_bucebxfexknakpma.jpg,0,0,0.0,0,162,162,162,,,,,,,,,,,,,100.00340870000218,0.0034087000021827407,None,,156.88551839999855,156.88551839999855,156.88551839999855,156.88551839999855,156.88551839999855,156.88551839999855,156.88551839999855,156.88551839999855,156.88551839999855,156.88551839999855,006,P004,2025_Jan_18_1415,ConditionRich,2021.2.3,59.927643363586846,
100.75,101.0,41,0.0,Stimuli/Blank.png,0,0,0.0,0,163,163,163,,,,,,,,,,,,,100.75496360000034,0.004963600000337465,None,,157.63615199999913,157.63615199999913,157.63615199999913,157.63615199999913,157.63615199999913,157.63615199999913,157.63615199999913,157.63615199999913,157.63615199999913,157.63615199999913,006,P004,2025_Jan_18_1415,ConditionRich,2021.2.3,59.927643363586846,
101.0,101.75,19,0.75,Stimuli/P004/sun_bucebxfexknakpma.jpg,1,0,0.75,0,164,164,164,,,,,,,,,,,,,101.00531110000156,0.005311100001563318,4,0.4217910000006668,157.90309390000039,157.90309390000039,157.90309390000039,157.90309390000039,157.90309390000039,157.90309390000039,157.90309390000039,158.62037449999843,157.90309390000039,157.90309390000039,006,P004,2025_Jan_18_1415,ConditionRich,2021.2.3,59.927643363586846,
101.75,102.0,41,0.0,Stimuli/Blank.png,0,0,0.0,0,165,165,165,,,,,,,,,,,,,101.77169950000098,0.021699500000977423,5,0.20111940000060713,158.65374520000114,158.65374520000114,158.65374520000114,158.65374520000114,158.65374520000114,158.65374520000114,158.65374520000114,158.65374520000114,158.65374520000114,158.65374520000114,006,P004,2025_Jan_18_1415,ConditionRich,2021.2.3,59.927643363586846,
102.0,102.75,19,0.75,Stimuli/P004/sun_bucebxfexknakpma.jpg,0,0,0.0,0,166,166,166,,,,,,,,,,,,,102.00501840000288,0.005018400002882117,None,,158.88727149999977,158.88727149999977,158.88727149999977,158.88727149999977,158.88727149999977,158.88727149999977,158.88727149999977,158.88727149999977,158.88727149999977,158.88727149999977,006,P004,2025_Jan_18_1415,ConditionRich,2021.2.3,59.927643363586846,
102.75,103.0,41,0.0,Stimuli/Blank.png,0,0,0.0,0,167,167,167,,,,,,,,,,,,,102.75606800000241,0.0060680000024149194,None,,159.637931199999,159.637931199999,159.637931199999,159.637931199999,159.637931199999,159.637931199999,159.637931199999,159.637931199999,159.637931199999,159.637931199999,006,P004,2025_Jan_18_1415,ConditionRich,2021.2.3,59.927643363586846,
103.0,103.75,19,0.75,Stimuli/P004/sun_bucebxfexknakpma.jpg,0,0,0.0,0,168,168,168,,,,,,,,,,,,,103.0065792000023,0.006579200002306607,None,,159.90483089999907,159.90483089999907,159.90483089999907,159.90483089999907,159.90483089999907,159.90483089999907,159.90483089999907,159.90483089999907,159.90483089999907,159.90483089999907,006,P004,2025_Jan_18_1415,ConditionRich,2021.2.3,59.927643363586846,
103.75,104.0,41,0.0,Stimuli/Blank.png,0,0,0.0,0,169,169,169,,,,,,,,,,,,,103.77492300000085,0.02492300000085379,5,0.18257919999814476,160.672204399998,160.672204399998,160.672204399998,160.672204399998,160.672204399998,160.672204399998,160.672204399998,160.672204399998,160.672204399998,160.672204399998,006,P004,2025_Jan_18_1415,ConditionRich,2021.2.3,59.927643363586846,
104.0,104.75,5,0.75,Stimuli/P004/sun_amnnxdwfjbdfumns.jpg,0,0,0.0,0,170,170,170,,,,,,,,,,,,,104.02401870000176,0.024018700001761317,None,,160.90571360000104,160.90571360000104,160.90571360000104,160.90571360000104,160.90571360000104,160.90571360000104,160.90571360000104,160.90571360000104,160.90571360000104,160.90571360000104,006,P004,2025_Jan_18_1415,ConditionRich,2021.2.3,59.927643363586846,
104.75,105.0,41,0.0,Stimuli/Blank.png,0,0,0.0,0,171,171,171,,,,,,,,,,,,,104.759686100002,0.009686100001999876,None,,161.656410399999,161.656410399999,161.656410399999,161.656410399999,161.656410399999,161.656410399999,161.656410399999,161.656410399999,161.656410399999,161.656410399999,006,P004,2025_Jan_18_1415,ConditionRich,2021.2.3,59.927643363586846,
105.0,105.75,5,0.75,Stimuli/P004/sun_amnnxdwfjbdfumns.jpg,0,0,0.0,0,172,172,172,,,,,,,,,,,,,105.02402910000092,0.024029100000916515,None,,161.9065980000014,161.9065980000014,161.9065980000014,161.9065980000014,161.9065980000014,161.9065980000014,161.9065980000014,161.9065980000014,161.9065980000014,161.9065980000014,006,P004,2025_Jan_18_1415,ConditionRich,2021.2.3,59.927643363586846,
105.75,106.0,41,0.0,Stimuli/Blank.png,0,0,0.0,0,173,173,173,,,,,,,,,,,,,105.7580607000018,0.008060700001806254,5,0.21434600000065984,162.64056029999847,162.64056029999847,162.64056029999847,162.64056029999847,162.64056029999847,162.64056029999847,162.64056029999847,162.64056029999847,162.64056029999847,162.64056029999847,006,P004,2025_Jan_18_1415,ConditionRich,2021.2.3,59.927643363586846,
106.0,106.75,5,0.75,Stimuli/P004/sun_amnnxdwfjbdfumns.jpg,0,0,0.0,0,174,174,174,,,,,,,,,,,,,106.00997870000356,0.009978700003557606,None,,162.90748080000049,162.90748080000049,162.90748080000049,162.90748080000049,162.90748080000049,162.90748080000049,162.90748080000049,162.90748080000049,162.90748080000049,162.90748080000049,006,P004,2025_Jan_18_1415,ConditionRich,2021.2.3,59.927643363586846,
106.75,107.0,41,0.0,Stimuli/Blank.png,0,0,0.0,0,175,175,175,,,,,,,,,,,,,106.77656050000223,0.02656050000223331,None,,163.65820959999837,163.65820959999837,163.65820959999837,163.65820959999837,163.65820959999837,163.65820959999837,163.65820959999837,163.65820959999837,163.65820959999837,163.65820959999837,006,P004,2025_Jan_18_1415,ConditionRich,2021.2.3,59.927643363586846,
107.0,107.75,5,0.75,Stimuli/P004/sun_amnnxdwfjbdfumns.jpg,0,0,0.0,0,176,176,176,,,,,,,,,,,,,107.00994190000347,0.009941900003468618,None,,163.89168549999886,163.89168549999886,163.89168549999886,163.89168549999886,163.89168549999886,163.89168549999886,163.89168549999886,163.89168549999886,163.89168549999886,163.89168549999886,006,P004,2025_Jan_18_1415,ConditionRich,2021.2.3,59.927643363586846,
107.75,108.0,41,0.0,Stimuli/Blank.png,0,0,0.0,0,177,177,177,,,,,,,,,,,,,107.7603556000031,0.010355600003094878,5,0.21241860000009183,164.64234270000088,164.64234270000088,164.64234270000088,164.64234270000088,164.64234270000088,164.64234270000088,164.64234270000088,164.64234270000088,164.64234270000088,164.64234270000088,006,P004,2025_Jan_18_1415,ConditionRich,2021.2.3,59.927643363586846,
108.0,108.75,24,0.75,Stimuli/P004/things_dumpling_02s.jpg,0,0,0.0,0,178,178,178,,,,,,,,,,,,,108.01010360000146,0.01010360000145738,None,,164.89257780000116,164.89257780000116,164.89257780000116,164.89257780000116,164.89257780000116,164.89257780000116,164.89257780000116,164.89257780000116,164.89257780000116,164.89257780000116,006,P004,2025_Jan_18_1415,ConditionRich,2021.2.3,59.927643363586846,
108.75,109.0,41,0.0,Stimuli/Blank.png,0,0,0.0,0,179,179,179,,,,,,,,,,,,,108.76103320000038,0.011033200000383658,None,,165.6432018000014,165.6432018000014,165.6432018000014,165.6432018000014,165.6432018000014,165.6432018000014,165.6432018000014,165.6432018000014,165.6432018000014,165.6432018000014,006,P004,2025_Jan_18_1415,ConditionRich,2021.2.3,59.927643363586846,
109.0,109.75,24,0.75,Stimuli/P004/things_dumpling_02s.jpg,0,0,0.0,0,180,180,180,,,,,,,,,,,,,109.01146660000086,0.011466600000858307,None,,165.91012979999869,165.91012979999869,165.91012979999869,165.91012979999869,165.91012979999869,165.91012979999869,165.91012979999869,165.91012979999869,165.91012979999869,165.91012979999869,006,P004,2025_Jan_18_1415,ConditionRich,2021.2.3,59.927643363586846,
109.75,110.0,41,0.0,Stimuli/Blank.png,0,0,0.0,0,181,181,181,,,,,,,,,,,,,109.7798315,0.029831500000000233,5,0.19392700000025798,166.66079809999792,166.66079809999792,166.66079809999792,166.66079809999792,166.66079809999792,166.66079809999792,166.66079809999792,166.66079809999792,166.66079809999792,166.66079809999792,006,P004,2025_Jan_18_1415,ConditionRich,2021.2.3,59.927643363586846,
110.0,110.75,24,0.75,Stimuli/P004/things_dumpling_02s.jpg,0,0,0.0,0,182,182,182,,,,,,,,,,,,,110.01267260000168,0.012672600001678802,None,,166.89432179999858,166.89432179999858,166.89432179999858,166.89432179999858,166.89432179999858,166.89432179999858,166.89432179999858,166.89432179999858,166.89432179999858,166.89432179999858,006,P004,2025_Jan_18_1415,ConditionRich,2021.2.3,59.927643363586846,
110.75,111.0,41,0.0,Stimuli/Blank.png,0,0,0.0,0,183,183,183,,,,,,,,,,,,,110.76505680000264,0.015056800002639648,None,,167.6449825999989,167.6449825999989,167.6449825999989,167.6449825999989,167.6449825999989,167.6449825999989,167.6449825999989,167.6449825999989,167.6449825999989,167.6449825999989,006,P004,2025_Jan_18_1415,ConditionRich,2021.2.3,59.927643363586846,
111.0,111.75,24,0.75,Stimuli/P004/things_dumpling_02s.jpg,0,0,0.0,0,184,184,184,,,,,,,,,,,,,111.01303940000071,0.013039400000707246,None,,167.89520389999961,167.89520389999961,167.89520389999961,167.89520389999961,167.89520389999961,167.89520389999961,167.89520389999961,167.89520389999961,167.89520389999961,167.89520389999961,006,P004,2025_Jan_18_1415,ConditionRich,2021.2.3,59.927643363586846,
111.75,112.0,41,0.0,Stimuli/Blank.png,0,0,0.0,0,185,185,185,,,,,,,,,,,,,111.76402820000294,0.014028200002940139,5,0.20909969999775058,168.64586530000088,168.64586530000088,168.64586530000088,168.64586530000088,168.64586530000088,168.64586530000088,168.64586530000088,168.64586530000088,168.64586530000088,168.64586530000088,006,P004,2025_Jan_18_1415,ConditionRich,2021.2.3,59.927643363586846,
112.0,112.75,3,0.75,Stimuli/P004/sun_afqjzrocqhabifao.jpg,0,0,0.0,0,186,186,186,,,,,,,,,,,,,112.01398330000302,0.013983300003019394,None,,168.8960838999992,168.8960838999992,168.8960838999992,168.8960838999992,168.8960838999992,168.8960838999992,168.8960838999992,168.8960838999992,168.8960838999992,168.8960838999992,006,P004,2025_Jan_18_1415,ConditionRich,2021.2.3,59.927643363586846,
112.75,113.0,41,0.0,Stimuli/Blank.png,0,0,0.0,0,187,187,187,,,,,,,,,,,,,112.76536190000115,0.015361900001153117,None,,169.6467503999993,169.6467503999993,169.6467503999993,169.6467503999993,169.6467503999993,169.6467503999993,169.6467503999993,169.6467503999993,169.6467503999993,169.6467503999993,006,P004,2025_Jan_18_1415,ConditionRich,2021.2.3,59.927643363586846,
113.0,113.75,3,0.75,Stimuli/P004/sun_afqjzrocqhabifao.jpg,0,0,0.0,0,188,188,188,,,,,,,,,,,,,113.01522640000258,0.015226400002575247,None,,169.89696919999915,169.89696919999915,169.89696919999915,169.89696919999915,169.89696919999915,169.89696919999915,169.89696919999915,169.89696919999915,169.89696919999915,169.89696919999915,006,P004,2025_Jan_18_1415,ConditionRich,2021.2.3,59.927643363586846,
113.75,114.0,41,0.0,Stimuli/Blank.png,0,0,0.0,0,189,189,189,,,,,,,,,,,,,113.74924920000194,-0.0007507999980589375,None,,170.6309489999985,170.6309489999985,170.6309489999985,170.6309489999985,170.6309489999985,170.6309489999985,170.6309489999985,170.6309489999985,170.6309489999985,170.6309489999985,006,P004,2025_Jan_18_1415,ConditionRich,2021.2.3,59.927643363586846,
114.0,114.75,3,0.75,Stimuli/P004/sun_afqjzrocqhabifao.jpg,0,0,0.0,0,190,190,190,,,,,,,,,,,,,113.99999370000296,-6.299997039604932e-06,None,,170.89784370000052,170.89784370000052,170.89784370000052,170.89784370000052,170.89784370000052,170.89784370000052,170.89784370000052,170.89784370000052,170.89784370000052,170.89784370000052,006,P004,2025_Jan_18_1415,ConditionRich,2021.2.3,59.927643363586846,
114.75,115.0,41,0.0,Stimuli/Blank.png,0,0,0.0,0,191,191,191,,,,,,,,,,,,,114.7666304000013,0.016630400001304224,None,,171.64857459999985,171.64857459999985,171.64857459999985,171.64857459999985,171.64857459999985,171.64857459999985,171.64857459999985,171.64857459999985,171.64857459999985,171.64857459999985,006,P004,2025_Jan_18_1415,ConditionRich,2021.2.3,59.927643363586846,
115.0,115.75,3,0.75,Stimuli/P004/sun_afqjzrocqhabifao.jpg,0,0,0.0,0,192,192,192,,,,,,,,,,,,,115.00045690000115,0.0004569000011542812,None,,171.8987468999985,171.8987468999985,171.8987468999985,171.8987468999985,171.8987468999985,171.8987468999985,171.8987468999985,171.8987468999985,171.8987468999985,171.8987468999985,006,P004,2025_Jan_18_1415,ConditionRich,2021.2.3,59.927643363586846,
115.75,116.0,41,0.0,Stimuli/Blank.png,0,0,0.0,0,193,193,193,,,,,,,,,,,,,115.7706102000011,0.020610200001101475,5,0.18865619999996852,172.6661458999988,172.6661458999988,172.6661458999988,172.6661458999988,172.6661458999988,172.6661458999988,172.6661458999988,172.6661458999988,172.6661458999988,172.6661458999988,006,P004,2025_Jan_18_1415,ConditionRich,2021.2.3,59.927643363586846,
116.0,116.75,36,0.75,Stimuli/P004/things_sea_urchin_02s.jpg,0,0,0.0,0,194,194,194,,,,,,,,,,,,,116.01942240000062,0.019422400000621565,None,,172.91629059999832,172.91629059999832,172.91629059999832,172.91629059999832,172.91629059999832,172.91629059999832,172.91629059999832,172.91629059999832,172.91629059999832,172.91629059999832,006,P004,2025_Jan_18_1415,ConditionRich,2021.2.3,59.927643363586846,
116.75,117.0,41,0.0,Stimuli/Blank.png,0,0,0.0,0,195,195,195,,,,,,,,,,,,,116.76804470000206,0.01804470000206493,None,,173.65031140000065,173.65031140000065,173.65031140000065,173.65031140000065,173.65031140000065,173.65031140000065,173.65031140000065,173.65031140000065,173.65031140000065,173.65031140000065,006,P004,2025_Jan_18_1415,ConditionRich,2021.2.3,59.927643363586846,
117.0,117.75,36,0.75,Stimuli/P004/things_sea_urchin_02s.jpg,0,0,0.0,0,196,196,196,,,,,,,,,,,,,117.00431770000068,0.004317700000683544,None,,173.90049839999847,173.90049839999847,173.90049839999847,173.90049839999847,173.90049839999847,173.90049839999847,173.90049839999847,173.90049839999847,173.90049839999847,173.90049839999847,006,P004,2025_Jan_18_1415,ConditionRich,2021.2.3,59.927643363586846,
117.75,118.0,41,0.0,Stimuli/Blank.png,0,0,0.0,0,197,197,197,,,,,,,,,,,,,117.76991100000305,0.019911000003048684,5,0.18717609999657725,174.66785080000045,174.66785080000045,174.66785080000045,174.66785080000045,174.66785080000045,174.66785080000045,174.66785080000045,174.66785080000045,174.66785080000045,174.66785080000045,006,P004,2025_Jan_18_1415,ConditionRich,2021.2.3,59.927643363586846,
118.0,118.75,36,0.75,Stimuli/P004/things_sea_urchin_02s.jpg,0,0,0.0,0,198,198,198,,,,,,,,,,,,,118.01971650000269,0.0197165000026871,None,,174.90136770000026,174.90136770000026,174.90136770000026,174.90136770000026,174.90136770000026,174.90136770000026,174.90136770000026,174.90136770000026,174.90136770000026,174.90136770000026,006,P004,2025_Jan_18_1415,ConditionRich,2021.2.3,59.927643363586846,
118.75,119.0,41,0.0,Stimuli/Blank.png,0,0,0.0,0,199,199,199,,,,,,,,,,,,,118.75481690000015,0.004816900000150781,None,,175.65210260000094,175.65210260000094,175.65210260000094,175.65210260000094,175.65210260000094,175.65210260000094,175.65210260000094,175.65210260000094,175.65210260000094,175.65210260000094,006,P004,2025_Jan_18_1415,ConditionRich,2021.2.3,59.927643363586846,
119.0,119.75,36,0.75,Stimuli/P004/things_sea_urchin_02s.jpg,0,0,0.0,0,200,200,200,,,,,,,,,,,,,119.01998340000137,0.019983400001365226,None,,175.90224569999918,175.90224569999918,175.90224569999918,175.90224569999918,175.90224569999918,175.90224569999918,175.90224569999918,175.90224569999918,175.90224569999918,175.90224569999918,006,P004,2025_Jan_18_1415,ConditionRich,2021.2.3,59.927643363586846,
119.75,120.0,41,0.0,Stimuli/Blank.png,0,0,0.0,0,201,201,201,,,,,,,,,,,,,119.75529040000038,0.005290400000376394,5,0.21852739999667392,176.63623780000125,176.63623780000125,176.63623780000125,176.63623780000125,176.63623780000125,176.63623780000125,176.63623780000125,176.63623780000125,176.63623780000125,176.63623780000125,006,P004,2025_Jan_18_1415,ConditionRich,2021.2.3,59.927643363586846,
120.0,120.75,21,0.75,Stimuli/P004/things_baby_02s.jpg,0,0,0.0,0,202,202,202,,,,,,,,,,,,,120.00410290000218,0.0041029000021808315,None,,176.8864493000001,176.8864493000001,176.8864493000001,176.8864493000001,176.8864493000001,176.8864493000001,176.8864493000001,176.8864493000001,176.8864493000001,176.8864493000001,006,P004,2025_Jan_18_1415,ConditionRich,2021.2.3,59.927643363586846,
120.75,121.0,41,0.0,Stimuli/Blank.png,0,0,0.0,0,203,203,203,,,,,,,,,,,,,120.75518190000003,0.005181900000025053,None,,177.63710749999882,177.63710749999882,177.63710749999882,177.63710749999882,177.63710749999882,177.63710749999882,177.63710749999882,177.63710749999882,177.63710749999882,177.63710749999882,006,P004,2025_Jan_18_1415,ConditionRich,2021.2.3,59.927643363586846,
121.0,121.75,21,0.75,Stimuli/P004/things_baby_02s.jpg,0,0,0.0,0,204,204,204,,,,,,,,,,,,,121.00552420000167,0.005524200001673307,None,,177.88734169999952,177.88734169999952,177.88734169999952,177.88734169999952,177.88734169999952,177.88734169999952,177.88734169999952,177.88734169999952,177.88734169999952,177.88734169999952,006,P004,2025_Jan_18_1415,ConditionRich,2021.2.3,59.927643363586846,
121.75,122.0,41,0.0,Stimuli/Blank.png,0,0,0.0,0,205,205,205,,,,,,,,,,,,,121.7557123000006,0.00571230000059586,5,0.21683940000002622,178.63799909999943,178.63799909999943,178.63799909999943,178.63799909999943,178.63799909999943,178.63799909999943,178.63799909999943,178.63799909999943,178.63799909999943,178.63799909999943,006,P004,2025_Jan_18_1415,ConditionRich,2021.2.3,59.927643363586846,
122.0,122.75,21,0.75,Stimuli/P004/things_baby_02s.jpg,0,0,0.0,0,206,206,206,,,,,,,,,,,,,122.00606730000072,0.006067300000722753,None,,178.88821259999895,178.88821259999895,178.88821259999895,178.88821259999895,178.88821259999895,178.88821259999895,178.88821259999895,178.88821259999895,178.88821259999895,178.88821259999895,006,P004,2025_Jan_18_1415,ConditionRich,2021.2.3,59.927643363586846,
122.75,123.0,41,0.0,Stimuli/Blank.png,0,0,0.0,0,207,207,207,,,,,,,,,,,,,122.7569859000032,0.006985900003201095,None,,179.638854599998,179.638854599998,179.638854599998,179.638854599998,179.638854599998,179.638854599998,179.638854599998,179.638854599998,179.638854599998,179.638854599998,006,P004,2025_Jan_18_1415,ConditionRich,2021.2.3,59.927643363586846,
123.0,123.75,21,0.75,Stimuli/P004/things_baby_02s.jpg,0,0,0.0,0,208,208,208,,,,,,,,,,,,,123.00925120000102,0.009251200001017423,None,,179.90577459999986,179.90577459999986,179.90577459999986,179.90577459999986,179.90577459999986,179.90577459999986,179.90577459999986,179.90577459999986,179.90577459999986,179.90577459999986,006,P004,2025_Jan_18_1415,ConditionRich,2021.2.3,59.927643363586846,
123.75,124.0,41,0.0,Stimuli/Blank.png,0,0,0.0,0,209,209,209,,,,,,,,,,,,,123.77482030000101,0.024820300001010764,5,0.19822340000246186,180.65645740000036,180.65645740000036,180.65645740000036,180.65645740000036,180.65645740000036,180.65645740000036,180.65645740000036,180.65645740000036,180.65645740000036,180.65645740000036,006,P004,2025_Jan_18_1415,ConditionRich,2021.2.3,59.927643363586846,
124.0,124.75,10,0.75,Stimuli/P004/sun_azzneunxibjvypza.jpg,0,0,0.0,0,210,210,210,,,,,,,,,,,,,124.00764049999998,0.007640499999979511,None,,180.8899762000001,180.8899762000001,180.8899762000001,180.8899762000001,180.8899762000001,180.8899762000001,180.8899762000001,180.8899762000001,180.8899762000001,180.8899762000001,006,P004,2025_Jan_18_1415,ConditionRich,2021.2.3,59.927643363586846,
124.75,125.0,41,0.0,Stimuli/Blank.png,0,0,0.0,0,211,211,211,,,,,,,,,,,,,124.75870090000171,0.008700900001713308,None,,181.6406562000011,181.6406562000011,181.6406562000011,181.6406562000011,181.6406562000011,181.6406562000011,181.6406562000011,181.6406562000011,181.6406562000011,181.6406562000011,006,P004,2025_Jan_18_1415,ConditionRich,2021.2.3,59.927643363586846,
125.0,125.75,10,0.75,Stimuli/P004/sun_azzneunxibjvypza.jpg,0,0,0.0,0,212,212,212,,,,,,,,,,,,,125.00893560000259,0.008935600002587307,None,,181.890855499998,181.890855499998,181.890855499998,181.890855499998,181.890855499998,181.890855499998,181.890855499998,181.890855499998,181.890855499998,181.890855499998,006,P004,2025_Jan_18_1415,ConditionRich,2021.2.3,59.927643363586846,
125.75,126.0,41,0.0,Stimuli/Blank.png,0,0,0.0,0,213,213,213,,,,,,,,,,,,,125.76111330000276,0.011113300002762116,5,0.19660920000023907,182.6582042000009,182.6582042000009,182.6582042000009,182.6582042000009,182.6582042000009,182.6582042000009,182.6582042000009,182.6582042000009,182.6582042000009,182.6582042000009,006,P004,2025_Jan_18_1415,ConditionRich,2021.2.3,59.927643363586846,
126.0,126.75,10,0.75,Stimuli/P004/sun_azzneunxibjvypza.jpg,0,0,0.0,0,214,214,214,,,,,,,,,,,,,126.02669920000335,0.026699200003349688,None,,182.92511279999962,182.92511279999962,182.92511279999962,182.92511279999962,182.92511279999962,182.92511279999962,182.92511279999962,182.92511279999962,182.92511279999962,182.92511279999962,006,P004,2025_Jan_18_1415,ConditionRich,2021.2.3,59.927643363586846,
126.75,127.0,41,0.0,Stimuli/Blank.png,0,0,0.0,0,215,215,215,,,,,,,,,,,,,126.77930130000095,0.029301300000952324,None,,183.67578069999945,183.67578069999945,183.67578069999945,183.67578069999945,183.67578069999945,183.67578069999945,183.67578069999945,183.67578069999945,183.67578069999945,183.67578069999945,006,P004,2025_Jan_18_1415,ConditionRich,2021.2.3,59.927643363586846,
127.0,127.75,10,0.75,Stimuli/P004/sun_azzneunxibjvypza.jpg,0,0,0.0,0,216,216,216,,,,,,,,,,,,,127.02959929999997,0.029599299999972573,None,,183.92597889999888,183.92597889999888,183.92597889999888,183.92597889999888,183.92597889999888,183.92597889999888,183.92597889999888,183.92597889999888,183.92597889999888,183.92597889999888,006,P004,2025_Jan_18_1415,ConditionRich,2021.2.3,59.927643363586846,
127.75,128.0,41,0.0,Stimuli/Blank.png,0,0,0.0,0,217,217,217,,,,,,,,,,,,,127.77966630000083,0.029666300000826595,5,0.17817390000345767,184.67666660000032,184.67666660000032,184.67666660000032,184.67666660000032,184.67666660000032,184.67666660000032,184.67666660000032,184.67666660000032,184.67666660000032,184.67666660000032,006,P004,2025_Jan_18_1415,ConditionRich,2021.2.3,59.927643363586846,
128.0,128.75,1,0.75,Stimuli/P004/sun_adgmtzznutwlescq.jpg,0,0,0.0,0,218,218,218,,,,,,,,,,,,,128.02807020000182,0.028070200001820922,None,,184.91017799999827,184.91017799999827,184.91017799999827,184.91017799999827,184.91017799999827,184.91017799999827,184.91017799999827,184.91017799999827,184.91017799999827,184.91017799999827,006,P004,2025_Jan_18_1415,ConditionRich,2021.2.3,59.927643363586846,
128.75,129.0,41,0.0,Stimuli/Blank.png,0,0,0.0,0,219,219,219,,,,,,,,,,,,,128.7643704000002,0.014370400000188965,None,,185.66081869999834,185.66081869999834,185.66081869999834,185.66081869999834,185.66081869999834,185.66081869999834,185.66081869999834,185.66081869999834,185.66081869999834,185.66081869999834,006,P004,2025_Jan_18_1415,ConditionRich,2021.2.3,59.927643363586846,
129.0,129.75,1,0.75,Stimuli/P004/sun_adgmtzznutwlescq.jpg,0,0,0.0,0,220,220,220,,,,,,,,,,,,,129.02926070000103,0.02926070000103209,None,,185.91108809999787,185.91108809999787,185.91108809999787,185.91108809999787,185.91108809999787,185.91108809999787,185.91108809999787,185.91108809999787,185.91108809999787,185.91108809999787,006,P004,2025_Jan_18_1415,ConditionRich,2021.2.3,59.927643363586846,
129.75,130.0,41,0.0,Stimuli/Blank.png,0,0,0.0,0,221,221,221,,,,,,,,,,,,,129.76467740000226,0.014677400002256036,5,0.19301609999820357,186.6617268000009,186.6617268000009,186.6617268000009,186.6617268000009,186.6617268000009,186.6617268000009,186.6617268000009,186.6617268000009,186.6617268000009,186.6617268000009,006,P004,2025_Jan_18_1415,ConditionRich,2021.2.3,59.927643363586846,
130.0,130.75,1,0.75,Stimuli/P004/sun_adgmtzznutwlescq.jpg,0,0,0.0,0,222,222,222,,,,,,,,,,,,,130.03065020000213,0.03065020000212826,None,,186.9286233999992,186.9286233999992,186.9286233999992,186.9286233999992,186.9286233999992,186.9286233999992,186.9286233999992,186.9286233999992,186.9286233999992,186.9286233999992,006,P004,2025_Jan_18_1415,ConditionRich,2021.2.3,59.927643363586846,
130.75,131.0,41,0.0,Stimuli/Blank.png,0,0,0.0,0,223,223,223,,,,,,,,,,,,,130.7802945000003,0.0302945000003092,None,,187.66259899999932,187.66259899999932,187.66259899999932,187.66259899999932,187.66259899999932,187.66259899999932,187.66259899999932,187.66259899999932,187.66259899999932,187.66259899999932,006,P004,2025_Jan_18_1415,ConditionRich,2021.2.3,59.927643363586846,
131.0,131.75,1,0.75,Stimuli/P004/sun_adgmtzznutwlescq.jpg,0,0,0.0,0,224,224,224,,,,,,,,,,,,,131.01506940000036,0.015069400000356836,None,,187.9128067999991,187.9128067999991,187.9128067999991,187.9128067999991,187.9128067999991,187.9128067999991,187.9128067999991,187.9128067999991,187.9128067999991,187.9128067999991,006,P004,2025_Jan_18_1415,ConditionRich,2021.2.3,59.927643363586846,
131.75,132.0,41,0.0,Stimuli/Blank.png,0,0,0.0,0,225,225,225,,,,,,,,,,,,,131.76698730000135,0.01698730000134674,5,0.1911872000018775,188.66349139999875,188.66349139999875,188.66349139999875,188.66349139999875,188.66349139999875,188.66349139999875,188.66349139999875,188.66349139999875,188.66349139999875,188.66349139999875,006,P004,2025_Jan_18_1415,ConditionRich,2021.2.3,59.927643363586846,
132.0,132.75,8,0.75,Stimuli/P004/sun_asxkyzleyfgbqfrs.jpg,0,0,0.0,0,226,226,226,,,,,,,,,,,,,132.01507330000095,0.01507330000094953,None,,188.89702279999983,188.89702279999983,188.89702279999983,188.89702279999983,188.89702279999983,188.89702279999983,188.89702279999983,188.89702279999983,188.89702279999983,188.89702279999983,006,P004,2025_Jan_18_1415,ConditionRich,2021.2.3,59.927643363586846,
132.75,133.0,41,0.0,Stimuli/Blank.png,0,0,0.0,0,227,227,227,,,,,,,,,,,,,132.74902990000191,-0.0009700999980850611,None,,189.6310005000014,189.6310005000014,189.6310005000014,189.6310005000014,189.6310005000014,189.6310005000014,189.6310005000014,189.6310005000014,189.6310005000014,189.6310005000014,006,P004,2025_Jan_18_1415,ConditionRich,2021.2.3,59.927643363586846,
133.0,133.75,8,0.75,Stimuli/P004/sun_asxkyzleyfgbqfrs.jpg,0,0,0.0,0,228,228,228,,,,,,,,,,,,,132.99991250000312,-8.749999688006938e-05,None,,189.89791590000095,189.89791590000095,189.89791590000095,189.89791590000095,189.89791590000095,189.89791590000095,189.89791590000095,189.89791590000095,189.89791590000095,189.89791590000095,006,P004,2025_Jan_18_1415,ConditionRich,2021.2.3,59.927643363586846,
133.75,134.0,41,0.0,Stimuli/Blank.png,0,0,0.0,0,229,229,229,,,,,,,,,,,,,133.7671401000007,0.017140100000688108,None,,190.64875849999953,190.64875849999953,190.64875849999953,190.64875849999953,190.64875849999953,190.64875849999953,190.64875849999953,190.64875849999953,190.64875849999953,190.64875849999953,006,P004,2025_Jan_18_1415,ConditionRich,2021.2.3,59.927643363586846,
134.0,134.75,8,0.75,Stimuli/P004/sun_asxkyzleyfgbqfrs.jpg,1,0,0.75,0,230,230,230,,,,,,,,,,,,,133.9997101000008,-0.0002898999991884921,4,0.5427974999984144,190.88208640000084,190.88208640000084,190.88208640000084,190.88208640000084,190.88208640000084,190.88208640000084,190.88208640000084,191.61609210000097,190.88208640000084,190.88208640000084,006,P004,2025_Jan_18_1415,ConditionRich,2021.2.3,59.927643363586846,
134.75,135.0,41,0.0,Stimuli/Blank.png,0,0,0.0,0,231,231,231,,,,,,,,,,,,,134.7508039000022,0.0008039000022108667,None,,191.63276250000126,191.63276250000126,191.63276250000126,191.63276250000126,191.63276250000126,191.63276250000126,191.63276250000126,191.63276250000126,191.63276250000126,191.63276250000126,006,P004,2025_Jan_18_1415,ConditionRich,2021.2.3,59.927643363586846,
135.0,135.75,8,0.75,Stimuli/P004/sun_asxkyzleyfgbqfrs.jpg,0,0,0.0,0,232,232,232,,,,,,,,,,,,,135.00122270000065,0.0012227000006532762,None,,191.88298700000087,191.88298700000087,191.88298700000087,191.88298700000087,191.88298700000087,191.88298700000087,191.88298700000087,191.88298700000087,191.88298700000087,191.88298700000087,006,P004,2025_Jan_18_1415,ConditionRich,2021.2.3,59.927643363586846,
135.75,136.0,41,0.0,Stimuli/Blank.png,0,0,0.0,0,233,233,233,,,,,,,,,,,,,135.75176850000207,0.00176850000207196,None,,192.63364430000001,192.63364430000001,192.63364430000001,192.63364430000001,192.63364430000001,192.63364430000001,192.63364430000001,192.63364430000001,192.63364430000001,192.63364430000001,006,P004,2025_Jan_18_1415,ConditionRich,2021.2.3,59.927643363586846,
136.0,136.75,2,0.75,Stimuli/P004/sun_afijjzyziczoqdhz.jpg,0,0,0.0,0,234,234,234,,,,,,,,,,,,,136.00203990000227,0.002039900002273498,None,,192.88386900000114,192.88386900000114,192.88386900000114,192.88386900000114,192.88386900000114,192.88386900000114,192.88386900000114,192.88386900000114,192.88386900000114,192.88386900000114,006,P004,2025_Jan_18_1415,ConditionRich,2021.2.3,59.927643363586846,
136.75,137.0,41,0.0,Stimuli/Blank.png,0,0,0.0,0,235,235,235,,,,,,,,,,,,,136.75209030000042,0.0020903000004182104,None,,193.63458779999928,193.63458779999928,193.63458779999928,193.63458779999928,193.63458779999928,193.63458779999928,193.63458779999928,193.63458779999928,193.63458779999928,193.63458779999928,006,P004,2025_Jan_18_1415,ConditionRich,2021.2.3,59.927643363586846,
137.0,137.75,2,0.75,Stimuli/P004/sun_afijjzyziczoqdhz.jpg,1,0,0.75,0,236,236,236,,,,,,,,,,,,,137.00522560000172,0.005225600001722341,4,0.44922310000038124,193.9014298000002,193.9014298000002,193.9014298000002,193.9014298000002,193.9014298000002,193.9014298000002,193.9014298000002,194.63541160000023,193.9014298000002,193.9014298000002,006,P004,2025_Jan_18_1415,ConditionRich,2021.2.3,59.927643363586846,
137.75,138.0,41,0.0,Stimuli/Blank.png,0,0,0.0,0,237,237,237,,,,,,,,,,,,,137.77027340000132,0.020273400001315167,None,,194.65206939999916,194.65206939999916,194.65206939999916,194.65206939999916,194.65206939999916,194.65206939999916,194.65206939999916,194.65206939999916,194.65206939999916,194.65206939999916,006,P004,2025_Jan_18_1415,ConditionRich,2021.2.3,59.927643363586846,
138.0,138.75,2,0.75,Stimuli/P004/sun_afijjzyziczoqdhz.jpg,0,0,0.0,0,238,238,238,,,,,,,,,,,,,138.00351960000262,0.003519600002618972,None,,194.88563359999898,194.88563359999898,194.88563359999898,194.88563359999898,194.88563359999898,194.88563359999898,194.88563359999898,194.88563359999898,194.88563359999898,194.88563359999898,006,P004,2025_Jan_18_1415,ConditionRich,2021.2.3,59.927643363586846,
138.75,139.0,41,0.0,Stimuli/Blank.png,0,0,0.0,0,239,239,239,,,,,,,,,,,,,138.75516330000028,0.005163300000276649,None,,195.63629500000025,195.63629500000025,195.63629500000025,195.63629500000025,195.63629500000025,195.63629500000025,195.63629500000025,195.63629500000025,195.63629500000025,195.63629500000025,006,P004,2025_Jan_18_1415,ConditionRich,2021.2.3,59.927643363586846,
139.0,139.75,2,0.75,Stimuli/P004/sun_afijjzyziczoqdhz.jpg,0,0,0.0,0,240,240,240,,,,,,,,,,,,,139.00393840000106,0.003938400001061382,None,,195.88650919999782,195.88650919999782,195.88650919999782,195.88650919999782,195.88650919999782,195.88650919999782,195.88650919999782,195.88650919999782,195.88650919999782,195.88650919999782,006,P004,2025_Jan_18_1415,ConditionRich,2021.2.3,59.927643363586846,
139.75,140.0,41,0.0,Stimuli/Blank.png,0,0,0.0,0,241,241,241,,,,,,,,,,,,,139.7550099,0.0050099000000045635,5,0.21756100000129663,196.6371653999995,196.6371653999995,196.6371653999995,196.6371653999995,196.6371653999995,196.6371653999995,196.6371653999995,196.6371653999995,196.6371653999995,196.6371653999995,006,P004,2025_Jan_18_1415,ConditionRich,2021.2.3,59.927643363586846,
140.0,140.75,26,0.75,Stimuli/P004/things_ham_02s.jpg,0,0,0.0,0,242,242,242,,,,,,,,,,,,,140.00569320000068,0.005693200000678189,None,,196.88738960000046,196.88738960000046,196.88738960000046,196.88738960000046,196.88738960000046,196.88738960000046,196.88738960000046,196.88738960000046,196.88738960000046,196.88738960000046,006,P004,2025_Jan_18_1415,ConditionRich,2021.2.3,59.927643363586846,
140.75,141.0,41,0.0,Stimuli/Blank.png,0,0,0.0,0,243,243,243,,,,,,,,,,,,,140.7557323000001,0.005732300000090618,None,,197.63805109999885,197.63805109999885,197.63805109999885,197.63805109999885,197.63805109999885,197.63805109999885,197.63805109999885,197.63805109999885,197.63805109999885,197.63805109999885,006,P004,2025_Jan_18_1415,ConditionRich,2021.2.3,59.927643363586846,
141.0,141.75,26,0.75,Stimuli/P004/things_ham_02s.jpg,0,0,0.0,0,244,244,244,,,,,,,,,,,,,141.00596150000274,0.0059615000027406495,None,,197.88825989999896,197.88825989999896,197.88825989999896,197.88825989999896,197.88825989999896,197.88825989999896,197.88825989999896,197.88825989999896,197.88825989999896,197.88825989999896,006,P004,2025_Jan_18_1415,ConditionRich,2021.2.3,59.927643363586846,
141.75,142.0,41,0.0,Stimuli/Blank.png,0,0,0.0,0,245,245,245,,,,,,,,,,,,,141.75694470000235,0.006944700002350146,5,0.21567620000132592,198.63893090000056,198.63893090000056,198.63893090000056,198.63893090000056,198.63893090000056,198.63893090000056,198.63893090000056,198.63893090000056,198.63893090000056,198.63893090000056,006,P004,2025_Jan_18_1415,ConditionRich,2021.2.3,59.927643363586846,
142.0,142.75,26,0.75,Stimuli/P004/things_ham_02s.jpg,0,0,0.0,0,246,246,246,,,,,,,,,,,,,142.00840570000219,0.008405700002185768,None,,198.9058296000003,198.9058296000003,198.9058296000003,198.9058296000003,198.9058296000003,198.9058296000003,198.9058296000003,198.9058296000003,198.9058296000003,198.9058296000003,006,P004,2025_Jan_18_1415,ConditionRich,2021.2.3,59.927643363586846,
142.75,143.0,41,0.0,Stimuli/Blank.png,0,0,0.0,0,247,247,247,,,,,,,,,,,,,142.7746517000014,0.0246517000014137,None,,199.65649420000045,199.65649420000045,199.65649420000045,199.65649420000045,199.65649420000045,199.65649420000045,199.65649420000045,199.65649420000045,199.65649420000045,199.65649420000045,006,P004,2025_Jan_18_1415,ConditionRich,2021.2.3,59.927643363586846,
143.0,143.75,26,0.75,Stimuli/P004/things_ham_02s.jpg,0,0,0.0,0,248,248,248,,,,,,,,,,,,,143.00973599999998,0.00973599999997532,None,,199.90671959999963,199.90671959999963,199.90671959999963,199.90671959999963,199.90671959999963,199.90671959999963,199.90671959999963,199.90671959999963,199.90671959999963,199.90671959999963,006,P004,2025_Jan_18_1415,ConditionRich,2021.2.3,59.927643363586846,
143.75,144.0,41,0.0,Stimuli/Blank.png,0,0,0.0,0,249,249,249,,,,,,,,,,,,,143.77577350000138,0.025773500001378125,5,0.19731600000159233,200.65736729999844,200.65736729999844,200.65736729999844,200.65736729999844,200.65736729999844,200.65736729999844,200.65736729999844,200.65736729999844,200.65736729999844,200.65736729999844,006,P004,2025_Jan_18_1415,ConditionRich,2021.2.3,59.927643363586846,
144.0,144.75,4,0.75,Stimuli/P004/sun_albtqdieqkajejrg.jpg,0,0,0.0,0,250,250,250,,,,,,,,,,,,,144.0091022000015,0.009102200001507299,None,,200.89091869999902,200.89091869999902,200.89091869999902,200.89091869999902,200.89091869999902,200.89091869999902,200.89091869999902,200.89091869999902,200.89091869999902,200.89091869999902,006,P004,2025_Jan_18_1415,ConditionRich,2021.2.3,59.927643363586846,
144.75,145.0,41,0.0,Stimuli/Blank.png,0,0,0.0,0,251,251,251,,,,,,,,,,,,,144.76068590000068,0.010685900000680704,None,,201.64159840000139,201.64159840000139,201.64159840000139,201.64159840000139,201.64159840000139,201.64159840000139,201.64159840000139,201.64159840000139,201.64159840000139,201.64159840000139,006,P004,2025_Jan_18_1415,ConditionRich,2021.2.3,59.927643363586846,
145.0,145.75,4,0.75,Stimuli/P004/sun_albtqdieqkajejrg.jpg,0,0,0.0,0,252,252,252,,,,,,,,,,,,,145.01003480000145,0.010034800001449184,None,,201.8917952999982,201.8917952999982,201.8917952999982,201.8917952999982,201.8917952999982,201.8917952999982,201.8917952999982,201.8917952999982,201.8917952999982,201.8917952999982,006,P004,2025_Jan_18_1415,ConditionRich,2021.2.3,59.927643363586846,
145.75,146.0,41,0.0,Stimuli/Blank.png,0,0,0.0,0,253,253,253,,,,,,,,,,,,,145.76019900000028,0.010199000000284286,5,0.2123195999993186,202.6424608999987,202.6424608999987,202.6424608999987,202.6424608999987,202.6424608999987,202.6424608999987,202.6424608999987,202.6424608999987,202.6424608999987,202.6424608999987,006,P004,2025_Jan_18_1415,ConditionRich,2021.2.3,59.927643363586846,
146.0,146.75,4,0.75,Stimuli/P004/sun_albtqdieqkajejrg.jpg,0,0,0.0,0,254,254,254,,,,,,,,,,,,,146.01053120000142,0.010531200001423713,None,,202.89267420000033,202.89267420000033,202.89267420000033,202.89267420000033,202.89267420000033,202.89267420000033,202.89267420000033,202.89267420000033,202.89267420000033,202.89267420000033,006,P004,2025_Jan_18_1415,ConditionRich,2021.2.3,59.927643363586846,
146.75,147.0,41,0.0,Stimuli/Blank.png,0,0,0.0,0,255,255,255,,,,,,,,,,,,,146.7615119000002,0.01151190000018687,None,,203.64331830000083,203.64331830000083,203.64331830000083,203.64331830000083,203.64331830000083,203.64331830000083,203.64331830000083,203.64331830000083,203.64331830000083,203.64331830000083,006,P004,2025_Jan_18_1415,ConditionRich,2021.2.3,59.927643363586846,
147.0,147.75,4,0.75,Stimuli/P004/sun_albtqdieqkajejrg.jpg,0,0,0.0,0,256,256,256,,,,,,,,,,,,,147.01135350000186,0.011353500001860084,None,,203.91023810000115,203.91023810000115,203.91023810000115,203.91023810000115,203.91023810000115,203.91023810000115,203.91023810000115,203.91023810000115,203.91023810000115,203.91023810000115,006,P004,2025_Jan_18_1415,ConditionRich,2021.2.3,59.927643363586846,
147.75,148.0,41,0.0,Stimuli/Blank.png,0,0,0.0,0,257,257,257,,,,,,,,,,,,,147.77986030000102,0.029860300001018913,5,0.19382409999889205,204.66090519999852,204.66090519999852,204.66090519999852,204.66090519999852,204.66090519999852,204.66090519999852,204.66090519999852,204.66090519999852,204.66090519999852,204.66090519999852,006,P004,2025_Jan_18_1415,ConditionRich,2021.2.3,59.927643363586846,
148.0,148.75,34,0.75,Stimuli/P004/things_roll_02s.jpg,0,0,0.0,0,258,258,258,,,,,,,,,,,,,148.01269810000304,0.012698100003035506,None,,204.89443889999893,204.89443889999893,204.89443889999893,204.89443889999893,204.89443889999893,204.89443889999893,204.89443889999893,204.89443889999893,204.89443889999893,204.89443889999893,006,P004,2025_Jan_18_1415,ConditionRich,2021.2.3,59.927643363586846,
