eventStartTime,eventEndTime,eventCond,imSize,imFile,responseEvent,fixRespStart,fixRespEnd,Events.thisRepN,Events.thisTrialN,Events.thisN,Events.thisIndex,Instructions.started,Instructions.stopped,participantReadyResponse.keys,participantReadyResponse.rt,participantReadyResponse.started,participantReadyResponse.stopped,startWaitforTrigger,triggerResponse.keys,triggerResponse.rt,triggerResponse.started,triggerResponse.stopped,globalTimer,actualStartTime,startTimingDiff,participantResponse.keys,participantResponse.rt,participantResponse.started,participantResponse.stopped,image.started,image.stopped,fixationOutside.started,fixationOutside.stopped,fixationResponse.started,fixationResponse.stopped,fixationInside.started,fixationInside.stopped,session,participant,date,expName,psychopyVersion,frameRate,
,,,,,,,,,,,,11.877957199998491,None,4,3.3973901999997906,11.877957199998491,None,,,,,,,,,,,,,,,,,,,,,005,P005,2025_Jan_18_1601,ConditionRich,2021.2.3,59.92380089444908,
,,,,,,,,,,,,,,,,,,15.280781199999183,5,15.905477700001939,15.293970299997454,None,,,,,,,,,,,,,,,,005,P005,2025_Jan_18_1601,ConditionRich,2021.2.3,59.92380089444908,
0.0,4.0,0,0.0,Stimuli/Blank.png,0,0.0,0.0,0,0,0,0,,,,,,,,,,,,31.211967899998854,0.029262600000947714,0.029262600000947714,5,1.9412318000031519,31.258003799997823,None,31.258003799997823,None,31.258003799997823,None,31.258003799997823,31.258003799997823,31.258003799997823,None,005,P005,2025_Jan_18_1601,ConditionRich,2021.2.3,59.92380089444908,
4.0,4.75,9,0.75,Stimuli/P005/sun_bfcmdrojsffdttzu.jpg,0,0.0,0.0,0,1,1,1,,,,,,,,,,,,,4.006321199998638,0.006321199998637894,None,,35.24524129999918,35.24524129999918,35.24524129999918,35.24524129999918,35.24524129999918,35.24524129999918,35.24524129999918,35.24524129999918,35.24524129999918,35.24524129999918,005,P005,2025_Jan_18_1601,ConditionRich,2021.2.3,59.92380089444908,
4.75,8.0,41,0.0,Stimuli/Blank.png,0,0.0,0.0,0,2,2,2,,,,,,,,,,,,,4.770354000000225,0.020354000000224914,5,3.186814900000172,36.01248789999954,36.01248789999954,36.01248789999954,36.01248789999954,36.01248789999954,36.01248789999954,36.01248789999954,36.01248789999954,36.01248789999954,36.01248789999954,005,P005,2025_Jan_18_1601,ConditionRich,2021.2.3,59.92380089444908,
8.0,8.75,10,0.75,Stimuli/P005/sun_bgnxbfhmwhliypvg.jpg,0,0.0,0.0,0,3,3,3,,,,,,,,,,,,,8.024104299998726,0.024104299998725764,None,,39.265053799997986,39.265053799997986,39.265053799997986,39.265053799997986,39.265053799997986,39.265053799997986,39.265053799997986,39.265053799997986,39.265053799997986,39.265053799997986,005,P005,2025_Jan_18_1601,ConditionRich,2021.2.3,59.92380089444908,
8.75,12.0,41,0.0,Stimuli/Blank.png,0,0.0,0.0,0,4,4,4,,,,,,,,,,,,,8.773577799998748,0.02357779999874765,5,3.2002885000001697,39.99904059999972,39.99904059999972,39.99904059999972,39.99904059999972,39.99904059999972,39.99904059999972,39.99904059999972,39.99904059999972,39.99904059999972,39.99904059999972,005,P005,2025_Jan_18_1601,ConditionRich,2021.2.3,59.92380089444908,
12.0,12.75,20,0.75,Stimuli/P005/sun_dvxuxzytfdbjyzit.jpg,0,0.0,0.0,0,5,5,5,,,,,,,,,,,,,12.009503000001132,0.009503000001132023,None,,43.25190400000065,43.25190400000065,43.25190400000065,43.25190400000065,43.25190400000065,43.25190400000065,43.25190400000065,43.25190400000065,43.25190400000065,43.25190400000065,005,P005,2025_Jan_18_1601,ConditionRich,2021.2.3,59.92380089444908,
12.75,16.0,41,0.0,Stimuli/Blank.png,0,0.0,0.0,0,6,6,6,,,,,,,,,,,,,12.77884819999963,0.028848199999629287,5,3.179929699999775,44.019241999998485,44.019241999998485,44.019241999998485,44.019241999998485,44.019241999998485,44.019241999998485,44.019241999998485,44.019241999998485,44.019241999998485,44.019241999998485,005,P005,2025_Jan_18_1601,ConditionRich,2021.2.3,59.92380089444908,
16.0,16.75,8,0.75,Stimuli/P005/sun_bekkgqphzbclwpvb.jpg,0,0.0,0.0,0,7,7,7,,,,,,,,,,,,,16.02929099999892,0.029290999998920597,None,,47.25542769999811,47.25542769999811,47.25542769999811,47.25542769999811,47.25542769999811,47.25542769999811,47.25542769999811,47.25542769999811,47.25542769999811,47.25542769999811,005,P005,2025_Jan_18_1601,ConditionRich,2021.2.3,59.92380089444908,
16.75,20.0,41,0.0,Stimuli/Blank.png,0,0.0,0.0,0,8,8,8,,,,,,,,,,,,,16.763299199999892,0.013299199999892153,5,1.2099587000011525,47.98942139999781,47.98942139999781,47.98942139999781,47.98942139999781,47.98942139999781,47.98942139999781,47.98942139999781,47.98942139999781,47.98942139999781,47.98942139999781,005,P005,2025_Jan_18_1601,ConditionRich,2021.2.3,59.92380089444908,
20.0,20.75,27,0.75,Stimuli/P005/things_first-aid_kit_03s.jpg,0,0.0,0.0,0,9,9,9,,,,,,,,,,,,,19.999236999999994,-0.0007630000000062864,None,,51.22558239999853,51.22558239999853,51.22558239999853,51.22558239999853,51.22558239999853,51.22558239999853,51.22558239999853,51.22558239999853,51.22558239999853,51.22558239999853,005,P005,2025_Jan_18_1601,ConditionRich,2021.2.3,59.92380089444908,
20.75,24.0,41,0.0,Stimuli/Blank.png,1,0.25,1.0,0,10,10,10,,,,,,,,,,,,,20.75078239999857,0.0007823999985703267,5,1.2228565000004892,51.97634079999989,51.97634079999989,51.97634079999989,51.97634079999989,51.97634079999989,51.97634079999989,52.20978599999944,52.96044079999774,51.97634079999989,51.97634079999989,005,P005,2025_Jan_18_1601,ConditionRich,2021.2.3,59.92380089444908,
24.0,24.75,18,0.75,Stimuli/P005/sun_bzqhpcsgzswozfhs.jpg,0,0.0,0.0,0,11,11,11,,,,,,,,,,,,,24.002979000000778,0.002979000000777887,None,,55.22910409999895,55.22910409999895,55.22910409999895,55.22910409999895,55.22910409999895,55.22910409999895,55.22910409999895,55.22910409999895,55.22910409999895,55.22910409999895,005,P005,2025_Jan_18_1601,ConditionRich,2021.2.3,59.92380089444908,
24.75,28.0,41,0.0,Stimuli/Blank.png,0,0.0,0.0,0,12,12,12,,,,,,,,,,,,,24.754522200000793,0.004522200000792509,5,3.2194449000016903,55.97977289999835,55.97977289999835,55.97977289999835,55.97977289999835,55.97977289999835,55.97977289999835,55.97977289999835,55.97977289999835,55.97977289999835,55.97977289999835,005,P005,2025_Jan_18_1601,ConditionRich,2021.2.3,59.92380089444908,
28.0,28.75,37,0.75,Stimuli/P005/things_showerhead_03s.jpg,0,0.0,0.0,0,13,13,13,,,,,,,,,,,,,28.00688739999896,0.006887399998959154,4,0.6185689999983879,59.2326252999992,59.2326252999992,59.2326252999992,59.2326252999992,59.2326252999992,59.2326252999992,59.2326252999992,59.2326252999992,59.2326252999992,59.2326252999992,005,P005,2025_Jan_18_1601,ConditionRich,2021.2.3,59.92380089444908,
28.75,32.0,41,0.0,Stimuli/Blank.png,0,0.0,0.0,0,14,14,14,,,,,,,,,,,,,28.759364400000777,0.009364400000777096,5,3.199283000001742,59.99997689999873,59.99997689999873,59.99997689999873,59.99997689999873,59.99997689999873,59.99997689999873,59.99997689999873,59.99997689999873,59.99997689999873,59.99997689999873,005,P005,2025_Jan_18_1601,ConditionRich,2021.2.3,59.92380089444908,
32.0,32.75,2,0.75,Stimuli/P005/sun_ahmycohdkioefoxs.jpg,0,0.0,0.0,0,15,15,15,,,,,,,,,,,,,32.02891159999854,0.028911599998536985,None,,63.26951899999767,63.26951899999767,63.26951899999767,63.26951899999767,63.26951899999767,63.26951899999767,63.26951899999767,63.26951899999767,63.26951899999767,63.26951899999767,005,P005,2025_Jan_18_1601,ConditionRich,2021.2.3,59.92380089444908,
32.75,36.0,41,0.0,Stimuli/Blank.png,1,0.25,1.0,0,16,16,16,,,,,,,,,,,,,32.779001800001424,0.02900180000142427,5,3.178918400000839,64.0201808999991,64.0201808999991,64.0201808999991,64.0201808999991,64.0201808999991,64.0201808999991,64.25371829999858,65.00437779999993,64.0201808999991,64.0201808999991,005,P005,2025_Jan_18_1601,ConditionRich,2021.2.3,59.92380089444908,
36.0,36.75,28,0.75,Stimuli/P005/things_girl_03s.jpg,0,0.0,0.0,0,17,17,17,,,,,,,,,,,,,36.03033149999828,0.030331499998283107,None,,67.25636060000033,67.25636060000033,67.25636060000033,67.25636060000033,67.25636060000033,67.25636060000033,67.25636060000033,67.25636060000033,67.25636060000033,67.25636060000033,005,P005,2025_Jan_18_1601,ConditionRich,2021.2.3,59.92380089444908,
36.75,40.0,41,0.0,Stimuli/Blank.png,0,0.0,0.0,0,18,18,18,,,,,,,,,,,,,36.76468680000107,0.014686800001072697,5,1.2089564999987488,67.9903462000002,67.9903462000002,67.9903462000002,67.9903462000002,67.9903462000002,67.9903462000002,67.9903462000002,67.9903462000002,67.9903462000002,67.9903462000002,005,P005,2025_Jan_18_1601,ConditionRich,2021.2.3,59.92380089444908,
40.0,40.75,16,0.75,Stimuli/P005/sun_bwentnobehmvaxkp.jpg,0,0.0,0.0,0,19,19,19,,,,,,,,,,,,,40.0007755000006,0.0007755000006000046,None,,71.24320069999885,71.24320069999885,71.24320069999885,71.24320069999885,71.24320069999885,71.24320069999885,71.24320069999885,71.24320069999885,71.24320069999885,71.24320069999885,005,P005,2025_Jan_18_1601,ConditionRich,2021.2.3,59.92380089444908,
40.75,44.0,41,0.0,Stimuli/Blank.png,0,0.0,0.0,0,20,20,20,,,,,,,,,,,,,40.768103400001564,0.018103400001564296,5,1.2055561999986821,71.99385129999791,71.99385129999791,71.99385129999791,71.99385129999791,71.99385129999791,71.99385129999791,71.99385129999791,71.99385129999791,71.99385129999791,71.99385129999791,005,P005,2025_Jan_18_1601,ConditionRich,2021.2.3,59.92380089444908,
44.0,44.75,29,0.75,Stimuli/P005/things_guillotine_03s.jpg,0,0.0,0.0,0,21,21,21,,,,,,,,,,,,,44.005292500001815,0.005292500001814915,None,,75.23004129999754,75.23004129999754,75.23004129999754,75.23004129999754,75.23004129999754,75.23004129999754,75.23004129999754,75.23004129999754,75.23004129999754,75.23004129999754,005,P005,2025_Jan_18_1601,ConditionRich,2021.2.3,59.92380089444908,
44.75,48.0,41,0.0,Stimuli/Blank.png,0,0.0,0.0,0,22,22,22,,,,,,,,,,,,,44.75417379999999,0.004173799999989569,5,3.2183611000000383,75.98070150000058,75.98070150000058,75.98070150000058,75.98070150000058,75.98070150000058,75.98070150000058,75.98070150000058,75.98070150000058,75.98070150000058,75.98070150000058,005,P005,2025_Jan_18_1601,ConditionRich,2021.2.3,59.92380089444908,
48.0,48.75,25,0.75,Stimuli/P005/things_dog_03s.jpg,0,0.0,0.0,0,23,23,23,,,,,,,,,,,,,48.009282499999244,0.009282499999244465,None,,79.25026040000012,79.25026040000012,79.25026040000012,79.25026040000012,79.25026040000012,79.25026040000012,79.25026040000012,79.25026040000012,79.25026040000012,79.25026040000012,005,P005,2025_Jan_18_1601,ConditionRich,2021.2.3,59.92380089444908,
48.75,52.0,41,0.0,Stimuli/Blank.png,0,0.0,0.0,0,24,24,24,,,,,,,,,,,,,48.775043099998584,0.025043099998583784,5,3.1982800000005227,80.00091599999723,80.00091599999723,80.00091599999723,80.00091599999723,80.00091599999723,80.00091599999723,80.00091599999723,80.00091599999723,80.00091599999723,80.00091599999723,005,P005,2025_Jan_18_1601,ConditionRich,2021.2.3,59.92380089444908,
52.0,52.75,31,0.75,Stimuli/P005/things_jukebox_03n.jpg,0,0.0,0.0,0,25,25,25,,,,,,,,,,,,,52.010476200000994,0.01047620000099414,None,,83.23709079999753,83.23709079999753,83.23709079999753,83.23709079999753,83.23709079999753,83.23709079999753,83.23709079999753,83.23709079999753,83.23709079999753,83.23709079999753,005,P005,2025_Jan_18_1601,ConditionRich,2021.2.3,59.92380089444908,
52.75,56.0,41,0.0,Stimuli/Blank.png,0,0.0,0.0,0,26,26,26,,,,,,,,,,,,,52.761240499999985,0.011240499999985332,5,3.2114923000008275,83.9877467999977,83.9877467999977,83.9877467999977,83.9877467999977,83.9877467999977,83.9877467999977,83.9877467999977,83.9877467999977,83.9877467999977,83.9877467999977,005,P005,2025_Jan_18_1601,ConditionRich,2021.2.3,59.92380089444908,
56.0,56.75,11,0.75,Stimuli/P005/sun_bjoocjyyhsmsbprr.jpg,0,0.0,0.0,0,27,27,27,,,,,,,,,,,,,56.014336799999,0.014336799999000505,None,,87.24062000000049,87.24062000000049,87.24062000000049,87.24062000000049,87.24062000000049,87.24062000000049,87.24062000000049,87.24062000000049,87.24062000000049,87.24062000000049,005,P005,2025_Jan_18_1601,ConditionRich,2021.2.3,59.92380089444908,
56.75,60.0,41,0.0,Stimuli/Blank.png,0,0.0,0.0,0,28,28,28,,,,,,,,,,,,,56.76512279999952,0.015122799999517156,5,1.207839700000477,87.9912723999987,87.9912723999987,87.9912723999987,87.9912723999987,87.9912723999987,87.9912723999987,87.9912723999987,87.9912723999987,87.9912723999987,87.9912723999987,005,P005,2025_Jan_18_1601,ConditionRich,2021.2.3,59.92380089444908,
60.0,60.75,34,0.75,Stimuli/P005/things_patty_03s.jpg,0,0.0,0.0,0,29,29,29,,,,,,,,,,,,,60.002091099999234,0.0020910999992338475,None,,91.24476739999955,91.24476739999955,91.24476739999955,91.24476739999955,91.24476739999955,91.24476739999955,91.24476739999955,91.24476739999955,91.24476739999955,91.24476739999955,005,P005,2025_Jan_18_1601,ConditionRich,2021.2.3,59.92380089444908,
60.75,64.0,41,0.0,Stimuli/Blank.png,0,0.0,0.0,0,30,30,30,,,,,,,,,,,,,60.76895059999879,0.018950599998788675,5,3.204267900000559,91.9948046999998,91.9948046999998,91.9948046999998,91.9948046999998,91.9948046999998,91.9948046999998,91.9948046999998,91.9948046999998,91.9948046999998,91.9948046999998,005,P005,2025_Jan_18_1601,ConditionRich,2021.2.3,59.92380089444908,
64.0,64.75,17,0.75,Stimuli/P005/sun_bwsictslfxygpqbp.jpg,0,0.0,0.0,0,31,31,31,,,,,,,,,,,,,64.00446379999994,0.004463799999939511,None,,95.23098389999723,95.23098389999723,95.23098389999723,95.23098389999723,95.23098389999723,95.23098389999723,95.23098389999723,95.23098389999723,95.23098389999723,95.23098389999723,005,P005,2025_Jan_18_1601,ConditionRich,2021.2.3,59.92380089444908,
64.75,68.0,41,0.0,Stimuli/Blank.png,0,0.0,0.0,0,32,32,32,,,,,,,,,,,,,64.75669779999953,0.006697799999528797,5,3.217446000002383,95.98165460000018,95.98165460000018,95.98165460000018,95.98165460000018,95.98165460000018,95.98165460000018,95.98165460000018,95.98165460000018,95.98165460000018,95.98165460000018,005,P005,2025_Jan_18_1601,ConditionRich,2021.2.3,59.92380089444908,
68.0,68.75,32,0.75,Stimuli/P005/things_jumpsuit_03s.jpg,0,0.0,0.0,0,33,33,33,,,,,,,,,,,,,68.00866020000103,0.008660200001031626,None,,99.23449859999891,99.23449859999891,99.23449859999891,99.23449859999891,99.23449859999891,99.23449859999891,99.23449859999891,99.23449859999891,99.23449859999891,99.23449859999891,005,P005,2025_Jan_18_1601,ConditionRich,2021.2.3,59.92380089444908,
68.75,72.0,41,0.0,Stimuli/Blank.png,1,2.25,3.0,0,34,34,34,,,,,,,,,,,,,68.76120639999863,0.011206399998627603,5,3.197186299999885,100.00185330000022,100.00185330000022,100.00185330000022,100.00185330000022,100.00185330000022,100.00185330000022,102.23718050000025,102.98785329999737,100.00185330000022,100.00185330000022,005,P005,2025_Jan_18_1601,ConditionRich,2021.2.3,59.92380089444908,
72.0,72.75,3,0.75,Stimuli/P005/sun_asyidwmnobuawmax.jpg,0,0.0,0.0,0,35,35,35,,,,,,,,,,,,,72.0287242000013,0.0287242000013066,None,,103.25471850000031,103.25471850000031,103.25471850000031,103.25471850000031,103.25471850000031,103.25471850000031,103.25471850000031,103.25471850000031,103.25471850000031,103.25471850000031,005,P005,2025_Jan_18_1601,ConditionRich,2021.2.3,59.92380089444908,
72.75,76.0,41,0.0,Stimuli/Blank.png,0,0.0,0.0,0,36,36,36,,,,,,,,,,,,,72.76468730000124,0.014687300001241965,5,3.1937976999979583,104.00537329999861,104.00537329999861,104.00537329999861,104.00537329999861,104.00537329999861,104.00537329999861,104.00537329999861,104.00537329999861,104.00537329999861,104.00537329999861,005,P005,2025_Jan_18_1601,ConditionRich,2021.2.3,59.92380089444908,
76.0,76.75,13,0.75,Stimuli/P005/sun_bruphbrfsbxowtlq.jpg,0,0.0,0.0,0,37,37,37,,,,,,,,,,,,,76.01587989999825,0.015879899998253677,None,,107.25824269999794,107.25824269999794,107.25824269999794,107.25824269999794,107.25824269999794,107.25824269999794,107.25824269999794,107.25824269999794,107.25824269999794,107.25824269999794,005,P005,2025_Jan_18_1601,ConditionRich,2021.2.3,59.92380089444908,
76.75,80.0,41,0.0,Stimuli/Blank.png,0,0.0,0.0,0,38,38,38,,,,,,,,,,,,,76.76664789999995,0.016647899999952642,5,1.2067862000003515,107.99223419999907,107.99223419999907,107.99223419999907,107.99223419999907,107.99223419999907,107.99223419999907,107.99223419999907,107.99223419999907,107.99223419999907,107.99223419999907,005,P005,2025_Jan_18_1601,ConditionRich,2021.2.3,59.92380089444908,
80.0,80.75,36,0.75,Stimuli/P005/things_pony_03s.jpg,0,0.0,0.0,0,39,39,39,,,,,,,,,,,,,80.00237360000028,0.0023736000002827495,None,,111.22838639999827,111.22838639999827,111.22838639999827,111.22838639999827,111.22838639999827,111.22838639999827,111.22838639999827,111.22838639999827,111.22838639999827,111.22838639999827,005,P005,2025_Jan_18_1601,ConditionRich,2021.2.3,59.92380089444908,
80.75,84.0,41,0.0,Stimuli/Blank.png,1,0.25,1.0,0,40,40,40,,,,,,,,,,,,,80.75308569999834,0.003085699998337077,5,3.22097070000018,111.97904749999725,111.97904749999725,111.97904749999725,111.97904749999725,111.97904749999725,111.97904749999725,112.21262899999783,112.96327689999816,111.97904749999725,111.97904749999725,005,P005,2025_Jan_18_1601,ConditionRich,2021.2.3,59.92380089444908,
84.0,100.0,0,0.0,Stimuli/Blank.png,1,6.0,6.75,0,41,41,41,,,,,,,,,,,,,84.00543990000006,0.005439900000055786,5,13.967998599997372,115.23194700000022,115.23194700000022,115.23194700000022,115.23194700000022,115.23194700000022,115.23194700000022,121.22047979999843,121.9711724000008,115.23194700000022,115.23194700000022,005,P005,2025_Jan_18_1601,ConditionRich,2021.2.3,59.92380089444908,
100.0,100.75,35,0.75,Stimuli/P005/things_pig_03s.jpg,0,0.0,0.0,0,42,42,42,,,,,,,,,,,,,100.00354439999865,0.003544399998645531,None,,131.2460061999991,131.2460061999991,131.2460061999991,131.2460061999991,131.2460061999991,131.2460061999991,131.2460061999991,131.2460061999991,131.2460061999991,131.2460061999991,005,P005,2025_Jan_18_1601,ConditionRich,2021.2.3,59.92380089444908,
100.75,104.0,41,0.0,Stimuli/Blank.png,1,1.25,2.0,0,43,43,43,,,,,,,,,,,,,100.77036320000116,0.020363200001156656,5,3.2032055000017863,131.99664399999892,131.99664399999892,131.99664399999892,131.99664399999892,131.99664399999892,131.99664399999892,133.2310952000007,133.9817437999991,131.99664399999892,131.99664399999892,005,P005,2025_Jan_18_1601,ConditionRich,2021.2.3,59.92380089444908,
104.0,104.75,30,0.75,Stimuli/P005/things_hood_03s.jpg,0,0.0,0.0,0,44,44,44,,,,,,,,,,,,,104.0063708000016,0.006370800001604948,None,,135.23285469999973,135.23285469999973,135.23285469999973,135.23285469999973,135.23285469999973,135.23285469999973,135.23285469999973,135.23285469999973,135.23285469999973,135.23285469999973,005,P005,2025_Jan_18_1601,ConditionRich,2021.2.3,59.92380089444908,
104.75,108.0,41,0.0,Stimuli/Blank.png,0,0.0,0.0,0,45,45,45,,,,,,,,,,,,,104.75802029999977,0.008020299999770941,5,3.2164557999967656,135.9835400999982,135.9835400999982,135.9835400999982,135.9835400999982,135.9835400999982,135.9835400999982,135.9835400999982,135.9835400999982,135.9835400999982,135.9835400999982,005,P005,2025_Jan_18_1601,ConditionRich,2021.2.3,59.92380089444908,
108.0,108.75,19,0.75,Stimuli/P005/sun_czspalxthlkjwoat.jpg,0,0.0,0.0,0,46,46,46,,,,,,,,,,,,,108.01055039999846,0.010550399998464854,None,,139.2530693000008,139.2530693000008,139.2530693000008,139.2530693000008,139.2530693000008,139.2530693000008,139.2530693000008,139.2530693000008,139.2530693000008,139.2530693000008,005,P005,2025_Jan_18_1601,ConditionRich,2021.2.3,59.92380089444908,
108.75,112.0,41,0.0,Stimuli/Blank.png,0,0.0,0.0,0,47,47,47,,,,,,,,,,,,,108.77805140000055,0.02805140000054962,5,3.196308799997496,140.00372829999833,140.00372829999833,140.00372829999833,140.00372829999833,140.00372829999833,140.00372829999833,140.00372829999833,140.00372829999833,140.00372829999833,140.00372829999833,005,P005,2025_Jan_18_1601,ConditionRich,2021.2.3,59.92380089444908,
112.0,112.75,14,0.75,Stimuli/P005/sun_bsirencncgxteejx.jpg,1,0.0,0.75,0,48,48,48,,,,,,,,,,,,,112.0132463000009,0.013246300000901101,None,,143.23990019999837,143.23990019999837,143.23990019999837,143.23990019999837,143.23990019999837,143.23990019999837,143.23990019999837,143.9738784000001,143.23990019999837,143.23990019999837,005,P005,2025_Jan_18_1601,ConditionRich,2021.2.3,59.92380089444908,
112.75,116.0,41,0.0,Stimuli/Blank.png,0,0.0,0.0,0,49,49,49,,,,,,,,,,,,,112.76441690000138,0.014416900001378963,5,1.2092518000026757,143.99056689999998,143.99056689999998,143.99056689999998,143.99056689999998,143.99056689999998,143.99056689999998,143.99056689999998,143.99056689999998,143.99056689999998,143.99056689999998,005,P005,2025_Jan_18_1601,ConditionRich,2021.2.3,59.92380089444908,
116.0,116.75,24,0.75,Stimuli/P005/things_crab_03s.jpg,0,0.0,0.0,0,50,50,50,,,,,,,,,,,,,116.00190740000107,0.0019074000010732561,None,,147.2433940999981,147.2433940999981,147.2433940999981,147.2433940999981,147.2433940999981,147.2433940999981,147.2433940999981,147.2433940999981,147.2433940999981,147.2433940999981,005,P005,2025_Jan_18_1601,ConditionRich,2021.2.3,59.92380089444908,
116.75,120.0,41,0.0,Stimuli/Blank.png,0,0.0,0.0,0,51,51,51,,,,,,,,,,,,,116.76814569999988,0.01814569999987725,5,1.205732900001749,147.9940792999987,147.9940792999987,147.9940792999987,147.9940792999987,147.9940792999987,147.9940792999987,147.9940792999987,147.9940792999987,147.9940792999987,147.9940792999987,005,P005,2025_Jan_18_1601,ConditionRich,2021.2.3,59.92380089444908,
120.0,120.75,7,0.75,Stimuli/P005/sun_bdmdlkpsznknrcqi.jpg,0,0.0,0.0,0,52,52,52,,,,,,,,,,,,,120.00401499999862,0.004014999998616986,None,,151.2302665999996,151.2302665999996,151.2302665999996,151.2302665999996,151.2302665999996,151.2302665999996,151.2302665999996,151.2302665999996,151.2302665999996,151.2302665999996,005,P005,2025_Jan_18_1601,ConditionRich,2021.2.3,59.92380089444908,
120.75,124.0,41,0.0,Stimuli/Blank.png,0,0.0,0.0,0,53,53,53,,,,,,,,,,,,,120.75456510000004,0.004565100000036182,5,3.2188492999994196,151.9809329999989,151.9809329999989,151.9809329999989,151.9809329999989,151.9809329999989,151.9809329999989,151.9809329999989,151.9809329999989,151.9809329999989,151.9809329999989,005,P005,2025_Jan_18_1601,ConditionRich,2021.2.3,59.92380089444908,
124.0,124.75,38,0.75,Stimuli/P005/things_sledgehammer_03s.jpg,0,0.0,0.0,0,54,54,54,,,,,,,,,,,,,124.00814399999945,0.00814399999944726,None,,155.23378579999917,155.23378579999917,155.23378579999917,155.23378579999917,155.23378579999917,155.23378579999917,155.23378579999917,155.23378579999917,155.23378579999917,155.23378579999917,005,P005,2025_Jan_18_1601,ConditionRich,2021.2.3,59.92380089444908,
124.75,128.0,41,0.0,Stimuli/Blank.png,1,2.25,3.0,0,55,55,55,,,,,,,,,,,,,124.75808170000164,0.008081700001639547,5,3.2153780000007828,155.98450070000035,155.98450070000035,155.98450070000035,155.98450070000035,155.98450070000035,155.98450070000035,158.21975409999868,158.97042299999885,155.98450070000035,155.98450070000035,005,P005,2025_Jan_18_1601,ConditionRich,2021.2.3,59.92380089444908,
128.0,128.75,12,0.75,Stimuli/P005/sun_bodyuiqwqpqzwfoz.jpg,0,0.0,0.0,0,56,56,56,,,,,,,,,,,,,128.01246570000148,0.012465700001484947,None,,159.25399249999828,159.25399249999828,159.25399249999828,159.25399249999828,159.25399249999828,159.25399249999828,159.25399249999828,159.25399249999828,159.25399249999828,159.25399249999828,005,P005,2025_Jan_18_1601,ConditionRich,2021.2.3,59.92380089444908,
128.75,132.0,41,0.0,Stimuli/Blank.png,0,0.0,0.0,0,57,57,57,,,,,,,,,,,,,128.77931119999994,0.029311199999938253,5,3.195306499997969,160.00466450000022,160.00466450000022,160.00466450000022,160.00466450000022,160.00466450000022,160.00466450000022,160.00466450000022,160.00466450000022,160.00466450000022,160.00466450000022,005,P005,2025_Jan_18_1601,ConditionRich,2021.2.3,59.92380089444908,
132.0,132.75,40,0.75,Stimuli/P005/things_woman_03s.jpg,0,0.0,0.0,0,58,58,58,,,,,,,,,,,,,132.01432990000103,0.014329900001030182,None,,163.24083719999908,163.24083719999908,163.24083719999908,163.24083719999908,163.24083719999908,163.24083719999908,163.24083719999908,163.24083719999908,163.24083719999908,163.24083719999908,005,P005,2025_Jan_18_1601,ConditionRich,2021.2.3,59.92380089444908,
132.75,136.0,41,0.0,Stimuli/Blank.png,0,0.0,0.0,0,59,59,59,,,,,,,,,,,,,132.76548520000142,0.015485200001421617,5,1.2081366999991587,163.99160009999832,163.99160009999832,163.99160009999832,163.99160009999832,163.99160009999832,163.99160009999832,163.99160009999832,163.99160009999832,163.99160009999832,163.99160009999832,005,P005,2025_Jan_18_1601,ConditionRich,2021.2.3,59.92380089444908,
136.0,136.75,22,0.75,Stimuli/P005/things_baby_03s.jpg,0,0.0,0.0,0,60,60,60,,,,,,,,,,,,,136.0021024000016,0.00210240000160411,None,,167.24436459999924,167.24436459999924,167.24436459999924,167.24436459999924,167.24436459999924,167.24436459999924,167.24436459999924,167.24436459999924,167.24436459999924,167.24436459999924,005,P005,2025_Jan_18_1601,ConditionRich,2021.2.3,59.92380089444908,
136.75,140.0,41,0.0,Stimuli/Blank.png,0,0.0,0.0,0,61,61,61,,,,,,,,,,,,,136.7691737999994,0.019173799999407493,5,1.2047082999997656,167.9950284000006,167.9950284000006,167.9950284000006,167.9950284000006,167.9950284000006,167.9950284000006,167.9950284000006,167.9950284000006,167.9950284000006,167.9950284000006,005,P005,2025_Jan_18_1601,ConditionRich,2021.2.3,59.92380089444908,
140.0,140.75,21,0.75,Stimuli/P005/things_accordion_03s.jpg,0,0.0,0.0,0,62,62,62,,,,,,,,,,,,,140.0046070999997,0.004607099999702768,None,,171.23120779999954,171.23120779999954,171.23120779999954,171.23120779999954,171.23120779999954,171.23120779999954,171.23120779999954,171.23120779999954,171.23120779999954,171.23120779999954,005,P005,2025_Jan_18_1601,ConditionRich,2021.2.3,59.92380089444908,
140.75,144.0,41,0.0,Stimuli/Blank.png,0,0.0,0.0,0,63,63,63,,,,,,,,,,,,,140.75829209999938,0.008292099999380298,5,3.2013170999998692,171.9985541999995,171.9985541999995,171.9985541999995,171.9985541999995,171.9985541999995,171.9985541999995,171.9985541999995,171.9985541999995,171.9985541999995,171.9985541999995,005,P005,2025_Jan_18_1601,ConditionRich,2021.2.3,59.92380089444908,
144.0,144.75,39,0.75,Stimuli/P005/things_train_set_03s.jpg,0,0.0,0.0,0,64,64,64,,,,,,,,,,,,,144.0256283000017,0.025628300001699245,None,,175.25141339999755,175.25141339999755,175.25141339999755,175.25141339999755,175.25141339999755,175.25141339999755,175.25141339999755,175.25141339999755,175.25141339999755,175.25141339999755,005,P005,2025_Jan_18_1601,ConditionRich,2021.2.3,59.92380089444908,
144.75,148.0,41,0.0,Stimuli/Blank.png,0,0.0,0.0,0,65,65,65,,,,,,,,,,,,,144.75915760000134,0.00915760000134469,5,3.2143161999993026,175.98543629999767,175.98543629999767,175.98543629999767,175.98543629999767,175.98543629999767,175.98543629999767,175.98543629999767,175.98543629999767,175.98543629999767,175.98543629999767,005,P005,2025_Jan_18_1601,ConditionRich,2021.2.3,59.92380089444908,
148.0,148.75,26,0.75,Stimuli/P005/things_face_03s.jpg,0,0.0,0.0,0,66,66,66,,,,,,,,,,,,,148.01227189999918,0.012271899999177549,None,,179.23825229999784,179.23825229999784,179.23825229999784,179.23825229999784,179.23825229999784,179.23825229999784,179.23825229999784,179.23825229999784,179.23825229999784,179.23825229999784,005,P005,2025_Jan_18_1601,ConditionRich,2021.2.3,59.92380089444908,
148.75,152.0,41,0.0,Stimuli/Blank.png,0,0.0,0.0,0,67,67,67,,,,,,,,,,,,,148.76378889999978,0.013788899999781279,5,1.210980700001528,179.98891829999775,179.98891829999775,179.98891829999775,179.98891829999775,179.98891829999775,179.98891829999775,179.98891829999775,179.98891829999775,179.98891829999775,179.98891829999775,005,P005,2025_Jan_18_1601,ConditionRich,2021.2.3,59.92380089444908,
152.0,152.75,5,0.75,Stimuli/P005/sun_axaqdcecfojvpvrl.jpg,0,0.0,0.0,0,68,68,68,,,,,,,,,,,,,151.9994485999996,-0.0005514000004041009,None,,183.24177509999936,183.24177509999936,183.24177509999936,183.24177509999936,183.24177509999936,183.24177509999936,183.24177509999936,183.24177509999936,183.24177509999936,183.24177509999936,005,P005,2025_Jan_18_1601,ConditionRich,2021.2.3,59.92380089444908,
152.75,156.0,41,0.0,Stimuli/Blank.png,0,0.0,0.0,0,69,69,69,,,,,,,,,,,,,152.76813019999827,0.018130199998267926,5,3.1908720999999787,184.00912189999872,184.00912189999872,184.00912189999872,184.00912189999872,184.00912189999872,184.00912189999872,184.00912189999872,184.00912189999872,184.00912189999872,184.00912189999872,005,P005,2025_Jan_18_1601,ConditionRich,2021.2.3,59.92380089444908,
156.0,156.75,4,0.75,Stimuli/P005/sun_auwghripdoxzluuk.jpg,0,0.0,0.0,0,70,70,70,,,,,,,,,,,,,156.01915740000186,0.01915740000185906,None,,187.24530009999944,187.24530009999944,187.24530009999944,187.24530009999944,187.24530009999944,187.24530009999944,187.24530009999944,187.24530009999944,187.24530009999944,187.24530009999944,005,P005,2025_Jan_18_1601,ConditionRich,2021.2.3,59.92380089444908,
156.75,160.0,41,0.0,Stimuli/Blank.png,1,1.25,2.0,0,71,71,71,,,,,,,,,,,,,156.75369470000078,0.003694700000778539,5,3.220440100001724,187.97928649999812,187.97928649999812,187.97928649999812,187.97928649999812,187.97928649999812,187.97928649999812,189.2136974999994,189.96436489999905,187.97928649999812,187.97928649999812,005,P005,2025_Jan_18_1601,ConditionRich,2021.2.3,59.92380089444908,
160.0,160.75,15,0.75,Stimuli/P005/sun_btkzuhaxqlacvmsv.jpg,0,0.0,0.0,0,72,72,72,,,,,,,,,,,,,160.00545469999997,0.005454699999972945,None,,191.23214050000024,191.23214050000024,191.23214050000024,191.23214050000024,191.23214050000024,191.23214050000024,191.23214050000024,191.23214050000024,191.23214050000024,191.23214050000024,005,P005,2025_Jan_18_1601,ConditionRich,2021.2.3,59.92380089444908,
160.75,164.0,41,0.0,Stimuli/Blank.png,0,0.0,0.0,0,73,73,73,,,,,,,,,,,,,160.75747019999835,0.007470199998351745,5,3.2168437000000267,191.9828082999993,191.9828082999993,191.9828082999993,191.9828082999993,191.9828082999993,191.9828082999993,191.9828082999993,191.9828082999993,191.9828082999993,191.9828082999993,005,P005,2025_Jan_18_1601,ConditionRich,2021.2.3,59.92380089444908,
164.0,164.75,33,0.75,Stimuli/P005/things_man_03s.jpg,0,0.0,0.0,0,74,74,74,,,,,,,,,,,,,164.00924870000017,0.009248700000171084,None,,195.23567289999846,195.23567289999846,195.23567289999846,195.23567289999846,195.23567289999846,195.23567289999846,195.23567289999846,195.23567289999846,195.23567289999846,195.23567289999846,005,P005,2025_Jan_18_1601,ConditionRich,2021.2.3,59.92380089444908,
164.75,168.0,41,0.0,Stimuli/Blank.png,1,1.25,2.0,0,75,75,75,,,,,,,,,,,,,164.76069039999857,0.010690399998566136,5,3.2132759999985865,195.98632369999905,195.98632369999905,195.98632369999905,195.98632369999905,195.98632369999905,195.98632369999905,197.22075409999889,197.9714423999976,195.98632369999905,195.98632369999905,005,P005,2025_Jan_18_1601,ConditionRich,2021.2.3,59.92380089444908,
168.0,168.75,1,0.75,Stimuli/P005/sun_adyhbxohydkpecty.jpg,0,0.0,0.0,0,76,76,76,,,,,,,,,,,,,168.0127339999999,0.012733999999909429,None,,199.23918950000007,199.23918950000007,199.23918950000007,199.23918950000007,199.23918950000007,199.23918950000007,199.23918950000007,199.23918950000007,199.23918950000007,199.23918950000007,005,P005,2025_Jan_18_1601,ConditionRich,2021.2.3,59.92380089444908,
168.75,172.0,41,0.0,Stimuli/Blank.png,0,0.0,0.0,0,77,77,77,,,,,,,,,,,,,168.76427049999984,0.014270499999838648,5,1.2099750000015774,199.98985529999845,199.98985529999845,199.98985529999845,199.98985529999845,199.98985529999845,199.98985529999845,199.98985529999845,199.98985529999845,199.98985529999845,199.98985529999845,005,P005,2025_Jan_18_1601,ConditionRich,2021.2.3,59.92380089444908,
172.0,172.75,6,0.75,Stimuli/P005/sun_bbzkhzmxdjrfjpjz.jpg,0,0.0,0.0,0,78,78,78,,,,,,,,,,,,,172.0001607999984,0.00016079999841167592,None,,203.22599400000036,203.22599400000036,203.22599400000036,203.22599400000036,203.22599400000036,203.22599400000036,203.22599400000036,203.22599400000036,203.22599400000036,203.22599400000036,005,P005,2025_Jan_18_1601,ConditionRich,2021.2.3,59.92380089444908,
172.75,176.0,41,0.0,Stimuli/Blank.png,0,0.0,0.0,0,79,79,79,,,,,,,,,,,,,172.75091990000146,0.0009199000014632475,5,1.2232608999984222,203.97668879999765,203.97668879999765,203.97668879999765,203.97668879999765,203.97668879999765,203.97668879999765,203.97668879999765,203.97668879999765,203.97668879999765,203.97668879999765,005,P005,2025_Jan_18_1601,ConditionRich,2021.2.3,59.92380089444908,
176.0,176.75,23,0.75,Stimuli/P005/things_beetle_03s.jpg,0,0.0,0.0,0,80,80,80,,,,,,,,,,,,,176.00322270000106,0.00322270000106073,None,,207.22955329999968,207.22955329999968,207.22955329999968,207.22955329999968,207.22955329999968,207.22955329999968,207.22955329999968,207.22955329999968,207.22955329999968,207.22955329999968,005,P005,2025_Jan_18_1601,ConditionRich,2021.2.3,59.92380089444908,
176.75,180.0,41,0.0,Stimuli/Blank.png,0,0.0,0.0,0,81,81,81,,,,,,,,,,,,,176.7542141999984,0.004214199998386903,5,3.219510299997637,207.98021829999925,207.98021829999925,207.98021829999925,207.98021829999925,207.98021829999925,207.98021829999925,207.98021829999925,207.98021829999925,207.98021829999925,207.98021829999925,005,P005,2025_Jan_18_1601,ConditionRich,2021.2.3,59.92380089444908,
180.0,196.0,0,0.0,Stimuli/Blank.png,1,7.0,7.75,0,82,82,82,,,,,,,,,,,,,180.0093831999984,0.009383199998410419,5,15.949833199996647,211.24976719999904,211.24976719999904,211.24976719999904,211.24976719999904,211.24976719999904,211.24976719999904,218.22257030000037,218.973226099999,211.24976719999904,211.24976719999904,005,P005,2025_Jan_18_1601,ConditionRich,2021.2.3,59.92380089444908,
196.0,196.75,11,0.75,Stimuli/P005/sun_bjoocjyyhsmsbprr.jpg,0,0.0,0.0,0,83,83,83,,,,,,,,,,,,,196.0222896000014,0.022289600001386134,None,,227.26386229999844,227.26386229999844,227.26386229999844,227.26386229999844,227.26386229999844,227.26386229999844,227.26386229999844,227.26386229999844,227.26386229999844,227.26386229999844,005,P005,2025_Jan_18_1601,ConditionRich,2021.2.3,59.92380089444908,
196.75,200.0,41,0.0,Stimuli/Blank.png,0,0.0,0.0,0,84,84,84,,,,,,,,,,,,,196.7735990000001,0.023599000000103842,5,3.185135399999126,228.01453179999953,228.01453179999953,228.01453179999953,228.01453179999953,228.01453179999953,228.01453179999953,228.01453179999953,228.01453179999953,228.01453179999953,228.01453179999953,005,P005,2025_Jan_18_1601,ConditionRich,2021.2.3,59.92380089444908,
200.0,200.75,4,0.75,Stimuli/P005/sun_auwghripdoxzluuk.jpg,0,0.0,0.0,0,85,85,85,,,,,,,,,,,,,200.0250331999996,0.025033199999597855,None,,231.25069919999805,231.25069919999805,231.25069919999805,231.25069919999805,231.25069919999805,231.25069919999805,231.25069919999805,231.25069919999805,231.25069919999805,231.25069919999805,005,P005,2025_Jan_18_1601,ConditionRich,2021.2.3,59.92380089444908,
200.75,204.0,41,0.0,Stimuli/Blank.png,0,0.0,0.0,0,86,86,86,,,,,,,,,,,,,200.75874119999935,0.008741199999349192,5,3.2148981999998796,231.98468800000046,231.98468800000046,231.98468800000046,231.98468800000046,231.98468800000046,231.98468800000046,231.98468800000046,231.98468800000046,231.98468800000046,231.98468800000046,005,P005,2025_Jan_18_1601,ConditionRich,2021.2.3,59.92380089444908,
204.0,204.75,34,0.75,Stimuli/P005/things_patty_03s.jpg,0,0.0,0.0,0,87,87,87,,,,,,,,,,,,,204.012567400001,0.012567400000989437,None,,235.25422919999983,235.25422919999983,235.25422919999983,235.25422919999983,235.25422919999983,235.25422919999983,235.25422919999983,235.25422919999983,235.25422919999983,235.25422919999983,005,P005,2025_Jan_18_1601,ConditionRich,2021.2.3,59.92380089444908,
204.75,208.0,41,0.0,Stimuli/Blank.png,0,0.0,0.0,0,88,88,88,,,,,,,,,,,,,204.77978820000135,0.02978820000134874,5,3.176961899996968,236.0226462999999,236.0226462999999,236.0226462999999,236.0226462999999,236.0226462999999,236.0226462999999,236.0226462999999,236.0226462999999,236.0226462999999,236.0226462999999,005,P005,2025_Jan_18_1601,ConditionRich,2021.2.3,59.92380089444908,
208.0,208.75,29,0.75,Stimuli/P005/things_guillotine_03s.jpg,0,0.0,0.0,0,89,89,89,,,,,,,,,,,,,208.0334369000011,0.03343690000110655,None,,239.2744251999975,239.2744251999975,239.2744251999975,239.2744251999975,239.2744251999975,239.2744251999975,239.2744251999975,239.2744251999975,239.2744251999975,239.2744251999975,005,P005,2025_Jan_18_1601,ConditionRich,2021.2.3,59.92380089444908,
208.75,212.0,41,0.0,Stimuli/Blank.png,0,0.0,0.0,0,90,90,90,,,,,,,,,,,,,208.7656324999989,0.01563249999890104,5,1.2078555999978562,239.9917233999986,239.9917233999986,239.9917233999986,239.9917233999986,239.9917233999986,239.9917233999986,239.9917233999986,239.9917233999986,239.9917233999986,239.9917233999986,005,P005,2025_Jan_18_1601,ConditionRich,2021.2.3,59.92380089444908,
212.0,212.75,27,0.75,Stimuli/P005/things_first-aid_kit_03s.jpg,0,0.0,0.0,0,91,91,91,,,,,,,,,,,,,212.00164099999893,0.001640999998926418,None,,243.22790030000033,243.22790030000033,243.22790030000033,243.22790030000033,243.22790030000033,243.22790030000033,243.22790030000033,243.22790030000033,243.22790030000033,243.22790030000033,005,P005,2025_Jan_18_1601,ConditionRich,2021.2.3,59.92380089444908,
212.75,216.0,41,0.0,Stimuli/Blank.png,1,2.25,3.0,0,92,92,92,,,,,,,,,,,,,212.75257839999904,0.0025783999990380835,5,3.2210344999984954,243.97855589999745,243.97855589999745,243.97855589999745,243.97855589999745,243.97855589999745,243.97855589999745,246.21385869999722,246.96451999999772,243.97855589999745,243.97855589999745,005,P005,2025_Jan_18_1601,ConditionRich,2021.2.3,59.92380089444908,
216.0,216.75,3,0.75,Stimuli/P005/sun_asyidwmnobuawmax.jpg,0,0.0,0.0,0,93,93,93,,,,,,,,,,,,,216.0058081999996,0.005808199999592034,None,,247.23144799999864,247.23144799999864,247.23144799999864,247.23144799999864,247.23144799999864,247.23144799999864,247.23144799999864,247.23144799999864,247.23144799999864,247.23144799999864,005,P005,2025_Jan_18_1601,ConditionRich,2021.2.3,59.92380089444908,
216.75,220.0,41,0.0,Stimuli/Blank.png,0,0.0,0.0,0,94,94,94,,,,,,,,,,,,,216.75817169999937,0.008171699999365956,5,3.2008270999976958,247.99878179999723,247.99878179999723,247.99878179999723,247.99878179999723,247.99878179999723,247.99878179999723,247.99878179999723,247.99878179999723,247.99878179999723,247.99878179999723,005,P005,2025_Jan_18_1601,ConditionRich,2021.2.3,59.92380089444908,
220.0,220.75,37,0.75,Stimuli/P005/things_showerhead_03s.jpg,0,0.0,0.0,0,95,95,95,,,,,,,,,,,,,220.02542209999956,0.025422099999559578,None,,251.26846339999975,251.26846339999975,251.26846339999975,251.26846339999975,251.26846339999975,251.26846339999975,251.26846339999975,251.26846339999975,251.26846339999975,251.26846339999975,005,P005,2025_Jan_18_1601,ConditionRich,2021.2.3,59.92380089444908,
220.75,224.0,41,0.0,Stimuli/Blank.png,0,0.0,0.0,0,96,96,96,,,,,,,,,,,,,220.77841350000017,0.028413500000169734,5,3.180667900000117,252.01897859999735,252.01897859999735,252.01897859999735,252.01897859999735,252.01897859999735,252.01897859999735,252.01897859999735,252.01897859999735,252.01897859999735,252.01897859999735,005,P005,2025_Jan_18_1601,ConditionRich,2021.2.3,59.92380089444908,
224.0,224.75,9,0.75,Stimuli/P005/sun_bfcmdrojsffdttzu.jpg,0,0.0,0.0,0,97,97,97,,,,,,,,,,,,,224.02935739999884,0.029357399998843903,None,,255.2551514000006,255.2551514000006,255.2551514000006,255.2551514000006,255.2551514000006,255.2551514000006,255.2551514000006,255.2551514000006,255.2551514000006,255.2551514000006,005,P005,2025_Jan_18_1601,ConditionRich,2021.2.3,59.92380089444908,
224.75,228.0,41,0.0,Stimuli/Blank.png,0,0.0,0.0,0,98,98,98,,,,,,,,,,,,,224.7633042999987,0.013304299998708302,5,1.210499599998002,255.98913600000014,255.98913600000014,255.98913600000014,255.98913600000014,255.98913600000014,255.98913600000014,255.98913600000014,255.98913600000014,255.98913600000014,255.98913600000014,005,P005,2025_Jan_18_1601,ConditionRich,2021.2.3,59.92380089444908,
228.0,228.75,20,0.75,Stimuli/P005/sun_dvxuxzytfdbjyzit.jpg,0,0.0,0.0,0,99,99,99,,,,,,,,,,,,,227.99875070000053,-0.0012492999994719867,None,,259.22531399999934,259.22531399999934,259.22531399999934,259.22531399999934,259.22531399999934,259.22531399999934,259.22531399999934,259.22531399999934,259.22531399999934,259.22531399999934,005,P005,2025_Jan_18_1601,ConditionRich,2021.2.3,59.92380089444908,
228.75,232.0,41,0.0,Stimuli/Blank.png,0,0.0,0.0,0,100,100,100,,,,,,,,,,,,,228.74958849999894,-0.00041150000106426887,5,1.2237746000027983,259.97597529999985,259.97597529999985,259.97597529999985,259.97597529999985,259.97597529999985,259.97597529999985,259.97597529999985,259.97597529999985,259.97597529999985,259.97597529999985,005,P005,2025_Jan_18_1601,ConditionRich,2021.2.3,59.92380089444908,
232.0,232.75,18,0.75,Stimuli/P005/sun_bzqhpcsgzswozfhs.jpg,0,0.0,0.0,0,101,101,101,,,,,,,,,,,,,232.0036046999994,0.0036046999994141515,None,,263.24554309999803,263.24554309999803,263.24554309999803,263.24554309999803,263.24554309999803,263.24554309999803,263.24554309999803,263.24554309999803,263.24554309999803,263.24554309999803,005,P005,2025_Jan_18_1601,ConditionRich,2021.2.3,59.92380089444908,
232.75,236.0,41,0.0,Stimuli/Blank.png,0,0.0,0.0,0,102,102,102,,,,,,,,,,,,,232.7700017999996,0.02000179999959073,5,3.203135799998563,263.99627159999727,263.99627159999727,263.99627159999727,263.99627159999727,263.99627159999727,263.99627159999727,263.99627159999727,263.99627159999727,263.99627159999727,263.99627159999727,005,P005,2025_Jan_18_1601,ConditionRich,2021.2.3,59.92380089444908,
236.0,236.75,30,0.75,Stimuli/P005/things_hood_03s.jpg,1,0.0,0.75,0,103,103,103,,,,,,,,,,,,,236.0090573000016,0.009057300001586555,4,0.46143320000192034,267.24904869999955,267.24904869999955,267.24904869999955,267.24904869999955,267.24904869999955,267.24904869999955,267.24904869999955,267.9830488000007,267.24904869999955,267.24904869999955,005,P005,2025_Jan_18_1601,ConditionRich,2021.2.3,59.92380089444908,
236.75,240.0,41,0.0,Stimuli/Blank.png,0,0.0,0.0,0,104,104,104,,,,,,,,,,,,,236.7746201000009,0.024620100000902312,5,3.1831263000021863,268.0164088999991,268.0164088999991,268.0164088999991,268.0164088999991,268.0164088999991,268.0164088999991,268.0164088999991,268.0164088999991,268.0164088999991,268.0164088999991,005,P005,2025_Jan_18_1601,ConditionRich,2021.2.3,59.92380089444908,
240.0,240.75,31,0.75,Stimuli/P005/things_jukebox_03n.jpg,0,0.0,0.0,0,105,105,105,,,,,,,,,,,,,240.0284361999984,0.02843619999839575,None,,271.26925839999967,271.26925839999967,271.26925839999967,271.26925839999967,271.26925839999967,271.26925839999967,271.26925839999967,271.26925839999967,271.26925839999967,271.26925839999967,005,P005,2025_Jan_18_1601,ConditionRich,2021.2.3,59.92380089444908,
240.75,244.0,41,0.0,Stimuli/Blank.png,0,0.0,0.0,0,106,106,106,,,,,,,,,,,,,240.77739519999886,0.027395199998863973,5,3.196210500002053,272.0032386999992,272.0032386999992,272.0032386999992,272.0032386999992,272.0032386999992,272.0032386999992,272.0032386999992,272.0032386999992,272.0032386999992,272.0032386999992,005,P005,2025_Jan_18_1601,ConditionRich,2021.2.3,59.92380089444908,
244.0,244.75,36,0.75,Stimuli/P005/things_pony_03s.jpg,0,0.0,0.0,0,107,107,107,,,,,,,,,,,,,244.01418120000017,0.014181200000166427,None,,275.25609509999776,275.25609509999776,275.25609509999776,275.25609509999776,275.25609509999776,275.25609509999776,275.25609509999776,275.25609509999776,275.25609509999776,275.25609509999776,005,P005,2025_Jan_18_1601,ConditionRich,2021.2.3,59.92380089444908,
244.75,248.0,41,0.0,Stimuli/Blank.png,0,0.0,0.0,0,108,108,108,,,,,,,,,,,,,244.78043709999838,0.03043709999838029,5,1.1928173000014795,276.00675559999945,276.00675559999945,276.00675559999945,276.00675559999945,276.00675559999945,276.00675559999945,276.00675559999945,276.00675559999945,276.00675559999945,276.00675559999945,005,P005,2025_Jan_18_1601,ConditionRich,2021.2.3,59.92380089444908,
248.0,248.75,38,0.75,Stimuli/P005/things_sledgehammer_03s.jpg,0,0.0,0.0,0,109,109,109,,,,,,,,,,,,,248.00031690000105,0.00031690000105299987,None,,279.2429394999999,279.2429394999999,279.2429394999999,279.2429394999999,279.2429394999999,279.2429394999999,279.2429394999999,279.2429394999999,279.2429394999999,279.2429394999999,005,P005,2025_Jan_18_1601,ConditionRich,2021.2.3,59.92380089444908,
248.75,252.0,41,0.0,Stimuli/Blank.png,1,1.25,2.0,0,110,110,110,,,,,,,,,,,,,248.7677767999994,0.017776799999410287,4,1.8029042999987723,279.99361339999814,279.99361339999814,279.99361339999814,279.99361339999814,279.99361339999814,279.99361339999814,281.2280749999991,281.9786872000004,279.99361339999814,279.99361339999814,005,P005,2025_Jan_18_1601,ConditionRich,2021.2.3,59.92380089444908,
252.0,252.75,33,0.75,Stimuli/P005/things_man_03s.jpg,0,0.0,0.0,0,111,111,111,,,,,,,,,,,,,252.00414699999965,0.00414699999964796,None,,283.2297820999993,283.2297820999993,283.2297820999993,283.2297820999993,283.2297820999993,283.2297820999993,283.2297820999993,283.2297820999993,283.2297820999993,283.2297820999993,005,P005,2025_Jan_18_1601,ConditionRich,2021.2.3,59.92380089444908,
252.75,256.0,41,0.0,Stimuli/Blank.png,0,0.0,0.0,0,112,112,112,,,,,,,,,,,,,252.75419369999872,0.004193699998722877,5,3.2190010999984224,283.9804648999998,283.9804648999998,283.9804648999998,283.9804648999998,283.9804648999998,283.9804648999998,283.9804648999998,283.9804648999998,283.9804648999998,283.9804648999998,005,P005,2025_Jan_18_1601,ConditionRich,2021.2.3,59.92380089444908,
256.0,256.75,26,0.75,Stimuli/P005/things_face_03s.jpg,0,0.0,0.0,0,113,113,113,,,,,,,,,,,,,256.0076942000014,0.0076942000014241785,None,,287.2499979999993,287.2499979999993,287.2499979999993,287.2499979999993,287.2499979999993,287.2499979999993,287.2499979999993,287.2499979999993,287.2499979999993,287.2499979999993,005,P005,2025_Jan_18_1601,ConditionRich,2021.2.3,59.92380089444908,
256.75,260.0,41,0.0,Stimuli/Blank.png,1,1.25,2.0,0,114,114,114,,,,,,,,,,,,,256.77454900000157,0.024549000001570676,5,3.1987822000010055,288.00063880000016,288.00063880000016,288.00063880000016,288.00063880000016,288.00063880000016,288.00063880000016,289.23510309999983,289.98573039999974,288.00063880000016,288.00063880000016,005,P005,2025_Jan_18_1601,ConditionRich,2021.2.3,59.92380089444908,
260.0,260.75,6,0.75,Stimuli/P005/sun_bbzkhzmxdjrfjpjz.jpg,0,0.0,0.0,0,115,115,115,,,,,,,,,,,,,260.0131360000014,0.013136000001395587,None,,291.2535080999987,291.2535080999987,291.2535080999987,291.2535080999987,291.2535080999987,291.2535080999987,291.2535080999987,291.2535080999987,291.2535080999987,291.2535080999987,005,P005,2025_Jan_18_1601,ConditionRich,2021.2.3,59.92380089444908,
260.75,264.0,41,0.0,Stimuli/Blank.png,0,0.0,0.0,0,116,116,116,,,,,,,,,,,,,260.77839479999966,0.02839479999965988,5,1.1952039999996487,292.0041679999995,292.0041679999995,292.0041679999995,292.0041679999995,292.0041679999995,292.0041679999995,292.0041679999995,292.0041679999995,292.0041679999995,292.0041679999995,005,P005,2025_Jan_18_1601,ConditionRich,2021.2.3,59.92380089444908,
264.0,264.75,24,0.75,Stimuli/P005/things_crab_03s.jpg,0,0.0,0.0,0,117,117,117,,,,,,,,,,,,,263.9983112000009,-0.0016887999991013203,None,,295.22366200000033,295.22366200000033,295.22366200000033,295.22366200000033,295.22366200000033,295.22366200000033,295.22366200000033,295.22366200000033,295.22366200000033,295.22366200000033,005,P005,2025_Jan_18_1601,ConditionRich,2021.2.3,59.92380089444908,
264.75,268.0,41,0.0,Stimuli/Blank.png,0,0.0,0.0,0,118,118,118,,,,,,,,,,,,,264.76519539999936,0.015195399999356596,5,1.208365300000878,295.99101019999944,295.99101019999944,295.99101019999944,295.99101019999944,295.99101019999944,295.99101019999944,295.99101019999944,295.99101019999944,295.99101019999944,295.99101019999944,005,P005,2025_Jan_18_1601,ConditionRich,2021.2.3,59.92380089444908,
268.0,268.75,39,0.75,Stimuli/P005/things_train_set_03s.jpg,0,0.0,0.0,0,119,119,119,,,,,,,,,,,,,268.00294850000137,0.002948500001366483,None,,299.24387260000003,299.24387260000003,299.24387260000003,299.24387260000003,299.24387260000003,299.24387260000003,299.24387260000003,299.24387260000003,299.24387260000003,299.24387260000003,005,P005,2025_Jan_18_1601,ConditionRich,2021.2.3,59.92380089444908,
268.75,272.0,41,0.0,Stimuli/Blank.png,0,0.0,0.0,0,120,120,120,,,,,,,,,,,,,268.7687732000013,0.018773200001305668,5,1.2050625999982003,299.9945430999978,299.9945430999978,299.9945430999978,299.9945430999978,299.9945430999978,299.9945430999978,299.9945430999978,299.9945430999978,299.9945430999978,299.9945430999978,005,P005,2025_Jan_18_1601,ConditionRich,2021.2.3,59.92380089444908,
272.0,272.75,28,0.75,Stimuli/P005/things_girl_03s.jpg,0,0.0,0.0,0,121,121,121,,,,,,,,,,,,,272.00428589999865,0.004285899998649256,None,,303.23071459999846,303.23071459999846,303.23071459999846,303.23071459999846,303.23071459999846,303.23071459999846,303.23071459999846,303.23071459999846,303.23071459999846,303.23071459999846,005,P005,2025_Jan_18_1601,ConditionRich,2021.2.3,59.92380089444908,
272.75,276.0,41,0.0,Stimuli/Blank.png,0,0.0,0.0,0,122,122,122,,,,,,,,,,,,,272.7553396000003,0.005339600000297651,5,3.2182179000010365,303.98145509999813,303.98145509999813,303.98145509999813,303.98145509999813,303.98145509999813,303.98145509999813,303.98145509999813,303.98145509999813,303.98145509999813,303.98145509999813,005,P005,2025_Jan_18_1601,ConditionRich,2021.2.3,59.92380089444908,
276.0,292.0,0,0.0,Stimuli/Blank.png,1,8.0,8.75,0,123,123,123,,,,,,,,,,,,,276.0089345000015,0.008934500001487322,5,15.965024100001756,307.2342486999987,307.2342486999987,307.2342486999987,307.2342486999987,307.2342486999987,307.2342486999987,315.2246622999992,315.9753161000008,307.2342486999987,307.2342486999987,005,P005,2025_Jan_18_1601,ConditionRich,2021.2.3,59.92380089444908,
292.0,292.75,1,0.75,Stimuli/P005/sun_adyhbxohydkpecty.jpg,0,0.0,0.0,0,124,124,124,,,,,,,,,,,,,292.00805970000147,0.008059700001467718,None,,323.2483463999997,323.2483463999997,323.2483463999997,323.2483463999997,323.2483463999997,323.2483463999997,323.2483463999997,323.2483463999997,323.2483463999997,323.2483463999997,005,P005,2025_Jan_18_1601,ConditionRich,2021.2.3,59.92380089444908,
292.75,296.0,41,0.0,Stimuli/Blank.png,0,0.0,0.0,0,125,125,125,,,,,,,,,,,,,292.7734816000011,0.023481600001105107,5,3.200168200000917,323.9990641000004,323.9990641000004,323.9990641000004,323.9990641000004,323.9990641000004,323.9990641000004,323.9990641000004,323.9990641000004,323.9990641000004,323.9990641000004,005,P005,2025_Jan_18_1601,ConditionRich,2021.2.3,59.92380089444908,
296.0,296.75,5,0.75,Stimuli/P005/sun_axaqdcecfojvpvrl.jpg,0,0.0,0.0,0,126,126,126,,,,,,,,,,,,,296.0089322999993,0.008932299999287352,None,,327.2351729999973,327.2351729999973,327.2351729999973,327.2351729999973,327.2351729999973,327.2351729999973,327.2351729999973,327.2351729999973,327.2351729999973,327.2351729999973,005,P005,2025_Jan_18_1601,ConditionRich,2021.2.3,59.92380089444908,
296.75,300.0,41,0.0,Stimuli/Blank.png,0,0.0,0.0,0,127,127,127,,,,,,,,,,,,,296.75942379999833,0.00942379999833065,5,3.2136122999982035,327.9858228999983,327.9858228999983,327.9858228999983,327.9858228999983,327.9858228999983,327.9858228999983,327.9858228999983,327.9858228999983,327.9858228999983,327.9858228999983,005,P005,2025_Jan_18_1601,ConditionRich,2021.2.3,59.92380089444908,
300.0,300.75,19,0.75,Stimuli/P005/sun_czspalxthlkjwoat.jpg,0,0.0,0.0,0,128,128,128,,,,,,,,,,,,,300.0135784000013,0.013578400001279078,None,,331.25537540000005,331.25537540000005,331.25537540000005,331.25537540000005,331.25537540000005,331.25537540000005,331.25537540000005,331.25537540000005,331.25537540000005,331.25537540000005,005,P005,2025_Jan_18_1601,ConditionRich,2021.2.3,59.92380089444908,
300.75,304.0,41,0.0,Stimuli/Blank.png,0,0.0,0.0,0,129,129,129,,,,,,,,,,,,,300.7801709000014,0.03017090000139433,5,1.1933390999984113,332.006045099999,332.006045099999,332.006045099999,332.006045099999,332.006045099999,332.006045099999,332.006045099999,332.006045099999,332.006045099999,332.006045099999,005,P005,2025_Jan_18_1601,ConditionRich,2021.2.3,59.92380089444908,
304.0,304.75,2,0.75,Stimuli/P005/sun_ahmycohdkioefoxs.jpg,0,0.0,0.0,0,130,130,130,,,,,,,,,,,,,303.9993125000001,-0.0006874999999126885,None,,335.22554039999886,335.22554039999886,335.22554039999886,335.22554039999886,335.22554039999886,335.22554039999886,335.22554039999886,335.22554039999886,335.22554039999886,335.22554039999886,005,P005,2025_Jan_18_1601,ConditionRich,2021.2.3,59.92380089444908,
304.75,308.0,41,0.0,Stimuli/Blank.png,0,0.0,0.0,0,131,131,131,,,,,,,,,,,,,304.7501489999995,0.00014899999951012433,5,1.2232982000023185,335.97621029999937,335.97621029999937,335.97621029999937,335.97621029999937,335.97621029999937,335.97621029999937,335.97621029999937,335.97621029999937,335.97621029999937,335.97621029999937,005,P005,2025_Jan_18_1601,ConditionRich,2021.2.3,59.92380089444908,
308.0,308.75,14,0.75,Stimuli/P005/sun_bsirencncgxteejx.jpg,0,0.0,0.0,0,132,132,132,,,,,,,,,,,,,308.00325969999903,0.0032596999990346376,None,,339.2290635999998,339.2290635999998,339.2290635999998,339.2290635999998,339.2290635999998,339.2290635999998,339.2290635999998,339.2290635999998,339.2290635999998,339.2290635999998,005,P005,2025_Jan_18_1601,ConditionRich,2021.2.3,59.92380089444908,
308.75,312.0,41,0.0,Stimuli/Blank.png,1,0.25,1.0,0,133,133,133,,,,,,,,,,,,,308.7532280000014,0.003228000001399778,5,3.2198280000011437,339.979718999999,339.979718999999,339.979718999999,339.979718999999,339.979718999999,339.979718999999,340.21326559999943,340.96391829999993,339.979718999999,339.979718999999,005,P005,2025_Jan_18_1601,ConditionRich,2021.2.3,59.92380089444908,
312.0,312.75,23,0.75,Stimuli/P005/things_beetle_03s.jpg,0,0.0,0.0,0,134,134,134,,,,,,,,,,,,,312.0064048999993,0.006404899999324698,None,,343.232583099998,343.232583099998,343.232583099998,343.232583099998,343.232583099998,343.232583099998,343.232583099998,343.232583099998,343.232583099998,343.232583099998,005,P005,2025_Jan_18_1601,ConditionRich,2021.2.3,59.92380089444908,
312.75,316.0,41,0.0,Stimuli/Blank.png,0,0.0,0.0,0,135,135,135,,,,,,,,,,,,,312.7573427999996,0.0073427999996056315,5,3.2170106999983545,343.98326570000063,343.98326570000063,343.98326570000063,343.98326570000063,343.98326570000063,343.98326570000063,343.98326570000063,343.98326570000063,343.98326570000063,343.98326570000063,005,P005,2025_Jan_18_1601,ConditionRich,2021.2.3,59.92380089444908,
316.0,316.75,22,0.75,Stimuli/P005/things_baby_03s.jpg,0,0.0,0.0,0,136,136,136,,,,,,,,,,,,,316.01284659999874,0.012846599998738384,None,,347.25280120000025,347.25280120000025,347.25280120000025,347.25280120000025,347.25280120000025,347.25280120000025,347.25280120000025,347.25280120000025,347.25280120000025,347.25280120000025,005,P005,2025_Jan_18_1601,ConditionRich,2021.2.3,59.92380089444908,
316.75,320.0,41,0.0,Stimuli/Blank.png,0,0.0,0.0,0,137,137,137,,,,,,,,,,,,,316.77809790000174,0.028097900001739617,5,3.196854000001622,348.00346419999914,348.00346419999914,348.00346419999914,348.00346419999914,348.00346419999914,348.00346419999914,348.00346419999914,348.00346419999914,348.00346419999914,348.00346419999914,005,P005,2025_Jan_18_1601,ConditionRich,2021.2.3,59.92380089444908,
320.0,320.75,15,0.75,Stimuli/P005/sun_btkzuhaxqlacvmsv.jpg,0,0.0,0.0,0,138,138,138,,,,,,,,,,,,,320.0137775000003,0.013777500000287546,None,,351.23962910000046,351.23962910000046,351.23962910000046,351.23962910000046,351.23962910000046,351.23962910000046,351.23962910000046,351.23962910000046,351.23962910000046,351.23962910000046,005,P005,2025_Jan_18_1601,ConditionRich,2021.2.3,59.92380089444908,
320.75,324.0,41,0.0,Stimuli/Blank.png,0,0.0,0.0,0,139,139,139,,,,,,,,,,,,,320.76470680000057,0.014706800000567455,5,1.2098856000011438,351.990295399999,351.990295399999,351.990295399999,351.990295399999,351.990295399999,351.990295399999,351.990295399999,351.990295399999,351.990295399999,351.990295399999,005,P005,2025_Jan_18_1601,ConditionRich,2021.2.3,59.92380089444908,
324.0,324.75,7,0.75,Stimuli/P005/sun_bdmdlkpsznknrcqi.jpg,0,0.0,0.0,0,140,140,140,,,,,,,,,,,,,324.002937199999,0.0029371999989962205,None,,355.2431633999986,355.2431633999986,355.2431633999986,355.2431633999986,355.2431633999986,355.2431633999986,355.2431633999986,355.2431633999986,355.2431633999986,355.2431633999986,005,P005,2025_Jan_18_1601,ConditionRich,2021.2.3,59.92380089444908,
324.75,328.0,41,0.0,Stimuli/Blank.png,1,1.25,2.0,0,141,141,141,,,,,,,,,,,,,324.7681703999988,0.01817039999878034,4,1.739575200001127,355.99382049999986,355.99382049999986,355.99382049999986,355.99382049999986,355.99382049999986,355.99382049999986,357.22823269999935,357.9788974000003,355.99382049999986,355.99382049999986,005,P005,2025_Jan_18_1601,ConditionRich,2021.2.3,59.92380089444908,
328.0,328.75,16,0.75,Stimuli/P005/sun_bwentnobehmvaxkp.jpg,0,0.0,0.0,0,142,142,142,,,,,,,,,,,,,328.00383599999986,0.0038359999998647254,None,,359.23000110000066,359.23000110000066,359.23000110000066,359.23000110000066,359.23000110000066,359.23000110000066,359.23000110000066,359.23000110000066,359.23000110000066,359.23000110000066,005,P005,2025_Jan_18_1601,ConditionRich,2021.2.3,59.92380089444908,
328.75,332.0,41,0.0,Stimuli/Blank.png,0,0.0,0.0,0,143,143,143,,,,,,,,,,,,,328.7542374000004,0.004237400000420166,5,3.2194950000011886,359.9806577999989,359.9806577999989,359.9806577999989,359.9806577999989,359.9806577999989,359.9806577999989,359.9806577999989,359.9806577999989,359.9806577999989,359.9806577999989,005,P005,2025_Jan_18_1601,ConditionRich,2021.2.3,59.92380089444908,
332.0,332.75,12,0.75,Stimuli/P005/sun_bodyuiqwqpqzwfoz.jpg,0,0.0,0.0,0,144,144,144,,,,,,,,,,,,,332.0072227000019,0.007222700001875637,None,,363.2335611999988,363.2335611999988,363.2335611999988,363.2335611999988,363.2335611999988,363.2335611999988,363.2335611999988,363.2335611999988,363.2335611999988,363.2335611999988,005,P005,2025_Jan_18_1601,ConditionRich,2021.2.3,59.92380089444908,
332.75,336.0,41,0.0,Stimuli/Blank.png,0,0.0,0.0,0,145,145,145,,,,,,,,,,,,,332.75838020000083,0.008380200000829063,5,3.2159361000012723,363.9842040000003,363.9842040000003,363.9842040000003,363.9842040000003,363.9842040000003,363.9842040000003,363.9842040000003,363.9842040000003,363.9842040000003,363.9842040000003,005,P005,2025_Jan_18_1601,ConditionRich,2021.2.3,59.92380089444908,
336.0,336.75,10,0.75,Stimuli/P005/sun_bgnxbfhmwhliypvg.jpg,0,0.0,0.0,0,146,146,146,,,,,,,,,,,,,336.0129186000013,0.012918600001285085,None,,367.25373059999765,367.25373059999765,367.25373059999765,367.25373059999765,367.25373059999765,367.25373059999765,367.25373059999765,367.25373059999765,367.25373059999765,367.25373059999765,005,P005,2025_Jan_18_1601,ConditionRich,2021.2.3,59.92380089444908,
336.75,340.0,41,0.0,Stimuli/Blank.png,0,0.0,0.0,0,147,147,147,,,,,,,,,,,,,336.7785532000016,0.028553200001624646,5,1.1958598000019265,368.00438310000027,368.00438310000027,368.00438310000027,368.00438310000027,368.00438310000027,368.00438310000027,368.00438310000027,368.00438310000027,368.00438310000027,368.00438310000027,005,P005,2025_Jan_18_1601,ConditionRich,2021.2.3,59.92380089444908,
340.0,340.75,13,0.75,Stimuli/P005/sun_bruphbrfsbxowtlq.jpg,0,0.0,0.0,0,148,148,148,,,,,,,,,,,,,339.99933109999984,-0.0006689000001642853,None,,371.2238851000002,371.2238851000002,371.2238851000002,371.2238851000002,371.2238851000002,371.2238851000002,371.2238851000002,371.2238851000002,371.2238851000002,371.2238851000002,005,P005,2025_Jan_18_1601,ConditionRich,2021.2.3,59.92380089444908,
340.75,344.0,41,0.0,Stimuli/Blank.png,0,0.0,0.0,0,149,149,149,,,,,,,,,,,,,340.74879090000104,-0.001209099998959573,5,1.2255732000012358,371.97454629999993,371.97454629999993,371.97454629999993,371.97454629999993,371.97454629999993,371.97454629999993,371.97454629999993,371.97454629999993,371.97454629999993,371.97454629999993,005,P005,2025_Jan_18_1601,ConditionRich,2021.2.3,59.92380089444908,
344.0,344.75,32,0.75,Stimuli/P005/things_jumpsuit_03s.jpg,0,0.0,0.0,0,150,150,150,,,,,,,,,,,,,344.0036930999995,0.003693099999509286,None,,375.2441269999981,375.2441269999981,375.2441269999981,375.2441269999981,375.2441269999981,375.2441269999981,375.2441269999981,375.2441269999981,375.2441269999981,375.2441269999981,005,P005,2025_Jan_18_1601,ConditionRich,2021.2.3,59.92380089444908,
344.75,348.0,41,0.0,Stimuli/Blank.png,0,0.0,0.0,0,151,151,151,,,,,,,,,,,,,344.76888210000106,0.018882100001064828,5,1.2055819999986852,375.9947508999976,375.9947508999976,375.9947508999976,375.9947508999976,375.9947508999976,375.9947508999976,375.9947508999976,375.9947508999976,375.9947508999976,375.9947508999976,005,P005,2025_Jan_18_1601,ConditionRich,2021.2.3,59.92380089444908,
348.0,348.75,25,0.75,Stimuli/P005/things_dog_03s.jpg,0,0.0,0.0,0,152,152,152,,,,,,,,,,,,,348.0052160000014,0.005216000001382781,None,,379.23092890000044,379.23092890000044,379.23092890000044,379.23092890000044,379.23092890000044,379.23092890000044,379.23092890000044,379.23092890000044,379.23092890000044,379.23092890000044,005,P005,2025_Jan_18_1601,ConditionRich,2021.2.3,59.92380089444908,
348.75,352.0,41,0.0,Stimuli/Blank.png,0,0.0,0.0,0,153,153,153,,,,,,,,,,,,,348.7550732000018,0.005073200001788791,5,3.2173573000000033,379.9826632000004,379.9826632000004,379.9826632000004,379.9826632000004,379.9826632000004,379.9826632000004,379.9826632000004,379.9826632000004,379.9826632000004,379.9826632000004,005,P005,2025_Jan_18_1601,ConditionRich,2021.2.3,59.92380089444908,
352.0,352.75,40,0.75,Stimuli/P005/things_woman_03s.jpg,0,0.0,0.0,0,154,154,154,,,,,,,,,,,,,352.0081992000014,0.008199200001399731,None,,383.2344602999983,383.2344602999983,383.2344602999983,383.2344602999983,383.2344602999983,383.2344602999983,383.2344602999983,383.2344602999983,383.2344602999983,383.2344602999983,005,P005,2025_Jan_18_1601,ConditionRich,2021.2.3,59.92380089444908,
352.75,356.0,41,0.0,Stimuli/Blank.png,0,0.0,0.0,0,155,155,155,,,,,,,,,,,,,352.75900439999896,0.009004399998957524,5,3.215077900000324,383.9851161999977,383.9851161999977,383.9851161999977,383.9851161999977,383.9851161999977,383.9851161999977,383.9851161999977,383.9851161999977,383.9851161999977,383.9851161999977,005,P005,2025_Jan_18_1601,ConditionRich,2021.2.3,59.92380089444908,
356.0,356.75,21,0.75,Stimuli/P005/things_accordion_03s.jpg,0,0.0,0.0,0,156,156,156,,,,,,,,,,,,,356.0124959999994,0.012495999999373453,None,,387.2379774000001,387.2379774000001,387.2379774000001,387.2379774000001,387.2379774000001,387.2379774000001,387.2379774000001,387.2379774000001,387.2379774000001,387.2379774000001,005,P005,2025_Jan_18_1601,ConditionRich,2021.2.3,59.92380089444908,
356.75,360.0,41,0.0,Stimuli/Blank.png,0,0.0,0.0,0,157,157,157,,,,,,,,,,,,,356.7629068999995,0.012906899999507004,5,1.2113912000022538,387.98864949999916,387.98864949999916,387.98864949999916,387.98864949999916,387.98864949999916,387.98864949999916,387.98864949999916,387.98864949999916,387.98864949999916,387.98864949999916,005,P005,2025_Jan_18_1601,ConditionRich,2021.2.3,59.92380089444908,
360.0,360.75,8,0.75,Stimuli/P005/sun_bekkgqphzbclwpvb.jpg,0,0.0,0.0,0,158,158,158,,,,,,,,,,,,,359.9990050000015,-0.000994999998511048,None,,391.2248228999997,391.2248228999997,391.2248228999997,391.2248228999997,391.2248228999997,391.2248228999997,391.2248228999997,391.2248228999997,391.2248228999997,391.2248228999997,005,P005,2025_Jan_18_1601,ConditionRich,2021.2.3,59.92380089444908,
360.75,364.0,41,0.0,Stimuli/Blank.png,0,0.0,0.0,0,159,159,159,,,,,,,,,,,,,360.7490441000009,-0.0009558999990986194,5,1.2245320000001811,391.9754824999982,391.9754824999982,391.9754824999982,391.9754824999982,391.9754824999982,391.9754824999982,391.9754824999982,391.9754824999982,391.9754824999982,391.9754824999982,005,P005,2025_Jan_18_1601,ConditionRich,2021.2.3,59.92380089444908,
364.0,364.75,17,0.75,Stimuli/P005/sun_bwsictslfxygpqbp.jpg,1,0.0,0.75,0,160,160,160,,,,,,,,,,,,,364.0024704999996,0.0024704999996174593,None,,395.2283451999974,395.2283451999974,395.2283451999974,395.2283451999974,395.2283451999974,395.2283451999974,395.2283451999974,395.9623286999995,395.2283451999974,395.2283451999974,005,P005,2025_Jan_18_1601,ConditionRich,2021.2.3,59.92380089444908,
364.75,368.0,41,0.0,Stimuli/Blank.png,0,0.0,0.0,0,161,161,161,,,,,,,,,,,,,364.75337950000176,0.0033795000017562415,5,3.221023199999763,395.9790355999976,395.9790355999976,395.9790355999976,395.9790355999976,395.9790355999976,395.9790355999976,395.9790355999976,395.9790355999976,395.9790355999976,395.9790355999976,005,P005,2025_Jan_18_1601,ConditionRich,2021.2.3,59.92380089444908,
368.0,368.75,35,0.75,Stimuli/P005/things_pig_03s.jpg,1,0.0,0.75,0,162,162,162,,,,,,,,,,,,,368.00838920000024,0.008389200000237906,4,0.42658920000030776,399.2485597999985,399.2485597999985,399.2485597999985,399.2485597999985,399.2485597999985,399.2485597999985,399.2485597999985,399.98252499999944,399.2485597999985,399.2485597999985,005,P005,2025_Jan_18_1601,ConditionRich,2021.2.3,59.92380089444908,
368.75,372.0,41,0.0,Stimuli/Blank.png,0,0.0,0.0,0,163,163,163,,,,,,,,,,,,,368.7730198999998,0.023019899999781046,5,3.2007725999974355,399.9992020999998,399.9992020999998,399.9992020999998,399.9992020999998,399.9992020999998,399.9992020999998,399.9992020999998,399.9992020999998,399.9992020999998,399.9992020999998,005,P005,2025_Jan_18_1601,ConditionRich,2021.2.3,59.92380089444908,
372.0,388.0,0,0.0,Stimuli/Blank.png,1,11.0,11.75,0,164,164,164,,,,,,,,,,,,,372.00909590000083,0.009095900000829715,5,13.964476400000422,403.2353852999986,403.2353852999986,403.2353852999986,403.2353852999986,403.2353852999986,403.2353852999986,414.2117154999978,414.96237499999916,403.2353852999986,403.2353852999986,005,P005,2025_Jan_18_1601,ConditionRich,2021.2.3,59.92380089444908,
