eventStartTime,eventEndTime,eventCond,imSize,imFile,responseEvent,fixRespStart,fixRespEnd,Events.thisRepN,Events.thisTrialN,Events.thisN,Events.thisIndex,Instructions.started,Instructions.stopped,participantReadyResponse.keys,participantReadyResponse.rt,participantReadyResponse.started,participantReadyResponse.stopped,startWaitforTrigger,triggerResponse.keys,triggerResponse.rt,triggerResponse.started,triggerResponse.stopped,globalTimer,actualStartTime,startTimingDiff,participantResponse.keys,participantResponse.rt,participantResponse.started,participantResponse.stopped,image.started,image.stopped,fixationOutside.started,fixationOutside.stopped,fixationResponse.started,fixationResponse.stopped,fixationInside.started,fixationInside.stopped,session,participant,date,expName,psychopyVersion,frameRate,
,,,,,,,,,,,,22.70277740000165,None,4,14.301936600000772,22.70277740000165,None,,,,,,,,,,,,,,,,,,,,,007,P005,2025_Jan_18_1622,ConditionRich,2021.2.3,59.93608415897307,
,,,,,,,,,,,,,,,,,,37.0076661000021,5,15.097167800002353,37.02051080000092,None,,,,,,,,,,,,,,,,007,P005,2025_Jan_18_1622,ConditionRich,2021.2.3,59.93608415897307,
0.0,4.0,0,0.0,Stimuli/Blank.png,0,0,0.0,0,0,0,0,,,,,,,,,,,,52.121287300000404,0.05743799999982002,0.05743799999982002,5,3.917078800001036,52.200528600002144,None,52.200528600002144,None,52.200528600002144,None,52.200528600002144,52.200528600002144,52.200528600002144,None,007,P005,2025_Jan_18_1622,ConditionRich,2021.2.3,59.93608415897307,
4.0,4.75,29,0.75,Stimuli/P005/things_guillotine_03s.jpg,0,0,0.0,0,1,1,1,,,,,,,,,,,,,4.021542300000874,0.021542300000874093,None,,56.17089860000124,56.17089860000124,56.17089860000124,56.17089860000124,56.17089860000124,56.17089860000124,56.17089860000124,56.17089860000124,56.17089860000124,56.17089860000124,007,P005,2025_Jan_18_1622,ConditionRich,2021.2.3,59.93608415897307,
4.75,5.0,41,0.0,Stimuli/Blank.png,0,0,0.0,0,2,2,2,,,,,,,,,,,,,4.770098299999518,0.02009829999951762,None,,56.90493620000052,56.90493620000052,56.90493620000052,56.90493620000052,56.90493620000052,56.90493620000052,56.90493620000052,56.90493620000052,56.90493620000052,56.90493620000052,007,P005,2025_Jan_18_1622,ConditionRich,2021.2.3,59.93608415897307,
5.0,5.75,29,0.75,Stimuli/P005/things_guillotine_03s.jpg,1,0,0.75,0,3,3,3,,,,,,,,,,,,,5.002477900001395,0.002477900001395028,4,0.38642260000051465,57.138182500002586,57.138182500002586,57.138182500002586,57.138182500002586,57.138182500002586,57.138182500002586,57.138182500002586,57.87216800000169,57.138182500002586,57.138182500002586,007,P005,2025_Jan_18_1622,ConditionRich,2021.2.3,59.93608415897307,
5.75,6.0,41,0.0,Stimuli/Blank.png,0,0,0.0,0,4,4,4,,,,,,,,,,,,,5.7534235000021,0.0034235000020998996,None,,57.88883100000021,57.88883100000021,57.88883100000021,57.88883100000021,57.88883100000021,57.88883100000021,57.88883100000021,57.88883100000021,57.88883100000021,57.88883100000021,007,P005,2025_Jan_18_1622,ConditionRich,2021.2.3,59.93608415897307,
6.0,6.75,29,0.75,Stimuli/P005/things_guillotine_03s.jpg,0,0,0.0,0,5,5,5,,,,,,,,,,,,,6.005814600001031,0.005814600001031067,None,,58.1557406000029,58.1557406000029,58.1557406000029,58.1557406000029,58.1557406000029,58.1557406000029,58.1557406000029,58.1557406000029,58.1557406000029,58.1557406000029,007,P005,2025_Jan_18_1622,ConditionRich,2021.2.3,59.93608415897307,
6.75,7.0,41,0.0,Stimuli/Blank.png,0,0,0.0,0,6,6,6,,,,,,,,,,,,,6.770652600000176,0.02065260000017588,None,,58.90639800000281,58.90639800000281,58.90639800000281,58.90639800000281,58.90639800000281,58.90639800000281,58.90639800000281,58.90639800000281,58.90639800000281,58.90639800000281,007,P005,2025_Jan_18_1622,ConditionRich,2021.2.3,59.93608415897307,
7.0,7.75,29,0.75,Stimuli/P005/things_guillotine_03s.jpg,0,0,0.0,0,7,7,7,,,,,,,,,,,,,7.004667000001064,0.00466700000106357,None,,59.139925700001186,59.139925700001186,59.139925700001186,59.139925700001186,59.139925700001186,59.139925700001186,59.139925700001186,59.139925700001186,59.139925700001186,59.139925700001186,007,P005,2025_Jan_18_1622,ConditionRich,2021.2.3,59.93608415897307,
7.75,8.0,41,0.0,Stimuli/Blank.png,0,0,0.0,0,8,8,8,,,,,,,,,,,,,7.755379500002164,0.005379500002163695,None,,59.890610300000844,59.890610300000844,59.890610300000844,59.890610300000844,59.890610300000844,59.890610300000844,59.890610300000844,59.890610300000844,59.890610300000844,59.890610300000844,007,P005,2025_Jan_18_1622,ConditionRich,2021.2.3,59.93608415897307,
8.0,8.75,1,0.75,Stimuli/P005/sun_adyhbxohydkpecty.jpg,0,0,0.0,0,9,9,9,,,,,,,,,,,,,8.005755000001955,0.005755000001954613,None,,60.157500700002856,60.157500700002856,60.157500700002856,60.157500700002856,60.157500700002856,60.157500700002856,60.157500700002856,60.157500700002856,60.157500700002856,60.157500700002856,007,P005,2025_Jan_18_1622,ConditionRich,2021.2.3,59.93608415897307,
8.75,9.0,41,0.0,Stimuli/Blank.png,0,0,0.0,0,10,10,10,,,,,,,,,,,,,8.775087600002735,0.02508760000273469,None,,60.92482999999993,60.92482999999993,60.92482999999993,60.92482999999993,60.92482999999993,60.92482999999993,60.92482999999993,60.92482999999993,60.92482999999993,60.92482999999993,007,P005,2025_Jan_18_1622,ConditionRich,2021.2.3,59.93608415897307,
9.0,9.75,1,0.75,Stimuli/P005/sun_adyhbxohydkpecty.jpg,0,0,0.0,0,11,11,11,,,,,,,,,,,,,9.024912900000345,0.024912900000344962,None,,61.17511170000216,61.17511170000216,61.17511170000216,61.17511170000216,61.17511170000216,61.17511170000216,61.17511170000216,61.17511170000216,61.17511170000216,61.17511170000216,007,P005,2025_Jan_18_1622,ConditionRich,2021.2.3,59.93608415897307,
9.75,10.0,41,0.0,Stimuli/Blank.png,0,0,0.0,0,12,12,12,,,,,,,,,,,,,9.775889700002153,0.025889700002153404,5,0.19184219999806373,61.925726600002236,61.925726600002236,61.925726600002236,61.925726600002236,61.925726600002236,61.925726600002236,61.925726600002236,61.925726600002236,61.925726600002236,61.925726600002236,007,P005,2025_Jan_18_1622,ConditionRich,2021.2.3,59.93608415897307,
10.0,10.75,1,0.75,Stimuli/P005/sun_adyhbxohydkpecty.jpg,0,0,0.0,0,13,13,13,,,,,,,,,,,,,10.02333329999965,0.02333329999964917,None,,62.15926490000129,62.15926490000129,62.15926490000129,62.15926490000129,62.15926490000129,62.15926490000129,62.15926490000129,62.15926490000129,62.15926490000129,62.15926490000129,007,P005,2025_Jan_18_1622,ConditionRich,2021.2.3,59.93608415897307,
10.75,11.0,41,0.0,Stimuli/Blank.png,0,0,0.0,0,14,14,14,,,,,,,,,,,,,10.757348300001468,0.007348300001467578,None,,62.89324200000192,62.89324200000192,62.89324200000192,62.89324200000192,62.89324200000192,62.89324200000192,62.89324200000192,62.89324200000192,62.89324200000192,62.89324200000192,007,P005,2025_Jan_18_1622,ConditionRich,2021.2.3,59.93608415897307,
11.0,11.75,1,0.75,Stimuli/P005/sun_adyhbxohydkpecty.jpg,0,0,0.0,0,15,15,15,,,,,,,,,,,,,11.009586600001057,0.009586600001057377,None,,63.160145900001226,63.160145900001226,63.160145900001226,63.160145900001226,63.160145900001226,63.160145900001226,63.160145900001226,63.160145900001226,63.160145900001226,63.160145900001226,007,P005,2025_Jan_18_1622,ConditionRich,2021.2.3,59.93608415897307,
11.75,12.0,41,0.0,Stimuli/Blank.png,0,0,0.0,0,16,16,16,,,,,,,,,,,,,11.776313800000935,0.02631380000093486,5,0.19002179999733926,63.92749190000177,63.92749190000177,63.92749190000177,63.92749190000177,63.92749190000177,63.92749190000177,63.92749190000177,63.92749190000177,63.92749190000177,63.92749190000177,007,P005,2025_Jan_18_1622,ConditionRich,2021.2.3,59.93608415897307,
12.0,12.75,6,0.75,Stimuli/P005/sun_bbzkhzmxdjrfjpjz.jpg,0,0,0.0,0,17,17,17,,,,,,,,,,,,,12.025217400001566,0.025217400001565693,None,,64.16101590000108,64.16101590000108,64.16101590000108,64.16101590000108,64.16101590000108,64.16101590000108,64.16101590000108,64.16101590000108,64.16101590000108,64.16101590000108,007,P005,2025_Jan_18_1622,ConditionRich,2021.2.3,59.93608415897307,
12.75,13.0,41,0.0,Stimuli/Blank.png,0,0,0.0,0,18,18,18,,,,,,,,,,,,,12.759348700001283,0.00934870000128285,None,,64.89500570000018,64.89500570000018,64.89500570000018,64.89500570000018,64.89500570000018,64.89500570000018,64.89500570000018,64.89500570000018,64.89500570000018,64.89500570000018,007,P005,2025_Jan_18_1622,ConditionRich,2021.2.3,59.93608415897307,
13.0,13.75,6,0.75,Stimuli/P005/sun_bbzkhzmxdjrfjpjz.jpg,0,0,0.0,0,19,19,19,,,,,,,,,,,,,13.010240700001305,0.010240700001304504,None,,65.16192840000076,65.16192840000076,65.16192840000076,65.16192840000076,65.16192840000076,65.16192840000076,65.16192840000076,65.16192840000076,65.16192840000076,65.16192840000076,007,P005,2025_Jan_18_1622,ConditionRich,2021.2.3,59.93608415897307,
13.75,14.0,41,0.0,Stimuli/Blank.png,0,0,0.0,0,20,20,20,,,,,,,,,,,,,13.77968730000066,0.02968730000065989,5,0.1883897000006982,65.9292568000019,65.9292568000019,65.9292568000019,65.9292568000019,65.9292568000019,65.9292568000019,65.9292568000019,65.9292568000019,65.9292568000019,65.9292568000019,007,P005,2025_Jan_18_1622,ConditionRich,2021.2.3,59.93608415897307,
14.0,14.75,6,0.75,Stimuli/P005/sun_bbzkhzmxdjrfjpjz.jpg,0,0,0.0,0,21,21,21,,,,,,,,,,,,,14.026922100001684,0.026922100001684157,None,,66.16278330000205,66.16278330000205,66.16278330000205,66.16278330000205,66.16278330000205,66.16278330000205,66.16278330000205,66.16278330000205,66.16278330000205,66.16278330000205,007,P005,2025_Jan_18_1622,ConditionRich,2021.2.3,59.93608415897307,
14.75,15.0,41,0.0,Stimuli/Blank.png,0,0,0.0,0,22,22,22,,,,,,,,,,,,,14.76136570000017,0.011365700000169454,None,,66.896767000002,66.896767000002,66.896767000002,66.896767000002,66.896767000002,66.896767000002,66.896767000002,66.896767000002,66.896767000002,66.896767000002,007,P005,2025_Jan_18_1622,ConditionRich,2021.2.3,59.93608415897307,
15.0,15.75,6,0.75,Stimuli/P005/sun_bbzkhzmxdjrfjpjz.jpg,0,0,0.0,0,23,23,23,,,,,,,,,,,,,15.011708800000633,0.011708800000633346,None,,67.1636748000019,67.1636748000019,67.1636748000019,67.1636748000019,67.1636748000019,67.1636748000019,67.1636748000019,67.1636748000019,67.1636748000019,67.1636748000019,007,P005,2025_Jan_18_1622,ConditionRich,2021.2.3,59.93608415897307,
15.75,16.0,41,0.0,Stimuli/Blank.png,0,0,0.0,0,24,24,24,,,,,,,,,,,,,15.77907750000304,0.029077500003040768,None,,67.91433710000274,67.91433710000274,67.91433710000274,67.91433710000274,67.91433710000274,67.91433710000274,67.91433710000274,67.91433710000274,67.91433710000274,67.91433710000274,007,P005,2025_Jan_18_1622,ConditionRich,2021.2.3,59.93608415897307,
16.0,16.75,5,0.75,Stimuli/P005/sun_axaqdcecfojvpvrl.jpg,0,0,0.0,0,25,25,25,,,,,,,,,,,,,16.01495220000288,0.014952200002881,None,,68.16456390000167,68.16456390000167,68.16456390000167,68.16456390000167,68.16456390000167,68.16456390000167,68.16456390000167,68.16456390000167,68.16456390000167,68.16456390000167,007,P005,2025_Jan_18_1622,ConditionRich,2021.2.3,59.93608415897307,
16.75,17.0,41,0.0,Stimuli/Blank.png,0,0,0.0,0,26,26,26,,,,,,,,,,,,,16.779696699999477,0.02969669999947655,None,,68.91521530000318,68.91521530000318,68.91521530000318,68.91521530000318,68.91521530000318,68.91521530000318,68.91521530000318,68.91521530000318,68.91521530000318,68.91521530000318,007,P005,2025_Jan_18_1622,ConditionRich,2021.2.3,59.93608415897307,
17.0,17.75,5,0.75,Stimuli/P005/sun_axaqdcecfojvpvrl.jpg,0,0,0.0,0,27,27,27,,,,,,,,,,,,,17.01307970000198,0.01307970000198111,None,,69.1487541000024,69.1487541000024,69.1487541000024,69.1487541000024,69.1487541000024,69.1487541000024,69.1487541000024,69.1487541000024,69.1487541000024,69.1487541000024,007,P005,2025_Jan_18_1622,ConditionRich,2021.2.3,59.93608415897307,
17.75,18.0,41,0.0,Stimuli/Blank.png,0,0,0.0,0,28,28,28,,,,,,,,,,,,,17.764378100000613,0.014378100000612903,None,,69.89941380000164,69.89941380000164,69.89941380000164,69.89941380000164,69.89941380000164,69.89941380000164,69.89941380000164,69.89941380000164,69.89941380000164,69.89941380000164,007,P005,2025_Jan_18_1622,ConditionRich,2021.2.3,59.93608415897307,
18.0,18.75,5,0.75,Stimuli/P005/sun_axaqdcecfojvpvrl.jpg,0,0,0.0,0,29,29,29,,,,,,,,,,,,,18.014045899999473,0.014045899999473477,None,,70.14962920000107,70.14962920000107,70.14962920000107,70.14962920000107,70.14962920000107,70.14962920000107,70.14962920000107,70.14962920000107,70.14962920000107,70.14962920000107,007,P005,2025_Jan_18_1622,ConditionRich,2021.2.3,59.93608415897307,
18.75,19.0,41,0.0,Stimuli/Blank.png,0,0,0.0,0,30,30,30,,,,,,,,,,,,,18.765682100001868,0.015682100001868093,None,,70.90029730000242,70.90029730000242,70.90029730000242,70.90029730000242,70.90029730000242,70.90029730000242,70.90029730000242,70.90029730000242,70.90029730000242,70.90029730000242,007,P005,2025_Jan_18_1622,ConditionRich,2021.2.3,59.93608415897307,
19.0,19.75,5,0.75,Stimuli/P005/sun_axaqdcecfojvpvrl.jpg,0,0,0.0,0,31,31,31,,,,,,,,,,,,,19.000517700002092,0.0005177000020921696,None,,71.1505130000005,71.1505130000005,71.1505130000005,71.1505130000005,71.1505130000005,71.1505130000005,71.1505130000005,71.1505130000005,71.1505130000005,71.1505130000005,007,P005,2025_Jan_18_1622,ConditionRich,2021.2.3,59.93608415897307,
19.75,20.0,41,0.0,Stimuli/Blank.png,0,0,0.0,0,32,32,32,,,,,,,,,,,,,19.765647700001864,0.015647700001863996,None,,71.90116660000058,71.90116660000058,71.90116660000058,71.90116660000058,71.90116660000058,71.90116660000058,71.90116660000058,71.90116660000058,71.90116660000058,71.90116660000058,007,P005,2025_Jan_18_1622,ConditionRich,2021.2.3,59.93608415897307,
20.0,20.75,37,0.75,Stimuli/P005/things_showerhead_03s.jpg,0,0,0.0,0,33,33,33,,,,,,,,,,,,,19.999492900002224,-0.0005070999977760948,None,,72.15138790000128,72.15138790000128,72.15138790000128,72.15138790000128,72.15138790000128,72.15138790000128,72.15138790000128,72.15138790000128,72.15138790000128,72.15138790000128,007,P005,2025_Jan_18_1622,ConditionRich,2021.2.3,59.93608415897307,
20.75,21.0,41,0.0,Stimuli/Blank.png,0,0,0.0,0,34,34,34,,,,,,,,,,,,,20.767060300000594,0.017060300000593998,None,,72.90211480000289,72.90211480000289,72.90211480000289,72.90211480000289,72.90211480000289,72.90211480000289,72.90211480000289,72.90211480000289,72.90211480000289,72.90211480000289,007,P005,2025_Jan_18_1622,ConditionRich,2021.2.3,59.93608415897307,
21.0,21.75,37,0.75,Stimuli/P005/things_showerhead_03s.jpg,0,0,0.0,0,35,35,35,,,,,,,,,,,,,21.000224200000957,0.00022420000095735304,None,,73.13559530000202,73.13559530000202,73.13559530000202,73.13559530000202,73.13559530000202,73.13559530000202,73.13559530000202,73.13559530000202,73.13559530000202,73.13559530000202,007,P005,2025_Jan_18_1622,ConditionRich,2021.2.3,59.93608415897307,
21.75,22.0,41,0.0,Stimuli/Blank.png,0,0,0.0,0,36,36,36,,,,,,,,,,,,,21.751120400000218,0.0011204000002180692,None,,73.88624880000134,73.88624880000134,73.88624880000134,73.88624880000134,73.88624880000134,73.88624880000134,73.88624880000134,73.88624880000134,73.88624880000134,73.88624880000134,007,P005,2025_Jan_18_1622,ConditionRich,2021.2.3,59.93608415897307,
22.0,22.75,37,0.75,Stimuli/P005/things_showerhead_03s.jpg,0,0,0.0,0,37,37,37,,,,,,,,,,,,,22.001304600002186,0.0013046000021859072,None,,74.13644990000103,74.13644990000103,74.13644990000103,74.13644990000103,74.13644990000103,74.13644990000103,74.13644990000103,74.13644990000103,74.13644990000103,74.13644990000103,007,P005,2025_Jan_18_1622,ConditionRich,2021.2.3,59.93608415897307,
22.75,23.0,41,0.0,Stimuli/Blank.png,0,0,0.0,0,38,38,38,,,,,,,,,,,,,22.751929800000653,0.0019298000006529037,None,,74.88713590000043,74.88713590000043,74.88713590000043,74.88713590000043,74.88713590000043,74.88713590000043,74.88713590000043,74.88713590000043,74.88713590000043,74.88713590000043,007,P005,2025_Jan_18_1622,ConditionRich,2021.2.3,59.93608415897307,
23.0,23.75,37,0.75,Stimuli/P005/things_showerhead_03s.jpg,0,0,0.0,0,39,39,39,,,,,,,,,,,,,23.00240180000037,0.002401800000370713,None,,75.13735490000181,75.13735490000181,75.13735490000181,75.13735490000181,75.13735490000181,75.13735490000181,75.13735490000181,75.13735490000181,75.13735490000181,75.13735490000181,007,P005,2025_Jan_18_1622,ConditionRich,2021.2.3,59.93608415897307,
23.75,24.0,41,0.0,Stimuli/Blank.png,0,0,0.0,0,40,40,40,,,,,,,,,,,,,23.75210739999966,0.00210739999965881,None,,75.88801600000079,75.88801600000079,75.88801600000079,75.88801600000079,75.88801600000079,75.88801600000079,75.88801600000079,75.88801600000079,75.88801600000079,75.88801600000079,007,P005,2025_Jan_18_1622,ConditionRich,2021.2.3,59.93608415897307,
24.0,24.75,39,0.75,Stimuli/P005/things_train_set_03s.jpg,0,0,0.0,0,41,41,41,,,,,,,,,,,,,24.00310449999961,0.003104499999608379,None,,76.15491600000314,76.15491600000314,76.15491600000314,76.15491600000314,76.15491600000314,76.15491600000314,76.15491600000314,76.15491600000314,76.15491600000314,76.15491600000314,007,P005,2025_Jan_18_1622,ConditionRich,2021.2.3,59.93608415897307,
24.75,25.0,41,0.0,Stimuli/Blank.png,0,0,0.0,0,42,42,42,,,,,,,,,,,,,24.770402199999808,0.020402199999807635,None,,76.9055773,76.9055773,76.9055773,76.9055773,76.9055773,76.9055773,76.9055773,76.9055773,76.9055773,76.9055773,007,P005,2025_Jan_18_1622,ConditionRich,2021.2.3,59.93608415897307,
25.0,25.75,39,0.75,Stimuli/P005/things_train_set_03s.jpg,0,0,0.0,0,43,43,43,,,,,,,,,,,,,25.00461400000131,0.004614000001311069,None,,77.1558036000024,77.1558036000024,77.1558036000024,77.1558036000024,77.1558036000024,77.1558036000024,77.1558036000024,77.1558036000024,77.1558036000024,77.1558036000024,007,P005,2025_Jan_18_1622,ConditionRich,2021.2.3,59.93608415897307,
25.75,26.0,41,0.0,Stimuli/Blank.png,0,0,0.0,0,44,44,44,,,,,,,,,,,,,25.771128399999725,0.021128399999724934,None,,77.90643180000188,77.90643180000188,77.90643180000188,77.90643180000188,77.90643180000188,77.90643180000188,77.90643180000188,77.90643180000188,77.90643180000188,77.90643180000188,007,P005,2025_Jan_18_1622,ConditionRich,2021.2.3,59.93608415897307,
26.0,26.75,39,0.75,Stimuli/P005/things_train_set_03s.jpg,0,0,0.0,0,45,45,45,,,,,,,,,,,,,26.004417800002557,0.00441780000255676,None,,78.13999740000145,78.13999740000145,78.13999740000145,78.13999740000145,78.13999740000145,78.13999740000145,78.13999740000145,78.13999740000145,78.13999740000145,78.13999740000145,007,P005,2025_Jan_18_1622,ConditionRich,2021.2.3,59.93608415897307,
26.75,27.0,41,0.0,Stimuli/Blank.png,0,0,0.0,0,46,46,46,,,,,,,,,,,,,26.755363700001908,0.0053637000019080006,None,,78.89065420000043,78.89065420000043,78.89065420000043,78.89065420000043,78.89065420000043,78.89065420000043,78.89065420000043,78.89065420000043,78.89065420000043,78.89065420000043,007,P005,2025_Jan_18_1622,ConditionRich,2021.2.3,59.93608415897307,
27.0,27.75,39,0.75,Stimuli/P005/things_train_set_03s.jpg,0,0,0.0,0,47,47,47,,,,,,,,,,,,,27.006401599999663,0.0064015999996627215,None,,79.15758200000346,79.15758200000346,79.15758200000346,79.15758200000346,79.15758200000346,79.15758200000346,79.15758200000346,79.15758200000346,79.15758200000346,79.15758200000346,007,P005,2025_Jan_18_1622,ConditionRich,2021.2.3,59.93608415897307,
27.75,28.0,41,0.0,Stimuli/Blank.png,0,0,0.0,0,48,48,48,,,,,,,,,,,,,27.774721100002353,0.024721100002352614,5,0.1926382999990892,79.92490480000197,79.92490480000197,79.92490480000197,79.92490480000197,79.92490480000197,79.92490480000197,79.92490480000197,79.92490480000197,79.92490480000197,79.92490480000197,007,P005,2025_Jan_18_1622,ConditionRich,2021.2.3,59.93608415897307,
28.0,28.75,26,0.75,Stimuli/P005/things_face_03s.jpg,0,0,0.0,0,49,49,49,,,,,,,,,,,,,28.022655900000245,0.02265590000024531,None,,80.1584397000006,80.1584397000006,80.1584397000006,80.1584397000006,80.1584397000006,80.1584397000006,80.1584397000006,80.1584397000006,80.1584397000006,80.1584397000006,007,P005,2025_Jan_18_1622,ConditionRich,2021.2.3,59.93608415897307,
28.75,29.0,41,0.0,Stimuli/Blank.png,0,0,0.0,0,50,50,50,,,,,,,,,,,,,28.75669740000012,0.006697400000120979,None,,80.89241900000343,80.89241900000343,80.89241900000343,80.89241900000343,80.89241900000343,80.89241900000343,80.89241900000343,80.89241900000343,80.89241900000343,80.89241900000343,007,P005,2025_Jan_18_1622,ConditionRich,2021.2.3,59.93608415897307,
29.0,29.75,26,0.75,Stimuli/P005/things_face_03s.jpg,0,0,0.0,0,51,51,51,,,,,,,,,,,,,29.007136300002458,0.007136300002457574,None,,81.15932710000197,81.15932710000197,81.15932710000197,81.15932710000197,81.15932710000197,81.15932710000197,81.15932710000197,81.15932710000197,81.15932710000197,81.15932710000197,007,P005,2025_Jan_18_1622,ConditionRich,2021.2.3,59.93608415897307,
29.75,30.0,41,0.0,Stimuli/Blank.png,0,0,0.0,0,52,52,52,,,,,,,,,,,,,29.775538500001858,0.025538500001857756,None,,81.9099864000018,81.9099864000018,81.9099864000018,81.9099864000018,81.9099864000018,81.9099864000018,81.9099864000018,81.9099864000018,81.9099864000018,81.9099864000018,007,P005,2025_Jan_18_1622,ConditionRich,2021.2.3,59.93608415897307,
30.0,30.75,26,0.75,Stimuli/P005/things_face_03s.jpg,0,0,0.0,0,53,53,53,,,,,,,,,,,,,30.008371400002943,0.008371400002943119,None,,82.1435240000028,82.1435240000028,82.1435240000028,82.1435240000028,82.1435240000028,82.1435240000028,82.1435240000028,82.1435240000028,82.1435240000028,82.1435240000028,007,P005,2025_Jan_18_1622,ConditionRich,2021.2.3,59.93608415897307,
30.75,31.0,41,0.0,Stimuli/Blank.png,0,0,0.0,0,54,54,54,,,,,,,,,,,,,30.758339400003024,0.008339400003023911,None,,82.89418820000355,82.89418820000355,82.89418820000355,82.89418820000355,82.89418820000355,82.89418820000355,82.89418820000355,82.89418820000355,82.89418820000355,82.89418820000355,007,P005,2025_Jan_18_1622,ConditionRich,2021.2.3,59.93608415897307,
31.0,31.75,26,0.75,Stimuli/P005/things_face_03s.jpg,0,0,0.0,0,55,55,55,,,,,,,,,,,,,31.00982170000134,0.009821700001339195,None,,83.16110360000312,83.16110360000312,83.16110360000312,83.16110360000312,83.16110360000312,83.16110360000312,83.16110360000312,83.16110360000312,83.16110360000312,83.16110360000312,007,P005,2025_Jan_18_1622,ConditionRich,2021.2.3,59.93608415897307,
31.75,32.0,41,0.0,Stimuli/Blank.png,0,0,0.0,0,56,56,56,,,,,,,,,,,,,31.77662430000055,0.02662430000054883,None,,83.91182840000329,83.91182840000329,83.91182840000329,83.91182840000329,83.91182840000329,83.91182840000329,83.91182840000329,83.91182840000329,83.91182840000329,83.91182840000329,007,P005,2025_Jan_18_1622,ConditionRich,2021.2.3,59.93608415897307,
32.0,32.75,18,0.75,Stimuli/P005/sun_bzqhpcsgzswozfhs.jpg,0,0,0.0,0,57,57,57,,,,,,,,,,,,,32.00989900000059,0.009899000000586966,None,,84.14528220000284,84.14528220000284,84.14528220000284,84.14528220000284,84.14528220000284,84.14528220000284,84.14528220000284,84.14528220000284,84.14528220000284,84.14528220000284,007,P005,2025_Jan_18_1622,ConditionRich,2021.2.3,59.93608415897307,
32.75,33.0,41,0.0,Stimuli/Blank.png,0,0,0.0,0,58,58,58,,,,,,,,,,,,,32.76039060000039,0.010390600000391714,None,,84.89594220000072,84.89594220000072,84.89594220000072,84.89594220000072,84.89594220000072,84.89594220000072,84.89594220000072,84.89594220000072,84.89594220000072,84.89594220000072,007,P005,2025_Jan_18_1622,ConditionRich,2021.2.3,59.93608415897307,
33.0,33.75,18,0.75,Stimuli/P005/sun_bzqhpcsgzswozfhs.jpg,0,0,0.0,0,59,59,59,,,,,,,,,,,,,33.01108550000208,0.011085500002081972,None,,85.14616210000167,85.14616210000167,85.14616210000167,85.14616210000167,85.14616210000167,85.14616210000167,85.14616210000167,85.14616210000167,85.14616210000167,85.14616210000167,007,P005,2025_Jan_18_1622,ConditionRich,2021.2.3,59.93608415897307,
33.75,34.0,41,0.0,Stimuli/Blank.png,0,0,0.0,0,60,60,60,,,,,,,,,,,,,33.76125479999973,0.011254799999733223,None,,85.89682160000302,85.89682160000302,85.89682160000302,85.89682160000302,85.89682160000302,85.89682160000302,85.89682160000302,85.89682160000302,85.89682160000302,85.89682160000302,007,P005,2025_Jan_18_1622,ConditionRich,2021.2.3,59.93608415897307,
34.0,34.75,18,0.75,Stimuli/P005/sun_bzqhpcsgzswozfhs.jpg,0,0,0.0,0,61,61,61,,,,,,,,,,,,,34.01196020000134,0.011960200001340127,None,,86.14704750000237,86.14704750000237,86.14704750000237,86.14704750000237,86.14704750000237,86.14704750000237,86.14704750000237,86.14704750000237,86.14704750000237,86.14704750000237,007,P005,2025_Jan_18_1622,ConditionRich,2021.2.3,59.93608415897307,
34.75,35.0,41,0.0,Stimuli/Blank.png,0,0,0.0,0,62,62,62,,,,,,,,,,,,,34.76255180000226,0.012551800002256641,None,,86.8977126000027,86.8977126000027,86.8977126000027,86.8977126000027,86.8977126000027,86.8977126000027,86.8977126000027,86.8977126000027,86.8977126000027,86.8977126000027,007,P005,2025_Jan_18_1622,ConditionRich,2021.2.3,59.93608415897307,
35.0,35.75,18,0.75,Stimuli/P005/sun_bzqhpcsgzswozfhs.jpg,0,0,0.0,0,63,63,63,,,,,,,,,,,,,35.01221550000264,0.012215500002639601,None,,87.1479320000035,87.1479320000035,87.1479320000035,87.1479320000035,87.1479320000035,87.1479320000035,87.1479320000035,87.1479320000035,87.1479320000035,87.1479320000035,007,P005,2025_Jan_18_1622,ConditionRich,2021.2.3,59.93608415897307,
35.75,36.0,41,0.0,Stimuli/Blank.png,0,0,0.0,0,64,64,64,,,,,,,,,,,,,35.76519990000088,0.015199900000880007,5,0.20216819999768632,87.91526830000294,87.91526830000294,87.91526830000294,87.91526830000294,87.91526830000294,87.91526830000294,87.91526830000294,87.91526830000294,87.91526830000294,87.91526830000294,007,P005,2025_Jan_18_1622,ConditionRich,2021.2.3,59.93608415897307,
36.0,36.75,38,0.75,Stimuli/P005/things_sledgehammer_03s.jpg,0,0,0.0,0,65,65,65,,,,,,,,,,,,,36.03048240000135,0.030482400001346832,None,,88.16548800000237,88.16548800000237,88.16548800000237,88.16548800000237,88.16548800000237,88.16548800000237,88.16548800000237,88.16548800000237,88.16548800000237,88.16548800000237,007,P005,2025_Jan_18_1622,ConditionRich,2021.2.3,59.93608415897307,
36.75,37.0,41,0.0,Stimuli/Blank.png,0,0,0.0,0,66,66,66,,,,,,,,,,,,,36.764437000001635,0.01443700000163517,None,,88.8994758000008,88.8994758000008,88.8994758000008,88.8994758000008,88.8994758000008,88.8994758000008,88.8994758000008,88.8994758000008,88.8994758000008,88.8994758000008,007,P005,2025_Jan_18_1622,ConditionRich,2021.2.3,59.93608415897307,
37.0,37.75,38,0.75,Stimuli/P005/things_sledgehammer_03s.jpg,0,0,0.0,0,67,67,67,,,,,,,,,,,,,37.01510980000239,0.015109800002392149,None,,89.16634580000027,89.16634580000027,89.16634580000027,89.16634580000027,89.16634580000027,89.16634580000027,89.16634580000027,89.16634580000027,89.16634580000027,89.16634580000027,007,P005,2025_Jan_18_1622,ConditionRich,2021.2.3,59.93608415897307,
37.75,38.0,41,0.0,Stimuli/Blank.png,0,0,0.0,0,68,68,68,,,,,,,,,,,,,37.76508509999985,0.015085099999851082,5,0.21706410000115284,89.90035630000057,89.90035630000057,89.90035630000057,89.90035630000057,89.90035630000057,89.90035630000057,89.90035630000057,89.90035630000057,89.90035630000057,89.90035630000057,007,P005,2025_Jan_18_1622,ConditionRich,2021.2.3,59.93608415897307,
38.0,38.75,38,0.75,Stimuli/P005/things_sledgehammer_03s.jpg,0,0,0.0,0,69,69,69,,,,,,,,,,,,,38.01535870000225,0.01535870000225259,None,,90.15056240000195,90.15056240000195,90.15056240000195,90.15056240000195,90.15056240000195,90.15056240000195,90.15056240000195,90.15056240000195,90.15056240000195,90.15056240000195,007,P005,2025_Jan_18_1622,ConditionRich,2021.2.3,59.93608415897307,
38.75,39.0,41,0.0,Stimuli/Blank.png,0,0,0.0,0,70,70,70,,,,,,,,,,,,,38.74933710000187,-0.0006628999981330708,None,,90.88564910000059,90.88564910000059,90.88564910000059,90.88564910000059,90.88564910000059,90.88564910000059,90.88564910000059,90.88564910000059,90.88564910000059,90.88564910000059,007,P005,2025_Jan_18_1622,ConditionRich,2021.2.3,59.93608415897307,
39.0,39.75,38,0.75,Stimuli/P005/things_sledgehammer_03s.jpg,0,0,0.0,0,71,71,71,,,,,,,,,,,,,39.01575489999959,0.015754899999592453,None,,91.15144260000307,91.15144260000307,91.15144260000307,91.15144260000307,91.15144260000307,91.15144260000307,91.15144260000307,91.15144260000307,91.15144260000307,91.15144260000307,007,P005,2025_Jan_18_1622,ConditionRich,2021.2.3,59.93608415897307,
39.75,40.0,41,0.0,Stimuli/Blank.png,0,0,0.0,0,72,72,72,,,,,,,,,,,,,39.7507394000022,0.0007394000022031832,None,,91.88543350000327,91.88543350000327,91.88543350000327,91.88543350000327,91.88543350000327,91.88543350000327,91.88543350000327,91.88543350000327,91.88543350000327,91.88543350000327,007,P005,2025_Jan_18_1622,ConditionRich,2021.2.3,59.93608415897307,
40.0,40.75,17,0.75,Stimuli/P005/sun_bwsictslfxygpqbp.jpg,0,0,0.0,0,73,73,73,,,,,,,,,,,,,40.001264000002266,0.001264000002265675,None,,92.1523483000019,92.1523483000019,92.1523483000019,92.1523483000019,92.1523483000019,92.1523483000019,92.1523483000019,92.1523483000019,92.1523483000019,92.1523483000019,007,P005,2025_Jan_18_1622,ConditionRich,2021.2.3,59.93608415897307,
40.75,41.0,41,0.0,Stimuli/Blank.png,0,0,0.0,0,74,74,74,,,,,,,,,,,,,40.769563100002415,0.019563100002415013,None,,92.91967629999999,92.91967629999999,92.91967629999999,92.91967629999999,92.91967629999999,92.91967629999999,92.91967629999999,92.91967629999999,92.91967629999999,92.91967629999999,007,P005,2025_Jan_18_1622,ConditionRich,2021.2.3,59.93608415897307,
41.0,41.75,17,0.75,Stimuli/P005/sun_bwsictslfxygpqbp.jpg,0,0,0.0,0,75,75,75,,,,,,,,,,,,,41.017344500000036,0.017344500000035623,None,,93.15320760000031,93.15320760000031,93.15320760000031,93.15320760000031,93.15320760000031,93.15320760000031,93.15320760000031,93.15320760000031,93.15320760000031,93.15320760000031,007,P005,2025_Jan_18_1622,ConditionRich,2021.2.3,59.93608415897307,
41.75,42.0,41,0.0,Stimuli/Blank.png,0,0,0.0,0,76,76,76,,,,,,,,,,,,,41.7514857999995,0.0014857999995001592,None,,93.88719140000103,93.88719140000103,93.88719140000103,93.88719140000103,93.88719140000103,93.88719140000103,93.88719140000103,93.88719140000103,93.88719140000103,93.88719140000103,007,P005,2025_Jan_18_1622,ConditionRich,2021.2.3,59.93608415897307,
42.0,42.75,17,0.75,Stimuli/P005/sun_bwsictslfxygpqbp.jpg,0,0,0.0,0,77,77,77,,,,,,,,,,,,,42.001724900001136,0.0017249000011361204,None,,94.1541062000033,94.1541062000033,94.1541062000033,94.1541062000033,94.1541062000033,94.1541062000033,94.1541062000033,94.1541062000033,94.1541062000033,94.1541062000033,007,P005,2025_Jan_18_1622,ConditionRich,2021.2.3,59.93608415897307,
42.75,43.0,41,0.0,Stimuli/Blank.png,0,0,0.0,0,78,78,78,,,,,,,,,,,,,42.76998350000213,0.019983500002126675,None,,94.90475580000202,94.90475580000202,94.90475580000202,94.90475580000202,94.90475580000202,94.90475580000202,94.90475580000202,94.90475580000202,94.90475580000202,94.90475580000202,007,P005,2025_Jan_18_1622,ConditionRich,2021.2.3,59.93608415897307,
43.0,43.75,17,0.75,Stimuli/P005/sun_bwsictslfxygpqbp.jpg,0,0,0.0,0,79,79,79,,,,,,,,,,,,,43.00474740000209,0.004747400002088398,None,,95.15499230000205,95.15499230000205,95.15499230000205,95.15499230000205,95.15499230000205,95.15499230000205,95.15499230000205,95.15499230000205,95.15499230000205,95.15499230000205,007,P005,2025_Jan_18_1622,ConditionRich,2021.2.3,59.93608415897307,
43.75,44.0,41,0.0,Stimuli/Blank.png,0,0,0.0,0,80,80,80,,,,,,,,,,,,,43.770428900003026,0.020428900003025774,None,,95.90563250000196,95.90563250000196,95.90563250000196,95.90563250000196,95.90563250000196,95.90563250000196,95.90563250000196,95.90563250000196,95.90563250000196,95.90563250000196,007,P005,2025_Jan_18_1622,ConditionRich,2021.2.3,59.93608415897307,
44.0,44.75,2,0.75,Stimuli/P005/sun_ahmycohdkioefoxs.jpg,0,0,0.0,0,81,81,81,,,,,,,,,,,,,44.0034693000016,0.0034693000015977304,None,,96.13917990000118,96.13917990000118,96.13917990000118,96.13917990000118,96.13917990000118,96.13917990000118,96.13917990000118,96.13917990000118,96.13917990000118,96.13917990000118,007,P005,2025_Jan_18_1622,ConditionRich,2021.2.3,59.93608415897307,
44.75,45.0,41,0.0,Stimuli/Blank.png,0,0,0.0,0,82,82,82,,,,,,,,,,,,,44.75448320000214,0.00448320000214153,None,,96.8898328000032,96.8898328000032,96.8898328000032,96.8898328000032,96.8898328000032,96.8898328000032,96.8898328000032,96.8898328000032,96.8898328000032,96.8898328000032,007,P005,2025_Jan_18_1622,ConditionRich,2021.2.3,59.93608415897307,
45.0,45.75,2,0.75,Stimuli/P005/sun_ahmycohdkioefoxs.jpg,0,0,0.0,0,83,83,83,,,,,,,,,,,,,45.005673900002876,0.005673900002875598,None,,97.15675260000353,97.15675260000353,97.15675260000353,97.15675260000353,97.15675260000353,97.15675260000353,97.15675260000353,97.15675260000353,97.15675260000353,97.15675260000353,007,P005,2025_Jan_18_1622,ConditionRich,2021.2.3,59.93608415897307,
45.75,46.0,41,0.0,Stimuli/Blank.png,0,0,0.0,0,84,84,84,,,,,,,,,,,,,45.77213910000137,0.022139100001368206,None,,97.90739940000276,97.90739940000276,97.90739940000276,97.90739940000276,97.90739940000276,97.90739940000276,97.90739940000276,97.90739940000276,97.90739940000276,97.90739940000276,007,P005,2025_Jan_18_1622,ConditionRich,2021.2.3,59.93608415897307,
46.0,46.75,2,0.75,Stimuli/P005/sun_ahmycohdkioefoxs.jpg,0,0,0.0,0,85,85,85,,,,,,,,,,,,,46.00562050000008,0.0056205000000773,None,,98.14094460000342,98.14094460000342,98.14094460000342,98.14094460000342,98.14094460000342,98.14094460000342,98.14094460000342,98.14094460000342,98.14094460000342,98.14094460000342,007,P005,2025_Jan_18_1622,ConditionRich,2021.2.3,59.93608415897307,
46.75,47.0,41,0.0,Stimuli/Blank.png,0,0,0.0,0,86,86,86,,,,,,,,,,,,,46.75655960000222,0.006559600002219668,None,,98.89159610000206,98.89159610000206,98.89159610000206,98.89159610000206,98.89159610000206,98.89159610000206,98.89159610000206,98.89159610000206,98.89159610000206,98.89159610000206,007,P005,2025_Jan_18_1622,ConditionRich,2021.2.3,59.93608415897307,
47.0,47.75,2,0.75,Stimuli/P005/sun_ahmycohdkioefoxs.jpg,0,0,0.0,0,87,87,87,,,,,,,,,,,,,47.00687150000158,0.006871500001579989,None,,99.15938460000325,99.15938460000325,99.15938460000325,99.15938460000325,99.15938460000325,99.15938460000325,99.15938460000325,99.15938460000325,99.15938460000325,99.15938460000325,007,P005,2025_Jan_18_1622,ConditionRich,2021.2.3,59.93608415897307,
47.75,48.0,41,0.0,Stimuli/Blank.png,0,0,0.0,0,88,88,88,,,,,,,,,,,,,47.77344330000051,0.023443300000508316,None,,99.90916490000018,99.90916490000018,99.90916490000018,99.90916490000018,99.90916490000018,99.90916490000018,99.90916490000018,99.90916490000018,99.90916490000018,99.90916490000018,007,P005,2025_Jan_18_1622,ConditionRich,2021.2.3,59.93608415897307,
48.0,48.75,35,0.75,Stimuli/P005/things_pig_03s.jpg,0,0,0.0,0,89,89,89,,,,,,,,,,,,,48.00762300000133,0.007623000001331093,None,,100.14269870000135,100.14269870000135,100.14269870000135,100.14269870000135,100.14269870000135,100.14269870000135,100.14269870000135,100.14269870000135,100.14269870000135,100.14269870000135,007,P005,2025_Jan_18_1622,ConditionRich,2021.2.3,59.93608415897307,
48.75,49.0,41,0.0,Stimuli/Blank.png,0,0,0.0,0,90,90,90,,,,,,,,,,,,,48.75963970000157,0.009639700001571327,None,,100.91005620000215,100.91005620000215,100.91005620000215,100.91005620000215,100.91005620000215,100.91005620000215,100.91005620000215,100.91005620000215,100.91005620000215,100.91005620000215,007,P005,2025_Jan_18_1622,ConditionRich,2021.2.3,59.93608415897307,
49.0,49.75,35,0.75,Stimuli/P005/things_pig_03s.jpg,0,0,0.0,0,91,91,91,,,,,,,,,,,,,49.025526600002195,0.025526600002194755,None,,101.17697300000145,101.17697300000145,101.17697300000145,101.17697300000145,101.17697300000145,101.17697300000145,101.17697300000145,101.17697300000145,101.17697300000145,101.17697300000145,007,P005,2025_Jan_18_1622,ConditionRich,2021.2.3,59.93608415897307,
49.75,50.0,41,0.0,Stimuli/Blank.png,0,0,0.0,0,92,92,92,,,,,,,,,,,,,49.77508940000189,0.025089400001888862,None,,101.91091090000191,101.91091090000191,101.91091090000191,101.91091090000191,101.91091090000191,101.91091090000191,101.91091090000191,101.91091090000191,101.91091090000191,101.91091090000191,007,P005,2025_Jan_18_1622,ConditionRich,2021.2.3,59.93608415897307,
50.0,50.75,35,0.75,Stimuli/P005/things_pig_03s.jpg,0,0,0.0,0,93,93,93,,,,,,,,,,,,,50.009379800001625,0.009379800001624972,None,,102.14445909999995,102.14445909999995,102.14445909999995,102.14445909999995,102.14445909999995,102.14445909999995,102.14445909999995,102.14445909999995,102.14445909999995,102.14445909999995,007,P005,2025_Jan_18_1622,ConditionRich,2021.2.3,59.93608415897307,
50.75,51.0,41,0.0,Stimuli/Blank.png,0,0,0.0,0,94,94,94,,,,,,,,,,,,,50.76003040000069,0.010030400000687223,None,,102.8951251000035,102.8951251000035,102.8951251000035,102.8951251000035,102.8951251000035,102.8951251000035,102.8951251000035,102.8951251000035,102.8951251000035,102.8951251000035,007,P005,2025_Jan_18_1622,ConditionRich,2021.2.3,59.93608415897307,
51.0,51.75,35,0.75,Stimuli/P005/things_pig_03s.jpg,0,0,0.0,0,95,95,95,,,,,,,,,,,,,51.010353900001064,0.010353900001064176,None,,103.16203730000052,103.16203730000052,103.16203730000052,103.16203730000052,103.16203730000052,103.16203730000052,103.16203730000052,103.16203730000052,103.16203730000052,103.16203730000052,007,P005,2025_Jan_18_1622,ConditionRich,2021.2.3,59.93608415897307,
51.75,52.0,41,0.0,Stimuli/Blank.png,0,0,0.0,0,96,96,96,,,,,,,,,,,,,51.77969909999956,0.02969909999956144,5,0.18800310000005993,103.92937620000157,103.92937620000157,103.92937620000157,103.92937620000157,103.92937620000157,103.92937620000157,103.92937620000157,103.92937620000157,103.92937620000157,103.92937620000157,007,P005,2025_Jan_18_1622,ConditionRich,2021.2.3,59.93608415897307,
52.0,52.75,23,0.75,Stimuli/P005/things_beetle_03s.jpg,0,0,0.0,0,97,97,97,,,,,,,,,,,,,52.02780950000306,0.02780950000305893,None,,104.16293150000274,104.16293150000274,104.16293150000274,104.16293150000274,104.16293150000274,104.16293150000274,104.16293150000274,104.16293150000274,104.16293150000274,104.16293150000274,007,P005,2025_Jan_18_1622,ConditionRich,2021.2.3,59.93608415897307,
52.75,53.0,41,0.0,Stimuli/Blank.png,0,0,0.0,0,98,98,98,,,,,,,,,,,,,52.76121930000227,0.011219300002267119,None,,104.89687590000176,104.89687590000176,104.89687590000176,104.89687590000176,104.89687590000176,104.89687590000176,104.89687590000176,104.89687590000176,104.89687590000176,104.89687590000176,007,P005,2025_Jan_18_1622,ConditionRich,2021.2.3,59.93608415897307,
53.0,53.75,23,0.75,Stimuli/P005/things_beetle_03s.jpg,0,0,0.0,0,99,99,99,,,,,,,,,,,,,53.0117659000025,0.01176590000250144,None,,105.16380160000335,105.16380160000335,105.16380160000335,105.16380160000335,105.16380160000335,105.16380160000335,105.16380160000335,105.16380160000335,105.16380160000335,105.16380160000335,007,P005,2025_Jan_18_1622,ConditionRich,2021.2.3,59.93608415897307,
53.75,54.0,41,0.0,Stimuli/Blank.png,0,0,0.0,0,100,100,100,,,,,,,,,,,,,53.779217499999504,0.02921749999950407,None,,105.91444500000216,105.91444500000216,105.91444500000216,105.91444500000216,105.91444500000216,105.91444500000216,105.91444500000216,105.91444500000216,105.91444500000216,105.91444500000216,007,P005,2025_Jan_18_1622,ConditionRich,2021.2.3,59.93608415897307,
54.0,54.75,23,0.75,Stimuli/P005/things_beetle_03s.jpg,0,0,0.0,0,101,101,101,,,,,,,,,,,,,54.01247330000115,0.012473300001147436,None,,106.14798830000291,106.14798830000291,106.14798830000291,106.14798830000291,106.14798830000291,106.14798830000291,106.14798830000291,106.14798830000291,106.14798830000291,106.14798830000291,007,P005,2025_Jan_18_1622,ConditionRich,2021.2.3,59.93608415897307,
54.75,55.0,41,0.0,Stimuli/Blank.png,0,0,0.0,0,102,102,102,,,,,,,,,,,,,54.76569980000204,0.01569980000203941,None,,106.89864670000316,106.89864670000316,106.89864670000316,106.89864670000316,106.89864670000316,106.89864670000316,106.89864670000316,106.89864670000316,106.89864670000316,106.89864670000316,007,P005,2025_Jan_18_1622,ConditionRich,2021.2.3,59.93608415897307,
55.0,55.75,23,0.75,Stimuli/P005/things_beetle_03s.jpg,0,0,0.0,0,103,103,103,,,,,,,,,,,,,54.99707870000202,-0.0029212999979790766,None,,107.14887030000318,107.14887030000318,107.14887030000318,107.14887030000318,107.14887030000318,107.14887030000318,107.14887030000318,107.14887030000318,107.14887030000318,107.14887030000318,007,P005,2025_Jan_18_1622,ConditionRich,2021.2.3,59.93608415897307,
55.75,56.0,41,0.0,Stimuli/Blank.png,0,0,0.0,0,104,104,104,,,,,,,,,,,,,55.781282400002965,0.031282400002965005,5,0.20118820000061532,107.91631400000188,107.91631400000188,107.91631400000188,107.91631400000188,107.91631400000188,107.91631400000188,107.91631400000188,107.91631400000188,107.91631400000188,107.91631400000188,007,P005,2025_Jan_18_1622,ConditionRich,2021.2.3,59.93608415897307,
56.0,56.75,31,0.75,Stimuli/P005/things_jukebox_03n.jpg,0,0,0.0,0,105,105,105,,,,,,,,,,,,,56.014626000000135,0.014626000000134809,None,,108.14973790000295,108.14973790000295,108.14973790000295,108.14973790000295,108.14973790000295,108.14973790000295,108.14973790000295,108.14973790000295,108.14973790000295,108.14973790000295,007,P005,2025_Jan_18_1622,ConditionRich,2021.2.3,59.93608415897307,
56.75,57.0,41,0.0,Stimuli/Blank.png,0,0,0.0,0,106,106,106,,,,,,,,,,,,,56.76495700000305,0.01495700000305078,None,,108.90040300000328,108.90040300000328,108.90040300000328,108.90040300000328,108.90040300000328,108.90040300000328,108.90040300000328,108.90040300000328,108.90040300000328,108.90040300000328,007,P005,2025_Jan_18_1622,ConditionRich,2021.2.3,59.93608415897307,
57.0,57.75,31,0.75,Stimuli/P005/things_jukebox_03n.jpg,0,0,0.0,0,107,107,107,,,,,,,,,,,,,57.01616990000184,0.016169900001841597,None,,109.16730040000039,109.16730040000039,109.16730040000039,109.16730040000039,109.16730040000039,109.16730040000039,109.16730040000039,109.16730040000039,109.16730040000039,109.16730040000039,007,P005,2025_Jan_18_1622,ConditionRich,2021.2.3,59.93608415897307,
57.75,58.0,41,0.0,Stimuli/Blank.png,0,0,0.0,0,108,108,108,,,,,,,,,,,,,57.765750300000946,0.015750300000945572,None,,109.90129380000144,109.90129380000144,109.90129380000144,109.90129380000144,109.90129380000144,109.90129380000144,109.90129380000144,109.90129380000144,109.90129380000144,109.90129380000144,007,P005,2025_Jan_18_1622,ConditionRich,2021.2.3,59.93608415897307,
58.0,58.75,31,0.75,Stimuli/P005/things_jukebox_03n.jpg,0,0,0.0,0,109,109,109,,,,,,,,,,,,,57.99961919999987,-0.00038080000012996607,None,,110.1520636000023,110.1520636000023,110.1520636000023,110.1520636000023,110.1520636000023,110.1520636000023,110.1520636000023,110.1520636000023,110.1520636000023,110.1520636000023,007,P005,2025_Jan_18_1622,ConditionRich,2021.2.3,59.93608415897307,
58.75,59.0,41,0.0,Stimuli/Blank.png,0,0,0.0,0,110,110,110,,,,,,,,,,,,,58.76711090000026,0.01711090000026161,None,,110.90216710000095,110.90216710000095,110.90216710000095,110.90216710000095,110.90216710000095,110.90216710000095,110.90216710000095,110.90216710000095,110.90216710000095,110.90216710000095,007,P005,2025_Jan_18_1622,ConditionRich,2021.2.3,59.93608415897307,
59.0,59.75,31,0.75,Stimuli/P005/things_jukebox_03n.jpg,1,0,0.75,0,111,111,111,,,,,,,,,,,,,59.00060470000244,0.0006047000024409499,4,0.5069672999998147,111.15240760000233,111.15240760000233,111.15240760000233,111.15240760000233,111.15240760000233,111.15240760000233,111.15240760000233,111.86968660000275,111.15240760000233,111.15240760000233,007,P005,2025_Jan_18_1622,ConditionRich,2021.2.3,59.93608415897307,
59.75,60.0,41,0.0,Stimuli/Blank.png,0,0,0.0,0,112,112,112,,,,,,,,,,,,,59.76992770000288,0.019927700002881465,5,0.19759770000018761,111.91973500000313,111.91973500000313,111.91973500000313,111.91973500000313,111.91973500000313,111.91973500000313,111.91973500000313,111.91973500000313,111.91973500000313,111.91973500000313,007,P005,2025_Jan_18_1622,ConditionRich,2021.2.3,59.93608415897307,
60.0,60.75,7,0.75,Stimuli/P005/sun_bdmdlkpsznknrcqi.jpg,0,0,0.0,0,113,113,113,,,,,,,,,,,,,60.0212586000016,0.021258600001601735,None,,112.16995990000214,112.16995990000214,112.16995990000214,112.16995990000214,112.16995990000214,112.16995990000214,112.16995990000214,112.16995990000214,112.16995990000214,112.16995990000214,007,P005,2025_Jan_18_1622,ConditionRich,2021.2.3,59.93608415897307,
60.75,61.0,41,0.0,Stimuli/Blank.png,0,0,0.0,0,114,114,114,,,,,,,,,,,,,60.77006230000188,0.02006230000188225,None,,112.92062740000256,112.92062740000256,112.92062740000256,112.92062740000256,112.92062740000256,112.92062740000256,112.92062740000256,112.92062740000256,112.92062740000256,112.92062740000256,007,P005,2025_Jan_18_1622,ConditionRich,2021.2.3,59.93608415897307,
61.0,61.75,7,0.75,Stimuli/P005/sun_bdmdlkpsznknrcqi.jpg,0,0,0.0,0,115,115,115,,,,,,,,,,,,,61.01901709999947,0.01901709999947343,None,,113.1708486000025,113.1708486000025,113.1708486000025,113.1708486000025,113.1708486000025,113.1708486000025,113.1708486000025,113.1708486000025,113.1708486000025,113.1708486000025,007,P005,2025_Jan_18_1622,ConditionRich,2021.2.3,59.93608415897307,
61.75,62.0,41,0.0,Stimuli/Blank.png,0,0,0.0,0,116,116,116,,,,,,,,,,,,,61.77000830000179,0.020008300001791213,None,,113.9048154000011,113.9048154000011,113.9048154000011,113.9048154000011,113.9048154000011,113.9048154000011,113.9048154000011,113.9048154000011,113.9048154000011,113.9048154000011,007,P005,2025_Jan_18_1622,ConditionRich,2021.2.3,59.93608415897307,
62.0,62.75,7,0.75,Stimuli/P005/sun_bdmdlkpsznknrcqi.jpg,1,0,0.75,0,117,117,117,,,,,,,,,,,,,62.004848700002185,0.004848700002185069,4,0.42155900000216207,114.15506170000299,114.15506170000299,114.15506170000299,114.15506170000299,114.15506170000299,114.15506170000299,114.15506170000299,114.8890315000026,114.15506170000299,114.15506170000299,007,P005,2025_Jan_18_1622,ConditionRich,2021.2.3,59.93608415897307,
62.75,63.0,41,0.0,Stimuli/Blank.png,0,0,0.0,0,118,118,118,,,,,,,,,,,,,62.77127880000262,0.02127880000261939,None,,114.92239170000175,114.92239170000175,114.92239170000175,114.92239170000175,114.92239170000175,114.92239170000175,114.92239170000175,114.92239170000175,114.92239170000175,114.92239170000175,007,P005,2025_Jan_18_1622,ConditionRich,2021.2.3,59.93608415897307,
63.0,63.75,7,0.75,Stimuli/P005/sun_bdmdlkpsznknrcqi.jpg,0,0,0.0,0,119,119,119,,,,,,,,,,,,,63.020021300002554,0.0200213000025542,None,,115.15659140000207,115.15659140000207,115.15659140000207,115.15659140000207,115.15659140000207,115.15659140000207,115.15659140000207,115.15659140000207,115.15659140000207,115.15659140000207,007,P005,2025_Jan_18_1622,ConditionRich,2021.2.3,59.93608415897307,
63.75,64.0,41,0.0,Stimuli/Blank.png,0,0,0.0,0,120,120,120,,,,,,,,,,,,,63.75557740000295,0.005577400002948707,None,,115.88990150000245,115.88990150000245,115.88990150000245,115.88990150000245,115.88990150000245,115.88990150000245,115.88990150000245,115.88990150000245,115.88990150000245,115.88990150000245,007,P005,2025_Jan_18_1622,ConditionRich,2021.2.3,59.93608415897307,
64.0,64.75,33,0.75,Stimuli/P005/things_man_03s.jpg,0,0,0.0,0,121,121,121,,,,,,,,,,,,,64.00536240000292,0.005362400002923096,None,,116.15679790000286,116.15679790000286,116.15679790000286,116.15679790000286,116.15679790000286,116.15679790000286,116.15679790000286,116.15679790000286,116.15679790000286,116.15679790000286,007,P005,2025_Jan_18_1622,ConditionRich,2021.2.3,59.93608415897307,
64.75,65.0,41,0.0,Stimuli/Blank.png,0,0,0.0,0,122,122,122,,,,,,,,,,,,,64.77236990000165,0.022369900001649512,None,,116.9074627000009,116.9074627000009,116.9074627000009,116.9074627000009,116.9074627000009,116.9074627000009,116.9074627000009,116.9074627000009,116.9074627000009,116.9074627000009,007,P005,2025_Jan_18_1622,ConditionRich,2021.2.3,59.93608415897307,
65.0,65.75,33,0.75,Stimuli/P005/things_man_03s.jpg,0,0,0.0,0,123,123,123,,,,,,,,,,,,,65.00509720000264,0.005097200002637692,None,,117.14099050000004,117.14099050000004,117.14099050000004,117.14099050000004,117.14099050000004,117.14099050000004,117.14099050000004,117.14099050000004,117.14099050000004,117.14099050000004,007,P005,2025_Jan_18_1622,ConditionRich,2021.2.3,59.93608415897307,
65.75,66.0,41,0.0,Stimuli/Blank.png,0,0,0.0,0,124,124,124,,,,,,,,,,,,,65.75626850000117,0.006268500001169741,None,,117.8916498000035,117.8916498000035,117.8916498000035,117.8916498000035,117.8916498000035,117.8916498000035,117.8916498000035,117.8916498000035,117.8916498000035,117.8916498000035,007,P005,2025_Jan_18_1622,ConditionRich,2021.2.3,59.93608415897307,
66.0,66.75,33,0.75,Stimuli/P005/things_man_03s.jpg,0,0,0.0,0,125,125,125,,,,,,,,,,,,,66.00652260000061,0.006522600000607781,None,,118.14187110000057,118.14187110000057,118.14187110000057,118.14187110000057,118.14187110000057,118.14187110000057,118.14187110000057,118.14187110000057,118.14187110000057,118.14187110000057,007,P005,2025_Jan_18_1622,ConditionRich,2021.2.3,59.93608415897307,
66.75,67.0,41,0.0,Stimuli/Blank.png,0,0,0.0,0,126,126,126,,,,,,,,,,,,,66.75794750000205,0.007947500002046581,None,,118.89254090000031,118.89254090000031,118.89254090000031,118.89254090000031,118.89254090000031,118.89254090000031,118.89254090000031,118.89254090000031,118.89254090000031,118.89254090000031,007,P005,2025_Jan_18_1622,ConditionRich,2021.2.3,59.93608415897307,
67.0,67.75,33,0.75,Stimuli/P005/things_man_03s.jpg,0,0,0.0,0,127,127,127,,,,,,,,,,,,,67.00968160000048,0.009681600000476465,None,,119.15943900000275,119.15943900000275,119.15943900000275,119.15943900000275,119.15943900000275,119.15943900000275,119.15943900000275,119.15943900000275,119.15943900000275,119.15943900000275,007,P005,2025_Jan_18_1622,ConditionRich,2021.2.3,59.93608415897307,
67.75,68.0,41,0.0,Stimuli/Blank.png,0,0,0.0,0,128,128,128,,,,,,,,,,,,,67.77517760000046,0.025177600000461098,None,,119.91009970000232,119.91009970000232,119.91009970000232,119.91009970000232,119.91009970000232,119.91009970000232,119.91009970000232,119.91009970000232,119.91009970000232,119.91009970000232,007,P005,2025_Jan_18_1622,ConditionRich,2021.2.3,59.93608415897307,
68.0,68.75,24,0.75,Stimuli/P005/things_crab_03s.jpg,0,0,0.0,0,129,129,129,,,,,,,,,,,,,68.00894870000047,0.008948700000473764,None,,120.14363260000027,120.14363260000027,120.14363260000027,120.14363260000027,120.14363260000027,120.14363260000027,120.14363260000027,120.14363260000027,120.14363260000027,120.14363260000027,007,P005,2025_Jan_18_1622,ConditionRich,2021.2.3,59.93608415897307,
68.75,69.0,41,0.0,Stimuli/Blank.png,0,0,0.0,0,130,130,130,,,,,,,,,,,,,68.75945599999977,0.009455999999772757,None,,120.89430320000247,120.89430320000247,120.89430320000247,120.89430320000247,120.89430320000247,120.89430320000247,120.89430320000247,120.89430320000247,120.89430320000247,120.89430320000247,007,P005,2025_Jan_18_1622,ConditionRich,2021.2.3,59.93608415897307,
69.0,69.75,24,0.75,Stimuli/P005/things_crab_03s.jpg,0,0,0.0,0,131,131,131,,,,,,,,,,,,,69.0092321000011,0.009232100001099752,None,,121.14451499999996,121.14451499999996,121.14451499999996,121.14451499999996,121.14451499999996,121.14451499999996,121.14451499999996,121.14451499999996,121.14451499999996,121.14451499999996,007,P005,2025_Jan_18_1622,ConditionRich,2021.2.3,59.93608415897307,
69.75,70.0,41,0.0,Stimuli/Blank.png,0,0,0.0,0,132,132,132,,,,,,,,,,,,,69.75922450000144,0.009224500001437264,None,,121.89517120000164,121.89517120000164,121.89517120000164,121.89517120000164,121.89517120000164,121.89517120000164,121.89517120000164,121.89517120000164,121.89517120000164,121.89517120000164,007,P005,2025_Jan_18_1622,ConditionRich,2021.2.3,59.93608415897307,
70.0,70.75,24,0.75,Stimuli/P005/things_crab_03s.jpg,0,0,0.0,0,133,133,133,,,,,,,,,,,,,70.00944180000079,0.009441800000786316,None,,122.14539480000167,122.14539480000167,122.14539480000167,122.14539480000167,122.14539480000167,122.14539480000167,122.14539480000167,122.14539480000167,122.14539480000167,122.14539480000167,007,P005,2025_Jan_18_1622,ConditionRich,2021.2.3,59.93608415897307,
70.75,71.0,41,0.0,Stimuli/Blank.png,0,0,0.0,0,134,134,134,,,,,,,,,,,,,70.76061710000067,0.010617100000672508,None,,122.89605530000335,122.89605530000335,122.89605530000335,122.89605530000335,122.89605530000335,122.89605530000335,122.89605530000335,122.89605530000335,122.89605530000335,122.89605530000335,007,P005,2025_Jan_18_1622,ConditionRich,2021.2.3,59.93608415897307,
71.0,71.75,24,0.75,Stimuli/P005/things_crab_03s.jpg,0,0,0.0,0,135,135,135,,,,,,,,,,,,,71.01098140000249,0.010981400002492592,None,,123.14628090000042,123.14628090000042,123.14628090000042,123.14628090000042,123.14628090000042,123.14628090000042,123.14628090000042,123.14628090000042,123.14628090000042,123.14628090000042,007,P005,2025_Jan_18_1622,ConditionRich,2021.2.3,59.93608415897307,
71.75,72.0,41,0.0,Stimuli/Blank.png,0,0,0.0,0,136,136,136,,,,,,,,,,,,,71.76198850000219,0.01198850000218954,None,,123.89691920000041,123.89691920000041,123.89691920000041,123.89691920000041,123.89691920000041,123.89691920000041,123.89691920000041,123.89691920000041,123.89691920000041,123.89691920000041,007,P005,2025_Jan_18_1622,ConditionRich,2021.2.3,59.93608415897307,
72.0,72.75,16,0.75,Stimuli/P005/sun_bwentnobehmvaxkp.jpg,0,0,0.0,0,137,137,137,,,,,,,,,,,,,72.0111461000015,0.011146100001496961,None,,124.16385220000302,124.16385220000302,124.16385220000302,124.16385220000302,124.16385220000302,124.16385220000302,124.16385220000302,124.16385220000302,124.16385220000302,124.16385220000302,007,P005,2025_Jan_18_1622,ConditionRich,2021.2.3,59.93608415897307,
72.75,73.0,41,0.0,Stimuli/Blank.png,0,0,0.0,0,138,138,138,,,,,,,,,,,,,72.77997900000264,0.029979000002640532,None,,124.9145187000031,124.9145187000031,124.9145187000031,124.9145187000031,124.9145187000031,124.9145187000031,124.9145187000031,124.9145187000031,124.9145187000031,124.9145187000031,007,P005,2025_Jan_18_1622,ConditionRich,2021.2.3,59.93608415897307,
73.0,73.75,16,0.75,Stimuli/P005/sun_bwentnobehmvaxkp.jpg,0,0,0.0,0,139,139,139,,,,,,,,,,,,,73.01486840000143,0.014868400001432747,None,,125.16472090000025,125.16472090000025,125.16472090000025,125.16472090000025,125.16472090000025,125.16472090000025,125.16472090000025,125.16472090000025,125.16472090000025,125.16472090000025,007,P005,2025_Jan_18_1622,ConditionRich,2021.2.3,59.93608415897307,
73.75,74.0,41,0.0,Stimuli/Blank.png,0,0,0.0,0,140,140,140,,,,,,,,,,,,,73.76412080000227,0.014120800002274336,None,,125.8994515000013,125.8994515000013,125.8994515000013,125.8994515000013,125.8994515000013,125.8994515000013,125.8994515000013,125.8994515000013,125.8994515000013,125.8994515000013,007,P005,2025_Jan_18_1622,ConditionRich,2021.2.3,59.93608415897307,
74.0,74.75,16,0.75,Stimuli/P005/sun_bwentnobehmvaxkp.jpg,0,0,0.0,0,141,141,141,,,,,,,,,,,,,74.01384880000114,0.013848800001142081,None,,126.14894330000243,126.14894330000243,126.14894330000243,126.14894330000243,126.14894330000243,126.14894330000243,126.14894330000243,126.14894330000243,126.14894330000243,126.14894330000243,007,P005,2025_Jan_18_1622,ConditionRich,2021.2.3,59.93608415897307,
74.75,75.0,41,0.0,Stimuli/Blank.png,0,0,0.0,0,142,142,142,,,,,,,,,,,,,74.76446080000096,0.014460800000961171,None,,126.89959090000048,126.89959090000048,126.89959090000048,126.89959090000048,126.89959090000048,126.89959090000048,126.89959090000048,126.89959090000048,126.89959090000048,126.89959090000048,007,P005,2025_Jan_18_1622,ConditionRich,2021.2.3,59.93608415897307,
75.0,75.75,16,0.75,Stimuli/P005/sun_bwentnobehmvaxkp.jpg,0,0,0.0,0,143,143,143,,,,,,,,,,,,,75.0142298000028,0.014229800002794946,None,,127.1497984000016,127.1497984000016,127.1497984000016,127.1497984000016,127.1497984000016,127.1497984000016,127.1497984000016,127.1497984000016,127.1497984000016,127.1497984000016,007,P005,2025_Jan_18_1622,ConditionRich,2021.2.3,59.93608415897307,
75.75,76.0,41,0.0,Stimuli/Blank.png,0,0,0.0,0,144,144,144,,,,,,,,,,,,,75.7652076000013,0.015207600001303945,5,0.21717139999964274,127.9004593000027,127.9004593000027,127.9004593000027,127.9004593000027,127.9004593000027,127.9004593000027,127.9004593000027,127.9004593000027,127.9004593000027,127.9004593000027,007,P005,2025_Jan_18_1622,ConditionRich,2021.2.3,59.93608415897307,
76.0,76.75,21,0.75,Stimuli/P005/things_accordion_03s.jpg,0,0,0.0,0,145,145,145,,,,,,,,,,,,,76.01548660000117,0.015486600001167972,None,,128.1506874000006,128.1506874000006,128.1506874000006,128.1506874000006,128.1506874000006,128.1506874000006,128.1506874000006,128.1506874000006,128.1506874000006,128.1506874000006,007,P005,2025_Jan_18_1622,ConditionRich,2021.2.3,59.93608415897307,
76.75,77.0,41,0.0,Stimuli/Blank.png,0,0,0.0,0,146,146,146,,,,,,,,,,,,,76.74958420000257,-0.0004157999974268023,None,,128.8846631000015,128.8846631000015,128.8846631000015,128.8846631000015,128.8846631000015,128.8846631000015,128.8846631000015,128.8846631000015,128.8846631000015,128.8846631000015,007,P005,2025_Jan_18_1622,ConditionRich,2021.2.3,59.93608415897307,
77.0,77.75,21,0.75,Stimuli/P005/things_accordion_03s.jpg,0,0,0.0,0,147,147,147,,,,,,,,,,,,,77.00047260000065,0.0004726000006485265,None,,129.15156200000274,129.15156200000274,129.15156200000274,129.15156200000274,129.15156200000274,129.15156200000274,129.15156200000274,129.15156200000274,129.15156200000274,129.15156200000274,007,P005,2025_Jan_18_1622,ConditionRich,2021.2.3,59.93608415897307,
77.75,78.0,41,0.0,Stimuli/Blank.png,0,0,0.0,0,148,148,148,,,,,,,,,,,,,77.76717380000264,0.017173800002638018,None,,129.90223210000113,129.90223210000113,129.90223210000113,129.90223210000113,129.90223210000113,129.90223210000113,129.90223210000113,129.90223210000113,129.90223210000113,129.90223210000113,007,P005,2025_Jan_18_1622,ConditionRich,2021.2.3,59.93608415897307,
78.0,78.75,21,0.75,Stimuli/P005/things_accordion_03s.jpg,1,0,0.75,0,149,149,149,,,,,,,,,,,,,78.00001379999958,1.3799999578623101e-05,4,0.5776235000012093,130.13575710000077,130.13575710000077,130.13575710000077,130.13575710000077,130.13575710000077,130.13575710000077,130.13575710000077,130.86973450000005,130.13575710000077,130.13575710000077,007,P005,2025_Jan_18_1622,ConditionRich,2021.2.3,59.93608415897307,
78.75,79.0,41,0.0,Stimuli/Blank.png,0,0,0.0,0,150,150,150,,,,,,,,,,,,,78.75088080000205,0.0008808000020508189,None,,130.88641960000314,130.88641960000314,130.88641960000314,130.88641960000314,130.88641960000314,130.88641960000314,130.88641960000314,130.88641960000314,130.88641960000314,130.88641960000314,007,P005,2025_Jan_18_1622,ConditionRich,2021.2.3,59.93608415897307,
79.0,79.75,21,0.75,Stimuli/P005/things_accordion_03s.jpg,0,0,0.0,0,151,151,151,,,,,,,,,,,,,79.0012029999998,0.001202999999804888,None,,131.13665200000105,131.13665200000105,131.13665200000105,131.13665200000105,131.13665200000105,131.13665200000105,131.13665200000105,131.13665200000105,131.13665200000105,131.13665200000105,007,P005,2025_Jan_18_1622,ConditionRich,2021.2.3,59.93608415897307,
79.75,80.0,41,0.0,Stimuli/Blank.png,0,0,0.0,0,152,152,152,,,,,,,,,,,,,79.75215400000161,0.0021540000016102567,None,,131.88731220000045,131.88731220000045,131.88731220000045,131.88731220000045,131.88731220000045,131.88731220000045,131.88731220000045,131.88731220000045,131.88731220000045,131.88731220000045,007,P005,2025_Jan_18_1622,ConditionRich,2021.2.3,59.93608415897307,
80.0,80.75,30,0.75,Stimuli/P005/things_hood_03s.jpg,0,0,0.0,0,153,153,153,,,,,,,,,,,,,80.00451840000096,0.004518400000961265,None,,132.15422450000187,132.15422450000187,132.15422450000187,132.15422450000187,132.15422450000187,132.15422450000187,132.15422450000187,132.15422450000187,132.15422450000187,132.15422450000187,007,P005,2025_Jan_18_1622,ConditionRich,2021.2.3,59.93608415897307,
80.75,81.0,41,0.0,Stimuli/Blank.png,0,0,0.0,0,154,154,154,,,,,,,,,,,,,80.76934260000053,0.019342600000527455,None,,132.90486560000136,132.90486560000136,132.90486560000136,132.90486560000136,132.90486560000136,132.90486560000136,132.90486560000136,132.90486560000136,132.90486560000136,132.90486560000136,007,P005,2025_Jan_18_1622,ConditionRich,2021.2.3,59.93608415897307,
81.0,81.75,30,0.75,Stimuli/P005/things_hood_03s.jpg,0,0,0.0,0,155,155,155,,,,,,,,,,,,,81.00560050000058,0.005600500000582542,None,,133.15508910000062,133.15508910000062,133.15508910000062,133.15508910000062,133.15508910000062,133.15508910000062,133.15508910000062,133.15508910000062,133.15508910000062,133.15508910000062,007,P005,2025_Jan_18_1622,ConditionRich,2021.2.3,59.93608415897307,
81.75,82.0,41,0.0,Stimuli/Blank.png,0,0,0.0,0,156,156,156,,,,,,,,,,,,,81.77067840000018,0.020678400000178954,None,,133.9057494000008,133.9057494000008,133.9057494000008,133.9057494000008,133.9057494000008,133.9057494000008,133.9057494000008,133.9057494000008,133.9057494000008,133.9057494000008,007,P005,2025_Jan_18_1622,ConditionRich,2021.2.3,59.93608415897307,
82.0,82.75,30,0.75,Stimuli/P005/things_hood_03s.jpg,0,0,0.0,0,157,157,157,,,,,,,,,,,,,82.00394900000174,0.003949000001739478,None,,134.13928170000145,134.13928170000145,134.13928170000145,134.13928170000145,134.13928170000145,134.13928170000145,134.13928170000145,134.13928170000145,134.13928170000145,134.13928170000145,007,P005,2025_Jan_18_1622,ConditionRich,2021.2.3,59.93608415897307,
82.75,83.0,41,0.0,Stimuli/Blank.png,0,0,0.0,0,158,158,158,,,,,,,,,,,,,82.75497639999958,0.004976399999577552,None,,134.88995280000017,134.88995280000017,134.88995280000017,134.88995280000017,134.88995280000017,134.88995280000017,134.88995280000017,134.88995280000017,134.88995280000017,134.88995280000017,007,P005,2025_Jan_18_1622,ConditionRich,2021.2.3,59.93608415897307,
83.0,83.75,30,0.75,Stimuli/P005/things_hood_03s.jpg,0,0,0.0,0,159,159,159,,,,,,,,,,,,,83.00554540000303,0.005545400003029499,None,,135.15686960000312,135.15686960000312,135.15686960000312,135.15686960000312,135.15686960000312,135.15686960000312,135.15686960000312,135.15686960000312,135.15686960000312,135.15686960000312,007,P005,2025_Jan_18_1622,ConditionRich,2021.2.3,59.93608415897307,
83.75,84.0,41,0.0,Stimuli/Blank.png,0,0,0.0,0,160,160,160,,,,,,,,,,,,,83.77192790000117,0.02192790000117384,None,,135.9075100000009,135.9075100000009,135.9075100000009,135.9075100000009,135.9075100000009,135.9075100000009,135.9075100000009,135.9075100000009,135.9075100000009,135.9075100000009,007,P005,2025_Jan_18_1622,ConditionRich,2021.2.3,59.93608415897307,
84.0,100.0,0,0.0,Stimuli/Blank.png,1,3,3.75,0,161,161,161,,,,,,,,,,,,,84.00543649999963,0.00543649999963236,5,13.97724179999932,136.14100900000267,136.14100900000267,136.14100900000267,136.14100900000267,136.14100900000267,136.14100900000267,139.12707250000312,139.87766610000108,136.14100900000267,136.14100900000267,007,P005,2025_Jan_18_1622,ConditionRich,2021.2.3,59.93608415897307,
100.0,100.75,28,0.75,Stimuli/P005/things_girl_03s.jpg,0,0,0.0,0,162,162,162,,,,,,,,,,,,,100.00556280000092,0.005562800000916468,None,,152.1551380000019,152.1551380000019,152.1551380000019,152.1551380000019,152.1551380000019,152.1551380000019,152.1551380000019,152.1551380000019,152.1551380000019,152.1551380000019,007,P005,2025_Jan_18_1622,ConditionRich,2021.2.3,59.93608415897307,
100.75,101.0,41,0.0,Stimuli/Blank.png,0,0,0.0,0,163,163,163,,,,,,,,,,,,,100.77061719999983,0.020617199999833247,None,,152.90579920000164,152.90579920000164,152.90579920000164,152.90579920000164,152.90579920000164,152.90579920000164,152.90579920000164,152.90579920000164,152.90579920000164,152.90579920000164,007,P005,2025_Jan_18_1622,ConditionRich,2021.2.3,59.93608415897307,
101.0,101.75,28,0.75,Stimuli/P005/things_girl_03s.jpg,1,0,0.75,0,164,164,164,,,,,,,,,,,,,101.00486400000227,0.004864000002271496,4,0.47617819999868516,153.1560425000025,153.1560425000025,153.1560425000025,153.1560425000025,153.1560425000025,153.1560425000025,153.1560425000025,153.87335160000293,153.1560425000025,153.1560425000025,007,P005,2025_Jan_18_1622,ConditionRich,2021.2.3,59.93608415897307,
101.75,102.0,41,0.0,Stimuli/Blank.png,0,0,0.0,0,165,165,165,,,,,,,,,,,,,101.77140320000035,0.021403200000349898,None,,153.90670180000234,153.90670180000234,153.90670180000234,153.90670180000234,153.90670180000234,153.90670180000234,153.90670180000234,153.90670180000234,153.90670180000234,153.90670180000234,007,P005,2025_Jan_18_1622,ConditionRich,2021.2.3,59.93608415897307,
102.0,102.75,28,0.75,Stimuli/P005/things_girl_03s.jpg,0,0,0.0,0,166,166,166,,,,,,,,,,,,,102.00521120000121,0.005211200001213001,None,,154.15690600000016,154.15690600000016,154.15690600000016,154.15690600000016,154.15690600000016,154.15690600000016,154.15690600000016,154.15690600000016,154.15690600000016,154.15690600000016,007,P005,2025_Jan_18_1622,ConditionRich,2021.2.3,59.93608415897307,
102.75,103.0,41,0.0,Stimuli/Blank.png,0,0,0.0,0,167,167,167,,,,,,,,,,,,,102.7743902000002,0.024390200000198092,None,,154.92425960000037,154.92425960000037,154.92425960000037,154.92425960000037,154.92425960000037,154.92425960000037,154.92425960000037,154.92425960000037,154.92425960000037,154.92425960000037,007,P005,2025_Jan_18_1622,ConditionRich,2021.2.3,59.93608415897307,
103.0,103.75,28,0.75,Stimuli/P005/things_girl_03s.jpg,0,0,0.0,0,168,168,168,,,,,,,,,,,,,103.02466830000049,0.024668300000485033,None,,155.17446760000166,155.17446760000166,155.17446760000166,155.17446760000166,155.17446760000166,155.17446760000166,155.17446760000166,155.17446760000166,155.17446760000166,155.17446760000166,007,P005,2025_Jan_18_1622,ConditionRich,2021.2.3,59.93608415897307,
103.75,104.0,41,0.0,Stimuli/Blank.png,0,0,0.0,0,169,169,169,,,,,,,,,,,,,103.77472130000024,0.024721300000237534,5,0.19311500000185333,155.9251381000031,155.9251381000031,155.9251381000031,155.9251381000031,155.9251381000031,155.9251381000031,155.9251381000031,155.9251381000031,155.9251381000031,155.9251381000031,007,P005,2025_Jan_18_1622,ConditionRich,2021.2.3,59.93608415897307,
104.0,104.75,4,0.75,Stimuli/P005/sun_auwghripdoxzluuk.jpg,0,0,0.0,0,170,170,170,,,,,,,,,,,,,104.0235176999995,0.02351769999950193,None,,156.1586657000007,156.1586657000007,156.1586657000007,156.1586657000007,156.1586657000007,156.1586657000007,156.1586657000007,156.1586657000007,156.1586657000007,156.1586657000007,007,P005,2025_Jan_18_1622,ConditionRich,2021.2.3,59.93608415897307,
104.75,105.0,41,0.0,Stimuli/Blank.png,0,0,0.0,0,171,171,171,,,,,,,,,,,,,104.75955750000139,0.009557500001392327,None,,156.90932960000282,156.90932960000282,156.90932960000282,156.90932960000282,156.90932960000282,156.90932960000282,156.90932960000282,156.90932960000282,156.90932960000282,156.90932960000282,007,P005,2025_Jan_18_1622,ConditionRich,2021.2.3,59.93608415897307,
105.0,105.75,4,0.75,Stimuli/P005/sun_auwghripdoxzluuk.jpg,0,0,0.0,0,172,172,172,,,,,,,,,,,,,105.02388670000073,0.023886700000730343,None,,157.15954910000073,157.15954910000073,157.15954910000073,157.15954910000073,157.15954910000073,157.15954910000073,157.15954910000073,157.15954910000073,157.15954910000073,157.15954910000073,007,P005,2025_Jan_18_1622,ConditionRich,2021.2.3,59.93608415897307,
105.75,106.0,41,0.0,Stimuli/Blank.png,0,0,0.0,0,173,173,173,,,,,,,,,,,,,105.75987570000143,0.009875700001430232,5,0.20831469999757246,157.91022400000293,157.91022400000293,157.91022400000293,157.91022400000293,157.91022400000293,157.91022400000293,157.91022400000293,157.91022400000293,157.91022400000293,157.91022400000293,007,P005,2025_Jan_18_1622,ConditionRich,2021.2.3,59.93608415897307,
106.0,106.75,4,0.75,Stimuli/P005/sun_auwghripdoxzluuk.jpg,0,0,0.0,0,174,174,174,,,,,,,,,,,,,106.0251965000025,0.02519650000249385,None,,158.16043290000016,158.16043290000016,158.16043290000016,158.16043290000016,158.16043290000016,158.16043290000016,158.16043290000016,158.16043290000016,158.16043290000016,158.16043290000016,007,P005,2025_Jan_18_1622,ConditionRich,2021.2.3,59.93608415897307,
106.75,107.0,41,0.0,Stimuli/Blank.png,0,0,0.0,0,175,175,175,,,,,,,,,,,,,106.75979430000007,0.009794300000066869,None,,158.89441780000197,158.89441780000197,158.89441780000197,158.89441780000197,158.89441780000197,158.89441780000197,158.89441780000197,158.89441780000197,158.89441780000197,158.89441780000197,007,P005,2025_Jan_18_1622,ConditionRich,2021.2.3,59.93608415897307,
107.0,107.75,4,0.75,Stimuli/P005/sun_auwghripdoxzluuk.jpg,0,0,0.0,0,176,176,176,,,,,,,,,,,,,107.01010099999985,0.010100999999849591,None,,159.1613262000028,159.1613262000028,159.1613262000028,159.1613262000028,159.1613262000028,159.1613262000028,159.1613262000028,159.1613262000028,159.1613262000028,159.1613262000028,007,P005,2025_Jan_18_1622,ConditionRich,2021.2.3,59.93608415897307,
107.75,108.0,41,0.0,Stimuli/Blank.png,0,0,0.0,0,177,177,177,,,,,,,,,,,,,107.77655040000172,0.026550400001724483,None,,159.91197250000187,159.91197250000187,159.91197250000187,159.91197250000187,159.91197250000187,159.91197250000187,159.91197250000187,159.91197250000187,159.91197250000187,159.91197250000187,007,P005,2025_Jan_18_1622,ConditionRich,2021.2.3,59.93608415897307,
108.0,108.75,14,0.75,Stimuli/P005/sun_bsirencncgxteejx.jpg,0,0,0.0,0,178,178,178,,,,,,,,,,,,,108.00998800000161,0.009988000001612818,None,,160.1455072000026,160.1455072000026,160.1455072000026,160.1455072000026,160.1455072000026,160.1455072000026,160.1455072000026,160.1455072000026,160.1455072000026,160.1455072000026,007,P005,2025_Jan_18_1622,ConditionRich,2021.2.3,59.93608415897307,
108.75,109.0,41,0.0,Stimuli/Blank.png,0,0,0.0,0,179,179,179,,,,,,,,,,,,,108.76071830000001,0.01071830000000773,None,,160.89616620000015,160.89616620000015,160.89616620000015,160.89616620000015,160.89616620000015,160.89616620000015,160.89616620000015,160.89616620000015,160.89616620000015,160.89616620000015,007,P005,2025_Jan_18_1622,ConditionRich,2021.2.3,59.93608415897307,
109.0,109.75,14,0.75,Stimuli/P005/sun_bsirencncgxteejx.jpg,0,0,0.0,0,180,180,180,,,,,,,,,,,,,109.0110636999998,0.011063699999795062,None,,161.1630944000026,161.1630944000026,161.1630944000026,161.1630944000026,161.1630944000026,161.1630944000026,161.1630944000026,161.1630944000026,161.1630944000026,161.1630944000026,007,P005,2025_Jan_18_1622,ConditionRich,2021.2.3,59.93608415897307,
109.75,110.0,41,0.0,Stimuli/Blank.png,0,0,0.0,0,181,181,181,,,,,,,,,,,,,109.7803856999999,0.030385699999897042,5,0.1880678000015905,161.93042030000288,161.93042030000288,161.93042030000288,161.93042030000288,161.93042030000288,161.93042030000288,161.93042030000288,161.93042030000288,161.93042030000288,161.93042030000288,007,P005,2025_Jan_18_1622,ConditionRich,2021.2.3,59.93608415897307,
110.0,110.75,14,0.75,Stimuli/P005/sun_bsirencncgxteejx.jpg,0,0,0.0,0,182,182,182,,,,,,,,,,,,,110.02848160000212,0.02848160000212374,None,,162.16439250000258,162.16439250000258,162.16439250000258,162.16439250000258,162.16439250000258,162.16439250000258,162.16439250000258,162.16439250000258,162.16439250000258,162.16439250000258,007,P005,2025_Jan_18_1622,ConditionRich,2021.2.3,59.93608415897307,
110.75,111.0,41,0.0,Stimuli/Blank.png,0,0,0.0,0,183,183,183,,,,,,,,,,,,,110.76430050000272,0.014300500002718763,None,,162.9146174000016,162.9146174000016,162.9146174000016,162.9146174000016,162.9146174000016,162.9146174000016,162.9146174000016,162.9146174000016,162.9146174000016,162.9146174000016,007,P005,2025_Jan_18_1622,ConditionRich,2021.2.3,59.93608415897307,
111.0,111.75,14,0.75,Stimuli/P005/sun_bsirencncgxteejx.jpg,0,0,0.0,0,184,184,184,,,,,,,,,,,,,111.03015210000012,0.030152100000123028,None,,163.1815306000026,163.1815306000026,163.1815306000026,163.1815306000026,163.1815306000026,163.1815306000026,163.1815306000026,163.1815306000026,163.1815306000026,163.1815306000026,007,P005,2025_Jan_18_1622,ConditionRich,2021.2.3,59.93608415897307,
111.75,112.0,41,0.0,Stimuli/Blank.png,0,0,0.0,0,185,185,185,,,,,,,,,,,,,111.78016000000207,0.030160000002069864,None,,163.91550020000068,163.91550020000068,163.91550020000068,163.91550020000068,163.91550020000068,163.91550020000068,163.91550020000068,163.91550020000068,163.91550020000068,163.91550020000068,007,P005,2025_Jan_18_1622,ConditionRich,2021.2.3,59.93608415897307,
112.0,112.75,11,0.75,Stimuli/P005/sun_bjoocjyyhsmsbprr.jpg,0,0,0.0,0,186,186,186,,,,,,,,,,,,,112.0149851999995,0.014985199999500765,None,,164.14903440000126,164.14903440000126,164.14903440000126,164.14903440000126,164.14903440000126,164.14903440000126,164.14903440000126,164.14903440000126,164.14903440000126,164.14903440000126,007,P005,2025_Jan_18_1622,ConditionRich,2021.2.3,59.93608415897307,
112.75,113.0,41,0.0,Stimuli/Blank.png,0,0,0.0,0,187,187,187,,,,,,,,,,,,,112.76404670000193,0.014046700001927093,None,,164.89969259999998,164.89969259999998,164.89969259999998,164.89969259999998,164.89969259999998,164.89969259999998,164.89969259999998,164.89969259999998,164.89969259999998,164.89969259999998,007,P005,2025_Jan_18_1622,ConditionRich,2021.2.3,59.93608415897307,
113.0,113.75,11,0.75,Stimuli/P005/sun_bjoocjyyhsmsbprr.jpg,0,0,0.0,0,188,188,188,,,,,,,,,,,,,113.01417140000194,0.014171400001941947,None,,165.14991180000288,165.14991180000288,165.14991180000288,165.14991180000288,165.14991180000288,165.14991180000288,165.14991180000288,165.14991180000288,165.14991180000288,165.14991180000288,007,P005,2025_Jan_18_1622,ConditionRich,2021.2.3,59.93608415897307,
113.75,114.0,41,0.0,Stimuli/Blank.png,0,0,0.0,0,189,189,189,,,,,,,,,,,,,113.76512560000265,0.015125600002647843,5,0.21765740000046208,165.90057120000347,165.90057120000347,165.90057120000347,165.90057120000347,165.90057120000347,165.90057120000347,165.90057120000347,165.90057120000347,165.90057120000347,165.90057120000347,007,P005,2025_Jan_18_1622,ConditionRich,2021.2.3,59.93608415897307,
114.0,114.75,11,0.75,Stimuli/P005/sun_bjoocjyyhsmsbprr.jpg,1,0,0.75,0,190,190,190,,,,,,,,,,,,,114.015381600002,0.015381600002001505,4,0.5913808999976027,166.15080360000138,166.15080360000138,166.15080360000138,166.15080360000138,166.15080360000138,166.15080360000138,166.15080360000138,None,166.15080360000138,166.15080360000138,007,P005,2025_Jan_18_1622,ConditionRich,2021.2.3,59.93608415897307,
114.75,115.0,41,0.0,Stimuli/Blank.png,0,0,0.0,0,191,191,191,,,,,,,,,,,,,114.74970980000217,-0.0002901999978348613,None,,166.88587530000223,166.88587530000223,166.88587530000223,166.88587530000223,166.88587530000223,166.88587530000223,166.88587530000223,166.88587530000223,166.88587530000223,166.88587530000223,007,P005,2025_Jan_18_1622,ConditionRich,2021.2.3,59.93608415897307,
115.0,115.75,11,0.75,Stimuli/P005/sun_bjoocjyyhsmsbprr.jpg,0,0,0.0,0,192,192,192,,,,,,,,,,,,,115.01576639999985,0.015766399999847636,None,,167.15167110000039,167.15167110000039,167.15167110000039,167.15167110000039,167.15167110000039,167.15167110000039,167.15167110000039,167.15167110000039,167.15167110000039,167.15167110000039,007,P005,2025_Jan_18_1622,ConditionRich,2021.2.3,59.93608415897307,
115.75,116.0,41,0.0,Stimuli/Blank.png,0,0,0.0,0,193,193,193,,,,,,,,,,,,,115.75041190000047,0.0004119000004720874,None,,167.8856607000016,167.8856607000016,167.8856607000016,167.8856607000016,167.8856607000016,167.8856607000016,167.8856607000016,167.8856607000016,167.8856607000016,167.8856607000016,007,P005,2025_Jan_18_1622,ConditionRich,2021.2.3,59.93608415897307,
116.0,116.75,25,0.75,Stimuli/P005/things_dog_03s.jpg,0,0,0.0,0,194,194,194,,,,,,,,,,,,,116.00075769999967,0.0007576999996672384,None,,168.13586740000028,168.13586740000028,168.13586740000028,168.13586740000028,168.13586740000028,168.13586740000028,168.13586740000028,168.13586740000028,168.13586740000028,168.13586740000028,007,P005,2025_Jan_18_1622,ConditionRich,2021.2.3,59.93608415897307,
116.75,117.0,41,0.0,Stimuli/Blank.png,0,0,0.0,0,195,195,195,,,,,,,,,,,,,116.75072550000186,0.0007255000018631108,None,,168.88653200000044,168.88653200000044,168.88653200000044,168.88653200000044,168.88653200000044,168.88653200000044,168.88653200000044,168.88653200000044,168.88653200000044,168.88653200000044,007,P005,2025_Jan_18_1622,ConditionRich,2021.2.3,59.93608415897307,
117.0,117.75,25,0.75,Stimuli/P005/things_dog_03s.jpg,0,0,0.0,0,196,196,196,,,,,,,,,,,,,117.00083840000298,0.0008384000029764138,None,,169.1534369000001,169.1534369000001,169.1534369000001,169.1534369000001,169.1534369000001,169.1534369000001,169.1534369000001,169.1534369000001,169.1534369000001,169.1534369000001,007,P005,2025_Jan_18_1622,ConditionRich,2021.2.3,59.93608415897307,
117.75,118.0,41,0.0,Stimuli/Blank.png,0,0,0.0,0,197,197,197,,,,,,,,,,,,,117.76894280000124,0.018942800001241267,None,,169.90410030000203,169.90410030000203,169.90410030000203,169.90410030000203,169.90410030000203,169.90410030000203,169.90410030000203,169.90410030000203,169.90410030000203,169.90410030000203,007,P005,2025_Jan_18_1622,ConditionRich,2021.2.3,59.93608415897307,
118.0,118.75,25,0.75,Stimuli/P005/things_dog_03s.jpg,0,0,0.0,0,198,198,198,,,,,,,,,,,,,118.0045695000008,0.0045695000007981434,None,,170.1543139000023,170.1543139000023,170.1543139000023,170.1543139000023,170.1543139000023,170.1543139000023,170.1543139000023,170.1543139000023,170.1543139000023,170.1543139000023,007,P005,2025_Jan_18_1622,ConditionRich,2021.2.3,59.93608415897307,
118.75,119.0,41,0.0,Stimuli/Blank.png,0,0,0.0,0,199,199,199,,,,,,,,,,,,,118.77013250000164,0.0201325000016368,None,,170.9049851000018,170.9049851000018,170.9049851000018,170.9049851000018,170.9049851000018,170.9049851000018,170.9049851000018,170.9049851000018,170.9049851000018,170.9049851000018,007,P005,2025_Jan_18_1622,ConditionRich,2021.2.3,59.93608415897307,
119.0,119.75,25,0.75,Stimuli/P005/things_dog_03s.jpg,1,0,0.75,0,200,200,200,,,,,,,,,,,,,119.00302560000273,0.003025600002729334,4,0.48574029999872437,171.13852410000254,171.13852410000254,171.13852410000254,171.13852410000254,171.13852410000254,171.13852410000254,171.13852410000254,171.8724942000008,171.13852410000254,171.13852410000254,007,P005,2025_Jan_18_1622,ConditionRich,2021.2.3,59.93608415897307,
119.75,120.0,41,0.0,Stimuli/Blank.png,0,0,0.0,0,201,201,201,,,,,,,,,,,,,119.75409460000083,0.004094600000826176,None,,171.88914840000143,171.88914840000143,171.88914840000143,171.88914840000143,171.88914840000143,171.88914840000143,171.88914840000143,171.88914840000143,171.88914840000143,171.88914840000143,007,P005,2025_Jan_18_1622,ConditionRich,2021.2.3,59.93608415897307,
120.0,120.75,10,0.75,Stimuli/P005/sun_bgnxbfhmwhliypvg.jpg,0,0,0.0,0,202,202,202,,,,,,,,,,,,,120.00489350000134,0.004893500001344364,None,,172.15607640000235,172.15607640000235,172.15607640000235,172.15607640000235,172.15607640000235,172.15607640000235,172.15607640000235,172.15607640000235,172.15607640000235,172.15607640000235,007,P005,2025_Jan_18_1622,ConditionRich,2021.2.3,59.93608415897307,
120.75,121.0,41,0.0,Stimuli/Blank.png,0,0,0.0,0,203,203,203,,,,,,,,,,,,,120.77176650000183,0.021766500001831446,None,,172.90681280000354,172.90681280000354,172.90681280000354,172.90681280000354,172.90681280000354,172.90681280000354,172.90681280000354,172.90681280000354,172.90681280000354,172.90681280000354,007,P005,2025_Jan_18_1622,ConditionRich,2021.2.3,59.93608415897307,
121.0,121.75,10,0.75,Stimuli/P005/sun_bgnxbfhmwhliypvg.jpg,0,0,0.0,0,204,204,204,,,,,,,,,,,,,121.00505340000018,0.005053400000178954,None,,173.14027980000174,173.14027980000174,173.14027980000174,173.14027980000174,173.14027980000174,173.14027980000174,173.14027980000174,173.14027980000174,173.14027980000174,173.14027980000174,007,P005,2025_Jan_18_1622,ConditionRich,2021.2.3,59.93608415897307,
121.75,122.0,41,0.0,Stimuli/Blank.png,0,0,0.0,0,205,205,205,,,,,,,,,,,,,121.75504600000204,0.005046000002039364,None,,173.89093610000054,173.89093610000054,173.89093610000054,173.89093610000054,173.89093610000054,173.89093610000054,173.89093610000054,173.89093610000054,173.89093610000054,173.89093610000054,007,P005,2025_Jan_18_1622,ConditionRich,2021.2.3,59.93608415897307,
122.0,122.75,10,0.75,Stimuli/P005/sun_bgnxbfhmwhliypvg.jpg,0,0,0.0,0,206,206,206,,,,,,,,,,,,,122.00558400000227,0.00558400000227266,None,,174.15784239999994,174.15784239999994,174.15784239999994,174.15784239999994,174.15784239999994,174.15784239999994,174.15784239999994,174.15784239999994,174.15784239999994,174.15784239999994,007,P005,2025_Jan_18_1622,ConditionRich,2021.2.3,59.93608415897307,
122.75,123.0,41,0.0,Stimuli/Blank.png,0,0,0.0,0,207,207,207,,,,,,,,,,,,,122.77283730000272,0.02283730000272044,None,,174.90854980000222,174.90854980000222,174.90854980000222,174.90854980000222,174.90854980000222,174.90854980000222,174.90854980000222,174.90854980000222,174.90854980000222,174.90854980000222,007,P005,2025_Jan_18_1622,ConditionRich,2021.2.3,59.93608415897307,
123.0,123.75,10,0.75,Stimuli/P005/sun_bgnxbfhmwhliypvg.jpg,0,0,0.0,0,208,208,208,,,,,,,,,,,,,123.00674849999996,0.006748499999957858,None,,175.15873310000097,175.15873310000097,175.15873310000097,175.15873310000097,175.15873310000097,175.15873310000097,175.15873310000097,175.15873310000097,175.15873310000097,175.15873310000097,007,P005,2025_Jan_18_1622,ConditionRich,2021.2.3,59.93608415897307,
123.75,124.0,41,0.0,Stimuli/Blank.png,0,0,0.0,0,209,209,209,,,,,,,,,,,,,123.77415520000068,0.024155200000677723,None,,175.9093885000002,175.9093885000002,175.9093885000002,175.9093885000002,175.9093885000002,175.9093885000002,175.9093885000002,175.9093885000002,175.9093885000002,175.9093885000002,007,P005,2025_Jan_18_1622,ConditionRich,2021.2.3,59.93608415897307,
124.0,124.75,13,0.75,Stimuli/P005/sun_bruphbrfsbxowtlq.jpg,0,0,0.0,0,210,210,210,,,,,,,,,,,,,124.00701860000117,0.007018600001174491,None,,176.1429257000018,176.1429257000018,176.1429257000018,176.1429257000018,176.1429257000018,176.1429257000018,176.1429257000018,176.1429257000018,176.1429257000018,176.1429257000018,007,P005,2025_Jan_18_1622,ConditionRich,2021.2.3,59.93608415897307,
124.75,125.0,41,0.0,Stimuli/Blank.png,0,0,0.0,0,211,211,211,,,,,,,,,,,,,124.75797880000027,0.007978800000273623,None,,176.89359160000095,176.89359160000095,176.89359160000095,176.89359160000095,176.89359160000095,176.89359160000095,176.89359160000095,176.89359160000095,176.89359160000095,176.89359160000095,007,P005,2025_Jan_18_1622,ConditionRich,2021.2.3,59.93608415897307,
125.0,125.75,13,0.75,Stimuli/P005/sun_bruphbrfsbxowtlq.jpg,0,0,0.0,0,212,212,212,,,,,,,,,,,,,125.00886780000292,0.008867800002917647,None,,177.1438143000014,177.1438143000014,177.1438143000014,177.1438143000014,177.1438143000014,177.1438143000014,177.1438143000014,177.1438143000014,177.1438143000014,177.1438143000014,007,P005,2025_Jan_18_1622,ConditionRich,2021.2.3,59.93608415897307,
125.75,126.0,41,0.0,Stimuli/Blank.png,0,0,0.0,0,213,213,213,,,,,,,,,,,,,125.75998830000026,0.009988300000259187,None,,177.89447370000198,177.89447370000198,177.89447370000198,177.89447370000198,177.89447370000198,177.89447370000198,177.89447370000198,177.89447370000198,177.89447370000198,177.89447370000198,007,P005,2025_Jan_18_1622,ConditionRich,2021.2.3,59.93608415897307,
126.0,126.75,13,0.75,Stimuli/P005/sun_bruphbrfsbxowtlq.jpg,0,0,0.0,0,214,214,214,,,,,,,,,,,,,126.00925610000195,0.009256100001948653,None,,178.14468240000133,178.14468240000133,178.14468240000133,178.14468240000133,178.14468240000133,178.14468240000133,178.14468240000133,178.14468240000133,178.14468240000133,178.14468240000133,007,P005,2025_Jan_18_1622,ConditionRich,2021.2.3,59.93608415897307,
126.75,127.0,41,0.0,Stimuli/Blank.png,0,0,0.0,0,215,215,215,,,,,,,,,,,,,126.76087390000248,0.010873900002479786,None,,178.91204460000154,178.91204460000154,178.91204460000154,178.91204460000154,178.91204460000154,178.91204460000154,178.91204460000154,178.91204460000154,178.91204460000154,178.91204460000154,007,P005,2025_Jan_18_1622,ConditionRich,2021.2.3,59.93608415897307,
127.0,127.75,13,0.75,Stimuli/P005/sun_bruphbrfsbxowtlq.jpg,0,0,0.0,0,216,216,216,,,,,,,,,,,,,127.02666630000022,0.026666300000215415,None,,179.17893590000313,179.17893590000313,179.17893590000313,179.17893590000313,179.17893590000313,179.17893590000313,179.17893590000313,179.17893590000313,179.17893590000313,179.17893590000313,007,P005,2025_Jan_18_1622,ConditionRich,2021.2.3,59.93608415897307,
127.75,128.0,41,0.0,Stimuli/Blank.png,0,0,0.0,0,217,217,217,,,,,,,,,,,,,127.77957969999989,0.029579699999885634,5,0.18857980000029784,179.9295942000026,179.9295942000026,179.9295942000026,179.9295942000026,179.9295942000026,179.9295942000026,179.9295942000026,179.9295942000026,179.9295942000026,179.9295942000026,007,P005,2025_Jan_18_1622,ConditionRich,2021.2.3,59.93608415897307,
128.0,128.75,22,0.75,Stimuli/P005/things_baby_03s.jpg,0,0,0.0,0,218,218,218,,,,,,,,,,,,,128.0297625000021,0.029762500002107117,None,,180.1798118000006,180.1798118000006,180.1798118000006,180.1798118000006,180.1798118000006,180.1798118000006,180.1798118000006,180.1798118000006,180.1798118000006,180.1798118000006,007,P005,2025_Jan_18_1622,ConditionRich,2021.2.3,59.93608415897307,
128.75,129.0,41,0.0,Stimuli/Blank.png,0,0,0.0,0,219,219,219,,,,,,,,,,,,,128.77913320000152,0.02913320000152453,None,,180.91380290000234,180.91380290000234,180.91380290000234,180.91380290000234,180.91380290000234,180.91380290000234,180.91380290000234,180.91380290000234,180.91380290000234,180.91380290000234,007,P005,2025_Jan_18_1622,ConditionRich,2021.2.3,59.93608415897307,
129.0,129.75,22,0.75,Stimuli/P005/things_baby_03s.jpg,0,0,0.0,0,220,220,220,,,,,,,,,,,,,129.01198520000253,0.011985200002527563,None,,181.14733540000088,181.14733540000088,181.14733540000088,181.14733540000088,181.14733540000088,181.14733540000088,181.14733540000088,181.14733540000088,181.14733540000088,181.14733540000088,007,P005,2025_Jan_18_1622,ConditionRich,2021.2.3,59.93608415897307,
129.75,130.0,41,0.0,Stimuli/Blank.png,0,0,0.0,0,221,221,221,,,,,,,,,,,,,129.76294860000053,0.012948600000527222,None,,181.89803810000012,181.89803810000012,181.89803810000012,181.89803810000012,181.89803810000012,181.89803810000012,181.89803810000012,181.89803810000012,181.89803810000012,181.89803810000012,007,P005,2025_Jan_18_1622,ConditionRich,2021.2.3,59.93608415897307,
130.0,130.75,22,0.75,Stimuli/P005/things_baby_03s.jpg,0,0,0.0,0,222,222,222,,,,,,,,,,,,,130.01220100000137,0.012201000001368811,None,,182.14820690000124,182.14820690000124,182.14820690000124,182.14820690000124,182.14820690000124,182.14820690000124,182.14820690000124,182.14820690000124,182.14820690000124,182.14820690000124,007,P005,2025_Jan_18_1622,ConditionRich,2021.2.3,59.93608415897307,
130.75,131.0,41,0.0,Stimuli/Blank.png,0,0,0.0,0,223,223,223,,,,,,,,,,,,,130.76303910000206,0.013039100002060877,None,,182.89990130000297,182.89990130000297,182.89990130000297,182.89990130000297,182.89990130000297,182.89990130000297,182.89990130000297,182.89990130000297,182.89990130000297,182.89990130000297,007,P005,2025_Jan_18_1622,ConditionRich,2021.2.3,59.93608415897307,
131.0,131.75,22,0.75,Stimuli/P005/things_baby_03s.jpg,0,0,0.0,0,224,224,224,,,,,,,,,,,,,131.0139283999997,0.013928399999713292,None,,183.1657656000025,183.1657656000025,183.1657656000025,183.1657656000025,183.1657656000025,183.1657656000025,183.1657656000025,183.1657656000025,183.1657656000025,183.1657656000025,007,P005,2025_Jan_18_1622,ConditionRich,2021.2.3,59.93608415897307,
131.75,132.0,41,0.0,Stimuli/Blank.png,0,0,0.0,0,225,225,225,,,,,,,,,,,,,131.7813234000023,0.031323400002293056,None,,183.91643320000003,183.91643320000003,183.91643320000003,183.91643320000003,183.91643320000003,183.91643320000003,183.91643320000003,183.91643320000003,183.91643320000003,183.91643320000003,007,P005,2025_Jan_18_1622,ConditionRich,2021.2.3,59.93608415897307,
132.0,132.75,34,0.75,Stimuli/P005/things_patty_03s.jpg,0,0,0.0,0,226,226,226,,,,,,,,,,,,,132.01458830000047,0.014588300000468735,None,,184.14996640000027,184.14996640000027,184.14996640000027,184.14996640000027,184.14996640000027,184.14996640000027,184.14996640000027,184.14996640000027,184.14996640000027,184.14996640000027,007,P005,2025_Jan_18_1622,ConditionRich,2021.2.3,59.93608415897307,
132.75,133.0,41,0.0,Stimuli/Blank.png,0,0,0.0,0,227,227,227,,,,,,,,,,,,,132.76574710000205,0.015747100002045045,None,,184.90063180000288,184.90063180000288,184.90063180000288,184.90063180000288,184.90063180000288,184.90063180000288,184.90063180000288,184.90063180000288,184.90063180000288,184.90063180000288,007,P005,2025_Jan_18_1622,ConditionRich,2021.2.3,59.93608415897307,
133.0,133.75,34,0.75,Stimuli/P005/things_patty_03s.jpg,1,0,0.75,0,228,228,228,,,,,,,,,,,,,132.99899189999996,-0.0010081000000354834,4,0.48006750000058673,185.1341622,185.1341622,185.1341622,185.1341622,185.1341622,185.1341622,185.1341622,185.86814800000138,185.1341622,185.1341622,007,P005,2025_Jan_18_1622,ConditionRich,2021.2.3,59.93608415897307,
133.75,134.0,41,0.0,Stimuli/Blank.png,0,0,0.0,0,229,229,229,,,,,,,,,,,,,133.74896010000157,-0.0010398999984317925,None,,185.88484280000193,185.88484280000193,185.88484280000193,185.88484280000193,185.88484280000193,185.88484280000193,185.88484280000193,185.88484280000193,185.88484280000193,185.88484280000193,007,P005,2025_Jan_18_1622,ConditionRich,2021.2.3,59.93608415897307,
134.0,134.75,34,0.75,Stimuli/P005/things_patty_03s.jpg,0,0,0.0,0,230,230,230,,,,,,,,,,,,,133.999842600002,-0.0001573999979882501,None,,186.13504810000086,186.13504810000086,186.13504810000086,186.13504810000086,186.13504810000086,186.13504810000086,186.13504810000086,186.13504810000086,186.13504810000086,186.13504810000086,007,P005,2025_Jan_18_1622,ConditionRich,2021.2.3,59.93608415897307,
134.75,135.0,41,0.0,Stimuli/Blank.png,0,0,0.0,0,231,231,231,,,,,,,,,,,,,134.75059030000193,0.0005903000019316096,None,,186.88571030000094,186.88571030000094,186.88571030000094,186.88571030000094,186.88571030000094,186.88571030000094,186.88571030000094,186.88571030000094,186.88571030000094,186.88571030000094,007,P005,2025_Jan_18_1622,ConditionRich,2021.2.3,59.93608415897307,
135.0,135.75,34,0.75,Stimuli/P005/things_patty_03s.jpg,0,0,0.0,0,232,232,232,,,,,,,,,,,,,135.00075529999958,0.0007552999995823484,None,,187.1526339000011,187.1526339000011,187.1526339000011,187.1526339000011,187.1526339000011,187.1526339000011,187.1526339000011,187.1526339000011,187.1526339000011,187.1526339000011,007,P005,2025_Jan_18_1622,ConditionRich,2021.2.3,59.93608415897307,
135.75,136.0,41,0.0,Stimuli/Blank.png,0,0,0.0,0,233,233,233,,,,,,,,,,,,,135.76865270000053,0.018652700000529876,None,,187.90327250000337,187.90327250000337,187.90327250000337,187.90327250000337,187.90327250000337,187.90327250000337,187.90327250000337,187.90327250000337,187.90327250000337,187.90327250000337,007,P005,2025_Jan_18_1622,ConditionRich,2021.2.3,59.93608415897307,
136.0,136.75,9,0.75,Stimuli/P005/sun_bfcmdrojsffdttzu.jpg,0,0,0.0,0,234,234,234,,,,,,,,,,,,,136.00157190000027,0.001571900000271853,None,,188.15350890000263,188.15350890000263,188.15350890000263,188.15350890000263,188.15350890000263,188.15350890000263,188.15350890000263,188.15350890000263,188.15350890000263,188.15350890000263,007,P005,2025_Jan_18_1622,ConditionRich,2021.2.3,59.93608415897307,
136.75,137.0,41,0.0,Stimuli/Blank.png,0,0,0.0,0,235,235,235,,,,,,,,,,,,,136.76896090000082,0.018960900000820402,None,,188.9041582000027,188.9041582000027,188.9041582000027,188.9041582000027,188.9041582000027,188.9041582000027,188.9041582000027,188.9041582000027,188.9041582000027,188.9041582000027,007,P005,2025_Jan_18_1622,ConditionRich,2021.2.3,59.93608415897307,
137.0,137.75,9,0.75,Stimuli/P005/sun_bfcmdrojsffdttzu.jpg,0,0,0.0,0,236,236,236,,,,,,,,,,,,,137.00185970000166,0.001859700001659803,None,,189.1376924000033,189.1376924000033,189.1376924000033,189.1376924000033,189.1376924000033,189.1376924000033,189.1376924000033,189.1376924000033,189.1376924000033,189.1376924000033,007,P005,2025_Jan_18_1622,ConditionRich,2021.2.3,59.93608415897307,
137.75,138.0,41,0.0,Stimuli/Blank.png,0,0,0.0,0,237,237,237,,,,,,,,,,,,,137.7529147000023,0.0029147000022931024,None,,189.8883590000005,189.8883590000005,189.8883590000005,189.8883590000005,189.8883590000005,189.8883590000005,189.8883590000005,189.8883590000005,189.8883590000005,189.8883590000005,007,P005,2025_Jan_18_1622,ConditionRich,2021.2.3,59.93608415897307,
138.0,138.75,9,0.75,Stimuli/P005/sun_bfcmdrojsffdttzu.jpg,0,0,0.0,0,238,238,238,,,,,,,,,,,,,138.00532870000097,0.0053287000009731855,None,,190.15526339999997,190.15526339999997,190.15526339999997,190.15526339999997,190.15526339999997,190.15526339999997,190.15526339999997,190.15526339999997,190.15526339999997,190.15526339999997,007,P005,2025_Jan_18_1622,ConditionRich,2021.2.3,59.93608415897307,
138.75,139.0,41,0.0,Stimuli/Blank.png,0,0,0.0,0,239,239,239,,,,,,,,,,,,,138.77040640000268,0.020406400002684677,None,,190.90591600000334,190.90591600000334,190.90591600000334,190.90591600000334,190.90591600000334,190.90591600000334,190.90591600000334,190.90591600000334,190.90591600000334,190.90591600000334,007,P005,2025_Jan_18_1622,ConditionRich,2021.2.3,59.93608415897307,
139.0,139.75,9,0.75,Stimuli/P005/sun_bfcmdrojsffdttzu.jpg,0,0,0.0,0,240,240,240,,,,,,,,,,,,,139.00378360000104,0.0037836000010429416,None,,191.13945960000274,191.13945960000274,191.13945960000274,191.13945960000274,191.13945960000274,191.13945960000274,191.13945960000274,191.13945960000274,191.13945960000274,191.13945960000274,007,P005,2025_Jan_18_1622,ConditionRich,2021.2.3,59.93608415897307,
139.75,140.0,41,0.0,Stimuli/Blank.png,0,0,0.0,0,241,241,241,,,,,,,,,,,,,139.75524040000164,0.0052404000016395,None,,191.89012400000138,191.89012400000138,191.89012400000138,191.89012400000138,191.89012400000138,191.89012400000138,191.89012400000138,191.89012400000138,191.89012400000138,191.89012400000138,007,P005,2025_Jan_18_1622,ConditionRich,2021.2.3,59.93608415897307,
140.0,140.75,19,0.75,Stimuli/P005/sun_czspalxthlkjwoat.jpg,0,0,0.0,0,242,242,242,,,,,,,,,,,,,140.00506450000103,0.0050645000010263175,None,,192.14036630000192,192.14036630000192,192.14036630000192,192.14036630000192,192.14036630000192,192.14036630000192,192.14036630000192,192.14036630000192,192.14036630000192,192.14036630000192,007,P005,2025_Jan_18_1622,ConditionRich,2021.2.3,59.93608415897307,
140.75,141.0,41,0.0,Stimuli/Blank.png,0,0,0.0,0,243,243,243,,,,,,,,,,,,,140.7559868999997,0.0059868999996979255,None,,192.89099330000317,192.89099330000317,192.89099330000317,192.89099330000317,192.89099330000317,192.89099330000317,192.89099330000317,192.89099330000317,192.89099330000317,192.89099330000317,007,P005,2025_Jan_18_1622,ConditionRich,2021.2.3,59.93608415897307,
141.0,141.75,19,0.75,Stimuli/P005/sun_czspalxthlkjwoat.jpg,0,0,0.0,0,244,244,244,,,,,,,,,,,,,141.00563049999982,0.0056304999998246785,None,,193.1412143000016,193.1412143000016,193.1412143000016,193.1412143000016,193.1412143000016,193.1412143000016,193.1412143000016,193.1412143000016,193.1412143000016,193.1412143000016,007,P005,2025_Jan_18_1622,ConditionRich,2021.2.3,59.93608415897307,
141.75,142.0,41,0.0,Stimuli/Blank.png,0,0,0.0,0,245,245,245,,,,,,,,,,,,,141.7568338000019,0.0068338000019139145,5,0.2084651999975904,193.90964410000015,193.90964410000015,193.90964410000015,193.90964410000015,193.90964410000015,193.90964410000015,193.90964410000015,193.90964410000015,193.90964410000015,193.90964410000015,007,P005,2025_Jan_18_1622,ConditionRich,2021.2.3,59.93608415897307,
142.0,142.75,19,0.75,Stimuli/P005/sun_czspalxthlkjwoat.jpg,0,0,0.0,0,246,246,246,,,,,,,,,,,,,142.02476260000185,0.024762600001849933,None,,194.17545630000313,194.17545630000313,194.17545630000313,194.17545630000313,194.17545630000313,194.17545630000313,194.17545630000313,194.17545630000313,194.17545630000313,194.17545630000313,007,P005,2025_Jan_18_1622,ConditionRich,2021.2.3,59.93608415897307,
142.75,143.0,41,0.0,Stimuli/Blank.png,0,0,0.0,0,247,247,247,,,,,,,,,,,,,142.7742040000012,0.02420400000119116,None,,194.90945020000072,194.90945020000072,194.90945020000072,194.90945020000072,194.90945020000072,194.90945020000072,194.90945020000072,194.90945020000072,194.90945020000072,194.90945020000072,007,P005,2025_Jan_18_1622,ConditionRich,2021.2.3,59.93608415897307,
143.0,143.75,19,0.75,Stimuli/P005/sun_czspalxthlkjwoat.jpg,0,0,0.0,0,248,248,248,,,,,,,,,,,,,143.00917780000236,0.009177800002362346,None,,195.15966240000125,195.15966240000125,195.15966240000125,195.15966240000125,195.15966240000125,195.15966240000125,195.15966240000125,195.15966240000125,195.15966240000125,195.15966240000125,007,P005,2025_Jan_18_1622,ConditionRich,2021.2.3,59.93608415897307,
143.75,144.0,41,0.0,Stimuli/Blank.png,0,0,0.0,0,249,249,249,,,,,,,,,,,,,143.77504620000036,0.02504620000036084,None,,195.91032020000057,195.91032020000057,195.91032020000057,195.91032020000057,195.91032020000057,195.91032020000057,195.91032020000057,195.91032020000057,195.91032020000057,195.91032020000057,007,P005,2025_Jan_18_1622,ConditionRich,2021.2.3,59.93608415897307,
144.0,144.75,32,0.75,Stimuli/P005/things_jumpsuit_03s.jpg,0,0,0.0,0,250,250,250,,,,,,,,,,,,,144.0093565999996,0.009356599999591708,None,,196.14386140000352,196.14386140000352,196.14386140000352,196.14386140000352,196.14386140000352,196.14386140000352,196.14386140000352,196.14386140000352,196.14386140000352,196.14386140000352,007,P005,2025_Jan_18_1622,ConditionRich,2021.2.3,59.93608415897307,
144.75,145.0,41,0.0,Stimuli/Blank.png,0,0,0.0,0,251,251,251,,,,,,,,,,,,,144.76000779999958,0.010007799999584677,None,,196.89453050000157,196.89453050000157,196.89453050000157,196.89453050000157,196.89453050000157,196.89453050000157,196.89453050000157,196.89453050000157,196.89453050000157,196.89453050000157,007,P005,2025_Jan_18_1622,ConditionRich,2021.2.3,59.93608415897307,
145.0,145.75,32,0.75,Stimuli/P005/things_jumpsuit_03s.jpg,0,0,0.0,0,252,252,252,,,,,,,,,,,,,145.00974960000167,0.009749600001669023,None,,197.1447427000021,197.1447427000021,197.1447427000021,197.1447427000021,197.1447427000021,197.1447427000021,197.1447427000021,197.1447427000021,197.1447427000021,197.1447427000021,007,P005,2025_Jan_18_1622,ConditionRich,2021.2.3,59.93608415897307,
145.75,146.0,41,0.0,Stimuli/Blank.png,0,0,0.0,0,253,253,253,,,,,,,,,,,,,145.76032060000216,0.010320600002160063,None,,197.8954208000032,197.8954208000032,197.8954208000032,197.8954208000032,197.8954208000032,197.8954208000032,197.8954208000032,197.8954208000032,197.8954208000032,197.8954208000032,007,P005,2025_Jan_18_1622,ConditionRich,2021.2.3,59.93608415897307,
146.0,146.75,32,0.75,Stimuli/P005/things_jumpsuit_03s.jpg,0,0,0.0,0,254,254,254,,,,,,,,,,,,,146.01017970000248,0.010179700002481695,None,,198.14559120000195,198.14559120000195,198.14559120000195,198.14559120000195,198.14559120000195,198.14559120000195,198.14559120000195,198.14559120000195,198.14559120000195,198.14559120000195,007,P005,2025_Jan_18_1622,ConditionRich,2021.2.3,59.93608415897307,
146.75,147.0,41,0.0,Stimuli/Blank.png,0,0,0.0,0,255,255,255,,,,,,,,,,,,,146.76116810000167,0.01116810000166879,None,,198.8975210000026,198.8975210000026,198.8975210000026,198.8975210000026,198.8975210000026,198.8975210000026,198.8975210000026,198.8975210000026,198.8975210000026,198.8975210000026,007,P005,2025_Jan_18_1622,ConditionRich,2021.2.3,59.93608415897307,
147.0,147.75,32,0.75,Stimuli/P005/things_jumpsuit_03s.jpg,0,0,0.0,0,256,256,256,,,,,,,,,,,,,147.01125460000185,0.011254600001848303,None,,199.16320820000328,199.16320820000328,199.16320820000328,199.16320820000328,199.16320820000328,199.16320820000328,199.16320820000328,199.16320820000328,199.16320820000328,199.16320820000328,007,P005,2025_Jan_18_1622,ConditionRich,2021.2.3,59.93608415897307,
147.75,148.0,41,0.0,Stimuli/Blank.png,0,0,0.0,0,257,257,257,,,,,,,,,,,,,147.77799700000105,0.027997000001050765,None,,199.9138888000016,199.9138888000016,199.9138888000016,199.9138888000016,199.9138888000016,199.9138888000016,199.9138888000016,199.9138888000016,199.9138888000016,199.9138888000016,007,P005,2025_Jan_18_1622,ConditionRich,2021.2.3,59.93608415897307,
148.0,148.75,3,0.75,Stimuli/P005/sun_asyidwmnobuawmax.jpg,0,0,0.0,0,258,258,258,,,,,,,,,,,,,148.01153080000222,0.011530800002219621,None,,200.16407860000254,200.16407860000254,200.16407860000254,200.16407860000254,200.16407860000254,200.16407860000254,200.16407860000254,200.16407860000254,200.16407860000254,200.16407860000254,007,P005,2025_Jan_18_1622,ConditionRich,2021.2.3,59.93608415897307,
148.75,149.0,41,0.0,Stimuli/Blank.png,0,0,0.0,0,259,259,259,,,,,,,,,,,,,148.77991440000187,0.0299144000018714,None,,200.91474540000127,200.91474540000127,200.91474540000127,200.91474540000127,200.91474540000127,200.91474540000127,200.91474540000127,200.91474540000127,200.91474540000127,200.91474540000127,007,P005,2025_Jan_18_1622,ConditionRich,2021.2.3,59.93608415897307,
149.0,149.75,3,0.75,Stimuli/P005/sun_asyidwmnobuawmax.jpg,0,0,0.0,0,260,260,260,,,,,,,,,,,,,149.01281050000034,0.012810500000341563,None,,201.14826600000015,201.14826600000015,201.14826600000015,201.14826600000015,201.14826600000015,201.14826600000015,201.14826600000015,201.14826600000015,201.14826600000015,201.14826600000015,007,P005,2025_Jan_18_1622,ConditionRich,2021.2.3,59.93608415897307,
