eventStartTime,eventEndTime,eventCond,imSize,imFile,responseEvent,fixRespStart,fixRespEnd,Events.thisRepN,Events.thisTrialN,Events.thisN,Events.thisIndex,Instructions.started,Instructions.stopped,participantReadyResponse.keys,participantReadyResponse.rt,participantReadyResponse.started,participantReadyResponse.stopped,startWaitforTrigger,triggerResponse.keys,triggerResponse.rt,triggerResponse.started,triggerResponse.stopped,globalTimer,actualStartTime,startTimingDiff,participantResponse.keys,participantResponse.rt,participantResponse.started,participantResponse.stopped,image.started,image.stopped,fixationOutside.started,fixationOutside.stopped,fixationResponse.started,fixationResponse.stopped,fixationInside.started,fixationInside.stopped,session,participant,date,expName,psychopyVersion,frameRate,
,,,,,,,,,,,,10.119130099999893,None,4,13.524038700001256,10.119130099999893,None,,,,,,,,,,,,,,,,,,,,,001,P005,2025_Jan_18_1525,ConditionRich,2021.2.3,59.94697091051016,
,,,,,,,,,,,,,,,,,,23.660059899997577,5,15.92985690000205,23.673092500001076,None,,,,,,,,,,,,,,,,001,P005,2025_Jan_18_1525,ConditionRich,2021.2.3,59.94697091051016,
0.0,4.0,0,0.0,Stimuli/Blank.png,0,0,0.0,0,0,0,0,,,,,,,,,,,,39.607875999998214,0.04719679999834625,0.04719679999834625,5,1.93243579999762,39.670492000001104,None,39.670492000001104,None,39.670492000001104,None,39.670492000001104,39.670492000001104,39.670492000001104,None,001,P005,2025_Jan_18_1525,ConditionRich,2021.2.3,59.94697091051016,
4.0,4.75,22,0.75,Stimuli/P005/things_baby_03s.jpg,1,0,0.75,0,1,1,1,,,,,,,,,,,,,4.003197800000635,0.003197800000634743,4,0.4240914000001794,43.640968100000464,43.640968100000464,43.640968100000464,43.640968100000464,43.640968100000464,43.640968100000464,43.640968100000464,44.3579467999989,43.640968100000464,43.640968100000464,001,P005,2025_Jan_18_1525,ConditionRich,2021.2.3,59.94697091051016,
4.75,5.0,41,0.0,Stimuli/Blank.png,0,0,0.0,0,2,2,2,,,,,,,,,,,,,4.771611699998175,0.021611699998175027,None,,44.408273900000495,44.408273900000495,44.408273900000495,44.408273900000495,44.408273900000495,44.408273900000495,44.408273900000495,44.408273900000495,44.408273900000495,44.408273900000495,001,P005,2025_Jan_18_1525,ConditionRich,2021.2.3,59.94697091051016,
5.0,5.75,22,0.75,Stimuli/P005/things_baby_03s.jpg,0,0,0.0,0,3,3,3,,,,,,,,,,,,,5.02036009999938,0.0203600999993796,None,,44.658214600000065,44.658214600000065,44.658214600000065,44.658214600000065,44.658214600000065,44.658214600000065,44.658214600000065,44.658214600000065,44.658214600000065,44.658214600000065,001,P005,2025_Jan_18_1525,ConditionRich,2021.2.3,59.94697091051016,
5.75,6.0,41,0.0,Stimuli/Blank.png,0,0,0.0,0,4,4,4,,,,,,,,,,,,,5.7699611999996705,0.019961199999670498,None,,45.39217659999849,45.39217659999849,45.39217659999849,45.39217659999849,45.39217659999849,45.39217659999849,45.39217659999849,45.39217659999849,45.39217659999849,45.39217659999849,001,P005,2025_Jan_18_1525,ConditionRich,2021.2.3,59.94697091051016,
6.0,6.75,22,0.75,Stimuli/P005/things_baby_03s.jpg,0,0,0.0,0,5,5,5,,,,,,,,,,,,,6.004825500000152,0.004825500000151806,None,,45.64240979999886,45.64240979999886,45.64240979999886,45.64240979999886,45.64240979999886,45.64240979999886,45.64240979999886,45.64240979999886,45.64240979999886,45.64240979999886,001,P005,2025_Jan_18_1525,ConditionRich,2021.2.3,59.94697091051016,
6.75,7.0,41,0.0,Stimuli/Blank.png,0,0,0.0,0,6,6,6,,,,,,,,,,,,,6.77138449999984,0.021384499999840045,None,,46.3930689000008,46.3930689000008,46.3930689000008,46.3930689000008,46.3930689000008,46.3930689000008,46.3930689000008,46.3930689000008,46.3930689000008,46.3930689000008,001,P005,2025_Jan_18_1525,ConditionRich,2021.2.3,59.94697091051016,
7.0,7.75,22,0.75,Stimuli/P005/things_baby_03s.jpg,0,0,0.0,0,7,7,7,,,,,,,,,,,,,7.0051939000004495,0.005193900000449503,None,,46.64328949999981,46.64328949999981,46.64328949999981,46.64328949999981,46.64328949999981,46.64328949999981,46.64328949999981,46.64328949999981,46.64328949999981,46.64328949999981,001,P005,2025_Jan_18_1525,ConditionRich,2021.2.3,59.94697091051016,
7.75,8.0,41,0.0,Stimuli/Blank.png,0,0,0.0,0,8,8,8,,,,,,,,,,,,,7.771858200001589,0.021858200001588557,None,,47.39398209999854,47.39398209999854,47.39398209999854,47.39398209999854,47.39398209999854,47.39398209999854,47.39398209999854,47.39398209999854,47.39398209999854,47.39398209999854,001,P005,2025_Jan_18_1525,ConditionRich,2021.2.3,59.94697091051016,
8.0,8.75,29,0.75,Stimuli/P005/things_guillotine_03s.jpg,0,0,0.0,0,9,9,9,,,,,,,,,,,,,8.005114100000355,0.005114100000355393,None,,47.62750959999903,47.62750959999903,47.62750959999903,47.62750959999903,47.62750959999903,47.62750959999903,47.62750959999903,47.62750959999903,47.62750959999903,47.62750959999903,001,P005,2025_Jan_18_1525,ConditionRich,2021.2.3,59.94697091051016,
8.75,9.0,41,0.0,Stimuli/Blank.png,0,0,0.0,0,10,10,10,,,,,,,,,,,,,8.756075500001316,0.006075500001315959,None,,48.3781455999997,48.3781455999997,48.3781455999997,48.3781455999997,48.3781455999997,48.3781455999997,48.3781455999997,48.3781455999997,48.3781455999997,48.3781455999997,001,P005,2025_Jan_18_1525,ConditionRich,2021.2.3,59.94697091051016,
9.0,9.75,29,0.75,Stimuli/P005/things_guillotine_03s.jpg,0,0,0.0,0,11,11,11,,,,,,,,,,,,,9.006566799998836,0.006566799998836359,None,,48.62837579999905,48.62837579999905,48.62837579999905,48.62837579999905,48.62837579999905,48.62837579999905,48.62837579999905,48.62837579999905,48.62837579999905,48.62837579999905,001,P005,2025_Jan_18_1525,ConditionRich,2021.2.3,59.94697091051016,
9.75,10.0,41,0.0,Stimuli/Blank.png,0,0,0.0,0,12,12,12,,,,,,,,,,,,,9.757533100000728,0.0075331000007281546,None,,49.379026700000395,49.379026700000395,49.379026700000395,49.379026700000395,49.379026700000395,49.379026700000395,49.379026700000395,49.379026700000395,49.379026700000395,49.379026700000395,001,P005,2025_Jan_18_1525,ConditionRich,2021.2.3,59.94697091051016,
10.0,10.75,29,0.75,Stimuli/P005/things_guillotine_03s.jpg,0,0,0.0,0,13,13,13,,,,,,,,,,,,,10.007044900001347,0.007044900001346832,None,,49.62925019999966,49.62925019999966,49.62925019999966,49.62925019999966,49.62925019999966,49.62925019999966,49.62925019999966,49.62925019999966,49.62925019999966,49.62925019999966,001,P005,2025_Jan_18_1525,ConditionRich,2021.2.3,59.94697091051016,
10.75,11.0,41,0.0,Stimuli/Blank.png,0,0,0.0,0,14,14,14,,,,,,,,,,,,,10.76043220000065,0.010432200000650482,None,,50.39659649999885,50.39659649999885,50.39659649999885,50.39659649999885,50.39659649999885,50.39659649999885,50.39659649999885,50.39659649999885,50.39659649999885,50.39659649999885,001,P005,2025_Jan_18_1525,ConditionRich,2021.2.3,59.94697091051016,
11.0,11.75,29,0.75,Stimuli/P005/things_guillotine_03s.jpg,0,0,0.0,0,15,15,15,,,,,,,,,,,,,11.02528700000039,0.025287000000389526,None,,50.64681719999862,50.64681719999862,50.64681719999862,50.64681719999862,50.64681719999862,50.64681719999862,50.64681719999862,50.64681719999862,50.64681719999862,50.64681719999862,001,P005,2025_Jan_18_1525,ConditionRich,2021.2.3,59.94697091051016,
11.75,12.0,41,0.0,Stimuli/Blank.png,0,0,0.0,0,16,16,16,,,,,,,,,,,,,11.760433700001158,0.010433700001158286,5,0.20560680000198772,51.39744319999954,51.39744319999954,51.39744319999954,51.39744319999954,51.39744319999954,51.39744319999954,51.39744319999954,51.39744319999954,51.39744319999954,51.39744319999954,001,P005,2025_Jan_18_1525,ConditionRich,2021.2.3,59.94697091051016,
12.0,12.75,31,0.75,Stimuli/P005/things_jukebox_03n.jpg,0,0,0.0,0,17,17,17,,,,,,,,,,,,,12.025963600000978,0.02596360000097775,None,,51.647692800001096,51.647692800001096,51.647692800001096,51.647692800001096,51.647692800001096,51.647692800001096,51.647692800001096,51.647692800001096,51.647692800001096,51.647692800001096,001,P005,2025_Jan_18_1525,ConditionRich,2021.2.3,59.94697091051016,
12.75,13.0,41,0.0,Stimuli/Blank.png,0,0,0.0,0,18,18,18,,,,,,,,,,,,,12.75998360000085,0.009983600000850856,None,,52.3816917999975,52.3816917999975,52.3816917999975,52.3816917999975,52.3816917999975,52.3816917999975,52.3816917999975,52.3816917999975,52.3816917999975,52.3816917999975,001,P005,2025_Jan_18_1525,ConditionRich,2021.2.3,59.94697091051016,
13.0,13.75,31,0.75,Stimuli/P005/things_jukebox_03n.jpg,0,0,0.0,0,19,19,19,,,,,,,,,,,,,13.010312800000975,0.010312800000974676,None,,52.63186339999811,52.63186339999811,52.63186339999811,52.63186339999811,52.63186339999811,52.63186339999811,52.63186339999811,52.63186339999811,52.63186339999811,52.63186339999811,001,P005,2025_Jan_18_1525,ConditionRich,2021.2.3,59.94697091051016,
13.75,14.0,41,0.0,Stimuli/Blank.png,0,0,0.0,0,20,20,20,,,,,,,,,,,,,13.760516400001507,0.010516400001506554,None,,53.38255349999963,53.38255349999963,53.38255349999963,53.38255349999963,53.38255349999963,53.38255349999963,53.38255349999963,53.38255349999963,53.38255349999963,53.38255349999963,001,P005,2025_Jan_18_1525,ConditionRich,2021.2.3,59.94697091051016,
14.0,14.75,31,0.75,Stimuli/P005/things_jukebox_03n.jpg,0,0,0.0,0,21,21,21,,,,,,,,,,,,,14.011386700000003,0.011386700000002747,None,,53.632780199997796,53.632780199997796,53.632780199997796,53.632780199997796,53.632780199997796,53.632780199997796,53.632780199997796,53.632780199997796,53.632780199997796,53.632780199997796,001,P005,2025_Jan_18_1525,ConditionRich,2021.2.3,59.94697091051016,
14.75,15.0,41,0.0,Stimuli/Blank.png,0,0,0.0,0,22,22,22,,,,,,,,,,,,,14.7618853999993,0.011885399999300716,None,,54.38342929999999,54.38342929999999,54.38342929999999,54.38342929999999,54.38342929999999,54.38342929999999,54.38342929999999,54.38342929999999,54.38342929999999,54.38342929999999,001,P005,2025_Jan_18_1525,ConditionRich,2021.2.3,59.94697091051016,
15.0,15.75,31,0.75,Stimuli/P005/things_jukebox_03n.jpg,0,0,0.0,0,23,23,23,,,,,,,,,,,,,15.011150599999382,0.011150599999382393,None,,54.633652299999085,54.633652299999085,54.633652299999085,54.633652299999085,54.633652299999085,54.633652299999085,54.633652299999085,54.633652299999085,54.633652299999085,54.633652299999085,001,P005,2025_Jan_18_1525,ConditionRich,2021.2.3,59.94697091051016,
15.75,16.0,41,0.0,Stimuli/Blank.png,0,0,0.0,0,24,24,24,,,,,,,,,,,,,15.762278700000024,0.0122787000000244,None,,55.38430510000035,55.38430510000035,55.38430510000035,55.38430510000035,55.38430510000035,55.38430510000035,55.38430510000035,55.38430510000035,55.38430510000035,55.38430510000035,001,P005,2025_Jan_18_1525,ConditionRich,2021.2.3,59.94697091051016,
16.0,16.75,39,0.75,Stimuli/P005/things_train_set_03s.jpg,0,0,0.0,0,25,25,25,,,,,,,,,,,,,16.012506700000813,0.012506700000812998,None,,55.65122209999754,55.65122209999754,55.65122209999754,55.65122209999754,55.65122209999754,55.65122209999754,55.65122209999754,55.65122209999754,55.65122209999754,55.65122209999754,001,P005,2025_Jan_18_1525,ConditionRich,2021.2.3,59.94697091051016,
16.75,17.0,41,0.0,Stimuli/Blank.png,0,0,0.0,0,26,26,26,,,,,,,,,,,,,16.77998650000154,0.02998650000154157,None,,56.40188719999787,56.40188719999787,56.40188719999787,56.40188719999787,56.40188719999787,56.40188719999787,56.40188719999787,56.40188719999787,56.40188719999787,56.40188719999787,001,P005,2025_Jan_18_1525,ConditionRich,2021.2.3,59.94697091051016,
17.0,17.75,39,0.75,Stimuli/P005/things_train_set_03s.jpg,0,0,0.0,0,27,27,27,,,,,,,,,,,,,17.015761999999086,0.015761999999085674,None,,56.65209110000069,56.65209110000069,56.65209110000069,56.65209110000069,56.65209110000069,56.65209110000069,56.65209110000069,56.65209110000069,56.65209110000069,56.65209110000069,001,P005,2025_Jan_18_1525,ConditionRich,2021.2.3,59.94697091051016,
17.75,18.0,41,0.0,Stimuli/Blank.png,0,0,0.0,0,28,28,28,,,,,,,,,,,,,17.766308300000674,0.016308300000673626,5,0.2000346000022546,57.402762099998654,57.402762099998654,57.402762099998654,57.402762099998654,57.402762099998654,57.402762099998654,57.402762099998654,57.402762099998654,57.402762099998654,57.402762099998654,001,P005,2025_Jan_18_1525,ConditionRich,2021.2.3,59.94697091051016,
18.0,18.75,39,0.75,Stimuli/P005/things_train_set_03s.jpg,0,0,0.0,0,29,29,29,,,,,,,,,,,,,18.015258799998264,0.015258799998264294,None,,57.6529773000002,57.6529773000002,57.6529773000002,57.6529773000002,57.6529773000002,57.6529773000002,57.6529773000002,57.6529773000002,57.6529773000002,57.6529773000002,001,P005,2025_Jan_18_1525,ConditionRich,2021.2.3,59.94697091051016,
18.75,19.0,41,0.0,Stimuli/Blank.png,0,0,0.0,0,30,30,30,,,,,,,,,,,,,18.76519389999885,0.015193899998848792,None,,58.386961399999564,58.386961399999564,58.386961399999564,58.386961399999564,58.386961399999564,58.386961399999564,58.386961399999564,58.386961399999564,58.386961399999564,58.386961399999564,001,P005,2025_Jan_18_1525,ConditionRich,2021.2.3,59.94697091051016,
19.0,19.75,39,0.75,Stimuli/P005/things_train_set_03s.jpg,0,0,0.0,0,31,31,31,,,,,,,,,,,,,19.016042399998696,0.016042399998696055,None,,58.63717489999908,58.63717489999908,58.63717489999908,58.63717489999908,58.63717489999908,58.63717489999908,58.63717489999908,58.63717489999908,58.63717489999908,58.63717489999908,001,P005,2025_Jan_18_1525,ConditionRich,2021.2.3,59.94697091051016,
19.75,20.0,41,0.0,Stimuli/Blank.png,0,0,0.0,0,32,32,32,,,,,,,,,,,,,19.749077299999044,-0.0009227000009559561,None,,59.371152699997765,59.371152699997765,59.371152699997765,59.371152699997765,59.371152699997765,59.371152699997765,59.371152699997765,59.371152699997765,59.371152699997765,59.371152699997765,001,P005,2025_Jan_18_1525,ConditionRich,2021.2.3,59.94697091051016,
20.0,20.75,6,0.75,Stimuli/P005/sun_bbzkhzmxdjrfjpjz.jpg,0,0,0.0,0,33,33,33,,,,,,,,,,,,,20.001486199998908,0.0014861999989079777,None,,59.6380508000002,59.6380508000002,59.6380508000002,59.6380508000002,59.6380508000002,59.6380508000002,59.6380508000002,59.6380508000002,59.6380508000002,59.6380508000002,001,P005,2025_Jan_18_1525,ConditionRich,2021.2.3,59.94697091051016,
20.75,21.0,41,0.0,Stimuli/Blank.png,0,0,0.0,0,34,34,34,,,,,,,,,,,,,20.7664549000001,0.01645490000009886,None,,60.38871389999986,60.38871389999986,60.38871389999986,60.38871389999986,60.38871389999986,60.38871389999986,60.38871389999986,60.38871389999986,60.38871389999986,60.38871389999986,001,P005,2025_Jan_18_1525,ConditionRich,2021.2.3,59.94697091051016,
21.0,21.75,6,0.75,Stimuli/P005/sun_bbzkhzmxdjrfjpjz.jpg,0,0,0.0,0,35,35,35,,,,,,,,,,,,,21.000751200001105,0.0007512000011047348,None,,60.6222577999979,60.6222577999979,60.6222577999979,60.6222577999979,60.6222577999979,60.6222577999979,60.6222577999979,60.6222577999979,60.6222577999979,60.6222577999979,001,P005,2025_Jan_18_1525,ConditionRich,2021.2.3,59.94697091051016,
21.75,22.0,41,0.0,Stimuli/Blank.png,0,0,0.0,0,36,36,36,,,,,,,,,,,,,21.75173580000046,0.0017358000004605856,5,0.21314889999848674,61.38961819999895,61.38961819999895,61.38961819999895,61.38961819999895,61.38961819999895,61.38961819999895,61.38961819999895,61.38961819999895,61.38961819999895,61.38961819999895,001,P005,2025_Jan_18_1525,ConditionRich,2021.2.3,59.94697091051016,
22.0,22.75,6,0.75,Stimuli/P005/sun_bbzkhzmxdjrfjpjz.jpg,0,0,0.0,0,37,37,37,,,,,,,,,,,,,22.017430399999284,0.01743039999928442,None,,61.63981969999804,61.63981969999804,61.63981969999804,61.63981969999804,61.63981969999804,61.63981969999804,61.63981969999804,61.63981969999804,61.63981969999804,61.63981969999804,001,P005,2025_Jan_18_1525,ConditionRich,2021.2.3,59.94697091051016,
22.75,23.0,41,0.0,Stimuli/Blank.png,0,0,0.0,0,38,38,38,,,,,,,,,,,,,22.75165669999842,0.0016566999984206632,None,,62.37379460000011,62.37379460000011,62.37379460000011,62.37379460000011,62.37379460000011,62.37379460000011,62.37379460000011,62.37379460000011,62.37379460000011,62.37379460000011,001,P005,2025_Jan_18_1525,ConditionRich,2021.2.3,59.94697091051016,
23.0,23.75,6,0.75,Stimuli/P005/sun_bbzkhzmxdjrfjpjz.jpg,0,0,0.0,0,39,39,39,,,,,,,,,,,,,23.00247870000021,0.002478700000210665,None,,62.624023500000476,62.624023500000476,62.624023500000476,62.624023500000476,62.624023500000476,62.624023500000476,62.624023500000476,62.624023500000476,62.624023500000476,62.624023500000476,001,P005,2025_Jan_18_1525,ConditionRich,2021.2.3,59.94697091051016,
23.75,24.0,41,0.0,Stimuli/Blank.png,0,0,0.0,0,40,40,40,,,,,,,,,,,,,23.753057000001718,0.0030570000017178245,None,,63.374761499999295,63.374761499999295,63.374761499999295,63.374761499999295,63.374761499999295,63.374761499999295,63.374761499999295,63.374761499999295,63.374761499999295,63.374761499999295,001,P005,2025_Jan_18_1525,ConditionRich,2021.2.3,59.94697091051016,
24.0,24.75,12,0.75,Stimuli/P005/sun_bodyuiqwqpqzwfoz.jpg,0,0,0.0,0,41,41,41,,,,,,,,,,,,,24.002633200001583,0.002633200001582736,None,,63.62487390000024,63.62487390000024,63.62487390000024,63.62487390000024,63.62487390000024,63.62487390000024,63.62487390000024,63.62487390000024,63.62487390000024,63.62487390000024,001,P005,2025_Jan_18_1525,ConditionRich,2021.2.3,59.94697091051016,
24.75,25.0,41,0.0,Stimuli/Blank.png,0,0,0.0,0,42,42,42,,,,,,,,,,,,,24.75392020000072,0.003920200000720797,None,,64.37557620000007,64.37557620000007,64.37557620000007,64.37557620000007,64.37557620000007,64.37557620000007,64.37557620000007,64.37557620000007,64.37557620000007,64.37557620000007,001,P005,2025_Jan_18_1525,ConditionRich,2021.2.3,59.94697091051016,
25.0,25.75,12,0.75,Stimuli/P005/sun_bodyuiqwqpqzwfoz.jpg,0,0,0.0,0,43,43,43,,,,,,,,,,,,,25.004036300000735,0.004036300000734627,None,,64.62577969999984,64.62577969999984,64.62577969999984,64.62577969999984,64.62577969999984,64.62577969999984,64.62577969999984,64.62577969999984,64.62577969999984,64.62577969999984,001,P005,2025_Jan_18_1525,ConditionRich,2021.2.3,59.94697091051016,
25.75,26.0,41,0.0,Stimuli/Blank.png,0,0,0.0,0,44,44,44,,,,,,,,,,,,,25.754208400001517,0.004208400001516566,None,,65.37644139999975,65.37644139999975,65.37644139999975,65.37644139999975,65.37644139999975,65.37644139999975,65.37644139999975,65.37644139999975,65.37644139999975,65.37644139999975,001,P005,2025_Jan_18_1525,ConditionRich,2021.2.3,59.94697091051016,
26.0,26.75,12,0.75,Stimuli/P005/sun_bodyuiqwqpqzwfoz.jpg,0,0,0.0,0,45,45,45,,,,,,,,,,,,,26.005051000000094,0.005051000000094064,None,,65.62665959999867,65.62665959999867,65.62665959999867,65.62665959999867,65.62665959999867,65.62665959999867,65.62665959999867,65.62665959999867,65.62665959999867,65.62665959999867,001,P005,2025_Jan_18_1525,ConditionRich,2021.2.3,59.94697091051016,
26.75,27.0,41,0.0,Stimuli/Blank.png,0,0,0.0,0,46,46,46,,,,,,,,,,,,,26.755967000000965,0.005967000000964617,None,,66.37733049999952,66.37733049999952,66.37733049999952,66.37733049999952,66.37733049999952,66.37733049999952,66.37733049999952,66.37733049999952,66.37733049999952,66.37733049999952,001,P005,2025_Jan_18_1525,ConditionRich,2021.2.3,59.94697091051016,
27.0,27.75,12,0.75,Stimuli/P005/sun_bodyuiqwqpqzwfoz.jpg,0,0,0.0,0,47,47,47,,,,,,,,,,,,,27.005225299999438,0.005225299999437993,None,,66.62755099999777,66.62755099999777,66.62755099999777,66.62755099999777,66.62755099999777,66.62755099999777,66.62755099999777,66.62755099999777,66.62755099999777,66.62755099999777,001,P005,2025_Jan_18_1525,ConditionRich,2021.2.3,59.94697091051016,
27.75,28.0,41,0.0,Stimuli/Blank.png,0,0,0.0,0,48,48,48,,,,,,,,,,,,,27.75642230000085,0.006422300000849646,None,,67.37819730000047,67.37819730000047,67.37819730000047,67.37819730000047,67.37819730000047,67.37819730000047,67.37819730000047,67.37819730000047,67.37819730000047,67.37819730000047,001,P005,2025_Jan_18_1525,ConditionRich,2021.2.3,59.94697091051016,
28.0,28.75,34,0.75,Stimuli/P005/things_patty_03s.jpg,0,0,0.0,0,49,49,49,,,,,,,,,,,,,28.00676519999979,0.006765199999790639,None,,67.6284158999988,67.6284158999988,67.6284158999988,67.6284158999988,67.6284158999988,67.6284158999988,67.6284158999988,67.6284158999988,67.6284158999988,67.6284158999988,001,P005,2025_Jan_18_1525,ConditionRich,2021.2.3,59.94697091051016,
28.75,29.0,41,0.0,Stimuli/Blank.png,0,0,0.0,0,50,50,50,,,,,,,,,,,,,28.756788399998186,0.006788399998185923,None,,68.37907600000108,68.37907600000108,68.37907600000108,68.37907600000108,68.37907600000108,68.37907600000108,68.37907600000108,68.37907600000108,68.37907600000108,68.37907600000108,001,P005,2025_Jan_18_1525,ConditionRich,2021.2.3,59.94697091051016,
29.0,29.75,34,0.75,Stimuli/P005/things_patty_03s.jpg,0,0,0.0,0,51,51,51,,,,,,,,,,,,,29.00698890000058,0.006988900000578724,None,,68.6292919999978,68.6292919999978,68.6292919999978,68.6292919999978,68.6292919999978,68.6292919999978,68.6292919999978,68.6292919999978,68.6292919999978,68.6292919999978,001,P005,2025_Jan_18_1525,ConditionRich,2021.2.3,59.94697091051016,
29.75,30.0,41,0.0,Stimuli/Blank.png,0,0,0.0,0,52,52,52,,,,,,,,,,,,,29.757710900001257,0.0077109000012569595,None,,69.37995049999881,69.37995049999881,69.37995049999881,69.37995049999881,69.37995049999881,69.37995049999881,69.37995049999881,69.37995049999881,69.37995049999881,69.37995049999881,001,P005,2025_Jan_18_1525,ConditionRich,2021.2.3,59.94697091051016,
30.0,30.75,34,0.75,Stimuli/P005/things_patty_03s.jpg,0,0,0.0,0,53,53,53,,,,,,,,,,,,,30.009079999999813,0.009079999999812571,None,,69.63017799999943,69.63017799999943,69.63017799999943,69.63017799999943,69.63017799999943,69.63017799999943,69.63017799999943,69.63017799999943,69.63017799999943,69.63017799999943,001,P005,2025_Jan_18_1525,ConditionRich,2021.2.3,59.94697091051016,
30.75,31.0,41,0.0,Stimuli/Blank.png,0,0,0.0,0,54,54,54,,,,,,,,,,,,,30.761437699999078,0.011437699999078177,None,,70.39753099999871,70.39753099999871,70.39753099999871,70.39753099999871,70.39753099999871,70.39753099999871,70.39753099999871,70.39753099999871,70.39753099999871,70.39753099999871,001,P005,2025_Jan_18_1525,ConditionRich,2021.2.3,59.94697091051016,
31.0,31.75,34,0.75,Stimuli/P005/things_patty_03s.jpg,0,0,0.0,0,55,55,55,,,,,,,,,,,,,31.025852800001303,0.025852800001302967,None,,70.64775060000102,70.64775060000102,70.64775060000102,70.64775060000102,70.64775060000102,70.64775060000102,70.64775060000102,70.64775060000102,70.64775060000102,70.64775060000102,001,P005,2025_Jan_18_1525,ConditionRich,2021.2.3,59.94697091051016,
31.75,32.0,41,0.0,Stimuli/Blank.png,0,0,0.0,0,56,56,56,,,,,,,,,,,,,31.760797200000525,0.010797200000524754,None,,71.38172750000012,71.38172750000012,71.38172750000012,71.38172750000012,71.38172750000012,71.38172750000012,71.38172750000012,71.38172750000012,71.38172750000012,71.38172750000012,001,P005,2025_Jan_18_1525,ConditionRich,2021.2.3,59.94697091051016,
32.0,32.75,36,0.75,Stimuli/P005/things_pony_03s.jpg,0,0,0.0,0,57,57,57,,,,,,,,,,,,,32.01008500000171,0.010085000001708977,None,,71.64861609999934,71.64861609999934,71.64861609999934,71.64861609999934,71.64861609999934,71.64861609999934,71.64861609999934,71.64861609999934,71.64861609999934,71.64861609999934,001,P005,2025_Jan_18_1525,ConditionRich,2021.2.3,59.94697091051016,
32.75,33.0,41,0.0,Stimuli/Blank.png,0,0,0.0,0,58,58,58,,,,,,,,,,,,,32.77675269999963,0.026752699999633478,None,,72.39928439999858,72.39928439999858,72.39928439999858,72.39928439999858,72.39928439999858,72.39928439999858,72.39928439999858,72.39928439999858,72.39928439999858,72.39928439999858,001,P005,2025_Jan_18_1525,ConditionRich,2021.2.3,59.94697091051016,
33.0,33.75,36,0.75,Stimuli/P005/things_pony_03s.jpg,1,0,0.75,0,59,59,59,,,,,,,,,,,,,33.01107530000081,0.011075300000811694,4,0.5161055999997188,72.64954439999929,72.64954439999929,72.64954439999929,72.64954439999929,72.64954439999929,72.64954439999929,72.64954439999929,73.36679670000012,72.64954439999929,72.64954439999929,001,P005,2025_Jan_18_1525,ConditionRich,2021.2.3,59.94697091051016,
33.75,34.0,41,0.0,Stimuli/Blank.png,0,0,0.0,0,60,60,60,,,,,,,,,,,,,33.77800769999885,0.02800769999885233,None,,73.40015679999851,73.40015679999851,73.40015679999851,73.40015679999851,73.40015679999851,73.40015679999851,73.40015679999851,73.40015679999851,73.40015679999851,73.40015679999851,001,P005,2025_Jan_18_1525,ConditionRich,2021.2.3,59.94697091051016,
34.0,34.75,36,0.75,Stimuli/P005/things_pony_03s.jpg,0,0,0.0,0,61,61,61,,,,,,,,,,,,,34.011105300000054,0.01110530000005383,None,,73.63369989999774,73.63369989999774,73.63369989999774,73.63369989999774,73.63369989999774,73.63369989999774,73.63369989999774,73.63369989999774,73.63369989999774,73.63369989999774,001,P005,2025_Jan_18_1525,ConditionRich,2021.2.3,59.94697091051016,
34.75,35.0,41,0.0,Stimuli/Blank.png,0,0,0.0,0,62,62,62,,,,,,,,,,,,,34.762324600000284,0.01232460000028368,None,,74.38436000000002,74.38436000000002,74.38436000000002,74.38436000000002,74.38436000000002,74.38436000000002,74.38436000000002,74.38436000000002,74.38436000000002,74.38436000000002,001,P005,2025_Jan_18_1525,ConditionRich,2021.2.3,59.94697091051016,
35.0,35.75,36,0.75,Stimuli/P005/things_pony_03s.jpg,0,0,0.0,0,63,63,63,,,,,,,,,,,,,35.012755200001266,0.01275520000126562,None,,74.63457819999894,74.63457819999894,74.63457819999894,74.63457819999894,74.63457819999894,74.63457819999894,74.63457819999894,74.63457819999894,74.63457819999894,74.63457819999894,001,P005,2025_Jan_18_1525,ConditionRich,2021.2.3,59.94697091051016,
35.75,36.0,41,0.0,Stimuli/Blank.png,0,0,0.0,0,64,64,64,,,,,,,,,,,,,35.765274900000804,0.015274900000804337,5,0.20070119999945746,75.40196780000042,75.40196780000042,75.40196780000042,75.40196780000042,75.40196780000042,75.40196780000042,75.40196780000042,75.40196780000042,75.40196780000042,75.40196780000042,001,P005,2025_Jan_18_1525,ConditionRich,2021.2.3,59.94697091051016,
36.0,36.75,35,0.75,Stimuli/P005/things_pig_03s.jpg,0,0,0.0,0,65,65,65,,,,,,,,,,,,,36.030857699999615,0.03085769999961485,None,,75.65214879999985,75.65214879999985,75.65214879999985,75.65214879999985,75.65214879999985,75.65214879999985,75.65214879999985,75.65214879999985,75.65214879999985,75.65214879999985,001,P005,2025_Jan_18_1525,ConditionRich,2021.2.3,59.94697091051016,
36.75,37.0,41,0.0,Stimuli/Blank.png,0,0,0.0,0,66,66,66,,,,,,,,,,,,,36.764690100000735,0.014690100000734674,None,,76.38612839999769,76.38612839999769,76.38612839999769,76.38612839999769,76.38612839999769,76.38612839999769,76.38612839999769,76.38612839999769,76.38612839999769,76.38612839999769,001,P005,2025_Jan_18_1525,ConditionRich,2021.2.3,59.94697091051016,
37.0,37.75,35,0.75,Stimuli/P005/things_pig_03s.jpg,0,0,0.0,0,67,67,67,,,,,,,,,,,,,37.01499120000153,0.014991200001531979,None,,76.65303539999877,76.65303539999877,76.65303539999877,76.65303539999877,76.65303539999877,76.65303539999877,76.65303539999877,76.65303539999877,76.65303539999877,76.65303539999877,001,P005,2025_Jan_18_1525,ConditionRich,2021.2.3,59.94697091051016,
37.75,38.0,41,0.0,Stimuli/Blank.png,0,0,0.0,0,68,68,68,,,,,,,,,,,,,37.78138580000086,0.03138580000086222,5,0.19911769999816897,77.40368490000037,77.40368490000037,77.40368490000037,77.40368490000037,77.40368490000037,77.40368490000037,77.40368490000037,77.40368490000037,77.40368490000037,77.40368490000037,001,P005,2025_Jan_18_1525,ConditionRich,2021.2.3,59.94697091051016,
38.0,38.75,35,0.75,Stimuli/P005/things_pig_03s.jpg,0,0,0.0,0,69,69,69,,,,,,,,,,,,,38.01477739999973,0.014777399999729823,None,,77.6372268999985,77.6372268999985,77.6372268999985,77.6372268999985,77.6372268999985,77.6372268999985,77.6372268999985,77.6372268999985,77.6372268999985,77.6372268999985,001,P005,2025_Jan_18_1525,ConditionRich,2021.2.3,59.94697091051016,
38.75,39.0,41,0.0,Stimuli/Blank.png,0,0,0.0,0,70,70,70,,,,,,,,,,,,,38.766092499998194,0.0160924999981944,None,,78.38788909999857,78.38788909999857,78.38788909999857,78.38788909999857,78.38788909999857,78.38788909999857,78.38788909999857,78.38788909999857,78.38788909999857,78.38788909999857,001,P005,2025_Jan_18_1525,ConditionRich,2021.2.3,59.94697091051016,
39.0,39.75,35,0.75,Stimuli/P005/things_pig_03s.jpg,0,0,0.0,0,71,71,71,,,,,,,,,,,,,38.9998291999982,-0.00017080000179703347,None,,78.63810770000055,78.63810770000055,78.63810770000055,78.63810770000055,78.63810770000055,78.63810770000055,78.63810770000055,78.63810770000055,78.63810770000055,78.63810770000055,001,P005,2025_Jan_18_1525,ConditionRich,2021.2.3,59.94697091051016,
39.75,40.0,41,0.0,Stimuli/Blank.png,0,0,0.0,0,72,72,72,,,,,,,,,,,,,39.767199099998834,0.017199099998833844,None,,79.38877320000029,79.38877320000029,79.38877320000029,79.38877320000029,79.38877320000029,79.38877320000029,79.38877320000029,79.38877320000029,79.38877320000029,79.38877320000029,001,P005,2025_Jan_18_1525,ConditionRich,2021.2.3,59.94697091051016,
40.0,40.75,16,0.75,Stimuli/P005/sun_bwentnobehmvaxkp.jpg,0,0,0.0,0,73,73,73,,,,,,,,,,,,,39.99990099999923,-9.900000077323057e-05,None,,79.6389835000009,79.6389835000009,79.6389835000009,79.6389835000009,79.6389835000009,79.6389835000009,79.6389835000009,79.6389835000009,79.6389835000009,79.6389835000009,001,P005,2025_Jan_18_1525,ConditionRich,2021.2.3,59.94697091051016,
40.75,41.0,41,0.0,Stimuli/Blank.png,0,0,0.0,0,74,74,74,,,,,,,,,,,,,40.77015469999969,0.02015469999969355,None,,80.40633009999874,80.40633009999874,80.40633009999874,80.40633009999874,80.40633009999874,80.40633009999874,80.40633009999874,80.40633009999874,80.40633009999874,80.40633009999874,001,P005,2025_Jan_18_1525,ConditionRich,2021.2.3,59.94697091051016,
41.0,41.75,16,0.75,Stimuli/P005/sun_bwentnobehmvaxkp.jpg,0,0,0.0,0,75,75,75,,,,,,,,,,,,,41.0180623999986,0.018062399998598266,None,,80.63987690000067,80.63987690000067,80.63987690000067,80.63987690000067,80.63987690000067,80.63987690000067,80.63987690000067,80.63987690000067,80.63987690000067,80.63987690000067,001,P005,2025_Jan_18_1525,ConditionRich,2021.2.3,59.94697091051016,
41.75,42.0,41,0.0,Stimuli/Blank.png,0,0,0.0,0,76,76,76,,,,,,,,,,,,,41.752273900001455,0.0022739000014553312,None,,81.37384539999766,81.37384539999766,81.37384539999766,81.37384539999766,81.37384539999766,81.37384539999766,81.37384539999766,81.37384539999766,81.37384539999766,81.37384539999766,001,P005,2025_Jan_18_1525,ConditionRich,2021.2.3,59.94697091051016,
42.0,42.75,16,0.75,Stimuli/P005/sun_bwentnobehmvaxkp.jpg,0,0,0.0,0,77,77,77,,,,,,,,,,,,,42.00264529999913,0.002645299999130657,None,,81.6407627999979,81.6407627999979,81.6407627999979,81.6407627999979,81.6407627999979,81.6407627999979,81.6407627999979,81.6407627999979,81.6407627999979,81.6407627999979,001,P005,2025_Jan_18_1525,ConditionRich,2021.2.3,59.94697091051016,
42.75,43.0,41,0.0,Stimuli/Blank.png,0,0,0.0,0,78,78,78,,,,,,,,,,,,,42.76997309999933,0.0199730999993335,None,,82.39141459999882,82.39141459999882,82.39141459999882,82.39141459999882,82.39141459999882,82.39141459999882,82.39141459999882,82.39141459999882,82.39141459999882,82.39141459999882,001,P005,2025_Jan_18_1525,ConditionRich,2021.2.3,59.94697091051016,
43.0,43.75,16,0.75,Stimuli/P005/sun_bwentnobehmvaxkp.jpg,0,0,0.0,0,79,79,79,,,,,,,,,,,,,43.002787099998386,0.002787099998386111,None,,82.64164049999818,82.64164049999818,82.64164049999818,82.64164049999818,82.64164049999818,82.64164049999818,82.64164049999818,82.64164049999818,82.64164049999818,82.64164049999818,001,P005,2025_Jan_18_1525,ConditionRich,2021.2.3,59.94697091051016,
43.75,44.0,41,0.0,Stimuli/Blank.png,0,0,0.0,0,80,80,80,,,,,,,,,,,,,43.77106460000141,0.021064600001409417,None,,83.39230029999817,83.39230029999817,83.39230029999817,83.39230029999817,83.39230029999817,83.39230029999817,83.39230029999817,83.39230029999817,83.39230029999817,83.39230029999817,001,P005,2025_Jan_18_1525,ConditionRich,2021.2.3,59.94697091051016,
44.0,44.75,18,0.75,Stimuli/P005/sun_bzqhpcsgzswozfhs.jpg,0,0,0.0,0,81,81,81,,,,,,,,,,,,,44.00389310000173,0.0038931000017328188,None,,83.64249349999955,83.64249349999955,83.64249349999955,83.64249349999955,83.64249349999955,83.64249349999955,83.64249349999955,83.64249349999955,83.64249349999955,83.64249349999955,001,P005,2025_Jan_18_1525,ConditionRich,2021.2.3,59.94697091051016,
44.75,45.0,41,0.0,Stimuli/Blank.png,0,0,0.0,0,82,82,82,,,,,,,,,,,,,44.77134559999831,0.021345599998312537,None,,84.39317949999895,84.39317949999895,84.39317949999895,84.39317949999895,84.39317949999895,84.39317949999895,84.39317949999895,84.39317949999895,84.39317949999895,84.39317949999895,001,P005,2025_Jan_18_1525,ConditionRich,2021.2.3,59.94697091051016,
45.0,45.75,18,0.75,Stimuli/P005/sun_bzqhpcsgzswozfhs.jpg,0,0,0.0,0,83,83,83,,,,,,,,,,,,,45.005160000000615,0.005160000000614673,None,,84.64338990000033,84.64338990000033,84.64338990000033,84.64338990000033,84.64338990000033,84.64338990000033,84.64338990000033,84.64338990000033,84.64338990000033,84.64338990000033,001,P005,2025_Jan_18_1525,ConditionRich,2021.2.3,59.94697091051016,
45.75,46.0,41,0.0,Stimuli/Blank.png,0,0,0.0,0,84,84,84,,,,,,,,,,,,,45.771508199999516,0.021508199999516364,None,,85.39404669999931,85.39404669999931,85.39404669999931,85.39404669999931,85.39404669999931,85.39404669999931,85.39404669999931,85.39404669999931,85.39404669999931,85.39404669999931,001,P005,2025_Jan_18_1525,ConditionRich,2021.2.3,59.94697091051016,
46.0,46.75,18,0.75,Stimuli/P005/sun_bzqhpcsgzswozfhs.jpg,0,0,0.0,0,85,85,85,,,,,,,,,,,,,46.00581040000179,0.005810400001792004,None,,85.64426000000094,85.64426000000094,85.64426000000094,85.64426000000094,85.64426000000094,85.64426000000094,85.64426000000094,85.64426000000094,85.64426000000094,85.64426000000094,001,P005,2025_Jan_18_1525,ConditionRich,2021.2.3,59.94697091051016,
46.75,47.0,41,0.0,Stimuli/Blank.png,0,0,0.0,0,86,86,86,,,,,,,,,,,,,46.775139800000034,0.025139800000033574,None,,86.41162089999852,86.41162089999852,86.41162089999852,86.41162089999852,86.41162089999852,86.41162089999852,86.41162089999852,86.41162089999852,86.41162089999852,86.41162089999852,001,P005,2025_Jan_18_1525,ConditionRich,2021.2.3,59.94697091051016,
47.0,47.75,18,0.75,Stimuli/P005/sun_bzqhpcsgzswozfhs.jpg,0,0,0.0,0,87,87,87,,,,,,,,,,,,,47.025438900000154,0.025438900000153808,None,,86.66183779999847,86.66183779999847,86.66183779999847,86.66183779999847,86.66183779999847,86.66183779999847,86.66183779999847,86.66183779999847,86.66183779999847,86.66183779999847,001,P005,2025_Jan_18_1525,ConditionRich,2021.2.3,59.94697091051016,
47.75,48.0,41,0.0,Stimuli/Blank.png,0,0,0.0,0,88,88,88,,,,,,,,,,,,,47.77544729999863,0.025447299998631934,5,0.19011289999980363,87.41251779999948,87.41251779999948,87.41251779999948,87.41251779999948,87.41251779999948,87.41251779999948,87.41251779999948,87.41251779999948,87.41251779999948,87.41251779999948,001,P005,2025_Jan_18_1525,ConditionRich,2021.2.3,59.94697091051016,
48.0,48.75,4,0.75,Stimuli/P005/sun_auwghripdoxzluuk.jpg,0,0,0.0,0,89,89,89,,,,,,,,,,,,,48.025974100000894,0.025974100000894396,None,,87.67936339999869,87.67936339999869,87.67936339999869,87.67936339999869,87.67936339999869,87.67936339999869,87.67936339999869,87.67936339999869,87.67936339999869,87.67936339999869,001,P005,2025_Jan_18_1525,ConditionRich,2021.2.3,59.94697091051016,
48.75,49.0,41,0.0,Stimuli/Blank.png,0,0,0.0,0,90,90,90,,,,,,,,,,,,,48.7915553999992,0.04155539999919711,None,,88.41337819999899,88.41337819999899,88.41337819999899,88.41337819999899,88.41337819999899,88.41337819999899,88.41337819999899,88.41337819999899,88.41337819999899,88.41337819999899,001,P005,2025_Jan_18_1525,ConditionRich,2021.2.3,59.94697091051016,
49.0,49.75,4,0.75,Stimuli/P005/sun_auwghripdoxzluuk.jpg,0,0,0.0,0,91,91,91,,,,,,,,,,,,,49.01031890000013,0.01031890000012936,None,,88.64691419999872,88.64691419999872,88.64691419999872,88.64691419999872,88.64691419999872,88.64691419999872,88.64691419999872,88.64691419999872,88.64691419999872,88.64691419999872,001,P005,2025_Jan_18_1525,ConditionRich,2021.2.3,59.94697091051016,
49.75,50.0,41,0.0,Stimuli/Blank.png,0,0,0.0,0,92,92,92,,,,,,,,,,,,,49.77582600000096,0.025826000000961358,None,,89.3975767999982,89.3975767999982,89.3975767999982,89.3975767999982,89.3975767999982,89.3975767999982,89.3975767999982,89.3975767999982,89.3975767999982,89.3975767999982,001,P005,2025_Jan_18_1525,ConditionRich,2021.2.3,59.94697091051016,
50.0,50.75,4,0.75,Stimuli/P005/sun_auwghripdoxzluuk.jpg,0,0,0.0,0,93,93,93,,,,,,,,,,,,,50.010718099998485,0.010718099998484831,None,,89.64780279999832,89.64780279999832,89.64780279999832,89.64780279999832,89.64780279999832,89.64780279999832,89.64780279999832,89.64780279999832,89.64780279999832,89.64780279999832,001,P005,2025_Jan_18_1525,ConditionRich,2021.2.3,59.94697091051016,
50.75,51.0,41,0.0,Stimuli/Blank.png,0,0,0.0,0,94,94,94,,,,,,,,,,,,,50.77660610000021,0.026606100000208244,None,,90.39845090000017,90.39845090000017,90.39845090000017,90.39845090000017,90.39845090000017,90.39845090000017,90.39845090000017,90.39845090000017,90.39845090000017,90.39845090000017,001,P005,2025_Jan_18_1525,ConditionRich,2021.2.3,59.94697091051016,
51.0,51.75,4,0.75,Stimuli/P005/sun_auwghripdoxzluuk.jpg,0,0,0.0,0,95,95,95,,,,,,,,,,,,,51.01008939999883,0.01008939999883296,None,,90.6319908000005,90.6319908000005,90.6319908000005,90.6319908000005,90.6319908000005,90.6319908000005,90.6319908000005,90.6319908000005,90.6319908000005,90.6319908000005,001,P005,2025_Jan_18_1525,ConditionRich,2021.2.3,59.94697091051016,
51.75,52.0,41,0.0,Stimuli/Blank.png,0,0,0.0,0,96,96,96,,,,,,,,,,,,,51.76095200000054,0.010952000000543194,None,,91.38264630000049,91.38264630000049,91.38264630000049,91.38264630000049,91.38264630000049,91.38264630000049,91.38264630000049,91.38264630000049,91.38264630000049,91.38264630000049,001,P005,2025_Jan_18_1525,ConditionRich,2021.2.3,59.94697091051016,
52.0,52.75,30,0.75,Stimuli/P005/things_hood_03s.jpg,0,0,0.0,0,97,97,97,,,,,,,,,,,,,52.01156849999825,0.011568499998247717,None,,91.6495537999981,91.6495537999981,91.6495537999981,91.6495537999981,91.6495537999981,91.6495537999981,91.6495537999981,91.6495537999981,91.6495537999981,91.6495537999981,001,P005,2025_Jan_18_1525,ConditionRich,2021.2.3,59.94697091051016,
52.75,53.0,41,0.0,Stimuli/Blank.png,0,0,0.0,0,98,98,98,,,,,,,,,,,,,52.77863470000011,0.02863470000011148,None,,92.40022279999903,92.40022279999903,92.40022279999903,92.40022279999903,92.40022279999903,92.40022279999903,92.40022279999903,92.40022279999903,92.40022279999903,92.40022279999903,001,P005,2025_Jan_18_1525,ConditionRich,2021.2.3,59.94697091051016,
53.0,53.75,30,0.75,Stimuli/P005/things_hood_03s.jpg,0,0,0.0,0,99,99,99,,,,,,,,,,,,,53.01188259999981,0.011882599999808008,None,,92.6337483999996,92.6337483999996,92.6337483999996,92.6337483999996,92.6337483999996,92.6337483999996,92.6337483999996,92.6337483999996,92.6337483999996,92.6337483999996,001,P005,2025_Jan_18_1525,ConditionRich,2021.2.3,59.94697091051016,
53.75,54.0,41,0.0,Stimuli/Blank.png,0,0,0.0,0,100,100,100,,,,,,,,,,,,,53.7620711999989,0.012071199998899829,None,,93.38438920000044,93.38438920000044,93.38438920000044,93.38438920000044,93.38438920000044,93.38438920000044,93.38438920000044,93.38438920000044,93.38438920000044,93.38438920000044,001,P005,2025_Jan_18_1525,ConditionRich,2021.2.3,59.94697091051016,
54.0,54.75,30,0.75,Stimuli/P005/things_hood_03s.jpg,0,0,0.0,0,101,101,101,,,,,,,,,,,,,54.01249649999954,0.01249649999954272,None,,93.65132689999882,93.65132689999882,93.65132689999882,93.65132689999882,93.65132689999882,93.65132689999882,93.65132689999882,93.65132689999882,93.65132689999882,93.65132689999882,001,P005,2025_Jan_18_1525,ConditionRich,2021.2.3,59.94697091051016,
54.75,55.0,41,0.0,Stimuli/Blank.png,0,0,0.0,0,102,102,102,,,,,,,,,,,,,54.7809840000009,0.03098400000089896,None,,94.40197379999881,94.40197379999881,94.40197379999881,94.40197379999881,94.40197379999881,94.40197379999881,94.40197379999881,94.40197379999881,94.40197379999881,94.40197379999881,001,P005,2025_Jan_18_1525,ConditionRich,2021.2.3,59.94697091051016,
55.0,55.75,30,0.75,Stimuli/P005/things_hood_03s.jpg,0,0,0.0,0,103,103,103,,,,,,,,,,,,,55.01534520000132,0.015345200001320336,None,,94.65219689999867,94.65219689999867,94.65219689999867,94.65219689999867,94.65219689999867,94.65219689999867,94.65219689999867,94.65219689999867,94.65219689999867,94.65219689999867,001,P005,2025_Jan_18_1525,ConditionRich,2021.2.3,59.94697091051016,
55.75,56.0,41,0.0,Stimuli/Blank.png,0,0,0.0,0,104,104,104,,,,,,,,,,,,,55.76571840000179,0.015718400001787813,5,0.19969330000094487,95.40285759999824,95.40285759999824,95.40285759999824,95.40285759999824,95.40285759999824,95.40285759999824,95.40285759999824,95.40285759999824,95.40285759999824,95.40285759999824,001,P005,2025_Jan_18_1525,ConditionRich,2021.2.3,59.94697091051016,
56.0,56.75,27,0.75,Stimuli/P005/things_first-aid_kit_03s.jpg,0,0,0.0,0,105,105,105,,,,,,,,,,,,,56.014511699999275,0.014511699999275152,None,,95.66977489999772,95.66977489999772,95.66977489999772,95.66977489999772,95.66977489999772,95.66977489999772,95.66977489999772,95.66977489999772,95.66977489999772,95.66977489999772,001,P005,2025_Jan_18_1525,ConditionRich,2021.2.3,59.94697091051016,
56.75,57.0,41,0.0,Stimuli/Blank.png,0,0,0.0,0,106,106,106,,,,,,,,,,,,,56.80035510000016,0.050355100000160746,None,,96.4371057999997,96.4371057999997,96.4371057999997,96.4371057999997,96.4371057999997,96.4371057999997,96.4371057999997,96.4371057999997,96.4371057999997,96.4371057999997,001,P005,2025_Jan_18_1525,ConditionRich,2021.2.3,59.94697091051016,
57.0,57.75,27,0.75,Stimuli/P005/things_first-aid_kit_03s.jpg,0,0,0.0,0,107,107,107,,,,,,,,,,,,,57.0157693000001,0.015769300000101794,None,,96.65398129999812,96.65398129999812,96.65398129999812,96.65398129999812,96.65398129999812,96.65398129999812,96.65398129999812,96.65398129999812,96.65398129999812,96.65398129999812,001,P005,2025_Jan_18_1525,ConditionRich,2021.2.3,59.94697091051016,
57.75,58.0,41,0.0,Stimuli/Blank.png,0,0,0.0,0,108,108,108,,,,,,,,,,,,,57.765957499999786,0.015957499999785796,None,,97.38793599999917,97.38793599999917,97.38793599999917,97.38793599999917,97.38793599999917,97.38793599999917,97.38793599999917,97.38793599999917,97.38793599999917,97.38793599999917,001,P005,2025_Jan_18_1525,ConditionRich,2021.2.3,59.94697091051016,
58.0,58.75,27,0.75,Stimuli/P005/things_first-aid_kit_03s.jpg,0,0,0.0,0,109,109,109,,,,,,,,,,,,,58.000015300000086,1.5300000086426735e-05,None,,97.6381541999981,97.6381541999981,97.6381541999981,97.6381541999981,97.6381541999981,97.6381541999981,97.6381541999981,97.6381541999981,97.6381541999981,97.6381541999981,001,P005,2025_Jan_18_1525,ConditionRich,2021.2.3,59.94697091051016,
58.75,59.0,41,0.0,Stimuli/Blank.png,0,0,0.0,0,110,110,110,,,,,,,,,,,,,58.766910300000745,0.016910300000745337,None,,98.3888025999986,98.3888025999986,98.3888025999986,98.3888025999986,98.3888025999986,98.3888025999986,98.3888025999986,98.3888025999986,98.3888025999986,98.3888025999986,001,P005,2025_Jan_18_1525,ConditionRich,2021.2.3,59.94697091051016,
59.0,59.75,27,0.75,Stimuli/P005/things_first-aid_kit_03s.jpg,0,0,0.0,0,111,111,111,,,,,,,,,,,,,59.00091020000036,0.0009102000003622379,None,,98.62236579999808,98.62236579999808,98.62236579999808,98.62236579999808,98.62236579999808,98.62236579999808,98.62236579999808,98.62236579999808,98.62236579999808,98.62236579999808,001,P005,2025_Jan_18_1525,ConditionRich,2021.2.3,59.94697091051016,
59.75,60.0,41,0.0,Stimuli/Blank.png,0,0,0.0,0,112,112,112,,,,,,,,,,,,,59.75092349999977,0.0009234999997715931,None,,99.37301909999951,99.37301909999951,99.37301909999951,99.37301909999951,99.37301909999951,99.37301909999951,99.37301909999951,99.37301909999951,99.37301909999951,99.37301909999951,001,P005,2025_Jan_18_1525,ConditionRich,2021.2.3,59.94697091051016,
60.0,60.75,28,0.75,Stimuli/P005/things_girl_03s.jpg,1,0,0.75,0,113,113,113,,,,,,,,,,,,,60.00139399999898,0.0013939999989815988,4,0.47130120000292663,99.65661069999987,99.65661069999987,99.65661069999987,99.65661069999987,99.65661069999987,99.65661069999987,99.65661069999987,100.39058099999966,99.65661069999987,99.65661069999987,001,P005,2025_Jan_18_1525,ConditionRich,2021.2.3,59.94697091051016,
60.75,61.0,41,0.0,Stimuli/Blank.png,0,0,0.0,0,114,114,114,,,,,,,,,,,,,60.78509159999885,0.03509159999885014,None,,100.40726549999818,100.40726549999818,100.40726549999818,100.40726549999818,100.40726549999818,100.40726549999818,100.40726549999818,100.40726549999818,100.40726549999818,100.40726549999818,001,P005,2025_Jan_18_1525,ConditionRich,2021.2.3,59.94697091051016,
61.0,61.75,28,0.75,Stimuli/P005/things_girl_03s.jpg,0,0,0.0,0,115,115,115,,,,,,,,,,,,,61.00229970000146,0.0022997000014584046,None,,100.64079969999875,100.64079969999875,100.64079969999875,100.64079969999875,100.64079969999875,100.64079969999875,100.64079969999875,100.64079969999875,100.64079969999875,100.64079969999875,001,P005,2025_Jan_18_1525,ConditionRich,2021.2.3,59.94697091051016,
61.75,62.0,41,0.0,Stimuli/Blank.png,0,0,0.0,0,116,116,116,,,,,,,,,,,,,61.76983770000152,0.019837700001517078,None,,101.39146329999858,101.39146329999858,101.39146329999858,101.39146329999858,101.39146329999858,101.39146329999858,101.39146329999858,101.39146329999858,101.39146329999858,101.39146329999858,001,P005,2025_Jan_18_1525,ConditionRich,2021.2.3,59.94697091051016,
62.0,62.75,28,0.75,Stimuli/P005/things_girl_03s.jpg,0,0,0.0,0,117,117,117,,,,,,,,,,,,,62.00468049999836,0.0046804999983578455,None,,101.62503210000068,101.62503210000068,101.62503210000068,101.62503210000068,101.62503210000068,101.62503210000068,101.62503210000068,101.62503210000068,101.62503210000068,101.62503210000068,001,P005,2025_Jan_18_1525,ConditionRich,2021.2.3,59.94697091051016,
62.75,63.0,41,0.0,Stimuli/Blank.png,0,0,0.0,0,118,118,118,,,,,,,,,,,,,62.75605060000089,0.006050600000889972,None,,102.39236669999809,102.39236669999809,102.39236669999809,102.39236669999809,102.39236669999809,102.39236669999809,102.39236669999809,102.39236669999809,102.39236669999809,102.39236669999809,001,P005,2025_Jan_18_1525,ConditionRich,2021.2.3,59.94697091051016,
63.0,63.75,28,0.75,Stimuli/P005/things_girl_03s.jpg,0,0,0.0,0,119,119,119,,,,,,,,,,,,,63.02088739999817,0.02088739999817335,None,,102.65925499999867,102.65925499999867,102.65925499999867,102.65925499999867,102.65925499999867,102.65925499999867,102.65925499999867,102.65925499999867,102.65925499999867,102.65925499999867,001,P005,2025_Jan_18_1525,ConditionRich,2021.2.3,59.94697091051016,
63.75,64.0,41,0.0,Stimuli/Blank.png,0,0,0.0,0,120,120,120,,,,,,,,,,,,,63.77149239999926,0.02149239999926067,None,,103.3932132000009,103.3932132000009,103.3932132000009,103.3932132000009,103.3932132000009,103.3932132000009,103.3932132000009,103.3932132000009,103.3932132000009,103.3932132000009,001,P005,2025_Jan_18_1525,ConditionRich,2021.2.3,59.94697091051016,
64.0,64.75,8,0.75,Stimuli/P005/sun_bekkgqphzbclwpvb.jpg,0,0,0.0,0,121,121,121,,,,,,,,,,,,,64.00488830000177,0.0048883000017667655,None,,103.64344179999898,103.64344179999898,103.64344179999898,103.64344179999898,103.64344179999898,103.64344179999898,103.64344179999898,103.64344179999898,103.64344179999898,103.64344179999898,001,P005,2025_Jan_18_1525,ConditionRich,2021.2.3,59.94697091051016,
64.75,65.0,41,0.0,Stimuli/Blank.png,0,0,0.0,0,122,122,122,,,,,,,,,,,,,64.77283240000179,0.02283240000178921,None,,104.39410769999813,104.39410769999813,104.39410769999813,104.39410769999813,104.39410769999813,104.39410769999813,104.39410769999813,104.39410769999813,104.39410769999813,104.39410769999813,001,P005,2025_Jan_18_1525,ConditionRich,2021.2.3,59.94697091051016,
65.0,65.75,8,0.75,Stimuli/P005/sun_bekkgqphzbclwpvb.jpg,0,0,0.0,0,123,123,123,,,,,,,,,,,,,65.00564179999856,0.005641799998556962,None,,104.62763659999837,104.62763659999837,104.62763659999837,104.62763659999837,104.62763659999837,104.62763659999837,104.62763659999837,104.62763659999837,104.62763659999837,104.62763659999837,001,P005,2025_Jan_18_1525,ConditionRich,2021.2.3,59.94697091051016,
65.75,66.0,41,0.0,Stimuli/Blank.png,0,0,0.0,0,124,124,124,,,,,,,,,,,,,65.75668619999851,0.006686199998512166,None,,105.37830219999887,105.37830219999887,105.37830219999887,105.37830219999887,105.37830219999887,105.37830219999887,105.37830219999887,105.37830219999887,105.37830219999887,105.37830219999887,001,P005,2025_Jan_18_1525,ConditionRich,2021.2.3,59.94697091051016,
66.0,66.75,8,0.75,Stimuli/P005/sun_bekkgqphzbclwpvb.jpg,0,0,0.0,0,125,125,125,,,,,,,,,,,,,66.0067995999998,0.0067995999997947365,None,,105.62851450000016,105.62851450000016,105.62851450000016,105.62851450000016,105.62851450000016,105.62851450000016,105.62851450000016,105.62851450000016,105.62851450000016,105.62851450000016,001,P005,2025_Jan_18_1525,ConditionRich,2021.2.3,59.94697091051016,
66.75,67.0,41,0.0,Stimuli/Blank.png,0,0,0.0,0,126,126,126,,,,,,,,,,,,,66.7567573999986,0.006757399998605251,None,,106.37917409999864,106.37917409999864,106.37917409999864,106.37917409999864,106.37917409999864,106.37917409999864,106.37917409999864,106.37917409999864,106.37917409999864,106.37917409999864,001,P005,2025_Jan_18_1525,ConditionRich,2021.2.3,59.94697091051016,
67.0,67.75,8,0.75,Stimuli/P005/sun_bekkgqphzbclwpvb.jpg,0,0,0.0,0,127,127,127,,,,,,,,,,,,,67.00783909999882,0.00783909999881871,None,,106.64607009999963,106.64607009999963,106.64607009999963,106.64607009999963,106.64607009999963,106.64607009999963,106.64607009999963,106.64607009999963,106.64607009999963,106.64607009999963,001,P005,2025_Jan_18_1525,ConditionRich,2021.2.3,59.94697091051016,
67.75,68.0,41,0.0,Stimuli/Blank.png,0,0,0.0,0,128,128,128,,,,,,,,,,,,,67.77559689999907,0.025596899999072775,None,,107.39674639999794,107.39674639999794,107.39674639999794,107.39674639999794,107.39674639999794,107.39674639999794,107.39674639999794,107.39674639999794,107.39674639999794,107.39674639999794,001,P005,2025_Jan_18_1525,ConditionRich,2021.2.3,59.94697091051016,
68.0,68.75,19,0.75,Stimuli/P005/sun_czspalxthlkjwoat.jpg,0,0,0.0,0,129,129,129,,,,,,,,,,,,,68.00902069999938,0.009020699999382487,None,,107.64696170000025,107.64696170000025,107.64696170000025,107.64696170000025,107.64696170000025,107.64696170000025,107.64696170000025,107.64696170000025,107.64696170000025,107.64696170000025,001,P005,2025_Jan_18_1525,ConditionRich,2021.2.3,59.94697091051016,
68.75,69.0,41,0.0,Stimuli/Blank.png,0,0,0.0,0,130,130,130,,,,,,,,,,,,,68.77572130000044,0.02572130000044126,None,,108.3976279999988,108.3976279999988,108.3976279999988,108.3976279999988,108.3976279999988,108.3976279999988,108.3976279999988,108.3976279999988,108.3976279999988,108.3976279999988,001,P005,2025_Jan_18_1525,ConditionRich,2021.2.3,59.94697091051016,
69.0,69.75,19,0.75,Stimuli/P005/sun_czspalxthlkjwoat.jpg,0,0,0.0,0,131,131,131,,,,,,,,,,,,,69.01232819999859,0.012328199998592027,None,,108.64786760000061,108.64786760000061,108.64786760000061,108.64786760000061,108.64786760000061,108.64786760000061,108.64786760000061,108.64786760000061,108.64786760000061,108.64786760000061,001,P005,2025_Jan_18_1525,ConditionRich,2021.2.3,59.94697091051016,
69.75,70.0,41,0.0,Stimuli/Blank.png,0,0,0.0,0,132,132,132,,,,,,,,,,,,,69.77660409999953,0.026604099999531172,None,,109.39849970000068,109.39849970000068,109.39849970000068,109.39849970000068,109.39849970000068,109.39849970000068,109.39849970000068,109.39849970000068,109.39849970000068,109.39849970000068,001,P005,2025_Jan_18_1525,ConditionRich,2021.2.3,59.94697091051016,
70.0,70.75,19,0.75,Stimuli/P005/sun_czspalxthlkjwoat.jpg,0,0,0.0,0,133,133,133,,,,,,,,,,,,,70.00988219999999,0.009882199999992736,None,,109.63204069999847,109.63204069999847,109.63204069999847,109.63204069999847,109.63204069999847,109.63204069999847,109.63204069999847,109.63204069999847,109.63204069999847,109.63204069999847,001,P005,2025_Jan_18_1525,ConditionRich,2021.2.3,59.94697091051016,
70.75,71.0,41,0.0,Stimuli/Blank.png,0,0,0.0,0,134,134,134,,,,,,,,,,,,,70.76083400000061,0.010834000000613742,None,,110.38270059999923,110.38270059999923,110.38270059999923,110.38270059999923,110.38270059999923,110.38270059999923,110.38270059999923,110.38270059999923,110.38270059999923,110.38270059999923,001,P005,2025_Jan_18_1525,ConditionRich,2021.2.3,59.94697091051016,
71.0,71.75,19,0.75,Stimuli/P005/sun_czspalxthlkjwoat.jpg,0,0,0.0,0,135,135,135,,,,,,,,,,,,,71.01176399999895,0.011763999998947838,None,,110.6496103999998,110.6496103999998,110.6496103999998,110.6496103999998,110.6496103999998,110.6496103999998,110.6496103999998,110.6496103999998,110.6496103999998,110.6496103999998,001,P005,2025_Jan_18_1525,ConditionRich,2021.2.3,59.94697091051016,
71.75,72.0,41,0.0,Stimuli/Blank.png,0,0,0.0,0,136,136,136,,,,,,,,,,,,,71.78007810000054,0.030078100000537233,None,,111.41696400000001,111.41696400000001,111.41696400000001,111.41696400000001,111.41696400000001,111.41696400000001,111.41696400000001,111.41696400000001,111.41696400000001,111.41696400000001,001,P005,2025_Jan_18_1525,ConditionRich,2021.2.3,59.94697091051016,
72.0,72.75,33,0.75,Stimuli/P005/things_man_03s.jpg,0,0,0.0,0,137,137,137,,,,,,,,,,,,,72.03068419999909,0.03068419999908656,None,,111.66716910000105,111.66716910000105,111.66716910000105,111.66716910000105,111.66716910000105,111.66716910000105,111.66716910000105,111.66716910000105,111.66716910000105,111.66716910000105,001,P005,2025_Jan_18_1525,ConditionRich,2021.2.3,59.94697091051016,
72.75,73.0,41,0.0,Stimuli/Blank.png,0,0,0.0,0,138,138,138,,,,,,,,,,,,,72.77957790000073,0.02957790000073146,None,,112.40115370000058,112.40115370000058,112.40115370000058,112.40115370000058,112.40115370000058,112.40115370000058,112.40115370000058,112.40115370000058,112.40115370000058,112.40115370000058,001,P005,2025_Jan_18_1525,ConditionRich,2021.2.3,59.94697091051016,
73.0,73.75,33,0.75,Stimuli/P005/things_man_03s.jpg,0,0,0.0,0,139,139,139,,,,,,,,,,,,,73.01241759999903,0.012417599999025697,None,,112.651920100001,112.651920100001,112.651920100001,112.651920100001,112.651920100001,112.651920100001,112.651920100001,112.651920100001,112.651920100001,112.651920100001,001,P005,2025_Jan_18_1525,ConditionRich,2021.2.3,59.94697091051016,
73.75,74.0,41,0.0,Stimuli/Blank.png,0,0,0.0,0,140,140,140,,,,,,,,,,,,,73.78047950000109,0.030479500001092674,5,0.20148839999819756,113.4020352999978,113.4020352999978,113.4020352999978,113.4020352999978,113.4020352999978,113.4020352999978,113.4020352999978,113.4020352999978,113.4020352999978,113.4020352999978,001,P005,2025_Jan_18_1525,ConditionRich,2021.2.3,59.94697091051016,
74.0,74.75,33,0.75,Stimuli/P005/things_man_03s.jpg,0,0,0.0,0,141,141,141,,,,,,,,,,,,,74.01466430000073,0.0146643000007316,None,,113.65228070000012,113.65228070000012,113.65228070000012,113.65228070000012,113.65228070000012,113.65228070000012,113.65228070000012,113.65228070000012,113.65228070000012,113.65228070000012,001,P005,2025_Jan_18_1525,ConditionRich,2021.2.3,59.94697091051016,
74.75,75.0,41,0.0,Stimuli/Blank.png,0,0,0.0,0,142,142,142,,,,,,,,,,,,,74.78130040000178,0.03130040000178269,None,,114.40290950000053,114.40290950000053,114.40290950000053,114.40290950000053,114.40290950000053,114.40290950000053,114.40290950000053,114.40290950000053,114.40290950000053,114.40290950000053,001,P005,2025_Jan_18_1525,ConditionRich,2021.2.3,59.94697091051016,
75.0,75.75,33,0.75,Stimuli/P005/things_man_03s.jpg,0,0,0.0,0,143,143,143,,,,,,,,,,,,,75.01468549999845,0.014685499998449814,None,,114.63644469999781,114.63644469999781,114.63644469999781,114.63644469999781,114.63644469999781,114.63644469999781,114.63644469999781,114.63644469999781,114.63644469999781,114.63644469999781,001,P005,2025_Jan_18_1525,ConditionRich,2021.2.3,59.94697091051016,
75.75,76.0,41,0.0,Stimuli/Blank.png,0,0,0.0,0,144,144,144,,,,,,,,,,,,,75.76523770000131,0.01523770000130753,5,0.21651829999973415,115.38711029999831,115.38711029999831,115.38711029999831,115.38711029999831,115.38711029999831,115.38711029999831,115.38711029999831,115.38711029999831,115.38711029999831,115.38711029999831,001,P005,2025_Jan_18_1525,ConditionRich,2021.2.3,59.94697091051016,
76.0,76.75,14,0.75,Stimuli/P005/sun_bsirencncgxteejx.jpg,0,0,0.0,0,145,145,145,,,,,,,,,,,,,76.01491449999958,0.014914499999576947,None,,115.6540227000005,115.6540227000005,115.6540227000005,115.6540227000005,115.6540227000005,115.6540227000005,115.6540227000005,115.6540227000005,115.6540227000005,115.6540227000005,001,P005,2025_Jan_18_1525,ConditionRich,2021.2.3,59.94697091051016,
76.75,77.0,41,0.0,Stimuli/Blank.png,0,0,0.0,0,146,146,146,,,,,,,,,,,,,76.78512449999835,0.03512449999834644,None,,116.42136190000019,116.42136190000019,116.42136190000019,116.42136190000019,116.42136190000019,116.42136190000019,116.42136190000019,116.42136190000019,116.42136190000019,116.42136190000019,001,P005,2025_Jan_18_1525,ConditionRich,2021.2.3,59.94697091051016,
77.0,77.75,14,0.75,Stimuli/P005/sun_bsirencncgxteejx.jpg,1,0,0.75,0,147,147,147,,,,,,,,,,,,,77.01650489999884,0.016504899998835754,4,0.45439579999947455,116.63820289999785,116.63820289999785,116.63820289999785,116.63820289999785,116.63820289999785,116.63820289999785,116.63820289999785,None,116.63820289999785,116.63820289999785,001,P005,2025_Jan_18_1525,ConditionRich,2021.2.3,59.94697091051016,
77.75,78.0,41,0.0,Stimuli/Blank.png,0,0,0.0,0,148,148,148,,,,,,,,,,,,,77.75155599999925,0.0015559999992547091,None,,117.37218629999916,117.37218629999916,117.37218629999916,117.37218629999916,117.37218629999916,117.37218629999916,117.37218629999916,117.37218629999916,117.37218629999916,117.37218629999916,001,P005,2025_Jan_18_1525,ConditionRich,2021.2.3,59.94697091051016,
78.0,78.75,14,0.75,Stimuli/P005/sun_bsirencncgxteejx.jpg,0,0,0.0,0,149,149,149,,,,,,,,,,,,,78.00006310000026,6.310000026132911e-05,None,,117.6224035999985,117.6224035999985,117.6224035999985,117.6224035999985,117.6224035999985,117.6224035999985,117.6224035999985,117.6224035999985,117.6224035999985,117.6224035999985,001,P005,2025_Jan_18_1525,ConditionRich,2021.2.3,59.94697091051016,
78.75,79.0,41,0.0,Stimuli/Blank.png,0,0,0.0,0,150,150,150,,,,,,,,,,,,,78.75083810000069,0.0008381000006920658,None,,118.37306859999808,118.37306859999808,118.37306859999808,118.37306859999808,118.37306859999808,118.37306859999808,118.37306859999808,118.37306859999808,118.37306859999808,118.37306859999808,001,P005,2025_Jan_18_1525,ConditionRich,2021.2.3,59.94697091051016,
79.0,79.75,14,0.75,Stimuli/P005/sun_bsirencncgxteejx.jpg,0,0,0.0,0,151,151,151,,,,,,,,,,,,,79.00151689999984,0.0015168999998422805,None,,118.62328680000064,118.62328680000064,118.62328680000064,118.62328680000064,118.62328680000064,118.62328680000064,118.62328680000064,118.62328680000064,118.62328680000064,118.62328680000064,001,P005,2025_Jan_18_1525,ConditionRich,2021.2.3,59.94697091051016,
79.75,80.0,41,0.0,Stimuli/Blank.png,0,0,0.0,0,152,152,152,,,,,,,,,,,,,79.75160179999875,0.00160179999875254,None,,119.37394669999776,119.37394669999776,119.37394669999776,119.37394669999776,119.37394669999776,119.37394669999776,119.37394669999776,119.37394669999776,119.37394669999776,119.37394669999776,001,P005,2025_Jan_18_1525,ConditionRich,2021.2.3,59.94697091051016,
80.0,80.75,23,0.75,Stimuli/P005/things_beetle_03s.jpg,0,0,0.0,0,153,153,153,,,,,,,,,,,,,80.00242250000156,0.002422500001557637,None,,119.6575348999977,119.6575348999977,119.6575348999977,119.6575348999977,119.6575348999977,119.6575348999977,119.6575348999977,119.6575348999977,119.6575348999977,119.6575348999977,001,P005,2025_Jan_18_1525,ConditionRich,2021.2.3,59.94697091051016,
80.75,81.0,41,0.0,Stimuli/Blank.png,0,0,0.0,0,154,154,154,,,,,,,,,,,,,80.78664569999819,0.03664569999818923,None,,120.4083361999983,120.4083361999983,120.4083361999983,120.4083361999983,120.4083361999983,120.4083361999983,120.4083361999983,120.4083361999983,120.4083361999983,120.4083361999983,001,P005,2025_Jan_18_1525,ConditionRich,2021.2.3,59.94697091051016,
81.0,81.75,23,0.75,Stimuli/P005/things_beetle_03s.jpg,0,0,0.0,0,155,155,155,,,,,,,,,,,,,81.0035785,0.0035785000000032596,None,,120.62506009999925,120.62506009999925,120.62506009999925,120.62506009999925,120.62506009999925,120.62506009999925,120.62506009999925,120.62506009999925,120.62506009999925,120.62506009999925,001,P005,2025_Jan_18_1525,ConditionRich,2021.2.3,59.94697091051016,
81.75,82.0,41,0.0,Stimuli/Blank.png,0,0,0.0,0,156,156,156,,,,,,,,,,,,,81.75606269999844,0.006062699998437893,5,0.21129890000156593,121.39238169999953,121.39238169999953,121.39238169999953,121.39238169999953,121.39238169999953,121.39238169999953,121.39238169999953,121.39238169999953,121.39238169999953,121.39238169999953,001,P005,2025_Jan_18_1525,ConditionRich,2021.2.3,59.94697091051016,
82.0,82.75,23,0.75,Stimuli/P005/things_beetle_03s.jpg,0,0,0.0,0,157,157,157,,,,,,,,,,,,,82.02039349999905,0.02039349999904516,None,,121.64260070000091,121.64260070000091,121.64260070000091,121.64260070000091,121.64260070000091,121.64260070000091,121.64260070000091,121.64260070000091,121.64260070000091,121.64260070000091,001,P005,2025_Jan_18_1525,ConditionRich,2021.2.3,59.94697091051016,
82.75,83.0,41,0.0,Stimuli/Blank.png,0,0,0.0,0,158,158,158,,,,,,,,,,,,,82.7556302999983,0.00563029999830178,None,,122.37659329999951,122.37659329999951,122.37659329999951,122.37659329999951,122.37659329999951,122.37659329999951,122.37659329999951,122.37659329999951,122.37659329999951,122.37659329999951,001,P005,2025_Jan_18_1525,ConditionRich,2021.2.3,59.94697091051016,
83.0,83.75,23,0.75,Stimuli/P005/things_beetle_03s.jpg,0,0,0.0,0,159,159,159,,,,,,,,,,,,,83.00496170000042,0.0049617000004218426,None,,122.62680479999835,122.62680479999835,122.62680479999835,122.62680479999835,122.62680479999835,122.62680479999835,122.62680479999835,122.62680479999835,122.62680479999835,122.62680479999835,001,P005,2025_Jan_18_1525,ConditionRich,2021.2.3,59.94697091051016,
83.75,84.0,41,0.0,Stimuli/Blank.png,0,0,0.0,0,160,160,160,,,,,,,,,,,,,83.7557186999984,0.0057186999983969145,None,,123.37748020000072,123.37748020000072,123.37748020000072,123.37748020000072,123.37748020000072,123.37748020000072,123.37748020000072,123.37748020000072,123.37748020000072,123.37748020000072,001,P005,2025_Jan_18_1525,ConditionRich,2021.2.3,59.94697091051016,
84.0,100.0,0,0.0,Stimuli/Blank.png,1,9,9.75,0,161,161,161,,,,,,,,,,,,,84.00667329999851,0.006673299998510629,5,13.975779500000499,123.62770900000032,123.62770900000032,123.62770900000032,123.62770900000032,123.62770900000032,123.62770900000032,132.61893620000046,133.36958159999995,123.62770900000032,123.62770900000032,001,P005,2025_Jan_18_1525,ConditionRich,2021.2.3,59.94697091051016,
100.0,100.75,3,0.75,Stimuli/P005/sun_asyidwmnobuawmax.jpg,0,0,0.0,0,162,162,162,,,,,,,,,,,,,100.00392229999852,0.003922299998521339,None,,139.64236199999868,139.64236199999868,139.64236199999868,139.64236199999868,139.64236199999868,139.64236199999868,139.64236199999868,139.64236199999868,139.64236199999868,139.64236199999868,001,P005,2025_Jan_18_1525,ConditionRich,2021.2.3,59.94697091051016,
100.75,101.0,41,0.0,Stimuli/Blank.png,0,0,0.0,0,163,163,163,,,,,,,,,,,,,100.77142390000154,0.021423900001536822,None,,140.39243680000072,140.39243680000072,140.39243680000072,140.39243680000072,140.39243680000072,140.39243680000072,140.39243680000072,140.39243680000072,140.39243680000072,140.39243680000072,001,P005,2025_Jan_18_1525,ConditionRich,2021.2.3,59.94697091051016,
101.0,101.75,3,0.75,Stimuli/P005/sun_asyidwmnobuawmax.jpg,0,0,0.0,0,164,164,164,,,,,,,,,,,,,101.0039614999987,0.003961499998695217,None,,140.62597529999766,140.62597529999766,140.62597529999766,140.62597529999766,140.62597529999766,140.62597529999766,140.62597529999766,140.62597529999766,140.62597529999766,140.62597529999766,001,P005,2025_Jan_18_1525,ConditionRich,2021.2.3,59.94697091051016,
101.75,102.0,41,0.0,Stimuli/Blank.png,0,0,0.0,0,165,165,165,,,,,,,,,,,,,101.7555128999993,0.005512899999303045,None,,141.3766379999979,141.3766379999979,141.3766379999979,141.3766379999979,141.3766379999979,141.3766379999979,141.3766379999979,141.3766379999979,141.3766379999979,141.3766379999979,001,P005,2025_Jan_18_1525,ConditionRich,2021.2.3,59.94697091051016,
102.0,102.75,3,0.75,Stimuli/P005/sun_asyidwmnobuawmax.jpg,0,0,0.0,0,166,166,166,,,,,,,,,,,,,102.0059282000002,0.005928200000198558,None,,141.64356589999807,141.64356589999807,141.64356589999807,141.64356589999807,141.64356589999807,141.64356589999807,141.64356589999807,141.64356589999807,141.64356589999807,141.64356589999807,001,P005,2025_Jan_18_1525,ConditionRich,2021.2.3,59.94697091051016,
102.75,103.0,41,0.0,Stimuli/Blank.png,0,0,0.0,0,167,167,167,,,,,,,,,,,,,102.77228770000147,0.022287700001470512,None,,142.39424320000035,142.39424320000035,142.39424320000035,142.39424320000035,142.39424320000035,142.39424320000035,142.39424320000035,142.39424320000035,142.39424320000035,142.39424320000035,001,P005,2025_Jan_18_1525,ConditionRich,2021.2.3,59.94697091051016,
103.0,103.75,3,0.75,Stimuli/P005/sun_asyidwmnobuawmax.jpg,0,0,0.0,0,168,168,168,,,,,,,,,,,,,103.00620870000057,0.0062087000005703885,None,,142.64442349999808,142.64442349999808,142.64442349999808,142.64442349999808,142.64442349999808,142.64442349999808,142.64442349999808,142.64442349999808,142.64442349999808,142.64442349999808,001,P005,2025_Jan_18_1525,ConditionRich,2021.2.3,59.94697091051016,
103.75,104.0,41,0.0,Stimuli/Blank.png,0,0,0.0,0,169,169,169,,,,,,,,,,,,,103.77259839999897,0.0225983999989694,None,,143.3950741999979,143.3950741999979,143.3950741999979,143.3950741999979,143.3950741999979,143.3950741999979,143.3950741999979,143.3950741999979,143.3950741999979,143.3950741999979,001,P005,2025_Jan_18_1525,ConditionRich,2021.2.3,59.94697091051016,
104.0,104.75,17,0.75,Stimuli/P005/sun_bwsictslfxygpqbp.jpg,0,0,0.0,0,170,170,170,,,,,,,,,,,,,104.00609890000123,0.006098900001234142,None,,143.66194819999873,143.66194819999873,143.66194819999873,143.66194819999873,143.66194819999873,143.66194819999873,143.66194819999873,143.66194819999873,143.66194819999873,143.66194819999873,001,P005,2025_Jan_18_1525,ConditionRich,2021.2.3,59.94697091051016,
104.75,105.0,41,0.0,Stimuli/Blank.png,0,0,0.0,0,171,171,171,,,,,,,,,,,,,104.79009750000114,0.04009750000113854,None,,144.41263939999772,144.41263939999772,144.41263939999772,144.41263939999772,144.41263939999772,144.41263939999772,144.41263939999772,144.41263939999772,144.41263939999772,144.41263939999772,001,P005,2025_Jan_18_1525,ConditionRich,2021.2.3,59.94697091051016,
105.0,105.75,17,0.75,Stimuli/P005/sun_bwsictslfxygpqbp.jpg,0,0,0.0,0,172,172,172,,,,,,,,,,,,,105.00763450000159,0.007634500001586275,None,,144.62948649999817,144.62948649999817,144.62948649999817,144.62948649999817,144.62948649999817,144.62948649999817,144.62948649999817,144.62948649999817,144.62948649999817,144.62948649999817,001,P005,2025_Jan_18_1525,ConditionRich,2021.2.3,59.94697091051016,
105.75,106.0,41,0.0,Stimuli/Blank.png,0,0,0.0,0,173,173,173,,,,,,,,,,,,,105.75759800000014,0.0075980000001436565,None,,145.38015969999833,145.38015969999833,145.38015969999833,145.38015969999833,145.38015969999833,145.38015969999833,145.38015969999833,145.38015969999833,145.38015969999833,145.38015969999833,001,P005,2025_Jan_18_1525,ConditionRich,2021.2.3,59.94697091051016,
106.0,106.75,17,0.75,Stimuli/P005/sun_bwsictslfxygpqbp.jpg,1,0,0.75,0,174,174,174,,,,,,,,,,,,,106.00933040000018,0.009330400000180816,4,0.4050621999995201,145.63037989999793,145.63037989999793,145.63037989999793,145.63037989999793,145.63037989999793,145.63037989999793,145.63037989999793,146.36440740000035,145.63037989999793,145.63037989999793,001,P005,2025_Jan_18_1525,ConditionRich,2021.2.3,59.94697091051016,
106.75,107.0,41,0.0,Stimuli/Blank.png,0,0,0.0,0,175,175,175,,,,,,,,,,,,,106.75953630000004,0.009536300000036135,None,,146.38104119999844,146.38104119999844,146.38104119999844,146.38104119999844,146.38104119999844,146.38104119999844,146.38104119999844,146.38104119999844,146.38104119999844,146.38104119999844,001,P005,2025_Jan_18_1525,ConditionRich,2021.2.3,59.94697091051016,
107.0,107.75,17,0.75,Stimuli/P005/sun_bwsictslfxygpqbp.jpg,0,0,0.0,0,176,176,176,,,,,,,,,,,,,107.00980269999854,0.009802699998544995,None,,146.64793609999833,146.64793609999833,146.64793609999833,146.64793609999833,146.64793609999833,146.64793609999833,146.64793609999833,146.64793609999833,146.64793609999833,146.64793609999833,001,P005,2025_Jan_18_1525,ConditionRich,2021.2.3,59.94697091051016,
107.75,108.0,41,0.0,Stimuli/Blank.png,0,0,0.0,0,177,177,177,,,,,,,,,,,,,107.77690939999957,0.02690939999956754,None,,147.39860079999926,147.39860079999926,147.39860079999926,147.39860079999926,147.39860079999926,147.39860079999926,147.39860079999926,147.39860079999926,147.39860079999926,147.39860079999926,001,P005,2025_Jan_18_1525,ConditionRich,2021.2.3,59.94697091051016,
108.0,108.75,26,0.75,Stimuli/P005/things_face_03s.jpg,1,0,0.75,0,178,178,178,,,,,,,,,,,,,108.01028769999903,0.01028769999902579,4,0.534599700000399,147.64884789999996,147.64884789999996,147.64884789999996,147.64884789999996,147.64884789999996,147.64884789999996,147.64884789999996,148.3828429999994,147.64884789999996,147.64884789999996,001,P005,2025_Jan_18_1525,ConditionRich,2021.2.3,59.94697091051016,
108.75,109.0,41,0.0,Stimuli/Blank.png,0,0,0.0,0,179,179,179,,,,,,,,,,,,,108.77786429999833,0.027864299998327624,None,,148.3995060999987,148.3995060999987,148.3995060999987,148.3995060999987,148.3995060999987,148.3995060999987,148.3995060999987,148.3995060999987,148.3995060999987,148.3995060999987,001,P005,2025_Jan_18_1525,ConditionRich,2021.2.3,59.94697091051016,
109.0,109.75,26,0.75,Stimuli/P005/things_face_03s.jpg,0,0,0.0,0,180,180,180,,,,,,,,,,,,,109.01045520000116,0.010455200001160847,None,,148.63301470000079,148.63301470000079,148.63301470000079,148.63301470000079,148.63301470000079,148.63301470000079,148.63301470000079,148.63301470000079,148.63301470000079,148.63301470000079,001,P005,2025_Jan_18_1525,ConditionRich,2021.2.3,59.94697091051016,
109.75,110.0,41,0.0,Stimuli/Blank.png,0,0,0.0,0,181,181,181,,,,,,,,,,,,,109.76161890000003,0.011618900000030408,None,,149.38369349999994,149.38369349999994,149.38369349999994,149.38369349999994,149.38369349999994,149.38369349999994,149.38369349999994,149.38369349999994,149.38369349999994,149.38369349999994,001,P005,2025_Jan_18_1525,ConditionRich,2021.2.3,59.94697091051016,
110.0,110.75,26,0.75,Stimuli/P005/things_face_03s.jpg,0,0,0.0,0,182,182,182,,,,,,,,,,,,,110.0118438999998,0.011843899999803398,None,,149.65059199999814,149.65059199999814,149.65059199999814,149.65059199999814,149.65059199999814,149.65059199999814,149.65059199999814,149.65059199999814,149.65059199999814,149.65059199999814,001,P005,2025_Jan_18_1525,ConditionRich,2021.2.3,59.94697091051016,
110.75,111.0,41,0.0,Stimuli/Blank.png,0,0,0.0,0,183,183,183,,,,,,,,,,,,,110.77891029999955,0.02891029999955208,None,,150.40124250000008,150.40124250000008,150.40124250000008,150.40124250000008,150.40124250000008,150.40124250000008,150.40124250000008,150.40124250000008,150.40124250000008,150.40124250000008,001,P005,2025_Jan_18_1525,ConditionRich,2021.2.3,59.94697091051016,
111.0,111.75,26,0.75,Stimuli/P005/things_face_03s.jpg,0,0,0.0,0,184,184,184,,,,,,,,,,,,,111.01510920000146,0.015109200001461431,None,,150.65202109999882,150.65202109999882,150.65202109999882,150.65202109999882,150.65202109999882,150.65202109999882,150.65202109999882,150.65202109999882,150.65202109999882,150.65202109999882,001,P005,2025_Jan_18_1525,ConditionRich,2021.2.3,59.94697091051016,
111.75,112.0,41,0.0,Stimuli/Blank.png,0,0,0.0,0,185,185,185,,,,,,,,,,,,,111.7803958000004,0.03039580000040587,5,0.20133349999741768,151.40213239999866,151.40213239999866,151.40213239999866,151.40213239999866,151.40213239999866,151.40213239999866,151.40213239999866,151.40213239999866,151.40213239999866,151.40213239999866,001,P005,2025_Jan_18_1525,ConditionRich,2021.2.3,59.94697091051016,
112.0,112.75,5,0.75,Stimuli/P005/sun_axaqdcecfojvpvrl.jpg,0,0,0.0,0,186,186,186,,,,,,,,,,,,,112.01474220000091,0.014742200000910088,None,,151.6523387999987,151.6523387999987,151.6523387999987,151.6523387999987,151.6523387999987,151.6523387999987,151.6523387999987,151.6523387999987,151.6523387999987,151.6523387999987,001,P005,2025_Jan_18_1525,ConditionRich,2021.2.3,59.94697091051016,
112.75,113.0,41,0.0,Stimuli/Blank.png,0,0,0.0,0,187,187,187,,,,,,,,,,,,,112.78134040000077,0.031340400000772206,None,,152.40300220000063,152.40300220000063,152.40300220000063,152.40300220000063,152.40300220000063,152.40300220000063,152.40300220000063,152.40300220000063,152.40300220000063,152.40300220000063,001,P005,2025_Jan_18_1525,ConditionRich,2021.2.3,59.94697091051016,
113.0,113.75,5,0.75,Stimuli/P005/sun_axaqdcecfojvpvrl.jpg,0,0,0.0,0,188,188,188,,,,,,,,,,,,,113.01459560000148,0.014595600001484854,None,,152.63655260000087,152.63655260000087,152.63655260000087,152.63655260000087,152.63655260000087,152.63655260000087,152.63655260000087,152.63655260000087,152.63655260000087,152.63655260000087,001,P005,2025_Jan_18_1525,ConditionRich,2021.2.3,59.94697091051016,
113.75,114.0,41,0.0,Stimuli/Blank.png,0,0,0.0,0,189,189,189,,,,,,,,,,,,,113.76596970000173,0.015969700001733145,None,,153.38720829999875,153.38720829999875,153.38720829999875,153.38720829999875,153.38720829999875,153.38720829999875,153.38720829999875,153.38720829999875,153.38720829999875,153.38720829999875,001,P005,2025_Jan_18_1525,ConditionRich,2021.2.3,59.94697091051016,
114.0,114.75,5,0.75,Stimuli/P005/sun_axaqdcecfojvpvrl.jpg,0,0,0.0,0,190,190,190,,,,,,,,,,,,,113.99828559999878,-0.0017144000012194738,None,,153.62074609999763,153.62074609999763,153.62074609999763,153.62074609999763,153.62074609999763,153.62074609999763,153.62074609999763,153.62074609999763,153.62074609999763,153.62074609999763,001,P005,2025_Jan_18_1525,ConditionRich,2021.2.3,59.94697091051016,
114.75,115.0,41,0.0,Stimuli/Blank.png,0,0,0.0,0,191,191,191,,,,,,,,,,,,,114.766171700001,0.01617170000099577,None,,154.38808720000088,154.38808720000088,154.38808720000088,154.38808720000088,154.38808720000088,154.38808720000088,154.38808720000088,154.38808720000088,154.38808720000088,154.38808720000088,001,P005,2025_Jan_18_1525,ConditionRich,2021.2.3,59.94697091051016,
115.0,115.75,5,0.75,Stimuli/P005/sun_axaqdcecfojvpvrl.jpg,0,0,0.0,0,192,192,192,,,,,,,,,,,,,115.00007629999891,7.6299998909235e-05,None,,154.62162259999968,154.62162259999968,154.62162259999968,154.62162259999968,154.62162259999968,154.62162259999968,154.62162259999968,154.62162259999968,154.62162259999968,154.62162259999968,001,P005,2025_Jan_18_1525,ConditionRich,2021.2.3,59.94697091051016,
115.75,116.0,41,0.0,Stimuli/Blank.png,0,0,0.0,0,193,193,193,,,,,,,,,,,,,115.7506003999988,0.0006003999988024589,None,,155.37230360000103,155.37230360000103,155.37230360000103,155.37230360000103,155.37230360000103,155.37230360000103,155.37230360000103,155.37230360000103,155.37230360000103,155.37230360000103,001,P005,2025_Jan_18_1525,ConditionRich,2021.2.3,59.94697091051016,
116.0,116.75,40,0.75,Stimuli/P005/things_woman_03s.jpg,0,0,0.0,0,194,194,194,,,,,,,,,,,,,116.00324320000072,0.0032432000007247552,None,,155.63918750000084,155.63918750000084,155.63918750000084,155.63918750000084,155.63918750000084,155.63918750000084,155.63918750000084,155.63918750000084,155.63918750000084,155.63918750000084,001,P005,2025_Jan_18_1525,ConditionRich,2021.2.3,59.94697091051016,
116.75,117.0,41,0.0,Stimuli/Blank.png,0,0,0.0,0,195,195,195,,,,,,,,,,,,,116.76770430000033,0.017704300000332296,None,,156.3899147000011,156.3899147000011,156.3899147000011,156.3899147000011,156.3899147000011,156.3899147000011,156.3899147000011,156.3899147000011,156.3899147000011,156.3899147000011,001,P005,2025_Jan_18_1525,ConditionRich,2021.2.3,59.94697091051016,
117.0,117.75,40,0.75,Stimuli/P005/things_woman_03s.jpg,0,0,0.0,0,196,196,196,,,,,,,,,,,,,117.00139889999991,0.0013988999999128282,None,,156.62357590000101,156.62357590000101,156.62357590000101,156.62357590000101,156.62357590000101,156.62357590000101,156.62357590000101,156.62357590000101,156.62357590000101,156.62357590000101,001,P005,2025_Jan_18_1525,ConditionRich,2021.2.3,59.94697091051016,
117.75,118.0,41,0.0,Stimuli/Blank.png,0,0,0.0,0,197,197,197,,,,,,,,,,,,,117.75241910000113,0.002419100001134211,None,,157.37403999999879,157.37403999999879,157.37403999999879,157.37403999999879,157.37403999999879,157.37403999999879,157.37403999999879,157.37403999999879,157.37403999999879,157.37403999999879,001,P005,2025_Jan_18_1525,ConditionRich,2021.2.3,59.94697091051016,
118.0,118.75,40,0.75,Stimuli/P005/things_woman_03s.jpg,0,0,0.0,0,198,198,198,,,,,,,,,,,,,118.00174089999928,0.0017408999992767349,None,,157.62423449999915,157.62423449999915,157.62423449999915,157.62423449999915,157.62423449999915,157.62423449999915,157.62423449999915,157.62423449999915,157.62423449999915,157.62423449999915,001,P005,2025_Jan_18_1525,ConditionRich,2021.2.3,59.94697091051016,
118.75,119.0,41,0.0,Stimuli/Blank.png,0,0,0.0,0,199,199,199,,,,,,,,,,,,,118.75332300000082,0.0033230000008188654,None,,158.374929900001,158.374929900001,158.374929900001,158.374929900001,158.374929900001,158.374929900001,158.374929900001,158.374929900001,158.374929900001,158.374929900001,001,P005,2025_Jan_18_1525,ConditionRich,2021.2.3,59.94697091051016,
119.0,119.75,40,0.75,Stimuli/P005/things_woman_03s.jpg,0,0,0.0,0,200,200,200,,,,,,,,,,,,,119.00302250000095,0.0030225000009522773,None,,158.64182359999904,158.64182359999904,158.64182359999904,158.64182359999904,158.64182359999904,158.64182359999904,158.64182359999904,158.64182359999904,158.64182359999904,158.64182359999904,001,P005,2025_Jan_18_1525,ConditionRich,2021.2.3,59.94697091051016,
119.75,120.0,41,0.0,Stimuli/Blank.png,0,0,0.0,0,201,201,201,,,,,,,,,,,,,119.77072680000128,0.020726800001284573,None,,159.39250089999769,159.39250089999769,159.39250089999769,159.39250089999769,159.39250089999769,159.39250089999769,159.39250089999769,159.39250089999769,159.39250089999769,159.39250089999769,001,P005,2025_Jan_18_1525,ConditionRich,2021.2.3,59.94697091051016,
120.0,120.75,32,0.75,Stimuli/P005/things_jumpsuit_03s.jpg,0,0,0.0,0,202,202,202,,,,,,,,,,,,,120.00492469999881,0.004924699998809956,None,,159.6427397999978,159.6427397999978,159.6427397999978,159.6427397999978,159.6427397999978,159.6427397999978,159.6427397999978,159.6427397999978,159.6427397999978,159.6427397999978,001,P005,2025_Jan_18_1525,ConditionRich,2021.2.3,59.94697091051016,
120.75,121.0,41,0.0,Stimuli/Blank.png,0,0,0.0,0,203,203,203,,,,,,,,,,,,,120.77156309999918,0.021563099999184487,None,,160.39337239999804,160.39337239999804,160.39337239999804,160.39337239999804,160.39337239999804,160.39337239999804,160.39337239999804,160.39337239999804,160.39337239999804,160.39337239999804,001,P005,2025_Jan_18_1525,ConditionRich,2021.2.3,59.94697091051016,
121.0,121.75,32,0.75,Stimuli/P005/things_jumpsuit_03s.jpg,0,0,0.0,0,204,204,204,,,,,,,,,,,,,121.0055151000015,0.005515100001503015,None,,160.64359160000095,160.64359160000095,160.64359160000095,160.64359160000095,160.64359160000095,160.64359160000095,160.64359160000095,160.64359160000095,160.64359160000095,160.64359160000095,001,P005,2025_Jan_18_1525,ConditionRich,2021.2.3,59.94697091051016,
121.75,122.0,41,0.0,Stimuli/Blank.png,0,0,0.0,0,205,205,205,,,,,,,,,,,,,121.7728016000001,0.022801600000093458,None,,161.39426589999857,161.39426589999857,161.39426589999857,161.39426589999857,161.39426589999857,161.39426589999857,161.39426589999857,161.39426589999857,161.39426589999857,161.39426589999857,001,P005,2025_Jan_18_1525,ConditionRich,2021.2.3,59.94697091051016,
122.0,122.75,32,0.75,Stimuli/P005/things_jumpsuit_03s.jpg,0,0,0.0,0,206,206,206,,,,,,,,,,,,,122.00552360000074,0.00552360000074259,None,,161.62779450000016,161.62779450000016,161.62779450000016,161.62779450000016,161.62779450000016,161.62779450000016,161.62779450000016,161.62779450000016,161.62779450000016,161.62779450000016,001,P005,2025_Jan_18_1525,ConditionRich,2021.2.3,59.94697091051016,
122.75,123.0,41,0.0,Stimuli/Blank.png,0,0,0.0,0,207,207,207,,,,,,,,,,,,,122.7560467000003,0.006046700000297278,None,,162.37844659999973,162.37844659999973,162.37844659999973,162.37844659999973,162.37844659999973,162.37844659999973,162.37844659999973,162.37844659999973,162.37844659999973,162.37844659999973,001,P005,2025_Jan_18_1525,ConditionRich,2021.2.3,59.94697091051016,
123.0,123.75,32,0.75,Stimuli/P005/things_jumpsuit_03s.jpg,0,0,0.0,0,208,208,208,,,,,,,,,,,,,123.00635880000118,0.006358800001180498,None,,162.62866709999798,162.62866709999798,162.62866709999798,162.62866709999798,162.62866709999798,162.62866709999798,162.62866709999798,162.62866709999798,162.62866709999798,162.62866709999798,001,P005,2025_Jan_18_1525,ConditionRich,2021.2.3,59.94697091051016,
123.75,124.0,41,0.0,Stimuli/Blank.png,0,0,0.0,0,209,209,209,,,,,,,,,,,,,123.75719340000069,0.007193400000687689,None,,163.37932399999772,163.37932399999772,163.37932399999772,163.37932399999772,163.37932399999772,163.37932399999772,163.37932399999772,163.37932399999772,163.37932399999772,163.37932399999772,001,P005,2025_Jan_18_1525,ConditionRich,2021.2.3,59.94697091051016,
124.0,124.75,20,0.75,Stimuli/P005/sun_dvxuxzytfdbjyzit.jpg,0,0,0.0,0,210,210,210,,,,,,,,,,,,,124.00741909999851,0.0074190999985148665,None,,163.6462388,163.6462388,163.6462388,163.6462388,163.6462388,163.6462388,163.6462388,163.6462388,163.6462388,163.6462388,001,P005,2025_Jan_18_1525,ConditionRich,2021.2.3,59.94697091051016,
124.75,125.0,41,0.0,Stimuli/Blank.png,0,0,0.0,0,211,211,211,,,,,,,,,,,,,124.7746432999993,0.024643299999297597,None,,164.39688509999905,164.39688509999905,164.39688509999905,164.39688509999905,164.39688509999905,164.39688509999905,164.39688509999905,164.39688509999905,164.39688509999905,164.39688509999905,001,P005,2025_Jan_18_1525,ConditionRich,2021.2.3,59.94697091051016,
125.0,125.75,20,0.75,Stimuli/P005/sun_dvxuxzytfdbjyzit.jpg,0,0,0.0,0,212,212,212,,,,,,,,,,,,,125.00998800000161,0.009988000001612818,None,,164.64711629999874,164.64711629999874,164.64711629999874,164.64711629999874,164.64711629999874,164.64711629999874,164.64711629999874,164.64711629999874,164.64711629999874,164.64711629999874,001,P005,2025_Jan_18_1525,ConditionRich,2021.2.3,59.94697091051016,
125.75,126.0,41,0.0,Stimuli/Blank.png,0,0,0.0,0,213,213,213,,,,,,,,,,,,,125.77610239999922,0.026102399999217596,None,,165.39776549999806,165.39776549999806,165.39776549999806,165.39776549999806,165.39776549999806,165.39776549999806,165.39776549999806,165.39776549999806,165.39776549999806,165.39776549999806,001,P005,2025_Jan_18_1525,ConditionRich,2021.2.3,59.94697091051016,
126.0,126.75,20,0.75,Stimuli/P005/sun_dvxuxzytfdbjyzit.jpg,0,0,0.0,0,214,214,214,,,,,,,,,,,,,126.00927869999941,0.00927869999941322,None,,165.63131480000084,165.63131480000084,165.63131480000084,165.63131480000084,165.63131480000084,165.63131480000084,165.63131480000084,165.63131480000084,165.63131480000084,165.63131480000084,001,P005,2025_Jan_18_1525,ConditionRich,2021.2.3,59.94697091051016,
126.75,127.0,41,0.0,Stimuli/Blank.png,0,0,0.0,0,215,215,215,,,,,,,,,,,,,126.76090390000172,0.010903900001721922,None,,166.38197639999999,166.38197639999999,166.38197639999999,166.38197639999999,166.38197639999999,166.38197639999999,166.38197639999999,166.38197639999999,166.38197639999999,166.38197639999999,001,P005,2025_Jan_18_1525,ConditionRich,2021.2.3,59.94697091051016,
127.0,127.75,20,0.75,Stimuli/P005/sun_dvxuxzytfdbjyzit.jpg,1,0,0.75,0,216,216,216,,,,,,,,,,,,,127.0097233000015,0.009723300001496682,4,0.39110880000225734,166.63219279999976,166.63219279999976,166.63219279999976,166.63219279999976,166.63219279999976,166.63219279999976,166.63219279999976,167.36621079999895,166.63219279999976,166.63219279999976,001,P005,2025_Jan_18_1525,ConditionRich,2021.2.3,59.94697091051016,
127.75,128.0,41,0.0,Stimuli/Blank.png,0,0,0.0,0,217,217,217,,,,,,,,,,,,,127.76105850000022,0.011058500000217464,None,,167.38285339999857,167.38285339999857,167.38285339999857,167.38285339999857,167.38285339999857,167.38285339999857,167.38285339999857,167.38285339999857,167.38285339999857,167.38285339999857,001,P005,2025_Jan_18_1525,ConditionRich,2021.2.3,59.94697091051016,
128.0,128.75,9,0.75,Stimuli/P005/sun_bfcmdrojsffdttzu.jpg,0,0,0.0,0,218,218,218,,,,,,,,,,,,,128.01143280000178,0.011432800001784926,None,,167.6497829,167.6497829,167.6497829,167.6497829,167.6497829,167.6497829,167.6497829,167.6497829,167.6497829,167.6497829,001,P005,2025_Jan_18_1525,ConditionRich,2021.2.3,59.94697091051016,
128.75,129.0,41,0.0,Stimuli/Blank.png,0,0,0.0,0,219,219,219,,,,,,,,,,,,,128.7786226999997,0.02862269999968703,None,,168.40041289999863,168.40041289999863,168.40041289999863,168.40041289999863,168.40041289999863,168.40041289999863,168.40041289999863,168.40041289999863,168.40041289999863,168.40041289999863,001,P005,2025_Jan_18_1525,ConditionRich,2021.2.3,59.94697091051016,
129.0,129.75,9,0.75,Stimuli/P005/sun_bfcmdrojsffdttzu.jpg,0,0,0.0,0,220,220,220,,,,,,,,,,,,,129.01235240000096,0.012352400000963826,None,,168.63395219999802,168.63395219999802,168.63395219999802,168.63395219999802,168.63395219999802,168.63395219999802,168.63395219999802,168.63395219999802,168.63395219999802,168.63395219999802,001,P005,2025_Jan_18_1525,ConditionRich,2021.2.3,59.94697091051016,
129.75,130.0,41,0.0,Stimuli/Blank.png,0,0,0.0,0,221,221,221,,,,,,,,,,,,,129.76472009999998,0.01472009999997681,5,0.20211050000216346,169.40129499999966,169.40129499999966,169.40129499999966,169.40129499999966,169.40129499999966,169.40129499999966,169.40129499999966,169.40129499999966,169.40129499999966,169.40129499999966,001,P005,2025_Jan_18_1525,ConditionRich,2021.2.3,59.94697091051016,
130.0,130.75,9,0.75,Stimuli/P005/sun_bfcmdrojsffdttzu.jpg,0,0,0.0,0,222,222,222,,,,,,,,,,,,,130.02919649999967,0.029196499999670777,None,,169.65151719999994,169.65151719999994,169.65151719999994,169.65151719999994,169.65151719999994,169.65151719999994,169.65151719999994,169.65151719999994,169.65151719999994,169.65151719999994,001,P005,2025_Jan_18_1525,ConditionRich,2021.2.3,59.94697091051016,
130.75,131.0,41,0.0,Stimuli/Blank.png,0,0,0.0,0,223,223,223,,,,,,,,,,,,,130.76559830000042,0.01559830000041984,None,,170.40217649999977,170.40217649999977,170.40217649999977,170.40217649999977,170.40217649999977,170.40217649999977,170.40217649999977,170.40217649999977,170.40217649999977,170.40217649999977,001,P005,2025_Jan_18_1525,ConditionRich,2021.2.3,59.94697091051016,
131.0,131.75,9,0.75,Stimuli/P005/sun_bfcmdrojsffdttzu.jpg,0,0,0.0,0,224,224,224,,,,,,,,,,,,,131.0159769999991,0.015976999999111285,None,,170.65242750000107,170.65242750000107,170.65242750000107,170.65242750000107,170.65242750000107,170.65242750000107,170.65242750000107,170.65242750000107,170.65242750000107,170.65242750000107,001,P005,2025_Jan_18_1525,ConditionRich,2021.2.3,59.94697091051016,
131.75,132.0,41,0.0,Stimuli/Blank.png,0,0,0.0,0,225,225,225,,,,,,,,,,,,,131.76451029999953,0.014510299999528797,5,0.21706260000064503,171.38637759999983,171.38637759999983,171.38637759999983,171.38637759999983,171.38637759999983,171.38637759999983,171.38637759999983,171.38637759999983,171.38637759999983,171.38637759999983,001,P005,2025_Jan_18_1525,ConditionRich,2021.2.3,59.94697091051016,
132.0,132.75,7,0.75,Stimuli/P005/sun_bdmdlkpsznknrcqi.jpg,0,0,0.0,0,226,226,226,,,,,,,,,,,,,132.01445120000062,0.014451200000621611,None,,171.66996319999816,171.66996319999816,171.66996319999816,171.66996319999816,171.66996319999816,171.66996319999816,171.66996319999816,171.66996319999816,171.66996319999816,171.66996319999816,001,P005,2025_Jan_18_1525,ConditionRich,2021.2.3,59.94697091051016,
132.75,133.0,41,0.0,Stimuli/Blank.png,0,0,0.0,0,227,227,227,,,,,,,,,,,,,132.80049100000178,0.050491000001784414,None,,172.43730850000065,172.43730850000065,172.43730850000065,172.43730850000065,172.43730850000065,172.43730850000065,172.43730850000065,172.43730850000065,172.43730850000065,172.43730850000065,001,P005,2025_Jan_18_1525,ConditionRich,2021.2.3,59.94697091051016,
133.0,133.75,7,0.75,Stimuli/P005/sun_bdmdlkpsznknrcqi.jpg,0,0,0.0,0,228,228,228,,,,,,,,,,,,,133.01595499999894,0.015954999998939456,None,,172.654177299999,172.654177299999,172.654177299999,172.654177299999,172.654177299999,172.654177299999,172.654177299999,172.654177299999,172.654177299999,172.654177299999,001,P005,2025_Jan_18_1525,ConditionRich,2021.2.3,59.94697091051016,
133.75,134.0,41,0.0,Stimuli/Blank.png,0,0,0.0,0,229,229,229,,,,,,,,,,,,,133.76636199999848,0.016361999998480314,None,,173.38813189999928,173.38813189999928,173.38813189999928,173.38813189999928,173.38813189999928,173.38813189999928,173.38813189999928,173.38813189999928,173.38813189999928,173.38813189999928,001,P005,2025_Jan_18_1525,ConditionRich,2021.2.3,59.94697091051016,
134.0,134.75,7,0.75,Stimuli/P005/sun_bdmdlkpsznknrcqi.jpg,0,0,0.0,0,230,230,230,,,,,,,,,,,,,133.99964980000004,-0.0003501999999571126,None,,173.62166889999935,173.62166889999935,173.62166889999935,173.62166889999935,173.62166889999935,173.62166889999935,173.62166889999935,173.62166889999935,173.62166889999935,173.62166889999935,001,P005,2025_Jan_18_1525,ConditionRich,2021.2.3,59.94697091051016,
134.75,135.0,41,0.0,Stimuli/Blank.png,0,0,0.0,0,231,231,231,,,,,,,,,,,,,134.75054660000023,0.0005466000002343208,None,,174.37233619999824,174.37233619999824,174.37233619999824,174.37233619999824,174.37233619999824,174.37233619999824,174.37233619999824,174.37233619999824,174.37233619999824,174.37233619999824,001,P005,2025_Jan_18_1525,ConditionRich,2021.2.3,59.94697091051016,
135.0,135.75,7,0.75,Stimuli/P005/sun_bdmdlkpsznknrcqi.jpg,0,0,0.0,0,232,232,232,,,,,,,,,,,,,135.0014416999984,0.0014416999983950518,None,,174.63923000000068,174.63923000000068,174.63923000000068,174.63923000000068,174.63923000000068,174.63923000000068,174.63923000000068,174.63923000000068,174.63923000000068,174.63923000000068,001,P005,2025_Jan_18_1525,ConditionRich,2021.2.3,59.94697091051016,
135.75,136.0,41,0.0,Stimuli/Blank.png,0,0,0.0,0,233,233,233,,,,,,,,,,,,,135.76980639999965,0.019806399999652058,5,0.19562170000062906,175.40770019999763,175.40770019999763,175.40770019999763,175.40770019999763,175.40770019999763,175.40770019999763,175.40770019999763,175.40770019999763,175.40770019999763,175.40770019999763,001,P005,2025_Jan_18_1525,ConditionRich,2021.2.3,59.94697091051016,
136.0,136.75,11,0.75,Stimuli/P005/sun_bjoocjyyhsmsbprr.jpg,0,0,0.0,0,234,234,234,,,,,,,,,,,,,136.01830139999947,0.01830139999947278,None,,175.65679149999778,175.65679149999778,175.65679149999778,175.65679149999778,175.65679149999778,175.65679149999778,175.65679149999778,175.65679149999778,175.65679149999778,175.65679149999778,001,P005,2025_Jan_18_1525,ConditionRich,2021.2.3,59.94697091051016,
136.75,137.0,41,0.0,Stimuli/Blank.png,0,0,0.0,0,235,235,235,,,,,,,,,,,,,136.76866489999884,0.018664899998839246,None,,176.39079409999977,176.39079409999977,176.39079409999977,176.39079409999977,176.39079409999977,176.39079409999977,176.39079409999977,176.39079409999977,176.39079409999977,176.39079409999977,001,P005,2025_Jan_18_1525,ConditionRich,2021.2.3,59.94697091051016,
137.0,137.75,11,0.75,Stimuli/P005/sun_bjoocjyyhsmsbprr.jpg,0,0,0.0,0,236,236,236,,,,,,,,,,,,,137.00270250000176,0.0027025000017601997,None,,176.6409949000008,176.6409949000008,176.6409949000008,176.6409949000008,176.6409949000008,176.6409949000008,176.6409949000008,176.6409949000008,176.6409949000008,176.6409949000008,001,P005,2025_Jan_18_1525,ConditionRich,2021.2.3,59.94697091051016,
137.75,138.0,41,0.0,Stimuli/Blank.png,0,0,0.0,0,237,237,237,,,,,,,,,,,,,137.770622,0.020622000000003027,None,,177.39166409999962,177.39166409999962,177.39166409999962,177.39166409999962,177.39166409999962,177.39166409999962,177.39166409999962,177.39166409999962,177.39166409999962,177.39166409999962,001,P005,2025_Jan_18_1525,ConditionRich,2021.2.3,59.94697091051016,
138.0,138.75,11,0.75,Stimuli/P005/sun_bjoocjyyhsmsbprr.jpg,0,0,0.0,0,238,238,238,,,,,,,,,,,,,138.00435039999866,0.00435039999865694,None,,177.62519569999859,177.62519569999859,177.62519569999859,177.62519569999859,177.62519569999859,177.62519569999859,177.62519569999859,177.62519569999859,177.62519569999859,177.62519569999859,001,P005,2025_Jan_18_1525,ConditionRich,2021.2.3,59.94697091051016,
138.75,139.0,41,0.0,Stimuli/Blank.png,0,0,0.0,0,239,239,239,,,,,,,,,,,,,138.75627710000117,0.006277100001170766,None,,178.392542900001,178.392542900001,178.392542900001,178.392542900001,178.392542900001,178.392542900001,178.392542900001,178.392542900001,178.392542900001,178.392542900001,001,P005,2025_Jan_18_1525,ConditionRich,2021.2.3,59.94697091051016,
139.0,139.75,11,0.75,Stimuli/P005/sun_bjoocjyyhsmsbprr.jpg,0,0,0.0,0,240,240,240,,,,,,,,,,,,,139.02058899999975,0.020588999999745283,None,,178.6427517000011,178.6427517000011,178.6427517000011,178.6427517000011,178.6427517000011,178.6427517000011,178.6427517000011,178.6427517000011,178.6427517000011,178.6427517000011,001,P005,2025_Jan_18_1525,ConditionRich,2021.2.3,59.94697091051016,
139.75,140.0,41,0.0,Stimuli/Blank.png,0,0,0.0,0,241,241,241,,,,,,,,,,,,,139.7544444999985,0.004444499998498941,None,,179.3767368000008,179.3767368000008,179.3767368000008,179.3767368000008,179.3767368000008,179.3767368000008,179.3767368000008,179.3767368000008,179.3767368000008,179.3767368000008,001,P005,2025_Jan_18_1525,ConditionRich,2021.2.3,59.94697091051016,
140.0,140.75,15,0.75,Stimuli/P005/sun_btkzuhaxqlacvmsv.jpg,0,0,0.0,0,242,242,242,,,,,,,,,,,,,140.00514109999858,0.005141099998581922,None,,179.64360999999917,179.64360999999917,179.64360999999917,179.64360999999917,179.64360999999917,179.64360999999917,179.64360999999917,179.64360999999917,179.64360999999917,179.64360999999917,001,P005,2025_Jan_18_1525,ConditionRich,2021.2.3,59.94697091051016,
140.75,141.0,41,0.0,Stimuli/Blank.png,0,0,0.0,0,243,243,243,,,,,,,,,,,,,140.77274490000127,0.022744900001271162,None,,180.39430720000018,180.39430720000018,180.39430720000018,180.39430720000018,180.39430720000018,180.39430720000018,180.39430720000018,180.39430720000018,180.39430720000018,180.39430720000018,001,P005,2025_Jan_18_1525,ConditionRich,2021.2.3,59.94697091051016,
141.0,141.75,15,0.75,Stimuli/P005/sun_btkzuhaxqlacvmsv.jpg,1,0,0.75,0,244,244,244,,,,,,,,,,,,,141.0053912000003,0.005391200000303797,4,0.4877338000005693,180.62783280000076,180.62783280000076,180.62783280000076,180.62783280000076,180.62783280000076,180.62783280000076,180.62783280000076,181.3618162999992,180.62783280000076,180.62783280000076,001,P005,2025_Jan_18_1525,ConditionRich,2021.2.3,59.94697091051016,
141.75,142.0,41,0.0,Stimuli/Blank.png,0,0,0.0,0,245,245,245,,,,,,,,,,,,,141.75690640000175,0.0069064000017533544,None,,181.37850199999957,181.37850199999957,181.37850199999957,181.37850199999957,181.37850199999957,181.37850199999957,181.37850199999957,181.37850199999957,181.37850199999957,181.37850199999957,001,P005,2025_Jan_18_1525,ConditionRich,2021.2.3,59.94697091051016,
142.0,142.75,15,0.75,Stimuli/P005/sun_btkzuhaxqlacvmsv.jpg,0,0,0.0,0,246,246,246,,,,,,,,,,,,,142.00723300000027,0.007233000000269385,None,,181.628710099998,181.628710099998,181.628710099998,181.628710099998,181.628710099998,181.628710099998,181.628710099998,181.628710099998,181.628710099998,181.628710099998,001,P005,2025_Jan_18_1525,ConditionRich,2021.2.3,59.94697091051016,
142.75,143.0,41,0.0,Stimuli/Blank.png,0,0,0.0,0,247,247,247,,,,,,,,,,,,,142.7575868999993,0.007586899999296293,None,,182.37938419999773,182.37938419999773,182.37938419999773,182.37938419999773,182.37938419999773,182.37938419999773,182.37938419999773,182.37938419999773,182.37938419999773,182.37938419999773,001,P005,2025_Jan_18_1525,ConditionRich,2021.2.3,59.94697091051016,
143.0,143.75,15,0.75,Stimuli/P005/sun_btkzuhaxqlacvmsv.jpg,0,0,0.0,0,248,248,248,,,,,,,,,,,,,143.00987810000152,0.009878100001515122,None,,182.6464030999996,182.6464030999996,182.6464030999996,182.6464030999996,182.6464030999996,182.6464030999996,182.6464030999996,182.6464030999996,182.6464030999996,182.6464030999996,001,P005,2025_Jan_18_1525,ConditionRich,2021.2.3,59.94697091051016,
143.75,144.0,41,0.0,Stimuli/Blank.png,0,0,0.0,0,249,249,249,,,,,,,,,,,,,143.77542639999956,0.02542639999956009,None,,183.39694719999898,183.39694719999898,183.39694719999898,183.39694719999898,183.39694719999898,183.39694719999898,183.39694719999898,183.39694719999898,183.39694719999898,183.39694719999898,001,P005,2025_Jan_18_1525,ConditionRich,2021.2.3,59.94697091051016,
144.0,144.75,2,0.75,Stimuli/P005/sun_ahmycohdkioefoxs.jpg,0,0,0.0,0,250,250,250,,,,,,,,,,,,,144.008671399999,0.00867139999900246,None,,183.64713839999968,183.64713839999968,183.64713839999968,183.64713839999968,183.64713839999968,183.64713839999968,183.64713839999968,183.64713839999968,183.64713839999968,183.64713839999968,001,P005,2025_Jan_18_1525,ConditionRich,2021.2.3,59.94697091051016,
144.75,145.0,41,0.0,Stimuli/Blank.png,0,0,0.0,0,251,251,251,,,,,,,,,,,,,144.77616240000134,0.026162400001339847,None,,184.39782189999823,184.39782189999823,184.39782189999823,184.39782189999823,184.39782189999823,184.39782189999823,184.39782189999823,184.39782189999823,184.39782189999823,184.39782189999823,001,P005,2025_Jan_18_1525,ConditionRich,2021.2.3,59.94697091051016,
145.0,145.75,2,0.75,Stimuli/P005/sun_ahmycohdkioefoxs.jpg,0,0,0.0,0,252,252,252,,,,,,,,,,,,,145.0089259000015,0.008925900001486298,None,,184.63138600000093,184.63138600000093,184.63138600000093,184.63138600000093,184.63138600000093,184.63138600000093,184.63138600000093,184.63138600000093,184.63138600000093,184.63138600000093,001,P005,2025_Jan_18_1525,ConditionRich,2021.2.3,59.94697091051016,
145.75,146.0,41,0.0,Stimuli/Blank.png,0,0,0.0,0,253,253,253,,,,,,,,,,,,,145.76076349999857,0.010763499998574844,None,,185.38203079999948,185.38203079999948,185.38203079999948,185.38203079999948,185.38203079999948,185.38203079999948,185.38203079999948,185.38203079999948,185.38203079999948,185.38203079999948,001,P005,2025_Jan_18_1525,ConditionRich,2021.2.3,59.94697091051016,
146.0,146.75,2,0.75,Stimuli/P005/sun_ahmycohdkioefoxs.jpg,0,0,0.0,0,254,254,254,,,,,,,,,,,,,146.01056270000117,0.010562700001173653,None,,185.63224379999883,185.63224379999883,185.63224379999883,185.63224379999883,185.63224379999883,185.63224379999883,185.63224379999883,185.63224379999883,185.63224379999883,185.63224379999883,001,P005,2025_Jan_18_1525,ConditionRich,2021.2.3,59.94697091051016,
146.75,147.0,41,0.0,Stimuli/Blank.png,0,0,0.0,0,255,255,255,,,,,,,,,,,,,146.76095590000114,0.010955900001135888,None,,186.38290609999967,186.38290609999967,186.38290609999967,186.38290609999967,186.38290609999967,186.38290609999967,186.38290609999967,186.38290609999967,186.38290609999967,186.38290609999967,001,P005,2025_Jan_18_1525,ConditionRich,2021.2.3,59.94697091051016,
147.0,147.75,2,0.75,Stimuli/P005/sun_ahmycohdkioefoxs.jpg,0,0,0.0,0,256,256,256,,,,,,,,,,,,,147.01059270000042,0.010592700000415789,None,,186.63312439999936,186.63312439999936,186.63312439999936,186.63312439999936,186.63312439999936,186.63312439999936,186.63312439999936,186.63312439999936,186.63312439999936,186.63312439999936,001,P005,2025_Jan_18_1525,ConditionRich,2021.2.3,59.94697091051016,
147.75,148.0,41,0.0,Stimuli/Blank.png,0,0,0.0,0,257,257,257,,,,,,,,,,,,,147.76157769999918,0.011577699999179458,None,,187.38378920000105,187.38378920000105,187.38378920000105,187.38378920000105,187.38378920000105,187.38378920000105,187.38378920000105,187.38378920000105,187.38378920000105,187.38378920000105,001,P005,2025_Jan_18_1525,ConditionRich,2021.2.3,59.94697091051016,
148.0,148.75,1,0.75,Stimuli/P005/sun_adyhbxohydkpecty.jpg,0,0,0.0,0,258,258,258,,,,,,,,,,,,,148.0120203000006,0.012020300000585848,None,,187.65069070000027,187.65069070000027,187.65069070000027,187.65069070000027,187.65069070000027,187.65069070000027,187.65069070000027,187.65069070000027,187.65069070000027,187.65069070000027,001,P005,2025_Jan_18_1525,ConditionRich,2021.2.3,59.94697091051016,
148.75,149.0,41,0.0,Stimuli/Blank.png,0,0,0.0,0,259,259,259,,,,,,,,,,,,,148.77976900000067,0.02976900000066962,None,,188.4013636999989,188.4013636999989,188.4013636999989,188.4013636999989,188.4013636999989,188.4013636999989,188.4013636999989,188.4013636999989,188.4013636999989,188.4013636999989,001,P005,2025_Jan_18_1525,ConditionRich,2021.2.3,59.94697091051016,
149.0,149.75,1,0.75,Stimuli/P005/sun_adyhbxohydkpecty.jpg,1,0,0.75,0,260,260,260,,,,,,,,,,,,,149.0125732000015,0.012573200001497753,4,0.4084470000016154,188.63488249999864,188.63488249999864,188.63488249999864,188.63488249999864,188.63488249999864,188.63488249999864,188.63488249999864,189.36887080000088,188.63488249999864,188.63488249999864,001,P005,2025_Jan_18_1525,ConditionRich,2021.2.3,59.94697091051016,
