eventStartTime,eventEndTime,eventCond,imSize,imFile,responseEvent,fixRespStart,fixRespEnd,Events.thisRepN,Events.thisTrialN,Events.thisN,Events.thisIndex,Instructions.started,Instructions.stopped,participantReadyResponse.keys,participantReadyResponse.rt,participantReadyResponse.started,participantReadyResponse.stopped,startWaitforTrigger,triggerResponse.keys,triggerResponse.rt,triggerResponse.started,triggerResponse.stopped,globalTimer,actualStartTime,startTimingDiff,participantResponse.keys,participantResponse.rt,participantResponse.started,participantResponse.stopped,image.started,image.stopped,fixationOutside.started,fixationOutside.stopped,fixationResponse.started,fixationResponse.stopped,fixationInside.started,fixationInside.stopped,session,participant,date,expName,psychopyVersion,frameRate,
,,,,,,,,,,,,12.651926900001854,None,4,21.590008000002854,12.651926900001854,None,,,,,,,,,,,,,,,,,,,,,006,P005,2025_Jan_18_1608,ConditionRich,2021.2.3,59.9476177709566,
,,,,,,,,,,,,,,,,,,34.25133140000253,5,15.298727200002759,34.26421350000237,None,,,,,,,,,,,,,,,,006,P005,2025_Jan_18_1608,ConditionRich,2021.2.3,59.9476177709566,
0.0,4.0,0,0.0,Stimuli/Blank.png,0,0,0.0,0,0,0,0,,,,,,,,,,,,49.56610560000263,0.052818299998762086,0.052818299998762086,5,3.9185606999999436,49.64442410000265,None,49.64442410000265,None,49.64442410000265,None,49.64442410000265,49.64442410000265,49.64442410000265,None,006,P005,2025_Jan_18_1608,ConditionRich,2021.2.3,59.9476177709566,
4.0,7.75,8,0.75,Stimuli/P005/sun_bekkgqphzbclwpvb.jpg,0,0,0.0,0,1,1,1,,,,,,,,,,,,,4.018389499997284,0.018389499997283565,5,1.9481001999993168,53.61478400000124,53.61478400000124,53.61478400000124,53.61478400000124,53.61478400000124,53.61478400000124,53.61478400000124,53.61478400000124,53.61478400000124,53.61478400000124,006,P005,2025_Jan_18_1608,ConditionRich,2021.2.3,59.9476177709566,
7.75,8.0,41,0.0,Stimuli/Blank.png,0,0,0.0,0,2,2,2,,,,,,,,,,,,,7.770721999997477,0.020721999997476814,None,,57.35147599999982,57.35147599999982,57.35147599999982,57.35147599999982,57.35147599999982,57.35147599999982,57.35147599999982,57.35147599999982,57.35147599999982,57.35147599999982,006,P005,2025_Jan_18_1608,ConditionRich,2021.2.3,59.9476177709566,
8.0,11.75,10,0.75,Stimuli/P005/sun_bgnxbfhmwhliypvg.jpg,0,0,0.0,0,3,3,3,,,,,,,,,,,,,8.006650699997408,0.006650699997408083,5,1.9616413000003377,57.60142910000286,57.60142910000286,57.60142910000286,57.60142910000286,57.60142910000286,57.60142910000286,57.60142910000286,57.60142910000286,57.60142910000286,57.60142910000286,006,P005,2025_Jan_18_1608,ConditionRich,2021.2.3,59.9476177709566,
11.75,12.0,41,0.0,Stimuli/Blank.png,0,0,0.0,0,4,4,4,,,,,,,,,,,,,11.773996500000067,0.02399650000006659,None,,61.35473439999987,61.35473439999987,61.35473439999987,61.35473439999987,61.35473439999987,61.35473439999987,61.35473439999987,61.35473439999987,61.35473439999987,61.35473439999987,006,P005,2025_Jan_18_1608,ConditionRich,2021.2.3,59.9476177709566,
12.0,15.75,39,0.75,Stimuli/P005/things_train_set_03s.jpg,0,0,0.0,0,5,5,5,,,,,,,,,,,,,12.008440199999313,0.008440199999313336,5,1.9582277000008617,61.60494760000074,61.60494760000074,61.60494760000074,61.60494760000074,61.60494760000074,61.60494760000074,61.60494760000074,61.60494760000074,61.60494760000074,61.60494760000074,006,P005,2025_Jan_18_1608,ConditionRich,2021.2.3,59.9476177709566,
15.75,16.0,41,0.0,Stimuli/Blank.png,0,0,0.0,0,6,6,6,,,,,,,,,,,,,15.778465399998822,0.02846539999882225,None,,65.35826280000038,65.35826280000038,65.35826280000038,65.35826280000038,65.35826280000038,65.35826280000038,65.35826280000038,65.35826280000038,65.35826280000038,65.35826280000038,006,P005,2025_Jan_18_1608,ConditionRich,2021.2.3,59.9476177709566,
16.0,19.75,31,0.75,Stimuli/P005/things_jukebox_03n.jpg,1,0,0.75,0,7,7,7,,,,,,,,,,,,,16.011604799998167,0.011604799998167437,5,1.971129400000791,65.59179270000095,65.59179270000095,65.59179270000095,65.59179270000095,65.59179270000095,65.59179270000095,65.59179270000095,66.32578009999997,65.59179270000095,65.59179270000095,006,P005,2025_Jan_18_1608,ConditionRich,2021.2.3,59.9476177709566,
19.75,20.0,41,0.0,Stimuli/Blank.png,0,0,0.0,0,8,8,8,,,,,,,,,,,,,19.76749039999777,0.01749039999776869,5,0.20109689999662805,69.36178579999978,69.36178579999978,69.36178579999978,69.36178579999978,69.36178579999978,69.36178579999978,69.36178579999978,69.36178579999978,69.36178579999978,69.36178579999978,006,P005,2025_Jan_18_1608,ConditionRich,2021.2.3,59.9476177709566,
20.0,23.75,28,0.75,Stimuli/P005/things_girl_03s.jpg,0,0,0.0,0,9,9,9,,,,,,,,,,,,,20.016949599998043,0.016949599998042686,5,1.9509567999994033,69.6120015000015,69.6120015000015,69.6120015000015,69.6120015000015,69.6120015000015,69.6120015000015,69.6120015000015,69.6120015000015,69.6120015000015,69.6120015000015,006,P005,2025_Jan_18_1608,ConditionRich,2021.2.3,59.9476177709566,
23.75,24.0,41,0.0,Stimuli/Blank.png,0,0,0.0,0,10,10,10,,,,,,,,,,,,,23.76789739999731,0.01789739999730955,None,,73.34862070000236,73.34862070000236,73.34862070000236,73.34862070000236,73.34862070000236,73.34862070000236,73.34862070000236,73.34862070000236,73.34862070000236,73.34862070000236,006,P005,2025_Jan_18_1608,ConditionRich,2021.2.3,59.9476177709566,
24.0,27.75,16,0.75,Stimuli/P005/sun_bwentnobehmvaxkp.jpg,0,0,0.0,0,11,11,11,,,,,,,,,,,,,24.002648699999554,0.0026486999995540828,5,1.9640304999993532,73.59883990000162,73.59883990000162,73.59883990000162,73.59883990000162,73.59883990000162,73.59883990000162,73.59883990000162,73.59883990000162,73.59883990000162,73.59883990000162,006,P005,2025_Jan_18_1608,ConditionRich,2021.2.3,59.9476177709566,
27.75,28.0,41,0.0,Stimuli/Blank.png,0,0,0.0,0,12,12,12,,,,,,,,,,,,,27.771828099997947,0.021828099997946993,None,,77.35216260000016,77.35216260000016,77.35216260000016,77.35216260000016,77.35216260000016,77.35216260000016,77.35216260000016,77.35216260000016,77.35216260000016,77.35216260000016,006,P005,2025_Jan_18_1608,ConditionRich,2021.2.3,59.9476177709566,
28.0,31.75,4,0.75,Stimuli/P005/sun_auwghripdoxzluuk.jpg,0,0,0.0,0,13,13,13,,,,,,,,,,,,,28.006116099997598,0.006116099997598212,5,1.9605076999978337,77.60236179999993,77.60236179999993,77.60236179999993,77.60236179999993,77.60236179999993,77.60236179999993,77.60236179999993,77.60236179999993,77.60236179999993,77.60236179999993,006,P005,2025_Jan_18_1608,ConditionRich,2021.2.3,59.9476177709566,
31.75,32.0,41,0.0,Stimuli/Blank.png,0,0,0.0,0,14,14,14,,,,,,,,,,,,,31.777280999998766,0.027280999998765765,5,0.19038060000093537,81.37239160000172,81.37239160000172,81.37239160000172,81.37239160000172,81.37239160000172,81.37239160000172,81.37239160000172,81.37239160000172,81.37239160000172,81.37239160000172,006,P005,2025_Jan_18_1608,ConditionRich,2021.2.3,59.9476177709566,
32.0,35.75,17,0.75,Stimuli/P005/sun_bwsictslfxygpqbp.jpg,1,3,3.75,0,15,15,15,,,,,,,,,,,,,32.02590909999708,0.025909099997079466,4,3.3298935999991954,81.60588280000229,81.60588280000229,81.60588280000229,81.60588280000229,81.60588280000229,81.60588280000229,84.59184450000248,None,81.60588280000229,81.60588280000229,006,P005,2025_Jan_18_1608,ConditionRich,2021.2.3,59.9476177709566,
35.75,36.0,41,0.0,Stimuli/Blank.png,0,0,0.0,0,16,16,16,,,,,,,,,,,,,35.76196849999906,0.011968499999056803,None,,85.34250670000256,85.34250670000256,85.34250670000256,85.34250670000256,85.34250670000256,85.34250670000256,85.34250670000256,85.34250670000256,85.34250670000256,85.34250670000256,006,P005,2025_Jan_18_1608,ConditionRich,2021.2.3,59.9476177709566,
36.0,39.75,32,0.75,Stimuli/P005/things_jumpsuit_03s.jpg,0,0,0.0,0,17,17,17,,,,,,,,,,,,,36.01265429999694,0.01265429999693879,5,1.9701614000005065,85.59273140000005,85.59273140000005,85.59273140000005,85.59273140000005,85.59273140000005,85.59273140000005,85.59273140000005,85.59273140000005,85.59273140000005,85.59273140000005,006,P005,2025_Jan_18_1608,ConditionRich,2021.2.3,59.9476177709566,
39.75,40.0,41,0.0,Stimuli/Blank.png,0,0,0.0,0,18,18,18,,,,,,,,,,,,,39.75139829999898,0.001398299998982111,5,0.21698710000055144,89.34603920000154,89.34603920000154,89.34603920000154,89.34603920000154,89.34603920000154,89.34603920000154,89.34603920000154,89.34603920000154,89.34603920000154,89.34603920000154,006,P005,2025_Jan_18_1608,ConditionRich,2021.2.3,59.9476177709566,
40.0,43.75,19,0.75,Stimuli/P005/sun_czspalxthlkjwoat.jpg,0,0,0.0,0,19,19,19,,,,,,,,,,,,,40.01719039999807,0.01719039999807137,5,1.9499777999990329,89.61293910000313,89.61293910000313,89.61293910000313,89.61293910000313,89.61293910000313,89.61293910000313,89.61293910000313,89.61293910000313,89.61293910000313,89.61293910000313,006,P005,2025_Jan_18_1608,ConditionRich,2021.2.3,59.9476177709566,
43.75,44.0,41,0.0,Stimuli/Blank.png,0,0,0.0,0,20,20,20,,,,,,,,,,,,,43.77179839999735,0.021798399997351225,5,0.19656399999803398,93.36624420000226,93.36624420000226,93.36624420000226,93.36624420000226,93.36624420000226,93.36624420000226,93.36624420000226,93.36624420000226,93.36624420000226,93.36624420000226,006,P005,2025_Jan_18_1608,ConditionRich,2021.2.3,59.9476177709566,
44.0,47.75,9,0.75,Stimuli/P005/sun_bfcmdrojsffdttzu.jpg,0,0,0.0,0,21,21,21,,,,,,,,,,,,,44.020019399999,0.020019399999000598,5,1.9631657999998424,93.59977179999987,93.59977179999987,93.59977179999987,93.59977179999987,93.59977179999987,93.59977179999987,93.59977179999987,93.59977179999987,93.59977179999987,93.59977179999987,006,P005,2025_Jan_18_1608,ConditionRich,2021.2.3,59.9476177709566,
47.75,48.0,41,0.0,Stimuli/Blank.png,0,0,0.0,0,22,22,22,,,,,,,,,,,,,47.7567229999986,0.0067229999986011535,None,,97.336401200002,97.336401200002,97.336401200002,97.336401200002,97.336401200002,97.336401200002,97.336401200002,97.336401200002,97.336401200002,97.336401200002,006,P005,2025_Jan_18_1608,ConditionRich,2021.2.3,59.9476177709566,
48.0,51.75,20,0.75,Stimuli/P005/sun_dvxuxzytfdbjyzit.jpg,0,0,0.0,0,23,23,23,,,,,,,,,,,,,48.00702989999991,0.007029899999906775,5,1.9594141999987187,97.60330130000148,97.60330130000148,97.60330130000148,97.60330130000148,97.60330130000148,97.60330130000148,97.60330130000148,97.60330130000148,97.60330130000148,97.60330130000148,006,P005,2025_Jan_18_1608,ConditionRich,2021.2.3,59.9476177709566,
51.75,52.0,41,0.0,Stimuli/Blank.png,0,0,0.0,0,24,24,24,,,,,,,,,,,,,51.77704499999891,0.02704499999890686,5,0.18973470000128145,101.37330389999988,101.37330389999988,101.37330389999988,101.37330389999988,101.37330389999988,101.37330389999988,101.37330389999988,101.37330389999988,101.37330389999988,101.37330389999988,006,P005,2025_Jan_18_1608,ConditionRich,2021.2.3,59.9476177709566,
52.0,55.75,36,0.75,Stimuli/P005/things_pony_03s.jpg,0,0,0.0,0,25,25,25,,,,,,,,,,,,,52.02694939999856,0.026949399998557055,5,1.9561928000002808,101.60683450000215,101.60683450000215,101.60683450000215,101.60683450000215,101.60683450000215,101.60683450000215,101.60683450000215,101.60683450000215,101.60683450000215,101.60683450000215,006,P005,2025_Jan_18_1608,ConditionRich,2021.2.3,59.9476177709566,
55.75,56.0,41,0.0,Stimuli/Blank.png,0,0,0.0,0,26,26,26,,,,,,,,,,,,,55.762758400000166,0.012758400000166148,None,,105.34344290000081,105.34344290000081,105.34344290000081,105.34344290000081,105.34344290000081,105.34344290000081,105.34344290000081,105.34344290000081,105.34344290000081,105.34344290000081,006,P005,2025_Jan_18_1608,ConditionRich,2021.2.3,59.9476177709566,
56.0,59.75,29,0.75,Stimuli/P005/things_guillotine_03s.jpg,0,0,0.0,0,27,27,27,,,,,,,,,,,,,56.01390309999988,0.013903099999879487,5,1.969087599998602,105.59366570000202,105.59366570000202,105.59366570000202,105.59366570000202,105.59366570000202,105.59366570000202,105.59366570000202,105.59366570000202,105.59366570000202,105.59366570000202,006,P005,2025_Jan_18_1608,ConditionRich,2021.2.3,59.9476177709566,
59.75,60.0,41,0.0,Stimuli/Blank.png,0,0,0.0,0,28,28,28,,,,,,,,,,,,,59.7512207999971,0.0012207999970996752,None,,109.33029800000077,109.33029800000077,109.33029800000077,109.33029800000077,109.33029800000077,109.33029800000077,109.33029800000077,109.33029800000077,109.33029800000077,109.33029800000077,006,P005,2025_Jan_18_1608,ConditionRich,2021.2.3,59.9476177709566,
60.0,63.75,15,0.75,Stimuli/P005/sun_btkzuhaxqlacvmsv.jpg,1,2,2.75,0,29,29,29,,,,,,,,,,,,,60.00052270000015,0.0005227000001468696,4,2.572587000002386,109.59720370000286,109.59720370000286,109.59720370000286,109.59720370000286,109.59720370000286,109.59720370000286,111.56558580000274,112.3162590000029,109.59720370000286,109.59720370000286,006,P005,2025_Jan_18_1608,ConditionRich,2021.2.3,59.9476177709566,
63.75,64.0,41,0.0,Stimuli/Blank.png,0,0,0.0,0,30,30,30,,,,,,,,,,,,,63.77108450000014,0.021084500000142725,None,,113.35050010000123,113.35050010000123,113.35050010000123,113.35050010000123,113.35050010000123,113.35050010000123,113.35050010000123,113.35050010000123,113.35050010000123,113.35050010000123,006,P005,2025_Jan_18_1608,ConditionRich,2021.2.3,59.9476177709566,
64.0,67.75,22,0.75,Stimuli/P005/things_baby_03s.jpg,0,0,0.0,0,31,31,31,,,,,,,,,,,,,64.00385759999699,0.003857599996990757,5,1.9619229000018095,113.60072490000312,113.60072490000312,113.60072490000312,113.60072490000312,113.60072490000312,113.60072490000312,113.60072490000312,113.60072490000312,113.60072490000312,113.60072490000312,006,P005,2025_Jan_18_1608,ConditionRich,2021.2.3,59.9476177709566,
67.75,68.0,41,0.0,Stimuli/Blank.png,0,0,0.0,0,32,32,32,,,,,,,,,,,,,67.77621949999957,0.026219499999569962,5,0.19192739999925834,117.37069630000042,117.37069630000042,117.37069630000042,117.37069630000042,117.37069630000042,117.37069630000042,117.37069630000042,117.37069630000042,117.37069630000042,117.37069630000042,006,P005,2025_Jan_18_1608,ConditionRich,2021.2.3,59.9476177709566,
68.0,71.75,37,0.75,Stimuli/P005/things_showerhead_03s.jpg,0,0,0.0,0,33,33,33,,,,,,,,,,,,,68.02370299999893,0.023702999998931773,5,1.942052500002319,117.62092230000053,117.62092230000053,117.62092230000053,117.62092230000053,117.62092230000053,117.62092230000053,117.62092230000053,117.62092230000053,117.62092230000053,117.62092230000053,006,P005,2025_Jan_18_1608,ConditionRich,2021.2.3,59.9476177709566,
71.75,72.0,41,0.0,Stimuli/Blank.png,0,0,0.0,0,34,34,34,,,,,,,,,,,,,71.77754429999914,0.027544299999135546,None,,121.35753470000054,121.35753470000054,121.35753470000054,121.35753470000054,121.35753470000054,121.35753470000054,121.35753470000054,121.35753470000054,121.35753470000054,121.35753470000054,006,P005,2025_Jan_18_1608,ConditionRich,2021.2.3,59.9476177709566,
72.0,75.75,18,0.75,Stimuli/P005/sun_bzqhpcsgzswozfhs.jpg,0,0,0.0,0,35,35,35,,,,,,,,,,,,,72.01152349999757,0.011523499997565523,5,1.954863300001307,121.60775950000243,121.60775950000243,121.60775950000243,121.60775950000243,121.60775950000243,121.60775950000243,121.60775950000243,121.60775950000243,121.60775950000243,121.60775950000243,006,P005,2025_Jan_18_1608,ConditionRich,2021.2.3,59.9476177709566,
75.75,76.0,41,0.0,Stimuli/Blank.png,0,0,0.0,0,36,36,36,,,,,,,,,,,,,75.78158419999818,0.03158419999817852,5,0.20154489999913494,125.3610785000019,125.3610785000019,125.3610785000019,125.3610785000019,125.3610785000019,125.3610785000019,125.3610785000019,125.3610785000019,125.3610785000019,125.3610785000019,006,P005,2025_Jan_18_1608,ConditionRich,2021.2.3,59.9476177709566,
76.0,79.75,6,0.75,Stimuli/P005/sun_bbzkhzmxdjrfjpjz.jpg,1,2,2.75,0,37,37,37,,,,,,,,,,,,,76.01388979999683,0.013889799996832153,4,2.637059299999237,125.59460650000256,125.59460650000256,125.59460650000256,125.59460650000256,125.59460650000256,125.59460650000256,127.57970320000095,128.33037310000145,125.59460650000256,125.59460650000256,006,P005,2025_Jan_18_1608,ConditionRich,2021.2.3,59.9476177709566,
79.75,80.0,41,0.0,Stimuli/Blank.png,0,0,0.0,0,38,38,38,,,,,,,,,,,,,79.75162529999943,0.0016252999994321726,None,,129.33122820000062,129.33122820000062,129.33122820000062,129.33122820000062,129.33122820000062,129.33122820000062,129.33122820000062,129.33122820000062,129.33122820000062,129.33122820000062,006,P005,2025_Jan_18_1608,ConditionRich,2021.2.3,59.9476177709566,
80.0,83.75,25,0.75,Stimuli/P005/things_dog_03s.jpg,0,0,0.0,0,39,39,39,,,,,,,,,,,,,80.00178679999954,0.001786799999536015,5,1.9639687000017148,129.59870539999974,129.59870539999974,129.59870539999974,129.59870539999974,129.59870539999974,129.59870539999974,129.59870539999974,129.59870539999974,129.59870539999974,129.59870539999974,006,P005,2025_Jan_18_1608,ConditionRich,2021.2.3,59.9476177709566,
83.75,84.0,41,0.0,Stimuli/Blank.png,0,0,0.0,0,40,40,40,,,,,,,,,,,,,83.77160309999817,0.021603099998174002,None,,133.35144030000083,133.35144030000083,133.35144030000083,133.35144030000083,133.35144030000083,133.35144030000083,133.35144030000083,133.35144030000083,133.35144030000083,133.35144030000083,006,P005,2025_Jan_18_1608,ConditionRich,2021.2.3,59.9476177709566,
84.0,100.0,0,0.0,Stimuli/Blank.png,1,6,6.75,0,41,41,41,,,,,,,,,,,,,84.00651449999714,0.006514499997138046,5,15.960946399998647,133.60165120000238,133.60165120000238,133.60165120000238,133.60165120000238,133.60165120000238,133.60165120000238,139.5735698999997,140.32422520000182,133.60165120000238,133.60165120000238,006,P005,2025_Jan_18_1608,ConditionRich,2021.2.3,59.9476177709566,
100.0,103.75,40,0.75,Stimuli/P005/things_woman_03s.jpg,1,3,3.75,0,42,42,42,,,,,,,,,,,,,100.02123369999754,0.02123369999753777,4,3.410033200001635,149.6157529000011,149.6157529000011,149.6157529000011,149.6157529000011,149.6157529000011,149.6157529000011,152.60171550000086,None,149.6157529000011,149.6157529000011,006,P005,2025_Jan_18_1608,ConditionRich,2021.2.3,59.9476177709566,
103.75,104.0,41,0.0,Stimuli/Blank.png,0,0,0.0,0,43,43,43,,,,,,,,,,,,,103.77172879999853,0.021728799998527393,None,,153.35237010000128,153.35237010000128,153.35237010000128,153.35237010000128,153.35237010000128,153.35237010000128,153.35237010000128,153.35237010000128,153.35237010000128,153.35237010000128,006,P005,2025_Jan_18_1608,ConditionRich,2021.2.3,59.9476177709566,
104.0,107.75,12,0.75,Stimuli/P005/sun_bodyuiqwqpqzwfoz.jpg,1,1,1.75,0,44,44,44,,,,,,,,,,,,,104.00722299999688,0.0072229999968840275,5,1.9600123999989592,153.60259040000165,153.60259040000165,153.60259040000165,153.60259040000165,153.60259040000165,153.60259040000165,154.58678880000298,155.3375580000029,153.60259040000165,153.60259040000165,006,P005,2025_Jan_18_1608,ConditionRich,2021.2.3,59.9476177709566,
107.75,108.0,41,0.0,Stimuli/Blank.png,0,0,0.0,0,45,45,45,,,,,,,,,,,,,107.77584329999809,0.025843299998086877,None,,157.35589059999984,157.35589059999984,157.35589059999984,157.35589059999984,157.35589059999984,157.35589059999984,157.35589059999984,157.35589059999984,157.35589059999984,157.35589059999984,006,P005,2025_Jan_18_1608,ConditionRich,2021.2.3,59.9476177709566,
108.0,111.75,7,0.75,Stimuli/P005/sun_bdmdlkpsznknrcqi.jpg,0,0,0.0,0,46,46,46,,,,,,,,,,,,,108.00974249999854,0.009742499998537824,5,1.9566672000000835,157.60613759999978,157.60613759999978,157.60613759999978,157.60613759999978,157.60613759999978,157.60613759999978,157.60613759999978,157.60613759999978,157.60613759999978,157.60613759999978,006,P005,2025_Jan_18_1608,ConditionRich,2021.2.3,59.9476177709566,
111.75,112.0,41,0.0,Stimuli/Blank.png,0,0,0.0,0,47,47,47,,,,,,,,,,,,,111.78151929999876,0.03151929999876302,5,0.18647750000309316,161.3761024000014,161.3761024000014,161.3761024000014,161.3761024000014,161.3761024000014,161.3761024000014,161.3761024000014,161.3761024000014,161.3761024000014,161.3761024000014,006,P005,2025_Jan_18_1608,ConditionRich,2021.2.3,59.9476177709566,
112.0,115.75,3,0.75,Stimuli/P005/sun_asyidwmnobuawmax.jpg,1,1,1.75,0,48,48,48,,,,,,,,,,,,,112.02949539999827,0.029495399998268113,4,1.9828726000014285,161.60963810000248,161.60963810000248,161.60963810000248,161.60963810000248,161.60963810000248,161.60963810000248,162.5938832000029,163.3449498000009,161.60963810000248,161.60963810000248,006,P005,2025_Jan_18_1608,ConditionRich,2021.2.3,59.9476177709566,
115.75,116.0,41,0.0,Stimuli/Blank.png,0,0,0.0,0,49,49,49,,,,,,,,,,,,,115.75158309999824,0.0015830999982426874,5,0.21636619999844697,165.34627069999988,165.34627069999988,165.34627069999988,165.34627069999988,165.34627069999988,165.34627069999988,165.34627069999988,165.34627069999988,165.34627069999988,165.34627069999988,006,P005,2025_Jan_18_1608,ConditionRich,2021.2.3,59.9476177709566,
116.0,119.75,5,0.75,Stimuli/P005/sun_axaqdcecfojvpvrl.jpg,0,0,0.0,0,50,50,50,,,,,,,,,,,,,116.01567090000026,0.01567090000025928,5,1.9661587999980839,165.59647659999973,165.59647659999973,165.59647659999973,165.59647659999973,165.59647659999973,165.59647659999973,165.59647659999973,165.59647659999973,165.59647659999973,165.59647659999973,006,P005,2025_Jan_18_1608,ConditionRich,2021.2.3,59.9476177709566,
119.75,120.0,41,0.0,Stimuli/Blank.png,0,0,0.0,0,51,51,51,,,,,,,,,,,,,119.75256639999861,0.002566399998613633,None,,169.33309530000042,169.33309530000042,169.33309530000042,169.33309530000042,169.33309530000042,169.33309530000042,169.33309530000042,169.33309530000042,169.33309530000042,169.33309530000042,006,P005,2025_Jan_18_1608,ConditionRich,2021.2.3,59.9476177709566,
120.0,123.75,38,0.75,Stimuli/P005/things_sledgehammer_03s.jpg,0,0,0.0,0,52,52,52,,,,,,,,,,,,,120.00347959999999,0.0034795999999914784,5,1.9624598999980662,169.59999670000252,169.59999670000252,169.59999670000252,169.59999670000252,169.59999670000252,169.59999670000252,169.59999670000252,169.59999670000252,169.59999670000252,169.59999670000252,006,P005,2025_Jan_18_1608,ConditionRich,2021.2.3,59.9476177709566,
123.75,124.0,41,0.0,Stimuli/Blank.png,0,0,0.0,0,53,53,53,,,,,,,,,,,,,123.77428589999909,0.024285899999085814,None,,173.35331880000012,173.35331880000012,173.35331880000012,173.35331880000012,173.35331880000012,173.35331880000012,173.35331880000012,173.35331880000012,173.35331880000012,173.35331880000012,006,P005,2025_Jan_18_1608,ConditionRich,2021.2.3,59.9476177709566,
124.0,127.75,2,0.75,Stimuli/P005/sun_ahmycohdkioefoxs.jpg,0,0,0.0,0,54,54,54,,,,,,,,,,,,,124.00715800000035,0.007158000000345055,5,1.975629199998366,173.58684730000095,173.58684730000095,173.58684730000095,173.58684730000095,173.58684730000095,173.58684730000095,173.58684730000095,173.58684730000095,173.58684730000095,173.58684730000095,006,P005,2025_Jan_18_1608,ConditionRich,2021.2.3,59.9476177709566,
127.75,128.0,41,0.0,Stimuli/Blank.png,0,0,0.0,0,55,55,55,,,,,,,,,,,,,127.75955529999919,0.009555299999192357,None,,177.34016990000237,177.34016990000237,177.34016990000237,177.34016990000237,177.34016990000237,177.34016990000237,177.34016990000237,177.34016990000237,177.34016990000237,177.34016990000237,006,P005,2025_Jan_18_1608,ConditionRich,2021.2.3,59.9476177709566,
128.0,131.75,21,0.75,Stimuli/P005/things_accordion_03s.jpg,0,0,0.0,0,56,56,56,,,,,,,,,,,,,128.00979749999897,0.009797499998967396,5,1.972194900001341,177.59036510000078,177.59036510000078,177.59036510000078,177.59036510000078,177.59036510000078,177.59036510000078,177.59036510000078,177.59036510000078,177.59036510000078,177.59036510000078,006,P005,2025_Jan_18_1608,ConditionRich,2021.2.3,59.9476177709566,
131.75,132.0,41,0.0,Stimuli/Blank.png,0,0,0.0,0,57,57,57,,,,,,,,,,,,,131.76615319999837,0.016153199998370837,None,,181.36036440000316,181.36036440000316,181.36036440000316,181.36036440000316,181.36036440000316,181.36036440000316,181.36036440000316,181.36036440000316,181.36036440000316,181.36036440000316,006,P005,2025_Jan_18_1608,ConditionRich,2021.2.3,59.9476177709566,
132.0,135.75,1,0.75,Stimuli/P005/sun_adyhbxohydkpecty.jpg,0,0,0.0,0,58,58,58,,,,,,,,,,,,,132.01362840000002,0.013628400000015972,5,1.9686585000017658,181.59405740000147,181.59405740000147,181.59405740000147,181.59405740000147,181.59405740000147,181.59405740000147,181.59405740000147,181.59405740000147,181.59405740000147,181.59405740000147,006,P005,2025_Jan_18_1608,ConditionRich,2021.2.3,59.9476177709566,
135.75,136.0,41,0.0,Stimuli/Blank.png,0,0,0.0,0,59,59,59,,,,,,,,,,,,,135.75132179999855,0.0013217999985499773,None,,185.33051680000062,185.33051680000062,185.33051680000062,185.33051680000062,185.33051680000062,185.33051680000062,185.33051680000062,185.33051680000062,185.33051680000062,185.33051680000062,006,P005,2025_Jan_18_1608,ConditionRich,2021.2.3,59.9476177709566,
136.0,139.75,27,0.75,Stimuli/P005/things_first-aid_kit_03s.jpg,0,0,0.0,0,60,60,60,,,,,,,,,,,,,136.00062049999906,0.0006204999990586657,5,1.964999199997692,185.59741510000094,185.59741510000094,185.59741510000094,185.59741510000094,185.59741510000094,185.59741510000094,185.59741510000094,185.59741510000094,185.59741510000094,185.59741510000094,006,P005,2025_Jan_18_1608,ConditionRich,2021.2.3,59.9476177709566,
139.75,140.0,41,0.0,Stimuli/Blank.png,0,0,0.0,0,61,61,61,,,,,,,,,,,,,139.7715105999996,0.021510599999601254,5,0.19497240000055172,189.3674196000029,189.3674196000029,189.3674196000029,189.3674196000029,189.3674196000029,189.3674196000029,189.3674196000029,189.3674196000029,189.3674196000029,189.3674196000029,006,P005,2025_Jan_18_1608,ConditionRich,2021.2.3,59.9476177709566,
140.0,143.75,24,0.75,Stimuli/P005/things_crab_03s.jpg,1,0,0.75,0,62,62,62,,,,,,,,,,,,,140.0204135999993,0.02041359999930137,5,1.9616715999982262,189.60093970000162,189.60093970000162,189.60093970000162,189.60093970000162,189.60093970000162,189.60093970000162,189.60093970000162,190.33491940000022,189.60093970000162,189.60093970000162,006,P005,2025_Jan_18_1608,ConditionRich,2021.2.3,59.9476177709566,
143.75,144.0,41,0.0,Stimuli/Blank.png,0,0,0.0,0,63,63,63,,,,,,,,,,,,,143.75724869999976,0.00724869999976363,None,,193.33756189999986,193.33756189999986,193.33756189999986,193.33756189999986,193.33756189999986,193.33756189999986,193.33756189999986,193.33756189999986,193.33756189999986,193.33756189999986,006,P005,2025_Jan_18_1608,ConditionRich,2021.2.3,59.9476177709566,
144.0,147.75,26,0.75,Stimuli/P005/things_face_03s.jpg,0,0,0.0,0,64,64,64,,,,,,,,,,,,,144.00735429999986,0.007354299999860814,5,1.9749477000004845,193.58779020000293,193.58779020000293,193.58779020000293,193.58779020000293,193.58779020000293,193.58779020000293,193.58779020000293,193.58779020000293,193.58779020000293,193.58779020000293,006,P005,2025_Jan_18_1608,ConditionRich,2021.2.3,59.9476177709566,
147.75,148.0,41,0.0,Stimuli/Blank.png,0,0,0.0,0,65,65,65,,,,,,,,,,,,,147.76200450000033,0.012004500000330154,None,,197.34108900000138,197.34108900000138,197.34108900000138,197.34108900000138,197.34108900000138,197.34108900000138,197.34108900000138,197.34108900000138,197.34108900000138,197.34108900000138,006,P005,2025_Jan_18_1608,ConditionRich,2021.2.3,59.9476177709566,
148.0,151.75,11,0.75,Stimuli/P005/sun_bjoocjyyhsmsbprr.jpg,0,0,0.0,0,66,66,66,,,,,,,,,,,,,148.01059539999915,0.010595399999147048,5,1.9712010999974154,197.5913083000014,197.5913083000014,197.5913083000014,197.5913083000014,197.5913083000014,197.5913083000014,197.5913083000014,197.5913083000014,197.5913083000014,197.5913083000014,006,P005,2025_Jan_18_1608,ConditionRich,2021.2.3,59.9476177709566,
151.75,152.0,41,0.0,Stimuli/Blank.png,0,0,0.0,0,67,67,67,,,,,,,,,,,,,151.7668378999988,0.016837899998790817,None,,201.36129970000184,201.36129970000184,201.36129970000184,201.36129970000184,201.36129970000184,201.36129970000184,201.36129970000184,201.36129970000184,201.36129970000184,201.36129970000184,006,P005,2025_Jan_18_1608,ConditionRich,2021.2.3,59.9476177709566,
152.0,155.75,33,0.75,Stimuli/P005/things_man_03s.jpg,0,0,0.0,0,68,68,68,,,,,,,,,,,,,152.01475319999736,0.014753199997358024,5,1.9675185999985842,201.59482930000013,201.59482930000013,201.59482930000013,201.59482930000013,201.59482930000013,201.59482930000013,201.59482930000013,201.59482930000013,201.59482930000013,201.59482930000013,006,P005,2025_Jan_18_1608,ConditionRich,2021.2.3,59.9476177709566,
155.75,156.0,41,0.0,Stimuli/Blank.png,0,0,0.0,0,69,69,69,,,,,,,,,,,,,155.75161899999875,0.0016189999987545889,None,,205.33145440000226,205.33145440000226,205.33145440000226,205.33145440000226,205.33145440000226,205.33145440000226,205.33145440000226,205.33145440000226,205.33145440000226,205.33145440000226,006,P005,2025_Jan_18_1608,ConditionRich,2021.2.3,59.9476177709566,
156.0,159.75,30,0.75,Stimuli/P005/things_hood_03s.jpg,0,0,0.0,0,70,70,70,,,,,,,,,,,,,156.00146609999865,0.0014660999986517709,5,1.9807122999991407,205.5816745000011,205.5816745000011,205.5816745000011,205.5816745000011,205.5816745000011,205.5816745000011,205.5816745000011,205.5816745000011,205.5816745000011,205.5816745000011,006,P005,2025_Jan_18_1608,ConditionRich,2021.2.3,59.9476177709566,
159.75,160.0,41,0.0,Stimuli/Blank.png,0,0,0.0,0,71,71,71,,,,,,,,,,,,,159.75685229999726,0.0068522999972628895,5,0.21168129999932717,209.3516621000017,209.3516621000017,209.3516621000017,209.3516621000017,209.3516621000017,209.3516621000017,209.3516621000017,209.3516621000017,209.3516621000017,209.3516621000017,006,P005,2025_Jan_18_1608,ConditionRich,2021.2.3,59.9476177709566,
160.0,163.75,34,0.75,Stimuli/P005/things_patty_03s.jpg,0,0,0.0,0,72,72,72,,,,,,,,,,,,,160.02119639999728,0.021196399997279514,5,1.9615360000025248,209.6018877000024,209.6018877000024,209.6018877000024,209.6018877000024,209.6018877000024,209.6018877000024,209.6018877000024,209.6018877000024,209.6018877000024,209.6018877000024,006,P005,2025_Jan_18_1608,ConditionRich,2021.2.3,59.9476177709566,
163.75,164.0,41,0.0,Stimuli/Blank.png,0,0,0.0,0,73,73,73,,,,,,,,,,,,,163.76112189999913,0.011121899999125162,5,0.2081742000009399,213.3551891999996,213.3551891999996,213.3551891999996,213.3551891999996,213.3551891999996,213.3551891999996,213.3551891999996,213.3551891999996,213.3551891999996,213.3551891999996,006,P005,2025_Jan_18_1608,ConditionRich,2021.2.3,59.9476177709566,
164.0,167.75,13,0.75,Stimuli/P005/sun_bruphbrfsbxowtlq.jpg,0,0,0.0,0,74,74,74,,,,,,,,,,,,,164.0261853999982,0.026185399998212233,5,1.941564600001584,213.62210179999965,213.62210179999965,213.62210179999965,213.62210179999965,213.62210179999965,213.62210179999965,213.62210179999965,213.62210179999965,213.62210179999965,213.62210179999965,006,P005,2025_Jan_18_1608,ConditionRich,2021.2.3,59.9476177709566,
167.75,168.0,41,0.0,Stimuli/Blank.png,0,0,0.0,0,75,75,75,,,,,,,,,,,,,167.78074849999757,0.030748499997571344,5,0.18790209999860963,217.37539720000132,217.37539720000132,217.37539720000132,217.37539720000132,217.37539720000132,217.37539720000132,217.37539720000132,217.37539720000132,217.37539720000132,217.37539720000132,006,P005,2025_Jan_18_1608,ConditionRich,2021.2.3,59.9476177709566,
168.0,171.75,23,0.75,Stimuli/P005/things_beetle_03s.jpg,0,0,0.0,0,76,76,76,,,,,,,,,,,,,168.0308664999975,0.030866499997500796,5,1.9376865000012913,217.6256233000022,217.6256233000022,217.6256233000022,217.6256233000022,217.6256233000022,217.6256233000022,217.6256233000022,217.6256233000022,217.6256233000022,217.6256233000022,006,P005,2025_Jan_18_1608,ConditionRich,2021.2.3,59.9476177709566,
171.75,172.0,41,0.0,Stimuli/Blank.png,0,0,0.0,0,77,77,77,,,,,,,,,,,,,171.76635259999966,0.016352599999663653,None,,221.34555270000055,221.34555270000055,221.34555270000055,221.34555270000055,221.34555270000055,221.34555270000055,221.34555270000055,221.34555270000055,221.34555270000055,221.34555270000055,006,P005,2025_Jan_18_1608,ConditionRich,2021.2.3,59.9476177709566,
172.0,175.75,14,0.75,Stimuli/P005/sun_bsirencncgxteejx.jpg,0,0,0.0,0,78,78,78,,,,,,,,,,,,,171.99917239999922,-0.0008276000007754192,5,1.9843457999995735,221.57909050000308,221.57909050000308,221.57909050000308,221.57909050000308,221.57909050000308,221.57909050000308,221.57909050000308,221.57909050000308,221.57909050000308,221.57909050000308,006,P005,2025_Jan_18_1608,ConditionRich,2021.2.3,59.9476177709566,
175.75,176.0,41,0.0,Stimuli/Blank.png,0,0,0.0,0,79,79,79,,,,,,,,,,,,,175.7526328999993,0.002632899999298388,None,,225.33246060000238,225.33246060000238,225.33246060000238,225.33246060000238,225.33246060000238,225.33246060000238,225.33246060000238,225.33246060000238,225.33246060000238,225.33246060000238,006,P005,2025_Jan_18_1608,ConditionRich,2021.2.3,59.9476177709566,
176.0,179.75,35,0.75,Stimuli/P005/things_pig_03s.jpg,1,3,3.75,0,80,80,80,,,,,,,,,,,,,176.00195099999837,0.0019509999983711168,4,3.37688160000107,225.58260580000206,225.58260580000206,225.58260580000206,225.58260580000206,225.58260580000206,225.58260580000206,228.56862610000098,229.3198091000013,225.58260580000206,225.58260580000206,006,P005,2025_Jan_18_1608,ConditionRich,2021.2.3,59.9476177709566,
179.75,180.0,41,0.0,Stimuli/Blank.png,0,0,0.0,0,81,81,81,,,,,,,,,,,,,179.75644999999713,0.006449999997130362,None,,229.335927600001,229.335927600001,229.335927600001,229.335927600001,229.335927600001,229.335927600001,229.335927600001,229.335927600001,229.335927600001,229.335927600001,006,P005,2025_Jan_18_1608,ConditionRich,2021.2.3,59.9476177709566,
180.0,196.0,0,0.0,Stimuli/Blank.png,1,4,4.75,0,82,82,82,,,,,,,,,,,,,180.00676969999768,0.006769699997676071,5,13.977129899998545,229.58615400000053,229.58615400000053,229.58615400000053,229.58615400000053,229.58615400000053,229.58615400000053,233.57303669999965,234.32364310000048,229.58615400000053,229.58615400000053,006,P005,2025_Jan_18_1608,ConditionRich,2021.2.3,59.9476177709566,
196.0,199.75,3,0.75,Stimuli/P005/sun_asyidwmnobuawmax.jpg,0,0,0.0,0,83,83,83,,,,,,,,,,,,,196.00417050000033,0.004170500000327593,5,1.9631640999978117,245.6002339000006,245.6002339000006,245.6002339000006,245.6002339000006,245.6002339000006,245.6002339000006,245.6002339000006,245.6002339000006,245.6002339000006,245.6002339000006,006,P005,2025_Jan_18_1608,ConditionRich,2021.2.3,59.9476177709566,
199.75,200.0,41,0.0,Stimuli/Blank.png,0,0,0.0,0,84,84,84,,,,,,,,,,,,,199.77365029999783,0.02365029999782564,None,,249.3535507000015,249.3535507000015,249.3535507000015,249.3535507000015,249.3535507000015,249.3535507000015,249.3535507000015,249.3535507000015,249.3535507000015,249.3535507000015,006,P005,2025_Jan_18_1608,ConditionRich,2021.2.3,59.9476177709566,
200.0,203.75,10,0.75,Stimuli/P005/sun_bgnxbfhmwhliypvg.jpg,1,3,3.75,0,85,85,85,,,,,,,,,,,,,200.00631369999974,0.006313699999736855,4,3.364275899999484,249.58707270000014,249.58707270000014,249.58707270000014,249.58707270000014,249.58707270000014,249.58707270000014,252.57310599999983,253.3237235000015,249.58707270000014,249.58707270000014,006,P005,2025_Jan_18_1608,ConditionRich,2021.2.3,59.9476177709566,
203.75,204.0,41,0.0,Stimuli/Blank.png,0,0,0.0,0,86,86,86,,,,,,,,,,,,,203.76129229999788,0.011292299997876398,None,,253.34037620000163,253.34037620000163,253.34037620000163,253.34037620000163,253.34037620000163,253.34037620000163,253.34037620000163,253.34037620000163,253.34037620000163,253.34037620000163,006,P005,2025_Jan_18_1608,ConditionRich,2021.2.3,59.9476177709566,
204.0,207.75,33,0.75,Stimuli/P005/things_man_03s.jpg,0,0,0.0,0,87,87,87,,,,,,,,,,,,,204.01012769999943,0.010127699999429751,5,1.9727950999986206,253.59053010000207,253.59053010000207,253.59053010000207,253.59053010000207,253.59053010000207,253.59053010000207,253.59053010000207,253.59053010000207,253.59053010000207,253.59053010000207,006,P005,2025_Jan_18_1608,ConditionRich,2021.2.3,59.9476177709566,
207.75,208.0,41,0.0,Stimuli/Blank.png,0,0,0.0,0,88,88,88,,,,,,,,,,,,,207.76615179999862,0.016151799998624483,None,,257.3605975999999,257.3605975999999,257.3605975999999,257.3605975999999,257.3605975999999,257.3605975999999,257.3605975999999,257.3605975999999,257.3605975999999,257.3605975999999,006,P005,2025_Jan_18_1608,ConditionRich,2021.2.3,59.9476177709566,
208.0,211.75,22,0.75,Stimuli/P005/things_baby_03s.jpg,1,2,2.75,0,89,89,89,,,,,,,,,,,,,208.01429929999722,0.01429929999721935,4,2.9061097000012523,257.5941128000013,257.5941128000013,257.5941128000013,257.5941128000013,257.5941128000013,257.5941128000013,259.5792007000018,260.3298616000029,257.5941128000013,257.5941128000013,006,P005,2025_Jan_18_1608,ConditionRich,2021.2.3,59.9476177709566,
211.75,212.0,41,0.0,Stimuli/Blank.png,0,0,0.0,0,90,90,90,,,,,,,,,,,,,211.75130109999736,0.0013010999973630533,None,,261.33074690000285,261.33074690000285,261.33074690000285,261.33074690000285,261.33074690000285,261.33074690000285,261.33074690000285,261.33074690000285,261.33074690000285,261.33074690000285,006,P005,2025_Jan_18_1608,ConditionRich,2021.2.3,59.9476177709566,
212.0,215.75,27,0.75,Stimuli/P005/things_first-aid_kit_03s.jpg,0,0,0.0,0,91,91,91,,,,,,,,,,,,,212.00160979999782,0.0016097999978228472,5,1.9654836999980034,261.5976429000002,261.5976429000002,261.5976429000002,261.5976429000002,261.5976429000002,261.5976429000002,261.5976429000002,261.5976429000002,261.5976429000002,261.5976429000002,006,P005,2025_Jan_18_1608,ConditionRich,2021.2.3,59.9476177709566,
215.75,216.0,41,0.0,Stimuli/Blank.png,0,0,0.0,0,92,92,92,,,,,,,,,,,,,215.77047609999863,0.02047609999863198,None,,265.35095,265.35095,265.35095,265.35095,265.35095,265.35095,265.35095,265.35095,265.35095,265.35095,006,P005,2025_Jan_18_1608,ConditionRich,2021.2.3,59.9476177709566,
216.0,219.75,28,0.75,Stimuli/P005/things_girl_03s.jpg,0,0,0.0,0,93,93,93,,,,,,,,,,,,,216.0067960999986,0.006796099998609861,5,1.9619275000004563,265.6011885000007,265.6011885000007,265.6011885000007,265.6011885000007,265.6011885000007,265.6011885000007,265.6011885000007,265.6011885000007,265.6011885000007,265.6011885000007,006,P005,2025_Jan_18_1608,ConditionRich,2021.2.3,59.9476177709566,
219.75,220.0,41,0.0,Stimuli/Blank.png,0,0,0.0,0,94,94,94,,,,,,,,,,,,,219.77621259999796,0.02621259999796166,5,0.19240649999846937,269.3711589000013,269.3711589000013,269.3711589000013,269.3711589000013,269.3711589000013,269.3711589000013,269.3711589000013,269.3711589000013,269.3711589000013,269.3711589000013,006,P005,2025_Jan_18_1608,ConditionRich,2021.2.3,59.9476177709566,
220.0,223.75,11,0.75,Stimuli/P005/sun_bjoocjyyhsmsbprr.jpg,0,0,0.0,0,95,95,95,,,,,,,,,,,,,220.02618559999974,0.026185599999735132,5,1.9420576000011351,269.62137740000253,269.62137740000253,269.62137740000253,269.62137740000253,269.62137740000253,269.62137740000253,269.62137740000253,269.62137740000253,269.62137740000253,269.62137740000253,006,P005,2025_Jan_18_1608,ConditionRich,2021.2.3,59.9476177709566,
223.75,224.0,41,0.0,Stimuli/Blank.png,0,0,0.0,0,96,96,96,,,,,,,,,,,,,223.7787685000003,0.028768500000296626,None,,273.3580092000011,273.3580092000011,273.3580092000011,273.3580092000011,273.3580092000011,273.3580092000011,273.3580092000011,273.3580092000011,273.3580092000011,273.3580092000011,006,P005,2025_Jan_18_1608,ConditionRich,2021.2.3,59.9476177709566,
224.0,227.75,19,0.75,Stimuli/P005/sun_czspalxthlkjwoat.jpg,1,2,2.75,0,97,97,97,,,,,,,,,,,,,224.01180860000022,0.011808600000222214,4,2.3398739000003843,273.5915337000006,273.5915337000006,273.5915337000006,273.5915337000006,273.5915337000006,273.5915337000006,275.57661890000236,276.32727440000235,273.5915337000006,273.5915337000006,006,P005,2025_Jan_18_1608,ConditionRich,2021.2.3,59.9476177709566,
227.75,228.0,41,0.0,Stimuli/Blank.png,0,0,0.0,0,98,98,98,,,,,,,,,,,,,227.76520170000003,0.01520170000003418,5,0.21829599999909988,277.3448453000019,277.3448453000019,277.3448453000019,277.3448453000019,277.3448453000019,277.3448453000019,277.3448453000019,277.3448453000019,277.3448453000019,277.3448453000019,006,P005,2025_Jan_18_1608,ConditionRich,2021.2.3,59.9476177709566,
228.0,231.75,18,0.75,Stimuli/P005/sun_bzqhpcsgzswozfhs.jpg,0,0,0.0,0,99,99,99,,,,,,,,,,,,,228.01521349999894,0.015213499998935731,5,1.968148600000859,277.5950535000011,277.5950535000011,277.5950535000011,277.5950535000011,277.5950535000011,277.5950535000011,277.5950535000011,277.5950535000011,277.5950535000011,277.5950535000011,006,P005,2025_Jan_18_1608,ConditionRich,2021.2.3,59.9476177709566,
231.75,232.0,41,0.0,Stimuli/Blank.png,0,0,0.0,0,100,100,100,,,,,,,,,,,,,231.75171879999834,0.0017187999983434565,None,,281.33168099999966,281.33168099999966,281.33168099999966,281.33168099999966,281.33168099999966,281.33168099999966,281.33168099999966,281.33168099999966,281.33168099999966,281.33168099999966,006,P005,2025_Jan_18_1608,ConditionRich,2021.2.3,59.9476177709566,
232.0,235.75,12,0.75,Stimuli/P005/sun_bodyuiqwqpqzwfoz.jpg,0,0,0.0,0,101,101,101,,,,,,,,,,,,,232.00198610000007,0.001986100000067381,5,1.9812127999975928,281.5818966000006,281.5818966000006,281.5818966000006,281.5818966000006,281.5818966000006,281.5818966000006,281.5818966000006,281.5818966000006,281.5818966000006,281.5818966000006,006,P005,2025_Jan_18_1608,ConditionRich,2021.2.3,59.9476177709566,
235.75,236.0,41,0.0,Stimuli/Blank.png,0,0,0.0,0,102,102,102,,,,,,,,,,,,,235.75453239999842,0.0045323999984248076,None,,285.3352570999996,285.3352570999996,285.3352570999996,285.3352570999996,285.3352570999996,285.3352570999996,285.3352570999996,285.3352570999996,285.3352570999996,285.3352570999996,006,P005,2025_Jan_18_1608,ConditionRich,2021.2.3,59.9476177709566,
236.0,239.75,2,0.75,Stimuli/P005/sun_ahmycohdkioefoxs.jpg,0,0,0.0,0,103,103,103,,,,,,,,,,,,,236.00539019999997,0.005390199999965262,5,1.9777536000001419,285.58543009999994,285.58543009999994,285.58543009999994,285.58543009999994,285.58543009999994,285.58543009999994,285.58543009999994,285.58543009999994,285.58543009999994,285.58543009999994,006,P005,2025_Jan_18_1608,ConditionRich,2021.2.3,59.9476177709566,
239.75,240.0,41,0.0,Stimuli/Blank.png,0,0,0.0,0,104,104,104,,,,,,,,,,,,,239.76073309999992,0.010733099999924889,5,0.20794939999905182,289.3554127999996,289.3554127999996,289.3554127999996,289.3554127999996,289.3554127999996,289.3554127999996,289.3554127999996,289.3554127999996,289.3554127999996,289.3554127999996,006,P005,2025_Jan_18_1608,ConditionRich,2021.2.3,59.9476177709566,
240.0,243.75,30,0.75,Stimuli/P005/things_hood_03s.jpg,0,0,0.0,0,105,105,105,,,,,,,,,,,,,240.02629469999738,0.02629469999737921,5,1.9410578999995778,289.62230900000213,289.62230900000213,289.62230900000213,289.62230900000213,289.62230900000213,289.62230900000213,289.62230900000213,289.62230900000213,289.62230900000213,289.62230900000213,006,P005,2025_Jan_18_1608,ConditionRich,2021.2.3,59.9476177709566,
243.75,244.0,41,0.0,Stimuli/Blank.png,0,0,0.0,0,106,106,106,,,,,,,,,,,,,243.78058640000017,0.030586400000174763,5,0.18753929999729735,293.37561730000016,293.37561730000016,293.37561730000016,293.37561730000016,293.37561730000016,293.37561730000016,293.37561730000016,293.37561730000016,293.37561730000016,293.37561730000016,006,P005,2025_Jan_18_1608,ConditionRich,2021.2.3,59.9476177709566,
244.0,247.75,4,0.75,Stimuli/P005/sun_auwghripdoxzluuk.jpg,0,0,0.0,0,107,107,107,,,,,,,,,,,,,244.0292195999973,0.029219599997304613,5,1.9539509999995062,293.609171600001,293.609171600001,293.609171600001,293.609171600001,293.609171600001,293.609171600001,293.609171600001,293.609171600001,293.609171600001,293.609171600001,006,P005,2025_Jan_18_1608,ConditionRich,2021.2.3,59.9476177709566,
247.75,248.0,41,0.0,Stimuli/Blank.png,0,0,0.0,0,108,108,108,,,,,,,,,,,,,247.75060490000033,0.0006049000003258698,5,0.21737690000009025,297.34577759999956,297.34577759999956,297.34577759999956,297.34577759999956,297.34577759999956,297.34577759999956,297.34577759999956,297.34577759999956,297.34577759999956,297.34577759999956,006,P005,2025_Jan_18_1608,ConditionRich,2021.2.3,59.9476177709566,
248.0,251.75,38,0.75,Stimuli/P005/things_sledgehammer_03s.jpg,0,0,0.0,0,109,109,109,,,,,,,,,,,,,248.01596749999953,0.015967499999533175,5,1.9670632000015758,297.5959905000018,297.5959905000018,297.5959905000018,297.5959905000018,297.5959905000018,297.5959905000018,297.5959905000018,297.5959905000018,297.5959905000018,297.5959905000018,006,P005,2025_Jan_18_1608,ConditionRich,2021.2.3,59.9476177709566,
251.75,252.0,41,0.0,Stimuli/Blank.png,0,0,0.0,0,110,110,110,,,,,,,,,,,,,251.75257639999836,0.002576399998361012,None,,301.3326865000017,301.3326865000017,301.3326865000017,301.3326865000017,301.3326865000017,301.3326865000017,301.3326865000017,301.3326865000017,301.3326865000017,301.3326865000017,006,P005,2025_Jan_18_1608,ConditionRich,2021.2.3,59.9476177709566,
252.0,255.75,26,0.75,Stimuli/P005/things_face_03s.jpg,0,0,0.0,0,111,111,111,,,,,,,,,,,,,252.00286799999958,0.0028679999995802063,5,1.963595000001078,301.5995314000029,301.5995314000029,301.5995314000029,301.5995314000029,301.5995314000029,301.5995314000029,301.5995314000029,301.5995314000029,301.5995314000029,301.5995314000029,006,P005,2025_Jan_18_1608,ConditionRich,2021.2.3,59.9476177709566,
255.75,256.0,41,0.0,Stimuli/Blank.png,0,0,0.0,0,112,112,112,,,,,,,,,,,,,255.77264639999703,0.02264639999702922,None,,305.35290440000244,305.35290440000244,305.35290440000244,305.35290440000244,305.35290440000244,305.35290440000244,305.35290440000244,305.35290440000244,305.35290440000244,305.35290440000244,006,P005,2025_Jan_18_1608,ConditionRich,2021.2.3,59.9476177709566,
256.0,259.75,35,0.75,Stimuli/P005/things_pig_03s.jpg,0,0,0.0,0,113,113,113,,,,,,,,,,,,,256.00646079999933,0.006460799999331357,5,1.9602817000013602,305.6030342000013,305.6030342000013,305.6030342000013,305.6030342000013,305.6030342000013,305.6030342000013,305.6030342000013,305.6030342000013,305.6030342000013,305.6030342000013,006,P005,2025_Jan_18_1608,ConditionRich,2021.2.3,59.9476177709566,
259.75,260.0,41,0.0,Stimuli/Blank.png,0,0,0.0,0,114,114,114,,,,,,,,,,,,,259.775975499997,0.02597549999700277,None,,309.3563559000031,309.3563559000031,309.3563559000031,309.3563559000031,309.3563559000031,309.3563559000031,309.3563559000031,309.3563559000031,309.3563559000031,309.3563559000031,006,P005,2025_Jan_18_1608,ConditionRich,2021.2.3,59.9476177709566,
260.0,263.75,34,0.75,Stimuli/P005/things_patty_03s.jpg,0,0,0.0,0,115,115,115,,,,,,,,,,,,,260.01133469999695,0.011334699996950803,5,1.9564458999993803,309.6065703000022,309.6065703000022,309.6065703000022,309.6065703000022,309.6065703000022,309.6065703000022,309.6065703000022,309.6065703000022,309.6065703000022,309.6065703000022,006,P005,2025_Jan_18_1608,ConditionRich,2021.2.3,59.9476177709566,
263.75,264.0,41,0.0,Stimuli/Blank.png,0,0,0.0,0,116,116,116,,,,,,,,,,,,,263.779990199997,0.029990199996973388,None,,313.3598657000002,313.3598657000002,313.3598657000002,313.3598657000002,313.3598657000002,313.3598657000002,313.3598657000002,313.3598657000002,313.3598657000002,313.3598657000002,006,P005,2025_Jan_18_1608,ConditionRich,2021.2.3,59.9476177709566,
264.0,267.75,5,0.75,Stimuli/P005/sun_axaqdcecfojvpvrl.jpg,1,2,2.75,0,117,117,117,,,,,,,,,,,,,264.0153167999997,0.015316799999709474,4,2.392129899999418,313.6100895000018,313.6100895000018,313.6100895000018,313.6100895000018,313.6100895000018,313.6100895000018,315.59516670000085,316.3458290000017,313.6100895000018,313.6100895000018,006,P005,2025_Jan_18_1608,ConditionRich,2021.2.3,59.9476177709566,
267.75,268.0,41,0.0,Stimuli/Blank.png,0,0,0.0,0,118,118,118,,,,,,,,,,,,,267.76701129999856,0.01701129999855766,None,,317.3467128000011,317.3467128000011,317.3467128000011,317.3467128000011,317.3467128000011,317.3467128000011,317.3467128000011,317.3467128000011,317.3467128000011,317.3467128000011,006,P005,2025_Jan_18_1608,ConditionRich,2021.2.3,59.9476177709566,
268.0,271.75,8,0.75,Stimuli/P005/sun_bekkgqphzbclwpvb.jpg,0,0,0.0,0,119,119,119,,,,,,,,,,,,,267.99963269999716,-0.000367300002835691,5,1.9827700999994704,317.5802505000029,317.5802505000029,317.5802505000029,317.5802505000029,317.5802505000029,317.5802505000029,317.5802505000029,317.5802505000029,317.5802505000029,317.5802505000029,006,P005,2025_Jan_18_1608,ConditionRich,2021.2.3,59.9476177709566,
271.75,272.0,41,0.0,Stimuli/Blank.png,0,0,0.0,0,120,120,120,,,,,,,,,,,,,271.755525499997,0.005525499997020233,5,0.21290030000091065,321.3502574000013,321.3502574000013,321.3502574000013,321.3502574000013,321.3502574000013,321.3502574000013,321.3502574000013,321.3502574000013,321.3502574000013,321.3502574000013,006,P005,2025_Jan_18_1608,ConditionRich,2021.2.3,59.9476177709566,
272.0,275.75,32,0.75,Stimuli/P005/things_jumpsuit_03s.jpg,0,0,0.0,0,121,121,121,,,,,,,,,,,,,272.0207015999986,0.02070159999857424,5,1.9624863999997615,321.6004544999996,321.6004544999996,321.6004544999996,321.6004544999996,321.6004544999996,321.6004544999996,321.6004544999996,321.6004544999996,321.6004544999996,321.6004544999996,006,P005,2025_Jan_18_1608,ConditionRich,2021.2.3,59.9476177709566,
275.75,276.0,41,0.0,Stimuli/Blank.png,0,0,0.0,0,122,122,122,,,,,,,,,,,,,275.75696259999677,0.006962599996768404,None,,325.3370947000003,325.3370947000003,325.3370947000003,325.3370947000003,325.3370947000003,325.3370947000003,325.3370947000003,325.3370947000003,325.3370947000003,325.3370947000003,006,P005,2025_Jan_18_1608,ConditionRich,2021.2.3,59.9476177709566,
276.0,292.0,0,0.0,Stimuli/Blank.png,1,5,5.75,0,123,123,123,,,,,,,,,,,,,276.00717539999823,0.007175399998232024,5,13.975599299999885,325.5873179000009,325.5873179000009,325.5873179000009,325.5873179000009,325.5873179000009,325.5873179000009,330.575034700003,331.3256863000024,325.5873179000009,325.5873179000009,006,P005,2025_Jan_18_1608,ConditionRich,2021.2.3,59.9476177709566,
292.0,295.75,40,0.75,Stimuli/P005/things_woman_03s.jpg,0,0,0.0,0,124,124,124,,,,,,,,,,,,,292.00496849999763,0.004968499997630715,5,1.9782169000027352,341.5847222000011,341.5847222000011,341.5847222000011,341.5847222000011,341.5847222000011,341.5847222000011,341.5847222000011,341.5847222000011,341.5847222000011,341.5847222000011,006,P005,2025_Jan_18_1608,ConditionRich,2021.2.3,59.9476177709566,
295.75,296.0,41,0.0,Stimuli/Blank.png,0,0,0.0,0,125,125,125,,,,,,,,,,,,,295.76053919999686,0.010539199996856041,5,0.2081450000005134,345.35470270000224,345.35470270000224,345.35470270000224,345.35470270000224,345.35470270000224,345.35470270000224,345.35470270000224,345.35470270000224,345.35470270000224,345.35470270000224,006,P005,2025_Jan_18_1608,ConditionRich,2021.2.3,59.9476177709566,
296.0,299.75,21,0.75,Stimuli/P005/things_accordion_03s.jpg,0,0,0.0,0,126,126,126,,,,,,,,,,,,,296.02471989999685,0.0247198999968532,5,1.958242100001371,345.60491810000167,345.60491810000167,345.60491810000167,345.60491810000167,345.60491810000167,345.60491810000167,345.60491810000167,345.60491810000167,345.60491810000167,345.60491810000167,006,P005,2025_Jan_18_1608,ConditionRich,2021.2.3,59.9476177709566,
299.75,300.0,41,0.0,Stimuli/Blank.png,0,0,0.0,0,127,127,127,,,,,,,,,,,,,299.7614716999997,0.011471699999674456,None,,349.34154710000075,349.34154710000075,349.34154710000075,349.34154710000075,349.34154710000075,349.34154710000075,349.34154710000075,349.34154710000075,349.34154710000075,349.34154710000075,006,P005,2025_Jan_18_1608,ConditionRich,2021.2.3,59.9476177709566,
300.0,303.75,6,0.75,Stimuli/P005/sun_bbzkhzmxdjrfjpjz.jpg,0,0,0.0,0,128,128,128,,,,,,,,,,,,,300.0118440999977,0.011844099997688318,5,1.9711461000006238,349.59175420000247,349.59175420000247,349.59175420000247,349.59175420000247,349.59175420000247,349.59175420000247,349.59175420000247,349.59175420000247,349.59175420000247,349.59175420000247,006,P005,2025_Jan_18_1608,ConditionRich,2021.2.3,59.9476177709566,
303.75,304.0,41,0.0,Stimuli/Blank.png,0,0,0.0,0,129,129,129,,,,,,,,,,,,,303.76520059999893,0.015200599998934194,5,0.21782270000039716,353.3450735000006,353.3450735000006,353.3450735000006,353.3450735000006,353.3450735000006,353.3450735000006,353.3450735000006,353.3450735000006,353.3450735000006,353.3450735000006,006,P005,2025_Jan_18_1608,ConditionRich,2021.2.3,59.9476177709566,
304.0,307.75,39,0.75,Stimuli/P005/things_train_set_03s.jpg,0,0,0.0,0,130,130,130,,,,,,,,,,,,,304.0153047999993,0.015304799999285024,5,1.967684699997335,353.59528320000027,353.59528320000027,353.59528320000027,353.59528320000027,353.59528320000027,353.59528320000027,353.59528320000027,353.59528320000027,353.59528320000027,353.59528320000027,006,P005,2025_Jan_18_1608,ConditionRich,2021.2.3,59.9476177709566,
307.75,308.0,41,0.0,Stimuli/Blank.png,0,0,0.0,0,131,131,131,,,,,,,,,,,,,307.7516601999996,0.0016601999996055383,None,,357.33190410000316,357.33190410000316,357.33190410000316,357.33190410000316,357.33190410000316,357.33190410000316,357.33190410000316,357.33190410000316,357.33190410000316,357.33190410000316,006,P005,2025_Jan_18_1608,ConditionRich,2021.2.3,59.9476177709566,
308.0,311.75,25,0.75,Stimuli/P005/things_dog_03s.jpg,0,0,0.0,0,132,132,132,,,,,,,,,,,,,308.00159489999714,0.001594899997144239,5,1.980892200001108,357.5821262000027,357.5821262000027,357.5821262000027,357.5821262000027,357.5821262000027,357.5821262000027,357.5821262000027,357.5821262000027,357.5821262000027,357.5821262000027,006,P005,2025_Jan_18_1608,ConditionRich,2021.2.3,59.9476177709566,
311.75,312.0,41,0.0,Stimuli/Blank.png,0,0,0.0,0,133,133,133,,,,,,,,,,,,,311.75562159999754,0.005621599997539306,None,,361.3354454,361.3354454,361.3354454,361.3354454,361.3354454,361.3354454,361.3354454,361.3354454,361.3354454,361.3354454,006,P005,2025_Jan_18_1608,ConditionRich,2021.2.3,59.9476177709566,
312.0,315.75,13,0.75,Stimuli/P005/sun_bruphbrfsbxowtlq.jpg,0,0,0.0,0,134,134,134,,,,,,,,,,,,,312.00533519999954,0.005335199999535689,5,1.977190800000244,361.58566460000293,361.58566460000293,361.58566460000293,361.58566460000293,361.58566460000293,361.58566460000293,361.58566460000293,361.58566460000293,361.58566460000293,361.58566460000293,006,P005,2025_Jan_18_1608,ConditionRich,2021.2.3,59.9476177709566,
315.75,316.0,41,0.0,Stimuli/Blank.png,0,0,0.0,0,135,135,135,,,,,,,,,,,,,315.7605485999993,0.010548599999310682,5,0.20714679999946384,365.3556430999997,365.3556430999997,365.3556430999997,365.3556430999997,365.3556430999997,365.3556430999997,365.3556430999997,365.3556430999997,365.3556430999997,365.3556430999997,006,P005,2025_Jan_18_1608,ConditionRich,2021.2.3,59.9476177709566,
316.0,319.75,17,0.75,Stimuli/P005/sun_bwsictslfxygpqbp.jpg,0,0,0.0,0,136,136,136,,,,,,,,,,,,,316.0260183999999,0.026018399999884423,5,1.9570000999992772,365.6058551000024,365.6058551000024,365.6058551000024,365.6058551000024,365.6058551000024,365.6058551000024,365.6058551000024,365.6058551000024,365.6058551000024,365.6058551000024,006,P005,2025_Jan_18_1608,ConditionRich,2021.2.3,59.9476177709566,
319.75,320.0,41,0.0,Stimuli/Blank.png,0,0,0.0,0,137,137,137,,,,,,,,,,,,,319.76240889999826,0.012408899998263223,None,,369.3424561000029,369.3424561000029,369.3424561000029,369.3424561000029,369.3424561000029,369.3424561000029,369.3424561000029,369.3424561000029,369.3424561000029,369.3424561000029,006,P005,2025_Jan_18_1608,ConditionRich,2021.2.3,59.9476177709566,
320.0,323.75,9,0.75,Stimuli/P005/sun_bfcmdrojsffdttzu.jpg,0,0,0.0,0,138,138,138,,,,,,,,,,,,,320.0126455999998,0.012645599999814294,5,1.9533224000006157,369.6094051,369.6094051,369.6094051,369.6094051,369.6094051,369.6094051,369.6094051,369.6094051,369.6094051,369.6094051,006,P005,2025_Jan_18_1608,ConditionRich,2021.2.3,59.9476177709566,
323.75,324.0,41,0.0,Stimuli/Blank.png,0,0,0.0,0,139,139,139,,,,,,,,,,,,,323.7661066999972,0.01610669999718084,None,,373.34601290000137,373.34601290000137,373.34601290000137,373.34601290000137,373.34601290000137,373.34601290000137,373.34601290000137,373.34601290000137,373.34601290000137,373.34601290000137,006,P005,2025_Jan_18_1608,ConditionRich,2021.2.3,59.9476177709566,
324.0,327.75,14,0.75,Stimuli/P005/sun_bsirencncgxteejx.jpg,1,3,3.75,0,140,140,140,,,,,,,,,,,,,323.9995119999985,-0.00048800000149640255,5,1.9832495000009658,373.57953960000305,373.57953960000305,373.57953960000305,373.57953960000305,373.57953960000305,373.57953960000305,376.56550100000095,377.3161586000024,373.57953960000305,373.57953960000305,006,P005,2025_Jan_18_1608,ConditionRich,2021.2.3,59.9476177709566,
327.75,328.0,41,0.0,Stimuli/Blank.png,0,0,0.0,0,141,141,141,,,,,,,,,,,,,327.7523758999996,0.0023758999996061902,None,,377.3328493000008,377.3328493000008,377.3328493000008,377.3328493000008,377.3328493000008,377.3328493000008,377.3328493000008,377.3328493000008,377.3328493000008,377.3328493000008,006,P005,2025_Jan_18_1608,ConditionRich,2021.2.3,59.9476177709566,
328.0,331.75,20,0.75,Stimuli/P005/sun_dvxuxzytfdbjyzit.jpg,0,0,0.0,0,142,142,142,,,,,,,,,,,,,328.0027728999994,0.0027728999993996695,5,1.9631879999978992,377.5997392999998,377.5997392999998,377.5997392999998,377.5997392999998,377.5997392999998,377.5997392999998,377.5997392999998,377.5997392999998,377.5997392999998,377.5997392999998,006,P005,2025_Jan_18_1608,ConditionRich,2021.2.3,59.9476177709566,
331.75,332.0,41,0.0,Stimuli/Blank.png,0,0,0.0,0,143,143,143,,,,,,,,,,,,,331.7726337999993,0.022633799999312032,None,,381.35305190000145,381.35305190000145,381.35305190000145,381.35305190000145,381.35305190000145,381.35305190000145,381.35305190000145,381.35305190000145,381.35305190000145,381.35305190000145,006,P005,2025_Jan_18_1608,ConditionRich,2021.2.3,59.9476177709566,
332.0,335.75,7,0.75,Stimuli/P005/sun_bdmdlkpsznknrcqi.jpg,0,0,0.0,0,144,144,144,,,,,,,,,,,,,332.00598119999995,0.005981199999951059,5,1.9764534999994794,381.5865932000015,381.5865932000015,381.5865932000015,381.5865932000015,381.5865932000015,381.5865932000015,381.5865932000015,381.5865932000015,381.5865932000015,381.5865932000015,006,P005,2025_Jan_18_1608,ConditionRich,2021.2.3,59.9476177709566,
335.75,336.0,41,0.0,Stimuli/Blank.png,0,0,0.0,0,145,145,145,,,,,,,,,,,,,335.7605092999984,0.010509299998375354,None,,385.33990560000166,385.33990560000166,385.33990560000166,385.33990560000166,385.33990560000166,385.33990560000166,385.33990560000166,385.33990560000166,385.33990560000166,385.33990560000166,006,P005,2025_Jan_18_1608,ConditionRich,2021.2.3,59.9476177709566,
336.0,339.75,37,0.75,Stimuli/P005/things_showerhead_03s.jpg,1,1,1.75,0,146,146,146,,,,,,,,,,,,,336.0100113999979,0.010011399997893022,5,1.9727018000012322,385.59011010000177,385.59011010000177,385.59011010000177,385.59011010000177,385.59011010000177,385.59011010000177,386.57433070000116,387.32496900000115,385.59011010000177,385.59011010000177,006,P005,2025_Jan_18_1608,ConditionRich,2021.2.3,59.9476177709566,
339.75,340.0,41,0.0,Stimuli/Blank.png,0,0,0.0,0,147,147,147,,,,,,,,,,,,,339.76571989999866,0.015719899998657638,None,,389.3601062000016,389.3601062000016,389.3601062000016,389.3601062000016,389.3601062000016,389.3601062000016,389.3601062000016,389.3601062000016,389.3601062000016,389.3601062000016,006,P005,2025_Jan_18_1608,ConditionRich,2021.2.3,59.9476177709566,
340.0,343.75,31,0.75,Stimuli/P005/things_jukebox_03n.jpg,1,1,1.75,0,148,148,148,,,,,,,,,,,,,340.01387350000005,0.01387350000004517,5,1.9692901999987953,389.5936060000022,389.5936060000022,389.5936060000022,389.5936060000022,389.5936060000022,389.5936060000022,390.57788490000166,391.32854170000064,389.5936060000022,389.5936060000022,006,P005,2025_Jan_18_1608,ConditionRich,2021.2.3,59.9476177709566,
343.75,344.0,41,0.0,Stimuli/Blank.png,0,0,0.0,0,149,149,149,,,,,,,,,,,,,343.7499390999983,-6.0900001699337736e-05,None,,393.3302653000028,393.3302653000028,393.3302653000028,393.3302653000028,393.3302653000028,393.3302653000028,393.3302653000028,393.3302653000028,393.3302653000028,393.3302653000028,006,P005,2025_Jan_18_1608,ConditionRich,2021.2.3,59.9476177709566,
344.0,347.75,23,0.75,Stimuli/P005/things_beetle_03s.jpg,1,3,3.75,0,150,150,150,,,,,,,,,,,,,343.99972100000014,-0.0002789999998640269,4,3.3302671999990707,393.5804769000024,393.5804769000024,393.5804769000024,393.5804769000024,393.5804769000024,393.5804769000024,396.56644740000047,397.317093200003,393.5804769000024,393.5804769000024,006,P005,2025_Jan_18_1608,ConditionRich,2021.2.3,59.9476177709566,
347.75,348.0,41,0.0,Stimuli/Blank.png,0,0,0.0,0,151,151,151,,,,,,,,,,,,,347.7537083999996,0.003708399999595713,None,,397.3337820000015,397.3337820000015,397.3337820000015,397.3337820000015,397.3337820000015,397.3337820000015,397.3337820000015,397.3337820000015,397.3337820000015,397.3337820000015,006,P005,2025_Jan_18_1608,ConditionRich,2021.2.3,59.9476177709566,
348.0,351.75,29,0.75,Stimuli/P005/things_guillotine_03s.jpg,0,0,0.0,0,152,152,152,,,,,,,,,,,,,348.00462309999784,0.004623099997843383,5,1.962189899997611,397.6006785000027,397.6006785000027,397.6006785000027,397.6006785000027,397.6006785000027,397.6006785000027,397.6006785000027,397.6006785000027,397.6006785000027,397.6006785000027,006,P005,2025_Jan_18_1608,ConditionRich,2021.2.3,59.9476177709566,
351.75,352.0,41,0.0,Stimuli/Blank.png,0,0,0.0,0,153,153,153,,,,,,,,,,,,,351.7744883999985,0.024488399998517707,None,,401.35398910000004,401.35398910000004,401.35398910000004,401.35398910000004,401.35398910000004,401.35398910000004,401.35398910000004,401.35398910000004,401.35398910000004,401.35398910000004,006,P005,2025_Jan_18_1608,ConditionRich,2021.2.3,59.9476177709566,
352.0,355.75,16,0.75,Stimuli/P005/sun_bwentnobehmvaxkp.jpg,0,0,0.0,0,154,154,154,,,,,,,,,,,,,352.0073959000001,0.007395900000119582,5,1.958498599997256,401.6042187000021,401.6042187000021,401.6042187000021,401.6042187000021,401.6042187000021,401.6042187000021,401.6042187000021,401.6042187000021,401.6042187000021,401.6042187000021,006,P005,2025_Jan_18_1608,ConditionRich,2021.2.3,59.9476177709566,
355.75,356.0,41,0.0,Stimuli/Blank.png,0,0,0.0,0,155,155,155,,,,,,,,,,,,,355.7772718999986,0.027271899998595472,None,,405.35750610000105,405.35750610000105,405.35750610000105,405.35750610000105,405.35750610000105,405.35750610000105,405.35750610000105,405.35750610000105,405.35750610000105,405.35750610000105,006,P005,2025_Jan_18_1608,ConditionRich,2021.2.3,59.9476177709566,
356.0,359.75,15,0.75,Stimuli/P005/sun_btkzuhaxqlacvmsv.jpg,1,3,3.75,0,156,156,156,,,,,,,,,,,,,356.0111094999993,0.011109499999292893,5,1.971688500001619,405.59104650000154,405.59104650000154,405.59104650000154,405.59104650000154,405.59104650000154,405.59104650000154,408.57704750000266,409.3277095000012,405.59104650000154,405.59104650000154,006,P005,2025_Jan_18_1608,ConditionRich,2021.2.3,59.9476177709566,
359.75,360.0,41,0.0,Stimuli/Blank.png,0,0,0.0,0,157,157,157,,,,,,,,,,,,,359.7646107999972,0.014610799997171853,4,0.1993287999976019,409.34436180000193,409.34436180000193,409.34436180000193,409.34436180000193,409.34436180000193,409.34436180000193,409.34436180000193,409.34436180000193,409.34436180000193,409.34436180000193,006,P005,2025_Jan_18_1608,ConditionRich,2021.2.3,59.9476177709566,
360.0,363.75,36,0.75,Stimuli/P005/things_pony_03s.jpg,0,0,0.0,0,158,158,158,,,,,,,,,,,,,360.0149433999977,0.014943399997719098,5,1.9514812999987043,409.61125780000293,409.61125780000293,409.61125780000293,409.61125780000293,409.61125780000293,409.61125780000293,409.61125780000293,409.61125780000293,409.61125780000293,409.61125780000293,006,P005,2025_Jan_18_1608,ConditionRich,2021.2.3,59.9476177709566,
363.75,364.0,41,0.0,Stimuli/Blank.png,0,0,0.0,0,159,159,159,,,,,,,,,,,,,363.7680378999976,0.018037899997580098,None,,413.3478799000004,413.3478799000004,413.3478799000004,413.3478799000004,413.3478799000004,413.3478799000004,413.3478799000004,413.3478799000004,413.3478799000004,413.3478799000004,006,P005,2025_Jan_18_1608,ConditionRich,2021.2.3,59.9476177709566,
364.0,367.75,1,0.75,Stimuli/P005/sun_adyhbxohydkpecty.jpg,0,0,0.0,0,160,160,160,,,,,,,,,,,,,364.00066559999686,0.00066559999686433,5,1.981411199998547,413.58141500000056,413.58141500000056,413.58141500000056,413.58141500000056,413.58141500000056,413.58141500000056,413.58141500000056,413.58141500000056,413.58141500000056,413.58141500000056,006,P005,2025_Jan_18_1608,ConditionRich,2021.2.3,59.9476177709566,
367.75,368.0,41,0.0,Stimuli/Blank.png,0,0,0.0,0,161,161,161,,,,,,,,,,,,,367.75500329999704,0.005003299997042632,None,,417.3348737000015,417.3348737000015,417.3348737000015,417.3348737000015,417.3348737000015,417.3348737000015,417.3348737000015,417.3348737000015,417.3348737000015,417.3348737000015,006,P005,2025_Jan_18_1608,ConditionRich,2021.2.3,59.9476177709566,
368.0,371.75,24,0.75,Stimuli/P005/things_crab_03s.jpg,0,0,0.0,0,162,162,162,,,,,,,,,,,,,368.0054431999997,0.005443199999717763,5,1.96099569999933,417.60164010000153,417.60164010000153,417.60164010000153,417.60164010000153,417.60164010000153,417.60164010000153,417.60164010000153,417.60164010000153,417.60164010000153,417.60164010000153,006,P005,2025_Jan_18_1608,ConditionRich,2021.2.3,59.9476177709566,
371.75,372.0,41,0.0,Stimuli/Blank.png,0,0,0.0,0,163,163,163,,,,,,,,,,,,,371.77492429999984,0.024924299999838695,None,,421.35492570000133,421.35492570000133,421.35492570000133,421.35492570000133,421.35492570000133,421.35492570000133,421.35492570000133,421.35492570000133,421.35492570000133,421.35492570000133,006,P005,2025_Jan_18_1608,ConditionRich,2021.2.3,59.9476177709566,
372.0,388.0,0,0.0,Stimuli/Blank.png,1,5,5.75,0,164,164,164,,,,,,,,,,,,,372.0086596000001,0.008659600000100909,5,13.974280800000997,421.58845620000284,421.58845620000284,421.58845620000284,421.58845620000284,421.58845620000284,421.58845620000284,426.5761614000003,427.3268387999997,421.58845620000284,421.58845620000284,006,P005,2025_Jan_18_1608,ConditionRich,2021.2.3,59.9476177709566,
