eventStartTime,eventEndTime,eventCond,imSize,imFile,responseEvent,fixRespStart,fixRespEnd,Events.thisRepN,Events.thisTrialN,Events.thisN,Events.thisIndex,Instructions.started,Instructions.stopped,participantReadyResponse.keys,participantReadyResponse.rt,participantReadyResponse.started,participantReadyResponse.stopped,startWaitforTrigger,triggerResponse.keys,triggerResponse.rt,triggerResponse.started,triggerResponse.stopped,globalTimer,actualStartTime,startTimingDiff,participantResponse.keys,participantResponse.rt,participantResponse.started,participantResponse.stopped,image.started,image.stopped,fixationOutside.started,fixationOutside.stopped,fixationResponse.started,fixationResponse.stopped,fixationInside.started,fixationInside.stopped,session,participant,date,expName,psychopyVersion,frameRate,
,,,,,,,,,,,,12.162714599999163,None,4,2.472584300001472,12.162714599999163,None,,,,,,,,,,,,,,,,,,,,,003,P005,2025_Jan_18_1540,ConditionRich,2021.2.3,59.988722119915295,
,,,,,,,,,,,,,,,,,,14.653702100000373,5,15.392874799999845,14.66639529999884,None,,,,,,,,,,,,,,,,003,P005,2025_Jan_18_1540,ConditionRich,2021.2.3,59.988722119915295,
0.0,4.0,0,0.0,Stimuli/Blank.png,0,0,0.0,0,0,0,0,,,,,,,,,,,,30.066818300001614,0.04072240000095917,0.04072240000095917,5,3.929372999999032,30.130014400001528,None,30.130014400001528,None,30.130014400001528,None,30.130014400001528,30.130014400001528,30.130014400001528,None,003,P005,2025_Jan_18_1540,ConditionRich,2021.2.3,59.988722119915295,
4.0,7.75,13,0.75,Stimuli/P005/sun_bruphbrfsbxowtlq.jpg,0,0,0.0,0,1,1,1,,,,,,,,,,,,,4.019670800000313,0.019670800000312738,5,1.9415201000010711,34.11772760000167,34.11772760000167,34.11772760000167,34.11772760000167,34.11772760000167,34.11772760000167,34.11772760000167,34.11772760000167,34.11772760000167,34.11772760000167,003,P005,2025_Jan_18_1540,ConditionRich,2021.2.3,59.988722119915295,
7.75,8.0,41,0.0,Stimuli/Blank.png,0,0,0.0,0,2,2,2,,,,,,,,,,,,,7.772779099999752,0.02277909999975236,None,,37.853774399998656,37.853774399998656,37.853774399998656,37.853774399998656,37.853774399998656,37.853774399998656,37.853774399998656,37.853774399998656,37.853774399998656,37.853774399998656,003,P005,2025_Jan_18_1540,ConditionRich,2021.2.3,59.988722119915295,
8.0,11.75,33,0.75,Stimuli/P005/things_man_03s.jpg,0,0,0.0,0,3,3,3,,,,,,,,,,,,,8.005949200000032,0.005949200000031851,5,1.9724423000006936,38.087007999998605,38.087007999998605,38.087007999998605,38.087007999998605,38.087007999998605,38.087007999998605,38.087007999998605,38.087007999998605,38.087007999998605,38.087007999998605,003,P005,2025_Jan_18_1540,ConditionRich,2021.2.3,59.988722119915295,
11.75,12.0,41,0.0,Stimuli/Blank.png,0,0,0.0,0,4,4,4,,,,,,,,,,,,,11.759469200002059,0.009469200002058642,None,,41.84031550000145,41.84031550000145,41.84031550000145,41.84031550000145,41.84031550000145,41.84031550000145,41.84031550000145,41.84031550000145,41.84031550000145,41.84031550000145,003,P005,2025_Jan_18_1540,ConditionRich,2021.2.3,59.988722119915295,
12.0,15.75,14,0.75,Stimuli/P005/sun_bsirencncgxteejx.jpg,0,0,0.0,0,5,5,5,,,,,,,,,,,,,12.009716200002003,0.009716200002003461,5,1.951984799998172,42.10722280000118,42.10722280000118,42.10722280000118,42.10722280000118,42.10722280000118,42.10722280000118,42.10722280000118,42.10722280000118,42.10722280000118,42.10722280000118,003,P005,2025_Jan_18_1540,ConditionRich,2021.2.3,59.988722119915295,
15.75,16.0,41,0.0,Stimuli/Blank.png,0,0,0.0,0,6,6,6,,,,,,,,,,,,,15.779334100003325,0.029334100003325148,5,0.19877750000159722,45.860514399999374,45.860514399999374,45.860514399999374,45.860514399999374,45.860514399999374,45.860514399999374,45.860514399999374,45.860514399999374,45.860514399999374,45.860514399999374,003,P005,2025_Jan_18_1540,ConditionRich,2021.2.3,59.988722119915295,
16.0,19.75,11,0.75,Stimuli/P005/sun_bjoocjyyhsmsbprr.jpg,0,0,0.0,0,7,7,7,,,,,,,,,,,,,16.013551500000176,0.01355150000017602,5,1.9662105000024894,46.09406690000105,46.09406690000105,46.09406690000105,46.09406690000105,46.09406690000105,46.09406690000105,46.09406690000105,46.09406690000105,46.09406690000105,46.09406690000105,003,P005,2025_Jan_18_1540,ConditionRich,2021.2.3,59.988722119915295,
19.75,20.0,41,0.0,Stimuli/Blank.png,0,0,0.0,0,8,8,8,,,,,,,,,,,,,19.750014700002794,1.4700002793688327e-05,None,,49.83067320000191,49.83067320000191,49.83067320000191,49.83067320000191,49.83067320000191,49.83067320000191,49.83067320000191,49.83067320000191,49.83067320000191,49.83067320000191,003,P005,2025_Jan_18_1540,ConditionRich,2021.2.3,59.988722119915295,
20.0,23.75,27,0.75,Stimuli/P005/things_first-aid_kit_03s.jpg,0,0,0.0,0,9,9,9,,,,,,,,,,,,,20.00327230000039,0.003272300000389805,5,1.9625277000013739,50.09758670000156,50.09758670000156,50.09758670000156,50.09758670000156,50.09758670000156,50.09758670000156,50.09758670000156,50.09758670000156,50.09758670000156,50.09758670000156,003,P005,2025_Jan_18_1540,ConditionRich,2021.2.3,59.988722119915295,
23.75,24.0,41,0.0,Stimuli/Blank.png,0,0,0.0,0,10,10,10,,,,,,,,,,,,,23.76954630000182,0.019546300001820782,None,,53.85088320000068,53.85088320000068,53.85088320000068,53.85088320000068,53.85088320000068,53.85088320000068,53.85088320000068,53.85088320000068,53.85088320000068,53.85088320000068,003,P005,2025_Jan_18_1540,ConditionRich,2021.2.3,59.988722119915295,
24.0,27.75,34,0.75,Stimuli/P005/things_patty_03s.jpg,1,2,2.75,0,11,11,11,,,,,,,,,,,,,24.00450610000189,0.004506100001890445,4,2.438978300000599,54.101136600002064,54.101136600002064,54.101136600002064,54.101136600002064,54.101136600002064,54.101136600002064,56.086179699999775,56.836812599998666,54.101136600002064,54.101136600002064,003,P005,2025_Jan_18_1540,ConditionRich,2021.2.3,59.988722119915295,
27.75,28.0,41,0.0,Stimuli/Blank.png,0,0,0.0,0,12,12,12,,,,,,,,,,,,,27.773957299999893,0.02395729999989271,None,,57.85441609999907,57.85441609999907,57.85441609999907,57.85441609999907,57.85441609999907,57.85441609999907,57.85441609999907,57.85441609999907,57.85441609999907,57.85441609999907,003,P005,2025_Jan_18_1540,ConditionRich,2021.2.3,59.988722119915295,
28.0,31.75,38,0.75,Stimuli/P005/things_sledgehammer_03s.jpg,0,0,0.0,0,13,13,13,,,,,,,,,,,,,28.007081300002028,0.0070813000020280015,5,1.9722948999988148,58.087943300000916,58.087943300000916,58.087943300000916,58.087943300000916,58.087943300000916,58.087943300000916,58.087943300000916,58.087943300000916,58.087943300000916,58.087943300000916,003,P005,2025_Jan_18_1540,ConditionRich,2021.2.3,59.988722119915295,
31.75,32.0,41,0.0,Stimuli/Blank.png,0,0,0.0,0,14,14,14,,,,,,,,,,,,,31.76010740000129,0.010107400001288624,None,,61.84123360000012,61.84123360000012,61.84123360000012,61.84123360000012,61.84123360000012,61.84123360000012,61.84123360000012,61.84123360000012,61.84123360000012,61.84123360000012,003,P005,2025_Jan_18_1540,ConditionRich,2021.2.3,59.988722119915295,
32.0,35.75,19,0.75,Stimuli/P005/sun_czspalxthlkjwoat.jpg,0,0,0.0,0,15,15,15,,,,,,,,,,,,,32.01023669999995,0.01023669999995036,5,1.9521280000008119,62.10817229999884,62.10817229999884,62.10817229999884,62.10817229999884,62.10817229999884,62.10817229999884,62.10817229999884,62.10817229999884,62.10817229999884,62.10817229999884,003,P005,2025_Jan_18_1540,ConditionRich,2021.2.3,59.988722119915295,
35.75,36.0,41,0.0,Stimuli/Blank.png,0,0,0.0,0,16,16,16,,,,,,,,,,,,,35.782791100002214,0.03279110000221408,5,0.18200930000239168,65.87822420000157,65.87822420000157,65.87822420000157,65.87822420000157,65.87822420000157,65.87822420000157,65.87822420000157,65.87822420000157,65.87822420000157,65.87822420000157,003,P005,2025_Jan_18_1540,ConditionRich,2021.2.3,59.988722119915295,
36.0,39.75,18,0.75,Stimuli/P005/sun_bzqhpcsgzswozfhs.jpg,0,0,0.0,0,17,17,17,,,,,,,,,,,,,36.01498460000221,0.014984600002208026,5,1.9484250999994401,66.11167790000036,66.11167790000036,66.11167790000036,66.11167790000036,66.11167790000036,66.11167790000036,66.11167790000036,66.11167790000036,66.11167790000036,66.11167790000036,003,P005,2025_Jan_18_1540,ConditionRich,2021.2.3,59.988722119915295,
39.75,40.0,41,0.0,Stimuli/Blank.png,0,0,0.0,0,18,18,18,,,,,,,,,,,,,39.76754150000124,0.01754150000124355,None,,69.84830800000054,69.84830800000054,69.84830800000054,69.84830800000054,69.84830800000054,69.84830800000054,69.84830800000054,69.84830800000054,69.84830800000054,69.84830800000054,003,P005,2025_Jan_18_1540,ConditionRich,2021.2.3,59.988722119915295,
40.0,43.75,2,0.75,Stimuli/P005/sun_ahmycohdkioefoxs.jpg,0,0,0.0,0,19,19,19,,,,,,,,,,,,,40.00336220000099,0.0033622000009927433,5,1.9617383000004338,70.09851550000167,70.09851550000167,70.09851550000167,70.09851550000167,70.09851550000167,70.09851550000167,70.09851550000167,70.09851550000167,70.09851550000167,70.09851550000167,003,P005,2025_Jan_18_1540,ConditionRich,2021.2.3,59.988722119915295,
43.75,44.0,41,0.0,Stimuli/Blank.png,0,0,0.0,0,20,20,20,,,,,,,,,,,,,43.771204800003034,0.021204800003033597,None,,73.8518327999991,73.8518327999991,73.8518327999991,73.8518327999991,73.8518327999991,73.8518327999991,73.8518327999991,73.8518327999991,73.8518327999991,73.8518327999991,003,P005,2025_Jan_18_1540,ConditionRich,2021.2.3,59.988722119915295,
44.0,47.75,15,0.75,Stimuli/P005/sun_btkzuhaxqlacvmsv.jpg,0,0,0.0,0,21,21,21,,,,,,,,,,,,,44.0042162000027,0.004216200002701953,5,1.9749797999975272,74.08538039999985,74.08538039999985,74.08538039999985,74.08538039999985,74.08538039999985,74.08538039999985,74.08538039999985,74.08538039999985,74.08538039999985,74.08538039999985,003,P005,2025_Jan_18_1540,ConditionRich,2021.2.3,59.988722119915295,
47.75,48.0,41,0.0,Stimuli/Blank.png,0,0,0.0,0,22,22,22,,,,,,,,,,,,,47.75787730000229,0.007877300002292031,None,,77.83869450000202,77.83869450000202,77.83869450000202,77.83869450000202,77.83869450000202,77.83869450000202,77.83869450000202,77.83869450000202,77.83869450000202,77.83869450000202,003,P005,2025_Jan_18_1540,ConditionRich,2021.2.3,59.988722119915295,
48.0,51.75,20,0.75,Stimuli/P005/sun_dvxuxzytfdbjyzit.jpg,0,0,0.0,0,23,23,23,,,,,,,,,,,,,48.008177499999874,0.008177499999874271,5,1.971171699999104,78.08888379999917,78.08888379999917,78.08888379999917,78.08888379999917,78.08888379999917,78.08888379999917,78.08888379999917,78.08888379999917,78.08888379999917,78.08888379999917,003,P005,2025_Jan_18_1540,ConditionRich,2021.2.3,59.988722119915295,
51.75,52.0,41,0.0,Stimuli/Blank.png,0,0,0.0,0,24,24,24,,,,,,,,,,,,,51.76383320000241,0.013833200002409285,5,0.20127769999817247,81.85887110000112,81.85887110000112,81.85887110000112,81.85887110000112,81.85887110000112,81.85887110000112,81.85887110000112,81.85887110000112,81.85887110000112,81.85887110000112,003,P005,2025_Jan_18_1540,ConditionRich,2021.2.3,59.988722119915295,
52.0,55.75,1,0.75,Stimuli/P005/sun_adyhbxohydkpecty.jpg,0,0,0.0,0,25,25,25,,,,,,,,,,,,,52.028743300001224,0.02874330000122427,5,1.9343455999987782,82.12578470000153,82.12578470000153,82.12578470000153,82.12578470000153,82.12578470000153,82.12578470000153,82.12578470000153,82.12578470000153,82.12578470000153,82.12578470000153,003,P005,2025_Jan_18_1540,ConditionRich,2021.2.3,59.988722119915295,
55.75,56.0,41,0.0,Stimuli/Blank.png,0,0,0.0,0,26,26,26,,,,,,,,,,,,,55.78135730000213,0.031357300002127886,5,0.19660649999786983,85.8635362999994,85.8635362999994,85.8635362999994,85.8635362999994,85.8635362999994,85.8635362999994,85.8635362999994,85.8635362999994,85.8635362999994,85.8635362999994,003,P005,2025_Jan_18_1540,ConditionRich,2021.2.3,59.988722119915295,
56.0,59.75,32,0.75,Stimuli/P005/things_jumpsuit_03s.jpg,0,0,0.0,0,27,27,27,,,,,,,,,,,,,56.014574300003005,0.014574300003005192,5,1.9643287000035343,86.09592519999933,86.09592519999933,86.09592519999933,86.09592519999933,86.09592519999933,86.09592519999933,86.09592519999933,86.09592519999933,86.09592519999933,86.09592519999933,003,P005,2025_Jan_18_1540,ConditionRich,2021.2.3,59.988722119915295,
59.75,60.0,41,0.0,Stimuli/Blank.png,0,0,0.0,0,28,28,28,,,,,,,,,,,,,59.7538710000008,0.0038710000007995404,5,0.21075659999769414,89.84923849999905,89.84923849999905,89.84923849999905,89.84923849999905,89.84923849999905,89.84923849999905,89.84923849999905,89.84923849999905,89.84923849999905,89.84923849999905,003,P005,2025_Jan_18_1540,ConditionRich,2021.2.3,59.988722119915295,
60.0,63.75,37,0.75,Stimuli/P005/things_showerhead_03s.jpg,0,0,0.0,0,29,29,29,,,,,,,,,,,,,60.018134900001314,0.018134900001314236,5,1.9606605999979365,90.09945770000195,90.09945770000195,90.09945770000195,90.09945770000195,90.09945770000195,90.09945770000195,90.09945770000195,90.09945770000195,90.09945770000195,90.09945770000195,003,P005,2025_Jan_18_1540,ConditionRich,2021.2.3,59.988722119915295,
63.75,64.0,41,0.0,Stimuli/Blank.png,0,0,0.0,0,30,30,30,,,,,,,,,,,,,63.75556960000176,0.00556960000176332,None,,93.83605850000095,93.83605850000095,93.83605850000095,93.83605850000095,93.83605850000095,93.83605850000095,93.83605850000095,93.83605850000095,93.83605850000095,93.83605850000095,003,P005,2025_Jan_18_1540,ConditionRich,2021.2.3,59.988722119915295,
64.0,67.75,8,0.75,Stimuli/P005/sun_bekkgqphzbclwpvb.jpg,1,3,3.75,0,31,31,31,,,,,,,,,,,,,64.00511540000298,0.0051154000029782765,4,3.511048699998355,94.10298709999915,94.10298709999915,94.10298709999915,94.10298709999915,94.10298709999915,94.10298709999915,97.07224850000057,97.8229078000004,94.10298709999915,94.10298709999915,003,P005,2025_Jan_18_1540,ConditionRich,2021.2.3,59.988722119915295,
67.75,68.0,41,0.0,Stimuli/Blank.png,0,0,0.0,0,32,32,32,,,,,,,,,,,,,67.77527069999996,0.025270699999964563,None,,97.8562845000015,97.8562845000015,97.8562845000015,97.8562845000015,97.8562845000015,97.8562845000015,97.8562845000015,97.8562845000015,97.8562845000015,97.8562845000015,003,P005,2025_Jan_18_1540,ConditionRich,2021.2.3,59.988722119915295,
68.0,71.75,29,0.75,Stimuli/P005/things_guillotine_03s.jpg,1,1,1.75,0,33,33,33,,,,,,,,,,,,,68.00863900000331,0.008639000003313413,4,1.9421934000019974,98.08982639999886,98.08982639999886,98.08982639999886,98.08982639999886,98.08982639999886,98.08982639999886,99.07402250000086,99.82472079999934,98.08982639999886,98.08982639999886,003,P005,2025_Jan_18_1540,ConditionRich,2021.2.3,59.988722119915295,
71.75,72.0,41,0.0,Stimuli/Blank.png,0,0,0.0,0,34,34,34,,,,,,,,,,,,,71.76272360000075,0.012723600000754232,5,0.2169768000021577,101.84313190000103,101.84313190000103,101.84313190000103,101.84313190000103,101.84313190000103,101.84313190000103,101.84313190000103,101.84313190000103,101.84313190000103,101.84313190000103,003,P005,2025_Jan_18_1540,ConditionRich,2021.2.3,59.988722119915295,
72.0,75.75,4,0.75,Stimuli/P005/sun_auwghripdoxzluuk.jpg,1,0,0.75,0,35,35,35,,,,,,,,,,,,,72.01247540000259,0.012475400002585957,5,1.966596700000082,102.09350189999896,102.09350189999896,102.09350189999896,102.09350189999896,102.09350189999896,102.09350189999896,102.09350189999896,102.8273412999988,102.09350189999896,102.09350189999896,003,P005,2025_Jan_18_1540,ConditionRich,2021.2.3,59.988722119915295,
75.75,76.0,41,0.0,Stimuli/Blank.png,0,0,0.0,0,36,36,36,,,,,,,,,,,,,75.76534370000081,0.015343700000812532,5,0.21334209999986342,105.84664600000178,105.84664600000178,105.84664600000178,105.84664600000178,105.84664600000178,105.84664600000178,105.84664600000178,105.84664600000178,105.84664600000178,105.84664600000178,003,P005,2025_Jan_18_1540,ConditionRich,2021.2.3,59.988722119915295,
76.0,79.75,26,0.75,Stimuli/P005/things_face_03s.jpg,0,0,0.0,0,37,37,37,,,,,,,,,,,,,76.01544650000142,0.015446500001417007,5,1.963048900001013,106.09686489999876,106.09686489999876,106.09686489999876,106.09686489999876,106.09686489999876,106.09686489999876,106.09686489999876,106.09686489999876,106.09686489999876,106.09686489999876,003,P005,2025_Jan_18_1540,ConditionRich,2021.2.3,59.988722119915295,
79.75,80.0,41,0.0,Stimuli/Blank.png,0,0,0.0,0,38,38,38,,,,,,,,,,,,,79.75222880000001,0.002228800000011688,None,,109.83348760000081,109.83348760000081,109.83348760000081,109.83348760000081,109.83348760000081,109.83348760000081,109.83348760000081,109.83348760000081,109.83348760000081,109.83348760000081,003,P005,2025_Jan_18_1540,ConditionRich,2021.2.3,59.988722119915295,
80.0,83.75,35,0.75,Stimuli/P005/things_pig_03s.jpg,0,0,0.0,0,39,39,39,,,,,,,,,,,,,80.00411590000294,0.0041159000029438175,5,1.9594969999998284,110.10039200000028,110.10039200000028,110.10039200000028,110.10039200000028,110.10039200000028,110.10039200000028,110.10039200000028,110.10039200000028,110.10039200000028,110.10039200000028,003,P005,2025_Jan_18_1540,ConditionRich,2021.2.3,59.988722119915295,
83.75,84.0,41,0.0,Stimuli/Blank.png,0,0,0.0,0,40,40,40,,,,,,,,,,,,,83.77334610000253,0.023346100002527237,None,,113.85369870000068,113.85369870000068,113.85369870000068,113.85369870000068,113.85369870000068,113.85369870000068,113.85369870000068,113.85369870000068,113.85369870000068,113.85369870000068,003,P005,2025_Jan_18_1540,ConditionRich,2021.2.3,59.988722119915295,
84.0,100.0,0,0.0,Stimuli/Blank.png,1,8,8.75,0,41,41,41,,,,,,,,,,,,,84.00817300000199,0.00817300000198884,5,15.955868199998804,114.1039626999991,114.1039626999991,114.1039626999991,114.1039626999991,114.1039626999991,114.1039626999991,122.07759530000112,122.82825769999909,114.1039626999991,114.1039626999991,003,P005,2025_Jan_18_1540,ConditionRich,2021.2.3,59.988722119915295,
100.0,103.75,3,0.75,Stimuli/P005/sun_asyidwmnobuawmax.jpg,0,0,0.0,0,42,42,42,,,,,,,,,,,,,100.0202210000025,0.020221000002493383,5,1.9588246999992407,130.10132520000116,130.10132520000116,130.10132520000116,130.10132520000116,130.10132520000116,130.10132520000116,130.10132520000116,130.10132520000116,130.10132520000116,130.10132520000116,003,P005,2025_Jan_18_1540,ConditionRich,2021.2.3,59.988722119915295,
103.75,104.0,41,0.0,Stimuli/Blank.png,0,0,0.0,0,43,43,43,,,,,,,,,,,,,103.75718419999976,0.007184199999755947,None,,133.8379477999988,133.8379477999988,133.8379477999988,133.8379477999988,133.8379477999988,133.8379477999988,133.8379477999988,133.8379477999988,133.8379477999988,133.8379477999988,003,P005,2025_Jan_18_1540,ConditionRich,2021.2.3,59.988722119915295,
104.0,107.75,25,0.75,Stimuli/P005/things_dog_03s.jpg,1,0,0.75,0,44,44,44,,,,,,,,,,,,,104.00747200000114,0.007472000001143897,5,1.9717436999999336,134.08817709999857,134.08817709999857,134.08817709999857,134.08817709999857,134.08817709999857,134.08817709999857,134.08817709999857,134.82218560000183,134.08817709999857,134.08817709999857,003,P005,2025_Jan_18_1540,ConditionRich,2021.2.3,59.988722119915295,
107.75,108.0,41,0.0,Stimuli/Blank.png,0,0,0.0,0,45,45,45,,,,,,,,,,,,,107.76261800000066,0.012618000000657048,5,0.20174669999687467,137.85816780000096,137.85816780000096,137.85816780000096,137.85816780000096,137.85816780000096,137.85816780000096,137.85816780000096,137.85816780000096,137.85816780000096,137.85816780000096,003,P005,2025_Jan_18_1540,ConditionRich,2021.2.3,59.988722119915295,
108.0,111.75,24,0.75,Stimuli/P005/things_crab_03s.jpg,1,1,1.75,0,46,46,46,,,,,,,,,,,,,108.02803600000334,0.028036000003339723,5,1.9500645000007353,138.10983209999904,138.10983209999904,138.10983209999904,138.10983209999904,138.10983209999904,138.10983209999904,139.09256409999944,139.84320149999985,138.10983209999904,138.10983209999904,003,P005,2025_Jan_18_1540,ConditionRich,2021.2.3,59.988722119915295,
111.75,112.0,41,0.0,Stimuli/Blank.png,0,0,0.0,0,47,47,47,,,,,,,,,,,,,111.76395899999989,0.013958999999886146,5,0.21495080000022426,141.84499649999998,141.84499649999998,141.84499649999998,141.84499649999998,141.84499649999998,141.84499649999998,141.84499649999998,141.84499649999998,141.84499649999998,141.84499649999998,003,P005,2025_Jan_18_1540,ConditionRich,2021.2.3,59.988722119915295,
112.0,115.75,17,0.75,Stimuli/P005/sun_bwsictslfxygpqbp.jpg,0,0,0.0,0,48,48,48,,,,,,,,,,,,,112.01438430000053,0.014384300000529038,5,1.964657000000443,142.09521659999882,142.09521659999882,142.09521659999882,142.09521659999882,142.09521659999882,142.09521659999882,142.09521659999882,142.09521659999882,142.09521659999882,142.09521659999882,003,P005,2025_Jan_18_1540,ConditionRich,2021.2.3,59.988722119915295,
115.75,116.0,41,0.0,Stimuli/Blank.png,0,0,0.0,0,49,49,49,,,,,,,,,,,,,115.75106620000224,0.0010662000022421125,None,,145.83188050000172,145.83188050000172,145.83188050000172,145.83188050000172,145.83188050000172,145.83188050000172,145.83188050000172,145.83188050000172,145.83188050000172,145.83188050000172,003,P005,2025_Jan_18_1540,ConditionRich,2021.2.3,59.988722119915295,
116.0,119.75,6,0.75,Stimuli/P005/sun_bbzkhzmxdjrfjpjz.jpg,0,0,0.0,0,50,50,50,,,,,,,,,,,,,116.00121430000218,0.0012143000021751504,5,1.9777656000005663,146.08205820000148,146.08205820000148,146.08205820000148,146.08205820000148,146.08205820000148,146.08205820000148,146.08205820000148,146.08205820000148,146.08205820000148,146.08205820000148,003,P005,2025_Jan_18_1540,ConditionRich,2021.2.3,59.988722119915295,
119.75,120.0,41,0.0,Stimuli/Blank.png,0,0,0.0,0,51,51,51,,,,,,,,,,,,,119.75435910000306,0.004359100003057392,None,,149.83535290000145,149.83535290000145,149.83535290000145,149.83535290000145,149.83535290000145,149.83535290000145,149.83535290000145,149.83535290000145,149.83535290000145,149.83535290000145,003,P005,2025_Jan_18_1540,ConditionRich,2021.2.3,59.988722119915295,
120.0,123.75,9,0.75,Stimuli/P005/sun_bfcmdrojsffdttzu.jpg,0,0,0.0,0,52,52,52,,,,,,,,,,,,,120.00472190000073,0.004721900000731694,5,1.9579894999988028,150.10226079999848,150.10226079999848,150.10226079999848,150.10226079999848,150.10226079999848,150.10226079999848,150.10226079999848,150.10226079999848,150.10226079999848,150.10226079999848,003,P005,2025_Jan_18_1540,ConditionRich,2021.2.3,59.988722119915295,
123.75,124.0,41,0.0,Stimuli/Blank.png,0,0,0.0,0,53,53,53,,,,,,,,,,,,,123.77494620000289,0.024946200002887053,None,,153.85556519999955,153.85556519999955,153.85556519999955,153.85556519999955,153.85556519999955,153.85556519999955,153.85556519999955,153.85556519999955,153.85556519999955,153.85556519999955,003,P005,2025_Jan_18_1540,ConditionRich,2021.2.3,59.988722119915295,
124.0,127.75,16,0.75,Stimuli/P005/sun_bwentnobehmvaxkp.jpg,0,0,0.0,0,54,54,54,,,,,,,,,,,,,124.00820080000267,0.008200800002668984,5,1.970734700000321,154.08910699999979,154.08910699999979,154.08910699999979,154.08910699999979,154.08910699999979,154.08910699999979,154.08910699999979,154.08910699999979,154.08910699999979,154.08910699999979,003,P005,2025_Jan_18_1540,ConditionRich,2021.2.3,59.988722119915295,
127.75,128.0,41,0.0,Stimuli/Blank.png,0,0,0.0,0,55,55,55,,,,,,,,,,,,,127.76302770000257,0.013027700002567144,5,0.20075789999827975,157.85909280000124,157.85909280000124,157.85909280000124,157.85909280000124,157.85909280000124,157.85909280000124,157.85909280000124,157.85909280000124,157.85909280000124,157.85909280000124,003,P005,2025_Jan_18_1540,ConditionRich,2021.2.3,59.988722119915295,
128.0,131.75,40,0.75,Stimuli/P005/things_woman_03s.jpg,0,0,0.0,0,56,56,56,,,,,,,,,,,,,128.02827750000142,0.028277500001422595,5,1.9504292000019632,158.10930740000185,158.10930740000185,158.10930740000185,158.10930740000185,158.10930740000185,158.10930740000185,158.10930740000185,158.10930740000185,158.10930740000185,158.10930740000185,003,P005,2025_Jan_18_1540,ConditionRich,2021.2.3,59.988722119915295,
131.75,132.0,41,0.0,Stimuli/Blank.png,0,0,0.0,0,57,57,57,,,,,,,,,,,,,131.7647665000004,0.014766500000405358,5,0.21378050000203075,161.84593170000153,161.84593170000153,161.84593170000153,161.84593170000153,161.84593170000153,161.84593170000153,161.84593170000153,161.84593170000153,161.84593170000153,161.84593170000153,003,P005,2025_Jan_18_1540,ConditionRich,2021.2.3,59.988722119915295,
132.0,135.75,39,0.75,Stimuli/P005/things_train_set_03s.jpg,1,3,3.75,0,58,58,58,,,,,,,,,,,,,132.01499260000128,0.014992600001278333,5,1.9636161999987962,162.0961528000007,162.0961528000007,162.0961528000007,162.0961528000007,162.0961528000007,162.0961528000007,165.08214450000014,None,162.0961528000007,162.0961528000007,003,P005,2025_Jan_18_1540,ConditionRich,2021.2.3,59.988722119915295,
135.75,136.0,41,0.0,Stimuli/Blank.png,0,0,0.0,0,59,59,59,,,,,,,,,,,,,135.75220130000162,0.0022013000016158912,None,,165.83278040000005,165.83278040000005,165.83278040000005,165.83278040000005,165.83278040000005,165.83278040000005,165.83278040000005,165.83278040000005,165.83278040000005,165.83278040000005,003,P005,2025_Jan_18_1540,ConditionRich,2021.2.3,59.988722119915295,
136.0,139.75,10,0.75,Stimuli/P005/sun_bgnxbfhmwhliypvg.jpg,0,0,0.0,0,60,60,60,,,,,,,,,,,,,136.0031482000013,0.0031482000013056677,5,1.9601084999994782,166.09967719999986,166.09967719999986,166.09967719999986,166.09967719999986,166.09967719999986,166.09967719999986,166.09967719999986,166.09967719999986,166.09967719999986,166.09967719999986,003,P005,2025_Jan_18_1540,ConditionRich,2021.2.3,59.988722119915295,
139.75,140.0,41,0.0,Stimuli/Blank.png,0,0,0.0,0,61,61,61,,,,,,,,,,,,,139.77286910000112,0.02286910000111675,None,,169.85298590000093,169.85298590000093,169.85298590000093,169.85298590000093,169.85298590000093,169.85298590000093,169.85298590000093,169.85298590000093,169.85298590000093,169.85298590000093,003,P005,2025_Jan_18_1540,ConditionRich,2021.2.3,59.988722119915295,
140.0,143.75,30,0.75,Stimuli/P005/things_hood_03s.jpg,0,0,0.0,0,62,62,62,,,,,,,,,,,,,140.00557520000075,0.005575200000748737,5,1.9732813999980863,170.08652430000075,170.08652430000075,170.08652430000075,170.08652430000075,170.08652430000075,170.08652430000075,170.08652430000075,170.08652430000075,170.08652430000075,170.08652430000075,003,P005,2025_Jan_18_1540,ConditionRich,2021.2.3,59.988722119915295,
143.75,144.0,41,0.0,Stimuli/Blank.png,0,0,0.0,0,63,63,63,,,,,,,,,,,,,143.75869420000163,0.008694200001627905,None,,173.83984169999894,173.83984169999894,173.83984169999894,173.83984169999894,173.83984169999894,173.83984169999894,173.83984169999894,173.83984169999894,173.83984169999894,173.83984169999894,003,P005,2025_Jan_18_1540,ConditionRich,2021.2.3,59.988722119915295,
144.0,147.75,7,0.75,Stimuli/P005/sun_bdmdlkpsznknrcqi.jpg,0,0,0.0,0,64,64,64,,,,,,,,,,,,,144.00894700000208,0.00894700000208104,5,1.953064400000585,174.10669029999917,174.10669029999917,174.10669029999917,174.10669029999917,174.10669029999917,174.10669029999917,174.10669029999917,174.10669029999917,174.10669029999917,174.10669029999917,003,P005,2025_Jan_18_1540,ConditionRich,2021.2.3,59.988722119915295,
147.75,148.0,41,0.0,Stimuli/Blank.png,0,0,0.0,0,65,65,65,,,,,,,,,,,,,147.77902410000024,0.02902410000024247,5,0.1997921000001952,177.86002559999906,177.86002559999906,177.86002559999906,177.86002559999906,177.86002559999906,177.86002559999906,177.86002559999906,177.86002559999906,177.86002559999906,177.86002559999906,003,P005,2025_Jan_18_1540,ConditionRich,2021.2.3,59.988722119915295,
148.0,151.75,22,0.75,Stimuli/P005/things_baby_03s.jpg,1,3,3.75,0,66,66,66,,,,,,,,,,,,,148.01304700000037,0.013047000000369735,5,1.9495726999994076,178.11024149999866,178.11024149999866,178.11024149999866,178.11024149999866,178.11024149999866,178.11024149999866,181.07956479999848,181.83024139999907,178.11024149999866,178.11024149999866,003,P005,2025_Jan_18_1540,ConditionRich,2021.2.3,59.988722119915295,
151.75,152.0,41,0.0,Stimuli/Blank.png,0,0,0.0,0,67,67,67,,,,,,,,,,,,,151.76837290000185,0.018372900001850212,5,0.1961233000001812,181.8635589000005,181.8635589000005,181.8635589000005,181.8635589000005,181.8635589000005,181.8635589000005,181.8635589000005,181.8635589000005,181.8635589000005,181.8635589000005,003,P005,2025_Jan_18_1540,ConditionRich,2021.2.3,59.988722119915295,
152.0,155.75,31,0.75,Stimuli/P005/things_jukebox_03n.jpg,0,0,0.0,0,68,68,68,,,,,,,,,,,,,152.01716550000128,0.017165500001283363,5,1.9460191999969538,182.11383090000163,182.11383090000163,182.11383090000163,182.11383090000163,182.11383090000163,182.11383090000163,182.11383090000163,182.11383090000163,182.11383090000163,182.11383090000163,003,P005,2025_Jan_18_1540,ConditionRich,2021.2.3,59.988722119915295,
155.75,156.0,41,0.0,Stimuli/Blank.png,0,0,0.0,0,69,69,69,,,,,,,,,,,,,155.76952410000013,0.019524100000126055,None,,185.85046109999894,185.85046109999894,185.85046109999894,185.85046109999894,185.85046109999894,185.85046109999894,185.85046109999894,185.85046109999894,185.85046109999894,185.85046109999894,003,P005,2025_Jan_18_1540,ConditionRich,2021.2.3,59.988722119915295,
156.0,159.75,36,0.75,Stimuli/P005/things_pony_03s.jpg,0,0,0.0,0,70,70,70,,,,,,,,,,,,,156.0027424,0.0027423999999882653,5,1.9757294000010006,186.08392839999942,186.08392839999942,186.08392839999942,186.08392839999942,186.08392839999942,186.08392839999942,186.08392839999942,186.08392839999942,186.08392839999942,186.08392839999942,003,P005,2025_Jan_18_1540,ConditionRich,2021.2.3,59.988722119915295,
159.75,160.0,41,0.0,Stimuli/Blank.png,0,0,0.0,0,71,71,71,,,,,,,,,,,,,159.7583448000005,0.00834480000048643,5,0.20571360000030836,189.85391789999994,189.85391789999994,189.85391789999994,189.85391789999994,189.85391789999994,189.85391789999994,189.85391789999994,189.85391789999994,189.85391789999994,189.85391789999994,003,P005,2025_Jan_18_1540,ConditionRich,2021.2.3,59.988722119915295,
160.0,163.75,28,0.75,Stimuli/P005/things_girl_03s.jpg,0,0,0.0,0,72,72,72,,,,,,,,,,,,,160.02363440000045,0.023634400000446476,5,1.9555336000012176,190.1041378000009,190.1041378000009,190.1041378000009,190.1041378000009,190.1041378000009,190.1041378000009,190.1041378000009,190.1041378000009,190.1041378000009,190.1041378000009,003,P005,2025_Jan_18_1540,ConditionRich,2021.2.3,59.988722119915295,
163.75,164.0,41,0.0,Stimuli/Blank.png,0,0,0.0,0,73,73,73,,,,,,,,,,,,,163.75934690000213,0.009346900002128677,None,,193.84074899999905,193.84074899999905,193.84074899999905,193.84074899999905,193.84074899999905,193.84074899999905,193.84074899999905,193.84074899999905,193.84074899999905,193.84074899999905,003,P005,2025_Jan_18_1540,ConditionRich,2021.2.3,59.988722119915295,
164.0,167.75,21,0.75,Stimuli/P005/things_accordion_03s.jpg,0,0,0.0,0,74,74,74,,,,,,,,,,,,,164.00997570000254,0.009975700002541998,5,1.9688234999994165,194.09097620000102,194.09097620000102,194.09097620000102,194.09097620000102,194.09097620000102,194.09097620000102,194.09097620000102,194.09097620000102,194.09097620000102,194.09097620000102,003,P005,2025_Jan_18_1540,ConditionRich,2021.2.3,59.988722119915295,
167.75,168.0,41,0.0,Stimuli/Blank.png,0,0,0.0,0,75,75,75,,,,,,,,,,,,,167.7628220000006,0.012822000000596745,5,0.21547289999944041,197.8442791000016,197.8442791000016,197.8442791000016,197.8442791000016,197.8442791000016,197.8442791000016,197.8442791000016,197.8442791000016,197.8442791000016,197.8442791000016,003,P005,2025_Jan_18_1540,ConditionRich,2021.2.3,59.988722119915295,
168.0,171.75,12,0.75,Stimuli/P005/sun_bodyuiqwqpqzwfoz.jpg,0,0,0.0,0,76,76,76,,,,,,,,,,,,,168.01320780000242,0.01320780000241939,5,1.965093099999649,198.0945027000016,198.0945027000016,198.0945027000016,198.0945027000016,198.0945027000016,198.0945027000016,198.0945027000016,198.0945027000016,198.0945027000016,198.0945027000016,003,P005,2025_Jan_18_1540,ConditionRich,2021.2.3,59.988722119915295,
171.75,172.0,41,0.0,Stimuli/Blank.png,0,0,0.0,0,77,77,77,,,,,,,,,,,,,171.74992890000067,-7.109999933163635e-05,None,,201.83120119999876,201.83120119999876,201.83120119999876,201.83120119999876,201.83120119999876,201.83120119999876,201.83120119999876,201.83120119999876,201.83120119999876,201.83120119999876,003,P005,2025_Jan_18_1540,ConditionRich,2021.2.3,59.988722119915295,
172.0,175.75,23,0.75,Stimuli/P005/things_beetle_03s.jpg,0,0,0.0,0,78,78,78,,,,,,,,,,,,,172.0013508000011,0.0013508000010915566,5,1.96172910000314,202.0980554000016,202.0980554000016,202.0980554000016,202.0980554000016,202.0980554000016,202.0980554000016,202.0980554000016,202.0980554000016,202.0980554000016,202.0980554000016,003,P005,2025_Jan_18_1540,ConditionRich,2021.2.3,59.988722119915295,
175.75,176.0,41,0.0,Stimuli/Blank.png,0,0,0.0,0,79,79,79,,,,,,,,,,,,,175.77242190000106,0.022421900001063477,5,0.1915408999993815,205.8680276999985,205.8680276999985,205.8680276999985,205.8680276999985,205.8680276999985,205.8680276999985,205.8680276999985,205.8680276999985,205.8680276999985,205.8680276999985,003,P005,2025_Jan_18_1540,ConditionRich,2021.2.3,59.988722119915295,
176.0,179.75,5,0.75,Stimuli/P005/sun_axaqdcecfojvpvrl.jpg,1,2,2.75,0,80,80,80,,,,,,,,,,,,,176.02284520000103,0.022845200001029298,4,2.4945356999996875,206.11823350000122,206.11823350000122,206.11823350000122,206.11823350000122,206.11823350000122,206.11823350000122,208.10388859999875,208.8540213999986,206.11823350000122,206.11823350000122,003,P005,2025_Jan_18_1540,ConditionRich,2021.2.3,59.988722119915295,
179.75,180.0,41,0.0,Stimuli/Blank.png,0,0,0.0,0,81,81,81,,,,,,,,,,,,,179.7736201000007,0.023620100000698585,None,,209.85486479999963,209.85486479999963,209.85486479999963,209.85486479999963,209.85486479999963,209.85486479999963,209.85486479999963,209.85486479999963,209.85486479999963,209.85486479999963,003,P005,2025_Jan_18_1540,ConditionRich,2021.2.3,59.988722119915295,
180.0,196.0,0,0.0,Stimuli/Blank.png,1,12,12.75,0,82,82,82,,,,,,,,,,,,,180.00785630000246,0.007856300002458738,5,13.971207099999447,210.0883892999991,210.0883892999991,210.0883892999991,210.0883892999991,210.0883892999991,210.0883892999991,222.06564179999987,222.81630439999935,210.0883892999991,210.0883892999991,003,P005,2025_Jan_18_1540,ConditionRich,2021.2.3,59.988722119915295,
196.0,199.75,3,0.75,Stimuli/P005/sun_asyidwmnobuawmax.jpg,0,0,0.0,0,83,83,83,,,,,,,,,,,,,196.00598920000266,0.005989200002659345,5,1.957326199997624,226.10248480000155,226.10248480000155,226.10248480000155,226.10248480000155,226.10248480000155,226.10248480000155,226.10248480000155,226.10248480000155,226.10248480000155,226.10248480000155,003,P005,2025_Jan_18_1540,ConditionRich,2021.2.3,59.988722119915295,
199.75,200.0,41,0.0,Stimuli/Blank.png,0,0,0.0,0,84,84,84,,,,,,,,,,,,,199.77746509999997,0.027465099999972153,5,0.18717390000165324,229.87248249999902,229.87248249999902,229.87248249999902,229.87248249999902,229.87248249999902,229.87248249999902,229.87248249999902,229.87248249999902,229.87248249999902,229.87248249999902,003,P005,2025_Jan_18_1540,ConditionRich,2021.2.3,59.988722119915295,
200.0,203.75,22,0.75,Stimuli/P005/things_baby_03s.jpg,0,0,0.0,0,85,85,85,,,,,,,,,,,,,200.02848430000086,0.028484300000855,5,1.9370514000002004,230.12269670000023,230.12269670000023,230.12269670000023,230.12269670000023,230.12269670000023,230.12269670000023,230.12269670000023,230.12269670000023,230.12269670000023,230.12269670000023,003,P005,2025_Jan_18_1540,ConditionRich,2021.2.3,59.988722119915295,
203.75,204.0,41,0.0,Stimuli/Blank.png,0,0,0.0,0,86,86,86,,,,,,,,,,,,,203.7784141000011,0.02841410000110045,5,0.20015199999761535,233.85931870000059,233.85931870000059,233.85931870000059,233.85931870000059,233.85931870000059,233.85931870000059,233.85931870000059,233.85931870000059,233.85931870000059,233.85931870000059,003,P005,2025_Jan_18_1540,ConditionRich,2021.2.3,59.988722119915295,
204.0,207.75,20,0.75,Stimuli/P005/sun_dvxuxzytfdbjyzit.jpg,1,3,3.75,0,87,87,87,,,,,,,,,,,,,204.01169730000038,0.011697300000378164,4,3.508730099998502,234.09282359999997,234.09282359999997,234.09282359999997,234.09282359999997,234.09282359999997,234.09282359999997,237.07881410000118,237.82953999999881,234.09282359999997,234.09282359999997,003,P005,2025_Jan_18_1540,ConditionRich,2021.2.3,59.988722119915295,
207.75,208.0,41,0.0,Stimuli/Blank.png,0,0,0.0,0,88,88,88,,,,,,,,,,,,,207.76846240000305,0.01846240000304533,5,0.19661270000142395,237.86285320000025,237.86285320000025,237.86285320000025,237.86285320000025,237.86285320000025,237.86285320000025,237.86285320000025,237.86285320000025,237.86285320000025,237.86285320000025,003,P005,2025_Jan_18_1540,ConditionRich,2021.2.3,59.988722119915295,
208.0,211.75,7,0.75,Stimuli/P005/sun_bdmdlkpsznknrcqi.jpg,0,0,0.0,0,89,89,89,,,,,,,,,,,,,208.01582820000112,0.01582820000112406,5,1.9632918000024802,238.09637769999972,238.09637769999972,238.09637769999972,238.09637769999972,238.09637769999972,238.09637769999972,238.09637769999972,238.09637769999972,238.09637769999972,238.09637769999972,003,P005,2025_Jan_18_1540,ConditionRich,2021.2.3,59.988722119915295,
211.75,212.0,41,0.0,Stimuli/Blank.png,0,0,0.0,0,90,90,90,,,,,,,,,,,,,211.75205290000304,0.002052900003036484,None,,241.833000300001,241.833000300001,241.833000300001,241.833000300001,241.833000300001,241.833000300001,241.833000300001,241.833000300001,241.833000300001,241.833000300001,003,P005,2025_Jan_18_1540,ConditionRich,2021.2.3,59.988722119915295,
212.0,215.75,14,0.75,Stimuli/P005/sun_bsirencncgxteejx.jpg,0,0,0.0,0,91,91,91,,,,,,,,,,,,,212.00174020000122,0.0017402000012225471,5,1.9762985999986995,242.08322079999925,242.08322079999925,242.08322079999925,242.08322079999925,242.08322079999925,242.08322079999925,242.08322079999925,242.08322079999925,242.08322079999925,242.08322079999925,003,P005,2025_Jan_18_1540,ConditionRich,2021.2.3,59.988722119915295,
215.75,216.0,41,0.0,Stimuli/Blank.png,0,0,0.0,0,92,92,92,,,,,,,,,,,,,215.7574921000014,0.007492100001400104,5,0.20627260000037495,245.8532082999991,245.8532082999991,245.8532082999991,245.8532082999991,245.8532082999991,245.8532082999991,245.8532082999991,245.8532082999991,245.8532082999991,245.8532082999991,003,P005,2025_Jan_18_1540,ConditionRich,2021.2.3,59.988722119915295,
216.0,219.75,37,0.75,Stimuli/P005/things_showerhead_03s.jpg,0,0,0.0,0,93,93,93,,,,,,,,,,,,,216.022647400001,0.022647400001005735,5,1.9563125999993645,246.10343049999938,246.10343049999938,246.10343049999938,246.10343049999938,246.10343049999938,246.10343049999938,246.10343049999938,246.10343049999938,246.10343049999938,246.10343049999938,003,P005,2025_Jan_18_1540,ConditionRich,2021.2.3,59.988722119915295,
219.75,220.0,41,0.0,Stimuli/Blank.png,0,0,0.0,0,94,94,94,,,,,,,,,,,,,219.75875270000324,0.008752700003242353,None,,249.8400494000016,249.8400494000016,249.8400494000016,249.8400494000016,249.8400494000016,249.8400494000016,249.8400494000016,249.8400494000016,249.8400494000016,249.8400494000016,003,P005,2025_Jan_18_1540,ConditionRich,2021.2.3,59.988722119915295,
220.0,223.75,24,0.75,Stimuli/P005/things_crab_03s.jpg,1,1,1.75,0,95,95,95,,,,,,,,,,,,,220.00969410000107,0.009694100001070183,5,1.9525389000009454,250.10694739999963,250.10694739999963,250.10694739999963,250.10694739999963,250.10694739999963,250.10694739999963,251.07450289999906,251.82516810000016,250.10694739999963,250.10694739999963,003,P005,2025_Jan_18_1540,ConditionRich,2021.2.3,59.988722119915295,
223.75,224.0,41,0.0,Stimuli/Blank.png,0,0,0.0,0,96,96,96,,,,,,,,,,,,,223.77956750000158,0.029567500001576263,5,0.19930830000157584,253.8602482999995,253.8602482999995,253.8602482999995,253.8602482999995,253.8602482999995,253.8602482999995,253.8602482999995,253.8602482999995,253.8602482999995,253.8602482999995,003,P005,2025_Jan_18_1540,ConditionRich,2021.2.3,59.988722119915295,
224.0,227.75,8,0.75,Stimuli/P005/sun_bekkgqphzbclwpvb.jpg,1,2,2.75,0,97,97,97,,,,,,,,,,,,,224.01316730000326,0.013167300003260607,4,2.3102204999995593,254.11049060000005,254.11049060000005,254.11049060000005,254.11049060000005,254.11049060000005,254.11049060000005,256.0789199999999,256.8295738000015,254.11049060000005,254.11049060000005,003,P005,2025_Jan_18_1540,ConditionRich,2021.2.3,59.988722119915295,
227.75,228.0,41,0.0,Stimuli/Blank.png,0,0,0.0,0,98,98,98,,,,,,,,,,,,,227.7670644000027,0.01706440000270959,5,0.19566580000173417,257.86379170000146,257.86379170000146,257.86379170000146,257.86379170000146,257.86379170000146,257.86379170000146,257.86379170000146,257.86379170000146,257.86379170000146,257.86379170000146,003,P005,2025_Jan_18_1540,ConditionRich,2021.2.3,59.988722119915295,
228.0,231.75,38,0.75,Stimuli/P005/things_sledgehammer_03s.jpg,1,1,1.75,0,99,99,99,,,,,,,,,,,,,228.016810000001,0.016810000000987202,5,1.9622520999982953,258.09731730000203,258.09731730000203,258.09731730000203,258.09731730000203,258.09731730000203,258.09731730000203,259.0815389999989,259.8321754999997,258.09731730000203,258.09731730000203,003,P005,2025_Jan_18_1540,ConditionRich,2021.2.3,59.988722119915295,
231.75,232.0,41,0.0,Stimuli/Blank.png,0,0,0.0,0,100,100,100,,,,,,,,,,,,,231.7532237000014,0.0032237000013992656,None,,261.8339425000013,261.8339425000013,261.8339425000013,261.8339425000013,261.8339425000013,261.8339425000013,261.8339425000013,261.8339425000013,261.8339425000013,261.8339425000013,003,P005,2025_Jan_18_1540,ConditionRich,2021.2.3,59.988722119915295,
232.0,235.75,31,0.75,Stimuli/P005/things_jukebox_03n.jpg,0,0,0.0,0,101,101,101,,,,,,,,,,,,,232.0035405000017,0.003540500001690816,5,1.9755311999979313,262.08416249999937,262.08416249999937,262.08416249999937,262.08416249999937,262.08416249999937,262.08416249999937,262.08416249999937,262.08416249999937,262.08416249999937,262.08416249999937,003,P005,2025_Jan_18_1540,ConditionRich,2021.2.3,59.988722119915295,
235.75,236.0,41,0.0,Stimuli/Blank.png,0,0,0.0,0,102,102,102,,,,,,,,,,,,,235.756771700002,0.006771700001991121,None,,265.83745980000094,265.83745980000094,265.83745980000094,265.83745980000094,265.83745980000094,265.83745980000094,265.83745980000094,265.83745980000094,265.83745980000094,265.83745980000094,003,P005,2025_Jan_18_1540,ConditionRich,2021.2.3,59.988722119915295,
236.0,239.75,16,0.75,Stimuli/P005/sun_bwentnobehmvaxkp.jpg,0,0,0.0,0,103,103,103,,,,,,,,,,,,,236.00766120000117,0.007661200001166435,5,1.9550543000004836,266.10437960000127,266.10437960000127,266.10437960000127,266.10437960000127,266.10437960000127,266.10437960000127,266.10437960000127,266.10437960000127,266.10437960000127,266.10437960000127,003,P005,2025_Jan_18_1540,ConditionRich,2021.2.3,59.988722119915295,
239.75,240.0,41,0.0,Stimuli/Blank.png,0,0,0.0,0,104,104,104,,,,,,,,,,,,,239.777545500001,0.02754550000099698,5,0.1850654999980179,269.8743730999995,269.8743730999995,269.8743730999995,269.8743730999995,269.8743730999995,269.8743730999995,269.8743730999995,269.8743730999995,269.8743730999995,269.8743730999995,003,P005,2025_Jan_18_1540,ConditionRich,2021.2.3,59.988722119915295,
240.0,243.75,39,0.75,Stimuli/P005/things_train_set_03s.jpg,0,0,0.0,0,105,105,105,,,,,,,,,,,,,240.02791010000146,0.027910100001463434,5,1.9348724000010407,270.1245635999985,270.1245635999985,270.1245635999985,270.1245635999985,270.1245635999985,270.1245635999985,270.1245635999985,270.1245635999985,270.1245635999985,270.1245635999985,003,P005,2025_Jan_18_1540,ConditionRich,2021.2.3,59.988722119915295,
243.75,244.0,41,0.0,Stimuli/Blank.png,0,0,0.0,0,106,106,106,,,,,,,,,,,,,243.77978220000296,0.029782200002955506,5,0.19808509999711532,273.8612678999998,273.8612678999998,273.8612678999998,273.8612678999998,273.8612678999998,273.8612678999998,273.8612678999998,273.8612678999998,273.8612678999998,273.8612678999998,003,P005,2025_Jan_18_1540,ConditionRich,2021.2.3,59.988722119915295,
244.0,247.75,15,0.75,Stimuli/P005/sun_btkzuhaxqlacvmsv.jpg,0,0,0.0,0,107,107,107,,,,,,,,,,,,,244.01345240000228,0.013452400002279319,5,1.964947000000393,274.09537270000146,274.09537270000146,274.09537270000146,274.09537270000146,274.09537270000146,274.09537270000146,274.09537270000146,274.09537270000146,274.09537270000146,274.09537270000146,003,P005,2025_Jan_18_1540,ConditionRich,2021.2.3,59.988722119915295,
247.75,248.0,41,0.0,Stimuli/Blank.png,0,0,0.0,0,108,108,108,,,,,,,,,,,,,247.7524114000007,0.002411400000710273,5,0.21224889999939478,277.84804409999924,277.84804409999924,277.84804409999924,277.84804409999924,277.84804409999924,277.84804409999924,277.84804409999924,277.84804409999924,277.84804409999924,277.84804409999924,003,P005,2025_Jan_18_1540,ConditionRich,2021.2.3,59.988722119915295,
248.0,251.75,10,0.75,Stimuli/P005/sun_bgnxbfhmwhliypvg.jpg,0,0,0.0,0,109,109,109,,,,,,,,,,,,,248.0176124000027,0.017612400002690265,5,1.9620486999992863,278.0982546000014,278.0982546000014,278.0982546000014,278.0982546000014,278.0982546000014,278.0982546000014,278.0982546000014,278.0982546000014,278.0982546000014,278.0982546000014,003,P005,2025_Jan_18_1540,ConditionRich,2021.2.3,59.988722119915295,
251.75,252.0,41,0.0,Stimuli/Blank.png,0,0,0.0,0,110,110,110,,,,,,,,,,,,,251.75385690000257,0.003856900002574548,None,,281.83488840000064,281.83488840000064,281.83488840000064,281.83488840000064,281.83488840000064,281.83488840000064,281.83488840000064,281.83488840000064,281.83488840000064,281.83488840000064,003,P005,2025_Jan_18_1540,ConditionRich,2021.2.3,59.988722119915295,
252.0,255.75,32,0.75,Stimuli/P005/things_jumpsuit_03s.jpg,0,0,0.0,0,111,111,111,,,,,,,,,,,,,252.0041792000011,0.0041792000010900665,5,1.9588347999997495,282.10177190000104,282.10177190000104,282.10177190000104,282.10177190000104,282.10177190000104,282.10177190000104,282.10177190000104,282.10177190000104,282.10177190000104,282.10177190000104,003,P005,2025_Jan_18_1540,ConditionRich,2021.2.3,59.988722119915295,
255.75,256.0,41,0.0,Stimuli/Blank.png,0,0,0.0,0,112,112,112,,,,,,,,,,,,,255.77462930000183,0.024629300001834054,None,,285.8551582,285.8551582,285.8551582,285.8551582,285.8551582,285.8551582,285.8551582,285.8551582,285.8551582,285.8551582,003,P005,2025_Jan_18_1540,ConditionRich,2021.2.3,59.988722119915295,
256.0,259.75,21,0.75,Stimuli/P005/things_accordion_03s.jpg,0,0,0.0,0,113,113,113,,,,,,,,,,,,,256.0077052000015,0.007705200001510093,5,1.9717256000003545,286.08861049999905,286.08861049999905,286.08861049999905,286.08861049999905,286.08861049999905,286.08861049999905,286.08861049999905,286.08861049999905,286.08861049999905,286.08861049999905,003,P005,2025_Jan_18_1540,ConditionRich,2021.2.3,59.988722119915295,
259.75,260.0,41,0.0,Stimuli/Blank.png,0,0,0.0,0,114,114,114,,,,,,,,,,,,,259.76292410000315,0.012924100003147032,5,0.2018707000024733,289.858619300001,289.858619300001,289.858619300001,289.858619300001,289.858619300001,289.858619300001,289.858619300001,289.858619300001,289.858619300001,289.858619300001,003,P005,2025_Jan_18_1540,ConditionRich,2021.2.3,59.988722119915295,
260.0,263.75,1,0.75,Stimuli/P005/sun_adyhbxohydkpecty.jpg,0,0,0.0,0,115,115,115,,,,,,,,,,,,,260.0282146999998,0.028214699999807635,5,1.9515744999989693,290.1088238000011,290.1088238000011,290.1088238000011,290.1088238000011,290.1088238000011,290.1088238000011,290.1088238000011,290.1088238000011,290.1088238000011,290.1088238000011,003,P005,2025_Jan_18_1540,ConditionRich,2021.2.3,59.988722119915295,
263.75,264.0,41,0.0,Stimuli/Blank.png,0,0,0.0,0,116,116,116,,,,,,,,,,,,,263.7671784000013,0.0171784000012849,5,0.19818930000110413,293.862133300001,293.862133300001,293.862133300001,293.862133300001,293.862133300001,293.862133300001,293.862133300001,293.862133300001,293.862133300001,293.862133300001,003,P005,2025_Jan_18_1540,ConditionRich,2021.2.3,59.988722119915295,
264.0,267.75,35,0.75,Stimuli/P005/things_pig_03s.jpg,0,0,0.0,0,117,117,117,,,,,,,,,,,,,264.01505460000044,0.015054600000439677,5,1.9480957999985549,294.11233970000103,294.11233970000103,294.11233970000103,294.11233970000103,294.11233970000103,294.11233970000103,294.11233970000103,294.11233970000103,294.11233970000103,294.11233970000103,003,P005,2025_Jan_18_1540,ConditionRich,2021.2.3,59.988722119915295,
267.75,268.0,41,0.0,Stimuli/Blank.png,0,0,0.0,0,118,118,118,,,,,,,,,,,,,267.76843440000084,0.018434400000842288,None,,297.84897700000147,297.84897700000147,297.84897700000147,297.84897700000147,297.84897700000147,297.84897700000147,297.84897700000147,297.84897700000147,297.84897700000147,297.84897700000147,003,P005,2025_Jan_18_1540,ConditionRich,2021.2.3,59.988722119915295,
268.0,271.75,29,0.75,Stimuli/P005/things_guillotine_03s.jpg,0,0,0.0,0,119,119,119,,,,,,,,,,,,,268.0018213000003,0.0018213000003015622,5,1.9778327000021818,298.0825057000002,298.0825057000002,298.0825057000002,298.0825057000002,298.0825057000002,298.0825057000002,298.0825057000002,298.0825057000002,298.0825057000002,298.0825057000002,003,P005,2025_Jan_18_1540,ConditionRich,2021.2.3,59.988722119915295,
271.75,272.0,41,0.0,Stimuli/Blank.png,0,0,0.0,0,120,120,120,,,,,,,,,,,,,271.754660300001,0.004660300000978168,None,,301.8358044000015,301.8358044000015,301.8358044000015,301.8358044000015,301.8358044000015,301.8358044000015,301.8358044000015,301.8358044000015,301.8358044000015,301.8358044000015,003,P005,2025_Jan_18_1540,ConditionRich,2021.2.3,59.988722119915295,
272.0,275.75,2,0.75,Stimuli/P005/sun_ahmycohdkioefoxs.jpg,0,0,0.0,0,121,121,121,,,,,,,,,,,,,272.00472290000107,0.004722900001070229,5,1.9578006000010646,302.1027290999991,302.1027290999991,302.1027290999991,302.1027290999991,302.1027290999991,302.1027290999991,302.1027290999991,302.1027290999991,302.1027290999991,302.1027290999991,003,P005,2025_Jan_18_1540,ConditionRich,2021.2.3,59.988722119915295,
275.75,276.0,41,0.0,Stimuli/Blank.png,0,0,0.0,0,122,122,122,,,,,,,,,,,,,275.7771105000029,0.027110500002891058,5,0.1875908999973035,305.8727325,305.8727325,305.8727325,305.8727325,305.8727325,305.8727325,305.8727325,305.8727325,305.8727325,305.8727325,003,P005,2025_Jan_18_1540,ConditionRich,2021.2.3,59.988722119915295,
276.0,292.0,0,0.0,Stimuli/Blank.png,1,13,13.75,0,123,123,123,,,,,,,,,,,,,276.0274153999999,0.02741539999988163,5,15.937527999998565,306.1229544000016,306.1229544000016,306.1229544000016,306.1229544000016,306.1229544000016,306.1229544000016,319.10102610000104,319.8516832999994,306.1229544000016,306.1229544000016,003,P005,2025_Jan_18_1540,ConditionRich,2021.2.3,59.988722119915295,
292.0,295.75,17,0.75,Stimuli/P005/sun_bwsictslfxygpqbp.jpg,1,2,2.75,0,124,124,124,,,,,,,,,,,,,292.02303519999987,0.023035199999867473,4,2.696741799998563,322.10364670000126,322.10364670000126,322.10364670000126,322.10364670000126,322.10364670000126,322.10364670000126,324.0887790000015,324.8393901999989,322.10364670000126,322.10364670000126,003,P005,2025_Jan_18_1540,ConditionRich,2021.2.3,59.988722119915295,
295.75,296.0,41,0.0,Stimuli/Blank.png,0,0,0.0,0,125,125,125,,,,,,,,,,,,,295.7591046000016,0.009104600001592189,None,,325.84027480000077,325.84027480000077,325.84027480000077,325.84027480000077,325.84027480000077,325.84027480000077,325.84027480000077,325.84027480000077,325.84027480000077,325.84027480000077,003,P005,2025_Jan_18_1540,ConditionRich,2021.2.3,59.988722119915295,
296.0,299.75,36,0.75,Stimuli/P005/things_pony_03s.jpg,1,2,2.75,0,126,126,126,,,,,,,,,,,,,296.0092841000005,0.009284100000513718,4,2.6290298999992956,326.10718260000067,326.10718260000067,326.10718260000067,326.10718260000067,326.10718260000067,326.10718260000067,328.07560730000114,328.82625140000164,326.10718260000067,326.10718260000067,003,P005,2025_Jan_18_1540,ConditionRich,2021.2.3,59.988722119915295,
299.75,300.0,41,0.0,Stimuli/Blank.png,0,0,0.0,0,127,127,127,,,,,,,,,,,,,299.77926330000264,0.02926330000263988,5,0.19985630000155652,329.8604884999986,329.8604884999986,329.8604884999986,329.8604884999986,329.8604884999986,329.8604884999986,329.8604884999986,329.8604884999986,329.8604884999986,329.8604884999986,003,P005,2025_Jan_18_1540,ConditionRich,2021.2.3,59.988722119915295,
300.0,303.75,25,0.75,Stimuli/P005/things_dog_03s.jpg,0,0,0.0,0,128,128,128,,,,,,,,,,,,,300.0127653000018,0.012765300001774449,5,1.966184199998679,330.09401309999885,330.09401309999885,330.09401309999885,330.09401309999885,330.09401309999885,330.09401309999885,330.09401309999885,330.09401309999885,330.09401309999885,330.09401309999885,003,P005,2025_Jan_18_1540,ConditionRich,2021.2.3,59.988722119915295,
303.75,304.0,41,0.0,Stimuli/Blank.png,0,0,0.0,0,129,129,129,,,,,,,,,,,,,303.75222310000026,0.0022231000002648216,5,0.21281380000073113,333.8473441999995,333.8473441999995,333.8473441999995,333.8473441999995,333.8473441999995,333.8473441999995,333.8473441999995,333.8473441999995,333.8473441999995,333.8473441999995,003,P005,2025_Jan_18_1540,ConditionRich,2021.2.3,59.988722119915295,
304.0,307.75,34,0.75,Stimuli/P005/things_patty_03s.jpg,0,0,0.0,0,130,130,130,,,,,,,,,,,,,304.016510700003,0.01651070000298205,5,1.9627887999995437,334.0975443999996,334.0975443999996,334.0975443999996,334.0975443999996,334.0975443999996,334.0975443999996,334.0975443999996,334.0975443999996,334.0975443999996,334.0975443999996,003,P005,2025_Jan_18_1540,ConditionRich,2021.2.3,59.988722119915295,
307.75,308.0,41,0.0,Stimuli/Blank.png,0,0,0.0,0,131,131,131,,,,,,,,,,,,,307.7535268000029,0.0035268000028736424,None,,337.8343233000014,337.8343233000014,337.8343233000014,337.8343233000014,337.8343233000014,337.8343233000014,337.8343233000014,337.8343233000014,337.8343233000014,337.8343233000014,003,P005,2025_Jan_18_1540,ConditionRich,2021.2.3,59.988722119915295,
308.0,311.75,27,0.75,Stimuli/P005/things_first-aid_kit_03s.jpg,0,0,0.0,0,132,132,132,,,,,,,,,,,,,308.00395480000225,0.003954800002247794,5,1.959133299998939,338.10106319999977,338.10106319999977,338.10106319999977,338.10106319999977,338.10106319999977,338.10106319999977,338.10106319999977,338.10106319999977,338.10106319999977,338.10106319999977,003,P005,2025_Jan_18_1540,ConditionRich,2021.2.3,59.988722119915295,
311.75,312.0,41,0.0,Stimuli/Blank.png,0,0,0.0,0,133,133,133,,,,,,,,,,,,,311.7731631000024,0.023163100002420833,None,,341.85436539999864,341.85436539999864,341.85436539999864,341.85436539999864,341.85436539999864,341.85436539999864,341.85436539999864,341.85436539999864,341.85436539999864,341.85436539999864,003,P005,2025_Jan_18_1540,ConditionRich,2021.2.3,59.988722119915295,
312.0,315.75,13,0.75,Stimuli/P005/sun_bruphbrfsbxowtlq.jpg,0,0,0.0,0,134,134,134,,,,,,,,,,,,,312.00785130000077,0.00785130000076606,5,1.9556437000028382,342.1045833999997,342.1045833999997,342.1045833999997,342.1045833999997,342.1045833999997,342.1045833999997,342.1045833999997,342.1045833999997,342.1045833999997,342.1045833999997,003,P005,2025_Jan_18_1540,ConditionRich,2021.2.3,59.988722119915295,
315.75,316.0,41,0.0,Stimuli/Blank.png,0,0,0.0,0,135,135,135,,,,,,,,,,,,,315.7773175000002,0.027317500000208383,None,,345.8578841000017,345.8578841000017,345.8578841000017,345.8578841000017,345.8578841000017,345.8578841000017,345.8578841000017,345.8578841000017,345.8578841000017,345.8578841000017,003,P005,2025_Jan_18_1540,ConditionRich,2021.2.3,59.988722119915295,
316.0,319.75,11,0.75,Stimuli/P005/sun_bjoocjyyhsmsbprr.jpg,0,0,0.0,0,136,136,136,,,,,,,,,,,,,316.011992300002,0.011992300002020784,5,1.9521696000010706,346.1081128000005,346.1081128000005,346.1081128000005,346.1081128000005,346.1081128000005,346.1081128000005,346.1081128000005,346.1081128000005,346.1081128000005,346.1081128000005,003,P005,2025_Jan_18_1540,ConditionRich,2021.2.3,59.988722119915295,
319.75,320.0,41,0.0,Stimuli/Blank.png,0,0,0.0,0,137,137,137,,,,,,,,,,,,,319.78235190000123,0.032351900001231115,5,0.18211349999910453,349.87809969999944,349.87809969999944,349.87809969999944,349.87809969999944,349.87809969999944,349.87809969999944,349.87809969999944,349.87809969999944,349.87809969999944,349.87809969999944,003,P005,2025_Jan_18_1540,ConditionRich,2021.2.3,59.988722119915295,
320.0,323.75,26,0.75,Stimuli/P005/things_face_03s.jpg,0,0,0.0,0,138,138,138,,,,,,,,,,,,,320.01373290000265,0.01373290000265115,5,1.9653285000022152,350.09495009999955,350.09495009999955,350.09495009999955,350.09495009999955,350.09495009999955,350.09495009999955,350.09495009999955,350.09495009999955,350.09495009999955,350.09495009999955,003,P005,2025_Jan_18_1540,ConditionRich,2021.2.3,59.988722119915295,
323.75,324.0,41,0.0,Stimuli/Blank.png,0,0,0.0,0,139,139,139,,,,,,,,,,,,,323.7527738000026,0.0027738000026147347,5,0.21197749999919324,353.84827629999927,353.84827629999927,353.84827629999927,353.84827629999927,353.84827629999927,353.84827629999927,353.84827629999927,353.84827629999927,353.84827629999927,353.84827629999927,003,P005,2025_Jan_18_1540,ConditionRich,2021.2.3,59.988722119915295,
324.0,327.75,33,0.75,Stimuli/P005/things_man_03s.jpg,0,0,0.0,0,140,140,140,,,,,,,,,,,,,324.01800210000147,0.018002100001467625,5,1.961648199998308,354.0984802000021,354.0984802000021,354.0984802000021,354.0984802000021,354.0984802000021,354.0984802000021,354.0984802000021,354.0984802000021,354.0984802000021,354.0984802000021,003,P005,2025_Jan_18_1540,ConditionRich,2021.2.3,59.988722119915295,
327.75,328.0,41,0.0,Stimuli/Blank.png,0,0,0.0,0,141,141,141,,,,,,,,,,,,,327.75675240000055,0.006752400000550551,5,0.20830080000087037,357.85178480000104,357.85178480000104,357.85178480000104,357.85178480000104,357.85178480000104,357.85178480000104,357.85178480000104,357.85178480000104,357.85178480000104,357.85178480000104,003,P005,2025_Jan_18_1540,ConditionRich,2021.2.3,59.988722119915295,
328.0,331.75,12,0.75,Stimuli/P005/sun_bodyuiqwqpqzwfoz.jpg,0,0,0.0,0,142,142,142,,,,,,,,,,,,,328.0211479999998,0.021147999999811873,5,1.9583633999973244,358.10200149999946,358.10200149999946,358.10200149999946,358.10200149999946,358.10200149999946,358.10200149999946,358.10200149999946,358.10200149999946,358.10200149999946,358.10200149999946,003,P005,2025_Jan_18_1540,ConditionRich,2021.2.3,59.988722119915295,
331.75,332.0,41,0.0,Stimuli/Blank.png,0,0,0.0,0,143,143,143,,,,,,,,,,,,,331.7581245000001,0.00812450000012177,None,,361.83862640000007,361.83862640000007,361.83862640000007,361.83862640000007,361.83862640000007,361.83862640000007,361.83862640000007,361.83862640000007,361.83862640000007,361.83862640000007,003,P005,2025_Jan_18_1540,ConditionRich,2021.2.3,59.988722119915295,
332.0,335.75,4,0.75,Stimuli/P005/sun_auwghripdoxzluuk.jpg,0,0,0.0,0,144,144,144,,,,,,,,,,,,,332.0082954000027,0.008295400002680253,5,1.9713023000003886,362.0888433,362.0888433,362.0888433,362.0888433,362.0888433,362.0888433,362.0888433,362.0888433,362.0888433,362.0888433,003,P005,2025_Jan_18_1540,ConditionRich,2021.2.3,59.988722119915295,
335.75,336.0,41,0.0,Stimuli/Blank.png,0,0,0.0,0,145,145,145,,,,,,,,,,,,,335.76215310000043,0.01215310000043246,5,0.21803150000050664,365.8421534000008,365.8421534000008,365.8421534000008,365.8421534000008,365.8421534000008,365.8421534000008,365.8421534000008,365.8421534000008,365.8421534000008,365.8421534000008,003,P005,2025_Jan_18_1540,ConditionRich,2021.2.3,59.988722119915295,
336.0,339.75,30,0.75,Stimuli/P005/things_hood_03s.jpg,0,0,0.0,0,146,146,146,,,,,,,,,,,,,336.01202790000025,0.012027900000248337,5,1.9677955000006477,366.0923788,366.0923788,366.0923788,366.0923788,366.0923788,366.0923788,366.0923788,366.0923788,366.0923788,366.0923788,003,P005,2025_Jan_18_1540,ConditionRich,2021.2.3,59.988722119915295,
339.75,340.0,41,0.0,Stimuli/Blank.png,0,0,0.0,0,147,147,147,,,,,,,,,,,,,339.7668768000003,0.016876800000318326,5,0.19663520000176504,369.86344539999845,369.86344539999845,369.86344539999845,369.86344539999845,369.86344539999845,369.86344539999845,369.86344539999845,369.86344539999845,369.86344539999845,369.86344539999845,003,P005,2025_Jan_18_1540,ConditionRich,2021.2.3,59.988722119915295,
340.0,343.75,28,0.75,Stimuli/P005/things_girl_03s.jpg,0,0,0.0,0,148,148,148,,,,,,,,,,,,,340.0172808000025,0.017280800002481556,5,1.9474641999986488,370.1125780000002,370.1125780000002,370.1125780000002,370.1125780000002,370.1125780000002,370.1125780000002,370.1125780000002,370.1125780000002,370.1125780000002,370.1125780000002,003,P005,2025_Jan_18_1540,ConditionRich,2021.2.3,59.988722119915295,
343.75,344.0,41,0.0,Stimuli/Blank.png,0,0,0.0,0,149,149,149,,,,,,,,,,,,,343.76861140000256,0.018611400002555456,None,,373.8491936999999,373.8491936999999,373.8491936999999,373.8491936999999,373.8491936999999,373.8491936999999,373.8491936999999,373.8491936999999,373.8491936999999,373.8491936999999,003,P005,2025_Jan_18_1540,ConditionRich,2021.2.3,59.988722119915295,
344.0,347.75,23,0.75,Stimuli/P005/things_beetle_03s.jpg,0,0,0.0,0,150,150,150,,,,,,,,,,,,,344.0025071000018,0.0025071000018215273,5,1.9771474000008311,374.082910000001,374.082910000001,374.082910000001,374.082910000001,374.082910000001,374.082910000001,374.082910000001,374.082910000001,374.082910000001,374.082910000001,003,P005,2025_Jan_18_1540,ConditionRich,2021.2.3,59.988722119915295,
347.75,348.0,41,0.0,Stimuli/Blank.png,0,0,0.0,0,151,151,151,,,,,,,,,,,,,347.75779220000186,0.007792200001858873,5,0.20727789999727975,377.852690300002,377.852690300002,377.852690300002,377.852690300002,377.852690300002,377.852690300002,377.852690300002,377.852690300002,377.852690300002,377.852690300002,003,P005,2025_Jan_18_1540,ConditionRich,2021.2.3,59.988722119915295,
348.0,351.75,5,0.75,Stimuli/P005/sun_axaqdcecfojvpvrl.jpg,0,0,0.0,0,152,152,152,,,,,,,,,,,,,348.02240430000165,0.02240430000165361,5,1.956755899998825,378.10351620000074,378.10351620000074,378.10351620000074,378.10351620000074,378.10351620000074,378.10351620000074,378.10351620000074,378.10351620000074,378.10351620000074,378.10351620000074,003,P005,2025_Jan_18_1540,ConditionRich,2021.2.3,59.988722119915295,
351.75,352.0,41,0.0,Stimuli/Blank.png,0,0,0.0,0,153,153,153,,,,,,,,,,,,,351.7583282000014,0.008328200001415098,None,,381.83957569999984,381.83957569999984,381.83957569999984,381.83957569999984,381.83957569999984,381.83957569999984,381.83957569999984,381.83957569999984,381.83957569999984,381.83957569999984,003,P005,2025_Jan_18_1540,ConditionRich,2021.2.3,59.988722119915295,
352.0,355.75,9,0.75,Stimuli/P005/sun_bfcmdrojsffdttzu.jpg,0,0,0.0,0,154,154,154,,,,,,,,,,,,,352.00878280000325,0.008782800003245939,5,1.9536406000006536,382.1064855000004,382.1064855000004,382.1064855000004,382.1064855000004,382.1064855000004,382.1064855000004,382.1064855000004,382.1064855000004,382.1064855000004,382.1064855000004,003,P005,2025_Jan_18_1540,ConditionRich,2021.2.3,59.988722119915295,
355.75,356.0,41,0.0,Stimuli/Blank.png,0,0,0.0,0,155,155,155,,,,,,,,,,,,,355.7796649000011,0.02966490000108024,5,0.2002929000009317,385.8597700999999,385.8597700999999,385.8597700999999,385.8597700999999,385.8597700999999,385.8597700999999,385.8597700999999,385.8597700999999,385.8597700999999,385.8597700999999,003,P005,2025_Jan_18_1540,ConditionRich,2021.2.3,59.988722119915295,
356.0,359.75,19,0.75,Stimuli/P005/sun_czspalxthlkjwoat.jpg,1,0,0.75,0,156,156,156,,,,,,,,,,,,,356.0118599000016,0.011859900001581991,5,1.966690799999924,386.09331290000046,386.09331290000046,386.09331290000046,386.09331290000046,386.09331290000046,386.09331290000046,386.09331290000046,386.82728119999956,386.09331290000046,386.09331290000046,003,P005,2025_Jan_18_1540,ConditionRich,2021.2.3,59.988722119915295,
359.75,360.0,41,0.0,Stimuli/Blank.png,0,0,0.0,0,157,157,157,,,,,,,,,,,,,359.76600340000005,0.016003400000045076,None,,389.84660970000186,389.84660970000186,389.84660970000186,389.84660970000186,389.84660970000186,389.84660970000186,389.84660970000186,389.84660970000186,389.84660970000186,389.84660970000186,003,P005,2025_Jan_18_1540,ConditionRich,2021.2.3,59.988722119915295,
360.0,363.75,18,0.75,Stimuli/P005/sun_bzqhpcsgzswozfhs.jpg,0,0,0.0,0,158,158,158,,,,,,,,,,,,,359.9992802000015,-0.0007197999984782655,5,1.9632906000006187,390.0968271999991,390.0968271999991,390.0968271999991,390.0968271999991,390.0968271999991,390.0968271999991,390.0968271999991,390.0968271999991,390.0968271999991,390.0968271999991,003,P005,2025_Jan_18_1540,ConditionRich,2021.2.3,59.988722119915295,
363.75,364.0,41,0.0,Stimuli/Blank.png,0,0,0.0,0,159,159,159,,,,,,,,,,,,,363.7691298000027,0.019129800002701813,None,,393.85014990000127,393.85014990000127,393.85014990000127,393.85014990000127,393.85014990000127,393.85014990000127,393.85014990000127,393.85014990000127,393.85014990000127,393.85014990000127,003,P005,2025_Jan_18_1540,ConditionRich,2021.2.3,59.988722119915295,
364.0,367.75,6,0.75,Stimuli/P005/sun_bbzkhzmxdjrfjpjz.jpg,0,0,0.0,0,160,160,160,,,,,,,,,,,,,364.00259670000014,0.0025967000001401175,5,1.9766663999980665,394.0836702000015,394.0836702000015,394.0836702000015,394.0836702000015,394.0836702000015,394.0836702000015,394.0836702000015,394.0836702000015,394.0836702000015,394.0836702000015,003,P005,2025_Jan_18_1540,ConditionRich,2021.2.3,59.988722119915295,
367.75,368.0,41,0.0,Stimuli/Blank.png,0,0,0.0,0,161,161,161,,,,,,,,,,,,,367.7555291999997,0.005529199999728007,None,,397.8369719000002,397.8369719000002,397.8369719000002,397.8369719000002,397.8369719000002,397.8369719000002,397.8369719000002,397.8369719000002,397.8369719000002,397.8369719000002,003,P005,2025_Jan_18_1540,ConditionRich,2021.2.3,59.988722119915295,
368.0,371.75,40,0.75,Stimuli/P005/things_woman_03s.jpg,1,3,3.75,0,162,162,162,,,,,,,,,,,,,368.0071655000029,0.007165500002884073,5,1.956127599998581,398.10389980000036,398.10389980000036,398.10389980000036,398.10389980000036,398.10389980000036,398.10389980000036,401.0731558000007,401.82385609999983,398.10389980000036,398.10389980000036,003,P005,2025_Jan_18_1540,ConditionRich,2021.2.3,59.988722119915295,
371.75,372.0,41,0.0,Stimuli/Blank.png,0,0,0.0,0,163,163,163,,,,,,,,,,,,,371.7771705000014,0.02717050000137533,4,0.02791330000036396,401.857195200002,401.857195200002,401.857195200002,401.857195200002,401.857195200002,401.857195200002,401.857195200002,401.857195200002,401.857195200002,401.857195200002,003,P005,2025_Jan_18_1540,ConditionRich,2021.2.3,59.988722119915295,
372.0,388.0,0,0.0,Stimuli/Blank.png,1,13,13.75,0,164,164,164,,,,,,,,,,,,,372.01213030000144,0.012130300001444994,5,13.952409699999407,402.10742070000197,402.10742070000197,402.10742070000197,402.10742070000197,402.10742070000197,402.10742070000197,415.08548599999995,415.836173300002,402.10742070000197,402.10742070000197,003,P005,2025_Jan_18_1540,ConditionRich,2021.2.3,59.988722119915295,
