eventStartTime,eventEndTime,eventCond,imSize,imFile,responseEvent,fixRespStart,fixRespEnd,Events.thisRepN,Events.thisTrialN,Events.thisN,Events.thisIndex,Instructions.started,Instructions.stopped,participantReadyResponse.keys,participantReadyResponse.rt,participantReadyResponse.started,participantReadyResponse.stopped,startWaitforTrigger,triggerResponse.keys,triggerResponse.rt,triggerResponse.started,triggerResponse.stopped,globalTimer,actualStartTime,startTimingDiff,participantResponse.keys,participantResponse.rt,participantResponse.started,participantResponse.stopped,image.started,image.stopped,fixationOutside.started,fixationOutside.stopped,fixationResponse.started,fixationResponse.stopped,fixationInside.started,fixationInside.stopped,session,participant,date,expName,psychopyVersion,frameRate,
,,,,,,,,,,,,12.474593200000527,None,4,3.6842985000002955,12.474593200000527,None,,,,,,,,,,,,,,,,,,,,,009,P005,2025_Jan_18_1637,ConditionRich,2021.2.3,59.903770582873534,
,,,,,,,,,,,,,,,,,,16.167308399999456,5,14.279508399999031,16.18007370000123,None,,,,,,,,,,,,,,,,009,P005,2025_Jan_18_1637,ConditionRich,2021.2.3,59.903770582873534,
0.0,4.0,0,0.0,Stimuli/Blank.png,0,0,0.0,0,0,0,0,,,,,,,,,,,,30.46276030000081,0.03537510000023758,0.03537510000023758,5,3.9335386999991897,30.526013000002422,None,30.526013000002422,None,30.526013000002422,None,30.526013000002422,30.526013000002422,30.526013000002422,None,009,P005,2025_Jan_18_1637,ConditionRich,2021.2.3,59.903770582873534,
4.0,7.75,29,0.75,Stimuli/P005/things_guillotine_03s.jpg,1,0,0.75,0,1,1,1,,,,,,,,,,,,,4.020032299999002,0.020032299999002134,5,1.9630460999978823,34.49648910000178,34.49648910000178,34.49648910000178,34.49648910000178,34.49648910000178,34.49648910000178,34.49648910000178,35.230158099999244,34.49648910000178,34.49648910000178,009,P005,2025_Jan_18_1637,ConditionRich,2021.2.3,59.903770582873534,
7.75,8.0,41,0.0,Stimuli/Blank.png,0,0,0.0,0,2,2,2,,,,,,,,,,,,,7.756266399999731,0.00626639999973122,None,,38.2330194999995,38.2330194999995,38.2330194999995,38.2330194999995,38.2330194999995,38.2330194999995,38.2330194999995,38.2330194999995,38.2330194999995,38.2330194999995,009,P005,2025_Jan_18_1637,ConditionRich,2021.2.3,59.903770582873534,
8.0,11.75,35,0.75,Stimuli/P005/things_pig_03s.jpg,0,0,0.0,0,3,3,3,,,,,,,,,,,,,8.006593499998417,0.006593499998416519,5,1.9597122999985004,38.49967520000064,38.49967520000064,38.49967520000064,38.49967520000064,38.49967520000064,38.49967520000064,38.49967520000064,38.49967520000064,38.49967520000064,38.49967520000064,009,P005,2025_Jan_18_1637,ConditionRich,2021.2.3,59.903770582873534,
11.75,12.0,41,0.0,Stimuli/Blank.png,0,0,0.0,0,4,4,4,,,,,,,,,,,,,11.776576299998851,0.026576299998851027,None,,42.25298190000103,42.25298190000103,42.25298190000103,42.25298190000103,42.25298190000103,42.25298190000103,42.25298190000103,42.25298190000103,42.25298190000103,42.25298190000103,009,P005,2025_Jan_18_1637,ConditionRich,2021.2.3,59.903770582873534,
12.0,15.75,4,0.75,Stimuli/P005/sun_auwghripdoxzluuk.jpg,0,0,0.0,0,5,5,5,,,,,,,,,,,,,12.009911199998896,0.009911199998896336,5,1.9731533999984094,42.48652520000178,42.48652520000178,42.48652520000178,42.48652520000178,42.48652520000178,42.48652520000178,42.48652520000178,42.48652520000178,42.48652520000178,42.48652520000178,009,P005,2025_Jan_18_1637,ConditionRich,2021.2.3,59.903770582873534,
15.75,16.0,41,0.0,Stimuli/Blank.png,0,0,0.0,0,6,6,6,,,,,,,,,,,,,15.765463299998373,0.015463299998373259,5,0.20290720000048168,46.256513899999845,46.256513899999845,46.256513899999845,46.256513899999845,46.256513899999845,46.256513899999845,46.256513899999845,46.256513899999845,46.256513899999845,46.256513899999845,009,P005,2025_Jan_18_1637,ConditionRich,2021.2.3,59.903770582873534,
16.0,19.75,37,0.75,Stimuli/P005/things_showerhead_03s.jpg,0,0,0.0,0,7,7,7,,,,,,,,,,,,,16.02963539999837,0.029635399998369394,5,1.9527457000003778,46.50673970000207,46.50673970000207,46.50673970000207,46.50673970000207,46.50673970000207,46.50673970000207,46.50673970000207,46.50673970000207,46.50673970000207,46.50673970000207,009,P005,2025_Jan_18_1637,ConditionRich,2021.2.3,59.903770582873534,
19.75,20.0,41,0.0,Stimuli/Blank.png,0,0,0.0,0,8,8,8,,,,,,,,,,,,,19.749832699999388,-0.00016730000061215833,None,,50.22666630000094,50.22666630000094,50.22666630000094,50.22666630000094,50.22666630000094,50.22666630000094,50.22666630000094,50.22666630000094,50.22666630000094,50.22666630000094,009,P005,2025_Jan_18_1637,ConditionRich,2021.2.3,59.903770582873534,
20.0,23.75,12,0.75,Stimuli/P005/sun_bodyuiqwqpqzwfoz.jpg,0,0,0.0,0,9,9,9,,,,,,,,,,,,,20.00027559999944,0.0002755999994406011,5,1.9825290000007953,50.47685339999953,50.47685339999953,50.47685339999953,50.47685339999953,50.47685339999953,50.47685339999953,50.47685339999953,50.47685339999953,50.47685339999953,50.47685339999953,009,P005,2025_Jan_18_1637,ConditionRich,2021.2.3,59.903770582873534,
23.75,24.0,41,0.0,Stimuli/Blank.png,0,0,0.0,0,10,10,10,,,,,,,,,,,,,23.7536199999995,0.0036199999995005783,None,,54.23020430000179,54.23020430000179,54.23020430000179,54.23020430000179,54.23020430000179,54.23020430000179,54.23020430000179,54.23020430000179,54.23020430000179,54.23020430000179,009,P005,2025_Jan_18_1637,ConditionRich,2021.2.3,59.903770582873534,
24.0,27.75,13,0.75,Stimuli/P005/sun_bruphbrfsbxowtlq.jpg,0,0,0.0,0,11,11,11,,,,,,,,,,,,,24.00393890000123,0.00393890000123065,5,1.9622694000026968,54.49708989999999,54.49708989999999,54.49708989999999,54.49708989999999,54.49708989999999,54.49708989999999,54.49708989999999,54.49708989999999,54.49708989999999,54.49708989999999,009,P005,2025_Jan_18_1637,ConditionRich,2021.2.3,59.903770582873534,
27.75,28.0,41,0.0,Stimuli/Blank.png,0,0,0.0,0,12,12,12,,,,,,,,,,,,,27.77387280000039,0.02387280000039027,None,,58.25039879999895,58.25039879999895,58.25039879999895,58.25039879999895,58.25039879999895,58.25039879999895,58.25039879999895,58.25039879999895,58.25039879999895,58.25039879999895,009,P005,2025_Jan_18_1637,ConditionRich,2021.2.3,59.903770582873534,
28.0,31.75,40,0.75,Stimuli/P005/things_woman_03s.jpg,1,2,2.75,0,13,13,13,,,,,,,,,,,,,28.006631699998252,0.006631699998251861,4,2.377584599998954,58.48392900000181,58.48392900000181,58.48392900000181,58.48392900000181,58.48392900000181,58.48392900000181,60.46902260000206,61.219699400000536,58.48392900000181,58.48392900000181,009,P005,2025_Jan_18_1637,ConditionRich,2021.2.3,59.903770582873534,
31.75,32.0,41,0.0,Stimuli/Blank.png,0,0,0.0,0,14,14,14,,,,,,,,,,,,,31.760594899998978,0.01059489999897778,None,,62.237238500001695,62.237238500001695,62.237238500001695,62.237238500001695,62.237238500001695,62.237238500001695,62.237238500001695,62.237238500001695,62.237238500001695,62.237238500001695,009,P005,2025_Jan_18_1637,ConditionRich,2021.2.3,59.903770582873534,
32.0,35.75,6,0.75,Stimuli/P005/sun_bbzkhzmxdjrfjpjz.jpg,0,0,0.0,0,15,15,15,,,,,,,,,,,,,32.010805599999,0.01080559999900288,5,1.9721696000015072,62.48745820000113,62.48745820000113,62.48745820000113,62.48745820000113,62.48745820000113,62.48745820000113,62.48745820000113,62.48745820000113,62.48745820000113,62.48745820000113,009,P005,2025_Jan_18_1637,ConditionRich,2021.2.3,59.903770582873534,
35.75,36.0,41,0.0,Stimuli/Blank.png,0,0,0.0,0,16,16,16,,,,,,,,,,,,,35.763585100001364,0.01358510000136448,5,0.21886000000085915,66.2407564999994,66.2407564999994,66.2407564999994,66.2407564999994,66.2407564999994,66.2407564999994,66.2407564999994,66.2407564999994,66.2407564999994,66.2407564999994,009,P005,2025_Jan_18_1637,ConditionRich,2021.2.3,59.903770582873534,
36.0,39.75,34,0.75,Stimuli/P005/things_patty_03s.jpg,0,0,0.0,0,17,17,17,,,,,,,,,,,,,36.014579599999706,0.01457959999970626,5,1.951567399999476,66.50776340000084,66.50776340000084,66.50776340000084,66.50776340000084,66.50776340000084,66.50776340000084,66.50776340000084,66.50776340000084,66.50776340000084,66.50776340000084,009,P005,2025_Jan_18_1637,ConditionRich,2021.2.3,59.903770582873534,
39.75,40.0,41,0.0,Stimuli/Blank.png,0,0,0.0,0,18,18,18,,,,,,,,,,,,,39.76847479999924,0.01847479999923962,None,,70.24429349999991,70.24429349999991,70.24429349999991,70.24429349999991,70.24429349999991,70.24429349999991,70.24429349999991,70.24429349999991,70.24429349999991,70.24429349999991,009,P005,2025_Jan_18_1637,ConditionRich,2021.2.3,59.903770582873534,
40.0,43.75,14,0.75,Stimuli/P005/sun_bsirencncgxteejx.jpg,0,0,0.0,0,19,19,19,,,,,,,,,,,,,40.00132460000168,0.0013246000016806647,5,1.965022800002771,70.49450200000138,70.49450200000138,70.49450200000138,70.49450200000138,70.49450200000138,70.49450200000138,70.49450200000138,70.49450200000138,70.49450200000138,70.49450200000138,009,P005,2025_Jan_18_1637,ConditionRich,2021.2.3,59.903770582873534,
43.75,44.0,41,0.0,Stimuli/Blank.png,0,0,0.0,0,20,20,20,,,,,,,,,,,,,43.77098299999852,0.020982999998523155,None,,74.24788760000229,74.24788760000229,74.24788760000229,74.24788760000229,74.24788760000229,74.24788760000229,74.24788760000229,74.24788760000229,74.24788760000229,74.24788760000229,009,P005,2025_Jan_18_1637,ConditionRich,2021.2.3,59.903770582873534,
44.0,47.75,25,0.75,Stimuli/P005/things_dog_03s.jpg,0,0,0.0,0,21,21,21,,,,,,,,,,,,,44.00477519999913,0.004775199999130564,5,1.9613930999985314,74.49806249999892,74.49806249999892,74.49806249999892,74.49806249999892,74.49806249999892,74.49806249999892,74.49806249999892,74.49806249999892,74.49806249999892,74.49806249999892,009,P005,2025_Jan_18_1637,ConditionRich,2021.2.3,59.903770582873534,
47.75,48.0,41,0.0,Stimuli/Blank.png,0,0,0.0,0,22,22,22,,,,,,,,,,,,,47.7747288999999,0.024728899999900023,5,0.19148839999979828,78.2680388000008,78.2680388000008,78.2680388000008,78.2680388000008,78.2680388000008,78.2680388000008,78.2680388000008,78.2680388000008,78.2680388000008,78.2680388000008,009,P005,2025_Jan_18_1637,ConditionRich,2021.2.3,59.903770582873534,
48.0,51.75,39,0.75,Stimuli/P005/things_train_set_03s.jpg,1,3,3.75,0,23,23,23,,,,,,,,,,,,,48.024279500001285,0.02427950000128476,4,3.455760700002429,78.50155190000078,78.50155190000078,78.50155190000078,78.50155190000078,78.50155190000078,78.50155190000078,81.48754760000156,None,78.50155190000078,78.50155190000078,009,P005,2025_Jan_18_1637,ConditionRich,2021.2.3,59.903770582873534,
51.75,52.0,41,0.0,Stimuli/Blank.png,0,0,0.0,0,24,24,24,,,,,,,,,,,,,51.76143510000111,0.011435100001108367,None,,82.23819020000155,82.23819020000155,82.23819020000155,82.23819020000155,82.23819020000155,82.23819020000155,82.23819020000155,82.23819020000155,82.23819020000155,82.23819020000155,009,P005,2025_Jan_18_1637,ConditionRich,2021.2.3,59.903770582873534,
52.0,55.75,7,0.75,Stimuli/P005/sun_bdmdlkpsznknrcqi.jpg,1,3,3.75,0,25,25,25,,,,,,,,,,,,,52.01166889999877,0.011668899998767301,4,3.3111965999996755,82.50508919999993,82.50508919999993,82.50508919999993,82.50508919999993,82.50508919999993,82.50508919999993,85.47434780000185,86.22501919999922,82.50508919999993,82.50508919999993,009,P005,2025_Jan_18_1637,ConditionRich,2021.2.3,59.903770582873534,
55.75,56.0,41,0.0,Stimuli/Blank.png,0,0,0.0,0,26,26,26,,,,,,,,,,,,,55.78163520000089,0.03163520000089193,5,0.20091150000007474,86.25838090000252,86.25838090000252,86.25838090000252,86.25838090000252,86.25838090000252,86.25838090000252,86.25838090000252,86.25838090000252,86.25838090000252,86.25838090000252,009,P005,2025_Jan_18_1637,ConditionRich,2021.2.3,59.903770582873534,
56.0,59.75,10,0.75,Stimuli/P005/sun_bgnxbfhmwhliypvg.jpg,0,0,0.0,0,27,27,27,,,,,,,,,,,,,56.01491399999941,0.014913999999407679,5,1.9673165999993216,86.49192219999895,86.49192219999895,86.49192219999895,86.49192219999895,86.49192219999895,86.49192219999895,86.49192219999895,86.49192219999895,86.49192219999895,86.49192219999895,009,P005,2025_Jan_18_1637,ConditionRich,2021.2.3,59.903770582873534,
59.75,60.0,41,0.0,Stimuli/Blank.png,0,0,0.0,0,28,28,28,,,,,,,,,,,,,59.75242810000054,0.002428100000543054,None,,90.22855370000252,90.22855370000252,90.22855370000252,90.22855370000252,90.22855370000252,90.22855370000252,90.22855370000252,90.22855370000252,90.22855370000252,90.22855370000252,009,P005,2025_Jan_18_1637,ConditionRich,2021.2.3,59.903770582873534,
60.0,63.75,5,0.75,Stimuli/P005/sun_axaqdcecfojvpvrl.jpg,0,0,0.0,0,29,29,29,,,,,,,,,,,,,60.00414860000092,0.004148600000917213,5,1.9638914999995905,90.49541529999988,90.49541529999988,90.49541529999988,90.49541529999988,90.49541529999988,90.49541529999988,90.49541529999988,90.49541529999988,90.49541529999988,90.49541529999988,009,P005,2025_Jan_18_1637,ConditionRich,2021.2.3,59.903770582873534,
63.75,64.0,41,0.0,Stimuli/Blank.png,0,0,0.0,0,30,30,30,,,,,,,,,,,,,63.77396890000091,0.023968900000909343,5,0.1937142999995558,94.26543300000048,94.26543300000048,94.26543300000048,94.26543300000048,94.26543300000048,94.26543300000048,94.26543300000048,94.26543300000048,94.26543300000048,94.26543300000048,009,P005,2025_Jan_18_1637,ConditionRich,2021.2.3,59.903770582873534,
64.0,67.75,28,0.75,Stimuli/P005/things_girl_03s.jpg,0,0,0.0,0,31,31,31,,,,,,,,,,,,,64.02318620000005,0.02318620000005467,5,1.9437247999994725,94.51562349999949,94.51562349999949,94.51562349999949,94.51562349999949,94.51562349999949,94.51562349999949,94.51562349999949,94.51562349999949,94.51562349999949,94.51562349999949,009,P005,2025_Jan_18_1637,ConditionRich,2021.2.3,59.903770582873534,
67.75,68.0,41,0.0,Stimuli/Blank.png,0,0,0.0,0,32,32,32,,,,,,,,,,,,,67.77607649999845,0.026076499998453073,None,,98.25228100000095,98.25228100000095,98.25228100000095,98.25228100000095,98.25228100000095,98.25228100000095,98.25228100000095,98.25228100000095,98.25228100000095,98.25228100000095,009,P005,2025_Jan_18_1637,ConditionRich,2021.2.3,59.903770582873534,
68.0,71.75,8,0.75,Stimuli/P005/sun_bekkgqphzbclwpvb.jpg,0,0,0.0,0,33,33,33,,,,,,,,,,,,,68.00982400000066,0.009824000000662636,5,1.9567129999995814,98.50249130000157,98.50249130000157,98.50249130000157,98.50249130000157,98.50249130000157,98.50249130000157,98.50249130000157,98.50249130000157,98.50249130000157,98.50249130000157,009,P005,2025_Jan_18_1637,ConditionRich,2021.2.3,59.903770582873534,
71.75,72.0,41,0.0,Stimuli/Blank.png,0,0,0.0,0,34,34,34,,,,,,,,,,,,,71.77960430000167,0.02960430000166525,None,,102.25581099999908,102.25581099999908,102.25581099999908,102.25581099999908,102.25581099999908,102.25581099999908,102.25581099999908,102.25581099999908,102.25581099999908,102.25581099999908,009,P005,2025_Jan_18_1637,ConditionRich,2021.2.3,59.903770582873534,
72.0,75.75,33,0.75,Stimuli/P005/things_man_03s.jpg,0,0,0.0,0,35,35,35,,,,,,,,,,,,,72.01231980000011,0.0123198000001139,5,1.953450699998939,102.50602509999953,102.50602509999953,102.50602509999953,102.50602509999953,102.50602509999953,102.50602509999953,102.50602509999953,102.50602509999953,102.50602509999953,102.50602509999953,009,P005,2025_Jan_18_1637,ConditionRich,2021.2.3,59.903770582873534,
75.75,76.0,41,0.0,Stimuli/Blank.png,0,0,0.0,0,36,36,36,,,,,,,,,,,,,75.78444899999886,0.0344489999988582,5,0.18318899999940186,106.2760085000009,106.2760085000009,106.2760085000009,106.2760085000009,106.2760085000009,106.2760085000009,106.2760085000009,106.2760085000009,106.2760085000009,106.2760085000009,009,P005,2025_Jan_18_1637,ConditionRich,2021.2.3,59.903770582873534,
76.0,79.75,23,0.75,Stimuli/P005/things_beetle_03s.jpg,0,0,0.0,0,37,37,37,,,,,,,,,,,,,76.01587469999868,0.01587469999867608,5,1.96634880000056,106.49285830000008,106.49285830000008,106.49285830000008,106.49285830000008,106.49285830000008,106.49285830000008,106.49285830000008,106.49285830000008,106.49285830000008,106.49285830000008,009,P005,2025_Jan_18_1637,ConditionRich,2021.2.3,59.903770582873534,
79.75,80.0,41,0.0,Stimuli/Blank.png,0,0,0.0,0,38,38,38,,,,,,,,,,,,,79.75465709999844,0.004657099998439662,5,0.21311319999949774,110.24617410000064,110.24617410000064,110.24617410000064,110.24617410000064,110.24617410000064,110.24617410000064,110.24617410000064,110.24617410000064,110.24617410000064,110.24617410000064,009,P005,2025_Jan_18_1637,ConditionRich,2021.2.3,59.903770582873534,
80.0,83.75,16,0.75,Stimuli/P005/sun_bwentnobehmvaxkp.jpg,0,0,0.0,0,39,39,39,,,,,,,,,,,,,80.01985929999864,0.01985929999864311,5,1.9627323999993678,110.49638100000084,110.49638100000084,110.49638100000084,110.49638100000084,110.49638100000084,110.49638100000084,110.49638100000084,110.49638100000084,110.49638100000084,110.49638100000084,009,P005,2025_Jan_18_1637,ConditionRich,2021.2.3,59.903770582873534,
83.75,84.0,41,0.0,Stimuli/Blank.png,0,0,0.0,0,40,40,40,,,,,,,,,,,,,83.75663079999867,0.0066307999986747745,None,,114.23304310000094,114.23304310000094,114.23304310000094,114.23304310000094,114.23304310000094,114.23304310000094,114.23304310000094,114.23304310000094,114.23304310000094,114.23304310000094,009,P005,2025_Jan_18_1637,ConditionRich,2021.2.3,59.903770582873534,
84.0,100.0,0,0.0,Stimuli/Blank.png,1,8,8.75,0,41,41,41,,,,,,,,,,,,,84.00620250000065,0.006202500000654254,5,13.975917899999331,114.48323810000147,114.48323810000147,114.48323810000147,114.48323810000147,114.48323810000147,114.48323810000147,122.47363960000075,123.22428130000117,114.48323810000147,114.48323810000147,009,P005,2025_Jan_18_1637,ConditionRich,2021.2.3,59.903770582873534,
100.0,103.75,36,0.75,Stimuli/P005/things_pony_03s.jpg,0,0,0.0,0,42,42,42,,,,,,,,,,,,,100.00352740000017,0.0035274000001663808,5,1.9784696999995504,130.480643400002,130.480643400002,130.480643400002,130.480643400002,130.480643400002,130.480643400002,130.480643400002,130.480643400002,130.480643400002,130.480643400002,009,P005,2025_Jan_18_1637,ConditionRich,2021.2.3,59.903770582873534,
103.75,104.0,41,0.0,Stimuli/Blank.png,0,0,0.0,0,43,43,43,,,,,,,,,,,,,103.75912959999914,0.009129599999141647,5,0.20864649999930407,134.25063220000084,134.25063220000084,134.25063220000084,134.25063220000084,134.25063220000084,134.25063220000084,134.25063220000084,134.25063220000084,134.25063220000084,134.25063220000084,009,P005,2025_Jan_18_1637,ConditionRich,2021.2.3,59.903770582873534,
104.0,107.75,11,0.75,Stimuli/P005/sun_bjoocjyyhsmsbprr.jpg,1,2,2.75,0,44,44,44,,,,,,,,,,,,,104.02420690000145,0.02420690000144532,4,2.3824066999986826,134.50084870000137,134.50084870000137,134.50084870000137,134.50084870000137,134.50084870000137,134.50084870000137,136.4859233999996,137.23663709999892,134.50084870000137,134.50084870000137,009,P005,2025_Jan_18_1637,ConditionRich,2021.2.3,59.903770582873534,
107.75,108.0,41,0.0,Stimuli/Blank.png,0,0,0.0,0,45,45,45,,,,,,,,,,,,,107.76040220000141,0.010402200001408346,None,,138.23747189999995,138.23747189999995,138.23747189999995,138.23747189999995,138.23747189999995,138.23747189999995,138.23747189999995,138.23747189999995,138.23747189999995,138.23747189999995,009,P005,2025_Jan_18_1637,ConditionRich,2021.2.3,59.903770582873534,
108.0,111.75,24,0.75,Stimuli/P005/things_crab_03s.jpg,1,3,3.75,0,46,46,46,,,,,,,,,,,,,108.01044669999828,0.010446699998283293,4,3.363509899998462,138.4877180000003,138.4877180000003,138.4877180000003,138.4877180000003,138.4877180000003,138.4877180000003,141.47361100000126,142.22427439999956,138.4877180000003,138.4877180000003,009,P005,2025_Jan_18_1637,ConditionRich,2021.2.3,59.903770582873534,
111.75,112.0,41,0.0,Stimuli/Blank.png,0,0,0.0,0,47,47,47,,,,,,,,,,,,,111.76439069999833,0.014390699998330092,5,0.21832789999825764,142.2409938000019,142.2409938000019,142.2409938000019,142.2409938000019,142.2409938000019,142.2409938000019,142.2409938000019,142.2409938000019,142.2409938000019,142.2409938000019,009,P005,2025_Jan_18_1637,ConditionRich,2021.2.3,59.903770582873534,
112.0,115.75,30,0.75,Stimuli/P005/things_hood_03s.jpg,0,0,0.0,0,48,48,48,,,,,,,,,,,,,112.0146653999982,0.014665399998193607,5,1.9678333999981987,142.49121600000217,142.49121600000217,142.49121600000217,142.49121600000217,142.49121600000217,142.49121600000217,142.49121600000217,142.49121600000217,142.49121600000217,142.49121600000217,009,P005,2025_Jan_18_1637,ConditionRich,2021.2.3,59.903770582873534,
115.75,116.0,41,0.0,Stimuli/Blank.png,0,0,0.0,0,49,49,49,,,,,,,,,,,,,115.75085509999917,0.000855099999171216,None,,146.2278351999994,146.2278351999994,146.2278351999994,146.2278351999994,146.2278351999994,146.2278351999994,146.2278351999994,146.2278351999994,146.2278351999994,146.2278351999994,009,P005,2025_Jan_18_1637,ConditionRich,2021.2.3,59.903770582873534,
116.0,119.75,15,0.75,Stimuli/P005/sun_btkzuhaxqlacvmsv.jpg,0,0,0.0,0,50,50,50,,,,,,,,,,,,,116.00253860000157,0.002538600001571467,5,1.9811383000014757,146.478051099999,146.478051099999,146.478051099999,146.478051099999,146.478051099999,146.478051099999,146.478051099999,146.478051099999,146.478051099999,146.478051099999,009,P005,2025_Jan_18_1637,ConditionRich,2021.2.3,59.903770582873534,
119.75,120.0,41,0.0,Stimuli/Blank.png,0,0,0.0,0,51,51,51,,,,,,,,,,,,,119.75436300000001,0.004363000000012107,None,,150.23133199999938,150.23133199999938,150.23133199999938,150.23133199999938,150.23133199999938,150.23133199999938,150.23133199999938,150.23133199999938,150.23133199999938,150.23133199999938,009,P005,2025_Jan_18_1637,ConditionRich,2021.2.3,59.903770582873534,
120.0,123.75,1,0.75,Stimuli/P005/sun_adyhbxohydkpecty.jpg,0,0,0.0,0,52,52,52,,,,,,,,,,,,,120.00482099999863,0.004820999998628395,5,1.977850600000238,150.48154710000017,150.48154710000017,150.48154710000017,150.48154710000017,150.48154710000017,150.48154710000017,150.48154710000017,150.48154710000017,150.48154710000017,150.48154710000017,009,P005,2025_Jan_18_1637,ConditionRich,2021.2.3,59.903770582873534,
123.75,124.0,41,0.0,Stimuli/Blank.png,0,0,0.0,0,53,53,53,,,,,,,,,,,,,123.75815689999945,0.008156899999448797,None,,154.23488530000031,154.23488530000031,154.23488530000031,154.23488530000031,154.23488530000031,154.23488530000031,154.23488530000031,154.23488530000031,154.23488530000031,154.23488530000031,009,P005,2025_Jan_18_1637,ConditionRich,2021.2.3,59.903770582873534,
124.0,127.75,22,0.75,Stimuli/P005/things_baby_03s.jpg,0,0,0.0,0,54,54,54,,,,,,,,,,,,,124.00826009999946,0.00826009999946109,5,1.9739721000005375,154.48507439999958,154.48507439999958,154.48507439999958,154.48507439999958,154.48507439999958,154.48507439999958,154.48507439999958,154.48507439999958,154.48507439999958,154.48507439999958,009,P005,2025_Jan_18_1637,ConditionRich,2021.2.3,59.903770582873534,
127.75,128.0,41,0.0,Stimuli/Blank.png,0,0,0.0,0,55,55,55,,,,,,,,,,,,,127.76383540000097,0.013835400000971276,5,0.20420670000021346,158.25506379999933,158.25506379999933,158.25506379999933,158.25506379999933,158.25506379999933,158.25506379999933,158.25506379999933,158.25506379999933,158.25506379999933,158.25506379999933,009,P005,2025_Jan_18_1637,ConditionRich,2021.2.3,59.903770582873534,
128.0,131.75,9,0.75,Stimuli/P005/sun_bfcmdrojsffdttzu.jpg,0,0,0.0,0,56,56,56,,,,,,,,,,,,,128.02823129999888,0.028231299998878967,5,1.9540221000024758,158.50531469999987,158.50531469999987,158.50531469999987,158.50531469999987,158.50531469999987,158.50531469999987,158.50531469999987,158.50531469999987,158.50531469999987,158.50531469999987,009,P005,2025_Jan_18_1637,ConditionRich,2021.2.3,59.903770582873534,
131.75,132.0,41,0.0,Stimuli/Blank.png,0,0,0.0,0,57,57,57,,,,,,,,,,,,,131.76544060000015,0.015440600000147242,5,0.21706940000149189,162.24195790000158,162.24195790000158,162.24195790000158,162.24195790000158,162.24195790000158,162.24195790000158,162.24195790000158,162.24195790000158,162.24195790000158,162.24195790000158,009,P005,2025_Jan_18_1637,ConditionRich,2021.2.3,59.903770582873534,
132.0,135.75,31,0.75,Stimuli/P005/things_jukebox_03n.jpg,0,0,0.0,0,58,58,58,,,,,,,,,,,,,132.01518589999978,0.015185899999778485,5,1.9668191999990086,162.49214009999923,162.49214009999923,162.49214009999923,162.49214009999923,162.49214009999923,162.49214009999923,162.49214009999923,162.49214009999923,162.49214009999923,162.49214009999923,009,P005,2025_Jan_18_1637,ConditionRich,2021.2.3,59.903770582873534,
135.75,136.0,41,0.0,Stimuli/Blank.png,0,0,0.0,0,59,59,59,,,,,,,,,,,,,135.75414079999973,0.004140799999731826,5,0.21362310000040452,166.24545760000183,166.24545760000183,166.24545760000183,166.24545760000183,166.24545760000183,166.24545760000183,166.24545760000183,166.24545760000183,166.24545760000183,166.24545760000183,009,P005,2025_Jan_18_1637,ConditionRich,2021.2.3,59.903770582873534,
136.0,139.75,21,0.75,Stimuli/P005/things_accordion_03s.jpg,1,0,0.75,0,60,60,60,,,,,,,,,,,,,136.01889070000107,0.018890700001065852,5,1.9633843999981764,166.49565500000244,166.49565500000244,166.49565500000244,166.49565500000244,166.49565500000244,166.49565500000244,166.49565500000244,167.2296494000002,166.49565500000244,166.49565500000244,009,P005,2025_Jan_18_1637,ConditionRich,2021.2.3,59.903770582873534,
139.75,140.0,41,0.0,Stimuli/Blank.png,0,0,0.0,0,61,61,61,,,,,,,,,,,,,139.75585140000112,0.005851400001120055,None,,170.2322905000001,170.2322905000001,170.2322905000001,170.2322905000001,170.2322905000001,170.2322905000001,170.2322905000001,170.2322905000001,170.2322905000001,170.2322905000001,009,P005,2025_Jan_18_1637,ConditionRich,2021.2.3,59.903770582873534,
140.0,143.75,19,0.75,Stimuli/P005/sun_czspalxthlkjwoat.jpg,0,0,0.0,0,62,62,62,,,,,,,,,,,,,140.0061084000008,0.006108400000812253,5,1.9599498999996285,170.49920500000007,170.49920500000007,170.49920500000007,170.49920500000007,170.49920500000007,170.49920500000007,170.49920500000007,170.49920500000007,170.49920500000007,170.49920500000007,009,P005,2025_Jan_18_1637,ConditionRich,2021.2.3,59.903770582873534,
143.75,144.0,41,0.0,Stimuli/Blank.png,0,0,0.0,0,63,63,63,,,,,,,,,,,,,143.7758732000002,0.025873200000205543,None,,174.25250040000174,174.25250040000174,174.25250040000174,174.25250040000174,174.25250040000174,174.25250040000174,174.25250040000174,174.25250040000174,174.25250040000174,174.25250040000174,009,P005,2025_Jan_18_1637,ConditionRich,2021.2.3,59.903770582873534,
144.0,147.75,3,0.75,Stimuli/P005/sun_asyidwmnobuawmax.jpg,0,0,0.0,0,64,64,64,,,,,,,,,,,,,144.0092126999989,0.009212699998897733,5,1.9729608000016015,174.48604179999893,174.48604179999893,174.48604179999893,174.48604179999893,174.48604179999893,174.48604179999893,174.48604179999893,174.48604179999893,174.48604179999893,174.48604179999893,009,P005,2025_Jan_18_1637,ConditionRich,2021.2.3,59.903770582873534,
147.75,148.0,41,0.0,Stimuli/Blank.png,0,0,0.0,0,65,65,65,,,,,,,,,,,,,147.7642956999989,0.014295699998911005,5,0.20320360000187065,178.2560422000024,178.2560422000024,178.2560422000024,178.2560422000024,178.2560422000024,178.2560422000024,178.2560422000024,178.2560422000024,178.2560422000024,178.2560422000024,009,P005,2025_Jan_18_1637,ConditionRich,2021.2.3,59.903770582873534,
148.0,151.75,26,0.75,Stimuli/P005/things_face_03s.jpg,0,0,0.0,0,66,66,66,,,,,,,,,,,,,148.02962729999854,0.029627299998537637,5,1.9529732000009972,178.50624049999897,178.50624049999897,178.50624049999897,178.50624049999897,178.50624049999897,178.50624049999897,178.50624049999897,178.50624049999897,178.50624049999897,178.50624049999897,009,P005,2025_Jan_18_1637,ConditionRich,2021.2.3,59.903770582873534,
151.75,152.0,41,0.0,Stimuli/Blank.png,0,0,0.0,0,67,67,67,,,,,,,,,,,,,151.74966180000047,-0.00033819999953266233,None,,182.22618000000148,182.22618000000148,182.22618000000148,182.22618000000148,182.22618000000148,182.22618000000148,182.22618000000148,182.22618000000148,182.22618000000148,182.22618000000148,009,P005,2025_Jan_18_1637,ConditionRich,2021.2.3,59.903770582873534,
152.0,155.75,27,0.75,Stimuli/P005/things_first-aid_kit_03s.jpg,0,0,0.0,0,68,68,68,,,,,,,,,,,,,151.99982079999972,-0.00017920000027515925,5,1.9825433000005432,182.476405100002,182.476405100002,182.476405100002,182.476405100002,182.476405100002,182.476405100002,182.476405100002,182.476405100002,182.476405100002,182.476405100002,009,P005,2025_Jan_18_1637,ConditionRich,2021.2.3,59.903770582873534,
155.75,156.0,41,0.0,Stimuli/Blank.png,0,0,0.0,0,69,69,69,,,,,,,,,,,,,155.7531334000014,0.003133400001388509,None,,186.22970260000147,186.22970260000147,186.22970260000147,186.22970260000147,186.22970260000147,186.22970260000147,186.22970260000147,186.22970260000147,186.22970260000147,186.22970260000147,009,P005,2025_Jan_18_1637,ConditionRich,2021.2.3,59.903770582873534,
156.0,159.75,38,0.75,Stimuli/P005/things_sledgehammer_03s.jpg,0,0,0.0,0,70,70,70,,,,,,,,,,,,,156.00404310000158,0.004043100001581479,5,1.9622773999981291,186.4966385000007,186.4966385000007,186.4966385000007,186.4966385000007,186.4966385000007,186.4966385000007,186.4966385000007,186.4966385000007,186.4966385000007,186.4966385000007,009,P005,2025_Jan_18_1637,ConditionRich,2021.2.3,59.903770582873534,
159.75,160.0,41,0.0,Stimuli/Blank.png,0,0,0.0,0,71,71,71,,,,,,,,,,,,,159.77354019999984,0.023540199999843026,None,,190.24991800000134,190.24991800000134,190.24991800000134,190.24991800000134,190.24991800000134,190.24991800000134,190.24991800000134,190.24991800000134,190.24991800000134,190.24991800000134,009,P005,2025_Jan_18_1637,ConditionRich,2021.2.3,59.903770582873534,
160.0,163.75,2,0.75,Stimuli/P005/sun_ahmycohdkioefoxs.jpg,0,0,0.0,0,72,72,72,,,,,,,,,,,,,160.00887420000072,0.008874200000718702,5,1.9589276000006066,190.50013039999976,190.50013039999976,190.50013039999976,190.50013039999976,190.50013039999976,190.50013039999976,190.50013039999976,190.50013039999976,190.50013039999976,190.50013039999976,009,P005,2025_Jan_18_1637,ConditionRich,2021.2.3,59.903770582873534,
163.75,164.0,41,0.0,Stimuli/Blank.png,0,0,0.0,0,73,73,73,,,,,,,,,,,,,163.7790324000016,0.029032400001597125,5,0.18867950000276323,194.27012240000113,194.27012240000113,194.27012240000113,194.27012240000113,194.27012240000113,194.27012240000113,194.27012240000113,194.27012240000113,194.27012240000113,194.27012240000113,009,P005,2025_Jan_18_1637,ConditionRich,2021.2.3,59.903770582873534,
164.0,167.75,20,0.75,Stimuli/P005/sun_dvxuxzytfdbjyzit.jpg,1,1,1.75,0,74,74,74,,,,,,,,,,,,,164.0272303999991,0.027230399999098154,5,1.9552215999974578,194.50365410000086,194.50365410000086,194.50365410000086,194.50365410000086,194.50365410000086,194.50365410000086,195.50510120000035,196.23854729999948,194.50365410000086,194.50365410000086,009,P005,2025_Jan_18_1637,ConditionRich,2021.2.3,59.903770582873534,
167.75,168.0,41,0.0,Stimuli/Blank.png,0,0,0.0,0,75,75,75,,,,,,,,,,,,,167.7643394000006,0.014339400000608293,None,,198.24029340000197,198.24029340000197,198.24029340000197,198.24029340000197,198.24029340000197,198.24029340000197,198.24029340000197,198.24029340000197,198.24029340000197,198.24029340000197,009,P005,2025_Jan_18_1637,ConditionRich,2021.2.3,59.903770582873534,
168.0,171.75,17,0.75,Stimuli/P005/sun_bwsictslfxygpqbp.jpg,0,0,0.0,0,76,76,76,,,,,,,,,,,,,168.01475840000057,0.014758400000573602,5,1.951704899998731,198.50717910000094,198.50717910000094,198.50717910000094,198.50717910000094,198.50717910000094,198.50717910000094,198.50717910000094,198.50717910000094,198.50717910000094,198.50717910000094,009,P005,2025_Jan_18_1637,ConditionRich,2021.2.3,59.903770582873534,
171.75,172.0,41,0.0,Stimuli/Blank.png,0,0,0.0,0,77,77,77,,,,,,,,,,,,,171.76868960000138,0.018689600001380313,5,0.19832229999883566,202.26049310000235,202.26049310000235,202.26049310000235,202.26049310000235,202.26049310000235,202.26049310000235,202.26049310000235,202.26049310000235,202.26049310000235,202.26049310000235,009,P005,2025_Jan_18_1637,ConditionRich,2021.2.3,59.903770582873534,
172.0,175.75,18,0.75,Stimuli/P005/sun_bzqhpcsgzswozfhs.jpg,0,0,0.0,0,78,78,78,,,,,,,,,,,,,172.01891700000124,0.018917000001238193,5,1.9481401000011829,202.51071560000128,202.51071560000128,202.51071560000128,202.51071560000128,202.51071560000128,202.51071560000128,202.51071560000128,202.51071560000128,202.51071560000128,202.51071560000128,009,P005,2025_Jan_18_1637,ConditionRich,2021.2.3,59.903770582873534,
175.75,176.0,41,0.0,Stimuli/Blank.png,0,0,0.0,0,79,79,79,,,,,,,,,,,,,175.77006410000104,0.020064100001036422,None,,206.24735620000138,206.24735620000138,206.24735620000138,206.24735620000138,206.24735620000138,206.24735620000138,206.24735620000138,206.24735620000138,206.24735620000138,206.24735620000138,009,P005,2025_Jan_18_1637,ConditionRich,2021.2.3,59.903770582873534,
176.0,179.75,32,0.75,Stimuli/P005/things_jumpsuit_03s.jpg,0,0,0.0,0,80,80,80,,,,,,,,,,,,,176.00500939999984,0.005009399999835296,5,1.9612721000012243,206.49756780000098,206.49756780000098,206.49756780000098,206.49756780000098,206.49756780000098,206.49756780000098,206.49756780000098,206.49756780000098,206.49756780000098,206.49756780000098,009,P005,2025_Jan_18_1637,ConditionRich,2021.2.3,59.903770582873534,
179.75,180.0,41,0.0,Stimuli/Blank.png,0,0,0.0,0,81,81,81,,,,,,,,,,,,,179.7746256999999,0.02462569999988773,None,,210.25086600000213,210.25086600000213,210.25086600000213,210.25086600000213,210.25086600000213,210.25086600000213,210.25086600000213,210.25086600000213,210.25086600000213,210.25086600000213,009,P005,2025_Jan_18_1637,ConditionRich,2021.2.3,59.903770582873534,
180.0,196.0,0,0.0,Stimuli/Blank.png,1,8,8.75,0,82,82,82,,,,,,,,,,,,,180.00812099999894,0.008120999998936895,5,13.97431829999914,210.48440649999975,210.48440649999975,210.48440649999975,210.48440649999975,210.48440649999975,210.48440649999975,218.4747634000014,219.2254916999991,210.48440649999975,210.48440649999975,009,P005,2025_Jan_18_1637,ConditionRich,2021.2.3,59.903770582873534,
196.0,199.75,35,0.75,Stimuli/P005/things_pig_03s.jpg,1,0,0.75,0,83,83,83,,,,,,,,,,,,,196.00466790000064,0.004667900000640657,5,1.9771215000000666,226.48180449999927,226.48180449999927,226.48180449999927,226.48180449999927,226.48180449999927,226.48180449999927,226.48180449999927,227.21578620000219,226.48180449999927,226.48180449999927,009,P005,2025_Jan_18_1637,ConditionRich,2021.2.3,59.903770582873534,
199.75,200.0,41,0.0,Stimuli/Blank.png,0,0,0.0,0,84,84,84,,,,,,,,,,,,,199.75920970000152,0.009209700001520105,None,,230.23511490000237,230.23511490000237,230.23511490000237,230.23511490000237,230.23511490000237,230.23511490000237,230.23511490000237,230.23511490000237,230.23511490000237,230.23511490000237,009,P005,2025_Jan_18_1637,ConditionRich,2021.2.3,59.903770582873534,
200.0,203.75,13,0.75,Stimuli/P005/sun_bruphbrfsbxowtlq.jpg,1,0,0.75,0,85,85,85,,,,,,,,,,,,,200.0090627999998,0.009062799999810522,5,1.9734590000007302,230.48533410000164,230.48533410000164,230.48533410000164,230.48533410000164,230.48533410000164,230.48533410000164,230.48533410000164,231.21933870000066,230.48533410000164,230.48533410000164,009,P005,2025_Jan_18_1637,ConditionRich,2021.2.3,59.903770582873534,
203.75,204.0,41,0.0,Stimuli/Blank.png,0,0,0.0,0,86,86,86,,,,,,,,,,,,,203.7620855999994,0.012085599999409169,None,,234.2386406000005,234.2386406000005,234.2386406000005,234.2386406000005,234.2386406000005,234.2386406000005,234.2386406000005,234.2386406000005,234.2386406000005,234.2386406000005,009,P005,2025_Jan_18_1637,ConditionRich,2021.2.3,59.903770582873534,
204.0,207.75,38,0.75,Stimuli/P005/things_sledgehammer_03s.jpg,0,0,0.0,0,87,87,87,,,,,,,,,,,,,204.01213479999933,0.012134799999330426,5,1.9701402999999118,234.48885320000045,234.48885320000045,234.48885320000045,234.48885320000045,234.48885320000045,234.48885320000045,234.48885320000045,234.48885320000045,234.48885320000045,234.48885320000045,009,P005,2025_Jan_18_1637,ConditionRich,2021.2.3,59.903770582873534,
207.75,208.0,41,0.0,Stimuli/Blank.png,0,0,0.0,0,88,88,88,,,,,,,,,,,,,207.76554609999948,0.015546099999482976,5,0.21655620000092313,238.24227840000094,238.24227840000094,238.24227840000094,238.24227840000094,238.24227840000094,238.24227840000094,238.24227840000094,238.24227840000094,238.24227840000094,238.24227840000094,009,P005,2025_Jan_18_1637,ConditionRich,2021.2.3,59.903770582873534,
208.0,211.75,8,0.75,Stimuli/P005/sun_bekkgqphzbclwpvb.jpg,0,0,0.0,0,89,89,89,,,,,,,,,,,,,208.0158564000012,0.015856400001212023,5,1.949606300000596,238.50908100000015,238.50908100000015,238.50908100000015,238.50908100000015,238.50908100000015,238.50908100000015,238.50908100000015,238.50908100000015,238.50908100000015,238.50908100000015,009,P005,2025_Jan_18_1637,ConditionRich,2021.2.3,59.903770582873534,
211.75,212.0,41,0.0,Stimuli/Blank.png,0,0,0.0,0,90,90,90,,,,,,,,,,,,,211.76909539999906,0.019095399999059737,None,,242.24568020000152,242.24568020000152,242.24568020000152,242.24568020000152,242.24568020000152,242.24568020000152,242.24568020000152,242.24568020000152,242.24568020000152,242.24568020000152,009,P005,2025_Jan_18_1637,ConditionRich,2021.2.3,59.903770582873534,
212.0,215.75,23,0.75,Stimuli/P005/things_beetle_03s.jpg,1,3,3.75,0,91,91,91,,,,,,,,,,,,,212.00478079999812,0.004780799998115981,4,3.389814699999988,242.4959075000006,242.4959075000006,242.4959075000006,242.4959075000006,242.4959075000006,242.4959075000006,245.48185469999953,246.23252240000147,242.4959075000006,242.4959075000006,009,P005,2025_Jan_18_1637,ConditionRich,2021.2.3,59.903770582873534,
215.75,216.0,41,0.0,Stimuli/Blank.png,0,0,0.0,0,92,92,92,,,,,,,,,,,,,215.77401140000075,0.024011400000745198,5,0.1929835999981151,246.26588700000138,246.26588700000138,246.26588700000138,246.26588700000138,246.26588700000138,246.26588700000138,246.26588700000138,246.26588700000138,246.26588700000138,246.26588700000138,009,P005,2025_Jan_18_1637,ConditionRich,2021.2.3,59.903770582873534,
216.0,219.75,36,0.75,Stimuli/P005/things_pony_03s.jpg,0,0,0.0,0,93,93,93,,,,,,,,,,,,,216.02286710000044,0.022867100000439677,5,1.9425751999988279,246.51610979999896,246.51610979999896,246.51610979999896,246.51610979999896,246.51610979999896,246.51610979999896,246.51610979999896,246.51610979999896,246.51610979999896,246.51610979999896,009,P005,2025_Jan_18_1637,ConditionRich,2021.2.3,59.903770582873534,
219.75,220.0,41,0.0,Stimuli/Blank.png,0,0,0.0,0,94,94,94,,,,,,,,,,,,,219.77594699999827,0.02594699999826844,None,,250.25274200000058,250.25274200000058,250.25274200000058,250.25274200000058,250.25274200000058,250.25274200000058,250.25274200000058,250.25274200000058,250.25274200000058,250.25274200000058,009,P005,2025_Jan_18_1637,ConditionRich,2021.2.3,59.903770582873534,
220.0,223.75,40,0.75,Stimuli/P005/things_woman_03s.jpg,0,0,0.0,0,95,95,95,,,,,,,,,,,,,220.00946079999994,0.009460799999942537,5,1.97344510000039,250.48626069999955,250.48626069999955,250.48626069999955,250.48626069999955,250.48626069999955,250.48626069999955,250.48626069999955,250.48626069999955,250.48626069999955,250.48626069999955,009,P005,2025_Jan_18_1637,ConditionRich,2021.2.3,59.903770582873534,
223.75,224.0,41,0.0,Stimuli/Blank.png,0,0,0.0,0,96,96,96,,,,,,,,,,,,,223.76290119999976,0.012901199999760138,None,,254.23957829999927,254.23957829999927,254.23957829999927,254.23957829999927,254.23957829999927,254.23957829999927,254.23957829999927,254.23957829999927,254.23957829999927,254.23957829999927,009,P005,2025_Jan_18_1637,ConditionRich,2021.2.3,59.903770582873534,
224.0,227.75,7,0.75,Stimuli/P005/sun_bdmdlkpsznknrcqi.jpg,0,0,0.0,0,97,97,97,,,,,,,,,,,,,224.01319220000005,0.013192200000048615,5,1.953260300000693,254.5064803000023,254.5064803000023,254.5064803000023,254.5064803000023,254.5064803000023,254.5064803000023,254.5064803000023,254.5064803000023,254.5064803000023,254.5064803000023,009,P005,2025_Jan_18_1637,ConditionRich,2021.2.3,59.903770582873534,
227.75,228.0,41,0.0,Stimuli/Blank.png,0,0,0.0,0,98,98,98,,,,,,,,,,,,,227.76839409999957,0.018394099999568425,5,0.19948269999804324,258.26026130000173,258.26026130000173,258.26026130000173,258.26026130000173,258.26026130000173,258.26026130000173,258.26026130000173,258.26026130000173,258.26026130000173,258.26026130000173,009,P005,2025_Jan_18_1637,ConditionRich,2021.2.3,59.903770582873534,
228.0,231.75,17,0.75,Stimuli/P005/sun_bwsictslfxygpqbp.jpg,1,3,3.75,0,99,99,99,,,,,,,,,,,,,228.0159867000002,0.015986700000212295,4,3.369608299999527,258.5100014999989,258.5100014999989,258.5100014999989,258.5100014999989,258.5100014999989,258.5100014999989,261.4792985999993,262.2299447000005,258.5100014999989,258.5100014999989,009,P005,2025_Jan_18_1637,ConditionRich,2021.2.3,59.903770582873534,
231.75,232.0,41,0.0,Stimuli/Blank.png,0,0,0.0,0,100,100,100,,,,,,,,,,,,,231.76973839999846,0.0197383999984595,None,,262.24662549999994,262.24662549999994,262.24662549999994,262.24662549999994,262.24662549999994,262.24662549999994,262.24662549999994,262.24662549999994,262.24662549999994,262.24662549999994,009,P005,2025_Jan_18_1637,ConditionRich,2021.2.3,59.903770582873534,
232.0,235.75,25,0.75,Stimuli/P005/things_dog_03s.jpg,0,0,0.0,0,101,101,101,,,,,,,,,,,,,232.00295149999874,0.0029514999987441115,5,1.9794585999989067,262.4801589000017,262.4801589000017,262.4801589000017,262.4801589000017,262.4801589000017,262.4801589000017,262.4801589000017,262.4801589000017,262.4801589000017,262.4801589000017,009,P005,2025_Jan_18_1637,ConditionRich,2021.2.3,59.903770582873534,
235.75,236.0,41,0.0,Stimuli/Blank.png,0,0,0.0,0,102,102,102,,,,,,,,,,,,,235.75884999999835,0.008849999998346902,5,0.20965979999891715,266.2501598000017,266.2501598000017,266.2501598000017,266.2501598000017,266.2501598000017,266.2501598000017,266.2501598000017,266.2501598000017,266.2501598000017,266.2501598000017,009,P005,2025_Jan_18_1637,ConditionRich,2021.2.3,59.903770582873534,
236.0,239.75,34,0.75,Stimuli/P005/things_patty_03s.jpg,0,0,0.0,0,103,103,103,,,,,,,,,,,,,236.02437980000104,0.024379800001042895,5,1.9427056000022276,266.5170767000018,266.5170767000018,266.5170767000018,266.5170767000018,266.5170767000018,266.5170767000018,266.5170767000018,266.5170767000018,266.5170767000018,266.5170767000018,009,P005,2025_Jan_18_1637,ConditionRich,2021.2.3,59.903770582873534,
239.75,240.0,41,0.0,Stimuli/Blank.png,0,0,0.0,0,104,104,104,,,,,,,,,,,,,239.7790281000016,0.029028100001596613,5,0.18928419999792823,270.2703696999997,270.2703696999997,270.2703696999997,270.2703696999997,270.2703696999997,270.2703696999997,270.2703696999997,270.2703696999997,270.2703696999997,270.2703696999997,009,P005,2025_Jan_18_1637,ConditionRich,2021.2.3,59.903770582873534,
240.0,243.75,29,0.75,Stimuli/P005/things_guillotine_03s.jpg,0,0,0.0,0,105,105,105,,,,,,,,,,,,,240.02779100000043,0.027791000000433996,5,1.9390227000003506,270.5205704,270.5205704,270.5205704,270.5205704,270.5205704,270.5205704,270.5205704,270.5205704,270.5205704,270.5205704,009,P005,2025_Jan_18_1637,ConditionRich,2021.2.3,59.903770582873534,
243.75,244.0,41,0.0,Stimuli/Blank.png,0,0,0.0,0,106,106,106,,,,,,,,,,,,,243.78025010000056,0.030250100000557723,None,,274.25719500000196,274.25719500000196,274.25719500000196,274.25719500000196,274.25719500000196,274.25719500000196,274.25719500000196,274.25719500000196,274.25719500000196,274.25719500000196,009,P005,2025_Jan_18_1637,ConditionRich,2021.2.3,59.903770582873534,
244.0,247.75,27,0.75,Stimuli/P005/things_first-aid_kit_03s.jpg,0,0,0.0,0,107,107,107,,,,,,,,,,,,,244.0149022000005,0.014902200000506127,5,1.9688819000002695,274.4907295000012,274.4907295000012,274.4907295000012,274.4907295000012,274.4907295000012,274.4907295000012,274.4907295000012,274.4907295000012,274.4907295000012,274.4907295000012,009,P005,2025_Jan_18_1637,ConditionRich,2021.2.3,59.903770582873534,
247.75,248.0,41,0.0,Stimuli/Blank.png,0,0,0.0,0,108,108,108,,,,,,,,,,,,,247.75077239999882,0.000772399998822948,None,,278.2273282999995,278.2273282999995,278.2273282999995,278.2273282999995,278.2273282999995,278.2273282999995,278.2273282999995,278.2273282999995,278.2273282999995,278.2273282999995,009,P005,2025_Jan_18_1637,ConditionRich,2021.2.3,59.903770582873534,
248.0,251.75,21,0.75,Stimuli/P005/things_accordion_03s.jpg,0,0,0.0,0,109,109,109,,,,,,,,,,,,,248.0009895000003,0.0009895000002870802,5,1.9821264000020165,278.4775746000014,278.4775746000014,278.4775746000014,278.4775746000014,278.4775746000014,278.4775746000014,278.4775746000014,278.4775746000014,278.4775746000014,278.4775746000014,009,P005,2025_Jan_18_1637,ConditionRich,2021.2.3,59.903770582873534,
251.75,252.0,41,0.0,Stimuli/Blank.png,0,0,0.0,0,110,110,110,,,,,,,,,,,,,251.7551268999996,0.00512689999959548,5,0.21197070000198437,282.247589300001,282.247589300001,282.247589300001,282.247589300001,282.247589300001,282.247589300001,282.247589300001,282.247589300001,282.247589300001,282.247589300001,009,P005,2025_Jan_18_1637,ConditionRich,2021.2.3,59.903770582873534,
252.0,255.75,28,0.75,Stimuli/P005/things_girl_03s.jpg,0,0,0.0,0,111,111,111,,,,,,,,,,,,,252.02082860000155,0.020828600001550512,5,1.9619440999995277,282.49778570000126,282.49778570000126,282.49778570000126,282.49778570000126,282.49778570000126,282.49778570000126,282.49778570000126,282.49778570000126,282.49778570000126,282.49778570000126,009,P005,2025_Jan_18_1637,ConditionRich,2021.2.3,59.903770582873534,
255.75,256.0,41,0.0,Stimuli/Blank.png,0,0,0.0,0,112,112,112,,,,,,,,,,,,,255.75771449999957,0.007714499999565305,None,,286.2343991000016,286.2343991000016,286.2343991000016,286.2343991000016,286.2343991000016,286.2343991000016,286.2343991000016,286.2343991000016,286.2343991000016,286.2343991000016,009,P005,2025_Jan_18_1637,ConditionRich,2021.2.3,59.903770582873534,
256.0,259.75,22,0.75,Stimuli/P005/things_baby_03s.jpg,1,2,2.75,0,113,113,113,,,,,,,,,,,,,256.00817280000047,0.00817280000046594,4,2.261888299999555,286.48462239999935,286.48462239999935,286.48462239999935,286.48462239999935,286.48462239999935,286.48462239999935,288.46970200000214,289.22035640000104,286.48462239999935,286.48462239999935,009,P005,2025_Jan_18_1637,ConditionRich,2021.2.3,59.903770582873534,
259.75,260.0,41,0.0,Stimuli/Blank.png,0,0,0.0,0,114,114,114,,,,,,,,,,,,,259.76329199999964,0.013291999999637483,5,0.20517710000058287,290.25461890000224,290.25461890000224,290.25461890000224,290.25461890000224,290.25461890000224,290.25461890000224,290.25461890000224,290.25461890000224,290.25461890000224,290.25461890000224,009,P005,2025_Jan_18_1637,ConditionRich,2021.2.3,59.903770582873534,
260.0,263.75,6,0.75,Stimuli/P005/sun_bbzkhzmxdjrfjpjz.jpg,0,0,0.0,0,115,115,115,,,,,,,,,,,,,260.0297238999992,0.029723899999225978,5,1.938295100000687,290.5215191000025,290.5215191000025,290.5215191000025,290.5215191000025,290.5215191000025,290.5215191000025,290.5215191000025,290.5215191000025,290.5215191000025,290.5215191000025,009,P005,2025_Jan_18_1637,ConditionRich,2021.2.3,59.903770582873534,
263.75,264.0,41,0.0,Stimuli/Blank.png,0,0,0.0,0,116,116,116,,,,,,,,,,,,,263.7647223999993,0.01472239999930025,5,0.21815730000162148,294.24144739999974,294.24144739999974,294.24144739999974,294.24144739999974,294.24144739999974,294.24144739999974,294.24144739999974,294.24144739999974,294.24144739999974,294.24144739999974,009,P005,2025_Jan_18_1637,ConditionRich,2021.2.3,59.903770582873534,
264.0,267.75,14,0.75,Stimuli/P005/sun_bsirencncgxteejx.jpg,0,0,0.0,0,117,117,117,,,,,,,,,,,,,264.01490339999873,0.014903399998729583,5,1.9678644000014174,294.4916718000022,294.4916718000022,294.4916718000022,294.4916718000022,294.4916718000022,294.4916718000022,294.4916718000022,294.4916718000022,294.4916718000022,294.4916718000022,009,P005,2025_Jan_18_1637,ConditionRich,2021.2.3,59.903770582873534,
267.75,268.0,41,0.0,Stimuli/Blank.png,0,0,0.0,0,118,118,118,,,,,,,,,,,,,267.7534646999993,0.00346469999931287,5,0.21457819999704952,298.2449783000011,298.2449783000011,298.2449783000011,298.2449783000011,298.2449783000011,298.2449783000011,298.2449783000011,298.2449783000011,298.2449783000011,298.2449783000011,009,P005,2025_Jan_18_1637,ConditionRich,2021.2.3,59.903770582873534,
268.0,271.75,10,0.75,Stimuli/P005/sun_bgnxbfhmwhliypvg.jpg,0,0,0.0,0,119,119,119,,,,,,,,,,,,,268.0190967999988,0.01909679999880609,5,1.9476719000012963,298.5118704000015,298.5118704000015,298.5118704000015,298.5118704000015,298.5118704000015,298.5118704000015,298.5118704000015,298.5118704000015,298.5118704000015,298.5118704000015,009,P005,2025_Jan_18_1637,ConditionRich,2021.2.3,59.903770582873534,
271.75,272.0,41,0.0,Stimuli/Blank.png,0,0,0.0,0,120,120,120,,,,,,,,,,,,,271.77425829999993,0.024258299999928568,5,0.1928537999992841,302.2666601000019,302.2666601000019,302.2666601000019,302.2666601000019,302.2666601000019,302.2666601000019,302.2666601000019,302.2666601000019,302.2666601000019,302.2666601000019,009,P005,2025_Jan_18_1637,ConditionRich,2021.2.3,59.903770582873534,
272.0,275.75,33,0.75,Stimuli/P005/things_man_03s.jpg,0,0,0.0,0,121,121,121,,,,,,,,,,,,,272.0245270999985,0.024527099998522317,5,1.9442520000011427,302.515403100002,302.515403100002,302.515403100002,302.515403100002,302.515403100002,302.515403100002,302.515403100002,302.515403100002,302.515403100002,302.515403100002,009,P005,2025_Jan_18_1637,ConditionRich,2021.2.3,59.903770582873534,
275.75,276.0,41,0.0,Stimuli/Blank.png,0,0,0.0,0,122,122,122,,,,,,,,,,,,,275.7753905999998,0.025390599999809638,None,,306.25201930000185,306.25201930000185,306.25201930000185,306.25201930000185,306.25201930000185,306.25201930000185,306.25201930000185,306.25201930000185,306.25201930000185,306.25201930000185,009,P005,2025_Jan_18_1637,ConditionRich,2021.2.3,59.903770582873534,
276.0,292.0,0,0.0,Stimuli/Blank.png,1,9,9.75,0,123,123,123,,,,,,,,,,,,,276.0096846000015,0.009684600001492072,5,15.957330100001855,306.5022506000023,306.5022506000023,306.5022506000023,306.5022506000023,306.5022506000023,306.5022506000023,315.47684500000105,316.22750409999935,306.5022506000023,306.5022506000023,009,P005,2025_Jan_18_1637,ConditionRich,2021.2.3,59.903770582873534,
292.0,295.75,39,0.75,Stimuli/P005/things_train_set_03s.jpg,0,0,0.0,0,124,124,124,,,,,,,,,,,,,292.0239518999988,0.023951899998792214,5,1.9430256000014197,322.51634399999966,322.51634399999966,322.51634399999966,322.51634399999966,322.51634399999966,322.51634399999966,322.51634399999966,322.51634399999966,322.51634399999966,322.51634399999966,009,P005,2025_Jan_18_1637,ConditionRich,2021.2.3,59.903770582873534,
295.75,296.0,41,0.0,Stimuli/Blank.png,0,0,0.0,0,125,125,125,,,,,,,,,,,,,295.77658130000054,0.026581300000543706,None,,326.2529746,326.2529746,326.2529746,326.2529746,326.2529746,326.2529746,326.2529746,326.2529746,326.2529746,326.2529746,009,P005,2025_Jan_18_1637,ConditionRich,2021.2.3,59.903770582873534,
296.0,299.75,12,0.75,Stimuli/P005/sun_bodyuiqwqpqzwfoz.jpg,0,0,0.0,0,126,126,126,,,,,,,,,,,,,296.01046199999837,0.01046199999836972,5,1.9564978000016708,326.50318440000046,326.50318440000046,326.50318440000046,326.50318440000046,326.50318440000046,326.50318440000046,326.50318440000046,326.50318440000046,326.50318440000046,326.50318440000046,009,P005,2025_Jan_18_1637,ConditionRich,2021.2.3,59.903770582873534,
299.75,300.0,41,0.0,Stimuli/Blank.png,0,0,0.0,0,127,127,127,,,,,,,,,,,,,299.7800105999995,0.030010599999513943,None,,330.25651629999993,330.25651629999993,330.25651629999993,330.25651629999993,330.25651629999993,330.25651629999993,330.25651629999993,330.25651629999993,330.25651629999993,330.25651629999993,009,P005,2025_Jan_18_1637,ConditionRich,2021.2.3,59.903770582873534,
300.0,303.75,18,0.75,Stimuli/P005/sun_bzqhpcsgzswozfhs.jpg,0,0,0.0,0,128,128,128,,,,,,,,,,,,,300.0139065000003,0.013906500000302913,5,1.9526755000006233,330.50672029999987,330.50672029999987,330.50672029999987,330.50672029999987,330.50672029999987,330.50672029999987,330.50672029999987,330.50672029999987,330.50672029999987,330.50672029999987,009,P005,2025_Jan_18_1637,ConditionRich,2021.2.3,59.903770582873534,
303.75,304.0,41,0.0,Stimuli/Blank.png,0,0,0.0,0,129,129,129,,,,,,,,,,,,,303.76758189999964,0.017581899999640882,None,,334.2433452000005,334.2433452000005,334.2433452000005,334.2433452000005,334.2433452000005,334.2433452000005,334.2433452000005,334.2433452000005,334.2433452000005,334.2433452000005,009,P005,2025_Jan_18_1637,ConditionRich,2021.2.3,59.903770582873534,
304.0,307.75,24,0.75,Stimuli/P005/things_crab_03s.jpg,0,0,0.0,0,130,130,130,,,,,,,,,,,,,304.0002429999986,0.00024299999859067611,5,1.9657804999988002,334.49358389999907,334.49358389999907,334.49358389999907,334.49358389999907,334.49358389999907,334.49358389999907,334.49358389999907,334.49358389999907,334.49358389999907,334.49358389999907,009,P005,2025_Jan_18_1637,ConditionRich,2021.2.3,59.903770582873534,
307.75,308.0,41,0.0,Stimuli/Blank.png,0,0,0.0,0,131,131,131,,,,,,,,,,,,,307.77050020000024,0.02050020000024233,None,,338.24775099999897,338.24775099999897,338.24775099999897,338.24775099999897,338.24775099999897,338.24775099999897,338.24775099999897,338.24775099999897,338.24775099999897,338.24775099999897,009,P005,2025_Jan_18_1637,ConditionRich,2021.2.3,59.903770582873534,
308.0,311.75,20,0.75,Stimuli/P005/sun_dvxuxzytfdbjyzit.jpg,0,0,0.0,0,132,132,132,,,,,,,,,,,,,308.0037201999985,0.0037201999984972645,5,1.978796899998997,338.4805325000016,338.4805325000016,338.4805325000016,338.4805325000016,338.4805325000016,338.4805325000016,338.4805325000016,338.4805325000016,338.4805325000016,338.4805325000016,009,P005,2025_Jan_18_1637,ConditionRich,2021.2.3,59.903770582873534,
311.75,312.0,41,0.0,Stimuli/Blank.png,0,0,0.0,0,133,133,133,,,,,,,,,,,,,311.7567182999992,0.006718299999192823,None,,342.2336925999989,342.2336925999989,342.2336925999989,342.2336925999989,342.2336925999989,342.2336925999989,342.2336925999989,342.2336925999989,342.2336925999989,342.2336925999989,009,P005,2025_Jan_18_1637,ConditionRich,2021.2.3,59.903770582873534,
312.0,315.75,19,0.75,Stimuli/P005/sun_czspalxthlkjwoat.jpg,0,0,0.0,0,134,134,134,,,,,,,,,,,,,312.00903050000124,0.009030500001244945,5,1.9587098000010883,342.50059659999897,342.50059659999897,342.50059659999897,342.50059659999897,342.50059659999897,342.50059659999897,342.50059659999897,342.50059659999897,342.50059659999897,342.50059659999897,009,P005,2025_Jan_18_1637,ConditionRich,2021.2.3,59.903770582873534,
315.75,316.0,41,0.0,Stimuli/Blank.png,0,0,0.0,0,135,135,135,,,,,,,,,,,,,315.77670959999887,0.026709599998866906,None,,346.25394959999903,346.25394959999903,346.25394959999903,346.25394959999903,346.25394959999903,346.25394959999903,346.25394959999903,346.25394959999903,346.25394959999903,346.25394959999903,009,P005,2025_Jan_18_1637,ConditionRich,2021.2.3,59.903770582873534,
316.0,319.75,30,0.75,Stimuli/P005/things_hood_03s.jpg,0,0,0.0,0,136,136,136,,,,,,,,,,,,,316.01049280000007,0.010492800000065472,5,1.9554325000026438,346.50415090000024,346.50415090000024,346.50415090000024,346.50415090000024,346.50415090000024,346.50415090000024,346.50415090000024,346.50415090000024,346.50415090000024,346.50415090000024,009,P005,2025_Jan_18_1637,ConditionRich,2021.2.3,59.903770582873534,
319.75,320.0,41,0.0,Stimuli/Blank.png,0,0,0.0,0,137,137,137,,,,,,,,,,,,,319.78048000000126,0.030480000001261942,5,0.20187679999799002,350.25747559999945,350.25747559999945,350.25747559999945,350.25747559999945,350.25747559999945,350.25747559999945,350.25747559999945,350.25747559999945,350.25747559999945,350.25747559999945,009,P005,2025_Jan_18_1637,ConditionRich,2021.2.3,59.903770582873534,
320.0,323.75,31,0.75,Stimuli/P005/things_jukebox_03n.jpg,0,0,0.0,0,138,138,138,,,,,,,,,,,,,320.01366190000044,0.013661900000442984,5,1.9683946000004653,350.49096070000087,350.49096070000087,350.49096070000087,350.49096070000087,350.49096070000087,350.49096070000087,350.49096070000087,350.49096070000087,350.49096070000087,350.49096070000087,009,P005,2025_Jan_18_1637,ConditionRich,2021.2.3,59.903770582873534,
323.75,324.0,41,0.0,Stimuli/Blank.png,0,0,0.0,0,139,139,139,,,,,,,,,,,,,323.75037760000123,0.00037760000122943893,None,,354.2275566999997,354.2275566999997,354.2275566999997,354.2275566999997,354.2275566999997,354.2275566999997,354.2275566999997,354.2275566999997,354.2275566999997,354.2275566999997,009,P005,2025_Jan_18_1637,ConditionRich,2021.2.3,59.903770582873534,
324.0,327.75,1,0.75,Stimuli/P005/sun_adyhbxohydkpecty.jpg,0,0,0.0,0,140,140,140,,,,,,,,,,,,,324.00080289999823,0.0008028999982343521,5,1.9647699999986799,354.49448699999994,354.49448699999994,354.49448699999994,354.49448699999994,354.49448699999994,354.49448699999994,354.49448699999994,354.49448699999994,354.49448699999994,354.49448699999994,009,P005,2025_Jan_18_1637,ConditionRich,2021.2.3,59.903770582873534,
327.75,328.0,41,0.0,Stimuli/Blank.png,0,0,0.0,0,141,141,141,,,,,,,,,,,,,327.77143010000145,0.021430100001452956,None,,358.24779359999957,358.24779359999957,358.24779359999957,358.24779359999957,358.24779359999957,358.24779359999957,358.24779359999957,358.24779359999957,358.24779359999957,358.24779359999957,009,P005,2025_Jan_18_1637,ConditionRich,2021.2.3,59.903770582873534,
328.0,331.75,4,0.75,Stimuli/P005/sun_auwghripdoxzluuk.jpg,0,0,0.0,0,142,142,142,,,,,,,,,,,,,328.0043054000016,0.004305400001612725,5,1.9612548000004608,358.4980328999991,358.4980328999991,358.4980328999991,358.4980328999991,358.4980328999991,358.4980328999991,358.4980328999991,358.4980328999991,358.4980328999991,358.4980328999991,009,P005,2025_Jan_18_1637,ConditionRich,2021.2.3,59.903770582873534,
331.75,332.0,41,0.0,Stimuli/Blank.png,0,0,0.0,0,143,143,143,,,,,,,,,,,,,331.7745342999988,0.024534299998776987,None,,362.25130910000007,362.25130910000007,362.25130910000007,362.25130910000007,362.25130910000007,362.25130910000007,362.25130910000007,362.25130910000007,362.25130910000007,362.25130910000007,009,P005,2025_Jan_18_1637,ConditionRich,2021.2.3,59.903770582873534,
332.0,335.75,9,0.75,Stimuli/P005/sun_bfcmdrojsffdttzu.jpg,0,0,0.0,0,144,144,144,,,,,,,,,,,,,332.00776960000076,0.007769600000756327,5,1.9744965999998385,362.48485260000234,362.48485260000234,362.48485260000234,362.48485260000234,362.48485260000234,362.48485260000234,362.48485260000234,362.48485260000234,362.48485260000234,362.48485260000234,009,P005,2025_Jan_18_1637,ConditionRich,2021.2.3,59.903770582873534,
335.75,336.0,41,0.0,Stimuli/Blank.png,0,0,0.0,0,145,145,145,,,,,,,,,,,,,335.763629699999,0.013629699999000877,5,0.2043454999984533,366.25487319999957,366.25487319999957,366.25487319999957,366.25487319999957,366.25487319999957,366.25487319999957,366.25487319999957,366.25487319999957,366.25487319999957,366.25487319999957,009,P005,2025_Jan_18_1637,ConditionRich,2021.2.3,59.903770582873534,
336.0,339.75,32,0.75,Stimuli/P005/things_jumpsuit_03s.jpg,0,0,0.0,0,146,146,146,,,,,,,,,,,,,336.02908110000135,0.029081100001349114,5,1.937830800001393,366.5217429000004,366.5217429000004,366.5217429000004,366.5217429000004,366.5217429000004,366.5217429000004,366.5217429000004,366.5217429000004,366.5217429000004,366.5217429000004,009,P005,2025_Jan_18_1637,ConditionRich,2021.2.3,59.903770582873534,
339.75,340.0,41,0.0,Stimuli/Blank.png,0,0,0.0,0,147,147,147,,,,,,,,,,,,,339.7645870999986,0.0145870999986073,5,0.21761920000062673,370.2416770000018,370.2416770000018,370.2416770000018,370.2416770000018,370.2416770000018,370.2416770000018,370.2416770000018,370.2416770000018,370.2416770000018,370.2416770000018,009,P005,2025_Jan_18_1637,ConditionRich,2021.2.3,59.903770582873534,
340.0,343.75,11,0.75,Stimuli/P005/sun_bjoocjyyhsmsbprr.jpg,1,2,2.75,0,148,148,148,,,,,,,,,,,,,340.01486189999923,0.014861899999232264,4,2.3373803999966185,370.49190850000014,370.49190850000014,370.49190850000014,370.49190850000014,370.49190850000014,370.49190850000014,372.47696540000106,373.227652900001,370.49190850000014,370.49190850000014,009,P005,2025_Jan_18_1637,ConditionRich,2021.2.3,59.903770582873534,
343.75,344.0,41,0.0,Stimuli/Blank.png,0,0,0.0,0,149,149,149,,,,,,,,,,,,,343.7523720999998,0.002372099999774946,None,,374.228466200002,374.228466200002,374.228466200002,374.228466200002,374.228466200002,374.228466200002,374.228466200002,374.228466200002,374.228466200002,374.228466200002,009,P005,2025_Jan_18_1637,ConditionRich,2021.2.3,59.903770582873534,
344.0,347.75,15,0.75,Stimuli/P005/sun_btkzuhaxqlacvmsv.jpg,0,0,0.0,0,150,150,150,,,,,,,,,,,,,344.003519599999,0.0035195999989809934,5,1.9638345999992453,374.49541490000047,374.49541490000047,374.49541490000047,374.49541490000047,374.49541490000047,374.49541490000047,374.49541490000047,374.49541490000047,374.49541490000047,374.49541490000047,009,P005,2025_Jan_18_1637,ConditionRich,2021.2.3,59.903770582873534,
347.75,348.0,41,0.0,Stimuli/Blank.png,0,0,0.0,0,151,151,151,,,,,,,,,,,,,347.7729870000003,0.022987000000284752,None,,378.24904030000107,378.24904030000107,378.24904030000107,378.24904030000107,378.24904030000107,378.24904030000107,378.24904030000107,378.24904030000107,378.24904030000107,378.24904030000107,009,P005,2025_Jan_18_1637,ConditionRich,2021.2.3,59.903770582873534,
348.0,351.75,2,0.75,Stimuli/P005/sun_ahmycohdkioefoxs.jpg,0,0,0.0,0,152,152,152,,,,,,,,,,,,,348.0065652000012,0.006565200001205085,5,1.977167199998803,378.48244049999994,378.48244049999994,378.48244049999994,378.48244049999994,378.48244049999994,378.48244049999994,378.48244049999994,378.48244049999994,378.48244049999994,378.48244049999994,009,P005,2025_Jan_18_1637,ConditionRich,2021.2.3,59.903770582873534,
351.75,352.0,41,0.0,Stimuli/Blank.png,0,0,0.0,0,153,153,153,,,,,,,,,,,,,351.75966999999946,0.009669999999459833,None,,382.2364641999993,382.2364641999993,382.2364641999993,382.2364641999993,382.2364641999993,382.2364641999993,382.2364641999993,382.2364641999993,382.2364641999993,382.2364641999993,009,P005,2025_Jan_18_1637,ConditionRich,2021.2.3,59.903770582873534,
352.0,355.75,37,0.75,Stimuli/P005/things_showerhead_03s.jpg,0,0,0.0,0,154,154,154,,,,,,,,,,,,,352.0098474000006,0.00984740000058082,5,1.972781100001157,382.4864258000016,382.4864258000016,382.4864258000016,382.4864258000016,382.4864258000016,382.4864258000016,382.4864258000016,382.4864258000016,382.4864258000016,382.4864258000016,009,P005,2025_Jan_18_1637,ConditionRich,2021.2.3,59.903770582873534,
355.75,356.0,41,0.0,Stimuli/Blank.png,0,0,0.0,0,155,155,155,,,,,,,,,,,,,355.7634231999982,0.013423199998214841,None,,386.23959350000223,386.23959350000223,386.23959350000223,386.23959350000223,386.23959350000223,386.23959350000223,386.23959350000223,386.23959350000223,386.23959350000223,386.23959350000223,009,P005,2025_Jan_18_1637,ConditionRich,2021.2.3,59.903770582873534,
356.0,359.75,26,0.75,Stimuli/P005/things_face_03s.jpg,0,0,0.0,0,156,156,156,,,,,,,,,,,,,356.0127562000016,0.012756200001604157,5,1.9703991000023962,386.489420599999,386.489420599999,386.489420599999,386.489420599999,386.489420599999,386.489420599999,386.489420599999,386.489420599999,386.489420599999,386.489420599999,009,P005,2025_Jan_18_1637,ConditionRich,2021.2.3,59.903770582873534,
359.75,360.0,41,0.0,Stimuli/Blank.png,0,0,0.0,0,157,157,157,,,,,,,,,,,,,359.7498397999989,-0.0001602000011189375,None,,390.22641010000007,390.22641010000007,390.22641010000007,390.22641010000007,390.22641010000007,390.22641010000007,390.22641010000007,390.22641010000007,390.22641010000007,390.22641010000007,009,P005,2025_Jan_18_1637,ConditionRich,2021.2.3,59.903770582873534,
360.0,363.75,3,0.75,Stimuli/P005/sun_asyidwmnobuawmax.jpg,1,2,2.75,0,158,158,158,,,,,,,,,,,,,360.0006964999993,0.0006964999993215315,4,2.3359707000017806,390.4762105000009,390.4762105000009,390.4762105000009,390.4762105000009,390.4762105000009,390.4762105000009,392.46143420000226,393.2120605000018,390.4762105000009,390.4762105000009,009,P005,2025_Jan_18_1637,ConditionRich,2021.2.3,59.903770582873534,
363.75,364.0,41,0.0,Stimuli/Blank.png,0,0,0.0,0,159,159,159,,,,,,,,,,,,,363.7543154999985,0.004315499998483574,None,,394.22956390000036,394.22956390000036,394.22956390000036,394.22956390000036,394.22956390000036,394.22956390000036,394.22956390000036,394.22956390000036,394.22956390000036,394.22956390000036,009,P005,2025_Jan_18_1637,ConditionRich,2021.2.3,59.903770582873534,
364.0,367.75,5,0.75,Stimuli/P005/sun_axaqdcecfojvpvrl.jpg,1,1,1.75,0,160,160,160,,,,,,,,,,,,,364.0048108999981,0.004810899998119567,5,1.979709899998852,394.47979510000005,394.47979510000005,394.47979510000005,394.47979510000005,394.47979510000005,394.47979510000005,395.48122570000123,396.23177710000164,394.47979510000005,394.47979510000005,009,P005,2025_Jan_18_1637,ConditionRich,2021.2.3,59.903770582873534,
367.75,368.0,41,0.0,Stimuli/Blank.png,0,0,0.0,0,161,161,161,,,,,,,,,,,,,367.75753540000005,0.007535400000051595,None,,398.233658000001,398.233658000001,398.233658000001,398.233658000001,398.233658000001,398.233658000001,398.233658000001,398.233658000001,398.233658000001,398.233658000001,009,P005,2025_Jan_18_1637,ConditionRich,2021.2.3,59.903770582873534,
368.0,371.75,16,0.75,Stimuli/P005/sun_bwentnobehmvaxkp.jpg,1,1,1.75,0,162,162,162,,,,,,,,,,,,,368.00800479999816,0.008004799998161616,5,1.9761143000032462,398.48349919999964,398.48349919999964,398.48349919999964,398.48349919999964,398.48349919999964,398.48349919999964,399.4676743000018,400.2187613999995,398.48349919999964,398.48349919999964,009,P005,2025_Jan_18_1637,ConditionRich,2021.2.3,59.903770582873534,
371.75,372.0,41,0.0,Stimuli/Blank.png,0,0,0.0,0,163,163,163,,,,,,,,,,,,,371.76096659999894,0.010966599998937454,None,,402.2370841000011,402.2370841000011,402.2370841000011,402.2370841000011,402.2370841000011,402.2370841000011,402.2370841000011,402.2370841000011,402.2370841000011,402.2370841000011,009,P005,2025_Jan_18_1637,ConditionRich,2021.2.3,59.903770582873534,
372.0,388.0,0,0.0,Stimuli/Blank.png,1,7,7.75,0,164,164,164,,,,,,,,,,,,,372.0102955000002,0.010295500000211177,5,13.97252540000045,402.4869230000004,402.4869230000004,402.4869230000004,402.4869230000004,402.4869230000004,402.4869230000004,409.47663079999984,410.22739080000247,402.4869230000004,402.4869230000004,009,P005,2025_Jan_18_1637,ConditionRich,2021.2.3,59.903770582873534,
