eventStartTime,eventEndTime,eventCond,imSize,imFile,responseEvent,fixRespStart,fixRespEnd,Events.thisRepN,Events.thisTrialN,Events.thisN,Events.thisIndex,Instructions.started,Instructions.stopped,participantReadyResponse.keys,participantReadyResponse.rt,participantReadyResponse.started,participantReadyResponse.stopped,startWaitforTrigger,triggerResponse.keys,triggerResponse.rt,triggerResponse.started,triggerResponse.stopped,globalTimer,actualStartTime,startTimingDiff,participantResponse.keys,participantResponse.rt,participantResponse.started,participantResponse.stopped,image.started,image.stopped,fixationOutside.started,fixationOutside.stopped,fixationResponse.started,fixationResponse.stopped,fixationInside.started,fixationInside.stopped,session,participant,date,expName,psychopyVersion,frameRate,
,,,,,,,,,,,,14.07049249999909,None,4,25.753717100000358,14.07049249999909,None,,,,,,,,,,,,,,,,,,,,,008,P005,2025_Jan_18_1629,ConditionRich,2021.2.3,60.124337130156285,
,,,,,,,,,,,,,,,,,,39.83085570000185,5,15.852813999998034,39.843321399999695,None,,,,,,,,,,,,,,,,008,P005,2025_Jan_18_1629,ConditionRich,2021.2.3,60.124337130156285,
0.0,4.0,0,0.0,Stimuli/Blank.png,0,0.0,0.0,0,0,0,0,,,,,,,,,,,,55.71123029999944,0.032090700002299855,0.032090700002299855,5,1.9390992000007827,55.757290000001376,None,55.757290000001376,None,55.757290000001376,None,55.757290000001376,55.757290000001376,55.757290000001376,None,008,P005,2025_Jan_18_1629,ConditionRich,2021.2.3,60.124337130156285,
4.0,4.75,15,0.75,Stimuli/P005/sun_btkzuhaxqlacvmsv.jpg,0,0.0,0.0,0,1,1,1,,,,,,,,,,,,,4.003067600002396,0.0030676000023959205,None,,59.744439000001876,59.744439000001876,59.744439000001876,59.744439000001876,59.744439000001876,59.744439000001876,59.744439000001876,59.744439000001876,59.744439000001876,59.744439000001876,008,P005,2025_Jan_18_1629,ConditionRich,2021.2.3,60.124337130156285,
4.75,8.0,41,0.0,Stimuli/Blank.png,1,2.25,3.0,0,2,2,2,,,,,,,,,,,,,4.76901110000108,0.019011100001080194,5,3.200988199998392,60.49502940000093,60.49502940000093,60.49502940000093,60.49502940000093,60.49502940000093,60.49502940000093,62.73006250000253,63.480753700001515,60.49502940000093,60.49502940000093,008,P005,2025_Jan_18_1629,ConditionRich,2021.2.3,60.124337130156285,
8.0,8.75,37,0.75,Stimuli/P005/things_showerhead_03s.jpg,0,0.0,0.0,0,3,3,3,,,,,,,,,,,,,8.005963300001895,0.005963300001894822,None,,63.730969799999,63.730969799999,63.730969799999,63.730969799999,63.730969799999,63.730969799999,63.730969799999,63.730969799999,63.730969799999,63.730969799999,008,P005,2025_Jan_18_1629,ConditionRich,2021.2.3,60.124337130156285,
8.75,12.0,41,0.0,Stimuli/Blank.png,1,1.25,2.0,0,4,4,4,,,,,,,,,,,,,8.756679400001303,0.006679400001303293,5,3.2154274999993504,64.48164259999976,64.48164259999976,64.48164259999976,64.48164259999976,64.48164259999976,64.48164259999976,65.7160666000018,66.46671290000086,64.48164259999976,64.48164259999976,008,P005,2025_Jan_18_1629,ConditionRich,2021.2.3,60.124337130156285,
12.0,12.75,11,0.75,Stimuli/P005/sun_bjoocjyyhsmsbprr.jpg,0,0.0,0.0,0,5,5,5,,,,,,,,,,,,,12.009848599998804,0.009848599998804275,None,,67.7344950000006,67.7344950000006,67.7344950000006,67.7344950000006,67.7344950000006,67.7344950000006,67.7344950000006,67.7344950000006,67.7344950000006,67.7344950000006,008,P005,2025_Jan_18_1629,ConditionRich,2021.2.3,60.124337130156285,
12.75,16.0,41,0.0,Stimuli/Blank.png,0,0.0,0.0,0,6,6,6,,,,,,,,,,,,,12.762214900001709,0.012214900001708884,5,3.1940696999990905,68.50297639999917,68.50297639999917,68.50297639999917,68.50297639999917,68.50297639999917,68.50297639999917,68.50297639999917,68.50297639999917,68.50297639999917,68.50297639999917,008,P005,2025_Jan_18_1629,ConditionRich,2021.2.3,60.124337130156285,
16.0,16.75,13,0.75,Stimuli/P005/sun_bruphbrfsbxowtlq.jpg,0,0.0,0.0,0,7,7,7,,,,,,,,,,,,,16.02892950000023,0.0289295000002312,None,,71.75470359999963,71.75470359999963,71.75470359999963,71.75470359999963,71.75470359999963,71.75470359999963,71.75470359999963,71.75470359999963,71.75470359999963,71.75470359999963,008,P005,2025_Jan_18_1629,ConditionRich,2021.2.3,60.124337130156285,
16.75,20.0,41,0.0,Stimuli/Blank.png,0,0.0,0.0,0,8,8,8,,,,,,,,,,,,,16.76284420000229,0.012844200002291473,5,1.208326500000112,72.48867760000212,72.48867760000212,72.48867760000212,72.48867760000212,72.48867760000212,72.48867760000212,72.48867760000212,72.48867760000212,72.48867760000212,72.48867760000212,008,P005,2025_Jan_18_1629,ConditionRich,2021.2.3,60.124337130156285,
20.0,20.75,24,0.75,Stimuli/P005/things_crab_03s.jpg,0,0.0,0.0,0,9,9,9,,,,,,,,,,,,,19.999056000000564,-0.0009439999994356185,None,,75.7248608000009,75.7248608000009,75.7248608000009,75.7248608000009,75.7248608000009,75.7248608000009,75.7248608000009,75.7248608000009,75.7248608000009,75.7248608000009,008,P005,2025_Jan_18_1629,ConditionRich,2021.2.3,60.124337130156285,
20.75,24.0,41,0.0,Stimuli/Blank.png,0,0.0,0.0,0,10,10,10,,,,,,,,,,,,,20.749951800000417,-4.819999958272092e-05,5,1.2217464999994263,76.47552690000157,76.47552690000157,76.47552690000157,76.47552690000157,76.47552690000157,76.47552690000157,76.47552690000157,76.47552690000157,76.47552690000157,76.47552690000157,008,P005,2025_Jan_18_1629,ConditionRich,2021.2.3,60.124337130156285,
24.0,24.75,18,0.75,Stimuli/P005/sun_bzqhpcsgzswozfhs.jpg,0,0.0,0.0,0,11,11,11,,,,,,,,,,,,,24.003238799999963,0.0032387999999627937,None,,79.74508210000204,79.74508210000204,79.74508210000204,79.74508210000204,79.74508210000204,79.74508210000204,79.74508210000204,79.74508210000204,79.74508210000204,79.74508210000204,008,P005,2025_Jan_18_1629,ConditionRich,2021.2.3,60.124337130156285,
24.75,28.0,41,0.0,Stimuli/Blank.png,0,0.0,0.0,0,12,12,12,,,,,,,,,,,,,24.7705993999989,0.02059939999890048,5,3.2013550999981817,80.49574460000076,80.49574460000076,80.49574460000076,80.49574460000076,80.49574460000076,80.49574460000076,80.49574460000076,80.49574460000076,80.49574460000076,80.49574460000076,008,P005,2025_Jan_18_1629,ConditionRich,2021.2.3,60.124337130156285,
28.0,28.75,19,0.75,Stimuli/P005/sun_czspalxthlkjwoat.jpg,0,0.0,0.0,0,13,13,13,,,,,,,,,,,,,28.00688110000192,0.006881100001919549,None,,83.7319067999997,83.7319067999997,83.7319067999997,83.7319067999997,83.7319067999997,83.7319067999997,83.7319067999997,83.7319067999997,83.7319067999997,83.7319067999997,008,P005,2025_Jan_18_1629,ConditionRich,2021.2.3,60.124337130156285,
28.75,32.0,41,0.0,Stimuli/Blank.png,0,0.0,0.0,0,14,14,14,,,,,,,,,,,,,28.75728969999909,0.007289699999091681,5,3.2144211000013456,84.48256989999936,84.48256989999936,84.48256989999936,84.48256989999936,84.48256989999936,84.48256989999936,84.48256989999936,84.48256989999936,84.48256989999936,84.48256989999936,008,P005,2025_Jan_18_1629,ConditionRich,2021.2.3,60.124337130156285,
32.0,32.75,29,0.75,Stimuli/P005/things_guillotine_03s.jpg,0,0.0,0.0,0,15,15,15,,,,,,,,,,,,,32.01113280000209,0.011132800002087606,None,,87.75211879999915,87.75211879999915,87.75211879999915,87.75211879999915,87.75211879999915,87.75211879999915,87.75211879999915,87.75211879999915,87.75211879999915,87.75211879999915,008,P005,2025_Jan_18_1629,ConditionRich,2021.2.3,60.124337130156285,
32.75,36.0,41,0.0,Stimuli/Blank.png,0,0.0,0.0,0,16,16,16,,,,,,,,,,,,,32.77755750000142,0.02755750000142143,5,3.1943658999989566,88.5027771999994,88.5027771999994,88.5027771999994,88.5027771999994,88.5027771999994,88.5027771999994,88.5027771999994,88.5027771999994,88.5027771999994,88.5027771999994,008,P005,2025_Jan_18_1629,ConditionRich,2021.2.3,60.124337130156285,
36.0,36.75,3,0.75,Stimuli/P005/sun_asyidwmnobuawmax.jpg,0,0.0,0.0,0,17,17,17,,,,,,,,,,,,,36.013597400000435,0.0135974000004353,None,,91.73896260000038,91.73896260000038,91.73896260000038,91.73896260000038,91.73896260000038,91.73896260000038,91.73896260000038,91.73896260000038,91.73896260000038,91.73896260000038,008,P005,2025_Jan_18_1629,ConditionRich,2021.2.3,60.124337130156285,
36.75,40.0,41,0.0,Stimuli/Blank.png,1,2.25,3.0,0,18,18,18,,,,,,,,,,,,,36.7639319000009,0.013931900000898167,4,2.681239399997139,92.48981690000073,92.48981690000073,92.48981690000073,92.48981690000073,92.48981690000073,92.48981690000073,94.72491799999989,95.4755748000025,92.48981690000073,92.48981690000073,008,P005,2025_Jan_18_1629,ConditionRich,2021.2.3,60.124337130156285,
40.0,40.75,36,0.75,Stimuli/P005/things_pony_03s.jpg,0,0.0,0.0,0,19,19,19,,,,,,,,,,,,,40.00022259999969,0.00022259999968810007,None,,95.72580229999949,95.72580229999949,95.72580229999949,95.72580229999949,95.72580229999949,95.72580229999949,95.72580229999949,95.72580229999949,95.72580229999949,95.72580229999949,008,P005,2025_Jan_18_1629,ConditionRich,2021.2.3,60.124337130156285,
40.75,44.0,41,0.0,Stimuli/Blank.png,0,0.0,0.0,0,20,20,20,,,,,,,,,,,,,40.75180349999937,0.0018034999993687961,5,3.220533699997759,96.47646600000007,96.47646600000007,96.47646600000007,96.47646600000007,96.47646600000007,96.47646600000007,96.47646600000007,96.47646600000007,96.47646600000007,96.47646600000007,008,P005,2025_Jan_18_1629,ConditionRich,2021.2.3,60.124337130156285,
44.0,44.75,27,0.75,Stimuli/P005/things_first-aid_kit_03s.jpg,0,0.0,0.0,0,21,21,21,,,,,,,,,,,,,44.00344380000024,0.0034438000002410263,None,,99.72933670000202,99.72933670000202,99.72933670000202,99.72933670000202,99.72933670000202,99.72933670000202,99.72933670000202,99.72933670000202,99.72933670000202,99.72933670000202,008,P005,2025_Jan_18_1629,ConditionRich,2021.2.3,60.124337130156285,
44.75,48.0,41,0.0,Stimuli/Blank.png,0,0.0,0.0,0,22,22,22,,,,,,,,,,,,,44.75652070000069,0.006520700000692159,5,3.200358899997809,100.49667120000231,100.49667120000231,100.49667120000231,100.49667120000231,100.49667120000231,100.49667120000231,100.49667120000231,100.49667120000231,100.49667120000231,100.49667120000231,008,P005,2025_Jan_18_1629,ConditionRich,2021.2.3,60.124337130156285,
48.0,48.75,21,0.75,Stimuli/P005/things_accordion_03s.jpg,0,0.0,0.0,0,23,23,23,,,,,,,,,,,,,48.026430599999,0.02643059999900288,None,,103.7662186000016,103.7662186000016,103.7662186000016,103.7662186000016,103.7662186000016,103.7662186000016,103.7662186000016,103.7662186000016,103.7662186000016,103.7662186000016,008,P005,2025_Jan_18_1629,ConditionRich,2021.2.3,60.124337130156285,
48.75,52.0,41,0.0,Stimuli/Blank.png,0,0.0,0.0,0,24,24,24,,,,,,,,,,,,,48.77581999999893,0.025819999998930143,5,3.1968723999998474,104.50019780000002,104.50019780000002,104.50019780000002,104.50019780000002,104.50019780000002,104.50019780000002,104.50019780000002,104.50019780000002,104.50019780000002,104.50019780000002,008,P005,2025_Jan_18_1629,ConditionRich,2021.2.3,60.124337130156285,
52.0,52.75,31,0.75,Stimuli/P005/things_jukebox_03n.jpg,0,0.0,0.0,0,25,25,25,,,,,,,,,,,,,52.01129520000177,0.011295200001768535,None,,107.73637420000159,107.73637420000159,107.73637420000159,107.73637420000159,107.73637420000159,107.73637420000159,107.73637420000159,107.73637420000159,107.73637420000159,107.73637420000159,008,P005,2025_Jan_18_1629,ConditionRich,2021.2.3,60.124337130156285,
52.75,56.0,41,0.0,Stimuli/Blank.png,0,0.0,0.0,0,26,26,26,,,,,,,,,,,,,52.76179599999887,0.011795999998867046,5,3.209885399999621,108.48704220000218,108.48704220000218,108.48704220000218,108.48704220000218,108.48704220000218,108.48704220000218,108.48704220000218,108.48704220000218,108.48704220000218,108.48704220000218,008,P005,2025_Jan_18_1629,ConditionRich,2021.2.3,60.124337130156285,
56.0,56.75,33,0.75,Stimuli/P005/things_man_03s.jpg,0,0.0,0.0,0,27,27,27,,,,,,,,,,,,,56.014781500001845,0.014781500001845416,None,,111.73989350000193,111.73989350000193,111.73989350000193,111.73989350000193,111.73989350000193,111.73989350000193,111.73989350000193,111.73989350000193,111.73989350000193,111.73989350000193,008,P005,2025_Jan_18_1629,ConditionRich,2021.2.3,60.124337130156285,
56.75,60.0,41,0.0,Stimuli/Blank.png,0,0.0,0.0,0,28,28,28,,,,,,,,,,,,,56.76498510000238,0.014985100002377294,5,1.2063663999979326,112.49055660000158,112.49055660000158,112.49055660000158,112.49055660000158,112.49055660000158,112.49055660000158,112.49055660000158,112.49055660000158,112.49055660000158,112.49055660000158,008,P005,2025_Jan_18_1629,ConditionRich,2021.2.3,60.124337130156285,
60.0,60.75,32,0.75,Stimuli/P005/things_jumpsuit_03s.jpg,0,0.0,0.0,0,29,29,29,,,,,,,,,,,,,60.00118759999896,0.0011875999989570118,None,,115.72675490000256,115.72675490000256,115.72675490000256,115.72675490000256,115.72675490000256,115.72675490000256,115.72675490000256,115.72675490000256,115.72675490000256,115.72675490000256,008,P005,2025_Jan_18_1629,ConditionRich,2021.2.3,60.124337130156285,
60.75,64.0,41,0.0,Stimuli/Blank.png,0,0.0,0.0,0,30,30,30,,,,,,,,,,,,,60.75232060000053,0.0023206000005302485,5,3.219425700001011,116.47740909999993,116.47740909999993,116.47740909999993,116.47740909999993,116.47740909999993,116.47740909999993,116.47740909999993,116.47740909999993,116.47740909999993,116.47740909999993,008,P005,2025_Jan_18_1629,ConditionRich,2021.2.3,60.124337130156285,
64.0,64.75,20,0.75,Stimuli/P005/sun_dvxuxzytfdbjyzit.jpg,0,0.0,0.0,0,31,31,31,,,,,,,,,,,,,64.00480320000133,0.004803200001333607,None,,119.73026070000196,119.73026070000196,119.73026070000196,119.73026070000196,119.73026070000196,119.73026070000196,119.73026070000196,119.73026070000196,119.73026070000196,119.73026070000196,008,P005,2025_Jan_18_1629,ConditionRich,2021.2.3,60.124337130156285,
64.75,68.0,41,0.0,Stimuli/Blank.png,0,0.0,0.0,0,32,32,32,,,,,,,,,,,,,64.75574810000035,0.005748100000346312,5,3.2160393000012846,120.48092800000086,120.48092800000086,120.48092800000086,120.48092800000086,120.48092800000086,120.48092800000086,120.48092800000086,120.48092800000086,120.48092800000086,120.48092800000086,008,P005,2025_Jan_18_1629,ConditionRich,2021.2.3,60.124337130156285,
68.0,68.75,1,0.75,Stimuli/P005/sun_adyhbxohydkpecty.jpg,0,0.0,0.0,0,33,33,33,,,,,,,,,,,,,68.00801430000138,0.008014300001377705,None,,123.73379700000078,123.73379700000078,123.73379700000078,123.73379700000078,123.73379700000078,123.73379700000078,123.73379700000078,123.73379700000078,123.73379700000078,123.73379700000078,008,P005,2025_Jan_18_1629,ConditionRich,2021.2.3,60.124337130156285,
68.75,72.0,41,0.0,Stimuli/Blank.png,1,0.25,1.0,0,34,34,34,,,,,,,,,,,,,68.76104420000047,0.011044200000469573,5,3.195642000002408,124.50113039999997,124.50113039999997,124.50113039999997,124.50113039999997,124.50113039999997,124.50113039999997,124.73471400000199,125.48536270000113,124.50113039999997,124.50113039999997,008,P005,2025_Jan_18_1629,ConditionRich,2021.2.3,60.124337130156285,
72.0,72.75,9,0.75,Stimuli/P005/sun_bfcmdrojsffdttzu.jpg,0,0.0,0.0,0,35,35,35,,,,,,,,,,,,,72.03122219999932,0.031222199999319855,None,,127.77067680000255,127.77067680000255,127.77067680000255,127.77067680000255,127.77067680000255,127.77067680000255,127.77067680000255,127.77067680000255,127.77067680000255,127.77067680000255,008,P005,2025_Jan_18_1629,ConditionRich,2021.2.3,60.124337130156285,
72.75,76.0,41,0.0,Stimuli/Blank.png,0,0.0,0.0,0,36,36,36,,,,,,,,,,,,,72.78190750000067,0.03190750000067055,5,1.192225700000563,128.50466140000208,128.50466140000208,128.50466140000208,128.50466140000208,128.50466140000208,128.50466140000208,128.50466140000208,128.50466140000208,128.50466140000208,128.50466140000208,008,P005,2025_Jan_18_1629,ConditionRich,2021.2.3,60.124337130156285,
76.0,76.75,10,0.75,Stimuli/P005/sun_bgnxbfhmwhliypvg.jpg,0,0.0,0.0,0,37,37,37,,,,,,,,,,,,,75.99864050000178,-0.0013594999982160516,None,,131.74084040000162,131.74084040000162,131.74084040000162,131.74084040000162,131.74084040000162,131.74084040000162,131.74084040000162,131.74084040000162,131.74084040000162,131.74084040000162,008,P005,2025_Jan_18_1629,ConditionRich,2021.2.3,60.124337130156285,
76.75,80.0,41,0.0,Stimuli/Blank.png,1,1.25,2.0,0,38,38,38,,,,,,,,,,,,,76.76710000000094,0.017100000000937143,4,1.7103010999999242,132.4915022000023,132.4915022000023,132.4915022000023,132.4915022000023,132.4915022000023,132.4915022000023,133.7259062000012,134.47657959999924,132.4915022000023,132.4915022000023,008,P005,2025_Jan_18_1629,ConditionRich,2021.2.3,60.124337130156285,
80.0,80.75,30,0.75,Stimuli/P005/things_hood_03s.jpg,0,0.0,0.0,0,39,39,39,,,,,,,,,,,,,80.00277420000202,0.0027742000020225532,None,,135.72767509999903,135.72767509999903,135.72767509999903,135.72767509999903,135.72767509999903,135.72767509999903,135.72767509999903,135.72767509999903,135.72767509999903,135.72767509999903,008,P005,2025_Jan_18_1629,ConditionRich,2021.2.3,60.124337130156285,
80.75,84.0,41,0.0,Stimuli/Blank.png,0,0.0,0.0,0,40,40,40,,,,,,,,,,,,,80.75345229999948,0.0034522999994806014,5,3.2185007000007317,136.4784163000004,136.4784163000004,136.4784163000004,136.4784163000004,136.4784163000004,136.4784163000004,136.4784163000004,136.4784163000004,136.4784163000004,136.4784163000004,008,P005,2025_Jan_18_1629,ConditionRich,2021.2.3,60.124337130156285,
84.0,100.0,0,0.0,Stimuli/Blank.png,1,10.0,10.75,0,41,41,41,,,,,,,,,,,,,84.0066853999997,0.0066853999996965285,5,15.96559420000267,139.73121299999912,139.73121299999912,139.73121299999912,139.73121299999912,139.73121299999912,139.73121299999912,149.72332509999978,150.47402390000207,139.73121299999912,139.73121299999912,008,P005,2025_Jan_18_1629,ConditionRich,2021.2.3,60.124337130156285,
100.0,100.75,17,0.75,Stimuli/P005/sun_bwsictslfxygpqbp.jpg,0,0.0,0.0,0,42,42,42,,,,,,,,,,,,,100.00362160000077,0.0036216000007698312,None,,155.7286152000015,155.7286152000015,155.7286152000015,155.7286152000015,155.7286152000015,155.7286152000015,155.7286152000015,155.7286152000015,155.7286152000015,155.7286152000015,008,P005,2025_Jan_18_1629,ConditionRich,2021.2.3,60.124337130156285,
100.75,104.0,41,0.0,Stimuli/Blank.png,0,0.0,0.0,0,43,43,43,,,,,,,,,,,,,100.75356800000009,0.003568000000086613,5,3.217573199999606,156.47927440000058,156.47927440000058,156.47927440000058,156.47927440000058,156.47927440000058,156.47927440000058,156.47927440000058,156.47927440000058,156.47927440000058,156.47927440000058,008,P005,2025_Jan_18_1629,ConditionRich,2021.2.3,60.124337130156285,
104.0,104.75,4,0.75,Stimuli/P005/sun_auwghripdoxzluuk.jpg,0,0.0,0.0,0,44,44,44,,,,,,,,,,,,,104.0071334000022,0.007133400002203416,None,,159.7321398000022,159.7321398000022,159.7321398000022,159.7321398000022,159.7321398000022,159.7321398000022,159.7321398000022,159.7321398000022,159.7321398000022,159.7321398000022,008,P005,2025_Jan_18_1629,ConditionRich,2021.2.3,60.124337130156285,
104.75,108.0,41,0.0,Stimuli/Blank.png,0,0.0,0.0,0,45,45,45,,,,,,,,,,,,,104.75859530000162,0.008595300001616124,5,3.2140681999990193,160.48281620000125,160.48281620000125,160.48281620000125,160.48281620000125,160.48281620000125,160.48281620000125,160.48281620000125,160.48281620000125,160.48281620000125,160.48281620000125,008,P005,2025_Jan_18_1629,ConditionRich,2021.2.3,60.124337130156285,
108.0,108.75,2,0.75,Stimuli/P005/sun_ahmycohdkioefoxs.jpg,0,0.0,0.0,0,46,46,46,,,,,,,,,,,,,108.0113674000022,0.011367400002200156,None,,163.7530372000001,163.7530372000001,163.7530372000001,163.7530372000001,163.7530372000001,163.7530372000001,163.7530372000001,163.7530372000001,163.7530372000001,163.7530372000001,008,P005,2025_Jan_18_1629,ConditionRich,2021.2.3,60.124337130156285,
108.75,112.0,41,0.0,Stimuli/Blank.png,0,0.0,0.0,0,47,47,47,,,,,,,,,,,,,108.7779150000024,0.027915000002394663,5,3.1936906000009913,164.503005999999,164.503005999999,164.503005999999,164.503005999999,164.503005999999,164.503005999999,164.503005999999,164.503005999999,164.503005999999,164.503005999999,008,P005,2025_Jan_18_1629,ConditionRich,2021.2.3,60.124337130156285,
112.0,112.75,7,0.75,Stimuli/P005/sun_bdmdlkpsznknrcqi.jpg,0,0.0,0.0,0,48,48,48,,,,,,,,,,,,,112.01492340000186,0.01492340000186232,None,,167.75586309999926,167.75586309999926,167.75586309999926,167.75586309999926,167.75586309999926,167.75586309999926,167.75586309999926,167.75586309999926,167.75586309999926,167.75586309999926,008,P005,2025_Jan_18_1629,ConditionRich,2021.2.3,60.124337130156285,
112.75,116.0,41,0.0,Stimuli/Blank.png,1,1.25,2.0,0,49,49,49,,,,,,,,,,,,,112.78196509999907,0.031965099999069935,4,1.7152781000004325,168.5065418000013,168.5065418000013,168.5065418000013,168.5065418000013,168.5065418000013,168.5065418000013,169.74094540000078,170.49160290000145,168.5065418000013,168.5065418000013,008,P005,2025_Jan_18_1629,ConditionRich,2021.2.3,60.124337130156285,
116.0,116.75,8,0.75,Stimuli/P005/sun_bekkgqphzbclwpvb.jpg,0,0.0,0.0,0,50,50,50,,,,,,,,,,,,,116.00104049999936,0.0010404999993625097,None,,171.72603069999968,171.72603069999968,171.72603069999968,171.72603069999968,171.72603069999968,171.72603069999968,171.72603069999968,171.72603069999968,171.72603069999968,171.72603069999968,008,P005,2025_Jan_18_1629,ConditionRich,2021.2.3,60.124337130156285,
116.75,120.0,41,0.0,Stimuli/Blank.png,0,0.0,0.0,0,51,51,51,,,,,,,,,,,,,116.75142970000161,0.0014297000016085804,5,3.219941999999719,172.4766993000012,172.4766993000012,172.4766993000012,172.4766993000012,172.4766993000012,172.4766993000012,172.4766993000012,172.4766993000012,172.4766993000012,172.4766993000012,008,P005,2025_Jan_18_1629,ConditionRich,2021.2.3,60.124337130156285,
120.0,120.75,39,0.75,Stimuli/P005/things_train_set_03s.jpg,0,0.0,0.0,0,52,52,52,,,,,,,,,,,,,120.00405890000184,0.0040589000018371735,None,,175.7295524000001,175.7295524000001,175.7295524000001,175.7295524000001,175.7295524000001,175.7295524000001,175.7295524000001,175.7295524000001,175.7295524000001,175.7295524000001,008,P005,2025_Jan_18_1629,ConditionRich,2021.2.3,60.124337130156285,
120.75,124.0,41,0.0,Stimuli/Blank.png,0,0.0,0.0,0,53,53,53,,,,,,,,,,,,,120.75462770000013,0.004627700000128243,5,3.216568300002109,176.4801914000018,176.4801914000018,176.4801914000018,176.4801914000018,176.4801914000018,176.4801914000018,176.4801914000018,176.4801914000018,176.4801914000018,176.4801914000018,008,P005,2025_Jan_18_1629,ConditionRich,2021.2.3,60.124337130156285,
124.0,124.75,26,0.75,Stimuli/P005/things_face_03s.jpg,0,0.0,0.0,0,54,54,54,,,,,,,,,,,,,124.0088121000008,0.008812100000795908,None,,179.74976980000065,179.74976980000065,179.74976980000065,179.74976980000065,179.74976980000065,179.74976980000065,179.74976980000065,179.74976980000065,179.74976980000065,179.74976980000065,008,P005,2025_Jan_18_1629,ConditionRich,2021.2.3,60.124337130156285,
124.75,128.0,41,0.0,Stimuli/Blank.png,0,0.0,0.0,0,55,55,55,,,,,,,,,,,,,124.77477759999965,0.02477759999965201,5,3.1963959999993676,180.50041870000132,180.50041870000132,180.50041870000132,180.50041870000132,180.50041870000132,180.50041870000132,180.50041870000132,180.50041870000132,180.50041870000132,180.50041870000132,008,P005,2025_Jan_18_1629,ConditionRich,2021.2.3,60.124337130156285,
128.0,128.75,22,0.75,Stimuli/P005/things_baby_03s.jpg,0,0.0,0.0,0,56,56,56,,,,,,,,,,,,,128.0116397999991,0.011639799999102252,None,,183.7532855999998,183.7532855999998,183.7532855999998,183.7532855999998,183.7532855999998,183.7532855999998,183.7532855999998,183.7532855999998,183.7532855999998,183.7532855999998,008,P005,2025_Jan_18_1629,ConditionRich,2021.2.3,60.124337130156285,
128.75,132.0,41,0.0,Stimuli/Blank.png,0,0.0,0.0,0,57,57,57,,,,,,,,,,,,,128.78098279999904,0.030982799999037525,5,3.176024000000325,184.5206360000011,184.5206360000011,184.5206360000011,184.5206360000011,184.5206360000011,184.5206360000011,184.5206360000011,184.5206360000011,184.5206360000011,184.5206360000011,008,P005,2025_Jan_18_1629,ConditionRich,2021.2.3,60.124337130156285,
132.0,132.75,23,0.75,Stimuli/P005/things_beetle_03s.jpg,0,0.0,0.0,0,58,58,58,,,,,,,,,,,,,132.01455089999945,0.01455089999944903,None,,187.74017420000018,187.74017420000018,187.74017420000018,187.74017420000018,187.74017420000018,187.74017420000018,187.74017420000018,187.74017420000018,187.74017420000018,187.74017420000018,008,P005,2025_Jan_18_1629,ConditionRich,2021.2.3,60.124337130156285,
132.75,136.0,41,0.0,Stimuli/Blank.png,0,0.0,0.0,0,59,59,59,,,,,,,,,,,,,132.7664470999989,0.016447099998913473,5,1.205798799997865,188.4907975999995,188.4907975999995,188.4907975999995,188.4907975999995,188.4907975999995,188.4907975999995,188.4907975999995,188.4907975999995,188.4907975999995,188.4907975999995,008,P005,2025_Jan_18_1629,ConditionRich,2021.2.3,60.124337130156285,
136.0,136.75,35,0.75,Stimuli/P005/things_pig_03s.jpg,0,0.0,0.0,0,60,60,60,,,,,,,,,,,,,136.0012252000015,0.0012252000014996156,None,,191.7269677000004,191.7269677000004,191.7269677000004,191.7269677000004,191.7269677000004,191.7269677000004,191.7269677000004,191.7269677000004,191.7269677000004,191.7269677000004,008,P005,2025_Jan_18_1629,ConditionRich,2021.2.3,60.124337130156285,
136.75,140.0,41,0.0,Stimuli/Blank.png,0,0.0,0.0,0,61,61,61,,,,,,,,,,,,,136.7522183000001,0.0022183000000950415,5,3.2191020999998727,192.47761940000055,192.47761940000055,192.47761940000055,192.47761940000055,192.47761940000055,192.47761940000055,192.47761940000055,192.47761940000055,192.47761940000055,192.47761940000055,008,P005,2025_Jan_18_1629,ConditionRich,2021.2.3,60.124337130156285,
140.0,140.75,14,0.75,Stimuli/P005/sun_bsirencncgxteejx.jpg,0,0.0,0.0,0,62,62,62,,,,,,,,,,,,,140.005327400002,0.0053274000019882806,None,,195.74716760000229,195.74716760000229,195.74716760000229,195.74716760000229,195.74716760000229,195.74716760000229,195.74716760000229,195.74716760000229,195.74716760000229,195.74716760000229,008,P005,2025_Jan_18_1629,ConditionRich,2021.2.3,60.124337130156285,
140.75,144.0,41,0.0,Stimuli/Blank.png,0,0.0,0.0,0,63,63,63,,,,,,,,,,,,,140.77279930000077,0.022799300000770018,5,3.198625199998787,196.49790270000085,196.49790270000085,196.49790270000085,196.49790270000085,196.49790270000085,196.49790270000085,196.49790270000085,196.49790270000085,196.49790270000085,196.49790270000085,008,P005,2025_Jan_18_1629,ConditionRich,2021.2.3,60.124337130156285,
144.0,144.75,28,0.75,Stimuli/P005/things_girl_03s.jpg,0,0.0,0.0,0,64,64,64,,,,,,,,,,,,,144.00872240000172,0.008722400001715869,None,,199.7340249000008,199.7340249000008,199.7340249000008,199.7340249000008,199.7340249000008,199.7340249000008,199.7340249000008,199.7340249000008,199.7340249000008,199.7340249000008,008,P005,2025_Jan_18_1629,ConditionRich,2021.2.3,60.124337130156285,
144.75,148.0,41,0.0,Stimuli/Blank.png,0,0.0,0.0,0,65,65,65,,,,,,,,,,,,,144.7617476000014,0.011747600001399405,5,3.19537180000043,200.5013712,200.5013712,200.5013712,200.5013712,200.5013712,200.5013712,200.5013712,200.5013712,200.5013712,200.5013712,008,P005,2025_Jan_18_1629,ConditionRich,2021.2.3,60.124337130156285,
148.0,148.75,6,0.75,Stimuli/P005/sun_bbzkhzmxdjrfjpjz.jpg,0,0.0,0.0,0,66,66,66,,,,,,,,,,,,,148.03123980000237,0.0312398000023677,None,,203.7709008999991,203.7709008999991,203.7709008999991,203.7709008999991,203.7709008999991,203.7709008999991,203.7709008999991,203.7709008999991,203.7709008999991,203.7709008999991,008,P005,2025_Jan_18_1629,ConditionRich,2021.2.3,60.124337130156285,
148.75,152.0,41,0.0,Stimuli/Blank.png,1,2.25,3.0,0,67,67,67,,,,,,,,,,,,,148.78175190000184,0.031751900001836475,5,3.1752813999992213,204.52156549999927,204.52156549999927,204.52156549999927,204.52156549999927,204.52156549999927,204.52156549999927,206.75690810000015,207.50756069999989,204.52156549999927,204.52156549999927,008,P005,2025_Jan_18_1629,ConditionRich,2021.2.3,60.124337130156285,
152.0,152.75,12,0.75,Stimuli/P005/sun_bodyuiqwqpqzwfoz.jpg,0,0.0,0.0,0,68,68,68,,,,,,,,,,,,,152.01634310000009,0.016343100000085542,None,,207.74105770000097,207.74105770000097,207.74105770000097,207.74105770000097,207.74105770000097,207.74105770000097,207.74105770000097,207.74105770000097,207.74105770000097,207.74105770000097,008,P005,2025_Jan_18_1629,ConditionRich,2021.2.3,60.124337130156285,
152.75,156.0,41,0.0,Stimuli/Blank.png,1,0.25,1.0,0,69,69,69,,,,,,,,,,,,,152.75117279999904,0.001172799999039853,5,3.2048691999989387,208.4917181000019,208.4917181000019,208.4917181000019,208.4917181000019,208.4917181000019,208.4917181000019,208.72525560000213,209.47589530000187,208.4917181000019,208.4917181000019,008,P005,2025_Jan_18_1629,ConditionRich,2021.2.3,60.124337130156285,
156.0,156.75,16,0.75,Stimuli/P005/sun_bwentnobehmvaxkp.jpg,0,0.0,0.0,0,70,70,70,,,,,,,,,,,,,156.02153760000147,0.021537600001465762,None,,211.7612814000022,211.7612814000022,211.7612814000022,211.7612814000022,211.7612814000022,211.7612814000022,211.7612814000022,211.7612814000022,211.7612814000022,211.7612814000022,008,P005,2025_Jan_18_1629,ConditionRich,2021.2.3,60.124337130156285,
156.75,160.0,41,0.0,Stimuli/Blank.png,0,0.0,0.0,0,71,71,71,,,,,,,,,,,,,156.7702375000008,0.020237500000803266,5,3.2013890000016545,212.4952512000018,212.4952512000018,212.4952512000018,212.4952512000018,212.4952512000018,212.4952512000018,212.4952512000018,212.4952512000018,212.4952512000018,212.4952512000018,008,P005,2025_Jan_18_1629,ConditionRich,2021.2.3,60.124337130156285,
160.0,160.75,5,0.75,Stimuli/P005/sun_axaqdcecfojvpvrl.jpg,1,0.0,0.75,0,72,72,72,,,,,,,,,,,,,160.006090400002,0.006090400001994567,4,0.4573722999994061,215.73142759999973,215.73142759999973,215.73142759999973,215.73142759999973,215.73142759999973,215.73142759999973,215.73142759999973,216.46540000000095,215.73142759999973,215.73142759999973,008,P005,2025_Jan_18_1629,ConditionRich,2021.2.3,60.124337130156285,
160.75,164.0,41,0.0,Stimuli/Blank.png,0,0.0,0.0,0,73,73,73,,,,,,,,,,,,,160.75698790000024,0.006987900000240188,5,3.2144618999991508,216.48208879999947,216.48208879999947,216.48208879999947,216.48208879999947,216.48208879999947,216.48208879999947,216.48208879999947,216.48208879999947,216.48208879999947,216.48208879999947,008,P005,2025_Jan_18_1629,ConditionRich,2021.2.3,60.124337130156285,
164.0,164.75,40,0.75,Stimuli/P005/things_woman_03s.jpg,0,0.0,0.0,0,74,74,74,,,,,,,,,,,,,164.011491199999,0.011491199998999946,None,,219.75164779999977,219.75164779999977,219.75164779999977,219.75164779999977,219.75164779999977,219.75164779999977,219.75164779999977,219.75164779999977,219.75164779999977,219.75164779999977,008,P005,2025_Jan_18_1629,ConditionRich,2021.2.3,60.124337130156285,
164.75,168.0,41,0.0,Stimuli/Blank.png,0,0.0,0.0,0,75,75,75,,,,,,,,,,,,,164.77730320000046,0.027303200000460492,5,3.194376799998281,220.5022910000007,220.5022910000007,220.5022910000007,220.5022910000007,220.5022910000007,220.5022910000007,220.5022910000007,220.5022910000007,220.5022910000007,220.5022910000007,008,P005,2025_Jan_18_1629,ConditionRich,2021.2.3,60.124337130156285,
168.0,168.75,34,0.75,Stimuli/P005/things_patty_03s.jpg,0,0.0,0.0,0,76,76,76,,,,,,,,,,,,,168.0131380999992,0.013138099999196129,None,,223.7384677000009,223.7384677000009,223.7384677000009,223.7384677000009,223.7384677000009,223.7384677000009,223.7384677000009,223.7384677000009,223.7384677000009,223.7384677000009,008,P005,2025_Jan_18_1629,ConditionRich,2021.2.3,60.124337130156285,
168.75,172.0,41,0.0,Stimuli/Blank.png,0,0.0,0.0,0,77,77,77,,,,,,,,,,,,,168.76345220000076,0.01345220000075642,5,1.2073928999998316,224.48913620000167,224.48913620000167,224.48913620000167,224.48913620000167,224.48913620000167,224.48913620000167,224.48913620000167,224.48913620000167,224.48913620000167,224.48913620000167,008,P005,2025_Jan_18_1629,ConditionRich,2021.2.3,60.124337130156285,
172.0,172.75,25,0.75,Stimuli/P005/things_dog_03s.jpg,0,0.0,0.0,0,78,78,78,,,,,,,,,,,,,171.99979449999955,-0.0002055000004475005,None,,227.72532010000214,227.72532010000214,227.72532010000214,227.72532010000214,227.72532010000214,227.72532010000214,227.72532010000214,227.72532010000214,227.72532010000214,227.72532010000214,008,P005,2025_Jan_18_1629,ConditionRich,2021.2.3,60.124337130156285,
172.75,176.0,41,0.0,Stimuli/Blank.png,0,0.0,0.0,0,79,79,79,,,,,,,,,,,,,172.7506343999994,0.0006343999993987381,5,3.220523399999365,228.47598700000162,228.47598700000162,228.47598700000162,228.47598700000162,228.47598700000162,228.47598700000162,228.47598700000162,228.47598700000162,228.47598700000162,228.47598700000162,008,P005,2025_Jan_18_1629,ConditionRich,2021.2.3,60.124337130156285,
176.0,176.75,38,0.75,Stimuli/P005/things_sledgehammer_03s.jpg,0,0.0,0.0,0,80,80,80,,,,,,,,,,,,,176.0061198000003,0.006119800000305986,None,,231.74552400000175,231.74552400000175,231.74552400000175,231.74552400000175,231.74552400000175,231.74552400000175,231.74552400000175,231.74552400000175,231.74552400000175,231.74552400000175,008,P005,2025_Jan_18_1629,ConditionRich,2021.2.3,60.124337130156285,
176.75,180.0,41,0.0,Stimuli/Blank.png,0,0.0,0.0,0,81,81,81,,,,,,,,,,,,,176.77232189999995,0.02232189999995171,5,3.200272699999914,232.49620040000082,232.49620040000082,232.49620040000082,232.49620040000082,232.49620040000082,232.49620040000082,232.49620040000082,232.49620040000082,232.49620040000082,232.49620040000082,008,P005,2025_Jan_18_1629,ConditionRich,2021.2.3,60.124337130156285,
180.0,196.0,0,0.0,Stimuli/Blank.png,1,3.0,3.75,0,82,82,82,,,,,,,,,,,,,180.0064127000005,0.006412700000510085,5,15.964038099999016,235.73236929999985,235.73236929999985,235.73236929999985,235.73236929999985,235.73236929999985,235.73236929999985,238.71836170000097,239.4689868000023,235.73236929999985,235.73236929999985,008,P005,2025_Jan_18_1629,ConditionRich,2021.2.3,60.124337130156285,
196.0,196.75,26,0.75,Stimuli/P005/things_face_03s.jpg,0,0.0,0.0,0,83,83,83,,,,,,,,,,,,,196.00670360000004,0.006703600000037113,None,,251.7464301,251.7464301,251.7464301,251.7464301,251.7464301,251.7464301,251.7464301,251.7464301,251.7464301,251.7464301,008,P005,2025_Jan_18_1629,ConditionRich,2021.2.3,60.124337130156285,
196.75,200.0,41,0.0,Stimuli/Blank.png,0,0.0,0.0,0,84,84,84,,,,,,,,,,,,,196.77201090000017,0.022010900000168476,5,3.1992821999992884,252.4971239000006,252.4971239000006,252.4971239000006,252.4971239000006,252.4971239000006,252.4971239000006,252.4971239000006,252.4971239000006,252.4971239000006,252.4971239000006,008,P005,2025_Jan_18_1629,ConditionRich,2021.2.3,60.124337130156285,
200.0,200.75,23,0.75,Stimuli/P005/things_beetle_03s.jpg,1,0.0,0.75,0,85,85,85,,,,,,,,,,,,,200.00993500000186,0.009935000001860317,4,0.40504499999951804,255.7334871000021,255.7334871000021,255.7334871000021,255.7334871000021,255.7334871000021,255.7334871000021,255.7334871000021,256.4673346000018,255.7334871000021,255.7334871000021,008,P005,2025_Jan_18_1629,ConditionRich,2021.2.3,60.124337130156285,
200.75,204.0,41,0.0,Stimuli/Blank.png,0,0.0,0.0,0,86,86,86,,,,,,,,,,,,,200.76099850000173,0.010998500001733191,5,3.1958973000000697,256.50065059999906,256.50065059999906,256.50065059999906,256.50065059999906,256.50065059999906,256.50065059999906,256.50065059999906,256.50065059999906,256.50065059999906,256.50065059999906,008,P005,2025_Jan_18_1629,ConditionRich,2021.2.3,60.124337130156285,
204.0,204.75,10,0.75,Stimuli/P005/sun_bgnxbfhmwhliypvg.jpg,0,0.0,0.0,0,87,87,87,,,,,,,,,,,,,204.02800690000004,0.028006900000036694,None,,259.75350420000177,259.75350420000177,259.75350420000177,259.75350420000177,259.75350420000177,259.75350420000177,259.75350420000177,259.75350420000177,259.75350420000177,259.75350420000177,008,P005,2025_Jan_18_1629,ConditionRich,2021.2.3,60.124337130156285,
204.75,208.0,41,0.0,Stimuli/Blank.png,0,0.0,0.0,0,88,88,88,,,,,,,,,,,,,204.76254980000158,0.01254980000157957,5,3.209128200000123,260.4875243000024,260.4875243000024,260.4875243000024,260.4875243000024,260.4875243000024,260.4875243000024,260.4875243000024,260.4875243000024,260.4875243000024,260.4875243000024,008,P005,2025_Jan_18_1629,ConditionRich,2021.2.3,60.124337130156285,
208.0,208.75,5,0.75,Stimuli/P005/sun_axaqdcecfojvpvrl.jpg,0,0.0,0.0,0,89,89,89,,,,,,,,,,,,,208.0153962000004,0.015396200000395766,None,,263.7403525000009,263.7403525000009,263.7403525000009,263.7403525000009,263.7403525000009,263.7403525000009,263.7403525000009,263.7403525000009,263.7403525000009,263.7403525000009,008,P005,2025_Jan_18_1629,ConditionRich,2021.2.3,60.124337130156285,
208.75,212.0,41,0.0,Stimuli/Blank.png,0,0.0,0.0,0,90,90,90,,,,,,,,,,,,,208.75086139999985,0.0008613999998487998,5,3.2054306999998516,264.4910154999998,264.4910154999998,264.4910154999998,264.4910154999998,264.4910154999998,264.4910154999998,264.4910154999998,264.4910154999998,264.4910154999998,264.4910154999998,008,P005,2025_Jan_18_1629,ConditionRich,2021.2.3,60.124337130156285,
212.0,212.75,35,0.75,Stimuli/P005/things_pig_03s.jpg,0,0.0,0.0,0,91,91,91,,,,,,,,,,,,,212.0182840000016,0.01828400000158581,None,,267.76056120000067,267.76056120000067,267.76056120000067,267.76056120000067,267.76056120000067,267.76056120000067,267.76056120000067,267.76056120000067,267.76056120000067,267.76056120000067,008,P005,2025_Jan_18_1629,ConditionRich,2021.2.3,60.124337130156285,
212.75,216.0,41,0.0,Stimuli/Blank.png,0,0.0,0.0,0,92,92,92,,,,,,,,,,,,,212.77109349999955,0.021093499999551568,5,3.185180600001331,268.5112463000005,268.5112463000005,268.5112463000005,268.5112463000005,268.5112463000005,268.5112463000005,268.5112463000005,268.5112463000005,268.5112463000005,268.5112463000005,008,P005,2025_Jan_18_1629,ConditionRich,2021.2.3,60.124337130156285,
216.0,216.75,22,0.75,Stimuli/P005/things_baby_03s.jpg,0,0.0,0.0,0,93,93,93,,,,,,,,,,,,,216.0225544999994,0.02255449999938719,None,,271.74739840000257,271.74739840000257,271.74739840000257,271.74739840000257,271.74739840000257,271.74739840000257,271.74739840000257,271.74739840000257,271.74739840000257,271.74739840000257,008,P005,2025_Jan_18_1629,ConditionRich,2021.2.3,60.124337130156285,
216.75,220.0,41,0.0,Stimuli/Blank.png,0,0.0,0.0,0,94,94,94,,,,,,,,,,,,,216.75655710000137,0.006557100001373328,5,3.2149551000002248,272.4813783999998,272.4813783999998,272.4813783999998,272.4813783999998,272.4813783999998,272.4813783999998,272.4813783999998,272.4813783999998,272.4813783999998,272.4813783999998,008,P005,2025_Jan_18_1629,ConditionRich,2021.2.3,60.124337130156285,
220.0,220.75,36,0.75,Stimuli/P005/things_pony_03s.jpg,0,0.0,0.0,0,95,95,95,,,,,,,,,,,,,220.01071779999984,0.010717799999838462,None,,275.7509248000024,275.7509248000024,275.7509248000024,275.7509248000024,275.7509248000024,275.7509248000024,275.7509248000024,275.7509248000024,275.7509248000024,275.7509248000024,008,P005,2025_Jan_18_1629,ConditionRich,2021.2.3,60.124337130156285,
220.75,224.0,41,0.0,Stimuli/Blank.png,0,0.0,0.0,0,96,96,96,,,,,,,,,,,,,220.7759256999998,0.025925699999788776,5,3.1951364999986254,276.5015846999995,276.5015846999995,276.5015846999995,276.5015846999995,276.5015846999995,276.5015846999995,276.5015846999995,276.5015846999995,276.5015846999995,276.5015846999995,008,P005,2025_Jan_18_1629,ConditionRich,2021.2.3,60.124337130156285,
224.0,224.75,34,0.75,Stimuli/P005/things_patty_03s.jpg,1,0.0,0.75,0,97,97,97,,,,,,,,,,,,,224.01319309999963,0.013193099999625701,4,0.4551400000018475,279.75445070000205,279.75445070000205,279.75445070000205,279.75445070000205,279.75445070000205,279.75445070000205,279.75445070000205,280.47176500000205,279.75445070000205,279.75445070000205,008,P005,2025_Jan_18_1629,ConditionRich,2021.2.3,60.124337130156285,
224.75,228.0,41,0.0,Stimuli/Blank.png,0,0.0,0.0,0,98,98,98,,,,,,,,,,,,,224.78043550000075,0.030435500000749016,5,1.1911911999995937,280.50511560000086,280.50511560000086,280.50511560000086,280.50511560000086,280.50511560000086,280.50511560000086,280.50511560000086,280.50511560000086,280.50511560000086,280.50511560000086,008,P005,2025_Jan_18_1629,ConditionRich,2021.2.3,60.124337130156285,
228.0,228.75,37,0.75,Stimuli/P005/things_showerhead_03s.jpg,0,0.0,0.0,0,99,99,99,,,,,,,,,,,,,227.9997868999999,-0.0002131000001099892,None,,283.741285600001,283.741285600001,283.741285600001,283.741285600001,283.741285600001,283.741285600001,283.741285600001,283.741285600001,283.741285600001,283.741285600001,008,P005,2025_Jan_18_1629,ConditionRich,2021.2.3,60.124337130156285,
228.75,232.0,41,0.0,Stimuli/Blank.png,0,0.0,0.0,0,100,100,100,,,,,,,,,,,,,228.76605779999954,0.01605779999954393,5,1.204598399999668,284.49195730000065,284.49195730000065,284.49195730000065,284.49195730000065,284.49195730000065,284.49195730000065,284.49195730000065,284.49195730000065,284.49195730000065,284.49195730000065,008,P005,2025_Jan_18_1629,ConditionRich,2021.2.3,60.124337130156285,
232.0,232.75,28,0.75,Stimuli/P005/things_girl_03s.jpg,0,0.0,0.0,0,101,101,101,,,,,,,,,,,,,232.00249070000064,0.0024907000006351154,None,,287.7281275999994,287.7281275999994,287.7281275999994,287.7281275999994,287.7281275999994,287.7281275999994,287.7281275999994,287.7281275999994,287.7281275999994,287.7281275999994,008,P005,2025_Jan_18_1629,ConditionRich,2021.2.3,60.124337130156285,
232.75,236.0,41,0.0,Stimuli/Blank.png,0,0.0,0.0,0,102,102,102,,,,,,,,,,,,,232.75544939999963,0.005449399999633897,5,3.2009023999999044,288.49547990000065,288.49547990000065,288.49547990000065,288.49547990000065,288.49547990000065,288.49547990000065,288.49547990000065,288.49547990000065,288.49547990000065,288.49547990000065,008,P005,2025_Jan_18_1629,ConditionRich,2021.2.3,60.124337130156285,
236.0,236.75,18,0.75,Stimuli/P005/sun_bzqhpcsgzswozfhs.jpg,0,0.0,0.0,0,103,103,103,,,,,,,,,,,,,236.02287950000027,0.022879500000271946,None,,291.74833919999946,291.74833919999946,291.74833919999946,291.74833919999946,291.74833919999946,291.74833919999946,291.74833919999946,291.74833919999946,291.74833919999946,291.74833919999946,008,P005,2025_Jan_18_1629,ConditionRich,2021.2.3,60.124337130156285,
236.75,240.0,41,0.0,Stimuli/Blank.png,0,0.0,0.0,0,104,104,104,,,,,,,,,,,,,236.75737339999978,0.007373399999778485,5,3.2141149999988556,292.48231900000246,292.48231900000246,292.48231900000246,292.48231900000246,292.48231900000246,292.48231900000246,292.48231900000246,292.48231900000246,292.48231900000246,292.48231900000246,008,P005,2025_Jan_18_1629,ConditionRich,2021.2.3,60.124337130156285,
240.0,240.75,29,0.75,Stimuli/P005/things_guillotine_03s.jpg,0,0.0,0.0,0,105,105,105,,,,,,,,,,,,,240.01015520000146,0.010155200001463527,None,,295.75185749999946,295.75185749999946,295.75185749999946,295.75185749999946,295.75185749999946,295.75185749999946,295.75185749999946,295.75185749999946,295.75185749999946,295.75185749999946,008,P005,2025_Jan_18_1629,ConditionRich,2021.2.3,60.124337130156285,
240.75,244.0,41,0.0,Stimuli/Blank.png,0,0.0,0.0,0,106,106,106,,,,,,,,,,,,,240.77755930000058,0.027559300000575604,5,3.193829600000754,296.5025205999991,296.5025205999991,296.5025205999991,296.5025205999991,296.5025205999991,296.5025205999991,296.5025205999991,296.5025205999991,296.5025205999991,296.5025205999991,008,P005,2025_Jan_18_1629,ConditionRich,2021.2.3,60.124337130156285,
244.0,244.75,11,0.75,Stimuli/P005/sun_bjoocjyyhsmsbprr.jpg,0,0.0,0.0,0,107,107,107,,,,,,,,,,,,,244.0160074000014,0.01600740000139922,None,,299.7553994000009,299.7553994000009,299.7553994000009,299.7553994000009,299.7553994000009,299.7553994000009,299.7553994000009,299.7553994000009,299.7553994000009,299.7553994000009,008,P005,2025_Jan_18_1629,ConditionRich,2021.2.3,60.124337130156285,
244.75,248.0,41,0.0,Stimuli/Blank.png,0,0.0,0.0,0,108,108,108,,,,,,,,,,,,,244.76576199999909,0.015761999999085674,5,3.190476199997647,300.5060497000013,300.5060497000013,300.5060497000013,300.5060497000013,300.5060497000013,300.5060497000013,300.5060497000013,300.5060497000013,300.5060497000013,300.5060497000013,008,P005,2025_Jan_18_1629,ConditionRich,2021.2.3,60.124337130156285,
248.0,248.75,32,0.75,Stimuli/P005/things_jumpsuit_03s.jpg,0,0.0,0.0,0,109,109,109,,,,,,,,,,,,,248.01685530000032,0.016855300000315765,None,,303.74222519999967,303.74222519999967,303.74222519999967,303.74222519999967,303.74222519999967,303.74222519999967,303.74222519999967,303.74222519999967,303.74222519999967,303.74222519999967,008,P005,2025_Jan_18_1629,ConditionRich,2021.2.3,60.124337130156285,
248.75,252.0,41,0.0,Stimuli/Blank.png,0,0.0,0.0,0,110,110,110,,,,,,,,,,,,,248.75090270000146,0.0009027000014611986,5,3.221174599999358,304.47621380000055,304.47621380000055,304.47621380000055,304.47621380000055,304.47621380000055,304.47621380000055,304.47621380000055,304.47621380000055,304.47621380000055,304.47621380000055,008,P005,2025_Jan_18_1629,ConditionRich,2021.2.3,60.124337130156285,
252.0,252.75,13,0.75,Stimuli/P005/sun_bruphbrfsbxowtlq.jpg,0,0.0,0.0,0,111,111,111,,,,,,,,,,,,,252.0031835000009,0.003183500000886852,None,,307.7290725000021,307.7290725000021,307.7290725000021,307.7290725000021,307.7290725000021,307.7290725000021,307.7290725000021,307.7290725000021,307.7290725000021,307.7290725000021,008,P005,2025_Jan_18_1629,ConditionRich,2021.2.3,60.124337130156285,
252.75,256.0,41,0.0,Stimuli/Blank.png,0,0.0,0.0,0,112,112,112,,,,,,,,,,,,,252.75405110000065,0.004051100000651786,5,3.217531600002985,308.47977119999996,308.47977119999996,308.47977119999996,308.47977119999996,308.47977119999996,308.47977119999996,308.47977119999996,308.47977119999996,308.47977119999996,308.47977119999996,008,P005,2025_Jan_18_1629,ConditionRich,2021.2.3,60.124337130156285,
256.0,256.75,1,0.75,Stimuli/P005/sun_adyhbxohydkpecty.jpg,0,0.0,0.0,0,113,113,113,,,,,,,,,,,,,256.00681970000005,0.006819700000050943,None,,311.7492834000004,311.7492834000004,311.7492834000004,311.7492834000004,311.7492834000004,311.7492834000004,311.7492834000004,311.7492834000004,311.7492834000004,311.7492834000004,008,P005,2025_Jan_18_1629,ConditionRich,2021.2.3,60.124337130156285,
256.75,260.0,41,0.0,Stimuli/Blank.png,0,0.0,0.0,0,114,114,114,,,,,,,,,,,,,256.7751809000001,0.025180900000123074,5,3.1974026000025333,312.49994270000025,312.49994270000025,312.49994270000025,312.49994270000025,312.49994270000025,312.49994270000025,312.49994270000025,312.49994270000025,312.49994270000025,312.49994270000025,008,P005,2025_Jan_18_1629,ConditionRich,2021.2.3,60.124337130156285,
260.0,260.75,17,0.75,Stimuli/P005/sun_bwsictslfxygpqbp.jpg,1,0.0,0.75,0,115,115,115,,,,,,,,,,,,,260.01043910000226,0.010439100002258783,4,0.39722189999883994,315.73611750000055,315.73611750000055,315.73611750000055,315.73611750000055,315.73611750000055,315.73611750000055,315.73611750000055,316.4700894000016,315.73611750000055,315.73611750000055,008,P005,2025_Jan_18_1629,ConditionRich,2021.2.3,60.124337130156285,
260.75,264.0,41,0.0,Stimuli/Blank.png,0,0.0,0.0,0,116,116,116,,,,,,,,,,,,,260.7615618999989,0.011561899998923764,5,3.2104349000001093,316.4867732999992,316.4867732999992,316.4867732999992,316.4867732999992,316.4867732999992,316.4867732999992,316.4867732999992,316.4867732999992,316.4867732999992,316.4867732999992,008,P005,2025_Jan_18_1629,ConditionRich,2021.2.3,60.124337130156285,
264.0,264.75,27,0.75,Stimuli/P005/things_first-aid_kit_03s.jpg,0,0.0,0.0,0,117,117,117,,,,,,,,,,,,,264.0138560000014,0.013856000001396751,None,,319.73964120000164,319.73964120000164,319.73964120000164,319.73964120000164,319.73964120000164,319.73964120000164,319.73964120000164,319.73964120000164,319.73964120000164,319.73964120000164,008,P005,2025_Jan_18_1629,ConditionRich,2021.2.3,60.124337130156285,
264.75,268.0,41,0.0,Stimuli/Blank.png,1,1.25,2.0,0,118,118,118,,,,,,,,,,,,,264.76522860000114,0.015228600001137238,4,1.720917599999666,320.49029940000037,320.49029940000037,320.49029940000037,320.49029940000037,320.49029940000037,320.49029940000037,321.72474069999953,322.4753700000001,320.49029940000037,320.49029940000037,008,P005,2025_Jan_18_1629,ConditionRich,2021.2.3,60.124337130156285,
268.0,268.75,16,0.75,Stimuli/P005/sun_bwentnobehmvaxkp.jpg,0,0.0,0.0,0,119,119,119,,,,,,,,,,,,,268.00156849999985,0.0015684999998484273,None,,323.72647510000024,323.72647510000024,323.72647510000024,323.72647510000024,323.72647510000024,323.72647510000024,323.72647510000024,323.72647510000024,323.72647510000024,323.72647510000024,008,P005,2025_Jan_18_1629,ConditionRich,2021.2.3,60.124337130156285,
268.75,272.0,41,0.0,Stimuli/Blank.png,0,0.0,0.0,0,120,120,120,,,,,,,,,,,,,268.7512620000016,0.0012620000015886035,5,3.2200006999992183,324.47713550000117,324.47713550000117,324.47713550000117,324.47713550000117,324.47713550000117,324.47713550000117,324.47713550000117,324.47713550000117,324.47713550000117,324.47713550000117,008,P005,2025_Jan_18_1629,ConditionRich,2021.2.3,60.124337130156285,
272.0,272.75,9,0.75,Stimuli/P005/sun_bfcmdrojsffdttzu.jpg,1,0.0,0.75,0,121,121,121,,,,,,,,,,,,,272.005215600002,0.005215600001974963,4,0.43442230000073323,327.74670719999995,327.74670719999995,327.74670719999995,327.74670719999995,327.74670719999995,327.74670719999995,327.74670719999995,328.464115499999,327.74670719999995,327.74670719999995,008,P005,2025_Jan_18_1629,ConditionRich,2021.2.3,60.124337130156285,
272.75,276.0,41,0.0,Stimuli/Blank.png,0,0.0,0.0,0,122,122,122,,,,,,,,,,,,,272.77180000000226,0.021800000002258457,5,3.1998137999980827,328.4973444999996,328.4973444999996,328.4973444999996,328.4973444999996,328.4973444999996,328.4973444999996,328.4973444999996,328.4973444999996,328.4973444999996,328.4973444999996,008,P005,2025_Jan_18_1629,ConditionRich,2021.2.3,60.124337130156285,
276.0,292.0,0,0.0,Stimuli/Blank.png,1,1.0,1.75,0,123,123,123,,,,,,,,,,,,,276.0108877999992,0.01088779999918188,5,15.94696489999842,331.75021090000155,331.75021090000155,331.75021090000155,331.75021090000155,331.75021090000155,331.75021090000155,332.73439789999975,333.4850585999993,331.75021090000155,331.75021090000155,008,P005,2025_Jan_18_1629,ConditionRich,2021.2.3,60.124337130156285,
292.0,292.75,8,0.75,Stimuli/P005/sun_bekkgqphzbclwpvb.jpg,0,0.0,0.0,0,124,124,124,,,,,,,,,,,,,292.02258509999956,0.022585099999560043,None,,347.7643047999991,347.7643047999991,347.7643047999991,347.7643047999991,347.7643047999991,347.7643047999991,347.7643047999991,347.7643047999991,347.7643047999991,347.7643047999991,008,P005,2025_Jan_18_1629,ConditionRich,2021.2.3,60.124337130156285,
292.75,296.0,41,0.0,Stimuli/Blank.png,0,0.0,0.0,0,125,125,125,,,,,,,,,,,,,292.77372710000054,0.023727100000542123,5,3.198800400001346,348.4982884000019,348.4982884000019,348.4982884000019,348.4982884000019,348.4982884000019,348.4982884000019,348.4982884000019,348.4982884000019,348.4982884000019,348.4982884000019,008,P005,2025_Jan_18_1629,ConditionRich,2021.2.3,60.124337130156285,
296.0,296.75,7,0.75,Stimuli/P005/sun_bdmdlkpsznknrcqi.jpg,0,0.0,0.0,0,126,126,126,,,,,,,,,,,,,296.0118594000014,0.011859400001412723,None,,351.751149300002,351.751149300002,351.751149300002,351.751149300002,351.751149300002,351.751149300002,351.751149300002,351.751149300002,351.751149300002,351.751149300002,008,P005,2025_Jan_18_1629,ConditionRich,2021.2.3,60.124337130156285,
296.75,300.0,41,0.0,Stimuli/Blank.png,0,0.0,0.0,0,127,127,127,,,,,,,,,,,,,296.7766403000023,0.02664030000232742,5,3.1954088999991654,352.5018039000024,352.5018039000024,352.5018039000024,352.5018039000024,352.5018039000024,352.5018039000024,352.5018039000024,352.5018039000024,352.5018039000024,352.5018039000024,008,P005,2025_Jan_18_1629,ConditionRich,2021.2.3,60.124337130156285,
300.0,300.75,30,0.75,Stimuli/P005/things_hood_03s.jpg,0,0.0,0.0,0,128,128,128,,,,,,,,,,,,,300.0125810999998,0.012581099999806611,None,,355.7379903000001,355.7379903000001,355.7379903000001,355.7379903000001,355.7379903000001,355.7379903000001,355.7379903000001,355.7379903000001,355.7379903000001,355.7379903000001,008,P005,2025_Jan_18_1629,ConditionRich,2021.2.3,60.124337130156285,
300.75,304.0,41,0.0,Stimuli/Blank.png,0,0.0,0.0,0,129,129,129,,,,,,,,,,,,,300.7629412000024,0.012941200002387632,5,1.208407799997076,356.48865880000085,356.48865880000085,356.48865880000085,356.48865880000085,356.48865880000085,356.48865880000085,356.48865880000085,356.48865880000085,356.48865880000085,356.48865880000085,008,P005,2025_Jan_18_1629,ConditionRich,2021.2.3,60.124337130156285,
304.0,304.75,20,0.75,Stimuli/P005/sun_dvxuxzytfdbjyzit.jpg,0,0.0,0.0,0,130,130,130,,,,,,,,,,,,,303.99978270000065,-0.0002172999993490521,None,,359.7415017000021,359.7415017000021,359.7415017000021,359.7415017000021,359.7415017000021,359.7415017000021,359.7415017000021,359.7415017000021,359.7415017000021,359.7415017000021,008,P005,2025_Jan_18_1629,ConditionRich,2021.2.3,60.124337130156285,
304.75,308.0,41,0.0,Stimuli/Blank.png,1,0.25,1.0,0,131,131,131,,,,,,,,,,,,,304.76717479999934,0.017174799999338575,5,1.2048665000002075,360.49217470000076,360.49217470000076,360.49217470000076,360.49217470000076,360.49217470000076,360.49217470000076,360.72570970000015,361.47641099999964,360.49217470000076,360.49217470000076,008,P005,2025_Jan_18_1629,ConditionRich,2021.2.3,60.124337130156285,
308.0,308.75,39,0.75,Stimuli/P005/things_train_set_03s.jpg,0,0.0,0.0,0,132,132,132,,,,,,,,,,,,,308.00531279999996,0.005312799999956042,None,,363.7450444999995,363.7450444999995,363.7450444999995,363.7450444999995,363.7450444999995,363.7450444999995,363.7450444999995,363.7450444999995,363.7450444999995,363.7450444999995,008,P005,2025_Jan_18_1629,ConditionRich,2021.2.3,60.124337130156285,
308.75,312.0,41,0.0,Stimuli/Blank.png,0,0.0,0.0,0,133,133,133,,,,,,,,,,,,,308.77169290000165,0.02169290000165347,5,3.1845485999983794,364.51256990000184,364.51256990000184,364.51256990000184,364.51256990000184,364.51256990000184,364.51256990000184,364.51256990000184,364.51256990000184,364.51256990000184,364.51256990000184,008,P005,2025_Jan_18_1629,ConditionRich,2021.2.3,60.124337130156285,
312.0,312.75,25,0.75,Stimuli/P005/things_dog_03s.jpg,0,0.0,0.0,0,134,134,134,,,,,,,,,,,,,312.0257195000013,0.025719500001287088,None,,367.76524470000004,367.76524470000004,367.76524470000004,367.76524470000004,367.76524470000004,367.76524470000004,367.76524470000004,367.76524470000004,367.76524470000004,367.76524470000004,008,P005,2025_Jan_18_1629,ConditionRich,2021.2.3,60.124337130156285,
312.75,316.0,41,0.0,Stimuli/Blank.png,0,0.0,0.0,0,135,135,135,,,,,,,,,,,,,312.77542390000235,0.02542390000235173,5,3.1812357999988308,368.5159115999995,368.5159115999995,368.5159115999995,368.5159115999995,368.5159115999995,368.5159115999995,368.5159115999995,368.5159115999995,368.5159115999995,368.5159115999995,008,P005,2025_Jan_18_1629,ConditionRich,2021.2.3,60.124337130156285,
316.0,316.75,3,0.75,Stimuli/P005/sun_asyidwmnobuawmax.jpg,0,0.0,0.0,0,136,136,136,,,,,,,,,,,,,316.02666379999937,0.026663799999369076,None,,371.7520893000001,371.7520893000001,371.7520893000001,371.7520893000001,371.7520893000001,371.7520893000001,371.7520893000001,371.7520893000001,371.7520893000001,371.7520893000001,008,P005,2025_Jan_18_1629,ConditionRich,2021.2.3,60.124337130156285,
316.75,320.0,41,0.0,Stimuli/Blank.png,0,0.0,0.0,0,137,137,137,,,,,,,,,,,,,316.76110130000234,0.011101300002337666,5,3.1942495000002964,372.5027654000005,372.5027654000005,372.5027654000005,372.5027654000005,372.5027654000005,372.5027654000005,372.5027654000005,372.5027654000005,372.5027654000005,372.5027654000005,008,P005,2025_Jan_18_1629,ConditionRich,2021.2.3,60.124337130156285,
320.0,320.75,6,0.75,Stimuli/P005/sun_bbzkhzmxdjrfjpjz.jpg,0,0.0,0.0,0,138,138,138,,,,,,,,,,,,,320.0308440000008,0.030844000000797678,None,,375.7722896000014,375.7722896000014,375.7722896000014,375.7722896000014,375.7722896000014,375.7722896000014,375.7722896000014,375.7722896000014,375.7722896000014,375.7722896000014,008,P005,2025_Jan_18_1629,ConditionRich,2021.2.3,60.124337130156285,
320.75,324.0,41,0.0,Stimuli/Blank.png,0,0.0,0.0,0,139,139,139,,,,,,,,,,,,,320.7809233000007,0.03092330000072252,5,1.1906966999995348,376.50626380000176,376.50626380000176,376.50626380000176,376.50626380000176,376.50626380000176,376.50626380000176,376.50626380000176,376.50626380000176,376.50626380000176,376.50626380000176,008,P005,2025_Jan_18_1629,ConditionRich,2021.2.3,60.124337130156285,
324.0,324.75,24,0.75,Stimuli/P005/things_crab_03s.jpg,0,0.0,0.0,0,140,140,140,,,,,,,,,,,,,324.0009479,0.0009479000000283122,None,,379.7424534999991,379.7424534999991,379.7424534999991,379.7424534999991,379.7424534999991,379.7424534999991,379.7424534999991,379.7424534999991,379.7424534999991,379.7424534999991,008,P005,2025_Jan_18_1629,ConditionRich,2021.2.3,60.124337130156285,
324.75,328.0,41,0.0,Stimuli/Blank.png,0,0.0,0.0,0,141,141,141,,,,,,,,,,,,,324.7680216000008,0.018021600000793114,5,3.2038271999990684,380.4931279000011,380.4931279000011,380.4931279000011,380.4931279000011,380.4931279000011,380.4931279000011,380.4931279000011,380.4931279000011,380.4931279000011,380.4931279000011,008,P005,2025_Jan_18_1629,ConditionRich,2021.2.3,60.124337130156285,
328.0,328.75,2,0.75,Stimuli/P005/sun_ahmycohdkioefoxs.jpg,1,0.0,0.75,0,142,142,142,,,,,,,,,,,,,328.0057667000001,0.0057667000000947155,4,0.37106520000088494,383.74597429999994,383.74597429999994,383.74597429999994,383.74597429999994,383.74597429999994,383.74597429999994,383.74597429999994,384.4799520000015,383.74597429999994,383.74597429999994,008,P005,2025_Jan_18_1629,ConditionRich,2021.2.3,60.124337130156285,
328.75,332.0,41,0.0,Stimuli/Blank.png,0,0.0,0.0,0,143,143,143,,,,,,,,,,,,,328.77152170000045,0.021521700000448618,5,3.2004146999970544,384.4966260000001,384.4966260000001,384.4966260000001,384.4966260000001,384.4966260000001,384.4966260000001,384.4966260000001,384.4966260000001,384.4966260000001,384.4966260000001,008,P005,2025_Jan_18_1629,ConditionRich,2021.2.3,60.124337130156285,
332.0,332.75,21,0.75,Stimuli/P005/things_accordion_03s.jpg,0,0.0,0.0,0,144,144,144,,,,,,,,,,,,,332.0076059999992,0.007605999999213964,None,,387.74950680000256,387.74950680000256,387.74950680000256,387.74950680000256,387.74950680000256,387.74950680000256,387.74950680000256,387.74950680000256,387.74950680000256,387.74950680000256,008,P005,2025_Jan_18_1629,ConditionRich,2021.2.3,60.124337130156285,
332.75,336.0,41,0.0,Stimuli/Blank.png,0,0.0,0.0,0,145,145,145,,,,,,,,,,,,,332.77494189999925,0.024941899999248562,5,3.1969150000004447,388.5001618000024,388.5001618000024,388.5001618000024,388.5001618000024,388.5001618000024,388.5001618000024,388.5001618000024,388.5001618000024,388.5001618000024,388.5001618000024,008,P005,2025_Jan_18_1629,ConditionRich,2021.2.3,60.124337130156285,
336.0,336.75,38,0.75,Stimuli/P005/things_sledgehammer_03s.jpg,0,0.0,0.0,0,146,146,146,,,,,,,,,,,,,336.0115642000019,0.011564200001885183,None,,391.7363361000025,391.7363361000025,391.7363361000025,391.7363361000025,391.7363361000025,391.7363361000025,391.7363361000025,391.7363361000025,391.7363361000025,391.7363361000025,008,P005,2025_Jan_18_1629,ConditionRich,2021.2.3,60.124337130156285,
336.75,340.0,41,0.0,Stimuli/Blank.png,0,0.0,0.0,0,147,147,147,,,,,,,,,,,,,336.76134970000203,0.01134970000202884,5,3.2098699000016495,392.4869963000019,392.4869963000019,392.4869963000019,392.4869963000019,392.4869963000019,392.4869963000019,392.4869963000019,392.4869963000019,392.4869963000019,392.4869963000019,008,P005,2025_Jan_18_1629,ConditionRich,2021.2.3,60.124337130156285,
340.0,340.75,33,0.75,Stimuli/P005/things_man_03s.jpg,0,0.0,0.0,0,148,148,148,,,,,,,,,,,,,340.01481609999973,0.014816099999734433,None,,395.7398596000021,395.7398596000021,395.7398596000021,395.7398596000021,395.7398596000021,395.7398596000021,395.7398596000021,395.7398596000021,395.7398596000021,395.7398596000021,008,P005,2025_Jan_18_1629,ConditionRich,2021.2.3,60.124337130156285,
340.75,344.0,41,0.0,Stimuli/Blank.png,0,0.0,0.0,0,149,149,149,,,,,,,,,,,,,340.7659999999996,0.01599999999962165,5,1.2066407000020263,396.49052669999946,396.49052669999946,396.49052669999946,396.49052669999946,396.49052669999946,396.49052669999946,396.49052669999946,396.49052669999946,396.49052669999946,396.49052669999946,008,P005,2025_Jan_18_1629,ConditionRich,2021.2.3,60.124337130156285,
344.0,344.75,12,0.75,Stimuli/P005/sun_bodyuiqwqpqzwfoz.jpg,0,0.0,0.0,0,150,150,150,,,,,,,,,,,,,344.0008110999988,0.000811099998827558,None,,399.726718599999,399.726718599999,399.726718599999,399.726718599999,399.726718599999,399.726718599999,399.726718599999,399.726718599999,399.726718599999,399.726718599999,008,P005,2025_Jan_18_1629,ConditionRich,2021.2.3,60.124337130156285,
344.75,348.0,41,0.0,Stimuli/Blank.png,0,0.0,0.0,0,151,151,151,,,,,,,,,,,,,344.7517628000023,0.0017628000023250934,5,3.219862699999794,400.4773635999991,400.4773635999991,400.4773635999991,400.4773635999991,400.4773635999991,400.4773635999991,400.4773635999991,400.4773635999991,400.4773635999991,400.4773635999991,008,P005,2025_Jan_18_1629,ConditionRich,2021.2.3,60.124337130156285,
348.0,348.75,14,0.75,Stimuli/P005/sun_bsirencncgxteejx.jpg,0,0.0,0.0,0,152,152,152,,,,,,,,,,,,,348.0051358000019,0.0051358000018808525,None,,403.7469325999991,403.7469325999991,403.7469325999991,403.7469325999991,403.7469325999991,403.7469325999991,403.7469325999991,403.7469325999991,403.7469325999991,403.7469325999991,008,P005,2025_Jan_18_1629,ConditionRich,2021.2.3,60.124337130156285,
348.75,352.0,41,0.0,Stimuli/Blank.png,1,2.25,3.0,0,153,153,153,,,,,,,,,,,,,348.7725074000009,0.022507400000904454,5,3.199233199997252,404.49757580000005,404.49757580000005,404.49757580000005,404.49757580000005,404.49757580000005,404.49757580000005,406.73398680000173,407.48356649999914,404.49757580000005,404.49757580000005,008,P005,2025_Jan_18_1629,ConditionRich,2021.2.3,60.124337130156285,
352.0,352.75,15,0.75,Stimuli/P005/sun_btkzuhaxqlacvmsv.jpg,0,0.0,0.0,0,154,154,154,,,,,,,,,,,,,352.01083260000087,0.010832600000867387,None,,407.75044010000056,407.75044010000056,407.75044010000056,407.75044010000056,407.75044010000056,407.75044010000056,407.75044010000056,407.75044010000056,407.75044010000056,407.75044010000056,008,P005,2025_Jan_18_1629,ConditionRich,2021.2.3,60.124337130156285,
352.75,356.0,41,0.0,Stimuli/Blank.png,1,1.25,2.0,0,155,155,155,,,,,,,,,,,,,352.7762193999988,0.026219399998808512,5,3.1956494000005478,408.5010906999996,408.5010906999996,408.5010906999996,408.5010906999996,408.5010906999996,408.5010906999996,409.73552159999963,410.48621640000056,408.5010906999996,408.5010906999996,008,P005,2025_Jan_18_1629,ConditionRich,2021.2.3,60.124337130156285,
356.0,356.75,4,0.75,Stimuli/P005/sun_auwghripdoxzluuk.jpg,0,0.0,0.0,0,156,156,156,,,,,,,,,,,,,356.01191019999897,0.011910199998965254,None,,411.7372660000001,411.7372660000001,411.7372660000001,411.7372660000001,411.7372660000001,411.7372660000001,411.7372660000001,411.7372660000001,411.7372660000001,411.7372660000001,008,P005,2025_Jan_18_1629,ConditionRich,2021.2.3,60.124337130156285,
356.75,360.0,41,0.0,Stimuli/Blank.png,0,0.0,0.0,0,157,157,157,,,,,,,,,,,,,356.7628970000005,0.012897000000521075,5,1.2089090000008582,412.48793690000093,412.48793690000093,412.48793690000093,412.48793690000093,412.48793690000093,412.48793690000093,412.48793690000093,412.48793690000093,412.48793690000093,412.48793690000093,008,P005,2025_Jan_18_1629,ConditionRich,2021.2.3,60.124337130156285,
360.0,360.75,31,0.75,Stimuli/P005/things_jukebox_03n.jpg,0,0.0,0.0,0,158,158,158,,,,,,,,,,,,,360.0008794000023,0.0008794000023044646,None,,415.7407989000021,415.7407989000021,415.7407989000021,415.7407989000021,415.7407989000021,415.7407989000021,415.7407989000021,415.7407989000021,415.7407989000021,415.7407989000021,008,P005,2025_Jan_18_1629,ConditionRich,2021.2.3,60.124337130156285,
360.75,364.0,41,0.0,Stimuli/Blank.png,0,0.0,0.0,0,159,159,159,,,,,,,,,,,,,360.76589800000147,0.01589800000147079,5,1.2056329999977606,416.49148050000076,416.49148050000076,416.49148050000076,416.49148050000076,416.49148050000076,416.49148050000076,416.49148050000076,416.49148050000076,416.49148050000076,416.49148050000076,008,P005,2025_Jan_18_1629,ConditionRich,2021.2.3,60.124337130156285,
364.0,364.75,19,0.75,Stimuli/P005/sun_czspalxthlkjwoat.jpg,0,0.0,0.0,0,160,160,160,,,,,,,,,,,,,364.0026481999994,0.002648199999384815,None,,419.74432810000144,419.74432810000144,419.74432810000144,419.74432810000144,419.74432810000144,419.74432810000144,419.74432810000144,419.74432810000144,419.74432810000144,419.74432810000144,008,P005,2025_Jan_18_1629,ConditionRich,2021.2.3,60.124337130156285,
364.75,368.0,41,0.0,Stimuli/Blank.png,0,0.0,0.0,0,161,161,161,,,,,,,,,,,,,364.7704995000022,0.020499500002188142,5,3.201945800003159,420.494987099999,420.494987099999,420.494987099999,420.494987099999,420.494987099999,420.494987099999,420.494987099999,420.494987099999,420.494987099999,420.494987099999,008,P005,2025_Jan_18_1629,ConditionRich,2021.2.3,60.124337130156285,
368.0,368.75,40,0.75,Stimuli/P005/things_woman_03s.jpg,0,0.0,0.0,0,162,162,162,,,,,,,,,,,,,368.00602770000114,0.006027700001141056,None,,423.73116429999936,423.73116429999936,423.73116429999936,423.73116429999936,423.73116429999936,423.73116429999936,423.73116429999936,423.73116429999936,423.73116429999936,423.73116429999936,008,P005,2025_Jan_18_1629,ConditionRich,2021.2.3,60.124337130156285,
368.75,372.0,41,0.0,Stimuli/Blank.png,0,0.0,0.0,0,163,163,163,,,,,,,,,,,,,368.75618380000014,0.0061838000001444016,5,3.214977400002681,424.481818799999,424.481818799999,424.481818799999,424.481818799999,424.481818799999,424.481818799999,424.481818799999,424.481818799999,424.481818799999,424.481818799999,008,P005,2025_Jan_18_1629,ConditionRich,2021.2.3,60.124337130156285,
372.0,388.0,0,0.0,Stimuli/Blank.png,1,11.0,11.75,0,164,164,164,,,,,,,,,,,,,372.00961520000055,0.009615200000553159,5,13.962139400002343,427.7346795000012,427.7346795000012,427.7346795000012,427.7346795000012,427.7346795000012,427.7346795000012,438.727734600001,439.4617281999999,427.7346795000012,427.7346795000012,008,P005,2025_Jan_18_1629,ConditionRich,2021.2.3,60.124337130156285,
