eventStartTime,eventEndTime,eventCond,imSize,imFile,responseEvent,fixRespStart,fixRespEnd,Events.thisRepN,Events.thisTrialN,Events.thisN,Events.thisIndex,Instructions.started,Instructions.stopped,participantReadyResponse.keys,participantReadyResponse.rt,participantReadyResponse.started,participantReadyResponse.stopped,startWaitforTrigger,triggerResponse.keys,triggerResponse.rt,triggerResponse.started,triggerResponse.stopped,globalTimer,actualStartTime,startTimingDiff,participantResponse.keys,participantResponse.rt,participantResponse.started,participantResponse.stopped,image.started,image.stopped,fixationOutside.started,fixationOutside.stopped,fixationResponse.started,fixationResponse.stopped,fixationInside.started,fixationInside.stopped,session,participant,date,expName,psychopyVersion,frameRate,
,,,,,,,,,,,,11.461518699998123,None,4,8.675688600000285,11.461518699998123,None,,,,,,,,,,,,,,,,,,,,,004,P005,2025_Jan_18_1554,ConditionRich,2021.2.3,59.934683182483056,
,,,,,,,,,,,,,,,,,,20.143500800000766,5,17.298781500001496,20.156373199999507,None,,,,,,,,,,,,,,,,004,P005,2025_Jan_18_1554,ConditionRich,2021.2.3,59.934683182483056,
0.0,4.0,0,0.0,Stimuli/Blank.png,0,0,0.0,0,0,0,0,,,,,,,,,,,,37.45846959999835,0.061023199999908684,0.061023199999908684,5,3.9168086999998195,37.538326199999574,None,37.538326199999574,None,37.538326199999574,None,37.538326199999574,37.538326199999574,37.538326199999574,None,004,P005,2025_Jan_18_1554,ConditionRich,2021.2.3,59.934683182483056,
4.0,4.75,6,0.75,Stimuli/P005/sun_bbzkhzmxdjrfjpjz.jpg,0,0,0.0,0,1,1,1,,,,,,,,,,,,,4.022018100000423,0.022018100000423146,None,,41.50882790000105,41.50882790000105,41.50882790000105,41.50882790000105,41.50882790000105,41.50882790000105,41.50882790000105,41.50882790000105,41.50882790000105,41.50882790000105,004,P005,2025_Jan_18_1554,ConditionRich,2021.2.3,59.934683182483056,
4.75,5.0,41,0.0,Stimuli/Blank.png,0,0,0.0,0,2,2,2,,,,,,,,,,,,,4.771892799999478,0.021892799999477575,None,,42.25941189999867,42.25941189999867,42.25941189999867,42.25941189999867,42.25941189999867,42.25941189999867,42.25941189999867,42.25941189999867,42.25941189999867,42.25941189999867,004,P005,2025_Jan_18_1554,ConditionRich,2021.2.3,59.934683182483056,
5.0,5.75,6,0.75,Stimuli/P005/sun_bbzkhzmxdjrfjpjz.jpg,0,0,0.0,0,3,3,3,,,,,,,,,,,,,5.022099399997387,0.02209939999738708,None,,42.50937259999773,42.50937259999773,42.50937259999773,42.50937259999773,42.50937259999773,42.50937259999773,42.50937259999773,42.50937259999773,42.50937259999773,42.50937259999773,004,P005,2025_Jan_18_1554,ConditionRich,2021.2.3,59.934683182483056,
5.75,6.0,41,0.0,Stimuli/Blank.png,0,0,0.0,0,4,4,4,,,,,,,,,,,,,5.771715699997003,0.021715699997002957,None,,43.24335760000031,43.24335760000031,43.24335760000031,43.24335760000031,43.24335760000031,43.24335760000031,43.24335760000031,43.24335760000031,43.24335760000031,43.24335760000031,004,P005,2025_Jan_18_1554,ConditionRich,2021.2.3,59.934683182483056,
6.0,6.75,6,0.75,Stimuli/P005/sun_bbzkhzmxdjrfjpjz.jpg,0,0,0.0,0,5,5,5,,,,,,,,,,,,,6.006802899999457,0.006802899999456713,None,,43.4935708999983,43.4935708999983,43.4935708999983,43.4935708999983,43.4935708999983,43.4935708999983,43.4935708999983,43.4935708999983,43.4935708999983,43.4935708999983,004,P005,2025_Jan_18_1554,ConditionRich,2021.2.3,59.934683182483056,
6.75,7.0,41,0.0,Stimuli/Blank.png,0,0,0.0,0,6,6,6,,,,,,,,,,,,,6.771881299999222,0.021881299999222392,None,,44.24423029999889,44.24423029999889,44.24423029999889,44.24423029999889,44.24423029999889,44.24423029999889,44.24423029999889,44.24423029999889,44.24423029999889,44.24423029999889,004,P005,2025_Jan_18_1554,ConditionRich,2021.2.3,59.934683182483056,
7.0,7.75,6,0.75,Stimuli/P005/sun_bbzkhzmxdjrfjpjz.jpg,0,0,0.0,0,7,7,7,,,,,,,,,,,,,7.005814099997224,0.0058140999972238205,None,,44.49444790000052,44.49444790000052,44.49444790000052,44.49444790000052,44.49444790000052,44.49444790000052,44.49444790000052,44.49444790000052,44.49444790000052,44.49444790000052,004,P005,2025_Jan_18_1554,ConditionRich,2021.2.3,59.934683182483056,
7.75,8.0,41,0.0,Stimuli/Blank.png,0,0,0.0,0,8,8,8,,,,,,,,,,,,,7.772208399997908,0.02220839999790769,None,,45.245116599999164,45.245116599999164,45.245116599999164,45.245116599999164,45.245116599999164,45.245116599999164,45.245116599999164,45.245116599999164,45.245116599999164,45.245116599999164,004,P005,2025_Jan_18_1554,ConditionRich,2021.2.3,59.934683182483056,
8.0,8.75,19,0.75,Stimuli/P005/sun_czspalxthlkjwoat.jpg,1,0,0.75,0,9,9,9,,,,,,,,,,,,,8.007119999998395,0.007119999998394633,4,0.39397939999980736,45.49533320000046,45.49533320000046,45.49533320000046,45.49533320000046,45.49533320000046,45.49533320000046,45.49533320000046,46.213196900000185,45.49533320000046,45.49533320000046,004,P005,2025_Jan_18_1554,ConditionRich,2021.2.3,59.934683182483056,
8.75,9.0,41,0.0,Stimuli/Blank.png,0,0,0.0,0,10,10,10,,,,,,,,,,,,,8.774048899998888,0.024048899998888373,None,,46.24599920000037,46.24599920000037,46.24599920000037,46.24599920000037,46.24599920000037,46.24599920000037,46.24599920000037,46.24599920000037,46.24599920000037,46.24599920000037,004,P005,2025_Jan_18_1554,ConditionRich,2021.2.3,59.934683182483056,
9.0,9.75,19,0.75,Stimuli/P005/sun_czspalxthlkjwoat.jpg,0,0,0.0,0,11,11,11,,,,,,,,,,,,,9.006650999999692,0.006650999999692431,None,,46.47956630000044,46.47956630000044,46.47956630000044,46.47956630000044,46.47956630000044,46.47956630000044,46.47956630000044,46.47956630000044,46.47956630000044,46.47956630000044,004,P005,2025_Jan_18_1554,ConditionRich,2021.2.3,59.934683182483056,
9.75,10.0,41,0.0,Stimuli/Blank.png,0,0,0.0,0,12,12,12,,,,,,,,,,,,,9.757635300000402,0.007635300000401912,None,,47.2302051000006,47.2302051000006,47.2302051000006,47.2302051000006,47.2302051000006,47.2302051000006,47.2302051000006,47.2302051000006,47.2302051000006,47.2302051000006,004,P005,2025_Jan_18_1554,ConditionRich,2021.2.3,59.934683182483056,
10.0,10.75,19,0.75,Stimuli/P005/sun_czspalxthlkjwoat.jpg,0,0,0.0,0,13,13,13,,,,,,,,,,,,,10.00812120000046,0.008121200000459794,None,,47.497060199999396,47.497060199999396,47.497060199999396,47.497060199999396,47.497060199999396,47.497060199999396,47.497060199999396,47.497060199999396,47.497060199999396,47.497060199999396,004,P005,2025_Jan_18_1554,ConditionRich,2021.2.3,59.934683182483056,
10.75,11.0,41,0.0,Stimuli/Blank.png,0,0,0.0,0,14,14,14,,,,,,,,,,,,,10.775510899999063,0.02551089999906253,None,,48.24777299999914,48.24777299999914,48.24777299999914,48.24777299999914,48.24777299999914,48.24777299999914,48.24777299999914,48.24777299999914,48.24777299999914,48.24777299999914,004,P005,2025_Jan_18_1554,ConditionRich,2021.2.3,59.934683182483056,
11.0,11.75,19,0.75,Stimuli/P005/sun_czspalxthlkjwoat.jpg,0,0,0.0,0,15,15,15,,,,,,,,,,,,,11.009192099998472,0.009192099998472258,None,,48.497965399998066,48.497965399998066,48.497965399998066,48.497965399998066,48.497965399998066,48.497965399998066,48.497965399998066,48.497965399998066,48.497965399998066,48.497965399998066,004,P005,2025_Jan_18_1554,ConditionRich,2021.2.3,59.934683182483056,
11.75,12.0,41,0.0,Stimuli/Blank.png,0,0,0.0,0,16,16,16,,,,,,,,,,,,,11.776290300000255,0.02629030000025523,None,,49.24864059999891,49.24864059999891,49.24864059999891,49.24864059999891,49.24864059999891,49.24864059999891,49.24864059999891,49.24864059999891,49.24864059999891,49.24864059999891,004,P005,2025_Jan_18_1554,ConditionRich,2021.2.3,59.934683182483056,
12.0,12.75,15,0.75,Stimuli/P005/sun_btkzuhaxqlacvmsv.jpg,0,0,0.0,0,17,17,17,,,,,,,,,,,,,12.010117800000444,0.010117800000443822,None,,49.49885319999885,49.49885319999885,49.49885319999885,49.49885319999885,49.49885319999885,49.49885319999885,49.49885319999885,49.49885319999885,49.49885319999885,49.49885319999885,004,P005,2025_Jan_18_1554,ConditionRich,2021.2.3,59.934683182483056,
12.75,13.0,41,0.0,Stimuli/Blank.png,0,0,0.0,0,18,18,18,,,,,,,,,,,,,12.77671989999726,0.026719899997260654,None,,50.249492799997824,50.249492799997824,50.249492799997824,50.249492799997824,50.249492799997824,50.249492799997824,50.249492799997824,50.249492799997824,50.249492799997824,50.249492799997824,004,P005,2025_Jan_18_1554,ConditionRich,2021.2.3,59.934683182483056,
13.0,13.75,15,0.75,Stimuli/P005/sun_btkzuhaxqlacvmsv.jpg,0,0,0.0,0,19,19,19,,,,,,,,,,,,,13.010065999998915,0.010065999998914776,None,,50.48305509999773,50.48305509999773,50.48305509999773,50.48305509999773,50.48305509999773,50.48305509999773,50.48305509999773,50.48305509999773,50.48305509999773,50.48305509999773,004,P005,2025_Jan_18_1554,ConditionRich,2021.2.3,59.934683182483056,
13.75,14.0,41,0.0,Stimuli/Blank.png,0,0,0.0,0,20,20,20,,,,,,,,,,,,,13.761566099998163,0.011566099998162827,5,0.20495450000089477,51.250440899999376,51.250440899999376,51.250440899999376,51.250440899999376,51.250440899999376,51.250440899999376,51.250440899999376,51.250440899999376,51.250440899999376,51.250440899999376,004,P005,2025_Jan_18_1554,ConditionRich,2021.2.3,59.934683182483056,
14.0,14.75,15,0.75,Stimuli/P005/sun_btkzuhaxqlacvmsv.jpg,0,0,0.0,0,21,21,21,,,,,,,,,,,,,14.028316500000074,0.028316500000073574,None,,51.50061600000117,51.50061600000117,51.50061600000117,51.50061600000117,51.50061600000117,51.50061600000117,51.50061600000117,51.50061600000117,51.50061600000117,51.50061600000117,004,P005,2025_Jan_18_1554,ConditionRich,2021.2.3,59.934683182483056,
14.75,15.0,41,0.0,Stimuli/Blank.png,0,0,0.0,0,22,22,22,,,,,,,,,,,,,14.762387799997668,0.01238779999766848,None,,52.23459300000104,52.23459300000104,52.23459300000104,52.23459300000104,52.23459300000104,52.23459300000104,52.23459300000104,52.23459300000104,52.23459300000104,52.23459300000104,004,P005,2025_Jan_18_1554,ConditionRich,2021.2.3,59.934683182483056,
15.0,15.75,15,0.75,Stimuli/P005/sun_btkzuhaxqlacvmsv.jpg,0,0,0.0,0,23,23,23,,,,,,,,,,,,,15.01255719999972,0.01255719999971916,None,,52.48481460000039,52.48481460000039,52.48481460000039,52.48481460000039,52.48481460000039,52.48481460000039,52.48481460000039,52.48481460000039,52.48481460000039,52.48481460000039,004,P005,2025_Jan_18_1554,ConditionRich,2021.2.3,59.934683182483056,
15.75,16.0,41,0.0,Stimuli/Blank.png,0,0,0.0,0,24,24,24,,,,,,,,,,,,,15.762687200000073,0.012687200000073062,None,,53.235478099999455,53.235478099999455,53.235478099999455,53.235478099999455,53.235478099999455,53.235478099999455,53.235478099999455,53.235478099999455,53.235478099999455,53.235478099999455,004,P005,2025_Jan_18_1554,ConditionRich,2021.2.3,59.934683182483056,
16.0,16.75,4,0.75,Stimuli/P005/sun_auwghripdoxzluuk.jpg,0,0,0.0,0,25,25,25,,,,,,,,,,,,,16.0128380999995,0.012838099999498809,None,,53.48569589999897,53.48569589999897,53.48569589999897,53.48569589999897,53.48569589999897,53.48569589999897,53.48569589999897,53.48569589999897,53.48569589999897,53.48569589999897,004,P005,2025_Jan_18_1554,ConditionRich,2021.2.3,59.934683182483056,
16.75,17.0,41,0.0,Stimuli/Blank.png,0,0,0.0,0,26,26,26,,,,,,,,,,,,,16.763849399998435,0.01384939999843482,None,,54.2364333000005,54.2364333000005,54.2364333000005,54.2364333000005,54.2364333000005,54.2364333000005,54.2364333000005,54.2364333000005,54.2364333000005,54.2364333000005,004,P005,2025_Jan_18_1554,ConditionRich,2021.2.3,59.934683182483056,
17.0,17.75,4,0.75,Stimuli/P005/sun_auwghripdoxzluuk.jpg,0,0,0.0,0,27,27,27,,,,,,,,,,,,,17.014966599999752,0.014966599999752361,None,,54.50325940000039,54.50325940000039,54.50325940000039,54.50325940000039,54.50325940000039,54.50325940000039,54.50325940000039,54.50325940000039,54.50325940000039,54.50325940000039,004,P005,2025_Jan_18_1554,ConditionRich,2021.2.3,59.934683182483056,
17.75,18.0,41,0.0,Stimuli/Blank.png,0,0,0.0,0,28,28,28,,,,,,,,,,,,,17.78206289999798,0.03206289999798173,5,0.18438830000013695,55.27074350000112,55.27074350000112,55.27074350000112,55.27074350000112,55.27074350000112,55.27074350000112,55.27074350000112,55.27074350000112,55.27074350000112,55.27074350000112,004,P005,2025_Jan_18_1554,ConditionRich,2021.2.3,59.934683182483056,
18.0,18.75,4,0.75,Stimuli/P005/sun_auwghripdoxzluuk.jpg,1,0,0.75,0,29,29,29,,,,,,,,,,,,,18.03189569999813,0.03189569999813102,4,0.509136299999227,55.504139299999224,56.22143359999973,55.504139299999224,56.22143359999973,55.504139299999224,56.22143359999973,55.504139299999224,None,55.504139299999224,56.22143359999973,004,P005,2025_Jan_18_1554,ConditionRich,2021.2.3,59.934683182483056,
18.75,19.0,41,0.0,Stimuli/Blank.png,0,0,0.0,0,30,30,30,,,,,,,,,,,,,18.76613509999879,0.016135099998791702,None,,56.23811930000011,None,56.23811930000011,None,56.23811930000011,None,56.23811930000011,56.23811930000011,56.23811930000011,None,004,P005,2025_Jan_18_1554,ConditionRich,2021.2.3,59.934683182483056,
19.0,19.75,4,0.75,Stimuli/P005/sun_auwghripdoxzluuk.jpg,0,0,0.0,0,31,31,31,,,,,,,,,,,,,19.0013607999972,0.0013607999972009566,None,,56.48834100000022,56.48834100000022,56.48834100000022,56.48834100000022,56.48834100000022,56.48834100000022,56.48834100000022,56.48834100000022,56.48834100000022,56.48834100000022,004,P005,2025_Jan_18_1554,ConditionRich,2021.2.3,59.934683182483056,
19.75,20.0,41,0.0,Stimuli/Blank.png,0,0,0.0,0,32,32,32,,,,,,,,,,,,,19.766695599999366,0.016695599999366095,5,0.19946749999871827,57.255730400000175,57.255730400000175,57.255730400000175,57.255730400000175,57.255730400000175,57.255730400000175,57.255730400000175,57.255730400000175,57.255730400000175,57.255730400000175,004,P005,2025_Jan_18_1554,ConditionRich,2021.2.3,59.934683182483056,
20.0,20.75,35,0.75,Stimuli/P005/things_pig_03s.jpg,0,0,0.0,0,33,33,33,,,,,,,,,,,,,20.01642879999781,0.01642879999781144,None,,57.48922289999973,57.48922289999973,57.48922289999973,57.48922289999973,57.48922289999973,57.48922289999973,57.48922289999973,57.48922289999973,57.48922289999973,57.48922289999973,004,P005,2025_Jan_18_1554,ConditionRich,2021.2.3,59.934683182483056,
20.75,21.0,41,0.0,Stimuli/Blank.png,0,0,0.0,0,34,34,34,,,,,,,,,,,,,20.751062399998773,0.0010623999987728894,None,,58.22320369999943,58.22320369999943,58.22320369999943,58.22320369999943,58.22320369999943,58.22320369999943,58.22320369999943,58.22320369999943,58.22320369999943,58.22320369999943,004,P005,2025_Jan_18_1554,ConditionRich,2021.2.3,59.934683182483056,
21.0,21.75,35,0.75,Stimuli/P005/things_pig_03s.jpg,0,0,0.0,0,35,35,35,,,,,,,,,,,,,21.000812499998574,0.0008124999985739123,None,,58.47342209999988,58.47342209999988,58.47342209999988,58.47342209999988,58.47342209999988,58.47342209999988,58.47342209999988,58.47342209999988,58.47342209999988,58.47342209999988,004,P005,2025_Jan_18_1554,ConditionRich,2021.2.3,59.934683182483056,
21.75,22.0,41,0.0,Stimuli/Blank.png,0,0,0.0,0,36,36,36,,,,,,,,,,,,,21.752630399998452,0.0026303999984520487,None,,59.22408050000013,59.22408050000013,59.22408050000013,59.22408050000013,59.22408050000013,59.22408050000013,59.22408050000013,59.22408050000013,59.22408050000013,59.22408050000013,004,P005,2025_Jan_18_1554,ConditionRich,2021.2.3,59.934683182483056,
22.0,22.75,35,0.75,Stimuli/P005/things_pig_03s.jpg,0,0,0.0,0,37,37,37,,,,,,,,,,,,,22.001967599997442,0.0019675999974424485,None,,59.474306600001,59.474306600001,59.474306600001,59.474306600001,59.474306600001,59.474306600001,59.474306600001,59.474306600001,59.474306600001,59.474306600001,004,P005,2025_Jan_18_1554,ConditionRich,2021.2.3,59.934683182483056,
22.75,23.0,41,0.0,Stimuli/Blank.png,0,0,0.0,0,38,38,38,,,,,,,,,,,,,22.752288699997735,0.0022886999977345113,None,,60.22495979999803,60.22495979999803,60.22495979999803,60.22495979999803,60.22495979999803,60.22495979999803,60.22495979999803,60.22495979999803,60.22495979999803,60.22495979999803,004,P005,2025_Jan_18_1554,ConditionRich,2021.2.3,59.934683182483056,
23.0,23.75,35,0.75,Stimuli/P005/things_pig_03s.jpg,0,0,0.0,0,39,39,39,,,,,,,,,,,,,23.00252669999827,0.0025266999982704874,None,,60.47518499999933,60.47518499999933,60.47518499999933,60.47518499999933,60.47518499999933,60.47518499999933,60.47518499999933,60.47518499999933,60.47518499999933,60.47518499999933,004,P005,2025_Jan_18_1554,ConditionRich,2021.2.3,59.934683182483056,
23.75,24.0,41,0.0,Stimuli/Blank.png,0,0,0.0,0,40,40,40,,,,,,,,,,,,,23.753597299997637,0.0035972999976365827,None,,61.22593509999933,61.22593509999933,61.22593509999933,61.22593509999933,61.22593509999933,61.22593509999933,61.22593509999933,61.22593509999933,61.22593509999933,61.22593509999933,004,P005,2025_Jan_18_1554,ConditionRich,2021.2.3,59.934683182483056,
24.0,24.75,22,0.75,Stimuli/P005/things_baby_03s.jpg,0,0,0.0,0,41,41,41,,,,,,,,,,,,,24.004089300000487,0.004089300000487128,None,,61.476073499998165,61.476073499998165,61.476073499998165,61.476073499998165,61.476073499998165,61.476073499998165,61.476073499998165,61.476073499998165,61.476073499998165,61.476073499998165,004,P005,2025_Jan_18_1554,ConditionRich,2021.2.3,59.934683182483056,
24.75,25.0,41,0.0,Stimuli/Blank.png,0,0,0.0,0,42,42,42,,,,,,,,,,,,,24.756013999998686,0.006013999998685904,None,,62.243408700000145,62.243408700000145,62.243408700000145,62.243408700000145,62.243408700000145,62.243408700000145,62.243408700000145,62.243408700000145,62.243408700000145,62.243408700000145,004,P005,2025_Jan_18_1554,ConditionRich,2021.2.3,59.934683182483056,
25.0,25.75,22,0.75,Stimuli/P005/things_baby_03s.jpg,0,0,0.0,0,43,43,43,,,,,,,,,,,,,25.021345400000428,0.021345400000427617,None,,62.51032859999759,62.51032859999759,62.51032859999759,62.51032859999759,62.51032859999759,62.51032859999759,62.51032859999759,62.51032859999759,62.51032859999759,62.51032859999759,004,P005,2025_Jan_18_1554,ConditionRich,2021.2.3,59.934683182483056,
25.75,26.0,41,0.0,Stimuli/Blank.png,0,0,0.0,0,44,44,44,,,,,,,,,,,,,25.77175839999836,0.02175839999836171,None,,63.24428629999966,63.24428629999966,63.24428629999966,63.24428629999966,63.24428629999966,63.24428629999966,63.24428629999966,63.24428629999966,63.24428629999966,63.24428629999966,004,P005,2025_Jan_18_1554,ConditionRich,2021.2.3,59.934683182483056,
26.0,26.75,22,0.75,Stimuli/P005/things_baby_03s.jpg,0,0,0.0,0,45,45,45,,,,,,,,,,,,,26.005675799999153,0.0056757999991532415,None,,63.49447449999934,63.49447449999934,63.49447449999934,63.49447449999934,63.49447449999934,63.49447449999934,63.49447449999934,63.49447449999934,63.49447449999934,63.49447449999934,004,P005,2025_Jan_18_1554,ConditionRich,2021.2.3,59.934683182483056,
26.75,27.0,41,0.0,Stimuli/Blank.png,0,0,0.0,0,46,46,46,,,,,,,,,,,,,26.772596999999223,0.022596999999223044,None,,64.24521710000045,64.24521710000045,64.24521710000045,64.24521710000045,64.24521710000045,64.24521710000045,64.24521710000045,64.24521710000045,64.24521710000045,64.24521710000045,004,P005,2025_Jan_18_1554,ConditionRich,2021.2.3,59.934683182483056,
27.0,27.75,22,0.75,Stimuli/P005/things_baby_03s.jpg,1,0,0.75,0,47,47,47,,,,,,,,,,,,,27.005628699997033,0.005628699997032527,4,0.5305020999985572,64.47870369999873,64.47870369999873,64.47870369999873,64.47870369999873,64.47870369999873,64.47870369999873,64.47870369999873,65.21267539999826,64.47870369999873,64.47870369999873,004,P005,2025_Jan_18_1554,ConditionRich,2021.2.3,59.934683182483056,
27.75,28.0,41,0.0,Stimuli/Blank.png,0,0,0.0,0,48,48,48,,,,,,,,,,,,,27.75666959999944,0.006669599999440834,None,,65.22936919999847,65.22936919999847,65.22936919999847,65.22936919999847,65.22936919999847,65.22936919999847,65.22936919999847,65.22936919999847,65.22936919999847,65.22936919999847,004,P005,2025_Jan_18_1554,ConditionRich,2021.2.3,59.934683182483056,
28.0,28.75,12,0.75,Stimuli/P005/sun_bodyuiqwqpqzwfoz.jpg,0,0,0.0,0,49,49,49,,,,,,,,,,,,,28.006987099997787,0.006987099997786572,None,,65.47958010000002,65.47958010000002,65.47958010000002,65.47958010000002,65.47958010000002,65.47958010000002,65.47958010000002,65.47958010000002,65.47958010000002,65.47958010000002,004,P005,2025_Jan_18_1554,ConditionRich,2021.2.3,59.934683182483056,
28.75,29.0,41,0.0,Stimuli/Blank.png,0,0,0.0,0,50,50,50,,,,,,,,,,,,,28.75753429999895,0.00753429999895161,None,,66.23024159999841,66.23024159999841,66.23024159999841,66.23024159999841,66.23024159999841,66.23024159999841,66.23024159999841,66.23024159999841,66.23024159999841,66.23024159999841,004,P005,2025_Jan_18_1554,ConditionRich,2021.2.3,59.934683182483056,
29.0,29.75,12,0.75,Stimuli/P005/sun_bodyuiqwqpqzwfoz.jpg,0,0,0.0,0,51,51,51,,,,,,,,,,,,,29.00833319999947,0.008333199999469798,None,,66.48046799999793,66.48046799999793,66.48046799999793,66.48046799999793,66.48046799999793,66.48046799999793,66.48046799999793,66.48046799999793,66.48046799999793,66.48046799999793,004,P005,2025_Jan_18_1554,ConditionRich,2021.2.3,59.934683182483056,
29.75,30.0,41,0.0,Stimuli/Blank.png,0,0,0.0,0,52,52,52,,,,,,,,,,,,,29.759374899997056,0.009374899997055763,None,,67.2311426999986,67.2311426999986,67.2311426999986,67.2311426999986,67.2311426999986,67.2311426999986,67.2311426999986,67.2311426999986,67.2311426999986,67.2311426999986,004,P005,2025_Jan_18_1554,ConditionRich,2021.2.3,59.934683182483056,
30.0,30.75,12,0.75,Stimuli/P005/sun_bodyuiqwqpqzwfoz.jpg,0,0,0.0,0,53,53,53,,,,,,,,,,,,,30.00821999999971,0.008219999999710126,None,,67.48134869999922,67.48134869999922,67.48134869999922,67.48134869999922,67.48134869999922,67.48134869999922,67.48134869999922,67.48134869999922,67.48134869999922,67.48134869999922,004,P005,2025_Jan_18_1554,ConditionRich,2021.2.3,59.934683182483056,
30.75,31.0,41,0.0,Stimuli/Blank.png,0,0,0.0,0,54,54,54,,,,,,,,,,,,,30.761512699999003,0.011512699999002507,None,,68.24869709999984,68.24869709999984,68.24869709999984,68.24869709999984,68.24869709999984,68.24869709999984,68.24869709999984,68.24869709999984,68.24869709999984,68.24869709999984,004,P005,2025_Jan_18_1554,ConditionRich,2021.2.3,59.934683182483056,
31.0,31.75,12,0.75,Stimuli/P005/sun_bodyuiqwqpqzwfoz.jpg,0,0,0.0,0,55,55,55,,,,,,,,,,,,,31.025895700000547,0.02589570000054664,None,,68.49890679999953,68.49890679999953,68.49890679999953,68.49890679999953,68.49890679999953,68.49890679999953,68.49890679999953,68.49890679999953,68.49890679999953,68.49890679999953,004,P005,2025_Jan_18_1554,ConditionRich,2021.2.3,59.934683182483056,
31.75,32.0,41,0.0,Stimuli/Blank.png,0,0,0.0,0,56,56,56,,,,,,,,,,,,,31.760551899998973,0.010551899998972658,None,,69.23290559999805,69.23290559999805,69.23290559999805,69.23290559999805,69.23290559999805,69.23290559999805,69.23290559999805,69.23290559999805,69.23290559999805,69.23290559999805,004,P005,2025_Jan_18_1554,ConditionRich,2021.2.3,59.934683182483056,
32.0,32.75,9,0.75,Stimuli/P005/sun_bfcmdrojsffdttzu.jpg,0,0,0.0,0,57,57,57,,,,,,,,,,,,,32.01084880000053,0.0108488000005309,None,,69.49980280000091,69.49980280000091,69.49980280000091,69.49980280000091,69.49980280000091,69.49980280000091,69.49980280000091,69.49980280000091,69.49980280000091,69.49980280000091,004,P005,2025_Jan_18_1554,ConditionRich,2021.2.3,59.934683182483056,
32.75,33.0,41,0.0,Stimuli/Blank.png,0,0,0.0,0,58,58,58,,,,,,,,,,,,,32.7783488999994,0.0283488999994006,None,,70.25052760000108,70.25052760000108,70.25052760000108,70.25052760000108,70.25052760000108,70.25052760000108,70.25052760000108,70.25052760000108,70.25052760000108,70.25052760000108,004,P005,2025_Jan_18_1554,ConditionRich,2021.2.3,59.934683182483056,
33.0,33.75,9,0.75,Stimuli/P005/sun_bfcmdrojsffdttzu.jpg,0,0,0.0,0,59,59,59,,,,,,,,,,,,,33.01162169999952,0.011621699999523116,None,,70.48398799999995,70.48398799999995,70.48398799999995,70.48398799999995,70.48398799999995,70.48398799999995,70.48398799999995,70.48398799999995,70.48398799999995,70.48398799999995,004,P005,2025_Jan_18_1554,ConditionRich,2021.2.3,59.934683182483056,
33.75,34.0,41,0.0,Stimuli/Blank.png,0,0,0.0,0,60,60,60,,,,,,,,,,,,,33.76165409999885,0.011654099998850143,None,,71.23465109999961,71.23465109999961,71.23465109999961,71.23465109999961,71.23465109999961,71.23465109999961,71.23465109999961,71.23465109999961,71.23465109999961,71.23465109999961,004,P005,2025_Jan_18_1554,ConditionRich,2021.2.3,59.934683182483056,
34.0,34.75,9,0.75,Stimuli/P005/sun_bfcmdrojsffdttzu.jpg,0,0,0.0,0,61,61,61,,,,,,,,,,,,,34.01188270000057,0.011882700000569457,None,,71.48487939999904,71.48487939999904,71.48487939999904,71.48487939999904,71.48487939999904,71.48487939999904,71.48487939999904,71.48487939999904,71.48487939999904,71.48487939999904,004,P005,2025_Jan_18_1554,ConditionRich,2021.2.3,59.934683182483056,
34.75,35.0,41,0.0,Stimuli/Blank.png,0,0,0.0,0,62,62,62,,,,,,,,,,,,,34.76301479999893,0.013014799998927629,None,,72.2356426999977,72.2356426999977,72.2356426999977,72.2356426999977,72.2356426999977,72.2356426999977,72.2356426999977,72.2356426999977,72.2356426999977,72.2356426999977,004,P005,2025_Jan_18_1554,ConditionRich,2021.2.3,59.934683182483056,
35.0,35.75,9,0.75,Stimuli/P005/sun_bfcmdrojsffdttzu.jpg,0,0,0.0,0,63,63,63,,,,,,,,,,,,,35.01320499999929,0.013204999999288702,None,,72.50244730000122,72.50244730000122,72.50244730000122,72.50244730000122,72.50244730000122,72.50244730000122,72.50244730000122,72.50244730000122,72.50244730000122,72.50244730000122,004,P005,2025_Jan_18_1554,ConditionRich,2021.2.3,59.934683182483056,
35.75,36.0,41,0.0,Stimuli/Blank.png,0,0,0.0,0,64,64,64,,,,,,,,,,,,,35.780747099997825,0.03074709999782499,5,0.20196450000003097,73.25310249999893,73.25310249999893,73.25310249999893,73.25310249999893,73.25310249999893,73.25310249999893,73.25310249999893,73.25310249999893,73.25310249999893,73.25310249999893,004,P005,2025_Jan_18_1554,ConditionRich,2021.2.3,59.934683182483056,
36.0,36.75,8,0.75,Stimuli/P005/sun_bekkgqphzbclwpvb.jpg,0,0,0.0,0,65,65,65,,,,,,,,,,,,,36.01358729999993,0.013587299999926472,None,,73.5033254000009,73.5033254000009,73.5033254000009,73.5033254000009,73.5033254000009,73.5033254000009,73.5033254000009,73.5033254000009,73.5033254000009,73.5033254000009,004,P005,2025_Jan_18_1554,ConditionRich,2021.2.3,59.934683182483056,
36.75,37.0,41,0.0,Stimuli/Blank.png,0,0,0.0,0,66,66,66,,,,,,,,,,,,,36.782610999998724,0.032610999998723855,None,,74.25398919999861,74.25398919999861,74.25398919999861,74.25398919999861,74.25398919999861,74.25398919999861,74.25398919999861,74.25398919999861,74.25398919999861,74.25398919999861,004,P005,2025_Jan_18_1554,ConditionRich,2021.2.3,59.934683182483056,
37.0,37.75,8,0.75,Stimuli/P005/sun_bekkgqphzbclwpvb.jpg,0,0,0.0,0,67,67,67,,,,,,,,,,,,,36.99865259999933,-0.0013474000006681308,None,,74.48751479999919,74.48751479999919,74.48751479999919,74.48751479999919,74.48751479999919,74.48751479999919,74.48751479999919,74.48751479999919,74.48751479999919,74.48751479999919,004,P005,2025_Jan_18_1554,ConditionRich,2021.2.3,59.934683182483056,
37.75,38.0,41,0.0,Stimuli/Blank.png,0,0,0.0,0,68,68,68,,,,,,,,,,,,,37.76595539999835,0.015955399998347275,None,,75.23817309999868,75.23817309999868,75.23817309999868,75.23817309999868,75.23817309999868,75.23817309999868,75.23817309999868,75.23817309999868,75.23817309999868,75.23817309999868,004,P005,2025_Jan_18_1554,ConditionRich,2021.2.3,59.934683182483056,
38.0,38.75,8,0.75,Stimuli/P005/sun_bekkgqphzbclwpvb.jpg,0,0,0.0,0,69,69,69,,,,,,,,,,,,,38.00158409999858,0.0015840999985812232,None,,75.48891730000105,75.48891730000105,75.48891730000105,75.48891730000105,75.48891730000105,75.48891730000105,75.48891730000105,75.48891730000105,75.48891730000105,75.48891730000105,004,P005,2025_Jan_18_1554,ConditionRich,2021.2.3,59.934683182483056,
38.75,39.0,41,0.0,Stimuli/Blank.png,0,0,0.0,0,70,70,70,,,,,,,,,,,,,38.766279600000416,0.016279600000416394,None,,76.2390607999987,76.2390607999987,76.2390607999987,76.2390607999987,76.2390607999987,76.2390607999987,76.2390607999987,76.2390607999987,76.2390607999987,76.2390607999987,004,P005,2025_Jan_18_1554,ConditionRich,2021.2.3,59.934683182483056,
39.0,39.75,8,0.75,Stimuli/P005/sun_bekkgqphzbclwpvb.jpg,0,0,0.0,0,71,71,71,,,,,,,,,,,,,39.00202739999804,0.002027399998041801,None,,76.48928739999974,76.48928739999974,76.48928739999974,76.48928739999974,76.48928739999974,76.48928739999974,76.48928739999974,76.48928739999974,76.48928739999974,76.48928739999974,004,P005,2025_Jan_18_1554,ConditionRich,2021.2.3,59.934683182483056,
39.75,40.0,41,0.0,Stimuli/Blank.png,0,0,0.0,0,72,72,72,,,,,,,,,,,,,39.76714749999883,0.017147499998827698,None,,77.23991709999973,77.23991709999973,77.23991709999973,77.23991709999973,77.23991709999973,77.23991709999973,77.23991709999973,77.23991709999973,77.23991709999973,77.23991709999973,004,P005,2025_Jan_18_1554,ConditionRich,2021.2.3,59.934683182483056,
40.0,40.75,18,0.75,Stimuli/P005/sun_bzqhpcsgzswozfhs.jpg,0,0,0.0,0,73,73,73,,,,,,,,,,,,,40.00201059999745,0.002010599997447571,None,,77.49017939999976,77.49017939999976,77.49017939999976,77.49017939999976,77.49017939999976,77.49017939999976,77.49017939999976,77.49017939999976,77.49017939999976,77.49017939999976,004,P005,2025_Jan_18_1554,ConditionRich,2021.2.3,59.934683182483056,
40.75,41.0,41,0.0,Stimuli/Blank.png,0,0,0.0,0,74,74,74,,,,,,,,,,,,,40.768439299998136,0.01843929999813554,None,,78.24199450000015,78.24199450000015,78.24199450000015,78.24199450000015,78.24199450000015,78.24199450000015,78.24199450000015,78.24199450000015,78.24199450000015,78.24199450000015,004,P005,2025_Jan_18_1554,ConditionRich,2021.2.3,59.934683182483056,
41.0,41.75,18,0.75,Stimuli/P005/sun_bzqhpcsgzswozfhs.jpg,0,0,0.0,0,75,75,75,,,,,,,,,,,,,41.00244179999936,0.002441799999360228,None,,78.49104459999944,78.49104459999944,78.49104459999944,78.49104459999944,78.49104459999944,78.49104459999944,78.49104459999944,78.49104459999944,78.49104459999944,78.49104459999944,004,P005,2025_Jan_18_1554,ConditionRich,2021.2.3,59.934683182483056,
41.75,42.0,41,0.0,Stimuli/Blank.png,0,0,0.0,0,76,76,76,,,,,,,,,,,,,41.771173799999815,0.021173799999814946,5,0.19660799999837764,79.25839629999973,79.25839629999973,79.25839629999973,79.25839629999973,79.25839629999973,79.25839629999973,79.25839629999973,79.25839629999973,79.25839629999973,79.25839629999973,004,P005,2025_Jan_18_1554,ConditionRich,2021.2.3,59.934683182483056,
42.0,42.75,18,0.75,Stimuli/P005/sun_bzqhpcsgzswozfhs.jpg,0,0,0.0,0,77,77,77,,,,,,,,,,,,,42.019375500000024,0.01937550000002375,None,,79.49191509999946,79.49191509999946,79.49191509999946,79.49191509999946,79.49191509999946,79.49191509999946,79.49191509999946,79.49191509999946,79.49191509999946,79.49191509999946,004,P005,2025_Jan_18_1554,ConditionRich,2021.2.3,59.934683182483056,
42.75,43.0,41,0.0,Stimuli/Blank.png,0,0,0.0,0,78,78,78,,,,,,,,,,,,,42.753518699999404,0.003518699999403907,None,,80.22597549999773,80.22597549999773,80.22597549999773,80.22597549999773,80.22597549999773,80.22597549999773,80.22597549999773,80.22597549999773,80.22597549999773,80.22597549999773,004,P005,2025_Jan_18_1554,ConditionRich,2021.2.3,59.934683182483056,
43.0,43.75,18,0.75,Stimuli/P005/sun_bzqhpcsgzswozfhs.jpg,0,0,0.0,0,79,79,79,,,,,,,,,,,,,43.004581599998346,0.004581599998346064,None,,80.49279979999847,80.49279979999847,80.49279979999847,80.49279979999847,80.49279979999847,80.49279979999847,80.49279979999847,80.49279979999847,80.49279979999847,80.49279979999847,004,P005,2025_Jan_18_1554,ConditionRich,2021.2.3,59.934683182483056,
43.75,44.0,41,0.0,Stimuli/Blank.png,0,0,0.0,0,80,80,80,,,,,,,,,,,,,43.770697399999335,0.020697399999335175,None,,81.24346009999863,81.24346009999863,81.24346009999863,81.24346009999863,81.24346009999863,81.24346009999863,81.24346009999863,81.24346009999863,81.24346009999863,81.24346009999863,004,P005,2025_Jan_18_1554,ConditionRich,2021.2.3,59.934683182483056,
44.0,44.75,28,0.75,Stimuli/P005/things_girl_03s.jpg,0,0,0.0,0,81,81,81,,,,,,,,,,,,,44.00653959999909,0.006539599999086931,None,,81.49368549999781,81.49368549999781,81.49368549999781,81.49368549999781,81.49368549999781,81.49368549999781,81.49368549999781,81.49368549999781,81.49368549999781,81.49368549999781,004,P005,2025_Jan_18_1554,ConditionRich,2021.2.3,59.934683182483056,
44.75,45.0,41,0.0,Stimuli/Blank.png,0,0,0.0,0,82,82,82,,,,,,,,,,,,,44.77158779999809,0.021587799998087576,None,,82.24434269999983,82.24434269999983,82.24434269999983,82.24434269999983,82.24434269999983,82.24434269999983,82.24434269999983,82.24434269999983,82.24434269999983,82.24434269999983,004,P005,2025_Jan_18_1554,ConditionRich,2021.2.3,59.934683182483056,
45.0,45.75,28,0.75,Stimuli/P005/things_girl_03s.jpg,0,0,0.0,0,83,83,83,,,,,,,,,,,,,45.00550139999905,0.005501399999047862,None,,82.47788669999863,82.47788669999863,82.47788669999863,82.47788669999863,82.47788669999863,82.47788669999863,82.47788669999863,82.47788669999863,82.47788669999863,82.47788669999863,004,P005,2025_Jan_18_1554,ConditionRich,2021.2.3,59.934683182483056,
45.75,46.0,41,0.0,Stimuli/Blank.png,0,0,0.0,0,84,84,84,,,,,,,,,,,,,45.75650069999756,0.006500699997559423,None,,83.22964599999978,83.22964599999978,83.22964599999978,83.22964599999978,83.22964599999978,83.22964599999978,83.22964599999978,83.22964599999978,83.22964599999978,83.22964599999978,004,P005,2025_Jan_18_1554,ConditionRich,2021.2.3,59.934683182483056,
46.0,46.75,28,0.75,Stimuli/P005/things_girl_03s.jpg,0,0,0.0,0,85,85,85,,,,,,,,,,,,,46.006870599998365,0.0068705999983649235,None,,83.49544949999836,83.49544949999836,83.49544949999836,83.49544949999836,83.49544949999836,83.49544949999836,83.49544949999836,83.49544949999836,83.49544949999836,83.49544949999836,004,P005,2025_Jan_18_1554,ConditionRich,2021.2.3,59.934683182483056,
46.75,47.0,41,0.0,Stimuli/Blank.png,0,0,0.0,0,86,86,86,,,,,,,,,,,,,46.774172099998395,0.024172099998395424,None,,84.24610839999877,84.24610839999877,84.24610839999877,84.24610839999877,84.24610839999877,84.24610839999877,84.24610839999877,84.24610839999877,84.24610839999877,84.24610839999877,004,P005,2025_Jan_18_1554,ConditionRich,2021.2.3,59.934683182483056,
47.0,47.75,28,0.75,Stimuli/P005/things_girl_03s.jpg,0,0,0.0,0,87,87,87,,,,,,,,,,,,,47.007237499998155,0.007237499998154817,None,,84.47963840000011,84.47963840000011,84.47963840000011,84.47963840000011,84.47963840000011,84.47963840000011,84.47963840000011,84.47963840000011,84.47963840000011,84.47963840000011,004,P005,2025_Jan_18_1554,ConditionRich,2021.2.3,59.934683182483056,
47.75,48.0,41,0.0,Stimuli/Blank.png,0,0,0.0,0,88,88,88,,,,,,,,,,,,,47.75739759999851,0.007397599998512305,None,,85.2303041999985,85.2303041999985,85.2303041999985,85.2303041999985,85.2303041999985,85.2303041999985,85.2303041999985,85.2303041999985,85.2303041999985,85.2303041999985,004,P005,2025_Jan_18_1554,ConditionRich,2021.2.3,59.934683182483056,
48.0,48.75,39,0.75,Stimuli/P005/things_train_set_03s.jpg,0,0,0.0,0,89,89,89,,,,,,,,,,,,,48.007540899998276,0.007540899998275563,None,,85.48052520000056,85.48052520000056,85.48052520000056,85.48052520000056,85.48052520000056,85.48052520000056,85.48052520000056,85.48052520000056,85.48052520000056,85.48052520000056,004,P005,2025_Jan_18_1554,ConditionRich,2021.2.3,59.934683182483056,
48.75,49.0,41,0.0,Stimuli/Blank.png,0,0,0.0,0,90,90,90,,,,,,,,,,,,,48.75847309999881,0.00847309999880963,None,,86.23127279999972,86.23127279999972,86.23127279999972,86.23127279999972,86.23127279999972,86.23127279999972,86.23127279999972,86.23127279999972,86.23127279999972,86.23127279999972,004,P005,2025_Jan_18_1554,ConditionRich,2021.2.3,59.934683182483056,
49.0,49.75,39,0.75,Stimuli/P005/things_train_set_03s.jpg,1,0,0.75,0,91,91,91,,,,,,,,,,,,,49.01117489999888,0.011174899998877663,4,0.4828562000002421,86.49809330000062,86.49809330000062,86.49809330000062,86.49809330000062,86.49809330000062,86.49809330000062,86.49809330000062,87.23209359999964,86.49809330000062,86.49809330000062,004,P005,2025_Jan_18_1554,ConditionRich,2021.2.3,59.934683182483056,
49.75,50.0,41,0.0,Stimuli/Blank.png,0,0,0.0,0,92,92,92,,,,,,,,,,,,,49.77666739999768,0.02666739999767742,None,,87.24876139999833,87.24876139999833,87.24876139999833,87.24876139999833,87.24876139999833,87.24876139999833,87.24876139999833,87.24876139999833,87.24876139999833,87.24876139999833,004,P005,2025_Jan_18_1554,ConditionRich,2021.2.3,59.934683182483056,
50.0,50.75,39,0.75,Stimuli/P005/things_train_set_03s.jpg,0,0,0.0,0,93,93,93,,,,,,,,,,,,,50.01070089999848,0.010700899998482782,None,,87.4989730999987,87.4989730999987,87.4989730999987,87.4989730999987,87.4989730999987,87.4989730999987,87.4989730999987,87.4989730999987,87.4989730999987,87.4989730999987,004,P005,2025_Jan_18_1554,ConditionRich,2021.2.3,59.934683182483056,
50.75,51.0,41,0.0,Stimuli/Blank.png,0,0,0.0,0,94,94,94,,,,,,,,,,,,,50.77748049999718,0.02748049999718205,None,,88.2496269000003,88.2496269000003,88.2496269000003,88.2496269000003,88.2496269000003,88.2496269000003,88.2496269000003,88.2496269000003,88.2496269000003,88.2496269000003,004,P005,2025_Jan_18_1554,ConditionRich,2021.2.3,59.934683182483056,
51.0,51.75,39,0.75,Stimuli/P005/things_train_set_03s.jpg,0,0,0.0,0,95,95,95,,,,,,,,,,,,,51.01084079999782,0.010840799997822614,None,,88.48316499999783,88.48316499999783,88.48316499999783,88.48316499999783,88.48316499999783,88.48316499999783,88.48316499999783,88.48316499999783,88.48316499999783,88.48316499999783,004,P005,2025_Jan_18_1554,ConditionRich,2021.2.3,59.934683182483056,
51.75,52.0,41,0.0,Stimuli/Blank.png,0,0,0.0,0,96,96,96,,,,,,,,,,,,,51.76089159999901,0.010891599999013124,None,,89.23382959999799,89.23382959999799,89.23382959999799,89.23382959999799,89.23382959999799,89.23382959999799,89.23382959999799,89.23382959999799,89.23382959999799,89.23382959999799,004,P005,2025_Jan_18_1554,ConditionRich,2021.2.3,59.934683182483056,
52.0,52.75,27,0.75,Stimuli/P005/things_first-aid_kit_03s.jpg,0,0,0.0,0,97,97,97,,,,,,,,,,,,,52.011131999999634,0.01113199999963399,None,,89.48404599999776,89.48404599999776,89.48404599999776,89.48404599999776,89.48404599999776,89.48404599999776,89.48404599999776,89.48404599999776,89.48404599999776,89.48404599999776,004,P005,2025_Jan_18_1554,ConditionRich,2021.2.3,59.934683182483056,
52.75,53.0,41,0.0,Stimuli/Blank.png,0,0,0.0,0,98,98,98,,,,,,,,,,,,,52.762311799997406,0.012311799997405615,None,,90.23471159999826,90.23471159999826,90.23471159999826,90.23471159999826,90.23471159999826,90.23471159999826,90.23471159999826,90.23471159999826,90.23471159999826,90.23471159999826,004,P005,2025_Jan_18_1554,ConditionRich,2021.2.3,59.934683182483056,
53.0,53.75,27,0.75,Stimuli/P005/things_first-aid_kit_03s.jpg,0,0,0.0,0,99,99,99,,,,,,,,,,,,,53.01255649999803,0.012556499998026993,None,,90.4849026999982,90.4849026999982,90.4849026999982,90.4849026999982,90.4849026999982,90.4849026999982,90.4849026999982,90.4849026999982,90.4849026999982,90.4849026999982,004,P005,2025_Jan_18_1554,ConditionRich,2021.2.3,59.934683182483056,
53.75,54.0,41,0.0,Stimuli/Blank.png,0,0,0.0,0,100,100,100,,,,,,,,,,,,,53.76257819999955,0.012578199999552453,None,,91.23560110000108,91.23560110000108,91.23560110000108,91.23560110000108,91.23560110000108,91.23560110000108,91.23560110000108,91.23560110000108,91.23560110000108,91.23560110000108,004,P005,2025_Jan_18_1554,ConditionRich,2021.2.3,59.934683182483056,
54.0,54.75,27,0.75,Stimuli/P005/things_first-aid_kit_03s.jpg,0,0,0.0,0,101,101,101,,,,,,,,,,,,,54.01294959999723,0.012949599997227779,None,,91.5025046999981,91.5025046999981,91.5025046999981,91.5025046999981,91.5025046999981,91.5025046999981,91.5025046999981,91.5025046999981,91.5025046999981,91.5025046999981,004,P005,2025_Jan_18_1554,ConditionRich,2021.2.3,59.934683182483056,
54.75,55.0,41,0.0,Stimuli/Blank.png,0,0,0.0,0,102,102,102,,,,,,,,,,,,,54.781391199998325,0.03139119999832474,None,,92.25316019999809,92.25316019999809,92.25316019999809,92.25316019999809,92.25316019999809,92.25316019999809,92.25316019999809,92.25316019999809,92.25316019999809,92.25316019999809,004,P005,2025_Jan_18_1554,ConditionRich,2021.2.3,59.934683182483056,
55.0,55.75,27,0.75,Stimuli/P005/things_first-aid_kit_03s.jpg,0,0,0.0,0,103,103,103,,,,,,,,,,,,,55.016955600000074,0.0169556000000739,None,,92.50338209999973,92.50338209999973,92.50338209999973,92.50338209999973,92.50338209999973,92.50338209999973,92.50338209999973,92.50338209999973,92.50338209999973,92.50338209999973,004,P005,2025_Jan_18_1554,ConditionRich,2021.2.3,59.934683182483056,
55.75,56.0,41,0.0,Stimuli/Blank.png,0,0,0.0,0,104,104,104,,,,,,,,,,,,,55.76564009999856,0.015640099998563528,None,,93.23735450000095,93.23735450000095,93.23735450000095,93.23735450000095,93.23735450000095,93.23735450000095,93.23735450000095,93.23735450000095,93.23735450000095,93.23735450000095,004,P005,2025_Jan_18_1554,ConditionRich,2021.2.3,59.934683182483056,
56.0,56.75,34,0.75,Stimuli/P005/things_patty_03s.jpg,0,0,0.0,0,105,105,105,,,,,,,,,,,,,55.99857150000025,-0.001428499999747146,None,,93.47089509999932,93.47089509999932,93.47089509999932,93.47089509999932,93.47089509999932,93.47089509999932,93.47089509999932,93.47089509999932,93.47089509999932,93.47089509999932,004,P005,2025_Jan_18_1554,ConditionRich,2021.2.3,59.934683182483056,
56.75,57.0,41,0.0,Stimuli/Blank.png,0,0,0.0,0,106,106,106,,,,,,,,,,,,,56.74877999999808,-0.001220000001922017,None,,94.22154750000118,94.22154750000118,94.22154750000118,94.22154750000118,94.22154750000118,94.22154750000118,94.22154750000118,94.22154750000118,94.22154750000118,94.22154750000118,004,P005,2025_Jan_18_1554,ConditionRich,2021.2.3,59.934683182483056,
57.0,57.75,34,0.75,Stimuli/P005/things_patty_03s.jpg,0,0,0.0,0,107,107,107,,,,,,,,,,,,,57.00087939999867,0.0008793999986664858,None,,94.48847509999905,94.48847509999905,94.48847509999905,94.48847509999905,94.48847509999905,94.48847509999905,94.48847509999905,94.48847509999905,94.48847509999905,94.48847509999905,004,P005,2025_Jan_18_1554,ConditionRich,2021.2.3,59.934683182483056,
57.75,58.0,41,0.0,Stimuli/Blank.png,0,0,0.0,0,108,108,108,,,,,,,,,,,,,57.7674726999976,0.017472699997597374,5,0.1992221000000427,95.25580439999976,95.25580439999976,95.25580439999976,95.25580439999976,95.25580439999976,95.25580439999976,95.25580439999976,95.25580439999976,95.25580439999976,95.25580439999976,004,P005,2025_Jan_18_1554,ConditionRich,2021.2.3,59.934683182483056,
58.0,58.75,34,0.75,Stimuli/P005/things_patty_03s.jpg,0,0,0.0,0,109,109,109,,,,,,,,,,,,,58.01623449999897,0.01623449999897275,None,,95.48934390000068,95.48934390000068,95.48934390000068,95.48934390000068,95.48934390000068,95.48934390000068,95.48934390000068,95.48934390000068,95.48934390000068,95.48934390000068,004,P005,2025_Jan_18_1554,ConditionRich,2021.2.3,59.934683182483056,
58.75,59.0,41,0.0,Stimuli/Blank.png,0,0,0.0,0,110,110,110,,,,,,,,,,,,,58.75082999999722,0.0008299999972223304,None,,96.22332209999877,96.22332209999877,96.22332209999877,96.22332209999877,96.22332209999877,96.22332209999877,96.22332209999877,96.22332209999877,96.22332209999877,96.22332209999877,004,P005,2025_Jan_18_1554,ConditionRich,2021.2.3,59.934683182483056,
59.0,59.75,34,0.75,Stimuli/P005/things_patty_03s.jpg,0,0,0.0,0,111,111,111,,,,,,,,,,,,,59.00059319999855,0.0005931999985477887,None,,96.4741804999976,96.4741804999976,96.4741804999976,96.4741804999976,96.4741804999976,96.4741804999976,96.4741804999976,96.4741804999976,96.4741804999976,96.4741804999976,004,P005,2025_Jan_18_1554,ConditionRich,2021.2.3,59.934683182483056,
59.75,60.0,41,0.0,Stimuli/Blank.png,0,0,0.0,0,112,112,112,,,,,,,,,,,,,59.752230099999,0.002230099998996593,None,,97.22420430000057,97.22420430000057,97.22420430000057,97.22420430000057,97.22420430000057,97.22420430000057,97.22420430000057,97.22420430000057,97.22420430000057,97.22420430000057,004,P005,2025_Jan_18_1554,ConditionRich,2021.2.3,59.934683182483056,
60.0,60.75,13,0.75,Stimuli/P005/sun_bruphbrfsbxowtlq.jpg,0,0,0.0,0,113,113,113,,,,,,,,,,,,,60.00217799999882,0.0021779999988211785,None,,97.47444030000042,97.47444030000042,97.47444030000042,97.47444030000042,97.47444030000042,97.47444030000042,97.47444030000042,97.47444030000042,97.47444030000042,97.47444030000042,004,P005,2025_Jan_18_1554,ConditionRich,2021.2.3,59.934683182483056,
60.75,61.0,41,0.0,Stimuli/Blank.png,0,0,0.0,0,114,114,114,,,,,,,,,,,,,60.75211099999797,0.0021109999979671557,None,,98.22507839999889,98.22507839999889,98.22507839999889,98.22507839999889,98.22507839999889,98.22507839999889,98.22507839999889,98.22507839999889,98.22507839999889,98.22507839999889,004,P005,2025_Jan_18_1554,ConditionRich,2021.2.3,59.934683182483056,
61.0,61.75,13,0.75,Stimuli/P005/sun_bruphbrfsbxowtlq.jpg,0,0,0.0,0,115,115,115,,,,,,,,,,,,,61.00249549999717,0.0024954999971669167,None,,98.47531069999968,98.47531069999968,98.47531069999968,98.47531069999968,98.47531069999968,98.47531069999968,98.47531069999968,98.47531069999968,98.47531069999968,98.47531069999968,004,P005,2025_Jan_18_1554,ConditionRich,2021.2.3,59.934683182483056,
61.75,62.0,41,0.0,Stimuli/Blank.png,0,0,0.0,0,116,116,116,,,,,,,,,,,,,61.75341599999956,0.0034159999995608814,None,,99.22595050000018,99.22595050000018,99.22595050000018,99.22595050000018,99.22595050000018,99.22595050000018,99.22595050000018,99.22595050000018,99.22595050000018,99.22595050000018,004,P005,2025_Jan_18_1554,ConditionRich,2021.2.3,59.934683182483056,
62.0,62.75,13,0.75,Stimuli/P005/sun_bruphbrfsbxowtlq.jpg,0,0,0.0,0,117,117,117,,,,,,,,,,,,,62.00439059999917,0.004390599999169353,None,,99.49288470000101,99.49288470000101,99.49288470000101,99.49288470000101,99.49288470000101,99.49288470000101,99.49288470000101,99.49288470000101,99.49288470000101,99.49288470000101,004,P005,2025_Jan_18_1554,ConditionRich,2021.2.3,59.934683182483056,
62.75,63.0,41,0.0,Stimuli/Blank.png,0,0,0.0,0,118,118,118,,,,,,,,,,,,,62.7712752999978,0.021275299997796537,None,,100.2435239999977,100.2435239999977,100.2435239999977,100.2435239999977,100.2435239999977,100.2435239999977,100.2435239999977,100.2435239999977,100.2435239999977,100.2435239999977,004,P005,2025_Jan_18_1554,ConditionRich,2021.2.3,59.934683182483056,
63.0,63.75,13,0.75,Stimuli/P005/sun_bruphbrfsbxowtlq.jpg,0,0,0.0,0,119,119,119,,,,,,,,,,,,,63.006104099997174,0.006104099997173762,None,,100.49373259999993,100.49373259999993,100.49373259999993,100.49373259999993,100.49373259999993,100.49373259999993,100.49373259999993,100.49373259999993,100.49373259999993,100.49373259999993,004,P005,2025_Jan_18_1554,ConditionRich,2021.2.3,59.934683182483056,
63.75,64.0,41,0.0,Stimuli/Blank.png,0,0,0.0,0,120,120,120,,,,,,,,,,,,,63.77234999999928,0.022349999999278225,None,,101.24439680000069,101.24439680000069,101.24439680000069,101.24439680000069,101.24439680000069,101.24439680000069,101.24439680000069,101.24439680000069,101.24439680000069,101.24439680000069,004,P005,2025_Jan_18_1554,ConditionRich,2021.2.3,59.934683182483056,
64.0,64.75,3,0.75,Stimuli/P005/sun_asyidwmnobuawmax.jpg,0,0,0.0,0,121,121,121,,,,,,,,,,,,,64.00562319999881,0.005623199998808559,None,,101.47793769999771,101.47793769999771,101.47793769999771,101.47793769999771,101.47793769999771,101.47793769999771,101.47793769999771,101.47793769999771,101.47793769999771,101.47793769999771,004,P005,2025_Jan_18_1554,ConditionRich,2021.2.3,59.934683182483056,
64.75,65.0,41,0.0,Stimuli/Blank.png,0,0,0.0,0,122,122,122,,,,,,,,,,,,,64.75579259999722,0.005792599997221259,None,,102.2285950000005,102.2285950000005,102.2285950000005,102.2285950000005,102.2285950000005,102.2285950000005,102.2285950000005,102.2285950000005,102.2285950000005,102.2285950000005,004,P005,2025_Jan_18_1554,ConditionRich,2021.2.3,59.934683182483056,
65.0,65.75,3,0.75,Stimuli/P005/sun_asyidwmnobuawmax.jpg,0,0,0.0,0,123,123,123,,,,,,,,,,,,,65.00599560000046,0.005995600000460399,None,,102.47882620000019,102.47882620000019,102.47882620000019,102.47882620000019,102.47882620000019,102.47882620000019,102.47882620000019,102.47882620000019,102.47882620000019,102.47882620000019,004,P005,2025_Jan_18_1554,ConditionRich,2021.2.3,59.934683182483056,
65.75,66.0,41,0.0,Stimuli/Blank.png,0,0,0.0,0,124,124,124,,,,,,,,,,,,,65.75632439999754,0.006324399997538421,None,,103.22947469999781,103.22947469999781,103.22947469999781,103.22947469999781,103.22947469999781,103.22947469999781,103.22947469999781,103.22947469999781,103.22947469999781,103.22947469999781,004,P005,2025_Jan_18_1554,ConditionRich,2021.2.3,59.934683182483056,
66.0,66.75,3,0.75,Stimuli/P005/sun_asyidwmnobuawmax.jpg,0,0,0.0,0,125,125,125,,,,,,,,,,,,,66.00668489999953,0.006684899999527261,None,,103.47971150000012,103.47971150000012,103.47971150000012,103.47971150000012,103.47971150000012,103.47971150000012,103.47971150000012,103.47971150000012,103.47971150000012,103.47971150000012,004,P005,2025_Jan_18_1554,ConditionRich,2021.2.3,59.934683182483056,
66.75,67.0,41,0.0,Stimuli/Blank.png,0,0,0.0,0,126,126,126,,,,,,,,,,,,,66.75863459999891,0.008634599998913473,None,,104.23036700000011,104.23036700000011,104.23036700000011,104.23036700000011,104.23036700000011,104.23036700000011,104.23036700000011,104.23036700000011,104.23036700000011,104.23036700000011,004,P005,2025_Jan_18_1554,ConditionRich,2021.2.3,59.934683182483056,
67.0,67.75,3,0.75,Stimuli/P005/sun_asyidwmnobuawmax.jpg,0,0,0.0,0,127,127,127,,,,,,,,,,,,,67.00807770000029,0.008077700000285404,None,,104.49730020000061,104.49730020000061,104.49730020000061,104.49730020000061,104.49730020000061,104.49730020000061,104.49730020000061,104.49730020000061,104.49730020000061,104.49730020000061,004,P005,2025_Jan_18_1554,ConditionRich,2021.2.3,59.934683182483056,
67.75,68.0,41,0.0,Stimuli/Blank.png,0,0,0.0,0,128,128,128,,,,,,,,,,,,,67.77547909999703,0.025479099997028243,None,,105.24793289999798,105.24793289999798,105.24793289999798,105.24793289999798,105.24793289999798,105.24793289999798,105.24793289999798,105.24793289999798,105.24793289999798,105.24793289999798,004,P005,2025_Jan_18_1554,ConditionRich,2021.2.3,59.934683182483056,
68.0,68.75,38,0.75,Stimuli/P005/things_sledgehammer_03s.jpg,0,0,0.0,0,129,129,129,,,,,,,,,,,,,68.00918710000042,0.009187100000417558,None,,105.48146369999813,105.48146369999813,105.48146369999813,105.48146369999813,105.48146369999813,105.48146369999813,105.48146369999813,105.48146369999813,105.48146369999813,105.48146369999813,004,P005,2025_Jan_18_1554,ConditionRich,2021.2.3,59.934683182483056,
68.75,69.0,41,0.0,Stimuli/Blank.png,0,0,0.0,0,130,130,130,,,,,,,,,,,,,68.76139680000051,0.011396800000511575,None,,106.2488114000007,106.2488114000007,106.2488114000007,106.2488114000007,106.2488114000007,106.2488114000007,106.2488114000007,106.2488114000007,106.2488114000007,106.2488114000007,004,P005,2025_Jan_18_1554,ConditionRich,2021.2.3,59.934683182483056,
69.0,69.75,38,0.75,Stimuli/P005/things_sledgehammer_03s.jpg,0,0,0.0,0,131,131,131,,,,,,,,,,,,,69.02616789999956,0.026167899999563815,None,,106.49904479999896,106.49904479999896,106.49904479999896,106.49904479999896,106.49904479999896,106.49904479999896,106.49904479999896,106.49904479999896,106.49904479999896,106.49904479999896,004,P005,2025_Jan_18_1554,ConditionRich,2021.2.3,59.934683182483056,
69.75,70.0,41,0.0,Stimuli/Blank.png,0,0,0.0,0,132,132,132,,,,,,,,,,,,,69.76057219999711,0.010572199997113785,None,,107.23300319999908,107.23300319999908,107.23300319999908,107.23300319999908,107.23300319999908,107.23300319999908,107.23300319999908,107.23300319999908,107.23300319999908,107.23300319999908,004,P005,2025_Jan_18_1554,ConditionRich,2021.2.3,59.934683182483056,
70.0,70.75,38,0.75,Stimuli/P005/things_sledgehammer_03s.jpg,0,0,0.0,0,133,133,133,,,,,,,,,,,,,70.01084649999757,0.010846499997569481,None,,107.48322439999902,107.48322439999902,107.48322439999902,107.48322439999902,107.48322439999902,107.48322439999902,107.48322439999902,107.48322439999902,107.48322439999902,107.48322439999902,004,P005,2025_Jan_18_1554,ConditionRich,2021.2.3,59.934683182483056,
70.75,71.0,41,0.0,Stimuli/Blank.png,0,0,0.0,0,134,134,134,,,,,,,,,,,,,70.76147919999858,0.011479199998575496,None,,108.23386820000087,108.23386820000087,108.23386820000087,108.23386820000087,108.23386820000087,108.23386820000087,108.23386820000087,108.23386820000087,108.23386820000087,108.23386820000087,004,P005,2025_Jan_18_1554,ConditionRich,2021.2.3,59.934683182483056,
71.0,71.75,38,0.75,Stimuli/P005/things_sledgehammer_03s.jpg,0,0,0.0,0,135,135,135,,,,,,,,,,,,,71.0117900999976,0.011790099997597281,None,,108.50080689999959,108.50080689999959,108.50080689999959,108.50080689999959,108.50080689999959,108.50080689999959,108.50080689999959,108.50080689999959,108.50080689999959,108.50080689999959,004,P005,2025_Jan_18_1554,ConditionRich,2021.2.3,59.934683182483056,
71.75,72.0,41,0.0,Stimuli/Blank.png,0,0,0.0,0,136,136,136,,,,,,,,,,,,,71.78203199999916,0.03203199999916251,5,0.18678100000033737,109.26816549999785,109.26816549999785,109.26816549999785,109.26816549999785,109.26816549999785,109.26816549999785,109.26816549999785,109.26816549999785,109.26816549999785,109.26816549999785,004,P005,2025_Jan_18_1554,ConditionRich,2021.2.3,59.934683182483056,
72.0,72.75,17,0.75,Stimuli/P005/sun_bwsictslfxygpqbp.jpg,0,0,0.0,0,137,137,137,,,,,,,,,,,,,72.0286094999974,0.028609499997401144,None,,109.50166610000088,109.50166610000088,109.50166610000088,109.50166610000088,109.50166610000088,109.50166610000088,109.50166610000088,109.50166610000088,109.50166610000088,109.50166610000088,004,P005,2025_Jan_18_1554,ConditionRich,2021.2.3,59.934683182483056,
72.75,73.0,41,0.0,Stimuli/Blank.png,0,0,0.0,0,138,138,138,,,,,,,,,,,,,72.76344549999703,0.013445499997033039,None,,110.23566349999965,110.23566349999965,110.23566349999965,110.23566349999965,110.23566349999965,110.23566349999965,110.23566349999965,110.23566349999965,110.23566349999965,110.23566349999965,004,P005,2025_Jan_18_1554,ConditionRich,2021.2.3,59.934683182483056,
73.0,73.75,17,0.75,Stimuli/P005/sun_bwsictslfxygpqbp.jpg,0,0,0.0,0,139,139,139,,,,,,,,,,,,,73.01315539999996,0.013155399999959627,None,,110.50255789999937,110.50255789999937,110.50255789999937,110.50255789999937,110.50255789999937,110.50255789999937,110.50255789999937,110.50255789999937,110.50255789999937,110.50255789999937,004,P005,2025_Jan_18_1554,ConditionRich,2021.2.3,59.934683182483056,
73.75,74.0,41,0.0,Stimuli/Blank.png,0,0,0.0,0,140,140,140,,,,,,,,,,,,,73.78157379999902,0.03157379999902332,5,0.20173350000186474,111.25321469999835,111.25321469999835,111.25321469999835,111.25321469999835,111.25321469999835,111.25321469999835,111.25321469999835,111.25321469999835,111.25321469999835,111.25321469999835,004,P005,2025_Jan_18_1554,ConditionRich,2021.2.3,59.934683182483056,
74.0,74.75,17,0.75,Stimuli/P005/sun_bwsictslfxygpqbp.jpg,0,0,0.0,0,141,141,141,,,,,,,,,,,,,74.01648360000036,0.01648360000035609,None,,111.50343299999804,111.50343299999804,111.50343299999804,111.50343299999804,111.50343299999804,111.50343299999804,111.50343299999804,111.50343299999804,111.50343299999804,111.50343299999804,004,P005,2025_Jan_18_1554,ConditionRich,2021.2.3,59.934683182483056,
74.75,75.0,41,0.0,Stimuli/Blank.png,0,0,0.0,0,142,142,142,,,,,,,,,,,,,74.7648014999977,0.014801499997702194,None,,112.23740410000028,112.23740410000028,112.23740410000028,112.23740410000028,112.23740410000028,112.23740410000028,112.23740410000028,112.23740410000028,112.23740410000028,112.23740410000028,004,P005,2025_Jan_18_1554,ConditionRich,2021.2.3,59.934683182483056,
75.0,75.75,17,0.75,Stimuli/P005/sun_bwsictslfxygpqbp.jpg,0,0,0.0,0,143,143,143,,,,,,,,,,,,,75.0155715999972,0.015571599997201702,None,,112.50480229999812,112.50480229999812,112.50480229999812,112.50480229999812,112.50480229999812,112.50480229999812,112.50480229999812,112.50480229999812,112.50480229999812,112.50480229999812,004,P005,2025_Jan_18_1554,ConditionRich,2021.2.3,59.934683182483056,
75.75,76.0,41,0.0,Stimuli/Blank.png,0,0,0.0,0,144,144,144,,,,,,,,,,,,,75.76666299999852,0.01666299999851617,None,,113.23830369999996,113.23830369999996,113.23830369999996,113.23830369999996,113.23830369999996,113.23830369999996,113.23830369999996,113.23830369999996,113.23830369999996,113.23830369999996,004,P005,2025_Jan_18_1554,ConditionRich,2021.2.3,59.934683182483056,
76.0,76.75,26,0.75,Stimuli/P005/things_face_03s.jpg,0,0,0.0,0,145,145,145,,,,,,,,,,,,,75.99953539999842,-0.00046460000157821923,None,,113.47185809999792,113.47185809999792,113.47185809999792,113.47185809999792,113.47185809999792,113.47185809999792,113.47185809999792,113.47185809999792,113.47185809999792,113.47185809999792,004,P005,2025_Jan_18_1554,ConditionRich,2021.2.3,59.934683182483056,
76.75,77.0,41,0.0,Stimuli/Blank.png,0,0,0.0,0,146,146,146,,,,,,,,,,,,,76.75041129999954,0.0004112999995413702,None,,114.2225299999991,114.2225299999991,114.2225299999991,114.2225299999991,114.2225299999991,114.2225299999991,114.2225299999991,114.2225299999991,114.2225299999991,114.2225299999991,004,P005,2025_Jan_18_1554,ConditionRich,2021.2.3,59.934683182483056,
77.0,77.75,26,0.75,Stimuli/P005/things_face_03s.jpg,0,0,0.0,0,147,147,147,,,,,,,,,,,,,77.00081849999697,0.000818499996967148,None,,114.48939149999933,114.48939149999933,114.48939149999933,114.48939149999933,114.48939149999933,114.48939149999933,114.48939149999933,114.48939149999933,114.48939149999933,114.48939149999933,004,P005,2025_Jan_18_1554,ConditionRich,2021.2.3,59.934683182483056,
77.75,78.0,41,0.0,Stimuli/Blank.png,0,0,0.0,0,148,148,148,,,,,,,,,,,,,77.7673106000002,0.017310600000200793,None,,115.24005079999915,115.24005079999915,115.24005079999915,115.24005079999915,115.24005079999915,115.24005079999915,115.24005079999915,115.24005079999915,115.24005079999915,115.24005079999915,004,P005,2025_Jan_18_1554,ConditionRich,2021.2.3,59.934683182483056,
78.0,78.75,26,0.75,Stimuli/P005/things_face_03s.jpg,0,0,0.0,0,149,149,149,,,,,,,,,,,,,78.00058589999753,0.0005858999975316692,None,,115.47358779999922,115.47358779999922,115.47358779999922,115.47358779999922,115.47358779999922,115.47358779999922,115.47358779999922,115.47358779999922,115.47358779999922,115.47358779999922,004,P005,2025_Jan_18_1554,ConditionRich,2021.2.3,59.934683182483056,
78.75,79.0,41,0.0,Stimuli/Blank.png,0,0,0.0,0,150,150,150,,,,,,,,,,,,,78.75154439999824,0.0015443999982380774,None,,116.2242499999993,116.2242499999993,116.2242499999993,116.2242499999993,116.2242499999993,116.2242499999993,116.2242499999993,116.2242499999993,116.2242499999993,116.2242499999993,004,P005,2025_Jan_18_1554,ConditionRich,2021.2.3,59.934683182483056,
79.0,79.75,26,0.75,Stimuli/P005/things_face_03s.jpg,0,0,0.0,0,151,151,151,,,,,,,,,,,,,79.00201219999872,0.0020121999987168238,None,,116.47446889999992,116.47446889999992,116.47446889999992,116.47446889999992,116.47446889999992,116.47446889999992,116.47446889999992,116.47446889999992,116.47446889999992,116.47446889999992,004,P005,2025_Jan_18_1554,ConditionRich,2021.2.3,59.934683182483056,
79.75,80.0,41,0.0,Stimuli/Blank.png,0,0,0.0,0,152,152,152,,,,,,,,,,,,,79.75237199999901,0.0023719999990134966,None,,117.22513769999932,117.22513769999932,117.22513769999932,117.22513769999932,117.22513769999932,117.22513769999932,117.22513769999932,117.22513769999932,117.22513769999932,117.22513769999932,004,P005,2025_Jan_18_1554,ConditionRich,2021.2.3,59.934683182483056,
80.0,80.75,25,0.75,Stimuli/P005/things_dog_03s.jpg,0,0,0.0,0,153,153,153,,,,,,,,,,,,,80.00288439999713,0.0028843999971286394,None,,117.4920490000004,117.4920490000004,117.4920490000004,117.4920490000004,117.4920490000004,117.4920490000004,117.4920490000004,117.4920490000004,117.4920490000004,117.4920490000004,004,P005,2025_Jan_18_1554,ConditionRich,2021.2.3,59.934683182483056,
80.75,81.0,41,0.0,Stimuli/Blank.png,0,0,0.0,0,154,154,154,,,,,,,,,,,,,80.7702298999975,0.020229899997502798,None,,118.24270319999778,118.24270319999778,118.24270319999778,118.24270319999778,118.24270319999778,118.24270319999778,118.24270319999778,118.24270319999778,118.24270319999778,118.24270319999778,004,P005,2025_Jan_18_1554,ConditionRich,2021.2.3,59.934683182483056,
81.0,81.75,25,0.75,Stimuli/P005/things_dog_03s.jpg,0,0,0.0,0,155,155,155,,,,,,,,,,,,,81.00599379999767,0.005993799997668248,None,,118.49293399999806,118.49293399999806,118.49293399999806,118.49293399999806,118.49293399999806,118.49293399999806,118.49293399999806,118.49293399999806,118.49293399999806,118.49293399999806,004,P005,2025_Jan_18_1554,ConditionRich,2021.2.3,59.934683182483056,
81.75,82.0,41,0.0,Stimuli/Blank.png,0,0,0.0,0,156,156,156,,,,,,,,,,,,,81.77116129999922,0.021161299999221228,None,,119.2435688000005,119.2435688000005,119.2435688000005,119.2435688000005,119.2435688000005,119.2435688000005,119.2435688000005,119.2435688000005,119.2435688000005,119.2435688000005,004,P005,2025_Jan_18_1554,ConditionRich,2021.2.3,59.934683182483056,
82.0,82.75,25,0.75,Stimuli/P005/things_dog_03s.jpg,0,0,0.0,0,157,157,157,,,,,,,,,,,,,82.00640219999696,0.00640219999695546,None,,119.49380060000112,119.49380060000112,119.49380060000112,119.49380060000112,119.49380060000112,119.49380060000112,119.49380060000112,119.49380060000112,119.49380060000112,119.49380060000112,004,P005,2025_Jan_18_1554,ConditionRich,2021.2.3,59.934683182483056,
82.75,83.0,41,0.0,Stimuli/Blank.png,0,0,0.0,0,158,158,158,,,,,,,,,,,,,82.77181589999964,0.021815899999637622,None,,120.24557389999973,120.24557389999973,120.24557389999973,120.24557389999973,120.24557389999973,120.24557389999973,120.24557389999973,120.24557389999973,120.24557389999973,120.24557389999973,004,P005,2025_Jan_18_1554,ConditionRich,2021.2.3,59.934683182483056,
83.0,83.75,25,0.75,Stimuli/P005/things_dog_03s.jpg,0,0,0.0,0,159,159,159,,,,,,,,,,,,,83.00562889999856,0.0056288999985554256,None,,120.47800759999882,120.47800759999882,120.47800759999882,120.47800759999882,120.47800759999882,120.47800759999882,120.47800759999882,120.47800759999882,120.47800759999882,120.47800759999882,004,P005,2025_Jan_18_1554,ConditionRich,2021.2.3,59.934683182483056,
83.75,84.0,41,0.0,Stimuli/Blank.png,0,0,0.0,0,160,160,160,,,,,,,,,,,,,83.75660689999859,0.006606899998587323,None,,121.22866960000101,121.22866960000101,121.22866960000101,121.22866960000101,121.22866960000101,121.22866960000101,121.22866960000101,121.22866960000101,121.22866960000101,121.22866960000101,004,P005,2025_Jan_18_1554,ConditionRich,2021.2.3,59.934683182483056,
84.0,100.0,0,0.0,Stimuli/Blank.png,1,4,4.75,0,161,161,161,,,,,,,,,,,,,84.0065383000001,0.006538300000102026,5,13.976956699996663,121.47887339999943,121.47887339999943,121.47887339999943,121.47887339999943,121.47887339999943,121.47887339999943,125.46571290000065,126.2163741000004,121.47887339999943,121.47887339999943,004,P005,2025_Jan_18_1554,ConditionRich,2021.2.3,59.934683182483056,
100.0,100.75,23,0.75,Stimuli/P005/things_beetle_03s.jpg,0,0,0.0,0,162,162,162,,,,,,,,,,,,,100.00641529999848,0.006415299998479895,None,,137.4929826000007,137.4929826000007,137.4929826000007,137.4929826000007,137.4929826000007,137.4929826000007,137.4929826000007,137.4929826000007,137.4929826000007,137.4929826000007,004,P005,2025_Jan_18_1554,ConditionRich,2021.2.3,59.934683182483056,
100.75,101.0,41,0.0,Stimuli/Blank.png,0,0,0.0,0,163,163,163,,,,,,,,,,,,,100.77173309999853,0.021733099998527905,None,,138.2436467999978,138.2436467999978,138.2436467999978,138.2436467999978,138.2436467999978,138.2436467999978,138.2436467999978,138.2436467999978,138.2436467999978,138.2436467999978,004,P005,2025_Jan_18_1554,ConditionRich,2021.2.3,59.934683182483056,
101.0,101.75,23,0.75,Stimuli/P005/things_beetle_03s.jpg,0,0,0.0,0,164,164,164,,,,,,,,,,,,,101.00513030000002,0.005130300000018906,None,,138.4771753999994,138.4771753999994,138.4771753999994,138.4771753999994,138.4771753999994,138.4771753999994,138.4771753999994,138.4771753999994,138.4771753999994,138.4771753999994,004,P005,2025_Jan_18_1554,ConditionRich,2021.2.3,59.934683182483056,
101.75,102.0,41,0.0,Stimuli/Blank.png,0,0,0.0,0,165,165,165,,,,,,,,,,,,,101.7557061999978,0.005706199997803196,None,,139.22783479999998,139.22783479999998,139.22783479999998,139.22783479999998,139.22783479999998,139.22783479999998,139.22783479999998,139.22783479999998,139.22783479999998,139.22783479999998,004,P005,2025_Jan_18_1554,ConditionRich,2021.2.3,59.934683182483056,
102.0,102.75,23,0.75,Stimuli/P005/things_beetle_03s.jpg,0,0,0.0,0,166,166,166,,,,,,,,,,,,,102.006507099999,0.006507099998998456,None,,139.4947604000008,139.4947604000008,139.4947604000008,139.4947604000008,139.4947604000008,139.4947604000008,139.4947604000008,139.4947604000008,139.4947604000008,139.4947604000008,004,P005,2025_Jan_18_1554,ConditionRich,2021.2.3,59.934683182483056,
102.75,103.0,41,0.0,Stimuli/Blank.png,0,0,0.0,0,167,167,167,,,,,,,,,,,,,102.773038299998,0.02303829999800655,None,,140.24547560000065,140.24547560000065,140.24547560000065,140.24547560000065,140.24547560000065,140.24547560000065,140.24547560000065,140.24547560000065,140.24547560000065,140.24547560000065,004,P005,2025_Jan_18_1554,ConditionRich,2021.2.3,59.934683182483056,
103.0,103.75,23,0.75,Stimuli/P005/things_beetle_03s.jpg,1,0,0.75,0,168,168,168,,,,,,,,,,,,,103.00678019999759,0.006780199997592717,4,0.5235632000003534,140.49563520000083,140.49563520000083,140.49563520000083,140.49563520000083,140.49563520000083,140.49563520000083,140.49563520000083,141.21292709999761,140.49563520000083,140.49563520000083,004,P005,2025_Jan_18_1554,ConditionRich,2021.2.3,59.934683182483056,
103.75,104.0,41,0.0,Stimuli/Blank.png,0,0,0.0,0,169,169,169,,,,,,,,,,,,,103.77309889999742,0.02309889999742154,None,,141.24627269999837,141.24627269999837,141.24627269999837,141.24627269999837,141.24627269999837,141.24627269999837,141.24627269999837,141.24627269999837,141.24627269999837,141.24627269999837,004,P005,2025_Jan_18_1554,ConditionRich,2021.2.3,59.934683182483056,
104.0,104.75,5,0.75,Stimuli/P005/sun_axaqdcecfojvpvrl.jpg,0,0,0.0,0,170,170,170,,,,,,,,,,,,,104.00769869999931,0.007698699999309611,None,,141.4797854999997,141.4797854999997,141.4797854999997,141.4797854999997,141.4797854999997,141.4797854999997,141.4797854999997,141.4797854999997,141.4797854999997,141.4797854999997,004,P005,2025_Jan_18_1554,ConditionRich,2021.2.3,59.934683182483056,
104.75,105.0,41,0.0,Stimuli/Blank.png,0,0,0.0,0,171,171,171,,,,,,,,,,,,,104.75740009999936,0.007400099999358645,None,,142.23047569999835,142.23047569999835,142.23047569999835,142.23047569999835,142.23047569999835,142.23047569999835,142.23047569999835,142.23047569999835,142.23047569999835,142.23047569999835,004,P005,2025_Jan_18_1554,ConditionRich,2021.2.3,59.934683182483056,
105.0,105.75,5,0.75,Stimuli/P005/sun_axaqdcecfojvpvrl.jpg,0,0,0.0,0,172,172,172,,,,,,,,,,,,,105.0084317999972,0.008431799997197231,None,,142.49737549999918,142.49737549999918,142.49737549999918,142.49737549999918,142.49737549999918,142.49737549999918,142.49737549999918,142.49737549999918,142.49737549999918,142.49737549999918,004,P005,2025_Jan_18_1554,ConditionRich,2021.2.3,59.934683182483056,
105.75,106.0,41,0.0,Stimuli/Blank.png,0,0,0.0,0,173,173,173,,,,,,,,,,,,,105.77621459999864,0.026214599998638732,None,,143.24804629999926,143.24804629999926,143.24804629999926,143.24804629999926,143.24804629999926,143.24804629999926,143.24804629999926,143.24804629999926,143.24804629999926,143.24804629999926,004,P005,2025_Jan_18_1554,ConditionRich,2021.2.3,59.934683182483056,
106.0,106.75,5,0.75,Stimuli/P005/sun_axaqdcecfojvpvrl.jpg,0,0,0.0,0,174,174,174,,,,,,,,,,,,,106.00900379999803,0.009003799998026807,None,,143.48161210000035,143.48161210000035,143.48161210000035,143.48161210000035,143.48161210000035,143.48161210000035,143.48161210000035,143.48161210000035,143.48161210000035,143.48161210000035,004,P005,2025_Jan_18_1554,ConditionRich,2021.2.3,59.934683182483056,
106.75,107.0,41,0.0,Stimuli/Blank.png,0,0,0.0,0,175,175,175,,,,,,,,,,,,,106.76062769999771,0.010627699997712625,None,,144.23224839999966,144.23224839999966,144.23224839999966,144.23224839999966,144.23224839999966,144.23224839999966,144.23224839999966,144.23224839999966,144.23224839999966,144.23224839999966,004,P005,2025_Jan_18_1554,ConditionRich,2021.2.3,59.934683182483056,
107.0,107.75,5,0.75,Stimuli/P005/sun_axaqdcecfojvpvrl.jpg,0,0,0.0,0,176,176,176,,,,,,,,,,,,,107.00936379999985,0.009363799999846378,None,,144.48245319999842,144.48245319999842,144.48245319999842,144.48245319999842,144.48245319999842,144.48245319999842,144.48245319999842,144.48245319999842,144.48245319999842,144.48245319999842,004,P005,2025_Jan_18_1554,ConditionRich,2021.2.3,59.934683182483056,
107.75,108.0,41,0.0,Stimuli/Blank.png,0,0,0.0,0,177,177,177,,,,,,,,,,,,,107.76060329999746,0.010603299997455906,None,,145.23312950000036,145.23312950000036,145.23312950000036,145.23312950000036,145.23312950000036,145.23312950000036,145.23312950000036,145.23312950000036,145.23312950000036,145.23312950000036,004,P005,2025_Jan_18_1554,ConditionRich,2021.2.3,59.934683182483056,
108.0,108.75,20,0.75,Stimuli/P005/sun_dvxuxzytfdbjyzit.jpg,0,0,0.0,0,178,178,178,,,,,,,,,,,,,108.01070949999848,0.010709499998483807,None,,145.48334279999835,145.48334279999835,145.48334279999835,145.48334279999835,145.48334279999835,145.48334279999835,145.48334279999835,145.48334279999835,145.48334279999835,145.48334279999835,004,P005,2025_Jan_18_1554,ConditionRich,2021.2.3,59.934683182483056,
108.75,109.0,41,0.0,Stimuli/Blank.png,0,0,0.0,0,179,179,179,,,,,,,,,,,,,108.76234230000045,0.012342300000454998,None,,146.25070929999856,146.25070929999856,146.25070929999856,146.25070929999856,146.25070929999856,146.25070929999856,146.25070929999856,146.25070929999856,146.25070929999856,146.25070929999856,004,P005,2025_Jan_18_1554,ConditionRich,2021.2.3,59.934683182483056,
109.0,109.75,20,0.75,Stimuli/P005/sun_dvxuxzytfdbjyzit.jpg,0,0,0.0,0,180,180,180,,,,,,,,,,,,,109.02806079999937,0.02806079999936628,None,,146.50089859999935,146.50089859999935,146.50089859999935,146.50089859999935,146.50089859999935,146.50089859999935,146.50089859999935,146.50089859999935,146.50089859999935,146.50089859999935,004,P005,2025_Jan_18_1554,ConditionRich,2021.2.3,59.934683182483056,
109.75,110.0,41,0.0,Stimuli/Blank.png,0,0,0.0,0,181,181,181,,,,,,,,,,,,,109.76243059999979,0.012430599999788683,None,,147.23488219999854,147.23488219999854,147.23488219999854,147.23488219999854,147.23488219999854,147.23488219999854,147.23488219999854,147.23488219999854,147.23488219999854,147.23488219999854,004,P005,2025_Jan_18_1554,ConditionRich,2021.2.3,59.934683182483056,
110.0,110.75,20,0.75,Stimuli/P005/sun_dvxuxzytfdbjyzit.jpg,0,0,0.0,0,182,182,182,,,,,,,,,,,,,110.01266819999728,0.012668199997278862,None,,147.50178869999945,147.50178869999945,147.50178869999945,147.50178869999945,147.50178869999945,147.50178869999945,147.50178869999945,147.50178869999945,147.50178869999945,147.50178869999945,004,P005,2025_Jan_18_1554,ConditionRich,2021.2.3,59.934683182483056,
110.75,111.0,41,0.0,Stimuli/Blank.png,0,0,0.0,0,183,183,183,,,,,,,,,,,,,110.77968920000058,0.02968920000057551,None,,148.25243749999936,148.25243749999936,148.25243749999936,148.25243749999936,148.25243749999936,148.25243749999936,148.25243749999936,148.25243749999936,148.25243749999936,148.25243749999936,004,P005,2025_Jan_18_1554,ConditionRich,2021.2.3,59.934683182483056,
111.0,111.75,20,0.75,Stimuli/P005/sun_dvxuxzytfdbjyzit.jpg,0,0,0.0,0,184,184,184,,,,,,,,,,,,,111.01334809999753,0.013348099997529062,None,,148.48598599999968,148.48598599999968,148.48598599999968,148.48598599999968,148.48598599999968,148.48598599999968,148.48598599999968,148.48598599999968,148.48598599999968,148.48598599999968,004,P005,2025_Jan_18_1554,ConditionRich,2021.2.3,59.934683182483056,
111.75,112.0,41,0.0,Stimuli/Blank.png,0,0,0.0,0,185,185,185,,,,,,,,,,,,,111.7662934,0.016293399999995017,None,,149.2533266999999,149.2533266999999,149.2533266999999,149.2533266999999,149.2533266999999,149.2533266999999,149.2533266999999,149.2533266999999,149.2533266999999,149.2533266999999,004,P005,2025_Jan_18_1554,ConditionRich,2021.2.3,59.934683182483056,
112.0,112.75,1,0.75,Stimuli/P005/sun_adyhbxohydkpecty.jpg,0,0,0.0,0,186,186,186,,,,,,,,,,,,,112.01462270000047,0.014622700000472832,None,,149.4868709000002,149.4868709000002,149.4868709000002,149.4868709000002,149.4868709000002,149.4868709000002,149.4868709000002,149.4868709000002,149.4868709000002,149.4868709000002,004,P005,2025_Jan_18_1554,ConditionRich,2021.2.3,59.934683182483056,
112.75,113.0,41,0.0,Stimuli/Blank.png,0,0,0.0,0,187,187,187,,,,,,,,,,,,,112.75065949999771,0.000659499997709645,None,,150.2376230000009,150.2376230000009,150.2376230000009,150.2376230000009,150.2376230000009,150.2376230000009,150.2376230000009,150.2376230000009,150.2376230000009,150.2376230000009,004,P005,2025_Jan_18_1554,ConditionRich,2021.2.3,59.934683182483056,
113.0,113.75,1,0.75,Stimuli/P005/sun_adyhbxohydkpecty.jpg,0,0,0.0,0,188,188,188,,,,,,,,,,,,,113.01554939999914,0.015549399999144953,None,,150.4877908999988,150.4877908999988,150.4877908999988,150.4877908999988,150.4877908999988,150.4877908999988,150.4877908999988,150.4877908999988,150.4877908999988,150.4877908999988,004,P005,2025_Jan_18_1554,ConditionRich,2021.2.3,59.934683182483056,
113.75,114.0,41,0.0,Stimuli/Blank.png,0,0,0.0,0,189,189,189,,,,,,,,,,,,,113.75115969999752,0.0011596999975154176,5,0.21728599999914877,151.2384099999981,151.2384099999981,151.2384099999981,151.2384099999981,151.2384099999981,151.2384099999981,151.2384099999981,151.2384099999981,151.2384099999981,151.2384099999981,004,P005,2025_Jan_18_1554,ConditionRich,2021.2.3,59.934683182483056,
114.0,114.75,1,0.75,Stimuli/P005/sun_adyhbxohydkpecty.jpg,0,0,0.0,0,190,190,190,,,,,,,,,,,,,114.01680789999955,0.01680789999954868,None,,151.50530720000097,151.50530720000097,151.50530720000097,151.50530720000097,151.50530720000097,151.50530720000097,151.50530720000097,151.50530720000097,151.50530720000097,151.50530720000097,004,P005,2025_Jan_18_1554,ConditionRich,2021.2.3,59.934683182483056,
114.75,115.0,41,0.0,Stimuli/Blank.png,0,0,0.0,0,191,191,191,,,,,,,,,,,,,114.76627249999729,0.016272499997285195,None,,152.23928520000118,152.23928520000118,152.23928520000118,152.23928520000118,152.23928520000118,152.23928520000118,152.23928520000118,152.23928520000118,152.23928520000118,152.23928520000118,004,P005,2025_Jan_18_1554,ConditionRich,2021.2.3,59.934683182483056,
115.0,115.75,1,0.75,Stimuli/P005/sun_adyhbxohydkpecty.jpg,0,0,0.0,0,192,192,192,,,,,,,,,,,,,115.00033469999835,0.0003346999983477872,None,,152.47281870000006,152.47281870000006,152.47281870000006,152.47281870000006,152.47281870000006,152.47281870000006,152.47281870000006,152.47281870000006,152.47281870000006,152.47281870000006,004,P005,2025_Jan_18_1554,ConditionRich,2021.2.3,59.934683182483056,
115.75,116.0,41,0.0,Stimuli/Blank.png,0,0,0.0,0,193,193,193,,,,,,,,,,,,,115.7503403999981,0.0003403999980946537,None,,153.2234810000009,153.2234810000009,153.2234810000009,153.2234810000009,153.2234810000009,153.2234810000009,153.2234810000009,153.2234810000009,153.2234810000009,153.2234810000009,004,P005,2025_Jan_18_1554,ConditionRich,2021.2.3,59.934683182483056,
116.0,116.75,29,0.75,Stimuli/P005/things_guillotine_03s.jpg,0,0,0.0,0,194,194,194,,,,,,,,,,,,,116.00127950000024,0.0012795000002370216,None,,153.49038759999894,153.49038759999894,153.49038759999894,153.49038759999894,153.49038759999894,153.49038759999894,153.49038759999894,153.49038759999894,153.49038759999894,153.49038759999894,004,P005,2025_Jan_18_1554,ConditionRich,2021.2.3,59.934683182483056,
116.75,117.0,41,0.0,Stimuli/Blank.png,0,0,0.0,0,195,195,195,,,,,,,,,,,,,116.77075960000002,0.020759600000019418,None,,154.25773470000058,154.25773470000058,154.25773470000058,154.25773470000058,154.25773470000058,154.25773470000058,154.25773470000058,154.25773470000058,154.25773470000058,154.25773470000058,004,P005,2025_Jan_18_1554,ConditionRich,2021.2.3,59.934683182483056,
117.0,117.75,29,0.75,Stimuli/P005/things_guillotine_03s.jpg,1,0,0.75,0,196,196,196,,,,,,,,,,,,,117.0193333999996,0.019333399999595713,4,0.4326293000012811,154.4912602000004,154.4912602000004,154.4912602000004,154.4912602000004,154.4912602000004,154.4912602000004,154.4912602000004,None,154.4912602000004,154.4912602000004,004,P005,2025_Jan_18_1554,ConditionRich,2021.2.3,59.934683182483056,
117.75,118.0,41,0.0,Stimuli/Blank.png,0,0,0.0,0,197,197,197,,,,,,,,,,,,,117.75232259999757,0.002322599997569341,None,,155.22523960000035,155.22523960000035,155.22523960000035,155.22523960000035,155.22523960000035,155.22523960000035,155.22523960000035,155.22523960000035,155.22523960000035,155.22523960000035,004,P005,2025_Jan_18_1554,ConditionRich,2021.2.3,59.934683182483056,
118.0,118.75,29,0.75,Stimuli/P005/things_guillotine_03s.jpg,0,0,0.0,0,198,198,198,,,,,,,,,,,,,118.00250369999776,0.0025036999977601226,None,,155.47553609999886,155.47553609999886,155.47553609999886,155.47553609999886,155.47553609999886,155.47553609999886,155.47553609999886,155.47553609999886,155.47553609999886,155.47553609999886,004,P005,2025_Jan_18_1554,ConditionRich,2021.2.3,59.934683182483056,
118.75,119.0,41,0.0,Stimuli/Blank.png,0,0,0.0,0,199,199,199,,,,,,,,,,,,,118.75346649999847,0.003466499998467043,None,,156.22612519999893,156.22612519999893,156.22612519999893,156.22612519999893,156.22612519999893,156.22612519999893,156.22612519999893,156.22612519999893,156.22612519999893,156.22612519999893,004,P005,2025_Jan_18_1554,ConditionRich,2021.2.3,59.934683182483056,
119.0,119.75,29,0.75,Stimuli/P005/things_guillotine_03s.jpg,0,0,0.0,0,200,200,200,,,,,,,,,,,,,119.00590290000036,0.0059029000003647525,None,,156.49303189999773,156.49303189999773,156.49303189999773,156.49303189999773,156.49303189999773,156.49303189999773,156.49303189999773,156.49303189999773,156.49303189999773,156.49303189999773,004,P005,2025_Jan_18_1554,ConditionRich,2021.2.3,59.934683182483056,
119.75,120.0,41,0.0,Stimuli/Blank.png,0,0,0.0,0,201,201,201,,,,,,,,,,,,,119.77156779999859,0.021567799998592818,None,,157.24369189999925,157.24369189999925,157.24369189999925,157.24369189999925,157.24369189999925,157.24369189999925,157.24369189999925,157.24369189999925,157.24369189999925,157.24369189999925,004,P005,2025_Jan_18_1554,ConditionRich,2021.2.3,59.934683182483056,
120.0,120.75,40,0.75,Stimuli/P005/things_woman_03s.jpg,0,0,0.0,0,202,202,202,,,,,,,,,,,,,120.00684799999726,0.006847999997262377,None,,157.49390839999978,157.49390839999978,157.49390839999978,157.49390839999978,157.49390839999978,157.49390839999978,157.49390839999978,157.49390839999978,157.49390839999978,157.49390839999978,004,P005,2025_Jan_18_1554,ConditionRich,2021.2.3,59.934683182483056,
120.75,121.0,41,0.0,Stimuli/Blank.png,0,0,0.0,0,203,203,203,,,,,,,,,,,,,120.77209329999823,0.022093299998232396,None,,158.2445774000007,158.2445774000007,158.2445774000007,158.2445774000007,158.2445774000007,158.2445774000007,158.2445774000007,158.2445774000007,158.2445774000007,158.2445774000007,004,P005,2025_Jan_18_1554,ConditionRich,2021.2.3,59.934683182483056,
121.0,121.75,40,0.75,Stimuli/P005/things_woman_03s.jpg,0,0,0.0,0,204,204,204,,,,,,,,,,,,,121.00569209999958,0.005692099999578204,None,,158.47811699999875,158.47811699999875,158.47811699999875,158.47811699999875,158.47811699999875,158.47811699999875,158.47811699999875,158.47811699999875,158.47811699999875,158.47811699999875,004,P005,2025_Jan_18_1554,ConditionRich,2021.2.3,59.934683182483056,
121.75,122.0,41,0.0,Stimuli/Blank.png,0,0,0.0,0,205,205,205,,,,,,,,,,,,,121.75665189999927,0.006651899999269517,None,,159.22877349999908,159.22877349999908,159.22877349999908,159.22877349999908,159.22877349999908,159.22877349999908,159.22877349999908,159.22877349999908,159.22877349999908,159.22877349999908,004,P005,2025_Jan_18_1554,ConditionRich,2021.2.3,59.934683182483056,
122.0,122.75,40,0.75,Stimuli/P005/things_woman_03s.jpg,0,0,0.0,0,206,206,206,,,,,,,,,,,,,122.00646620000043,0.006466200000431854,None,,159.47898409999834,159.47898409999834,159.47898409999834,159.47898409999834,159.47898409999834,159.47898409999834,159.47898409999834,159.47898409999834,159.47898409999834,159.47898409999834,004,P005,2025_Jan_18_1554,ConditionRich,2021.2.3,59.934683182483056,
122.75,123.0,41,0.0,Stimuli/Blank.png,0,0,0.0,0,207,207,207,,,,,,,,,,,,,122.75755949999802,0.007559499998023966,None,,160.22965380000096,160.22965380000096,160.22965380000096,160.22965380000096,160.22965380000096,160.22965380000096,160.22965380000096,160.22965380000096,160.22965380000096,160.22965380000096,004,P005,2025_Jan_18_1554,ConditionRich,2021.2.3,59.934683182483056,
123.0,123.75,40,0.75,Stimuli/P005/things_woman_03s.jpg,1,0,0.75,0,208,208,208,,,,,,,,,,,,,123.00688719999744,0.006887199997436255,4,0.5942304000018339,160.4798711000003,160.4798711000003,160.4798711000003,160.4798711000003,160.4798711000003,160.4798711000003,160.4798711000003,161.21384910000052,160.4798711000003,160.4798711000003,004,P005,2025_Jan_18_1554,ConditionRich,2021.2.3,59.934683182483056,
123.75,124.0,41,0.0,Stimuli/Blank.png,0,0,0.0,0,209,209,209,,,,,,,,,,,,,123.75790430000052,0.00790430000051856,None,,161.23061199999938,161.23061199999938,161.23061199999938,161.23061199999938,161.23061199999938,161.23061199999938,161.23061199999938,161.23061199999938,161.23061199999938,161.23061199999938,004,P005,2025_Jan_18_1554,ConditionRich,2021.2.3,59.934683182483056,
124.0,124.75,33,0.75,Stimuli/P005/things_man_03s.jpg,0,0,0.0,0,210,210,210,,,,,,,,,,,,,124.00825809999878,0.008258099998784019,None,,161.49743189999936,161.49743189999936,161.49743189999936,161.49743189999936,161.49743189999936,161.49743189999936,161.49743189999936,161.49743189999936,161.49743189999936,161.49743189999936,004,P005,2025_Jan_18_1554,ConditionRich,2021.2.3,59.934683182483056,
124.75,125.0,41,0.0,Stimuli/Blank.png,0,0,0.0,0,211,211,211,,,,,,,,,,,,,124.77634679999755,0.026346799997554626,None,,162.24810090000028,162.24810090000028,162.24810090000028,162.24810090000028,162.24810090000028,162.24810090000028,162.24810090000028,162.24810090000028,162.24810090000028,162.24810090000028,004,P005,2025_Jan_18_1554,ConditionRich,2021.2.3,59.934683182483056,
125.0,125.75,33,0.75,Stimuli/P005/things_man_03s.jpg,0,0,0.0,0,212,212,212,,,,,,,,,,,,,125.0111567999993,0.011156799999298528,None,,162.49832429999879,162.49832429999879,162.49832429999879,162.49832429999879,162.49832429999879,162.49832429999879,162.49832429999879,162.49832429999879,162.49832429999879,162.49832429999879,004,P005,2025_Jan_18_1554,ConditionRich,2021.2.3,59.934683182483056,
125.75,126.0,41,0.0,Stimuli/Blank.png,0,0,0.0,0,213,213,213,,,,,,,,,,,,,125.7772675999986,0.02726759999859496,5,0.19030800000109593,163.26569100000052,163.26569100000052,163.26569100000052,163.26569100000052,163.26569100000052,163.26569100000052,163.26569100000052,163.26569100000052,163.26569100000052,163.26569100000052,004,P005,2025_Jan_18_1554,ConditionRich,2021.2.3,59.934683182483056,
126.0,126.75,33,0.75,Stimuli/P005/things_man_03s.jpg,0,0,0.0,0,214,214,214,,,,,,,,,,,,,126.02616099999796,0.026160999997955514,None,,163.49919349999982,163.49919349999982,163.49919349999982,163.49919349999982,163.49919349999982,163.49919349999982,163.49919349999982,163.49919349999982,163.49919349999982,163.49919349999982,004,P005,2025_Jan_18_1554,ConditionRich,2021.2.3,59.934683182483056,
126.75,127.0,41,0.0,Stimuli/Blank.png,0,0,0.0,0,215,215,215,,,,,,,,,,,,,126.76064819999738,0.01064819999737665,None,,164.23318179999842,164.23318179999842,164.23318179999842,164.23318179999842,164.23318179999842,164.23318179999842,164.23318179999842,164.23318179999842,164.23318179999842,164.23318179999842,004,P005,2025_Jan_18_1554,ConditionRich,2021.2.3,59.934683182483056,
127.0,127.75,33,0.75,Stimuli/P005/things_man_03s.jpg,0,0,0.0,0,216,216,216,,,,,,,,,,,,,127.0104379000004,0.010437900000397349,None,,164.4833949999993,164.4833949999993,164.4833949999993,164.4833949999993,164.4833949999993,164.4833949999993,164.4833949999993,164.4833949999993,164.4833949999993,164.4833949999993,004,P005,2025_Jan_18_1554,ConditionRich,2021.2.3,59.934683182483056,
127.75,128.0,41,0.0,Stimuli/Blank.png,0,0,0.0,0,217,217,217,,,,,,,,,,,,,127.76140839999789,0.011408399997890228,None,,165.2340562999998,165.2340562999998,165.2340562999998,165.2340562999998,165.2340562999998,165.2340562999998,165.2340562999998,165.2340562999998,165.2340562999998,165.2340562999998,004,P005,2025_Jan_18_1554,ConditionRich,2021.2.3,59.934683182483056,
128.0,128.75,2,0.75,Stimuli/P005/sun_ahmycohdkioefoxs.jpg,0,0,0.0,0,218,218,218,,,,,,,,,,,,,128.011648599997,0.011648599996988196,None,,165.48427699999957,165.48427699999957,165.48427699999957,165.48427699999957,165.48427699999957,165.48427699999957,165.48427699999957,165.48427699999957,165.48427699999957,165.48427699999957,004,P005,2025_Jan_18_1554,ConditionRich,2021.2.3,59.934683182483056,
128.75,129.0,41,0.0,Stimuli/Blank.png,0,0,0.0,0,219,219,219,,,,,,,,,,,,,128.76277479999771,0.012774799997714581,None,,166.2350105000005,166.2350105000005,166.2350105000005,166.2350105000005,166.2350105000005,166.2350105000005,166.2350105000005,166.2350105000005,166.2350105000005,166.2350105000005,004,P005,2025_Jan_18_1554,ConditionRich,2021.2.3,59.934683182483056,
129.0,129.75,2,0.75,Stimuli/P005/sun_ahmycohdkioefoxs.jpg,0,0,0.0,0,220,220,220,,,,,,,,,,,,,129.01192159999846,0.011921599998458987,None,,166.4851592999985,166.4851592999985,166.4851592999985,166.4851592999985,166.4851592999985,166.4851592999985,166.4851592999985,166.4851592999985,166.4851592999985,166.4851592999985,004,P005,2025_Jan_18_1554,ConditionRich,2021.2.3,59.934683182483056,
129.75,130.0,41,0.0,Stimuli/Blank.png,0,0,0.0,0,221,221,221,,,,,,,,,,,,,129.76554509999914,0.01554509999914444,None,,167.25250510000114,167.25250510000114,167.25250510000114,167.25250510000114,167.25250510000114,167.25250510000114,167.25250510000114,167.25250510000114,167.25250510000114,167.25250510000114,004,P005,2025_Jan_18_1554,ConditionRich,2021.2.3,59.934683182483056,
130.0,130.75,2,0.75,Stimuli/P005/sun_ahmycohdkioefoxs.jpg,0,0,0.0,0,222,222,222,,,,,,,,,,,,,130.01277239999763,0.012772399997629691,None,,167.48603709999952,167.48603709999952,167.48603709999952,167.48603709999952,167.48603709999952,167.48603709999952,167.48603709999952,167.48603709999952,167.48603709999952,167.48603709999952,004,P005,2025_Jan_18_1554,ConditionRich,2021.2.3,59.934683182483056,
130.75,131.0,41,0.0,Stimuli/Blank.png,0,0,0.0,0,223,223,223,,,,,,,,,,,,,130.7658432999997,0.015843299999687588,None,,168.25337379999837,168.25337379999837,168.25337379999837,168.25337379999837,168.25337379999837,168.25337379999837,168.25337379999837,168.25337379999837,168.25337379999837,168.25337379999837,004,P005,2025_Jan_18_1554,ConditionRich,2021.2.3,59.934683182483056,
131.0,131.75,2,0.75,Stimuli/P005/sun_ahmycohdkioefoxs.jpg,0,0,0.0,0,224,224,224,,,,,,,,,,,,,131.01668190000055,0.01668190000054892,None,,168.50373870000112,168.50373870000112,168.50373870000112,168.50373870000112,168.50373870000112,168.50373870000112,168.50373870000112,168.50373870000112,168.50373870000112,168.50373870000112,004,P005,2025_Jan_18_1554,ConditionRich,2021.2.3,59.934683182483056,
131.75,132.0,41,0.0,Stimuli/Blank.png,0,0,0.0,0,225,225,225,,,,,,,,,,,,,131.76545299999998,0.015452999999979511,5,0.21812669999781065,169.23759079999945,169.23759079999945,169.23759079999945,169.23759079999945,169.23759079999945,169.23759079999945,169.23759079999945,169.23759079999945,169.23759079999945,169.23759079999945,004,P005,2025_Jan_18_1554,ConditionRich,2021.2.3,59.934683182483056,
132.0,132.75,10,0.75,Stimuli/P005/sun_bgnxbfhmwhliypvg.jpg,0,0,0.0,0,226,226,226,,,,,,,,,,,,,132.01535239999794,0.015352399997937027,None,,169.48779640000066,169.48779640000066,169.48779640000066,169.48779640000066,169.48779640000066,169.48779640000066,169.48779640000066,169.48779640000066,169.48779640000066,169.48779640000066,004,P005,2025_Jan_18_1554,ConditionRich,2021.2.3,59.934683182483056,
132.75,133.0,41,0.0,Stimuli/Blank.png,0,0,0.0,0,227,227,227,,,,,,,,,,,,,132.74927089999983,-0.0007291000001714565,None,,170.22184019999986,170.22184019999986,170.22184019999986,170.22184019999986,170.22184019999986,170.22184019999986,170.22184019999986,170.22184019999986,170.22184019999986,170.22184019999986,004,P005,2025_Jan_18_1554,ConditionRich,2021.2.3,59.934683182483056,
133.0,133.75,10,0.75,Stimuli/P005/sun_bgnxbfhmwhliypvg.jpg,0,0,0.0,0,228,228,228,,,,,,,,,,,,,133.00224750000052,0.0022475000005215406,None,,170.48868349999975,170.48868349999975,170.48868349999975,170.48868349999975,170.48868349999975,170.48868349999975,170.48868349999975,170.48868349999975,170.48868349999975,170.48868349999975,004,P005,2025_Jan_18_1554,ConditionRich,2021.2.3,59.934683182483056,
133.75,134.0,41,0.0,Stimuli/Blank.png,0,0,0.0,0,229,229,229,,,,,,,,,,,,,133.76707460000034,0.01707460000034189,None,,171.2393403999995,171.2393403999995,171.2393403999995,171.2393403999995,171.2393403999995,171.2393403999995,171.2393403999995,171.2393403999995,171.2393403999995,171.2393403999995,004,P005,2025_Jan_18_1554,ConditionRich,2021.2.3,59.934683182483056,
134.0,134.75,10,0.75,Stimuli/P005/sun_bgnxbfhmwhliypvg.jpg,0,0,0.0,0,230,230,230,,,,,,,,,,,,,134.0006700999984,0.0006700999983877409,None,,171.47287909999795,171.47287909999795,171.47287909999795,171.47287909999795,171.47287909999795,171.47287909999795,171.47287909999795,171.47287909999795,171.47287909999795,171.47287909999795,004,P005,2025_Jan_18_1554,ConditionRich,2021.2.3,59.934683182483056,
134.75,135.0,41,0.0,Stimuli/Blank.png,0,0,0.0,0,231,231,231,,,,,,,,,,,,,134.75109449999945,0.0010944999994535465,None,,172.22354919999998,172.22354919999998,172.22354919999998,172.22354919999998,172.22354919999998,172.22354919999998,172.22354919999998,172.22354919999998,172.22354919999998,172.22354919999998,004,P005,2025_Jan_18_1554,ConditionRich,2021.2.3,59.934683182483056,
135.0,135.75,10,0.75,Stimuli/P005/sun_bgnxbfhmwhliypvg.jpg,0,0,0.0,0,232,232,232,,,,,,,,,,,,,135.00084179999976,0.0008417999997618608,None,,172.47375969999848,172.47375969999848,172.47375969999848,172.47375969999848,172.47375969999848,172.47375969999848,172.47375969999848,172.47375969999848,172.47375969999848,172.47375969999848,004,P005,2025_Jan_18_1554,ConditionRich,2021.2.3,59.934683182483056,
135.75,136.0,41,0.0,Stimuli/Blank.png,0,0,0.0,0,233,233,233,,,,,,,,,,,,,135.7520842999984,0.002084299998386996,None,,173.22441350000008,173.22441350000008,173.22441350000008,173.22441350000008,173.22441350000008,173.22441350000008,173.22441350000008,173.22441350000008,173.22441350000008,173.22441350000008,004,P005,2025_Jan_18_1554,ConditionRich,2021.2.3,59.934683182483056,
136.0,136.75,36,0.75,Stimuli/P005/things_pony_03s.jpg,0,0,0.0,0,234,234,234,,,,,,,,,,,,,136.00244530000055,0.002445300000545103,None,,173.47463939999943,173.47463939999943,173.47463939999943,173.47463939999943,173.47463939999943,173.47463939999943,173.47463939999943,173.47463939999943,173.47463939999943,173.47463939999943,004,P005,2025_Jan_18_1554,ConditionRich,2021.2.3,59.934683182483056,
136.75,137.0,41,0.0,Stimuli/Blank.png,0,0,0.0,0,235,235,235,,,,,,,,,,,,,136.75241520000054,0.0024152000005415175,None,,174.22531510000044,174.22531510000044,174.22531510000044,174.22531510000044,174.22531510000044,174.22531510000044,174.22531510000044,174.22531510000044,174.22531510000044,174.22531510000044,004,P005,2025_Jan_18_1554,ConditionRich,2021.2.3,59.934683182483056,
137.0,137.75,36,0.75,Stimuli/P005/things_pony_03s.jpg,0,0,0.0,0,236,236,236,,,,,,,,,,,,,137.0028586999979,0.0028586999978870153,None,,174.49220559999958,174.49220559999958,174.49220559999958,174.49220559999958,174.49220559999958,174.49220559999958,174.49220559999958,174.49220559999958,174.49220559999958,174.49220559999958,004,P005,2025_Jan_18_1554,ConditionRich,2021.2.3,59.934683182483056,
137.75,138.0,41,0.0,Stimuli/Blank.png,0,0,0.0,0,237,237,237,,,,,,,,,,,,,137.77123589999974,0.02123589999973774,None,,175.2428652999988,175.2428652999988,175.2428652999988,175.2428652999988,175.2428652999988,175.2428652999988,175.2428652999988,175.2428652999988,175.2428652999988,175.2428652999988,004,P005,2025_Jan_18_1554,ConditionRich,2021.2.3,59.934683182483056,
138.0,138.75,36,0.75,Stimuli/P005/things_pony_03s.jpg,0,0,0.0,0,238,238,238,,,,,,,,,,,,,138.00608719999946,0.006087199999456061,None,,175.49308820000078,175.49308820000078,175.49308820000078,175.49308820000078,175.49308820000078,175.49308820000078,175.49308820000078,175.49308820000078,175.49308820000078,175.49308820000078,004,P005,2025_Jan_18_1554,ConditionRich,2021.2.3,59.934683182483056,
138.75,139.0,41,0.0,Stimuli/Blank.png,0,0,0.0,0,239,239,239,,,,,,,,,,,,,138.77159109999775,0.021591099997749552,None,,176.2437495999984,176.2437495999984,176.2437495999984,176.2437495999984,176.2437495999984,176.2437495999984,176.2437495999984,176.2437495999984,176.2437495999984,176.2437495999984,004,P005,2025_Jan_18_1554,ConditionRich,2021.2.3,59.934683182483056,
139.0,139.75,36,0.75,Stimuli/P005/things_pony_03s.jpg,0,0,0.0,0,240,240,240,,,,,,,,,,,,,139.00440799999706,0.004407999997056322,None,,176.47729139999865,176.47729139999865,176.47729139999865,176.47729139999865,176.47729139999865,176.47729139999865,176.47729139999865,176.47729139999865,176.47729139999865,176.47729139999865,004,P005,2025_Jan_18_1554,ConditionRich,2021.2.3,59.934683182483056,
139.75,140.0,41,0.0,Stimuli/Blank.png,0,0,0.0,0,241,241,241,,,,,,,,,,,,,139.75530459999936,0.005304599999362836,None,,177.22793919999822,177.22793919999822,177.22793919999822,177.22793919999822,177.22793919999822,177.22793919999822,177.22793919999822,177.22793919999822,177.22793919999822,177.22793919999822,004,P005,2025_Jan_18_1554,ConditionRich,2021.2.3,59.934683182483056,
140.0,140.75,14,0.75,Stimuli/P005/sun_bsirencncgxteejx.jpg,0,0,0.0,0,242,242,242,,,,,,,,,,,,,140.00612030000048,0.006120300000475254,None,,177.4948473000004,177.4948473000004,177.4948473000004,177.4948473000004,177.4948473000004,177.4948473000004,177.4948473000004,177.4948473000004,177.4948473000004,177.4948473000004,004,P005,2025_Jan_18_1554,ConditionRich,2021.2.3,59.934683182483056,
140.75,141.0,41,0.0,Stimuli/Blank.png,0,0,0.0,0,243,243,243,,,,,,,,,,,,,140.77332829999796,0.023328299997956492,None,,178.2455313999999,178.2455313999999,178.2455313999999,178.2455313999999,178.2455313999999,178.2455313999999,178.2455313999999,178.2455313999999,178.2455313999999,178.2455313999999,004,P005,2025_Jan_18_1554,ConditionRich,2021.2.3,59.934683182483056,
141.0,141.75,14,0.75,Stimuli/P005/sun_bsirencncgxteejx.jpg,0,0,0.0,0,244,244,244,,,,,,,,,,,,,141.00679149999996,0.00679149999996298,None,,178.49574500000017,178.49574500000017,178.49574500000017,178.49574500000017,178.49574500000017,178.49574500000017,178.49574500000017,178.49574500000017,178.49574500000017,178.49574500000017,004,P005,2025_Jan_18_1554,ConditionRich,2021.2.3,59.934683182483056,
141.75,142.0,41,0.0,Stimuli/Blank.png,0,0,0.0,0,245,245,245,,,,,,,,,,,,,141.77702429999772,0.027024299997719936,5,0.19265979999909177,179.26305729999876,179.26305729999876,179.26305729999876,179.26305729999876,179.26305729999876,179.26305729999876,179.26305729999876,179.26305729999876,179.26305729999876,179.26305729999876,004,P005,2025_Jan_18_1554,ConditionRich,2021.2.3,59.934683182483056,
142.0,142.75,14,0.75,Stimuli/P005/sun_bsirencncgxteejx.jpg,0,0,0.0,0,246,246,246,,,,,,,,,,,,,142.02347709999958,0.023477099999581696,None,,179.49661080000078,179.49661080000078,179.49661080000078,179.49661080000078,179.49661080000078,179.49661080000078,179.49661080000078,179.49661080000078,179.49661080000078,179.49661080000078,004,P005,2025_Jan_18_1554,ConditionRich,2021.2.3,59.934683182483056,
142.75,143.0,41,0.0,Stimuli/Blank.png,0,0,0.0,0,247,247,247,,,,,,,,,,,,,142.75905579999744,0.009055799997440772,None,,180.23060519999854,180.23060519999854,180.23060519999854,180.23060519999854,180.23060519999854,180.23060519999854,180.23060519999854,180.23060519999854,180.23060519999854,180.23060519999854,004,P005,2025_Jan_18_1554,ConditionRich,2021.2.3,59.934683182483056,
143.0,143.75,14,0.75,Stimuli/P005/sun_bsirencncgxteejx.jpg,0,0,0.0,0,248,248,248,,,,,,,,,,,,,143.0078603999973,0.007860399997298373,None,,180.49749569999767,180.49749569999767,180.49749569999767,180.49749569999767,180.49749569999767,180.49749569999767,180.49749569999767,180.49749569999767,180.49749569999767,180.49749569999767,004,P005,2025_Jan_18_1554,ConditionRich,2021.2.3,59.934683182483056,
143.75,144.0,41,0.0,Stimuli/Blank.png,0,0,0.0,0,249,249,249,,,,,,,,,,,,,143.77636770000026,0.02636770000026445,None,,181.24816179999834,181.24816179999834,181.24816179999834,181.24816179999834,181.24816179999834,181.24816179999834,181.24816179999834,181.24816179999834,181.24816179999834,181.24816179999834,004,P005,2025_Jan_18_1554,ConditionRich,2021.2.3,59.934683182483056,
144.0,144.75,21,0.75,Stimuli/P005/things_accordion_03s.jpg,0,0,0.0,0,250,250,250,,,,,,,,,,,,,144.00911369999812,0.009113699998124503,None,,181.48168629999782,181.48168629999782,181.48168629999782,181.48168629999782,181.48168629999782,181.48168629999782,181.48168629999782,181.48168629999782,181.48168629999782,181.48168629999782,004,P005,2025_Jan_18_1554,ConditionRich,2021.2.3,59.934683182483056,
144.75,145.0,41,0.0,Stimuli/Blank.png,0,0,0.0,0,251,251,251,,,,,,,,,,,,,144.75937649999833,0.009376499998325016,None,,182.2324015999984,182.2324015999984,182.2324015999984,182.2324015999984,182.2324015999984,182.2324015999984,182.2324015999984,182.2324015999984,182.2324015999984,182.2324015999984,004,P005,2025_Jan_18_1554,ConditionRich,2021.2.3,59.934683182483056,
145.0,145.75,21,0.75,Stimuli/P005/things_accordion_03s.jpg,0,0,0.0,0,252,252,252,,,,,,,,,,,,,145.01030629999877,0.010306299998774193,None,,182.4992667999977,182.4992667999977,182.4992667999977,182.4992667999977,182.4992667999977,182.4992667999977,182.4992667999977,182.4992667999977,182.4992667999977,182.4992667999977,004,P005,2025_Jan_18_1554,ConditionRich,2021.2.3,59.934683182483056,
145.75,146.0,41,0.0,Stimuli/Blank.png,0,0,0.0,0,253,253,253,,,,,,,,,,,,,145.77735109999776,0.027351099997758865,None,,183.24991189999855,183.24991189999855,183.24991189999855,183.24991189999855,183.24991189999855,183.24991189999855,183.24991189999855,183.24991189999855,183.24991189999855,183.24991189999855,004,P005,2025_Jan_18_1554,ConditionRich,2021.2.3,59.934683182483056,
146.0,146.75,21,0.75,Stimuli/P005/things_accordion_03s.jpg,0,0,0.0,0,254,254,254,,,,,,,,,,,,,146.01125189999948,0.011251899999479065,None,,183.50013150000086,183.50013150000086,183.50013150000086,183.50013150000086,183.50013150000086,183.50013150000086,183.50013150000086,183.50013150000086,183.50013150000086,183.50013150000086,004,P005,2025_Jan_18_1554,ConditionRich,2021.2.3,59.934683182483056,
146.75,147.0,41,0.0,Stimuli/Blank.png,0,0,0.0,0,255,255,255,,,,,,,,,,,,,146.77802579999843,0.028025799998431467,None,,184.25079180000102,184.25079180000102,184.25079180000102,184.25079180000102,184.25079180000102,184.25079180000102,184.25079180000102,184.25079180000102,184.25079180000102,184.25079180000102,004,P005,2025_Jan_18_1554,ConditionRich,2021.2.3,59.934683182483056,
147.0,147.75,21,0.75,Stimuli/P005/things_accordion_03s.jpg,0,0,0.0,0,256,256,256,,,,,,,,,,,,,147.01120869999795,0.011208699997951044,None,,184.48434579999957,184.48434579999957,184.48434579999957,184.48434579999957,184.48434579999957,184.48434579999957,184.48434579999957,184.48434579999957,184.48434579999957,184.48434579999957,004,P005,2025_Jan_18_1554,ConditionRich,2021.2.3,59.934683182483056,
147.75,148.0,41,0.0,Stimuli/Blank.png,0,0,0.0,0,257,257,257,,,,,,,,,,,,,147.76232320000054,0.012323200000537327,None,,185.2349936999999,185.2349936999999,185.2349936999999,185.2349936999999,185.2349936999999,185.2349936999999,185.2349936999999,185.2349936999999,185.2349936999999,185.2349936999999,004,P005,2025_Jan_18_1554,ConditionRich,2021.2.3,59.934683182483056,
148.0,148.75,31,0.75,Stimuli/P005/things_jukebox_03n.jpg,0,0,0.0,0,258,258,258,,,,,,,,,,,,,148.0127414999988,0.012741499998810468,None,,185.50190870000006,185.50190870000006,185.50190870000006,185.50190870000006,185.50190870000006,185.50190870000006,185.50190870000006,185.50190870000006,185.50190870000006,185.50190870000006,004,P005,2025_Jan_18_1554,ConditionRich,2021.2.3,59.934683182483056,
148.75,149.0,41,0.0,Stimuli/Blank.png,0,0,0.0,0,259,259,259,,,,,,,,,,,,,148.7803211999999,0.03032119999988936,None,,186.25257319999946,186.25257319999946,186.25257319999946,186.25257319999946,186.25257319999946,186.25257319999946,186.25257319999946,186.25257319999946,186.25257319999946,186.25257319999946,004,P005,2025_Jan_18_1554,ConditionRich,2021.2.3,59.934683182483056,
149.0,149.75,31,0.75,Stimuli/P005/things_jukebox_03n.jpg,0,0,0.0,0,260,260,260,,,,,,,,,,,,,149.0132049999993,0.013204999999288702,None,,186.48625360000005,186.48625360000005,186.48625360000005,186.48625360000005,186.48625360000005,186.48625360000005,186.48625360000005,186.48625360000005,186.48625360000005,186.48625360000005,004,P005,2025_Jan_18_1554,ConditionRich,2021.2.3,59.934683182483056,
