eventStartTime,eventEndTime,eventCond,imSize,imFile,responseEvent,fixRespStart,fixRespEnd,Events.thisRepN,Events.thisTrialN,Events.thisN,Events.thisIndex,Instructions.started,Instructions.stopped,participantReadyResponse.keys,participantReadyResponse.rt,participantReadyResponse.started,participantReadyResponse.stopped,startWaitforTrigger,triggerResponse.keys,triggerResponse.rt,triggerResponse.started,triggerResponse.stopped,globalTimer,actualStartTime,startTimingDiff,participantResponse.keys,participantResponse.rt,participantResponse.started,participantResponse.stopped,image.started,image.stopped,fixationOutside.started,fixationOutside.stopped,fixationResponse.started,fixationResponse.stopped,fixationInside.started,fixationInside.stopped,session,participant,date,expName,psychopyVersion,frameRate,
,,,,,,,,,,,,11.319967200000974,None,4,11.387664800000493,11.319967200000974,None,,,,,,,,,,,,,,,,,,,,,002,P005,2025_Jan_18_1533,ConditionRich,2021.2.3,59.932204690998724,
,,,,,,,,,,,,,,,,,,22.724013600000035,5,13.408334399999148,22.737100800000917,None,,,,,,,,,,,,,,,,002,P005,2025_Jan_18_1533,ConditionRich,2021.2.3,59.932204690998724,
0.0,4.0,0,0.0,Stimuli/Blank.png,0,0.0,0.0,0,0,0,0,,,,,,,,,,,,36.15223490000062,0.043062799999461276,0.043062799999461276,5,3.9297796999999264,36.21555079999962,None,36.21555079999962,None,36.21555079999962,None,36.21555079999962,36.21555079999962,36.21555079999962,None,002,P005,2025_Jan_18_1533,ConditionRich,2021.2.3,59.932204690998724,
4.0,4.75,36,0.75,Stimuli/P005/things_pony_03s.jpg,0,0.0,0.0,0,1,1,1,,,,,,,,,,,,,4.023694499999692,0.023694499999692198,None,,40.20261860000028,40.20261860000028,40.20261860000028,40.20261860000028,40.20261860000028,40.20261860000028,40.20261860000028,40.20261860000028,40.20261860000028,40.20261860000028,002,P005,2025_Jan_18_1533,ConditionRich,2021.2.3,59.932204690998724,
4.75,8.0,41,0.0,Stimuli/Blank.png,0,0.0,0.0,0,2,2,2,,,,,,,,,,,,,4.769667799999297,0.01966779999929713,5,1.2087968999985605,40.93666490000032,40.93666490000032,40.93666490000032,40.93666490000032,40.93666490000032,40.93666490000032,40.93666490000032,40.93666490000032,40.93666490000032,40.93666490000032,002,P005,2025_Jan_18_1533,ConditionRich,2021.2.3,59.932204690998724,
8.0,8.75,3,0.75,Stimuli/P005/sun_asyidwmnobuawmax.jpg,0,0.0,0.0,0,3,3,3,,,,,,,,,,,,,8.006414999999834,0.006414999999833526,None,,44.172547599999234,44.172547599999234,44.172547599999234,44.172547599999234,44.172547599999234,44.172547599999234,44.172547599999234,44.172547599999234,44.172547599999234,44.172547599999234,002,P005,2025_Jan_18_1533,ConditionRich,2021.2.3,59.932204690998724,
8.75,12.0,41,0.0,Stimuli/Blank.png,0,0.0,0.0,0,4,4,4,,,,,,,,,,,,,8.756407500000932,0.006407500000932487,5,1.2223352000000887,44.92320739999923,44.92320739999923,44.92320739999923,44.92320739999923,44.92320739999923,44.92320739999923,44.92320739999923,44.92320739999923,44.92320739999923,44.92320739999923,002,P005,2025_Jan_18_1533,ConditionRich,2021.2.3,59.932204690998724,
12.0,12.75,7,0.75,Stimuli/P005/sun_bdmdlkpsznknrcqi.jpg,0,0.0,0.0,0,5,5,5,,,,,,,,,,,,,12.009246400000848,0.009246400000847643,None,,48.17606840000008,48.17606840000008,48.17606840000008,48.17606840000008,48.17606840000008,48.17606840000008,48.17606840000008,48.17606840000008,48.17606840000008,48.17606840000008,002,P005,2025_Jan_18_1533,ConditionRich,2021.2.3,59.932204690998724,
12.75,16.0,41,0.0,Stimuli/Blank.png,1,2.25,3.0,0,6,6,6,,,,,,,,,,,,,12.760453099999722,0.010453099999722326,5,3.218543299997691,48.926728000002186,48.926728000002186,48.926728000002186,48.926728000002186,48.926728000002186,48.926728000002186,51.16201809999984,51.912681099998736,48.926728000002186,48.926728000002186,002,P005,2025_Jan_18_1533,ConditionRich,2021.2.3,59.932204690998724,
16.0,16.75,31,0.75,Stimuli/P005/things_jukebox_03n.jpg,0,0.0,0.0,0,7,7,7,,,,,,,,,,,,,16.013538100000005,0.013538100000005215,None,,52.18001860000004,52.18001860000004,52.18001860000004,52.18001860000004,52.18001860000004,52.18001860000004,52.18001860000004,52.18001860000004,52.18001860000004,52.18001860000004,002,P005,2025_Jan_18_1533,ConditionRich,2021.2.3,59.932204690998724,
16.75,20.0,41,0.0,Stimuli/Blank.png,0,0.0,0.0,0,8,8,8,,,,,,,,,,,,,16.765403199999128,0.015403199999127537,5,3.198419299998932,52.94694040000104,52.94694040000104,52.94694040000104,52.94694040000104,52.94694040000104,52.94694040000104,52.94694040000104,52.94694040000104,52.94694040000104,52.94694040000104,002,P005,2025_Jan_18_1533,ConditionRich,2021.2.3,59.932204690998724,
20.0,20.75,11,0.75,Stimuli/P005/sun_bjoocjyyhsmsbprr.jpg,0,0.0,0.0,0,9,9,9,,,,,,,,,,,,,20.016799799999717,0.016799799999716925,None,,56.18311090000134,56.18311090000134,56.18311090000134,56.18311090000134,56.18311090000134,56.18311090000134,56.18311090000134,56.18311090000134,56.18311090000134,56.18311090000134,002,P005,2025_Jan_18_1533,ConditionRich,2021.2.3,59.932204690998724,
20.75,24.0,41,0.0,Stimuli/Blank.png,1,2.25,3.0,0,10,10,10,,,,,,,,,,,,,20.751898399998026,0.0018983999980264343,4,2.672150700000202,56.917104799998924,56.917104799998924,56.917104799998924,56.917104799998924,56.917104799998924,56.917104799998924,59.15240520000225,59.90308780000123,56.917104799998924,56.917104799998924,002,P005,2025_Jan_18_1533,ConditionRich,2021.2.3,59.932204690998724,
24.0,24.75,27,0.75,Stimuli/P005/things_first-aid_kit_03s.jpg,0,0.0,0.0,0,11,11,11,,,,,,,,,,,,,24.004095100000995,0.004095100000995444,None,,60.16996149999977,60.16996149999977,60.16996149999977,60.16996149999977,60.16996149999977,60.16996149999977,60.16996149999977,60.16996149999977,60.16996149999977,60.16996149999977,002,P005,2025_Jan_18_1533,ConditionRich,2021.2.3,59.932204690998724,
24.75,28.0,41,0.0,Stimuli/Blank.png,0,0.0,0.0,0,12,12,12,,,,,,,,,,,,,24.75661509999918,0.006615099999180529,5,3.2078733000016655,60.93730779999896,60.93730779999896,60.93730779999896,60.93730779999896,60.93730779999896,60.93730779999896,60.93730779999896,60.93730779999896,60.93730779999896,60.93730779999896,002,P005,2025_Jan_18_1533,ConditionRich,2021.2.3,59.932204690998724,
28.0,28.75,29,0.75,Stimuli/P005/things_guillotine_03s.jpg,0,0.0,0.0,0,13,13,13,,,,,,,,,,,,,28.02379479999945,0.023794799999450333,None,,64.19016280000142,64.19016280000142,64.19016280000142,64.19016280000142,64.19016280000142,64.19016280000142,64.19016280000142,64.19016280000142,64.19016280000142,64.19016280000142,002,P005,2025_Jan_18_1533,ConditionRich,2021.2.3,59.932204690998724,
28.75,32.0,41,0.0,Stimuli/Blank.png,0,0.0,0.0,0,14,14,14,,,,,,,,,,,,,28.757944199998747,0.007944199998746626,5,1.2214067999993858,64.92414110000027,64.92414110000027,64.92414110000027,64.92414110000027,64.92414110000027,64.92414110000027,64.92414110000027,64.92414110000027,64.92414110000027,64.92414110000027,002,P005,2025_Jan_18_1533,ConditionRich,2021.2.3,59.932204690998724,
32.0,32.75,18,0.75,Stimuli/P005/sun_bzqhpcsgzswozfhs.jpg,0,0.0,0.0,0,15,15,15,,,,,,,,,,,,,32.01097200000004,0.010972000000037951,None,,68.17701030000171,68.17701030000171,68.17701030000171,68.17701030000171,68.17701030000171,68.17701030000171,68.17701030000171,68.17701030000171,68.17701030000171,68.17701030000171,002,P005,2025_Jan_18_1533,ConditionRich,2021.2.3,59.932204690998724,
32.75,36.0,41,0.0,Stimuli/Blank.png,0,0.0,0.0,0,16,16,16,,,,,,,,,,,,,32.76142909999908,0.011429099999077152,5,3.21747950000281,68.92766230000052,68.92766230000052,68.92766230000052,68.92766230000052,68.92766230000052,68.92766230000052,68.92766230000052,68.92766230000052,68.92766230000052,68.92766230000052,002,P005,2025_Jan_18_1533,ConditionRich,2021.2.3,59.932204690998724,
36.0,36.75,21,0.75,Stimuli/P005/things_accordion_03s.jpg,0,0.0,0.0,0,17,17,17,,,,,,,,,,,,,36.01387969999996,0.013879699999961304,None,,72.18052309999985,72.18052309999985,72.18052309999985,72.18052309999985,72.18052309999985,72.18052309999985,72.18052309999985,72.18052309999985,72.18052309999985,72.18052309999985,002,P005,2025_Jan_18_1533,ConditionRich,2021.2.3,59.932204690998724,
36.75,40.0,41,0.0,Stimuli/Blank.png,0,0.0,0.0,0,18,18,18,,,,,,,,,,,,,36.76488729999983,0.014887299999827519,5,1.2140529000025708,72.93119039999874,72.93119039999874,72.93119039999874,72.93119039999874,72.93119039999874,72.93119039999874,72.93119039999874,72.93119039999874,72.93119039999874,72.93119039999874,002,P005,2025_Jan_18_1533,ConditionRich,2021.2.3,59.932204690998724,
40.0,40.75,40,0.75,Stimuli/P005/things_woman_03s.jpg,0,0.0,0.0,0,19,19,19,,,,,,,,,,,,,40.001248900000064,0.0012489000000641681,None,,76.1840716000006,76.1840716000006,76.1840716000006,76.1840716000006,76.1840716000006,76.1840716000006,76.1840716000006,76.1840716000006,76.1840716000006,76.1840716000006,002,P005,2025_Jan_18_1533,ConditionRich,2021.2.3,59.932204690998724,
40.75,44.0,41,0.0,Stimuli/Blank.png,0,0.0,0.0,0,20,20,20,,,,,,,,,,,,,40.77052990000084,0.020529900000838097,5,3.193904499999917,76.95140800000081,76.95140800000081,76.95140800000081,76.95140800000081,76.95140800000081,76.95140800000081,76.95140800000081,76.95140800000081,76.95140800000081,76.95140800000081,002,P005,2025_Jan_18_1533,ConditionRich,2021.2.3,59.932204690998724,
44.0,44.75,30,0.75,Stimuli/P005/things_hood_03s.jpg,0,0.0,0.0,0,21,21,21,,,,,,,,,,,,,44.021390599998995,0.02139059999899473,None,,80.18757069999992,80.18757069999992,80.18757069999992,80.18757069999992,80.18757069999992,80.18757069999992,80.18757069999992,80.18757069999992,80.18757069999992,80.18757069999992,002,P005,2025_Jan_18_1533,ConditionRich,2021.2.3,59.932204690998724,
44.75,48.0,41,0.0,Stimuli/Blank.png,0,0.0,0.0,0,22,22,22,,,,,,,,,,,,,44.755972799997835,0.005972799997834954,5,1.2235362000028545,80.9215652999992,80.9215652999992,80.9215652999992,80.9215652999992,80.9215652999992,80.9215652999992,80.9215652999992,80.9215652999992,80.9215652999992,80.9215652999992,002,P005,2025_Jan_18_1533,ConditionRich,2021.2.3,59.932204690998724,
48.0,48.75,12,0.75,Stimuli/P005/sun_bodyuiqwqpqzwfoz.jpg,0,0.0,0.0,0,23,23,23,,,,,,,,,,,,,48.00767949999863,0.00767949999863049,None,,84.17441880000115,84.17441880000115,84.17441880000115,84.17441880000115,84.17441880000115,84.17441880000115,84.17441880000115,84.17441880000115,84.17441880000115,84.17441880000115,002,P005,2025_Jan_18_1533,ConditionRich,2021.2.3,59.932204690998724,
48.75,52.0,41,0.0,Stimuli/Blank.png,0,0.0,0.0,0,24,24,24,,,,,,,,,,,,,48.7606941999984,0.01069419999839738,5,3.203329299998586,84.94176340000195,84.94176340000195,84.94176340000195,84.94176340000195,84.94176340000195,84.94176340000195,84.94176340000195,84.94176340000195,84.94176340000195,84.94176340000195,002,P005,2025_Jan_18_1533,ConditionRich,2021.2.3,59.932204690998724,
52.0,52.75,2,0.75,Stimuli/P005/sun_ahmycohdkioefoxs.jpg,0,0.0,0.0,0,25,25,25,,,,,,,,,,,,,52.02803159999894,0.028031599998939782,None,,88.19461099999899,88.19461099999899,88.19461099999899,88.19461099999899,88.19461099999899,88.19461099999899,88.19461099999899,88.19461099999899,88.19461099999899,88.19461099999899,002,P005,2025_Jan_18_1533,ConditionRich,2021.2.3,59.932204690998724,
52.75,56.0,41,0.0,Stimuli/Blank.png,0,0.0,0.0,0,26,26,26,,,,,,,,,,,,,52.761894700000994,0.011894700000993907,5,3.216491200000746,88.92859680000038,88.92859680000038,88.92859680000038,88.92859680000038,88.92859680000038,88.92859680000038,88.92859680000038,88.92859680000038,88.92859680000038,88.92859680000038,002,P005,2025_Jan_18_1533,ConditionRich,2021.2.3,59.932204690998724,
56.0,56.75,38,0.75,Stimuli/P005/things_sledgehammer_03s.jpg,0,0.0,0.0,0,27,27,27,,,,,,,,,,,,,56.01487690000067,0.014876900000672322,None,,92.18146049999996,92.18146049999996,92.18146049999996,92.18146049999996,92.18146049999996,92.18146049999996,92.18146049999996,92.18146049999996,92.18146049999996,92.18146049999996,002,P005,2025_Jan_18_1533,ConditionRich,2021.2.3,59.932204690998724,
56.75,60.0,41,0.0,Stimuli/Blank.png,0,0.0,0.0,0,28,28,28,,,,,,,,,,,,,56.76634220000051,0.016342200000508456,5,1.213176500001282,92.93214920000173,92.93214920000173,92.93214920000173,92.93214920000173,92.93214920000173,92.93214920000173,92.93214920000173,92.93214920000173,92.93214920000173,92.93214920000173,002,P005,2025_Jan_18_1533,ConditionRich,2021.2.3,59.932204690998724,
60.0,60.75,10,0.75,Stimuli/P005/sun_bgnxbfhmwhliypvg.jpg,1,0.0,0.75,0,29,29,29,,,,,,,,,,,,,60.001894599998195,0.00189459999819519,4,0.34106290000272566,96.16830290000144,96.16830290000144,96.16830290000144,96.16830290000144,96.16830290000144,96.16830290000144,96.16830290000144,96.90231739999945,96.16830290000144,96.16830290000144,002,P005,2025_Jan_18_1533,ConditionRich,2021.2.3,59.932204690998724,
60.75,64.0,41,0.0,Stimuli/Blank.png,0,0.0,0.0,0,30,30,30,,,,,,,,,,,,,60.7552981000008,0.005298100000800332,5,3.209470199999487,96.93564669999978,96.93564669999978,96.93564669999978,96.93564669999978,96.93564669999978,96.93564669999978,96.93564669999978,96.93564669999978,96.93564669999978,96.93564669999978,002,P005,2025_Jan_18_1533,ConditionRich,2021.2.3,59.932204690998724,
64.0,64.75,35,0.75,Stimuli/P005/things_pig_03s.jpg,0,0.0,0.0,0,31,31,31,,,,,,,,,,,,,64.02208869999959,0.022088699999585515,None,,100.1885129000002,100.1885129000002,100.1885129000002,100.1885129000002,100.1885129000002,100.1885129000002,100.1885129000002,100.1885129000002,100.1885129000002,100.1885129000002,002,P005,2025_Jan_18_1533,ConditionRich,2021.2.3,59.932204690998724,
64.75,68.0,41,0.0,Stimuli/Blank.png,0,0.0,0.0,0,32,32,32,,,,,,,,,,,,,64.75656739999977,0.006567399999767076,5,1.222546400000283,100.9224858000016,100.9224858000016,100.9224858000016,100.9224858000016,100.9224858000016,100.9224858000016,100.9224858000016,100.9224858000016,100.9224858000016,100.9224858000016,002,P005,2025_Jan_18_1533,ConditionRich,2021.2.3,59.932204690998724,
68.0,68.75,14,0.75,Stimuli/P005/sun_bsirencncgxteejx.jpg,0,0.0,0.0,0,33,33,33,,,,,,,,,,,,,68.00886950000131,0.00886950000131037,None,,104.17536090000067,104.17536090000067,104.17536090000067,104.17536090000067,104.17536090000067,104.17536090000067,104.17536090000067,104.17536090000067,104.17536090000067,104.17536090000067,002,P005,2025_Jan_18_1533,ConditionRich,2021.2.3,59.932204690998724,
68.75,72.0,41,0.0,Stimuli/Blank.png,0,0.0,0.0,0,34,34,34,,,,,,,,,,,,,68.76000199999908,0.01000199999907636,5,3.219088500001817,104.92601920000016,104.92601920000016,104.92601920000016,104.92601920000016,104.92601920000016,104.92601920000016,104.92601920000016,104.92601920000016,104.92601920000016,104.92601920000016,002,P005,2025_Jan_18_1533,ConditionRich,2021.2.3,59.932204690998724,
72.0,72.75,8,0.75,Stimuli/P005/sun_bekkgqphzbclwpvb.jpg,0,0.0,0.0,0,35,35,35,,,,,,,,,,,,,72.01249319999988,0.012493199999880744,None,,108.19556379999995,108.19556379999995,108.19556379999995,108.19556379999995,108.19556379999995,108.19556379999995,108.19556379999995,108.19556379999995,108.19556379999995,108.19556379999995,002,P005,2025_Jan_18_1533,ConditionRich,2021.2.3,59.932204690998724,
72.75,76.0,41,0.0,Stimuli/Blank.png,0,0.0,0.0,0,36,36,36,,,,,,,,,,,,,72.77999220000129,0.029992200001288438,5,1.19896300000255,108.94622679999884,108.94622679999884,108.94622679999884,108.94622679999884,108.94622679999884,108.94622679999884,108.94622679999884,108.94622679999884,108.94622679999884,108.94622679999884,002,P005,2025_Jan_18_1533,ConditionRich,2021.2.3,59.932204690998724,
76.0,76.75,6,0.75,Stimuli/P005/sun_bbzkhzmxdjrfjpjz.jpg,0,0.0,0.0,0,37,37,37,,,,,,,,,,,,,75.9997786999993,-0.0002213000007031951,None,,112.18238750000091,112.18238750000091,112.18238750000091,112.18238750000091,112.18238750000091,112.18238750000091,112.18238750000091,112.18238750000091,112.18238750000091,112.18238750000091,002,P005,2025_Jan_18_1533,ConditionRich,2021.2.3,59.932204690998724,
76.75,80.0,41,0.0,Stimuli/Blank.png,0,0.0,0.0,0,38,38,38,,,,,,,,,,,,,76.76639729999806,0.0163972999980615,5,1.2119362000012188,112.93305300000065,112.93305300000065,112.93305300000065,112.93305300000065,112.93305300000065,112.93305300000065,112.93305300000065,112.93305300000065,112.93305300000065,112.93305300000065,002,P005,2025_Jan_18_1533,ConditionRich,2021.2.3,59.932204690998724,
80.0,80.75,20,0.75,Stimuli/P005/sun_dvxuxzytfdbjyzit.jpg,0,0.0,0.0,0,39,39,39,,,,,,,,,,,,,80.00267639999947,0.0026763999994727783,None,,116.18646640000225,116.18646640000225,116.18646640000225,116.18646640000225,116.18646640000225,116.18646640000225,116.18646640000225,116.18646640000225,116.18646640000225,116.18646640000225,002,P005,2025_Jan_18_1533,ConditionRich,2021.2.3,59.932204690998724,
80.75,84.0,41,0.0,Stimuli/Blank.png,1,0.25,1.0,0,40,40,40,,,,,,,,,,,,,80.77118129999872,0.021181299998715986,5,1.2085838000020885,116.93659330000082,116.93659330000082,116.93659330000082,116.93659330000082,116.93659330000082,116.93659330000082,117.17010999999911,117.92077470000004,116.93659330000082,116.93659330000082,002,P005,2025_Jan_18_1533,ConditionRich,2021.2.3,59.932204690998724,
84.0,100.0,0,0.0,Stimuli/Blank.png,1,3.0,3.75,0,41,41,41,,,,,,,,,,,,,84.00610379999853,0.006103799998527393,5,13.97227760000169,120.1727615000018,120.1727615000018,120.1727615000018,120.1727615000018,120.1727615000018,120.1727615000018,123.15876679999928,123.90939290000097,120.1727615000018,120.1727615000018,002,P005,2025_Jan_18_1533,ConditionRich,2021.2.3,59.932204690998724,
100.0,100.75,37,0.75,Stimuli/P005/things_showerhead_03s.jpg,0,0.0,0.0,0,42,42,42,,,,,,,,,,,,,100.0047971999993,0.004797199999302393,None,,136.18685399999958,136.18685399999958,136.18685399999958,136.18685399999958,136.18685399999958,136.18685399999958,136.18685399999958,136.18685399999958,136.18685399999958,136.18685399999958,002,P005,2025_Jan_18_1533,ConditionRich,2021.2.3,59.932204690998724,
100.75,104.0,41,0.0,Stimuli/Blank.png,0,0.0,0.0,0,43,43,43,,,,,,,,,,,,,100.77123890000075,0.021238900000753347,5,1.2075819000019692,136.93751690000136,136.93751690000136,136.93751690000136,136.93751690000136,136.93751690000136,136.93751690000136,136.93751690000136,136.93751690000136,136.93751690000136,136.93751690000136,002,P005,2025_Jan_18_1533,ConditionRich,2021.2.3,59.932204690998724,
104.0,104.75,22,0.75,Stimuli/P005/things_baby_03s.jpg,0,0.0,0.0,0,44,44,44,,,,,,,,,,,,,104.00728719999825,0.007287199998245342,None,,140.1736947999998,140.1736947999998,140.1736947999998,140.1736947999998,140.1736947999998,140.1736947999998,140.1736947999998,140.1736947999998,140.1736947999998,140.1736947999998,002,P005,2025_Jan_18_1533,ConditionRich,2021.2.3,59.932204690998724,
104.75,108.0,41,0.0,Stimuli/Blank.png,1,1.25,2.0,0,45,45,45,,,,,,,,,,,,,104.75765039999897,0.00765039999896544,5,3.2208520000021963,140.924365400002,140.924365400002,140.924365400002,140.924365400002,140.924365400002,140.924365400002,142.15878910000174,142.90961450000032,140.924365400002,140.924365400002,002,P005,2025_Jan_18_1533,ConditionRich,2021.2.3,59.932204690998724,
108.0,108.75,34,0.75,Stimuli/P005/things_patty_03s.jpg,0,0.0,0.0,0,46,46,46,,,,,,,,,,,,,108.01026609999826,0.01026609999826178,None,,144.1772176000013,144.1772176000013,144.1772176000013,144.1772176000013,144.1772176000013,144.1772176000013,144.1772176000013,144.1772176000013,144.1772176000013,144.1772176000013,002,P005,2025_Jan_18_1533,ConditionRich,2021.2.3,59.932204690998724,
108.75,112.0,41,0.0,Stimuli/Blank.png,0,0.0,0.0,0,47,47,47,,,,,,,,,,,,,108.7614513999979,0.01145139999789535,5,3.2171468999986246,144.92787339999995,144.92787339999995,144.92787339999995,144.92787339999995,144.92787339999995,144.92787339999995,144.92787339999995,144.92787339999995,144.92787339999995,144.92787339999995,002,P005,2025_Jan_18_1533,ConditionRich,2021.2.3,59.932204690998724,
112.0,112.75,39,0.75,Stimuli/P005/things_train_set_03s.jpg,0,0.0,0.0,0,48,48,48,,,,,,,,,,,,,112.01406280000083,0.014062800000829156,None,,148.18074070000148,148.18074070000148,148.18074070000148,148.18074070000148,148.18074070000148,148.18074070000148,148.18074070000148,148.18074070000148,148.18074070000148,148.18074070000148,002,P005,2025_Jan_18_1533,ConditionRich,2021.2.3,59.932204690998724,
112.75,116.0,41,0.0,Stimuli/Blank.png,0,0.0,0.0,0,49,49,49,,,,,,,,,,,,,112.76508119999926,0.015081199999258388,5,1.2134834000025876,148.93140539999877,148.93140539999877,148.93140539999877,148.93140539999877,148.93140539999877,148.93140539999877,148.93140539999877,148.93140539999877,148.93140539999877,148.93140539999877,002,P005,2025_Jan_18_1533,ConditionRich,2021.2.3,59.932204690998724,
116.0,116.75,24,0.75,Stimuli/P005/things_crab_03s.jpg,0,0.0,0.0,0,50,50,50,,,,,,,,,,,,,116.00140090000059,0.0014009000005898997,None,,152.16759290000118,152.16759290000118,152.16759290000118,152.16759290000118,152.16759290000118,152.16759290000118,152.16759290000118,152.16759290000118,152.16759290000118,152.16759290000118,002,P005,2025_Jan_18_1533,ConditionRich,2021.2.3,59.932204690998724,
116.75,120.0,41,0.0,Stimuli/Blank.png,0,0.0,0.0,0,51,51,51,,,,,,,,,,,,,116.75201290000041,0.0020129000004089903,5,1.227126900001167,152.91824030000134,152.91824030000134,152.91824030000134,152.91824030000134,152.91824030000134,152.91824030000134,152.91824030000134,152.91824030000134,152.91824030000134,152.91824030000134,002,P005,2025_Jan_18_1533,ConditionRich,2021.2.3,59.932204690998724,
120.0,120.75,5,0.75,Stimuli/P005/sun_axaqdcecfojvpvrl.jpg,0,0.0,0.0,0,52,52,52,,,,,,,,,,,,,120.00516029999926,0.005160299999261042,None,,156.17111060000025,156.17111060000025,156.17111060000025,156.17111060000025,156.17111060000025,156.17111060000025,156.17111060000025,156.17111060000025,156.17111060000025,156.17111060000025,002,P005,2025_Jan_18_1533,ConditionRich,2021.2.3,59.932204690998724,
120.75,124.0,41,0.0,Stimuli/Blank.png,0,0.0,0.0,0,53,53,53,,,,,,,,,,,,,120.75573150000127,0.005731500001274981,5,1.2231432000007771,156.9217783999993,156.9217783999993,156.9217783999993,156.9217783999993,156.9217783999993,156.9217783999993,156.9217783999993,156.9217783999993,156.9217783999993,156.9217783999993,002,P005,2025_Jan_18_1533,ConditionRich,2021.2.3,59.932204690998724,
124.0,124.75,4,0.75,Stimuli/P005/sun_auwghripdoxzluuk.jpg,0,0.0,0.0,0,54,54,54,,,,,,,,,,,,,124.00824959999954,0.008249599999544444,None,,160.17464839999957,160.17464839999957,160.17464839999957,160.17464839999957,160.17464839999957,160.17464839999957,160.17464839999957,160.17464839999957,160.17464839999957,160.17464839999957,002,P005,2025_Jan_18_1533,ConditionRich,2021.2.3,59.932204690998724,
124.75,128.0,41,0.0,Stimuli/Blank.png,0,0.0,0.0,0,55,55,55,,,,,,,,,,,,,124.75995039999907,0.009950399999070214,5,3.218768500002625,160.92613170000186,160.92613170000186,160.92613170000186,160.92613170000186,160.92613170000186,160.92613170000186,160.92613170000186,160.92613170000186,160.92613170000186,160.92613170000186,002,P005,2025_Jan_18_1533,ConditionRich,2021.2.3,59.932204690998724,
128.0,128.75,32,0.75,Stimuli/P005/things_jumpsuit_03s.jpg,0,0.0,0.0,0,56,56,56,,,,,,,,,,,,,128.01236029999927,0.012360299999272684,None,,164.19484419999935,164.19484419999935,164.19484419999935,164.19484419999935,164.19484419999935,164.19484419999935,164.19484419999935,164.19484419999935,164.19484419999935,164.19484419999935,002,P005,2025_Jan_18_1533,ConditionRich,2021.2.3,59.932204690998724,
128.75,132.0,41,0.0,Stimuli/Blank.png,0,0.0,0.0,0,57,57,57,,,,,,,,,,,,,128.78027350000048,0.030273500000475906,5,3.1827663000003668,164.962198600002,164.962198600002,164.962198600002,164.962198600002,164.962198600002,164.962198600002,164.962198600002,164.962198600002,164.962198600002,164.962198600002,002,P005,2025_Jan_18_1533,ConditionRich,2021.2.3,59.932204690998724,
132.0,132.75,33,0.75,Stimuli/P005/things_man_03s.jpg,0,0.0,0.0,0,58,58,58,,,,,,,,,,,,,132.0158307999991,0.01583079999909387,None,,168.1983583000001,168.1983583000001,168.1983583000001,168.1983583000001,168.1983583000001,168.1983583000001,168.1983583000001,168.1983583000001,168.1983583000001,168.1983583000001,002,P005,2025_Jan_18_1533,ConditionRich,2021.2.3,59.932204690998724,
132.75,136.0,41,0.0,Stimuli/Blank.png,1,0.25,1.0,0,59,59,59,,,,,,,,,,,,,132.7663422000005,0.016342200000508456,5,1.2126128999989305,168.93233680000048,168.93233680000048,168.93233680000048,168.93233680000048,168.93233680000048,168.93233680000048,169.16586540000208,169.9165346000009,168.93233680000048,168.93233680000048,002,P005,2025_Jan_18_1533,ConditionRich,2021.2.3,59.932204690998724,
136.0,136.75,26,0.75,Stimuli/P005/things_face_03s.jpg,0,0.0,0.0,0,60,60,60,,,,,,,,,,,,,136.00288329999967,0.002883299999666633,None,,172.1685232000018,172.1685232000018,172.1685232000018,172.1685232000018,172.1685232000018,172.1685232000018,172.1685232000018,172.1685232000018,172.1685232000018,172.1685232000018,002,P005,2025_Jan_18_1533,ConditionRich,2021.2.3,59.932204690998724,
136.75,140.0,41,0.0,Stimuli/Blank.png,0,0.0,0.0,0,61,61,61,,,,,,,,,,,,,136.75246060000063,0.00246060000063153,5,1.2258697999968717,172.91918860000078,172.91918860000078,172.91918860000078,172.91918860000078,172.91918860000078,172.91918860000078,172.91918860000078,172.91918860000078,172.91918860000078,172.91918860000078,002,P005,2025_Jan_18_1533,ConditionRich,2021.2.3,59.932204690998724,
140.0,140.75,25,0.75,Stimuli/P005/things_dog_03s.jpg,0,0.0,0.0,0,62,62,62,,,,,,,,,,,,,140.00580120000086,0.005801200000860263,None,,176.1720518000002,176.1720518000002,176.1720518000002,176.1720518000002,176.1720518000002,176.1720518000002,176.1720518000002,176.1720518000002,176.1720518000002,176.1720518000002,002,P005,2025_Jan_18_1533,ConditionRich,2021.2.3,59.932204690998724,
140.75,144.0,41,0.0,Stimuli/Blank.png,1,0.25,1.0,0,63,63,63,,,,,,,,,,,,,140.75642119999975,0.0064211999997496605,5,1.2221912999993947,176.92271270000128,176.92271270000128,176.92271270000128,176.92271270000128,176.92271270000128,176.92271270000128,177.1562464000017,177.90790539999944,176.92271270000128,176.92271270000128,002,P005,2025_Jan_18_1533,ConditionRich,2021.2.3,59.932204690998724,
144.0,144.75,1,0.75,Stimuli/P005/sun_adyhbxohydkpecty.jpg,0,0.0,0.0,0,64,64,64,,,,,,,,,,,,,144.00965160000123,0.009651600001234328,None,,180.17556089999925,180.17556089999925,180.17556089999925,180.17556089999925,180.17556089999925,180.17556089999925,180.17556089999925,180.17556089999925,180.17556089999925,180.17556089999925,002,P005,2025_Jan_18_1533,ConditionRich,2021.2.3,59.932204690998724,
144.75,148.0,41,0.0,Stimuli/Blank.png,0,0.0,0.0,0,65,65,65,,,,,,,,,,,,,144.75959189999776,0.009591899997758446,5,3.2185299999982817,180.9262230000022,180.9262230000022,180.9262230000022,180.9262230000022,180.9262230000022,180.9262230000022,180.9262230000022,180.9262230000022,180.9262230000022,180.9262230000022,002,P005,2025_Jan_18_1533,ConditionRich,2021.2.3,59.932204690998724,
148.0,148.75,16,0.75,Stimuli/P005/sun_bwentnobehmvaxkp.jpg,0,0.0,0.0,0,66,66,66,,,,,,,,,,,,,148.0129721000012,0.012972100001206854,None,,184.17908770000213,184.17908770000213,184.17908770000213,184.17908770000213,184.17908770000213,184.17908770000213,184.17908770000213,184.17908770000213,184.17908770000213,184.17908770000213,002,P005,2025_Jan_18_1533,ConditionRich,2021.2.3,59.932204690998724,
148.75,152.0,41,0.0,Stimuli/Blank.png,0,0.0,0.0,0,67,67,67,,,,,,,,,,,,,148.76588790000096,0.015887900000961963,5,3.1984444000008807,184.94643949999954,184.94643949999954,184.94643949999954,184.94643949999954,184.94643949999954,184.94643949999954,184.94643949999954,184.94643949999954,184.94643949999954,184.94643949999954,002,P005,2025_Jan_18_1533,ConditionRich,2021.2.3,59.932204690998724,
152.0,152.75,13,0.75,Stimuli/P005/sun_bruphbrfsbxowtlq.jpg,0,0.0,0.0,0,68,68,68,,,,,,,,,,,,,152.0164956999979,0.016495699997904012,None,,188.18261070000153,188.18261070000153,188.18261070000153,188.18261070000153,188.18261070000153,188.18261070000153,188.18261070000153,188.18261070000153,188.18261070000153,188.18261070000153,002,P005,2025_Jan_18_1533,ConditionRich,2021.2.3,59.932204690998724,
152.75,156.0,41,0.0,Stimuli/Blank.png,0,0.0,0.0,0,69,69,69,,,,,,,,,,,,,152.75065410000025,0.0006541000002471264,5,1.228127800000948,188.91660240000056,188.91660240000056,188.91660240000056,188.91660240000056,188.91660240000056,188.91660240000056,188.91660240000056,188.91660240000056,188.91660240000056,188.91660240000056,002,P005,2025_Jan_18_1533,ConditionRich,2021.2.3,59.932204690998724,
156.0,156.75,17,0.75,Stimuli/P005/sun_bwsictslfxygpqbp.jpg,0,0.0,0.0,0,70,70,70,,,,,,,,,,,,,156.00558029999956,0.005580299999564886,None,,192.18615359999967,192.18615359999967,192.18615359999967,192.18615359999967,192.18615359999967,192.18615359999967,192.18615359999967,192.18615359999967,192.18615359999967,192.18615359999967,002,P005,2025_Jan_18_1533,ConditionRich,2021.2.3,59.932204690998724,
156.75,160.0,41,0.0,Stimuli/Blank.png,0,0.0,0.0,0,71,71,71,,,,,,,,,,,,,156.7710361999998,0.021036199999798555,5,1.2080657000005885,192.93680479999966,192.93680479999966,192.93680479999966,192.93680479999966,192.93680479999966,192.93680479999966,192.93680479999966,192.93680479999966,192.93680479999966,192.93680479999966,002,P005,2025_Jan_18_1533,ConditionRich,2021.2.3,59.932204690998724,
160.0,160.75,9,0.75,Stimuli/P005/sun_bfcmdrojsffdttzu.jpg,0,0.0,0.0,0,72,72,72,,,,,,,,,,,,,160.00673969999843,0.0067396999984339345,None,,196.18967559999874,196.18967559999874,196.18967559999874,196.18967559999874,196.18967559999874,196.18967559999874,196.18967559999874,196.18967559999874,196.18967559999874,196.18967559999874,002,P005,2025_Jan_18_1533,ConditionRich,2021.2.3,59.932204690998724,
160.75,164.0,41,0.0,Stimuli/Blank.png,1,2.25,3.0,0,73,73,73,,,,,,,,,,,,,160.77598880000005,0.025988800000050105,5,3.187985000000481,196.95700339999894,196.95700339999894,196.95700339999894,196.95700339999894,196.95700339999894,196.95700339999894,199.19230600000083,199.94295830000192,196.95700339999894,196.95700339999894,002,P005,2025_Jan_18_1533,ConditionRich,2021.2.3,59.932204690998724,
164.0,164.75,19,0.75,Stimuli/P005/sun_czspalxthlkjwoat.jpg,0,0.0,0.0,0,74,74,74,,,,,,,,,,,,,164.02710389999993,0.027103899999929126,None,,200.1931829999994,200.1931829999994,200.1931829999994,200.1931829999994,200.1931829999994,200.1931829999994,200.1931829999994,200.1931829999994,200.1931829999994,200.1931829999994,002,P005,2025_Jan_18_1533,ConditionRich,2021.2.3,59.932204690998724,
164.75,168.0,41,0.0,Stimuli/Blank.png,0,0.0,0.0,0,75,75,75,,,,,,,,,,,,,164.76047409999956,0.01047409999955562,5,3.2175499000004493,200.92716590000055,200.92716590000055,200.92716590000055,200.92716590000055,200.92716590000055,200.92716590000055,200.92716590000055,200.92716590000055,200.92716590000055,200.92716590000055,002,P005,2025_Jan_18_1533,ConditionRich,2021.2.3,59.932204690998724,
168.0,168.75,23,0.75,Stimuli/P005/things_beetle_03s.jpg,0,0.0,0.0,0,76,76,76,,,,,,,,,,,,,168.01439259999825,0.014392599998245714,None,,204.18003379999936,204.18003379999936,204.18003379999936,204.18003379999936,204.18003379999936,204.18003379999936,204.18003379999936,204.18003379999936,204.18003379999936,204.18003379999936,002,P005,2025_Jan_18_1533,ConditionRich,2021.2.3,59.932204690998724,
168.75,172.0,41,0.0,Stimuli/Blank.png,0,0.0,0.0,0,77,77,77,,,,,,,,,,,,,168.76506410000002,0.015064100000017788,5,1.2141296999980113,204.93068100000164,204.93068100000164,204.93068100000164,204.93068100000164,204.93068100000164,204.93068100000164,204.93068100000164,204.93068100000164,204.93068100000164,204.93068100000164,002,P005,2025_Jan_18_1533,ConditionRich,2021.2.3,59.932204690998724,
172.0,172.75,15,0.75,Stimuli/P005/sun_btkzuhaxqlacvmsv.jpg,0,0.0,0.0,0,78,78,78,,,,,,,,,,,,,172.000919099999,0.0009190999990096316,None,,208.18357119999928,208.18357119999928,208.18357119999928,208.18357119999928,208.18357119999928,208.18357119999928,208.18357119999928,208.18357119999928,208.18357119999928,208.18357119999928,002,P005,2025_Jan_18_1533,ConditionRich,2021.2.3,59.932204690998724,
172.75,176.0,41,0.0,Stimuli/Blank.png,0,0.0,0.0,0,79,79,79,,,,,,,,,,,,,172.76836249999906,0.018362499999057036,5,1.2104913000002853,208.93422519999876,208.93422519999876,208.93422519999876,208.93422519999876,208.93422519999876,208.93422519999876,208.93422519999876,208.93422519999876,208.93422519999876,208.93422519999876,002,P005,2025_Jan_18_1533,ConditionRich,2021.2.3,59.932204690998724,
176.0,176.75,28,0.75,Stimuli/P005/things_girl_03s.jpg,0,0.0,0.0,0,80,80,80,,,,,,,,,,,,,176.00499359999958,0.004993599999579601,None,,212.18708909999987,212.18708909999987,212.18708909999987,212.18708909999987,212.18708909999987,212.18708909999987,212.18708909999987,212.18708909999987,212.18708909999987,212.18708909999987,002,P005,2025_Jan_18_1533,ConditionRich,2021.2.3,59.932204690998724,
176.75,180.0,41,0.0,Stimuli/Blank.png,1,1.25,2.0,0,81,81,81,,,,,,,,,,,,,176.77103219999844,0.021032199998444412,4,1.6242324000013468,212.9377327000002,212.9377327000002,212.9377327000002,212.9377327000002,212.9377327000002,212.9377327000002,214.1721550000002,214.92280110000138,212.9377327000002,212.9377327000002,002,P005,2025_Jan_18_1533,ConditionRich,2021.2.3,59.932204690998724,
180.0,196.0,0,0.0,Stimuli/Blank.png,1,1.0,1.75,0,82,82,82,,,,,,,,,,,,,180.01022100000046,0.010221000000456115,5,15.955185700000584,216.19061560000046,216.19061560000046,216.19061560000046,216.19061560000046,216.19061560000046,216.19061560000046,217.17481810000027,217.92545579999933,216.19061560000046,216.19061560000046,002,P005,2025_Jan_18_1533,ConditionRich,2021.2.3,59.932204690998724,
196.0,196.75,39,0.75,Stimuli/P005/things_train_set_03s.jpg,0,0.0,0.0,0,83,83,83,,,,,,,,,,,,,196.02151579999918,0.021515799999178853,None,,232.20469610000146,232.20469610000146,232.20469610000146,232.20469610000146,232.20469610000146,232.20469610000146,232.20469610000146,232.20469610000146,232.20469610000146,232.20469610000146,002,P005,2025_Jan_18_1533,ConditionRich,2021.2.3,59.932204690998724,
196.75,200.0,41,0.0,Stimuli/Blank.png,0,0.0,0.0,0,84,84,84,,,,,,,,,,,,,196.77228339999783,0.02228339999783202,5,1.206974699998682,232.9386607000015,232.9386607000015,232.9386607000015,232.9386607000015,232.9386607000015,232.9386607000015,232.9386607000015,232.9386607000015,232.9386607000015,232.9386607000015,002,P005,2025_Jan_18_1533,ConditionRich,2021.2.3,59.932204690998724,
200.0,200.75,18,0.75,Stimuli/P005/sun_bzqhpcsgzswozfhs.jpg,0,0.0,0.0,0,85,85,85,,,,,,,,,,,,,200.01027369999792,0.010273699997924268,None,,236.19152960000065,236.19152960000065,236.19152960000065,236.19152960000065,236.19152960000065,236.19152960000065,236.19152960000065,236.19152960000065,236.19152960000065,236.19152960000065,002,P005,2025_Jan_18_1533,ConditionRich,2021.2.3,59.932204690998724,
200.75,204.0,41,0.0,Stimuli/Blank.png,1,2.25,3.0,0,86,86,86,,,,,,,,,,,,,200.77637070000128,0.026370700001280056,5,3.203447400002915,236.94218489999912,236.94218489999912,236.94218489999912,236.94218489999912,236.94218489999912,236.94218489999912,239.1775278999994,239.92814290000024,236.94218489999912,236.94218489999912,002,P005,2025_Jan_18_1533,ConditionRich,2021.2.3,59.932204690998724,
204.0,204.75,36,0.75,Stimuli/P005/things_pony_03s.jpg,0,0.0,0.0,0,87,87,87,,,,,,,,,,,,,204.01235169999927,0.01235169999927166,None,,240.19505240000217,240.19505240000217,240.19505240000217,240.19505240000217,240.19505240000217,240.19505240000217,240.19505240000217,240.19505240000217,240.19505240000217,240.19505240000217,002,P005,2025_Jan_18_1533,ConditionRich,2021.2.3,59.932204690998724,
204.75,208.0,41,0.0,Stimuli/Blank.png,0,0.0,0.0,0,88,88,88,,,,,,,,,,,,,204.7797455,0.02974549999998999,5,1.1998260999971535,240.94571310000174,240.94571310000174,240.94571310000174,240.94571310000174,240.94571310000174,240.94571310000174,240.94571310000174,240.94571310000174,240.94571310000174,240.94571310000174,002,P005,2025_Jan_18_1533,ConditionRich,2021.2.3,59.932204690998724,
208.0,208.75,4,0.75,Stimuli/P005/sun_auwghripdoxzluuk.jpg,0,0.0,0.0,0,89,89,89,,,,,,,,,,,,,207.9995803999991,-0.00041960000089602545,None,,244.18189089999942,244.18189089999942,244.18189089999942,244.18189089999942,244.18189089999942,244.18189089999942,244.18189089999942,244.18189089999942,244.18189089999942,244.18189089999942,002,P005,2025_Jan_18_1533,ConditionRich,2021.2.3,59.932204690998724,
208.75,212.0,41,0.0,Stimuli/Blank.png,0,0.0,0.0,0,90,90,90,,,,,,,,,,,,,208.7659617999998,0.015961799999786308,5,1.213010800001939,244.93257820000144,244.93257820000144,244.93257820000144,244.93257820000144,244.93257820000144,244.93257820000144,244.93257820000144,244.93257820000144,244.93257820000144,244.93257820000144,002,P005,2025_Jan_18_1533,ConditionRich,2021.2.3,59.932204690998724,
212.0,212.75,28,0.75,Stimuli/P005/things_girl_03s.jpg,0,0.0,0.0,0,91,91,91,,,,,,,,,,,,,212.00240209999902,0.002402099999017082,None,,248.18543230000068,248.18543230000068,248.18543230000068,248.18543230000068,248.18543230000068,248.18543230000068,248.18543230000068,248.18543230000068,248.18543230000068,248.18543230000068,002,P005,2025_Jan_18_1533,ConditionRich,2021.2.3,59.932204690998724,
212.75,216.0,41,0.0,Stimuli/Blank.png,0,0.0,0.0,0,92,92,92,,,,,,,,,,,,,212.7703464999977,0.020346499997685896,5,1.2096625999984099,248.93607820000034,248.93607820000034,248.93607820000034,248.93607820000034,248.93607820000034,248.93607820000034,248.93607820000034,248.93607820000034,248.93607820000034,248.93607820000034,002,P005,2025_Jan_18_1533,ConditionRich,2021.2.3,59.932204690998724,
216.0,216.75,19,0.75,Stimuli/P005/sun_czspalxthlkjwoat.jpg,0,0.0,0.0,0,93,93,93,,,,,,,,,,,,,216.00623540000015,0.006235400000150548,None,,252.17225859999962,252.17225859999962,252.17225859999962,252.17225859999962,252.17225859999962,252.17225859999962,252.17225859999962,252.17225859999962,252.17225859999962,252.17225859999962,002,P005,2025_Jan_18_1533,ConditionRich,2021.2.3,59.932204690998724,
216.75,220.0,41,0.0,Stimuli/Blank.png,0,0.0,0.0,0,94,94,94,,,,,,,,,,,,,216.7563728999994,0.00637289999940549,5,1.2228456000011647,252.92291739999928,252.92291739999928,252.92291739999928,252.92291739999928,252.92291739999928,252.92291739999928,252.92291739999928,252.92291739999928,252.92291739999928,252.92291739999928,002,P005,2025_Jan_18_1533,ConditionRich,2021.2.3,59.932204690998724,
220.0,220.75,6,0.75,Stimuli/P005/sun_bbzkhzmxdjrfjpjz.jpg,0,0.0,0.0,0,95,95,95,,,,,,,,,,,,,220.00970569999845,0.009705699998448836,None,,256.175779600002,256.175779600002,256.175779600002,256.175779600002,256.175779600002,256.175779600002,256.175779600002,256.175779600002,256.175779600002,256.175779600002,002,P005,2025_Jan_18_1533,ConditionRich,2021.2.3,59.932204690998724,
220.75,224.0,41,0.0,Stimuli/Blank.png,0,0.0,0.0,0,96,96,96,,,,,,,,,,,,,220.7598083999983,0.009808399998291861,5,3.218998399999691,256.9264437999991,256.9264437999991,256.9264437999991,256.9264437999991,256.9264437999991,256.9264437999991,256.9264437999991,256.9264437999991,256.9264437999991,256.9264437999991,002,P005,2025_Jan_18_1533,ConditionRich,2021.2.3,59.932204690998724,
224.0,224.75,13,0.75,Stimuli/P005/sun_bruphbrfsbxowtlq.jpg,1,0.0,0.75,0,97,97,97,,,,,,,,,,,,,224.01518840000062,0.015188400000624824,4,0.40578540000205976,260.1959858000009,260.1959858000009,260.1959858000009,260.1959858000009,260.1959858000009,260.1959858000009,260.1959858000009,None,260.1959858000009,260.1959858000009,002,P005,2025_Jan_18_1533,ConditionRich,2021.2.3,59.932204690998724,
224.75,228.0,41,0.0,Stimuli/Blank.png,0,0.0,0.0,0,98,98,98,,,,,,,,,,,,,224.76581850000002,0.01581850000002305,5,3.1989580000008573,260.946656600001,260.946656600001,260.946656600001,260.946656600001,260.946656600001,260.946656600001,260.946656600001,260.946656600001,260.946656600001,260.946656600001,002,P005,2025_Jan_18_1533,ConditionRich,2021.2.3,59.932204690998724,
228.0,228.75,27,0.75,Stimuli/P005/things_first-aid_kit_03s.jpg,0,0.0,0.0,0,99,99,99,,,,,,,,,,,,,228.01681019999887,0.016810199998872122,None,,264.1995214999988,264.1995214999988,264.1995214999988,264.1995214999988,264.1995214999988,264.1995214999988,264.1995214999988,264.1995214999988,264.1995214999988,264.1995214999988,002,P005,2025_Jan_18_1533,ConditionRich,2021.2.3,59.932204690998724,
228.75,232.0,41,0.0,Stimuli/Blank.png,0,0.0,0.0,0,100,100,100,,,,,,,,,,,,,228.76714770000035,0.017147700000350596,5,1.212008099999366,264.93348740000147,264.93348740000147,264.93348740000147,264.93348740000147,264.93348740000147,264.93348740000147,264.93348740000147,264.93348740000147,264.93348740000147,264.93348740000147,002,P005,2025_Jan_18_1533,ConditionRich,2021.2.3,59.932204690998724,
232.0,232.75,35,0.75,Stimuli/P005/things_pig_03s.jpg,0,0.0,0.0,0,101,101,101,,,,,,,,,,,,,232.00542420000056,0.005424200000561541,None,,268.18634590000147,268.18634590000147,268.18634590000147,268.18634590000147,268.18634590000147,268.18634590000147,268.18634590000147,268.18634590000147,268.18634590000147,268.18634590000147,002,P005,2025_Jan_18_1533,ConditionRich,2021.2.3,59.932204690998724,
232.75,236.0,41,0.0,Stimuli/Blank.png,0,0.0,0.0,0,102,102,102,,,,,,,,,,,,,232.77084090000062,0.020840900000621332,5,1.2086457000004884,268.9370071000012,268.9370071000012,268.9370071000012,268.9370071000012,268.9370071000012,268.9370071000012,268.9370071000012,268.9370071000012,268.9370071000012,268.9370071000012,002,P005,2025_Jan_18_1533,ConditionRich,2021.2.3,59.932204690998724,
236.0,236.75,12,0.75,Stimuli/P005/sun_bodyuiqwqpqzwfoz.jpg,0,0.0,0.0,0,103,103,103,,,,,,,,,,,,,236.00632969999788,0.006329699997877469,None,,272.18988270000045,272.18988270000045,272.18988270000045,272.18988270000045,272.18988270000045,272.18988270000045,272.18988270000045,272.18988270000045,272.18988270000045,272.18988270000045,002,P005,2025_Jan_18_1533,ConditionRich,2021.2.3,59.932204690998724,
236.75,240.0,41,0.0,Stimuli/Blank.png,0,0.0,0.0,0,104,104,104,,,,,,,,,,,,,236.7750941000013,0.025094100001297193,5,1.2051797000021907,272.94054139999935,272.94054139999935,272.94054139999935,272.94054139999935,272.94054139999935,272.94054139999935,272.94054139999935,272.94054139999935,272.94054139999935,272.94054139999935,002,P005,2025_Jan_18_1533,ConditionRich,2021.2.3,59.932204690998724,
240.0,240.75,22,0.75,Stimuli/P005/things_baby_03s.jpg,0,0.0,0.0,0,105,105,105,,,,,,,,,,,,,240.0112255999993,0.011225599999306723,None,,276.19342640000104,276.19342640000104,276.19342640000104,276.19342640000104,276.19342640000104,276.19342640000104,276.19342640000104,276.19342640000104,276.19342640000104,276.19342640000104,002,P005,2025_Jan_18_1533,ConditionRich,2021.2.3,59.932204690998724,
240.75,244.0,41,0.0,Stimuli/Blank.png,1,0.25,1.0,0,106,106,106,,,,,,,,,,,,,240.77979689999847,0.029796899998473236,5,3.1848127000012028,276.96074260000023,276.96074260000023,276.96074260000023,276.96074260000023,276.96074260000023,276.96074260000023,277.1943171999992,277.9449612999997,276.96074260000023,276.96074260000023,002,P005,2025_Jan_18_1533,ConditionRich,2021.2.3,59.932204690998724,
244.0,244.75,37,0.75,Stimuli/P005/things_showerhead_03s.jpg,0,0.0,0.0,0,107,107,107,,,,,,,,,,,,,244.01359260000027,0.01359260000026552,None,,280.1802380000008,280.1802380000008,280.1802380000008,280.1802380000008,280.1802380000008,280.1802380000008,280.1802380000008,280.1802380000008,280.1802380000008,280.1802380000008,002,P005,2025_Jan_18_1533,ConditionRich,2021.2.3,59.932204690998724,
244.75,248.0,41,0.0,Stimuli/Blank.png,0,0.0,0.0,0,108,108,108,,,,,,,,,,,,,244.76441599999816,0.014415999998163898,5,1.2145319000010204,280.930898300001,280.930898300001,280.930898300001,280.930898300001,280.930898300001,280.930898300001,280.930898300001,280.930898300001,280.930898300001,280.930898300001,002,P005,2025_Jan_18_1533,ConditionRich,2021.2.3,59.932204690998724,
248.0,248.75,31,0.75,Stimuli/P005/things_jukebox_03n.jpg,0,0.0,0.0,0,109,109,109,,,,,,,,,,,,,248.00112459999946,0.001124599999457132,None,,284.16708260000087,284.16708260000087,284.16708260000087,284.16708260000087,284.16708260000087,284.16708260000087,284.16708260000087,284.16708260000087,284.16708260000087,284.16708260000087,002,P005,2025_Jan_18_1533,ConditionRich,2021.2.3,59.932204690998724,
248.75,252.0,41,0.0,Stimuli/Blank.png,0,0.0,0.0,0,110,110,110,,,,,,,,,,,,,248.75186549999853,0.0018654999985301401,5,1.227950399999827,284.9177414000005,284.9177414000005,284.9177414000005,284.9177414000005,284.9177414000005,284.9177414000005,284.9177414000005,284.9177414000005,284.9177414000005,284.9177414000005,002,P005,2025_Jan_18_1533,ConditionRich,2021.2.3,59.932204690998724,
252.0,252.75,3,0.75,Stimuli/P005/sun_asyidwmnobuawmax.jpg,0,0.0,0.0,0,111,111,111,,,,,,,,,,,,,252.0042895000006,0.004289500000595581,None,,288.17061159999867,288.17061159999867,288.17061159999867,288.17061159999867,288.17061159999867,288.17061159999867,288.17061159999867,288.17061159999867,288.17061159999867,288.17061159999867,002,P005,2025_Jan_18_1533,ConditionRich,2021.2.3,59.932204690998724,
252.75,256.0,41,0.0,Stimuli/Blank.png,0,0.0,0.0,0,112,112,112,,,,,,,,,,,,,252.75568120000025,0.005681200000253739,5,1.224244400000316,288.9212703000012,288.9212703000012,288.9212703000012,288.9212703000012,288.9212703000012,288.9212703000012,288.9212703000012,288.9212703000012,288.9212703000012,288.9212703000012,002,P005,2025_Jan_18_1533,ConditionRich,2021.2.3,59.932204690998724,
256.0,256.75,15,0.75,Stimuli/P005/sun_btkzuhaxqlacvmsv.jpg,0,0.0,0.0,0,113,113,113,,,,,,,,,,,,,256.0103010999992,0.010301099999196595,None,,292.19081310000183,292.19081310000183,292.19081310000183,292.19081310000183,292.19081310000183,292.19081310000183,292.19081310000183,292.19081310000183,292.19081310000183,292.19081310000183,002,P005,2025_Jan_18_1533,ConditionRich,2021.2.3,59.932204690998724,
256.75,260.0,41,0.0,Stimuli/Blank.png,0,0.0,0.0,0,114,114,114,,,,,,,,,,,,,256.77560249999806,0.025602499998058192,5,1.1873060000034457,292.9581728000012,292.9581728000012,292.9581728000012,292.9581728000012,292.9581728000012,292.9581728000012,292.9581728000012,292.9581728000012,292.9581728000012,292.9581728000012,002,P005,2025_Jan_18_1533,ConditionRich,2021.2.3,59.932204690998724,
260.0,260.75,17,0.75,Stimuli/P005/sun_bwsictslfxygpqbp.jpg,0,0.0,0.0,0,115,115,115,,,,,,,,,,,,,260.03016659999776,0.03016659999775584,None,,296.211033399999,296.211033399999,296.211033399999,296.211033399999,296.211033399999,296.211033399999,296.211033399999,296.211033399999,296.211033399999,296.211033399999,002,P005,2025_Jan_18_1533,ConditionRich,2021.2.3,59.932204690998724,
260.75,264.0,41,0.0,Stimuli/Blank.png,0,0.0,0.0,0,116,116,116,,,,,,,,,,,,,260.77900690000024,0.02900690000024042,5,3.200509199999942,296.94499200000064,296.94499200000064,296.94499200000064,296.94499200000064,296.94499200000064,296.94499200000064,296.94499200000064,296.94499200000064,296.94499200000064,296.94499200000064,002,P005,2025_Jan_18_1533,ConditionRich,2021.2.3,59.932204690998724,
264.0,264.75,14,0.75,Stimuli/P005/sun_bsirencncgxteejx.jpg,0,0.0,0.0,0,117,117,117,,,,,,,,,,,,,264.01545389999956,0.015453899999556597,None,,300.1978750999988,300.1978750999988,300.1978750999988,300.1978750999988,300.1978750999988,300.1978750999988,300.1978750999988,300.1978750999988,300.1978750999988,300.1978750999988,002,P005,2025_Jan_18_1533,ConditionRich,2021.2.3,59.932204690998724,
264.75,268.0,41,0.0,Stimuli/Blank.png,1,0.25,1.0,0,118,118,118,,,,,,,,,,,,,264.765682199999,0.015682199998991564,5,1.2136599000004935,300.9318405000013,300.9318405000013,300.9318405000013,300.9318405000013,300.9318405000013,300.9318405000013,301.16536520000227,301.9160288000021,300.9318405000013,300.9318405000013,002,P005,2025_Jan_18_1533,ConditionRich,2021.2.3,59.932204690998724,
268.0,268.75,32,0.75,Stimuli/P005/things_jumpsuit_03s.jpg,0,0.0,0.0,0,119,119,119,,,,,,,,,,,,,268.0011788999982,0.001178899998194538,None,,304.1680180000003,304.1680180000003,304.1680180000003,304.1680180000003,304.1680180000003,304.1680180000003,304.1680180000003,304.1680180000003,304.1680180000003,304.1680180000003,002,P005,2025_Jan_18_1533,ConditionRich,2021.2.3,59.932204690998724,
268.75,272.0,41,0.0,Stimuli/Blank.png,1,2.25,3.0,0,120,120,120,,,,,,,,,,,,,268.75217110000085,0.0021711000008508563,4,2.7496791999983543,304.91867679999996,304.91867679999996,304.91867679999996,304.91867679999996,304.91867679999996,304.91867679999996,307.15396820000024,307.9046363999987,304.91867679999996,304.91867679999996,002,P005,2025_Jan_18_1533,ConditionRich,2021.2.3,59.932204690998724,
272.0,272.75,34,0.75,Stimuli/P005/things_patty_03s.jpg,0,0.0,0.0,0,121,121,121,,,,,,,,,,,,,272.00535279999895,0.005352799998945557,None,,308.18823989999873,308.18823989999873,308.18823989999873,308.18823989999873,308.18823989999873,308.18823989999873,308.18823989999873,308.18823989999873,308.18823989999873,308.18823989999873,002,P005,2025_Jan_18_1533,ConditionRich,2021.2.3,59.932204690998724,
272.75,276.0,41,0.0,Stimuli/Blank.png,0,0.0,0.0,0,122,122,122,,,,,,,,,,,,,272.7744481000009,0.024448100000881823,5,3.189844299999095,308.9555704000013,308.9555704000013,308.9555704000013,308.9555704000013,308.9555704000013,308.9555704000013,308.9555704000013,308.9555704000013,308.9555704000013,308.9555704000013,002,P005,2025_Jan_18_1533,ConditionRich,2021.2.3,59.932204690998724,
276.0,292.0,0,0.0,Stimuli/Blank.png,1,8.0,8.75,0,123,123,123,,,,,,,,,,,,,276.02536619999955,0.02536619999955292,5,13.953569500001322,312.1917579000001,312.1917579000001,312.1917579000001,312.1917579000001,312.1917579000001,312.1917579000001,320.1821563000012,320.9328222000004,312.1917579000001,312.1917579000001,002,P005,2025_Jan_18_1533,ConditionRich,2021.2.3,59.932204690998724,
292.0,292.75,7,0.75,Stimuli/P005/sun_bdmdlkpsznknrcqi.jpg,0,0.0,0.0,0,124,124,124,,,,,,,,,,,,,292.0061657999977,0.006165799997688737,None,,328.172463400002,328.172463400002,328.172463400002,328.172463400002,328.172463400002,328.172463400002,328.172463400002,328.172463400002,328.172463400002,328.172463400002,002,P005,2025_Jan_18_1533,ConditionRich,2021.2.3,59.932204690998724,
292.75,296.0,41,0.0,Stimuli/Blank.png,0,0.0,0.0,0,125,125,125,,,,,,,,,,,,,292.75711039999806,0.0071103999980550725,5,1.2224310999990848,328.9231389000015,328.9231389000015,328.9231389000015,328.9231389000015,328.9231389000015,328.9231389000015,328.9231389000015,328.9231389000015,328.9231389000015,328.9231389000015,002,P005,2025_Jan_18_1533,ConditionRich,2021.2.3,59.932204690998724,
296.0,296.75,16,0.75,Stimuli/P005/sun_bwentnobehmvaxkp.jpg,0,0.0,0.0,0,126,126,126,,,,,,,,,,,,,296.01010179999867,0.010101799998665228,None,,332.19270550000147,332.19270550000147,332.19270550000147,332.19270550000147,332.19270550000147,332.19270550000147,332.19270550000147,332.19270550000147,332.19270550000147,332.19270550000147,002,P005,2025_Jan_18_1533,ConditionRich,2021.2.3,59.932204690998724,
296.75,300.0,41,0.0,Stimuli/Blank.png,1,0.25,1.0,0,127,127,127,,,,,,,,,,,,,296.7793798999992,0.029379899999185,5,3.185244700001931,332.95999120000124,332.95999120000124,332.95999120000124,332.95999120000124,332.95999120000124,332.95999120000124,333.193594700002,333.9442390000004,332.95999120000124,332.95999120000124,002,P005,2025_Jan_18_1533,ConditionRich,2021.2.3,59.932204690998724,
300.0,300.75,21,0.75,Stimuli/P005/things_accordion_03s.jpg,0,0.0,0.0,0,128,128,128,,,,,,,,,,,,,300.03020599999945,0.030205999999452615,None,,336.21289850000176,336.21289850000176,336.21289850000176,336.21289850000176,336.21289850000176,336.21289850000176,336.21289850000176,336.21289850000176,336.21289850000176,336.21289850000176,002,P005,2025_Jan_18_1533,ConditionRich,2021.2.3,59.932204690998724,
300.75,304.0,41,0.0,Stimuli/Blank.png,0,0.0,0.0,0,129,129,129,,,,,,,,,,,,,300.7806983999981,0.030698399998073,5,1.198526899999706,336.9468659000013,336.9468659000013,336.9468659000013,336.9468659000013,336.9468659000013,336.9468659000013,336.9468659000013,336.9468659000013,336.9468659000013,336.9468659000013,002,P005,2025_Jan_18_1533,ConditionRich,2021.2.3,59.932204690998724,
304.0,304.75,2,0.75,Stimuli/P005/sun_ahmycohdkioefoxs.jpg,0,0.0,0.0,0,130,130,130,,,,,,,,,,,,,304.00024779999876,0.0002477999987604562,None,,340.1830450000016,340.1830450000016,340.1830450000016,340.1830450000016,340.1830450000016,340.1830450000016,340.1830450000016,340.1830450000016,340.1830450000016,340.1830450000016,002,P005,2025_Jan_18_1533,ConditionRich,2021.2.3,59.932204690998724,
304.75,308.0,41,0.0,Stimuli/Blank.png,0,0.0,0.0,0,131,131,131,,,,,,,,,,,,,304.76972340000066,0.01972340000065742,5,3.1948238000004494,340.9503900999989,340.9503900999989,340.9503900999989,340.9503900999989,340.9503900999989,340.9503900999989,340.9503900999989,340.9503900999989,340.9503900999989,340.9503900999989,002,P005,2025_Jan_18_1533,ConditionRich,2021.2.3,59.932204690998724,
308.0,308.75,38,0.75,Stimuli/P005/things_sledgehammer_03s.jpg,0,0.0,0.0,0,132,132,132,,,,,,,,,,,,,308.0207123,0.020712300000013784,None,,344.1865767999989,344.1865767999989,344.1865767999989,344.1865767999989,344.1865767999989,344.1865767999989,344.1865767999989,344.1865767999989,344.1865767999989,344.1865767999989,002,P005,2025_Jan_18_1533,ConditionRich,2021.2.3,59.932204690998724,
308.75,312.0,41,0.0,Stimuli/Blank.png,0,0.0,0.0,0,133,133,133,,,,,,,,,,,,,308.7543403999989,0.004340399998909561,5,1.2246376000002783,344.9205757000018,344.9205757000018,344.9205757000018,344.9205757000018,344.9205757000018,344.9205757000018,344.9205757000018,344.9205757000018,344.9205757000018,344.9205757000018,002,P005,2025_Jan_18_1533,ConditionRich,2021.2.3,59.932204690998724,
312.0,312.75,9,0.75,Stimuli/P005/sun_bfcmdrojsffdttzu.jpg,0,0.0,0.0,0,134,134,134,,,,,,,,,,,,,312.0070248000011,0.007024800001090625,None,,348.19009619999997,348.19009619999997,348.19009619999997,348.19009619999997,348.19009619999997,348.19009619999997,348.19009619999997,348.19009619999997,348.19009619999997,348.19009619999997,002,P005,2025_Jan_18_1533,ConditionRich,2021.2.3,59.932204690998724,
312.75,316.0,41,0.0,Stimuli/Blank.png,0,0.0,0.0,0,135,135,135,,,,,,,,,,,,,312.77515850000054,0.025158500000543427,5,3.2044477999988885,348.9407491999991,348.9407491999991,348.9407491999991,348.9407491999991,348.9407491999991,348.9407491999991,348.9407491999991,348.9407491999991,348.9407491999991,348.9407491999991,002,P005,2025_Jan_18_1533,ConditionRich,2021.2.3,59.932204690998724,
316.0,316.75,30,0.75,Stimuli/P005/things_hood_03s.jpg,0,0.0,0.0,0,136,136,136,,,,,,,,,,,,,316.01001579999865,0.010015799998654984,None,,352.17692800000077,352.17692800000077,352.17692800000077,352.17692800000077,352.17692800000077,352.17692800000077,352.17692800000077,352.17692800000077,352.17692800000077,352.17692800000077,002,P005,2025_Jan_18_1533,ConditionRich,2021.2.3,59.932204690998724,
316.75,320.0,41,0.0,Stimuli/Blank.png,0,0.0,0.0,0,137,137,137,,,,,,,,,,,,,316.76095559999885,0.01095559999885154,5,3.2176905000014813,352.9275997000004,352.9275997000004,352.9275997000004,352.9275997000004,352.9275997000004,352.9275997000004,352.9275997000004,352.9275997000004,352.9275997000004,352.9275997000004,002,P005,2025_Jan_18_1533,ConditionRich,2021.2.3,59.932204690998724,
320.0,320.75,5,0.75,Stimuli/P005/sun_axaqdcecfojvpvrl.jpg,0,0.0,0.0,0,138,138,138,,,,,,,,,,,,,320.01497720000043,0.014977200000430457,None,,356.1971646999991,356.1971646999991,356.1971646999991,356.1971646999991,356.1971646999991,356.1971646999991,356.1971646999991,356.1971646999991,356.1971646999991,356.1971646999991,002,P005,2025_Jan_18_1533,ConditionRich,2021.2.3,59.932204690998724,
320.75,324.0,41,0.0,Stimuli/Blank.png,0,0.0,0.0,0,139,139,139,,,,,,,,,,,,,320.7814139000002,0.03141390000018873,5,1.197336199998972,356.9477931000001,356.9477931000001,356.9477931000001,356.9477931000001,356.9477931000001,356.9477931000001,356.9477931000001,356.9477931000001,356.9477931000001,356.9477931000001,002,P005,2025_Jan_18_1533,ConditionRich,2021.2.3,59.932204690998724,
324.0,324.75,23,0.75,Stimuli/P005/things_beetle_03s.jpg,0,0.0,0.0,0,140,140,140,,,,,,,,,,,,,324.00064479999855,0.0006447999985539354,None,,360.1672956000002,360.1672956000002,360.1672956000002,360.1672956000002,360.1672956000002,360.1672956000002,360.1672956000002,360.1672956000002,360.1672956000002,360.1672956000002,002,P005,2025_Jan_18_1533,ConditionRich,2021.2.3,59.932204690998724,
324.75,328.0,41,0.0,Stimuli/Blank.png,0,0.0,0.0,0,141,141,141,,,,,,,,,,,,,324.75157519999993,0.0015751999999338295,5,1.227062099998875,360.91803490000166,360.91803490000166,360.91803490000166,360.91803490000166,360.91803490000166,360.91803490000166,360.91803490000166,360.91803490000166,360.91803490000166,360.91803490000166,002,P005,2025_Jan_18_1533,ConditionRich,2021.2.3,59.932204690998724,
328.0,328.75,26,0.75,Stimuli/P005/things_face_03s.jpg,0,0.0,0.0,0,142,142,142,,,,,,,,,,,,,328.0053912000003,0.005391200000303797,None,,364.1875194999993,364.1875194999993,364.1875194999993,364.1875194999993,364.1875194999993,364.1875194999993,364.1875194999993,364.1875194999993,364.1875194999993,364.1875194999993,002,P005,2025_Jan_18_1533,ConditionRich,2021.2.3,59.932204690998724,
328.75,332.0,41,0.0,Stimuli/Blank.png,0,0.0,0.0,0,143,143,143,,,,,,,,,,,,,328.7721457000007,0.02214570000069216,5,1.2069787999971595,364.9381735999996,364.9381735999996,364.9381735999996,364.9381735999996,364.9381735999996,364.9381735999996,364.9381735999996,364.9381735999996,364.9381735999996,364.9381735999996,002,P005,2025_Jan_18_1533,ConditionRich,2021.2.3,59.932204690998724,
332.0,332.75,33,0.75,Stimuli/P005/things_man_03s.jpg,0,0.0,0.0,0,144,144,144,,,,,,,,,,,,,332.0099255999994,0.009925599999405676,None,,368.1910386000018,368.1910386000018,368.1910386000018,368.1910386000018,368.1910386000018,368.1910386000018,368.1910386000018,368.1910386000018,368.1910386000018,368.1910386000018,002,P005,2025_Jan_18_1533,ConditionRich,2021.2.3,59.932204690998724,
332.75,336.0,41,0.0,Stimuli/Blank.png,0,0.0,0.0,0,145,145,145,,,,,,,,,,,,,332.7750687000007,0.025068700000701938,5,3.2034671000001254,368.94170120000126,368.94170120000126,368.94170120000126,368.94170120000126,368.94170120000126,368.94170120000126,368.94170120000126,368.94170120000126,368.94170120000126,368.94170120000126,002,P005,2025_Jan_18_1533,ConditionRich,2021.2.3,59.932204690998724,
336.0,336.75,24,0.75,Stimuli/P005/things_crab_03s.jpg,0,0.0,0.0,0,146,146,146,,,,,,,,,,,,,336.01158489999943,0.011584899999434128,None,,372.19454029999906,372.19454029999906,372.19454029999906,372.19454029999906,372.19454029999906,372.19454029999906,372.19454029999906,372.19454029999906,372.19454029999906,372.19454029999906,002,P005,2025_Jan_18_1533,ConditionRich,2021.2.3,59.932204690998724,
336.75,340.0,41,0.0,Stimuli/Blank.png,0,0.0,0.0,0,147,147,147,,,,,,,,,,,,,336.7799051000002,0.02990510000017821,5,1.1999288000006345,372.9452104000011,372.9452104000011,372.9452104000011,372.9452104000011,372.9452104000011,372.9452104000011,372.9452104000011,372.9452104000011,372.9452104000011,372.9452104000011,002,P005,2025_Jan_18_1533,ConditionRich,2021.2.3,59.932204690998724,
340.0,340.75,8,0.75,Stimuli/P005/sun_bekkgqphzbclwpvb.jpg,1,0.0,0.75,0,148,148,148,,,,,,,,,,,,,340.00090609999825,0.0009060999982466456,4,0.4958857999990869,376.18138819999876,376.18138819999876,376.18138819999876,376.18138819999876,376.18138819999876,376.18138819999876,376.18138819999876,376.9153710999999,376.18138819999876,376.18138819999876,002,P005,2025_Jan_18_1533,ConditionRich,2021.2.3,59.932204690998724,
340.75,344.0,41,0.0,Stimuli/Blank.png,0,0.0,0.0,0,149,149,149,,,,,,,,,,,,,340.7658823999991,0.015882399999100016,5,1.2129526999997324,376.93211950000114,376.93211950000114,376.93211950000114,376.93211950000114,376.93211950000114,376.93211950000114,376.93211950000114,376.93211950000114,376.93211950000114,376.93211950000114,002,P005,2025_Jan_18_1533,ConditionRich,2021.2.3,59.932204690998724,
344.0,344.75,1,0.75,Stimuli/P005/sun_adyhbxohydkpecty.jpg,0,0.0,0.0,0,150,150,150,,,,,,,,,,,,,344.0030719999995,0.003071999999519903,None,,380.1681987000011,380.1681987000011,380.1681987000011,380.1681987000011,380.1681987000011,380.1681987000011,380.1681987000011,380.1681987000011,380.1681987000011,380.1681987000011,002,P005,2025_Jan_18_1533,ConditionRich,2021.2.3,59.932204690998724,
344.75,348.0,41,0.0,Stimuli/Blank.png,0,0.0,0.0,0,151,151,151,,,,,,,,,,,,,344.7543375999994,0.004337599999416852,5,3.2095942000014475,380.93557900000087,380.93557900000087,380.93557900000087,380.93557900000087,380.93557900000087,380.93557900000087,380.93557900000087,380.93557900000087,380.93557900000087,380.93557900000087,002,P005,2025_Jan_18_1533,ConditionRich,2021.2.3,59.932204690998724,
348.0,348.75,20,0.75,Stimuli/P005/sun_dvxuxzytfdbjyzit.jpg,0,0.0,0.0,0,152,152,152,,,,,,,,,,,,,348.02242079999996,0.022420799999963492,None,,384.2051132000015,384.2051132000015,384.2051132000015,384.2051132000015,384.2051132000015,384.2051132000015,384.2051132000015,384.2051132000015,384.2051132000015,384.2051132000015,002,P005,2025_Jan_18_1533,ConditionRich,2021.2.3,59.932204690998724,
348.75,352.0,41,0.0,Stimuli/Blank.png,1,0.25,1.0,0,153,153,153,,,,,,,,,,,,,348.77460019999853,0.024600199998531025,5,3.1893640000016603,384.9557836000022,384.9557836000022,384.9557836000022,384.9557836000022,384.9557836000022,384.9557836000022,385.189314700001,385.9399663000004,384.9557836000022,384.9557836000022,002,P005,2025_Jan_18_1533,ConditionRich,2021.2.3,59.932204690998724,
352.0,352.75,40,0.75,Stimuli/P005/things_woman_03s.jpg,0,0.0,0.0,0,154,154,154,,,,,,,,,,,,,352.0260426999994,0.026042699999379693,None,,388.19196720000036,388.19196720000036,388.19196720000036,388.19196720000036,388.19196720000036,388.19196720000036,388.19196720000036,388.19196720000036,388.19196720000036,388.19196720000036,002,P005,2025_Jan_18_1533,ConditionRich,2021.2.3,59.932204690998724,
352.75,356.0,41,0.0,Stimuli/Blank.png,0,0.0,0.0,0,155,155,155,,,,,,,,,,,,,352.7597466999978,0.009746699997776886,5,3.219090700000379,388.92595490000167,388.92595490000167,388.92595490000167,388.92595490000167,388.92595490000167,388.92595490000167,388.92595490000167,388.92595490000167,388.92595490000167,388.92595490000167,002,P005,2025_Jan_18_1533,ConditionRich,2021.2.3,59.932204690998724,
356.0,356.75,11,0.75,Stimuli/P005/sun_bjoocjyyhsmsbprr.jpg,0,0.0,0.0,0,156,156,156,,,,,,,,,,,,,356.0148225999983,0.014822599998296937,None,,392.1954838999991,392.1954838999991,392.1954838999991,392.1954838999991,392.1954838999991,392.1954838999991,392.1954838999991,392.1954838999991,392.1954838999991,392.1954838999991,002,P005,2025_Jan_18_1533,ConditionRich,2021.2.3,59.932204690998724,
356.75,360.0,41,0.0,Stimuli/Blank.png,0,0.0,0.0,0,157,157,157,,,,,,,,,,,,,356.77994079999917,0.02994079999916721,5,3.1822907000023406,392.9628441999994,392.9628441999994,392.9628441999994,392.9628441999994,392.9628441999994,392.9628441999994,392.9628441999994,392.9628441999994,392.9628441999994,392.9628441999994,002,P005,2025_Jan_18_1533,ConditionRich,2021.2.3,59.932204690998724,
360.0,360.75,25,0.75,Stimuli/P005/things_dog_03s.jpg,0,0.0,0.0,0,158,158,158,,,,,,,,,,,,,360.0165863000002,0.016586300000199117,None,,396.1823417000014,396.1823417000014,396.1823417000014,396.1823417000014,396.1823417000014,396.1823417000014,396.1823417000014,396.1823417000014,396.1823417000014,396.1823417000014,002,P005,2025_Jan_18_1533,ConditionRich,2021.2.3,59.932204690998724,
360.75,364.0,41,0.0,Stimuli/Blank.png,1,1.25,2.0,0,159,159,159,,,,,,,,,,,,,360.7500082999977,8.299997716676444e-06,4,1.6626281999997445,396.91635640000095,396.91635640000095,396.91635640000095,396.91635640000095,396.91635640000095,396.91635640000095,398.15072710000095,398.90138450000086,396.91635640000095,396.91635640000095,002,P005,2025_Jan_18_1533,ConditionRich,2021.2.3,59.932204690998724,
364.0,364.75,10,0.75,Stimuli/P005/sun_bgnxbfhmwhliypvg.jpg,0,0.0,0.0,0,160,160,160,,,,,,,,,,,,,364.00456979999944,0.004569799999444513,None,,400.1858558999993,400.1858558999993,400.1858558999993,400.1858558999993,400.1858558999993,400.1858558999993,400.1858558999993,400.1858558999993,400.1858558999993,400.1858558999993,002,P005,2025_Jan_18_1533,ConditionRich,2021.2.3,59.932204690998724,
364.75,368.0,41,0.0,Stimuli/Blank.png,0,0.0,0.0,0,161,161,161,,,,,,,,,,,,,364.76968430000124,0.019684300001244992,5,1.2089176000008592,400.9365074999987,400.9365074999987,400.9365074999987,400.9365074999987,400.9365074999987,400.9365074999987,400.9365074999987,400.9365074999987,400.9365074999987,400.9365074999987,002,P005,2025_Jan_18_1533,ConditionRich,2021.2.3,59.932204690998724,
368.0,368.75,29,0.75,Stimuli/P005/things_guillotine_03s.jpg,0,0.0,0.0,0,162,162,162,,,,,,,,,,,,,368.0059164000013,0.005916400001297006,None,,404.1726841999989,404.1726841999989,404.1726841999989,404.1726841999989,404.1726841999989,404.1726841999989,404.1726841999989,404.1726841999989,404.1726841999989,404.1726841999989,002,P005,2025_Jan_18_1533,ConditionRich,2021.2.3,59.932204690998724,
368.75,372.0,41,0.0,Stimuli/Blank.png,0,0.0,0.0,0,163,163,163,,,,,,,,,,,,,368.7568210999998,0.006821099999797298,5,1.2219318999996176,404.92334649999975,404.92334649999975,404.92334649999975,404.92334649999975,404.92334649999975,404.92334649999975,404.92334649999975,404.92334649999975,404.92334649999975,404.92334649999975,002,P005,2025_Jan_18_1533,ConditionRich,2021.2.3,59.932204690998724,
372.0,388.0,0,0.0,Stimuli/Blank.png,1,7.0,7.75,0,164,164,164,,,,,,,,,,,,,372.00986009999906,0.009860099999059457,5,13.968718900003296,408.1762118000006,408.1762118000006,408.1762118000006,408.1762118000006,408.1762118000006,408.1762118000006,415.1657063999992,415.9164380000002,408.1762118000006,408.1762118000006,002,P005,2025_Jan_18_1533,ConditionRich,2021.2.3,59.932204690998724,
