eventStartTime,eventEndTime,eventCond,imSize,imFile,responseEvent,fixRespStart,fixRespEnd,Events.thisRepN,Events.thisTrialN,Events.thisN,Events.thisIndex,Instructions.started,Instructions.stopped,participantReadyResponse.keys,participantReadyResponse.rt,participantReadyResponse.started,participantReadyResponse.stopped,startWaitforTrigger,triggerResponse.keys,triggerResponse.rt,triggerResponse.started,triggerResponse.stopped,globalTimer,actualStartTime,startTimingDiff,participantResponse.keys,participantResponse.rt,participantResponse.started,participantResponse.stopped,image.started,image.stopped,fixationOutside.started,fixationOutside.stopped,fixationResponse.started,fixationResponse.stopped,fixationInside.started,fixationInside.stopped,session,participant,date,expName,psychopyVersion,frameRate,
,,,,,,,,,,,,10.619411700000455,None,1,5.223068499999499,10.619411700000455,None,,,,,,,,,,,,,,,,,,,,,006,P006,2025_Jan_25_1207,ConditionRich,2021.2.3,59.93863482558472,
,,,,,,,,,,,,,,,,,,15.852671999999984,5,14.475370600000133,15.865243700000065,None,,,,,,,,,,,,,,,,006,P006,2025_Jan_25_1207,ConditionRich,2021.2.3,59.93863482558472,
0.0,4.0,0,0.0,Stimuli/Blank.png,0,0.0,0.0,0,0,0,0,,,,,,,,,,,,30.34832650000044,0.03626170000006823,0.03626170000006823,5,3.929039399999965,30.41137350000008,None,30.41137350000008,None,30.41137350000008,None,30.41137350000008,30.41137350000008,30.41137350000008,None,006,P006,2025_Jan_25_1207,ConditionRich,2021.2.3,59.93863482558472,
4.0,4.75,9,0.75,Stimuli/P006/sun_bfcmdrojsffdttzu.jpg,0,0.0,0.0,0,1,1,1,,,,,,,,,,,,,4.019898999999896,0.01989899999989575,None,,34.381955599999856,34.381955599999856,34.381955599999856,34.381955599999856,34.381955599999856,34.381955599999856,34.381955599999856,34.381955599999856,34.381955599999856,34.381955599999856,006,P006,2025_Jan_25_1207,ConditionRich,2021.2.3,59.93863482558472,
4.75,8.0,41,0.0,Stimuli/Blank.png,1,0.25,1.0,0,2,2,2,,,,,,,,,,,,,4.755475099999785,0.005475099999785016,5,3.2082178000000567,35.132462500000656,35.132462500000656,35.132462500000656,35.132462500000656,35.132462500000656,35.132462500000656,35.3657903000003,36.11644179999985,35.132462500000656,35.132462500000656,006,P006,2025_Jan_25_1207,ConditionRich,2021.2.3,59.93863482558472,
8.0,8.75,3,0.75,Stimuli/P006/sun_asyidwmnobuawmax.jpg,0,0.0,0.0,0,3,3,3,,,,,,,,,,,,,8.02298090000022,0.022980900000220572,None,,38.40173260000029,38.40173260000029,38.40173260000029,38.40173260000029,38.40173260000029,38.40173260000029,38.40173260000029,38.40173260000029,38.40173260000029,38.40173260000029,006,P006,2025_Jan_25_1207,ConditionRich,2021.2.3,59.93863482558472,
8.75,12.0,41,0.0,Stimuli/Blank.png,0,0.0,0.0,0,4,4,4,,,,,,,,,,,,,8.772947999999815,0.022947999999814783,5,3.204782499999965,39.13574410000001,39.13574410000001,39.13574410000001,39.13574410000001,39.13574410000001,39.13574410000001,39.13574410000001,39.13574410000001,39.13574410000001,39.13574410000001,006,P006,2025_Jan_25_1207,ConditionRich,2021.2.3,59.93863482558472,
12.0,12.75,32,0.75,Stimuli/P006/things_jumpsuit_03s.jpg,0,0.0,0.0,0,5,5,5,,,,,,,,,,,,,12.00995569999941,0.009955699999409262,None,,42.37193190000016,42.37193190000016,42.37193190000016,42.37193190000016,42.37193190000016,42.37193190000016,42.37193190000016,42.37193190000016,42.37193190000016,42.37193190000016,006,P006,2025_Jan_25_1207,ConditionRich,2021.2.3,59.93863482558472,
12.75,16.0,41,0.0,Stimuli/Blank.png,0,0.0,0.0,0,6,6,6,,,,,,,,,,,,,12.75986980000016,0.009869800000160467,5,3.217862200000127,43.122599600000285,43.122599600000285,43.122599600000285,43.122599600000285,43.122599600000285,43.122599600000285,43.122599600000285,43.122599600000285,43.122599600000285,43.122599600000285,006,P006,2025_Jan_25_1207,ConditionRich,2021.2.3,59.93863482558472,
16.0,16.75,21,0.75,Stimuli/P006/things_accordion_03s.jpg,0,0.0,0.0,0,7,7,7,,,,,,,,,,,,,16.01288349999959,0.012883499999588821,None,,46.39215530000001,46.39215530000001,46.39215530000001,46.39215530000001,46.39215530000001,46.39215530000001,46.39215530000001,46.39215530000001,46.39215530000001,46.39215530000001,006,P006,2025_Jan_25_1207,ConditionRich,2021.2.3,59.93863482558472,
16.75,20.0,41,0.0,Stimuli/Blank.png,0,0.0,0.0,0,8,8,8,,,,,,,,,,,,,16.78130710000005,0.031307100000049104,5,1.1977974000001268,47.14281300000039,47.14281300000039,47.14281300000039,47.14281300000039,47.14281300000039,47.14281300000039,47.14281300000039,47.14281300000039,47.14281300000039,47.14281300000039,006,P006,2025_Jan_25_1207,ConditionRich,2021.2.3,59.93863482558472,
20.0,20.75,10,0.75,Stimuli/P006/sun_bgnxbfhmwhliypvg.jpg,0,0.0,0.0,0,9,9,9,,,,,,,,,,,,,20.00065579999955,0.0006557999995493446,None,,50.37899220000054,50.37899220000054,50.37899220000054,50.37899220000054,50.37899220000054,50.37899220000054,50.37899220000054,50.37899220000054,50.37899220000054,50.37899220000054,006,P006,2025_Jan_25_1207,ConditionRich,2021.2.3,59.93863482558472,
20.75,24.0,41,0.0,Stimuli/Blank.png,0,0.0,0.0,0,10,10,10,,,,,,,,,,,,,20.766903699999602,0.016903699999602395,5,1.2108124000005773,51.129652600000554,51.129652600000554,51.129652600000554,51.129652600000554,51.129652600000554,51.129652600000554,51.129652600000554,51.129652600000554,51.129652600000554,51.129652600000554,006,P006,2025_Jan_25_1207,ConditionRich,2021.2.3,59.93863482558472,
24.0,24.75,15,0.75,Stimuli/P006/sun_btkzuhaxqlacvmsv.jpg,0,0.0,0.0,0,11,11,11,,,,,,,,,,,,,24.00468219999948,0.004682199999479053,None,,54.38252850000026,54.38252850000026,54.38252850000026,54.38252850000026,54.38252850000026,54.38252850000026,54.38252850000026,54.38252850000026,54.38252850000026,54.38252850000026,006,P006,2025_Jan_25_1207,ConditionRich,2021.2.3,59.93863482558472,
24.75,28.0,41,0.0,Stimuli/Blank.png,0,0.0,0.0,0,12,12,12,,,,,,,,,,,,,24.771053999999822,0.021053999999821826,5,1.2074434999994992,55.133193000000574,55.133193000000574,55.133193000000574,55.133193000000574,55.133193000000574,55.133193000000574,55.133193000000574,55.133193000000574,55.133193000000574,55.133193000000574,006,P006,2025_Jan_25_1207,ConditionRich,2021.2.3,59.93863482558472,
28.0,28.75,5,0.75,Stimuli/P006/sun_axaqdcecfojvpvrl.jpg,0,0.0,0.0,0,13,13,13,,,,,,,,,,,,,28.00735220000024,0.007352200000241282,None,,58.36939380000058,58.36939380000058,58.36939380000058,58.36939380000058,58.36939380000058,58.36939380000058,58.36939380000058,58.36939380000058,58.36939380000058,58.36939380000058,006,P006,2025_Jan_25_1207,ConditionRich,2021.2.3,59.93863482558472,
28.75,32.0,41,0.0,Stimuli/Blank.png,0,0.0,0.0,0,14,14,14,,,,,,,,,,,,,28.757259899999553,0.007259899999553454,5,3.2204501999995045,59.12004740000066,59.12004740000066,59.12004740000066,59.12004740000066,59.12004740000066,59.12004740000066,59.12004740000066,59.12004740000066,59.12004740000066,59.12004740000066,006,P006,2025_Jan_25_1207,ConditionRich,2021.2.3,59.93863482558472,
32.0,32.75,12,0.75,Stimuli/P006/sun_bodyuiqwqpqzwfoz.jpg,0,0.0,0.0,0,15,15,15,,,,,,,,,,,,,32.01049090000015,0.01049090000014985,None,,62.37292250000064,62.37292250000064,62.37292250000064,62.37292250000064,62.37292250000064,62.37292250000064,62.37292250000064,62.37292250000064,62.37292250000064,62.37292250000064,006,P006,2025_Jan_25_1207,ConditionRich,2021.2.3,59.93863482558472,
32.75,36.0,41,0.0,Stimuli/Blank.png,0,0.0,0.0,0,16,16,16,,,,,,,,,,,,,32.76208450000013,0.012084500000128173,5,3.2001658999997744,63.14024890000019,63.14024890000019,63.14024890000019,63.14024890000019,63.14024890000019,63.14024890000019,63.14024890000019,63.14024890000019,63.14024890000019,63.14024890000019,006,P006,2025_Jan_25_1207,ConditionRich,2021.2.3,59.93863482558472,
36.0,36.75,40,0.75,Stimuli/P006/things_woman_03s.jpg,0,0.0,0.0,0,17,17,17,,,,,,,,,,,,,36.030682499999784,0.03068249999978434,None,,66.39313570000013,66.39313570000013,66.39313570000013,66.39313570000013,66.39313570000013,66.39313570000013,66.39313570000013,66.39313570000013,66.39313570000013,66.39313570000013,006,P006,2025_Jan_25_1207,ConditionRich,2021.2.3,59.93863482558472,
36.75,40.0,41,0.0,Stimuli/Blank.png,0,0.0,0.0,0,18,18,18,,,,,,,,,,,,,36.765252499999406,0.0152524999994057,5,1.2134435000007215,67.12711510000008,67.12711510000008,67.12711510000008,67.12711510000008,67.12711510000008,67.12711510000008,67.12711510000008,67.12711510000008,67.12711510000008,67.12711510000008,006,P006,2025_Jan_25_1207,ConditionRich,2021.2.3,59.93863482558472,
40.0,40.75,2,0.75,Stimuli/P006/sun_ahmycohdkioefoxs.jpg,0,0.0,0.0,0,19,19,19,,,,,,,,,,,,,40.00110769999992,0.0011076999999204418,None,,70.38051070000074,70.38051070000074,70.38051070000074,70.38051070000074,70.38051070000074,70.38051070000074,70.38051070000074,70.38051070000074,70.38051070000074,70.38051070000074,006,P006,2025_Jan_25_1207,ConditionRich,2021.2.3,59.93863482558472,
40.75,44.0,41,0.0,Stimuli/Blank.png,0,0.0,0.0,0,20,20,20,,,,,,,,,,,,,40.770350799999505,0.020350799999505398,5,3.1930595999992875,71.14733080000042,71.14733080000042,71.14733080000042,71.14733080000042,71.14733080000042,71.14733080000042,71.14733080000042,71.14733080000042,71.14733080000042,71.14733080000042,006,P006,2025_Jan_25_1207,ConditionRich,2021.2.3,59.93863482558472,
44.0,44.75,11,0.75,Stimuli/P006/sun_bjoocjyyhsmsbprr.jpg,0,0.0,0.0,0,21,21,21,,,,,,,,,,,,,44.02128799999991,0.021287999999913154,None,,74.38352320000013,74.38352320000013,74.38352320000013,74.38352320000013,74.38352320000013,74.38352320000013,74.38352320000013,74.38352320000013,74.38352320000013,74.38352320000013,006,P006,2025_Jan_25_1207,ConditionRich,2021.2.3,59.93863482558472,
44.75,48.0,41,0.0,Stimuli/Blank.png,1,1.25,2.0,0,22,22,22,,,,,,,,,,,,,44.75524899999982,0.005248999999821535,1,1.6720127000007778,75.11749860000054,75.11749860000054,75.11749860000054,75.11749860000054,75.11749860000054,75.11749860000054,76.3519139,77.10257069999989,75.11749860000054,75.11749860000054,006,P006,2025_Jan_25_1207,ConditionRich,2021.2.3,59.93863482558472,
48.0,48.75,38,0.75,Stimuli/P006/things_sledgehammer_03s.jpg,0,0.0,0.0,0,23,23,23,,,,,,,,,,,,,48.00745050000023,0.007450500000231841,None,,78.37037640000017,78.37037640000017,78.37037640000017,78.37037640000017,78.37037640000017,78.37037640000017,78.37037640000017,78.37037640000017,78.37037640000017,78.37037640000017,006,P006,2025_Jan_25_1207,ConditionRich,2021.2.3,59.93863482558472,
48.75,52.0,41,0.0,Stimuli/Blank.png,0,0.0,0.0,0,24,24,24,,,,,,,,,,,,,48.760459699999956,0.010459699999955774,5,3.202832099999796,79.13771980000001,79.13771980000001,79.13771980000001,79.13771980000001,79.13771980000001,79.13771980000001,79.13771980000001,79.13771980000001,79.13771980000001,79.13771980000001,006,P006,2025_Jan_25_1207,ConditionRich,2021.2.3,59.93863482558472,
52.0,52.75,34,0.75,Stimuli/P006/things_patty_03s.jpg,0,0.0,0.0,0,25,25,25,,,,,,,,,,,,,52.02775759999986,0.02775759999985894,None,,82.3905893000001,82.3905893000001,82.3905893000001,82.3905893000001,82.3905893000001,82.3905893000001,82.3905893000001,82.3905893000001,82.3905893000001,82.3905893000001,006,P006,2025_Jan_25_1207,ConditionRich,2021.2.3,59.93863482558472,
52.75,56.0,41,0.0,Stimuli/Blank.png,0,0.0,0.0,0,26,26,26,,,,,,,,,,,,,52.76211330000024,0.01211330000023736,5,3.2159833000005165,83.12456580000071,83.12456580000071,83.12456580000071,83.12456580000071,83.12456580000071,83.12456580000071,83.12456580000071,83.12456580000071,83.12456580000071,83.12456580000071,006,P006,2025_Jan_25_1207,ConditionRich,2021.2.3,59.93863482558472,
56.0,56.75,20,0.75,Stimuli/P006/sun_dvxuxzytfdbjyzit.jpg,0,0.0,0.0,0,27,27,27,,,,,,,,,,,,,56.01549950000026,0.015499500000260014,None,,86.37743630000023,86.37743630000023,86.37743630000023,86.37743630000023,86.37743630000023,86.37743630000023,86.37743630000023,86.37743630000023,86.37743630000023,86.37743630000023,006,P006,2025_Jan_25_1207,ConditionRich,2021.2.3,59.93863482558472,
56.75,60.0,41,0.0,Stimuli/Blank.png,0,0.0,0.0,0,28,28,28,,,,,,,,,,,,,56.75149659999988,0.0014965999998821644,5,3.2123232000003554,87.1281028000003,87.1281028000003,87.1281028000003,87.1281028000003,87.1281028000003,87.1281028000003,87.1281028000003,87.1281028000003,87.1281028000003,87.1281028000003,006,P006,2025_Jan_25_1207,ConditionRich,2021.2.3,59.93863482558472,
60.0,60.75,14,0.75,Stimuli/P006/sun_bsirencncgxteejx.jpg,0,0.0,0.0,0,29,29,29,,,,,,,,,,,,,60.01864139999998,0.018641399999978603,None,,90.38097259999995,90.38097259999995,90.38097259999995,90.38097259999995,90.38097259999995,90.38097259999995,90.38097259999995,90.38097259999995,90.38097259999995,90.38097259999995,006,P006,2025_Jan_25_1207,ConditionRich,2021.2.3,59.93863482558472,
60.75,64.0,41,0.0,Stimuli/Blank.png,0,0.0,0.0,0,30,30,30,,,,,,,,,,,,,60.75268739999956,0.002687399999558693,5,1.2253891999998814,91.11495439999999,91.11495439999999,91.11495439999999,91.11495439999999,91.11495439999999,91.11495439999999,91.11495439999999,91.11495439999999,91.11495439999999,91.11495439999999,006,P006,2025_Jan_25_1207,ConditionRich,2021.2.3,59.93863482558472,
64.0,64.75,30,0.75,Stimuli/P006/things_hood_03s.jpg,0,0.0,0.0,0,31,31,31,,,,,,,,,,,,,64.00491650000004,0.0049165000000357395,None,,94.36781070000052,94.36781070000052,94.36781070000052,94.36781070000052,94.36781070000052,94.36781070000052,94.36781070000052,94.36781070000052,94.36781070000052,94.36781070000052,006,P006,2025_Jan_25_1207,ConditionRich,2021.2.3,59.93863482558472,
64.75,68.0,41,0.0,Stimuli/Blank.png,0,0.0,0.0,0,32,32,32,,,,,,,,,,,,,64.75638449999951,0.006384499999512627,5,3.205228800000441,95.13518230000045,95.13518230000045,95.13518230000045,95.13518230000045,95.13518230000045,95.13518230000045,95.13518230000045,95.13518230000045,95.13518230000045,95.13518230000045,006,P006,2025_Jan_25_1207,ConditionRich,2021.2.3,59.93863482558472,
68.0,68.75,8,0.75,Stimuli/P006/sun_bekkgqphzbclwpvb.jpg,0,0.0,0.0,0,33,33,33,,,,,,,,,,,,,68.02626770000006,0.026267700000062177,None,,98.38803120000011,98.38803120000011,98.38803120000011,98.38803120000011,98.38803120000011,98.38803120000011,98.38803120000011,98.38803120000011,98.38803120000011,98.38803120000011,006,P006,2025_Jan_25_1207,ConditionRich,2021.2.3,59.93863482558472,
68.75,72.0,41,0.0,Stimuli/Blank.png,1,1.25,2.0,0,34,34,34,,,,,,,,,,,,,68.76253989999987,0.012539899999865156,5,3.2017156000001705,99.13872970000011,99.13872970000011,99.13872970000011,99.13872970000011,99.13872970000011,99.13872970000011,100.37311080000018,101.12377110000034,99.13872970000011,99.13872970000011,006,P006,2025_Jan_25_1207,ConditionRich,2021.2.3,59.93863482558472,
72.0,72.75,4,0.75,Stimuli/P006/sun_auwghripdoxzluuk.jpg,0,0.0,0.0,0,35,35,35,,,,,,,,,,,,,72.03096060000007,0.03096060000007128,None,,102.40825510000013,102.40825510000013,102.40825510000013,102.40825510000013,102.40825510000013,102.40825510000013,102.40825510000013,102.40825510000013,102.40825510000013,102.40825510000013,006,P006,2025_Jan_25_1207,ConditionRich,2021.2.3,59.93863482558472,
72.75,76.0,41,0.0,Stimuli/Blank.png,0,0.0,0.0,0,36,36,36,,,,,,,,,,,,,72.78037309999945,0.03037309999945137,5,1.198153700000148,103.14223350000066,103.14223350000066,103.14223350000066,103.14223350000066,103.14223350000066,103.14223350000066,103.14223350000066,103.14223350000066,103.14223350000066,103.14223350000066,006,P006,2025_Jan_25_1207,ConditionRich,2021.2.3,59.93863482558472,
76.0,76.75,18,0.75,Stimuli/P006/sun_bzqhpcsgzswozfhs.jpg,0,0.0,0.0,0,37,37,37,,,,,,,,,,,,,76.0020101,0.002010100000006787,None,,106.3784110000006,106.3784110000006,106.3784110000006,106.3784110000006,106.3784110000006,106.3784110000006,106.3784110000006,106.3784110000006,106.3784110000006,106.3784110000006,006,P006,2025_Jan_25_1207,ConditionRich,2021.2.3,59.93863482558472,
76.75,80.0,41,0.0,Stimuli/Blank.png,1,2.25,3.0,0,38,38,38,,,,,,,,,,,,,76.76718710000023,0.017187100000228384,1,2.6973840000000564,107.12908270000025,107.12908270000025,107.12908270000025,107.12908270000025,107.12908270000025,107.12908270000025,109.36439470000005,110.11508409999988,107.12908270000025,107.12908270000025,006,P006,2025_Jan_25_1207,ConditionRich,2021.2.3,59.93863482558472,
80.0,80.75,26,0.75,Stimuli/P006/things_face_03s.jpg,0,0.0,0.0,0,39,39,39,,,,,,,,,,,,,80.00314369999978,0.0031436999997822568,None,,110.38194600000043,110.38194600000043,110.38194600000043,110.38194600000043,110.38194600000043,110.38194600000043,110.38194600000043,110.38194600000043,110.38194600000043,110.38194600000043,006,P006,2025_Jan_25_1207,ConditionRich,2021.2.3,59.93863482558472,
80.75,84.0,41,0.0,Stimuli/Blank.png,0,0.0,0.0,0,40,40,40,,,,,,,,,,,,,80.77098359999945,0.020983599999453872,5,1.2077015999993819,111.13261969999985,111.13261969999985,111.13261969999985,111.13261969999985,111.13261969999985,111.13261969999985,111.13261969999985,111.13261969999985,111.13261969999985,111.13261969999985,006,P006,2025_Jan_25_1207,ConditionRich,2021.2.3,59.93863482558472,
84.0,100.0,0,0.0,Stimuli/Blank.png,1,9.0,9.75,0,41,41,41,,,,,,,,,,,,,84.00686119999955,0.006861199999548262,5,13.971560199999658,114.36880130000009,114.36880130000009,114.36880130000009,114.36880130000009,114.36880130000009,114.36880130000009,123.36010400000032,124.1107660000007,114.36880130000009,114.36880130000009,006,P006,2025_Jan_25_1207,ConditionRich,2021.2.3,59.93863482558472,
100.0,100.75,39,0.75,Stimuli/P006/things_train_set_03s.jpg,0,0.0,0.0,0,42,42,42,,,,,,,,,,,,,100.0067855999996,0.006785599999602709,None,,130.38294140000016,130.38294140000016,130.38294140000016,130.38294140000016,130.38294140000016,130.38294140000016,130.38294140000016,130.38294140000016,130.38294140000016,130.38294140000016,006,P006,2025_Jan_25_1207,ConditionRich,2021.2.3,59.93863482558472,
100.75,104.0,41,0.0,Stimuli/Blank.png,0,0.0,0.0,0,43,43,43,,,,,,,,,,,,,100.77212359999976,0.02212359999975888,5,3.1900322000001324,131.15029670000058,131.15029670000058,131.15029670000058,131.15029670000058,131.15029670000058,131.15029670000058,131.15029670000058,131.15029670000058,131.15029670000058,131.15029670000058,006,P006,2025_Jan_25_1207,ConditionRich,2021.2.3,59.93863482558472,
104.0,104.75,35,0.75,Stimuli/P006/things_pig_03s.jpg,0,0.0,0.0,0,44,44,44,,,,,,,,,,,,,104.02461029999995,0.024610299999949348,None,,134.4031541000004,134.4031541000004,134.4031541000004,134.4031541000004,134.4031541000004,134.4031541000004,134.4031541000004,134.4031541000004,134.4031541000004,134.4031541000004,006,P006,2025_Jan_25_1207,ConditionRich,2021.2.3,59.93863482558472,
104.75,108.0,41,0.0,Stimuli/Blank.png,1,1.25,2.0,0,45,45,45,,,,,,,,,,,,,104.77545349999946,0.025453499999457563,1,1.7181633000000147,135.13713910000024,135.13713910000024,135.13713910000024,135.13713910000024,135.13713910000024,135.13713910000024,136.3715542,137.12220250000064,135.13713910000024,135.13713910000024,006,P006,2025_Jan_25_1207,ConditionRich,2021.2.3,59.93863482558472,
108.0,108.75,16,0.75,Stimuli/P006/sun_bwentnobehmvaxkp.jpg,0,0.0,0.0,0,46,46,46,,,,,,,,,,,,,108.01146580000022,0.01146580000022368,None,,138.38999349999995,138.38999349999995,138.38999349999995,138.38999349999995,138.38999349999995,138.38999349999995,138.38999349999995,138.38999349999995,138.38999349999995,138.38999349999995,006,P006,2025_Jan_25_1207,ConditionRich,2021.2.3,59.93863482558472,
108.75,112.0,41,0.0,Stimuli/Blank.png,0,0.0,0.0,0,47,47,47,,,,,,,,,,,,,108.77813369999967,0.02813369999967108,5,3.200623199999427,139.1406710000001,139.1406710000001,139.1406710000001,139.1406710000001,139.1406710000001,139.1406710000001,139.1406710000001,139.1406710000001,139.1406710000001,139.1406710000001,006,P006,2025_Jan_25_1207,ConditionRich,2021.2.3,59.93863482558472,
112.0,112.75,25,0.75,Stimuli/P006/things_dog_03s.jpg,0,0.0,0.0,0,48,48,48,,,,,,,,,,,,,112.01405189999969,0.014051899999685702,None,,142.37685620000047,142.37685620000047,142.37685620000047,142.37685620000047,142.37685620000047,142.37685620000047,142.37685620000047,142.37685620000047,142.37685620000047,142.37685620000047,006,P006,2025_Jan_25_1207,ConditionRich,2021.2.3,59.93863482558472,
112.75,116.0,41,0.0,Stimuli/Blank.png,1,1.25,2.0,0,49,49,49,,,,,,,,,,,,,112.76510030000009,0.015100300000085554,1,1.7237618999997721,143.12760780000008,143.12760780000008,143.12760780000008,143.12760780000008,143.12760780000008,143.12760780000008,144.36192660000052,145.11259719999998,143.12760780000008,143.12760780000008,006,P006,2025_Jan_25_1207,ConditionRich,2021.2.3,59.93863482558472,
116.0,116.75,6,0.75,Stimuli/P006/sun_bbzkhzmxdjrfjpjz.jpg,0,0.0,0.0,0,50,50,50,,,,,,,,,,,,,116.0020998,0.0020997999999963213,None,,146.38037650000024,146.38037650000024,146.38037650000024,146.38037650000024,146.38037650000024,146.38037650000024,146.38037650000024,146.38037650000024,146.38037650000024,146.38037650000024,006,P006,2025_Jan_25_1207,ConditionRich,2021.2.3,59.93863482558472,
116.75,120.0,41,0.0,Stimuli/Blank.png,0,0.0,0.0,0,51,51,51,,,,,,,,,,,,,116.7703918999996,0.020391899999594898,5,3.1937707999995837,147.1477319000005,147.1477319000005,147.1477319000005,147.1477319000005,147.1477319000005,147.1477319000005,147.1477319000005,147.1477319000005,147.1477319000005,147.1477319000005,006,P006,2025_Jan_25_1207,ConditionRich,2021.2.3,59.93863482558472,
120.0,120.75,28,0.75,Stimuli/P006/things_girl_03s.jpg,0,0.0,0.0,0,52,52,52,,,,,,,,,,,,,120.0219017999998,0.021901799999795912,None,,150.383914,150.383914,150.383914,150.383914,150.383914,150.383914,150.383914,150.383914,150.383914,150.383914,006,P006,2025_Jan_25_1207,ConditionRich,2021.2.3,59.93863482558472,
120.75,124.0,41,0.0,Stimuli/Blank.png,0,0.0,0.0,0,53,53,53,,,,,,,,,,,,,120.75644449999982,0.006444499999815889,5,3.2069636999995055,151.1346065000007,151.1346065000007,151.1346065000007,151.1346065000007,151.1346065000007,151.1346065000007,151.1346065000007,151.1346065000007,151.1346065000007,151.1346065000007,006,P006,2025_Jan_25_1207,ConditionRich,2021.2.3,59.93863482558472,
124.0,124.75,27,0.75,Stimuli/P006/things_first-aid_kit_03s.jpg,0,0.0,0.0,0,54,54,54,,,,,,,,,,,,,124.02555070000017,0.025550700000167126,None,,154.38745180000024,154.38745180000024,154.38745180000024,154.38745180000024,154.38745180000024,154.38745180000024,154.38745180000024,154.38745180000024,154.38745180000024,154.38745180000024,006,P006,2025_Jan_25_1207,ConditionRich,2021.2.3,59.93863482558472,
124.75,128.0,41,0.0,Stimuli/Blank.png,0,0.0,0.0,0,55,55,55,,,,,,,,,,,,,124.76148509999985,0.01148509999984526,5,3.203232400000161,155.1381323000005,155.1381323000005,155.1381323000005,155.1381323000005,155.1381323000005,155.1381323000005,155.1381323000005,155.1381323000005,155.1381323000005,155.1381323000005,006,P006,2025_Jan_25_1207,ConditionRich,2021.2.3,59.93863482558472,
128.0,128.75,24,0.75,Stimuli/P006/things_crab_03s.jpg,0,0.0,0.0,0,56,56,56,,,,,,,,,,,,,128.03066169999965,0.030661699999654957,None,,158.4076715000001,158.4076715000001,158.4076715000001,158.4076715000001,158.4076715000001,158.4076715000001,158.4076715000001,158.4076715000001,158.4076715000001,158.4076715000001,006,P006,2025_Jan_25_1207,ConditionRich,2021.2.3,59.93863482558472,
128.75,132.0,41,0.0,Stimuli/Blank.png,0,0.0,0.0,0,57,57,57,,,,,,,,,,,,,128.7813956,0.03139559999999619,5,3.1830192999996143,159.1583330000003,159.1583330000003,159.1583330000003,159.1583330000003,159.1583330000003,159.1583330000003,159.1583330000003,159.1583330000003,159.1583330000003,159.1583330000003,006,P006,2025_Jan_25_1207,ConditionRich,2021.2.3,59.93863482558472,
132.0,132.75,36,0.75,Stimuli/P006/things_pony_03s.jpg,0,0.0,0.0,0,58,58,58,,,,,,,,,,,,,132.0151476000001,0.015147600000091188,None,,162.37782980000065,162.37782980000065,162.37782980000065,162.37782980000065,162.37782980000065,162.37782980000065,162.37782980000065,162.37782980000065,162.37782980000065,162.37782980000065,006,P006,2025_Jan_25_1207,ConditionRich,2021.2.3,59.93863482558472,
132.75,136.0,41,0.0,Stimuli/Blank.png,0,0.0,0.0,0,59,59,59,,,,,,,,,,,,,132.7493482,-0.000651800000014191,5,1.2295992999997907,163.11181490000035,163.11181490000035,163.11181490000035,163.11181490000035,163.11181490000035,163.11181490000035,163.11181490000035,163.11181490000035,163.11181490000035,163.11181490000035,006,P006,2025_Jan_25_1207,ConditionRich,2021.2.3,59.93863482558472,
136.0,136.75,22,0.75,Stimuli/P006/things_baby_03s.jpg,0,0.0,0.0,0,60,60,60,,,,,,,,,,,,,136.0019210999999,0.00192109999989043,None,,166.36468409999998,166.36468409999998,166.36468409999998,166.36468409999998,166.36468409999998,166.36468409999998,166.36468409999998,166.36468409999998,166.36468409999998,166.36468409999998,006,P006,2025_Jan_25_1207,ConditionRich,2021.2.3,59.93863482558472,
136.75,140.0,41,0.0,Stimuli/Blank.png,0,0.0,0.0,0,61,61,61,,,,,,,,,,,,,136.75271429999975,0.0027142999997522566,5,1.2263638000003994,167.1153494,167.1153494,167.1153494,167.1153494,167.1153494,167.1153494,167.1153494,167.1153494,167.1153494,167.1153494,006,P006,2025_Jan_25_1207,ConditionRich,2021.2.3,59.93863482558472,
140.0,140.75,23,0.75,Stimuli/P006/things_beetle_03s.jpg,0,0.0,0.0,0,62,62,62,,,,,,,,,,,,,140.0058358999995,0.00583589999951073,None,,170.3682200000003,170.3682200000003,170.3682200000003,170.3682200000003,170.3682200000003,170.3682200000003,170.3682200000003,170.3682200000003,170.3682200000003,170.3682200000003,006,P006,2025_Jan_25_1207,ConditionRich,2021.2.3,59.93863482558472,
140.75,144.0,41,0.0,Stimuli/Blank.png,1,0.25,1.0,0,63,63,63,,,,,,,,,,,,,140.75682289999986,0.006822899999860965,5,1.222421899999972,171.11888910000016,171.11888910000016,171.11888910000016,171.11888910000016,171.11888910000016,171.11888910000016,171.35242500000004,172.10308160000022,171.11888910000016,171.11888910000016,006,P006,2025_Jan_25_1207,ConditionRich,2021.2.3,59.93863482558472,
144.0,144.75,37,0.75,Stimuli/P006/things_showerhead_03s.jpg,0,0.0,0.0,0,64,64,64,,,,,,,,,,,,,144.0096678,0.009667799999988347,None,,174.37175220000063,174.37175220000063,174.37175220000063,174.37175220000063,174.37175220000063,174.37175220000063,174.37175220000063,174.37175220000063,174.37175220000063,174.37175220000063,006,P006,2025_Jan_25_1207,ConditionRich,2021.2.3,59.93863482558472,
144.75,148.0,41,0.0,Stimuli/Blank.png,0,0.0,0.0,0,65,65,65,,,,,,,,,,,,,144.76026060000004,0.010260600000037812,5,3.218866999999591,175.12242080000033,175.12242080000033,175.12242080000033,175.12242080000033,175.12242080000033,175.12242080000033,175.12242080000033,175.12242080000033,175.12242080000033,175.12242080000033,006,P006,2025_Jan_25_1207,ConditionRich,2021.2.3,59.93863482558472,
148.0,148.75,13,0.75,Stimuli/P006/sun_bruphbrfsbxowtlq.jpg,0,0.0,0.0,0,66,66,66,,,,,,,,,,,,,148.01308040000004,0.013080400000035297,None,,178.39197930000046,178.39197930000046,178.39197930000046,178.39197930000046,178.39197930000046,178.39197930000046,178.39197930000046,178.39197930000046,178.39197930000046,178.39197930000046,006,P006,2025_Jan_25_1207,ConditionRich,2021.2.3,59.93863482558472,
148.75,152.0,41,0.0,Stimuli/Blank.png,1,1.25,2.0,0,67,67,67,,,,,,,,,,,,,148.77997659999983,0.029976599999827158,5,3.1981870999998137,179.14310269999987,179.14310269999987,179.14310269999987,179.14310269999987,179.14310269999987,179.14310269999987,180.37705020000067,181.1277125000006,179.14310269999987,179.14310269999987,006,P006,2025_Jan_25_1207,ConditionRich,2021.2.3,59.93863482558472,
152.0,152.75,1,0.75,Stimuli/P006/sun_adyhbxohydkpecty.jpg,0,0.0,0.0,0,68,68,68,,,,,,,,,,,,,152.01596530000006,0.01596530000006169,None,,182.37881629999993,182.37881629999993,182.37881629999993,182.37881629999993,182.37881629999993,182.37881629999993,182.37881629999993,182.37881629999993,182.37881629999993,182.37881629999993,006,P006,2025_Jan_25_1207,ConditionRich,2021.2.3,59.93863482558472,
152.75,156.0,41,0.0,Stimuli/Blank.png,0,0.0,0.0,0,69,69,69,,,,,,,,,,,,,152.74988239999948,-0.00011760000052163377,5,1.2284793999997419,183.1127989000006,183.1127989000006,183.1127989000006,183.1127989000006,183.1127989000006,183.1127989000006,183.1127989000006,183.1127989000006,183.1127989000006,183.1127989000006,006,P006,2025_Jan_25_1207,ConditionRich,2021.2.3,59.93863482558472,
156.0,156.75,19,0.75,Stimuli/P006/sun_czspalxthlkjwoat.jpg,0,0.0,0.0,0,70,70,70,,,,,,,,,,,,,156.00289969999994,0.00289969999994355,None,,186.38234530000045,186.38234530000045,186.38234530000045,186.38234530000045,186.38234530000045,186.38234530000045,186.38234530000045,186.38234530000045,186.38234530000045,186.38234530000045,006,P006,2025_Jan_25_1207,ConditionRich,2021.2.3,59.93863482558472,
156.75,160.0,41,0.0,Stimuli/Blank.png,0,0.0,0.0,0,71,71,71,,,,,,,,,,,,,156.77147139999943,0.021471399999427376,5,1.2084155000002283,187.13301690000026,187.13301690000026,187.13301690000026,187.13301690000026,187.13301690000026,187.13301690000026,187.13301690000026,187.13301690000026,187.13301690000026,187.13301690000026,006,P006,2025_Jan_25_1207,ConditionRich,2021.2.3,59.93863482558472,
160.0,160.75,31,0.75,Stimuli/P006/things_jukebox_03n.jpg,0,0.0,0.0,0,72,72,72,,,,,,,,,,,,,160.0070254000002,0.007025400000202353,None,,190.3692056,190.3692056,190.3692056,190.3692056,190.3692056,190.3692056,190.3692056,190.3692056,190.3692056,190.3692056,006,P006,2025_Jan_25_1207,ConditionRich,2021.2.3,59.93863482558472,
160.75,164.0,41,0.0,Stimuli/Blank.png,0,0.0,0.0,0,73,73,73,,,,,,,,,,,,,160.756985,0.00698499999998603,5,1.221681100000751,191.11985809999987,191.11985809999987,191.11985809999987,191.11985809999987,191.11985809999987,191.11985809999987,191.11985809999987,191.11985809999987,191.11985809999987,191.11985809999987,006,P006,2025_Jan_25_1207,ConditionRich,2021.2.3,59.93863482558472,
164.0,164.75,33,0.75,Stimuli/P006/things_man_03s.jpg,0,0.0,0.0,0,74,74,74,,,,,,,,,,,,,164.01007140000002,0.010071400000015274,None,,194.3727370000006,194.3727370000006,194.3727370000006,194.3727370000006,194.3727370000006,194.3727370000006,194.3727370000006,194.3727370000006,194.3727370000006,194.3727370000006,006,P006,2025_Jan_25_1207,ConditionRich,2021.2.3,59.93863482558472,
164.75,168.0,41,0.0,Stimuli/Blank.png,0,0.0,0.0,0,75,75,75,,,,,,,,,,,,,164.7610205000001,0.011020500000086031,5,3.2178526999996393,195.12339530000008,195.12339530000008,195.12339530000008,195.12339530000008,195.12339530000008,195.12339530000008,195.12339530000008,195.12339530000008,195.12339530000008,195.12339530000008,006,P006,2025_Jan_25_1207,ConditionRich,2021.2.3,59.93863482558472,
168.0,168.75,7,0.75,Stimuli/P006/sun_bdmdlkpsznknrcqi.jpg,0,0.0,0.0,0,76,76,76,,,,,,,,,,,,,168.01396289999957,0.013962899999569345,None,,198.3929573000005,198.3929573000005,198.3929573000005,198.3929573000005,198.3929573000005,198.3929573000005,198.3929573000005,198.3929573000005,198.3929573000005,198.3929573000005,006,P006,2025_Jan_25_1207,ConditionRich,2021.2.3,59.93863482558472,
168.75,172.0,41,0.0,Stimuli/Blank.png,0,0.0,0.0,0,77,77,77,,,,,,,,,,,,,168.78192130000025,0.031921300000249175,5,3.18091959999947,199.16030870000031,199.16030870000031,199.16030870000031,199.16030870000031,199.16030870000031,199.16030870000031,199.16030870000031,199.16030870000031,199.16030870000031,199.16030870000031,006,P006,2025_Jan_25_1207,ConditionRich,2021.2.3,59.93863482558472,
172.0,172.75,17,0.75,Stimuli/P006/sun_bwsictslfxygpqbp.jpg,0,0.0,0.0,0,78,78,78,,,,,,,,,,,,,172.0171338,0.017133800000010524,None,,202.3798194000001,202.3798194000001,202.3798194000001,202.3798194000001,202.3798194000001,202.3798194000001,202.3798194000001,202.3798194000001,202.3798194000001,202.3798194000001,006,P006,2025_Jan_25_1207,ConditionRich,2021.2.3,59.93863482558472,
172.75,176.0,41,0.0,Stimuli/Blank.png,1,0.25,1.0,0,79,79,79,,,,,,,,,,,,,172.75104889999966,0.0010488999996596249,5,1.2274955000002592,203.11379420000048,203.11379420000048,203.11379420000048,203.11379420000048,203.11379420000048,203.11379420000048,203.34729570000036,204.0979883,203.11379420000048,203.11379420000048,006,P006,2025_Jan_25_1207,ConditionRich,2021.2.3,59.93863482558472,
176.0,176.75,29,0.75,Stimuli/P006/things_guillotine_03s.jpg,0,0.0,0.0,0,80,80,80,,,,,,,,,,,,,176.00652619999983,0.0065261999998256215,None,,206.38332940000055,206.38332940000055,206.38332940000055,206.38332940000055,206.38332940000055,206.38332940000055,206.38332940000055,206.38332940000055,206.38332940000055,206.38332940000055,006,P006,2025_Jan_25_1207,ConditionRich,2021.2.3,59.93863482558472,
176.75,180.0,41,0.0,Stimuli/Blank.png,0,0.0,0.0,0,81,81,81,,,,,,,,,,,,,176.77140090000012,0.021400900000116962,5,1.2074388999999428,207.1339963999999,207.1339963999999,207.1339963999999,207.1339963999999,207.1339963999999,207.1339963999999,207.1339963999999,207.1339963999999,207.1339963999999,207.1339963999999,006,P006,2025_Jan_25_1207,ConditionRich,2021.2.3,59.93863482558472,
180.0,196.0,0,0.0,Stimuli/Blank.png,1,2.0,2.75,0,82,82,82,,,,,,,,,,,,,180.01048160000028,0.010481600000275648,5,15.954323199999635,210.38687370000025,210.38687370000025,210.38687370000025,210.38687370000025,210.38687370000025,210.38687370000025,212.37197920000017,213.12261000000035,210.38687370000025,210.38687370000025,006,P006,2025_Jan_25_1207,ConditionRich,2021.2.3,59.93863482558472,
196.0,196.75,22,0.75,Stimuli/P006/things_baby_03s.jpg,0,0.0,0.0,0,83,83,83,,,,,,,,,,,,,196.0218500000001,0.021850000000085856,None,,226.3843241000004,226.3843241000004,226.3843241000004,226.3843241000004,226.3843241000004,226.3843241000004,226.3843241000004,226.3843241000004,226.3843241000004,226.3843241000004,006,P006,2025_Jan_25_1207,ConditionRich,2021.2.3,59.93863482558472,
196.75,200.0,41,0.0,Stimuli/Blank.png,1,1.25,2.0,0,84,84,84,,,,,,,,,,,,,196.75636909999957,0.006369099999574246,1,1.6951159999998708,227.1183015000006,227.1183015000006,227.1183015000006,227.1183015000006,227.1183015000006,227.1183015000006,228.3527294000005,229.10337609999988,227.1183015000006,227.1183015000006,006,P006,2025_Jan_25_1207,ConditionRich,2021.2.3,59.93863482558472,
200.0,200.75,4,0.75,Stimuli/P006/sun_auwghripdoxzluuk.jpg,0,0.0,0.0,0,85,85,85,,,,,,,,,,,,,200.01095319999968,0.010953199999676144,None,,230.38785069999994,230.38785069999994,230.38785069999994,230.38785069999994,230.38785069999994,230.38785069999994,230.38785069999994,230.38785069999994,230.38785069999994,230.38785069999994,006,P006,2025_Jan_25_1207,ConditionRich,2021.2.3,59.93863482558472,
200.75,204.0,41,0.0,Stimuli/Blank.png,0,0.0,0.0,0,86,86,86,,,,,,,,,,,,,200.7770856999996,0.02708569999958854,5,3.18637630000012,231.1552115000004,231.1552115000004,231.1552115000004,231.1552115000004,231.1552115000004,231.1552115000004,231.1552115000004,231.1552115000004,231.1552115000004,231.1552115000004,006,P006,2025_Jan_25_1207,ConditionRich,2021.2.3,59.93863482558472,
204.0,204.75,31,0.75,Stimuli/P006/things_jukebox_03n.jpg,0,0.0,0.0,0,87,87,87,,,,,,,,,,,,,204.0314873999996,0.03148739999960526,None,,234.4080410000006,234.4080410000006,234.4080410000006,234.4080410000006,234.4080410000006,234.4080410000006,234.4080410000006,234.4080410000006,234.4080410000006,234.4080410000006,006,P006,2025_Jan_25_1207,ConditionRich,2021.2.3,59.93863482558472,
204.75,208.0,41,0.0,Stimuli/Blank.png,0,0.0,0.0,0,88,88,88,,,,,,,,,,,,,204.77985979999994,0.02985979999994015,5,1.1991724999998041,235.14205590000074,235.14205590000074,235.14205590000074,235.14205590000074,235.14205590000074,235.14205590000074,235.14205590000074,235.14205590000074,235.14205590000074,235.14205590000074,006,P006,2025_Jan_25_1207,ConditionRich,2021.2.3,59.93863482558472,
208.0,208.75,35,0.75,Stimuli/P006/things_pig_03s.jpg,0,0.0,0.0,0,89,89,89,,,,,,,,,,,,,208.00147879999986,0.001478799999858893,None,,238.37824450000062,238.37824450000062,238.37824450000062,238.37824450000062,238.37824450000062,238.37824450000062,238.37824450000062,238.37824450000062,238.37824450000062,238.37824450000062,006,P006,2025_Jan_25_1207,ConditionRich,2021.2.3,59.93863482558472,
208.75,212.0,41,0.0,Stimuli/Blank.png,0,0.0,0.0,0,90,90,90,,,,,,,,,,,,,208.76649050000015,0.016490500000145403,5,1.2123536999997668,239.1288938000007,239.1288938000007,239.1288938000007,239.1288938000007,239.1288938000007,239.1288938000007,239.1288938000007,239.1288938000007,239.1288938000007,239.1288938000007,006,P006,2025_Jan_25_1207,ConditionRich,2021.2.3,59.93863482558472,
212.0,212.75,26,0.75,Stimuli/P006/things_face_03s.jpg,0,0.0,0.0,0,91,91,91,,,,,,,,,,,,,212.0030160999995,0.0030160999995132443,None,,242.38177859999996,242.38177859999996,242.38177859999996,242.38177859999996,242.38177859999996,242.38177859999996,242.38177859999996,242.38177859999996,242.38177859999996,242.38177859999996,006,P006,2025_Jan_25_1207,ConditionRich,2021.2.3,59.93863482558472,
212.75,216.0,41,0.0,Stimuli/Blank.png,0,0.0,0.0,0,92,92,92,,,,,,,,,,,,,212.77088110000022,0.02088110000022425,5,1.208738799999992,243.13243520000015,243.13243520000015,243.13243520000015,243.13243520000015,243.13243520000015,243.13243520000015,243.13243520000015,243.13243520000015,243.13243520000015,243.13243520000015,006,P006,2025_Jan_25_1207,ConditionRich,2021.2.3,59.93863482558472,
216.0,216.75,2,0.75,Stimuli/P006/sun_ahmycohdkioefoxs.jpg,0,0.0,0.0,0,93,93,93,,,,,,,,,,,,,216.0056986999998,0.005698699999811652,None,,246.36861370000042,246.36861370000042,246.36861370000042,246.36861370000042,246.36861370000042,246.36861370000042,246.36861370000042,246.36861370000042,246.36861370000042,246.36861370000042,006,P006,2025_Jan_25_1207,ConditionRich,2021.2.3,59.93863482558472,
216.75,220.0,41,0.0,Stimuli/Blank.png,0,0.0,0.0,0,94,94,94,,,,,,,,,,,,,216.75671489999968,0.006714899999678892,5,1.2222179999998843,247.1192791000003,247.1192791000003,247.1192791000003,247.1192791000003,247.1192791000003,247.1192791000003,247.1192791000003,247.1192791000003,247.1192791000003,247.1192791000003,006,P006,2025_Jan_25_1207,ConditionRich,2021.2.3,59.93863482558472,
220.0,220.75,5,0.75,Stimuli/P006/sun_axaqdcecfojvpvrl.jpg,0,0.0,0.0,0,95,95,95,,,,,,,,,,,,,220.00991299999987,0.009912999999869498,None,,250.37215660000038,250.37215660000038,250.37215660000038,250.37215660000038,250.37215660000038,250.37215660000038,250.37215660000038,250.37215660000038,250.37215660000038,250.37215660000038,006,P006,2025_Jan_25_1207,ConditionRich,2021.2.3,59.93863482558472,
220.75,224.0,41,0.0,Stimuli/Blank.png,0,0.0,0.0,0,96,96,96,,,,,,,,,,,,,220.75989500000014,0.009895000000142318,5,3.218417600000066,251.1228097000003,251.1228097000003,251.1228097000003,251.1228097000003,251.1228097000003,251.1228097000003,251.1228097000003,251.1228097000003,251.1228097000003,251.1228097000003,006,P006,2025_Jan_25_1207,ConditionRich,2021.2.3,59.93863482558472,
224.0,224.75,7,0.75,Stimuli/P006/sun_bdmdlkpsznknrcqi.jpg,0,0.0,0.0,0,97,97,97,,,,,,,,,,,,,224.01535429999967,0.015354299999671639,None,,254.39234490000035,254.39234490000035,254.39234490000035,254.39234490000035,254.39234490000035,254.39234490000035,254.39234490000035,254.39234490000035,254.39234490000035,254.39234490000035,006,P006,2025_Jan_25_1207,ConditionRich,2021.2.3,59.93863482558472,
224.75,228.0,41,0.0,Stimuli/Blank.png,1,2.25,3.0,0,98,98,98,,,,,,,,,,,,,224.76395849999972,0.013958499999716878,1,2.632767399999466,255.12640100000044,255.12640100000044,255.12640100000044,255.12640100000044,255.12640100000044,255.12640100000044,257.3616455000001,258.11230570000043,255.12640100000044,255.12640100000044,006,P006,2025_Jan_25_1207,ConditionRich,2021.2.3,59.93863482558472,
228.0,228.75,19,0.75,Stimuli/P006/sun_czspalxthlkjwoat.jpg,0,0.0,0.0,0,99,99,99,,,,,,,,,,,,,228.0003053999999,0.0003053999998883228,None,,258.36254030000055,258.36254030000055,258.36254030000055,258.36254030000055,258.36254030000055,258.36254030000055,258.36254030000055,258.36254030000055,258.36254030000055,258.36254030000055,006,P006,2025_Jan_25_1207,ConditionRich,2021.2.3,59.93863482558472,
228.75,232.0,41,0.0,Stimuli/Blank.png,1,1.25,2.0,0,100,100,100,,,,,,,,,,,,,228.75110700000005,0.0011070000000472646,1,1.6450213999996777,259.11319580000054,259.11319580000054,259.11319580000054,259.11319580000054,259.11319580000054,259.11319580000054,260.34762110000065,261.09828819999984,259.11319580000054,259.11319580000054,006,P006,2025_Jan_25_1207,ConditionRich,2021.2.3,59.93863482558472,
232.0,232.75,3,0.75,Stimuli/P006/sun_asyidwmnobuawmax.jpg,0,0.0,0.0,0,101,101,101,,,,,,,,,,,,,232.00598079999963,0.005980799999633746,None,,262.3827732,262.3827732,262.3827732,262.3827732,262.3827732,262.3827732,262.3827732,262.3827732,262.3827732,262.3827732,006,P006,2025_Jan_25_1207,ConditionRich,2021.2.3,59.93863482558472,
232.75,236.0,41,0.0,Stimuli/Blank.png,0,0.0,0.0,0,102,102,102,,,,,,,,,,,,,232.77132540000002,0.021325400000023365,5,1.2081404000000475,263.13341990000026,263.13341990000026,263.13341990000026,263.13341990000026,263.13341990000026,263.13341990000026,263.13341990000026,263.13341990000026,263.13341990000026,263.13341990000026,006,P006,2025_Jan_25_1207,ConditionRich,2021.2.3,59.93863482558472,
236.0,236.75,20,0.75,Stimuli/P006/sun_dvxuxzytfdbjyzit.jpg,0,0.0,0.0,0,103,103,103,,,,,,,,,,,,,236.00723769999968,0.007237699999677716,None,,266.3862880000006,266.3862880000006,266.3862880000006,266.3862880000006,266.3862880000006,266.3862880000006,266.3862880000006,266.3862880000006,266.3862880000006,266.3862880000006,006,P006,2025_Jan_25_1207,ConditionRich,2021.2.3,59.93863482558472,
236.75,240.0,41,0.0,Stimuli/Blank.png,0,0.0,0.0,0,104,104,104,,,,,,,,,,,,,236.77412379999987,0.024123799999870243,5,3.2042653000007704,267.1369484000006,267.1369484000006,267.1369484000006,267.1369484000006,267.1369484000006,267.1369484000006,267.1369484000006,267.1369484000006,267.1369484000006,267.1369484000006,006,P006,2025_Jan_25_1207,ConditionRich,2021.2.3,59.93863482558472,
240.0,240.75,1,0.75,Stimuli/P006/sun_adyhbxohydkpecty.jpg,0,0.0,0.0,0,105,105,105,,,,,,,,,,,,,240.01084679999985,0.010846799999853829,None,,270.3731258000007,270.3731258000007,270.3731258000007,270.3731258000007,270.3731258000007,270.3731258000007,270.3731258000007,270.3731258000007,270.3731258000007,270.3731258000007,006,P006,2025_Jan_25_1207,ConditionRich,2021.2.3,59.93863482558472,
240.75,244.0,41,0.0,Stimuli/Blank.png,1,1.25,2.0,0,106,106,106,,,,,,,,,,,,,240.7608651999999,0.010865199999898323,5,3.217348899999706,271.1237692000004,271.1237692000004,271.1237692000004,271.1237692000004,271.1237692000004,271.1237692000004,272.35823489999984,273.1089171000003,271.1237692000004,271.1237692000004,006,P006,2025_Jan_25_1207,ConditionRich,2021.2.3,59.93863482558472,
244.0,244.75,27,0.75,Stimuli/P006/things_first-aid_kit_03s.jpg,0,0.0,0.0,0,107,107,107,,,,,,,,,,,,,244.01386060000004,0.013860600000043632,None,,274.3766589000006,274.3766589000006,274.3766589000006,274.3766589000006,274.3766589000006,274.3766589000006,274.3766589000006,274.3766589000006,274.3766589000006,274.3766589000006,006,P006,2025_Jan_25_1207,ConditionRich,2021.2.3,59.93863482558472,
244.75,248.0,41,0.0,Stimuli/Blank.png,0,0.0,0.0,0,108,108,108,,,,,,,,,,,,,244.7649432999997,0.014943299999686133,5,1.2139664000005723,275.1273282000002,275.1273282000002,275.1273282000002,275.1273282000002,275.1273282000002,275.1273282000002,275.1273282000002,275.1273282000002,275.1273282000002,275.1273282000002,006,P006,2025_Jan_25_1207,ConditionRich,2021.2.3,59.93863482558472,
248.0,248.75,33,0.75,Stimuli/P006/things_man_03s.jpg,0,0.0,0.0,0,109,109,109,,,,,,,,,,,,,248.00148040000022,0.0014804000002186513,None,,278.3802185000004,278.3802185000004,278.3802185000004,278.3802185000004,278.3802185000004,278.3802185000004,278.3802185000004,278.3802185000004,278.3802185000004,278.3802185000004,006,P006,2025_Jan_25_1207,ConditionRich,2021.2.3,59.93863482558472,
248.75,252.0,41,0.0,Stimuli/Blank.png,0,0.0,0.0,0,110,110,110,,,,,,,,,,,,,248.77023459999964,0.020234599999639613,5,3.193565999999919,279.14757330000066,279.14757330000066,279.14757330000066,279.14757330000066,279.14757330000066,279.14757330000066,279.14757330000066,279.14757330000066,279.14757330000066,279.14757330000066,006,P006,2025_Jan_25_1207,ConditionRich,2021.2.3,59.93863482558472,
252.0,252.75,10,0.75,Stimuli/P006/sun_bgnxbfhmwhliypvg.jpg,0,0.0,0.0,0,111,111,111,,,,,,,,,,,,,252.02086489999965,0.020864899999651243,None,,282.38376530000005,282.38376530000005,282.38376530000005,282.38376530000005,282.38376530000005,282.38376530000005,282.38376530000005,282.38376530000005,282.38376530000005,282.38376530000005,006,P006,2025_Jan_25_1207,ConditionRich,2021.2.3,59.93863482558472,
252.75,256.0,41,0.0,Stimuli/Blank.png,0,0.0,0.0,0,112,112,112,,,,,,,,,,,,,252.75474570000006,0.004745700000057695,5,1.223504800000228,283.11772030000066,283.11772030000066,283.11772030000066,283.11772030000066,283.11772030000066,283.11772030000066,283.11772030000066,283.11772030000066,283.11772030000066,283.11772030000066,006,P006,2025_Jan_25_1207,ConditionRich,2021.2.3,59.93863482558472,
256.0,256.75,12,0.75,Stimuli/P006/sun_bodyuiqwqpqzwfoz.jpg,0,0.0,0.0,0,113,113,113,,,,,,,,,,,,,256.00813019999987,0.008130199999868637,None,,286.3705841000001,286.3705841000001,286.3705841000001,286.3705841000001,286.3705841000001,286.3705841000001,286.3705841000001,286.3705841000001,286.3705841000001,286.3705841000001,006,P006,2025_Jan_25_1207,ConditionRich,2021.2.3,59.93863482558472,
256.75,260.0,41,0.0,Stimuli/Blank.png,0,0.0,0.0,0,114,114,114,,,,,,,,,,,,,256.7590685999994,0.009068599999409344,5,3.220042700000704,287.12124159999985,287.12124159999985,287.12124159999985,287.12124159999985,287.12124159999985,287.12124159999985,287.12124159999985,287.12124159999985,287.12124159999985,287.12124159999985,006,P006,2025_Jan_25_1207,ConditionRich,2021.2.3,59.93863482558472,
260.0,260.75,15,0.75,Stimuli/P006/sun_btkzuhaxqlacvmsv.jpg,0,0.0,0.0,0,115,115,115,,,,,,,,,,,,,260.01144190000014,0.01144190000013623,None,,290.3907979000005,290.3907979000005,290.3907979000005,290.3907979000005,290.3907979000005,290.3907979000005,290.3907979000005,290.3907979000005,290.3907979000005,290.3907979000005,006,P006,2025_Jan_25_1207,ConditionRich,2021.2.3,59.93863482558472,
260.75,264.0,41,0.0,Stimuli/Blank.png,0,0.0,0.0,0,116,116,116,,,,,,,,,,,,,260.7788677999997,0.028867799999716226,5,3.1997364999997444,291.14145800000006,291.14145800000006,291.14145800000006,291.14145800000006,291.14145800000006,291.14145800000006,291.14145800000006,291.14145800000006,291.14145800000006,291.14145800000006,006,P006,2025_Jan_25_1207,ConditionRich,2021.2.3,59.93863482558472,
264.0,264.75,38,0.75,Stimuli/P006/things_sledgehammer_03s.jpg,0,0.0,0.0,0,117,117,117,,,,,,,,,,,,,264.01597500000025,0.015975000000253203,None,,294.3943244000002,294.3943244000002,294.3943244000002,294.3943244000002,294.3943244000002,294.3943244000002,294.3943244000002,294.3943244000002,294.3943244000002,294.3943244000002,006,P006,2025_Jan_25_1207,ConditionRich,2021.2.3,59.93863482558472,
264.75,268.0,41,0.0,Stimuli/Blank.png,0,0.0,0.0,0,118,118,118,,,,,,,,,,,,,264.76602660000026,0.01602660000025935,5,1.2129846999996516,295.12831259999984,295.12831259999984,295.12831259999984,295.12831259999984,295.12831259999984,295.12831259999984,295.12831259999984,295.12831259999984,295.12831259999984,295.12831259999984,006,P006,2025_Jan_25_1207,ConditionRich,2021.2.3,59.93863482558472,
268.0,268.75,30,0.75,Stimuli/P006/things_hood_03s.jpg,0,0.0,0.0,0,119,119,119,,,,,,,,,,,,,268.00255990000005,0.0025599000000511296,None,,298.3811903000005,298.3811903000005,298.3811903000005,298.3811903000005,298.3811903000005,298.3811903000005,298.3811903000005,298.3811903000005,298.3811903000005,298.3811903000005,006,P006,2025_Jan_25_1207,ConditionRich,2021.2.3,59.93863482558472,
268.75,272.0,41,0.0,Stimuli/Blank.png,0,0.0,0.0,0,120,120,120,,,,,,,,,,,,,268.7698789999995,0.019878999999491498,5,1.2093089999998483,299.13184980000005,299.13184980000005,299.13184980000005,299.13184980000005,299.13184980000005,299.13184980000005,299.13184980000005,299.13184980000005,299.13184980000005,299.13184980000005,006,P006,2025_Jan_25_1207,ConditionRich,2021.2.3,59.93863482558472,
272.0,272.75,16,0.75,Stimuli/P006/sun_bwentnobehmvaxkp.jpg,0,0.0,0.0,0,121,121,121,,,,,,,,,,,,,272.0062951,0.006295099999988452,None,,302.3847347000001,302.3847347000001,302.3847347000001,302.3847347000001,302.3847347000001,302.3847347000001,302.3847347000001,302.3847347000001,302.3847347000001,302.3847347000001,006,P006,2025_Jan_25_1207,ConditionRich,2021.2.3,59.93863482558472,
272.75,276.0,41,0.0,Stimuli/Blank.png,1,0.25,1.0,0,122,122,122,,,,,,,,,,,,,272.7731899999999,0.023189999999885913,5,1.2058059000000867,303.1353945999999,303.1353945999999,303.1353945999999,303.1353945999999,303.1353945999999,303.1353945999999,303.36891150000065,304.11962010000025,303.1353945999999,303.1353945999999,006,P006,2025_Jan_25_1207,ConditionRich,2021.2.3,59.93863482558472,
276.0,292.0,0,0.0,Stimuli/Blank.png,1,13.0,13.75,0,123,123,123,,,,,,,,,,,,,276.0090074,0.009007399999973131,5,13.969670299999962,306.3716291999999,306.3716291999999,306.3716291999999,306.3716291999999,306.3716291999999,306.3716291999999,319.3496883000007,320.10033920000023,306.3716291999999,306.3716291999999,006,P006,2025_Jan_25_1207,ConditionRich,2021.2.3,59.93863482558472,
292.0,292.75,37,0.75,Stimuli/P006/things_showerhead_03s.jpg,0,0.0,0.0,0,124,124,124,,,,,,,,,,,,,292.0070052000001,0.007005200000094192,None,,322.3690157000001,322.3690157000001,322.3690157000001,322.3690157000001,322.3690157000001,322.3690157000001,322.3690157000001,322.3690157000001,322.3690157000001,322.3690157000001,006,P006,2025_Jan_25_1207,ConditionRich,2021.2.3,59.93863482558472,
292.75,296.0,41,0.0,Stimuli/Blank.png,0,0.0,0.0,0,125,125,125,,,,,,,,,,,,,292.7568470999995,0.00684709999950428,5,1.2217430999999124,323.11968160000015,323.11968160000015,323.11968160000015,323.11968160000015,323.11968160000015,323.11968160000015,323.11968160000015,323.11968160000015,323.11968160000015,323.11968160000015,006,P006,2025_Jan_25_1207,ConditionRich,2021.2.3,59.93863482558472,
296.0,296.75,6,0.75,Stimuli/P006/sun_bbzkhzmxdjrfjpjz.jpg,0,0.0,0.0,0,126,126,126,,,,,,,,,,,,,296.01002139999946,0.01002139999945939,None,,326.3725553000004,326.3725553000004,326.3725553000004,326.3725553000004,326.3725553000004,326.3725553000004,326.3725553000004,326.3725553000004,326.3725553000004,326.3725553000004,006,P006,2025_Jan_25_1207,ConditionRich,2021.2.3,59.93863482558472,
296.75,300.0,41,0.0,Stimuli/Blank.png,0,0.0,0.0,0,127,127,127,,,,,,,,,,,,,296.7608842999998,0.010884299999815994,5,3.2179089999999633,327.1232108000004,327.1232108000004,327.1232108000004,327.1232108000004,327.1232108000004,327.1232108000004,327.1232108000004,327.1232108000004,327.1232108000004,327.1232108000004,006,P006,2025_Jan_25_1207,ConditionRich,2021.2.3,59.93863482558472,
300.0,300.75,39,0.75,Stimuli/P006/things_train_set_03s.jpg,0,0.0,0.0,0,128,128,128,,,,,,,,,,,,,300.0153088999996,0.015308899999581627,None,,330.39276340000015,330.39276340000015,330.39276340000015,330.39276340000015,330.39276340000015,330.39276340000015,330.39276340000015,330.39276340000015,330.39276340000015,330.39276340000015,006,P006,2025_Jan_25_1207,ConditionRich,2021.2.3,59.93863482558472,
300.75,304.0,41,0.0,Stimuli/Blank.png,1,2.25,3.0,0,129,129,129,,,,,,,,,,,,,300.76625689999946,0.016256899999461893,5,3.197784899999533,331.14342900000065,331.14342900000065,331.14342900000065,331.14342900000065,331.14342900000065,331.14342900000065,333.3787779000004,334.12943580000046,331.14342900000065,331.14342900000065,006,P006,2025_Jan_25_1207,ConditionRich,2021.2.3,59.93863482558472,
304.0,304.75,25,0.75,Stimuli/P006/things_dog_03s.jpg,0,0.0,0.0,0,130,130,130,,,,,,,,,,,,,304.0176467000001,0.017646700000113924,None,,334.39630450000004,334.39630450000004,334.39630450000004,334.39630450000004,334.39630450000004,334.39630450000004,334.39630450000004,334.39630450000004,334.39630450000004,334.39630450000004,006,P006,2025_Jan_25_1207,ConditionRich,2021.2.3,59.93863482558472,
304.75,308.0,41,0.0,Stimuli/Blank.png,0,0.0,0.0,0,131,131,131,,,,,,,,,,,,,304.7701634999994,0.020163499999398482,5,3.194519599999694,335.1469668,335.1469668,335.1469668,335.1469668,335.1469668,335.1469668,335.1469668,335.1469668,335.1469668,335.1469668,006,P006,2025_Jan_25_1207,ConditionRich,2021.2.3,59.93863482558472,
308.0,308.75,24,0.75,Stimuli/P006/things_crab_03s.jpg,0,0.0,0.0,0,132,132,132,,,,,,,,,,,,,308.02186379999966,0.02186379999966448,None,,338.3998257000003,338.3998257000003,338.3998257000003,338.3998257000003,338.3998257000003,338.3998257000003,338.3998257000003,338.3998257000003,338.3998257000003,338.3998257000003,006,P006,2025_Jan_25_1207,ConditionRich,2021.2.3,59.93863482558472,
308.75,312.0,41,0.0,Stimuli/Blank.png,1,1.25,2.0,0,133,133,133,,,,,,,,,,,,,308.77165289999994,0.02165289999993547,1,1.7693793000007645,339.1338110000006,339.1338110000006,339.1338110000006,339.1338110000006,339.1338110000006,339.1338110000006,340.36823379999987,341.1189348000007,339.1338110000006,339.1338110000006,006,P006,2025_Jan_25_1207,ConditionRich,2021.2.3,59.93863482558472,
312.0,312.75,14,0.75,Stimuli/P006/sun_bsirencncgxteejx.jpg,0,0.0,0.0,0,134,134,134,,,,,,,,,,,,,312.00811429999976,0.008114299999760988,None,,342.37036200000057,342.37036200000057,342.37036200000057,342.37036200000057,342.37036200000057,342.37036200000057,342.37036200000057,342.37036200000057,342.37036200000057,342.37036200000057,006,P006,2025_Jan_25_1207,ConditionRich,2021.2.3,59.93863482558472,
312.75,316.0,41,0.0,Stimuli/Blank.png,0,0.0,0.0,0,135,135,135,,,,,,,,,,,,,312.7587330999995,0.008733099999517435,5,3.2205243999997037,343.12067060000027,343.12067060000027,343.12067060000027,343.12067060000027,343.12067060000027,343.12067060000027,343.12067060000027,343.12067060000027,343.12067060000027,343.12067060000027,006,P006,2025_Jan_25_1207,ConditionRich,2021.2.3,59.93863482558472,
316.0,316.75,21,0.75,Stimuli/P006/things_accordion_03s.jpg,0,0.0,0.0,0,136,136,136,,,,,,,,,,,,,316.01147219999984,0.011472199999843724,None,,346.39018900000065,346.39018900000065,346.39018900000065,346.39018900000065,346.39018900000065,346.39018900000065,346.39018900000065,346.39018900000065,346.39018900000065,346.39018900000065,006,P006,2025_Jan_25_1207,ConditionRich,2021.2.3,59.93863482558472,
316.75,320.0,41,0.0,Stimuli/Blank.png,0,0.0,0.0,0,137,137,137,,,,,,,,,,,,,316.7802418000001,0.030241800000112562,5,3.183639900000344,347.1575588000005,347.1575588000005,347.1575588000005,347.1575588000005,347.1575588000005,347.1575588000005,347.1575588000005,347.1575588000005,347.1575588000005,347.1575588000005,006,P006,2025_Jan_25_1207,ConditionRich,2021.2.3,59.93863482558472,
320.0,320.75,8,0.75,Stimuli/P006/sun_bekkgqphzbclwpvb.jpg,0,0.0,0.0,0,138,138,138,,,,,,,,,,,,,320.0149470999995,0.014947099999517377,None,,350.3937689000004,350.3937689000004,350.3937689000004,350.3937689000004,350.3937689000004,350.3937689000004,350.3937689000004,350.3937689000004,350.3937689000004,350.3937689000004,006,P006,2025_Jan_25_1207,ConditionRich,2021.2.3,59.93863482558472,
320.75,324.0,41,0.0,Stimuli/Blank.png,0,0.0,0.0,0,139,139,139,,,,,,,,,,,,,320.7818447999998,0.03184479999981704,5,1.1968004000000292,351.1444097000003,351.1444097000003,351.1444097000003,351.1444097000003,351.1444097000003,351.1444097000003,351.1444097000003,351.1444097000003,351.1444097000003,351.1444097000003,006,P006,2025_Jan_25_1207,ConditionRich,2021.2.3,59.93863482558472,
324.0,324.75,34,0.75,Stimuli/P006/things_patty_03s.jpg,0,0.0,0.0,0,140,140,140,,,,,,,,,,,,,324.0014298999995,0.0014298999994935002,None,,354.3806112000002,354.3806112000002,354.3806112000002,354.3806112000002,354.3806112000002,354.3806112000002,354.3806112000002,354.3806112000002,354.3806112000002,354.3806112000002,006,P006,2025_Jan_25_1207,ConditionRich,2021.2.3,59.93863482558472,
324.75,328.0,41,0.0,Stimuli/Blank.png,0,0.0,0.0,0,141,141,141,,,,,,,,,,,,,324.77117929999986,0.021179299999857903,5,3.1946705000000293,355.14794729999994,355.14794729999994,355.14794729999994,355.14794729999994,355.14794729999994,355.14794729999994,355.14794729999994,355.14794729999994,355.14794729999994,355.14794729999994,006,P006,2025_Jan_25_1207,ConditionRich,2021.2.3,59.93863482558472,
328.0,328.75,29,0.75,Stimuli/P006/things_guillotine_03s.jpg,0,0.0,0.0,0,142,142,142,,,,,,,,,,,,,328.02153180000005,0.02153180000004795,None,,358.3841374000003,358.3841374000003,358.3841374000003,358.3841374000003,358.3841374000003,358.3841374000003,358.3841374000003,358.3841374000003,358.3841374000003,358.3841374000003,006,P006,2025_Jan_25_1207,ConditionRich,2021.2.3,59.93863482558472,
328.75,332.0,41,0.0,Stimuli/Blank.png,0,0.0,0.0,0,143,143,143,,,,,,,,,,,,,328.75605989999985,0.006059899999854679,5,1.2240117000001192,359.11812629999986,359.11812629999986,359.11812629999986,359.11812629999986,359.11812629999986,359.11812629999986,359.11812629999986,359.11812629999986,359.11812629999986,359.11812629999986,006,P006,2025_Jan_25_1207,ConditionRich,2021.2.3,59.93863482558472,
332.0,332.75,32,0.75,Stimuli/P006/things_jumpsuit_03s.jpg,0,0.0,0.0,0,144,144,144,,,,,,,,,,,,,332.01036680000016,0.010366800000156218,None,,362.3876753000004,362.3876753000004,362.3876753000004,362.3876753000004,362.3876753000004,362.3876753000004,362.3876753000004,362.3876753000004,362.3876753000004,362.3876753000004,006,P006,2025_Jan_25_1207,ConditionRich,2021.2.3,59.93863482558472,
332.75,336.0,41,0.0,Stimuli/Blank.png,0,0.0,0.0,0,145,145,145,,,,,,,,,,,,,332.77665479999996,0.026654799999960233,5,3.2038665000000037,363.1383313000006,363.1383313000006,363.1383313000006,363.1383313000006,363.1383313000006,363.1383313000006,363.1383313000006,363.1383313000006,363.1383313000006,363.1383313000006,006,P006,2025_Jan_25_1207,ConditionRich,2021.2.3,59.93863482558472,
336.0,336.75,11,0.75,Stimuli/P006/sun_bjoocjyyhsmsbprr.jpg,0,0.0,0.0,0,146,146,146,,,,,,,,,,,,,336.01187800000025,0.011878000000251632,None,,366.3912098999999,366.3912098999999,366.3912098999999,366.3912098999999,366.3912098999999,366.3912098999999,366.3912098999999,366.3912098999999,366.3912098999999,366.3912098999999,006,P006,2025_Jan_25_1207,ConditionRich,2021.2.3,59.93863482558472,
336.75,340.0,41,0.0,Stimuli/Blank.png,0,0.0,0.0,0,147,147,147,,,,,,,,,,,,,336.78022919999967,0.03022919999966689,5,1.2002287000004799,367.1418667000007,367.1418667000007,367.1418667000007,367.1418667000007,367.1418667000007,367.1418667000007,367.1418667000007,367.1418667000007,367.1418667000007,367.1418667000007,006,P006,2025_Jan_25_1207,ConditionRich,2021.2.3,59.93863482558472,
340.0,340.75,13,0.75,Stimuli/P006/sun_bruphbrfsbxowtlq.jpg,1,0.0,0.75,0,148,148,148,,,,,,,,,,,,,339.9997529000002,-0.00024709999979677377,1,0.44009790000018256,370.3780443000005,370.3780443000005,370.3780443000005,370.3780443000005,370.3780443000005,370.3780443000005,370.3780443000005,371.09535250000044,370.3780443000005,370.3780443000005,006,P006,2025_Jan_25_1207,ConditionRich,2021.2.3,59.93863482558472,
340.75,344.0,41,0.0,Stimuli/Blank.png,0,0.0,0.0,0,149,149,149,,,,,,,,,,,,,340.7663898999999,0.01638989999992191,5,1.213473700000577,371.1287222000001,371.1287222000001,371.1287222000001,371.1287222000001,371.1287222000001,371.1287222000001,371.1287222000001,371.1287222000001,371.1287222000001,371.1287222000001,006,P006,2025_Jan_25_1207,ConditionRich,2021.2.3,59.93863482558472,
344.0,344.75,9,0.75,Stimuli/P006/sun_bfcmdrojsffdttzu.jpg,0,0.0,0.0,0,150,150,150,,,,,,,,,,,,,344.00220160000026,0.0022016000002622604,None,,374.3815955,374.3815955,374.3815955,374.3815955,374.3815955,374.3815955,374.3815955,374.3815955,374.3815955,374.3815955,006,P006,2025_Jan_25_1207,ConditionRich,2021.2.3,59.93863482558472,
344.75,348.0,41,0.0,Stimuli/Blank.png,0,0.0,0.0,0,151,151,151,,,,,,,,,,,,,344.7699299999995,0.019929999999476422,5,1.2100162000006094,375.13224059999993,375.13224059999993,375.13224059999993,375.13224059999993,375.13224059999993,375.13224059999993,375.13224059999993,375.13224059999993,375.13224059999993,375.13224059999993,006,P006,2025_Jan_25_1207,ConditionRich,2021.2.3,59.93863482558472,
348.0,348.75,36,0.75,Stimuli/P006/things_pony_03s.jpg,0,0.0,0.0,0,152,152,152,,,,,,,,,,,,,348.00592849999975,0.005928499999754422,None,,378.36843410000074,378.36843410000074,378.36843410000074,378.36843410000074,378.36843410000074,378.36843410000074,378.36843410000074,378.36843410000074,378.36843410000074,378.36843410000074,006,P006,2025_Jan_25_1207,ConditionRich,2021.2.3,59.93863482558472,
348.75,352.0,41,0.0,Stimuli/Blank.png,0,0.0,0.0,0,153,153,153,,,,,,,,,,,,,348.7563755000001,0.006375500000103784,5,1.2232665000001361,379.11909490000016,379.11909490000016,379.11909490000016,379.11909490000016,379.11909490000016,379.11909490000016,379.11909490000016,379.11909490000016,379.11909490000016,379.11909490000016,006,P006,2025_Jan_25_1207,ConditionRich,2021.2.3,59.93863482558472,
352.0,352.75,17,0.75,Stimuli/P006/sun_bwsictslfxygpqbp.jpg,0,0.0,0.0,0,154,154,154,,,,,,,,,,,,,352.0098941999995,0.009894199999507691,None,,382.3886618000006,382.3886618000006,382.3886618000006,382.3886618000006,382.3886618000006,382.3886618000006,382.3886618000006,382.3886618000006,382.3886618000006,382.3886618000006,006,P006,2025_Jan_25_1207,ConditionRich,2021.2.3,59.93863482558472,
352.75,356.0,41,0.0,Stimuli/Blank.png,0,0.0,0.0,0,155,155,155,,,,,,,,,,,,,352.7771745,0.02717450000000099,5,3.202820299999985,383.1393123000007,383.1393123000007,383.1393123000007,383.1393123000007,383.1393123000007,383.1393123000007,383.1393123000007,383.1393123000007,383.1393123000007,383.1393123000007,006,P006,2025_Jan_25_1207,ConditionRich,2021.2.3,59.93863482558472,
356.0,356.75,40,0.75,Stimuli/P006/things_woman_03s.jpg,0,0.0,0.0,0,156,156,156,,,,,,,,,,,,,356.0156374999997,0.015637499999684223,None,,386.39218729999993,386.39218729999993,386.39218729999993,386.39218729999993,386.39218729999993,386.39218729999993,386.39218729999993,386.39218729999993,386.39218729999993,386.39218729999993,006,P006,2025_Jan_25_1207,ConditionRich,2021.2.3,59.93863482558472,
356.75,360.0,41,0.0,Stimuli/Blank.png,0,0.0,0.0,0,157,157,157,,,,,,,,,,,,,356.76548249999996,0.015482499999961874,5,3.1992079999999987,387.1428450000003,387.1428450000003,387.1428450000003,387.1428450000003,387.1428450000003,387.1428450000003,387.1428450000003,387.1428450000003,387.1428450000003,387.1428450000003,006,P006,2025_Jan_25_1207,ConditionRich,2021.2.3,59.93863482558472,
360.0,360.75,23,0.75,Stimuli/P006/things_beetle_03s.jpg,0,0.0,0.0,0,158,158,158,,,,,,,,,,,,,360.0167620000002,0.016762000000198896,None,,390.37902290000056,390.37902290000056,390.37902290000056,390.37902290000056,390.37902290000056,390.37902290000056,390.37902290000056,390.37902290000056,390.37902290000056,390.37902290000056,006,P006,2025_Jan_25_1207,ConditionRich,2021.2.3,59.93863482558472,
360.75,364.0,41,0.0,Stimuli/Blank.png,0,0.0,0.0,0,159,159,159,,,,,,,,,,,,,360.7508622999994,0.0008622999994258862,5,1.229130400000031,391.1130097000005,391.1130097000005,391.1130097000005,391.1130097000005,391.1130097000005,391.1130097000005,391.1130097000005,391.1130097000005,391.1130097000005,391.1130097000005,006,P006,2025_Jan_25_1207,ConditionRich,2021.2.3,59.93863482558472,
364.0,364.75,18,0.75,Stimuli/P006/sun_bzqhpcsgzswozfhs.jpg,1,0.0,0.75,0,160,160,160,,,,,,,,,,,,,364.00626939999984,0.006269399999837333,1,0.4525227999993149,394.38256739999997,394.38256739999997,394.38256739999997,394.38256739999997,394.38256739999997,394.38256739999997,394.38256739999997,395.1165393000001,394.38256739999997,394.38256739999997,006,P006,2025_Jan_25_1207,ConditionRich,2021.2.3,59.93863482558472,
364.75,368.0,41,0.0,Stimuli/Blank.png,0,0.0,0.0,0,161,161,161,,,,,,,,,,,,,364.77114579999943,0.021145799999430892,5,1.2088356000003841,395.13322849999986,395.13322849999986,395.13322849999986,395.13322849999986,395.13322849999986,395.13322849999986,395.13322849999986,395.13322849999986,395.13322849999986,395.13322849999986,006,P006,2025_Jan_25_1207,ConditionRich,2021.2.3,59.93863482558472,
368.0,368.75,28,0.75,Stimuli/P006/things_girl_03s.jpg,1,0.0,0.75,0,162,162,162,,,,,,,,,,,,,368.0075262999999,0.007526299999881303,1,0.593116099999861,398.3861053999999,398.3861053999999,398.3861053999999,398.3861053999999,398.3861053999999,398.3861053999999,398.3861053999999,399.1033932,398.3861053999999,398.3861053999999,006,P006,2025_Jan_25_1207,ConditionRich,2021.2.3,59.93863482558472,
368.75,372.0,41,0.0,Stimuli/Blank.png,0,0.0,0.0,0,163,163,163,,,,,,,,,,,,,368.7749001000002,0.02490010000019538,5,1.2052873000002364,399.1367635000006,399.1367635000006,399.1367635000006,399.1367635000006,399.1367635000006,399.1367635000006,399.1367635000006,399.1367635000006,399.1367635000006,399.1367635000006,006,P006,2025_Jan_25_1207,ConditionRich,2021.2.3,59.93863482558472,
372.0,388.0,0,0.0,Stimuli/Blank.png,1,1.0,1.75,0,164,164,164,,,,,,,,,,,,,372.00998059999984,0.009980599999835249,5,13.968035500000042,402.3739970000006,402.3739970000006,402.3739970000006,402.3739970000006,402.3739970000006,402.3739970000006,403.35714030000054,404.1078099000006,402.3739970000006,402.3739970000006,006,P006,2025_Jan_25_1207,ConditionRich,2021.2.3,59.93863482558472,
