eventStartTime,eventEndTime,eventCond,imSize,imFile,responseEvent,fixRespStart,fixRespEnd,Events.thisRepN,Events.thisTrialN,Events.thisN,Events.thisIndex,Instructions.started,Instructions.stopped,participantReadyResponse.keys,participantReadyResponse.rt,participantReadyResponse.started,participantReadyResponse.stopped,startWaitforTrigger,triggerResponse.keys,triggerResponse.rt,triggerResponse.started,triggerResponse.stopped,globalTimer,actualStartTime,startTimingDiff,participantResponse.keys,participantResponse.rt,participantResponse.started,participantResponse.stopped,image.started,image.stopped,fixationOutside.started,fixationOutside.stopped,fixationResponse.started,fixationResponse.stopped,fixationInside.started,fixationInside.stopped,session,participant,date,expName,psychopyVersion,frameRate,
,,,,,,,,,,,,11.211294399999133,None,1,6.667184399999314,11.211294399999133,None,,,,,,,,,,,,,,,,,,,,,008,P006,2025_Jan_25_1228,ConditionRich,2021.2.3,59.930157394627365,
,,,,,,,,,,,,,,,,,,17.891301499999827,5,15.280639200000223,17.90387329999976,None,,,,,,,,,,,,,,,,008,P006,2025_Jan_25_1228,ConditionRich,2021.2.3,59.930157394627365,
0.0,4.0,0,0.0,Stimuli/Blank.png,0,0,0.0,0,0,0,0,,,,,,,,,,,,33.18736499999977,0.05154069999935018,0.05154069999935018,5,1.9338173999994979,33.25071399999979,None,33.25071399999979,None,33.25071399999979,None,33.25071399999979,33.25071399999979,33.25071399999979,None,008,P006,2025_Jan_25_1228,ConditionRich,2021.2.3,59.930157394627365,
4.0,4.75,39,0.75,Stimuli/P006/things_train_set_03s.jpg,0,0,0.0,0,1,1,1,,,,,,,,,,,,,4.004675199999838,0.004675199999837787,None,,37.22103639999932,37.22103639999932,37.22103639999932,37.22103639999932,37.22103639999932,37.22103639999932,37.22103639999932,37.22103639999932,37.22103639999932,37.22103639999932,008,P006,2025_Jan_25_1228,ConditionRich,2021.2.3,59.930157394627365,
4.75,5.0,41,0.0,Stimuli/Blank.png,0,0,0.0,0,2,2,2,,,,,,,,,,,,,4.771831199999724,0.02183119999972405,None,,37.98849789999986,37.98849789999986,37.98849789999986,37.98849789999986,37.98849789999986,37.98849789999986,37.98849789999986,37.98849789999986,37.98849789999986,37.98849789999986,008,P006,2025_Jan_25_1228,ConditionRich,2021.2.3,59.930157394627365,
5.0,5.75,39,0.75,Stimuli/P006/things_train_set_03s.jpg,0,0,0.0,0,3,3,3,,,,,,,,,,,,,5.020182100000056,0.02018210000005638,None,,38.22176489999947,38.22176489999947,38.22176489999947,38.22176489999947,38.22176489999947,38.22176489999947,38.22176489999947,38.22176489999947,38.22176489999947,38.22176489999947,008,P006,2025_Jan_25_1228,ConditionRich,2021.2.3,59.930157394627365,
5.75,6.0,41,0.0,Stimuli/Blank.png,0,0,0.0,0,4,4,4,,,,,,,,,,,,,5.756705099999635,0.006705099999635422,5,0.211930399999801,38.97243939999953,38.97243939999953,38.97243939999953,38.97243939999953,38.97243939999953,38.97243939999953,38.97243939999953,38.97243939999953,38.97243939999953,38.97243939999953,008,P006,2025_Jan_25_1228,ConditionRich,2021.2.3,59.930157394627365,
6.0,6.75,39,0.75,Stimuli/P006/things_train_set_03s.jpg,0,0,0.0,0,5,5,5,,,,,,,,,,,,,6.021082100000058,0.021082100000057835,None,,39.22264889999951,39.22264889999951,39.22264889999951,39.22264889999951,39.22264889999951,39.22264889999951,39.22264889999951,39.22264889999951,39.22264889999951,39.22264889999951,008,P006,2025_Jan_25_1228,ConditionRich,2021.2.3,59.930157394627365,
6.75,7.0,41,0.0,Stimuli/Blank.png,0,0,0.0,0,6,6,6,,,,,,,,,,,,,6.757009599999947,0.0070095999999466585,None,,39.97331639999993,39.97331639999993,39.97331639999993,39.97331639999993,39.97331639999993,39.97331639999993,39.97331639999993,39.97331639999993,39.97331639999993,39.97331639999993,008,P006,2025_Jan_25_1228,ConditionRich,2021.2.3,59.930157394627365,
7.0,7.75,39,0.75,Stimuli/P006/things_train_set_03s.jpg,0,0,0.0,0,7,7,7,,,,,,,,,,,,,7.02289490000021,0.022894900000210328,None,,40.240206899999976,40.240206899999976,40.240206899999976,40.240206899999976,40.240206899999976,40.240206899999976,40.240206899999976,40.240206899999976,40.240206899999976,40.240206899999976,008,P006,2025_Jan_25_1228,ConditionRich,2021.2.3,59.930157394627365,
7.75,8.0,41,0.0,Stimuli/Blank.png,0,0,0.0,0,8,8,8,,,,,,,,,,,,,7.77245049999965,0.022450499999649765,None,,40.97421089999989,40.97421089999989,40.97421089999989,40.97421089999989,40.97421089999989,40.97421089999989,40.97421089999989,40.97421089999989,40.97421089999989,40.97421089999989,008,P006,2025_Jan_25_1228,ConditionRich,2021.2.3,59.930157394627365,
8.0,8.75,4,0.75,Stimuli/P006/sun_auwghripdoxzluuk.jpg,0,0,0.0,0,9,9,9,,,,,,,,,,,,,8.007293699999536,0.007293699999536329,None,,41.2244355999992,41.2244355999992,41.2244355999992,41.2244355999992,41.2244355999992,41.2244355999992,41.2244355999992,41.2244355999992,41.2244355999992,41.2244355999992,008,P006,2025_Jan_25_1228,ConditionRich,2021.2.3,59.930157394627365,
8.75,9.0,41,0.0,Stimuli/Blank.png,0,0,0.0,0,10,10,10,,,,,,,,,,,,,8.77373499999976,0.023734999999760475,None,,41.97514709999996,41.97514709999996,41.97514709999996,41.97514709999996,41.97514709999996,41.97514709999996,41.97514709999996,41.97514709999996,41.97514709999996,41.97514709999996,008,P006,2025_Jan_25_1228,ConditionRich,2021.2.3,59.930157394627365,
9.0,9.75,4,0.75,Stimuli/P006/sun_auwghripdoxzluuk.jpg,0,0,0.0,0,11,11,11,,,,,,,,,,,,,9.007575199999337,0.007575199999337201,None,,42.22532349999983,42.22532349999983,42.22532349999983,42.22532349999983,42.22532349999983,42.22532349999983,42.22532349999983,42.22532349999983,42.22532349999983,42.22532349999983,008,P006,2025_Jan_25_1228,ConditionRich,2021.2.3,59.930157394627365,
9.75,10.0,41,0.0,Stimuli/Blank.png,0,0,0.0,0,12,12,12,,,,,,,,,,,,,9.7768774999995,0.026877499999500287,5,0.1918034999998781,42.992648599999484,42.992648599999484,42.992648599999484,42.992648599999484,42.992648599999484,42.992648599999484,42.992648599999484,42.992648599999484,42.992648599999484,42.992648599999484,008,P006,2025_Jan_25_1228,ConditionRich,2021.2.3,59.930157394627365,
10.0,10.75,4,0.75,Stimuli/P006/sun_auwghripdoxzluuk.jpg,0,0,0.0,0,13,13,13,,,,,,,,,,,,,10.024320800000169,0.024320800000168674,None,,43.226181899999574,43.226181899999574,43.226181899999574,43.226181899999574,43.226181899999574,43.226181899999574,43.226181899999574,43.226181899999574,43.226181899999574,43.226181899999574,008,P006,2025_Jan_25_1228,ConditionRich,2021.2.3,59.930157394627365,
10.75,11.0,41,0.0,Stimuli/Blank.png,0,0,0.0,0,14,14,14,,,,,,,,,,,,,10.759069900000213,0.009069900000213238,None,,43.96017539999957,43.96017539999957,43.96017539999957,43.96017539999957,43.96017539999957,43.96017539999957,43.96017539999957,43.96017539999957,43.96017539999957,43.96017539999957,008,P006,2025_Jan_25_1228,ConditionRich,2021.2.3,59.930157394627365,
11.0,11.75,4,0.75,Stimuli/P006/sun_auwghripdoxzluuk.jpg,0,0,0.0,0,15,15,15,,,,,,,,,,,,,11.008622499999547,0.008622499999546562,None,,44.22707769999943,44.22707769999943,44.22707769999943,44.22707769999943,44.22707769999943,44.22707769999943,44.22707769999943,44.22707769999943,44.22707769999943,44.22707769999943,008,P006,2025_Jan_25_1228,ConditionRich,2021.2.3,59.930157394627365,
11.75,12.0,41,0.0,Stimuli/Blank.png,0,0,0.0,0,16,16,16,,,,,,,,,,,,,11.777125499999784,0.027125499999783642,5,0.19027049999931478,44.9944289999994,44.9944289999994,44.9944289999994,44.9944289999994,44.9944289999994,44.9944289999994,44.9944289999994,44.9944289999994,44.9944289999994,44.9944289999994,008,P006,2025_Jan_25_1228,ConditionRich,2021.2.3,59.930157394627365,
12.0,12.75,7,0.75,Stimuli/P006/sun_bdmdlkpsznknrcqi.jpg,0,0,0.0,0,17,17,17,,,,,,,,,,,,,12.025977799999964,0.02597779999996419,None,,45.22794839999915,45.22794839999915,45.22794839999915,45.22794839999915,45.22794839999915,45.22794839999915,45.22794839999915,45.22794839999915,45.22794839999915,45.22794839999915,008,P006,2025_Jan_25_1228,ConditionRich,2021.2.3,59.930157394627365,
12.75,13.0,41,0.0,Stimuli/Blank.png,0,0,0.0,0,18,18,18,,,,,,,,,,,,,12.76239329999953,0.012393299999530427,None,,45.97861509999984,45.97861509999984,45.97861509999984,45.97861509999984,45.97861509999984,45.97861509999984,45.97861509999984,45.97861509999984,45.97861509999984,45.97861509999984,008,P006,2025_Jan_25_1228,ConditionRich,2021.2.3,59.930157394627365,
13.0,13.75,7,0.75,Stimuli/P006/sun_bdmdlkpsznknrcqi.jpg,0,0,0.0,0,19,19,19,,,,,,,,,,,,,13.027700199999344,0.027700199999344477,None,,46.228836899999806,46.228836899999806,46.228836899999806,46.228836899999806,46.228836899999806,46.228836899999806,46.228836899999806,46.228836899999806,46.228836899999806,46.228836899999806,008,P006,2025_Jan_25_1228,ConditionRich,2021.2.3,59.930157394627365,
13.75,14.0,41,0.0,Stimuli/Blank.png,0,0,0.0,0,20,20,20,,,,,,,,,,,,,13.762193399999887,0.012193399999887333,5,0.20525689999976748,46.97951019999982,46.97951019999982,46.97951019999982,46.97951019999982,46.97951019999982,46.97951019999982,46.97951019999982,46.97951019999982,46.97951019999982,46.97951019999982,008,P006,2025_Jan_25_1228,ConditionRich,2021.2.3,59.930157394627365,
14.0,14.75,7,0.75,Stimuli/P006/sun_bdmdlkpsznknrcqi.jpg,0,0,0.0,0,21,21,21,,,,,,,,,,,,,14.027865999999449,0.02786599999944883,None,,47.22972269999991,47.22972269999991,47.22972269999991,47.22972269999991,47.22972269999991,47.22972269999991,47.22972269999991,47.22972269999991,47.22972269999991,47.22972269999991,008,P006,2025_Jan_25_1228,ConditionRich,2021.2.3,59.930157394627365,
14.75,15.0,41,0.0,Stimuli/Blank.png,0,0,0.0,0,22,22,22,,,,,,,,,,,,,14.762648899999476,0.01264889999947627,None,,47.98039989999961,47.98039989999961,47.98039989999961,47.98039989999961,47.98039989999961,47.98039989999961,47.98039989999961,47.98039989999961,47.98039989999961,47.98039989999961,008,P006,2025_Jan_25_1228,ConditionRich,2021.2.3,59.930157394627365,
15.0,15.75,7,0.75,Stimuli/P006/sun_bdmdlkpsznknrcqi.jpg,0,0,0.0,0,23,23,23,,,,,,,,,,,,,15.029938199999378,0.029938199999378412,None,,48.24730009999985,48.24730009999985,48.24730009999985,48.24730009999985,48.24730009999985,48.24730009999985,48.24730009999985,48.24730009999985,48.24730009999985,48.24730009999985,008,P006,2025_Jan_25_1228,ConditionRich,2021.2.3,59.930157394627365,
15.75,16.0,41,0.0,Stimuli/Blank.png,0,0,0.0,0,24,24,24,,,,,,,,,,,,,15.781401899999764,0.03140189999976428,5,0.1865444999993997,48.997949399999925,48.997949399999925,48.997949399999925,48.997949399999925,48.997949399999925,48.997949399999925,48.997949399999925,48.997949399999925,48.997949399999925,48.997949399999925,008,P006,2025_Jan_25_1228,ConditionRich,2021.2.3,59.930157394627365,
16.0,16.75,18,0.75,Stimuli/P006/sun_bzqhpcsgzswozfhs.jpg,0,0,0.0,0,25,25,25,,,,,,,,,,,,,16.031893899999886,0.031893899999886344,None,,49.24816639999972,49.24816639999972,49.24816639999972,49.24816639999972,49.24816639999972,49.24816639999972,49.24816639999972,49.24816639999972,49.24816639999972,49.24816639999972,008,P006,2025_Jan_25_1228,ConditionRich,2021.2.3,59.930157394627365,
16.75,17.0,41,0.0,Stimuli/Blank.png,0,0,0.0,0,26,26,26,,,,,,,,,,,,,16.766768800000136,0.016768800000136252,None,,49.982224499999575,49.982224499999575,49.982224499999575,49.982224499999575,49.982224499999575,49.982224499999575,49.982224499999575,49.982224499999575,49.982224499999575,49.982224499999575,008,P006,2025_Jan_25_1228,ConditionRich,2021.2.3,59.930157394627365,
17.0,17.75,18,0.75,Stimuli/P006/sun_bzqhpcsgzswozfhs.jpg,0,0,0.0,0,27,27,27,,,,,,,,,,,,,17.014105899999777,0.014105899999776739,None,,50.215726799999175,50.215726799999175,50.215726799999175,50.215726799999175,50.215726799999175,50.215726799999175,50.215726799999175,50.215726799999175,50.215726799999175,50.215726799999175,008,P006,2025_Jan_25_1228,ConditionRich,2021.2.3,59.930157394627365,
17.75,18.0,41,0.0,Stimuli/Blank.png,0,0,0.0,0,28,28,28,,,,,,,,,,,,,17.76706379999996,0.017063799999959883,5,0.20135620000019117,50.98303769999984,50.98303769999984,50.98303769999984,50.98303769999984,50.98303769999984,50.98303769999984,50.98303769999984,50.98303769999984,50.98303769999984,50.98303769999984,008,P006,2025_Jan_25_1228,ConditionRich,2021.2.3,59.930157394627365,
18.0,18.75,18,0.75,Stimuli/P006/sun_bzqhpcsgzswozfhs.jpg,0,0,0.0,0,29,29,29,,,,,,,,,,,,,18.015336999999818,0.015336999999817635,None,,51.21656679999978,51.21656679999978,51.21656679999978,51.21656679999978,51.21656679999978,51.21656679999978,51.21656679999978,51.21656679999978,51.21656679999978,51.21656679999978,008,P006,2025_Jan_25_1228,ConditionRich,2021.2.3,59.930157394627365,
18.75,19.0,41,0.0,Stimuli/Blank.png,0,0,0.0,0,30,30,30,,,,,,,,,,,,,18.749115399999937,-0.0008846000000630738,None,,51.95054839999921,51.95054839999921,51.95054839999921,51.95054839999921,51.95054839999921,51.95054839999921,51.95054839999921,51.95054839999921,51.95054839999921,51.95054839999921,008,P006,2025_Jan_25_1228,ConditionRich,2021.2.3,59.930157394627365,
19.0,19.75,18,0.75,Stimuli/P006/sun_bzqhpcsgzswozfhs.jpg,1,0,0.75,0,31,31,31,,,,,,,,,,,,,19.00137739999991,0.001377399999910267,1,0.6552028000005521,52.21746559999974,52.21746559999974,52.21746559999974,52.21746559999974,52.21746559999974,52.21746559999974,52.21746559999974,52.951424799999586,52.21746559999974,52.21746559999974,008,P006,2025_Jan_25_1228,ConditionRich,2021.2.3,59.930157394627365,
19.75,20.0,41,0.0,Stimuli/Blank.png,0,0,0.0,0,32,32,32,,,,,,,,,,,,,19.766329199999745,0.01632919999974547,None,,52.96813909999946,52.96813909999946,52.96813909999946,52.96813909999946,52.96813909999946,52.96813909999946,52.96813909999946,52.96813909999946,52.96813909999946,52.96813909999946,008,P006,2025_Jan_25_1228,ConditionRich,2021.2.3,59.930157394627365,
20.0,20.75,23,0.75,Stimuli/P006/things_beetle_03s.jpg,1,0,0.75,0,33,33,33,,,,,,,,,,,,,20.002640900000188,0.0026409000001876848,1,0.5580789999994522,53.2183344999994,53.2183344999994,53.2183344999994,53.2183344999994,53.2183344999994,53.2183344999994,53.2183344999994,53.952316599999904,53.2183344999994,53.2183344999994,008,P006,2025_Jan_25_1228,ConditionRich,2021.2.3,59.930157394627365,
20.75,21.0,41,0.0,Stimuli/Blank.png,0,0,0.0,0,34,34,34,,,,,,,,,,,,,20.767636999999922,0.01763699999992241,None,,53.96900699999969,53.96900699999969,53.96900699999969,53.96900699999969,53.96900699999969,53.96900699999969,53.96900699999969,53.96900699999969,53.96900699999969,53.96900699999969,008,P006,2025_Jan_25_1228,ConditionRich,2021.2.3,59.930157394627365,
21.0,21.75,23,0.75,Stimuli/P006/things_beetle_03s.jpg,0,0,0.0,0,35,35,35,,,,,,,,,,,,,21.001045899999554,0.0010458999995535123,None,,54.2025408999998,54.2025408999998,54.2025408999998,54.2025408999998,54.2025408999998,54.2025408999998,54.2025408999998,54.2025408999998,54.2025408999998,54.2025408999998,008,P006,2025_Jan_25_1228,ConditionRich,2021.2.3,59.930157394627365,
21.75,22.0,41,0.0,Stimuli/Blank.png,0,0,0.0,0,36,36,36,,,,,,,,,,,,,21.75243689999934,0.002436899999338493,None,,54.95320730000003,54.95320730000003,54.95320730000003,54.95320730000003,54.95320730000003,54.95320730000003,54.95320730000003,54.95320730000003,54.95320730000003,54.95320730000003,008,P006,2025_Jan_25_1228,ConditionRich,2021.2.3,59.930157394627365,
22.0,22.75,23,0.75,Stimuli/P006/things_beetle_03s.jpg,0,0,0.0,0,37,37,37,,,,,,,,,,,,,22.00234790000013,0.002347900000131631,None,,55.220099299999674,55.220099299999674,55.220099299999674,55.220099299999674,55.220099299999674,55.220099299999674,55.220099299999674,55.220099299999674,55.220099299999674,55.220099299999674,008,P006,2025_Jan_25_1228,ConditionRich,2021.2.3,59.930157394627365,
22.75,23.0,41,0.0,Stimuli/Blank.png,0,0,0.0,0,38,38,38,,,,,,,,,,,,,22.770209899999827,0.02020989999982703,None,,55.97078359999978,55.97078359999978,55.97078359999978,55.97078359999978,55.97078359999978,55.97078359999978,55.97078359999978,55.97078359999978,55.97078359999978,55.97078359999978,008,P006,2025_Jan_25_1228,ConditionRich,2021.2.3,59.930157394627365,
23.0,23.75,23,0.75,Stimuli/P006/things_beetle_03s.jpg,0,0,0.0,0,39,39,39,,,,,,,,,,,,,23.003087799999776,0.003087799999775598,None,,56.204303999999865,56.204303999999865,56.204303999999865,56.204303999999865,56.204303999999865,56.204303999999865,56.204303999999865,56.204303999999865,56.204303999999865,56.204303999999865,008,P006,2025_Jan_25_1228,ConditionRich,2021.2.3,59.930157394627365,
23.75,24.0,41,0.0,Stimuli/Blank.png,0,0,0.0,0,40,40,40,,,,,,,,,,,,,23.753225399999792,0.003225399999791989,None,,56.95496599999933,56.95496599999933,56.95496599999933,56.95496599999933,56.95496599999933,56.95496599999933,56.95496599999933,56.95496599999933,56.95496599999933,56.95496599999933,008,P006,2025_Jan_25_1228,ConditionRich,2021.2.3,59.930157394627365,
24.0,24.75,1,0.75,Stimuli/P006/sun_adyhbxohydkpecty.jpg,0,0,0.0,0,41,41,41,,,,,,,,,,,,,24.00401899999997,0.004018999999971129,None,,57.22186429999965,57.22186429999965,57.22186429999965,57.22186429999965,57.22186429999965,57.22186429999965,57.22186429999965,57.22186429999965,57.22186429999965,57.22186429999965,008,P006,2025_Jan_25_1228,ConditionRich,2021.2.3,59.930157394627365,
24.75,25.0,41,0.0,Stimuli/Blank.png,0,0,0.0,0,42,42,42,,,,,,,,,,,,,24.771426899999824,0.021426899999823945,None,,57.972534199999245,57.972534199999245,57.972534199999245,57.972534199999245,57.972534199999245,57.972534199999245,57.972534199999245,57.972534199999245,57.972534199999245,57.972534199999245,008,P006,2025_Jan_25_1228,ConditionRich,2021.2.3,59.930157394627365,
25.0,25.75,1,0.75,Stimuli/P006/sun_adyhbxohydkpecty.jpg,0,0,0.0,0,43,43,43,,,,,,,,,,,,,25.00696169999992,0.0069616999999198015,None,,58.22276029999921,58.22276029999921,58.22276029999921,58.22276029999921,58.22276029999921,58.22276029999921,58.22276029999921,58.22276029999921,58.22276029999921,58.22276029999921,008,P006,2025_Jan_25_1228,ConditionRich,2021.2.3,59.930157394627365,
25.75,26.0,41,0.0,Stimuli/Blank.png,0,0,0.0,0,44,44,44,,,,,,,,,,,,,25.77196989999993,0.02196989999993093,None,,58.97341519999918,58.97341519999918,58.97341519999918,58.97341519999918,58.97341519999918,58.97341519999918,58.97341519999918,58.97341519999918,58.97341519999918,58.97341519999918,008,P006,2025_Jan_25_1228,ConditionRich,2021.2.3,59.930157394627365,
26.0,26.75,1,0.75,Stimuli/P006/sun_adyhbxohydkpecty.jpg,0,0,0.0,0,45,45,45,,,,,,,,,,,,,26.007394700000077,0.007394700000077137,None,,59.22363509999923,59.22363509999923,59.22363509999923,59.22363509999923,59.22363509999923,59.22363509999923,59.22363509999923,59.22363509999923,59.22363509999923,59.22363509999923,008,P006,2025_Jan_25_1228,ConditionRich,2021.2.3,59.930157394627365,
26.75,27.0,41,0.0,Stimuli/Blank.png,0,0,0.0,0,46,46,46,,,,,,,,,,,,,26.772414899999603,0.02241489999960322,None,,59.974297799999476,59.974297799999476,59.974297799999476,59.974297799999476,59.974297799999476,59.974297799999476,59.974297799999476,59.974297799999476,59.974297799999476,59.974297799999476,008,P006,2025_Jan_25_1228,ConditionRich,2021.2.3,59.930157394627365,
27.0,27.75,1,0.75,Stimuli/P006/sun_adyhbxohydkpecty.jpg,0,0,0.0,0,47,47,47,,,,,,,,,,,,,27.006720499999574,0.0067204999995738035,None,,60.20784789999925,60.20784789999925,60.20784789999925,60.20784789999925,60.20784789999925,60.20784789999925,60.20784789999925,60.20784789999925,60.20784789999925,60.20784789999925,008,P006,2025_Jan_25_1228,ConditionRich,2021.2.3,59.930157394627365,
27.75,28.0,41,0.0,Stimuli/Blank.png,0,0,0.0,0,48,48,48,,,,,,,,,,,,,27.757368399999905,0.0073683999999047955,5,0.20922060000066267,60.97520489999988,60.97520489999988,60.97520489999988,60.97520489999988,60.97520489999988,60.97520489999988,60.97520489999988,60.97520489999988,60.97520489999988,60.97520489999988,008,P006,2025_Jan_25_1228,ConditionRich,2021.2.3,59.930157394627365,
28.0,28.75,29,0.75,Stimuli/P006/things_guillotine_03s.jpg,0,0,0.0,0,49,49,49,,,,,,,,,,,,,28.023723499999505,0.023723499999505293,None,,61.24210309999944,61.24210309999944,61.24210309999944,61.24210309999944,61.24210309999944,61.24210309999944,61.24210309999944,61.24210309999944,61.24210309999944,61.24210309999944,008,P006,2025_Jan_25_1228,ConditionRich,2021.2.3,59.930157394627365,
28.75,29.0,41,0.0,Stimuli/Blank.png,0,0,0.0,0,50,50,50,,,,,,,,,,,,,28.776365099999566,0.026365099999566155,None,,61.99277159999929,61.99277159999929,61.99277159999929,61.99277159999929,61.99277159999929,61.99277159999929,61.99277159999929,61.99277159999929,61.99277159999929,61.99277159999929,008,P006,2025_Jan_25_1228,ConditionRich,2021.2.3,59.930157394627365,
29.0,29.75,29,0.75,Stimuli/P006/things_guillotine_03s.jpg,0,0,0.0,0,51,51,51,,,,,,,,,,,,,29.026662700000088,0.02666270000008808,None,,62.242966999999226,62.242966999999226,62.242966999999226,62.242966999999226,62.242966999999226,62.242966999999226,62.242966999999226,62.242966999999226,62.242966999999226,62.242966999999226,008,P006,2025_Jan_25_1228,ConditionRich,2021.2.3,59.930157394627365,
29.75,30.0,41,0.0,Stimuli/Blank.png,0,0,0.0,0,52,52,52,,,,,,,,,,,,,29.777646399999867,0.027646399999866844,5,0.19178499999998166,62.99364269999933,62.99364269999933,62.99364269999933,62.99364269999933,62.99364269999933,62.99364269999933,62.99364269999933,62.99364269999933,62.99364269999933,62.99364269999933,008,P006,2025_Jan_25_1228,ConditionRich,2021.2.3,59.930157394627365,
30.0,30.75,29,0.75,Stimuli/P006/things_guillotine_03s.jpg,0,0,0.0,0,53,53,53,,,,,,,,,,,,,30.02610099999947,0.02610099999947124,None,,63.22716709999986,63.22716709999986,63.22716709999986,63.22716709999986,63.22716709999986,63.22716709999986,63.22716709999986,63.22716709999986,63.22716709999986,63.22716709999986,008,P006,2025_Jan_25_1228,ConditionRich,2021.2.3,59.930157394627365,
30.75,31.0,41,0.0,Stimuli/Blank.png,0,0,0.0,0,54,54,54,,,,,,,,,,,,,30.76011819999985,0.01011819999985164,None,,63.961218699999336,63.961218699999336,63.961218699999336,63.961218699999336,63.961218699999336,63.961218699999336,63.961218699999336,63.961218699999336,63.961218699999336,63.961218699999336,008,P006,2025_Jan_25_1228,ConditionRich,2021.2.3,59.930157394627365,
31.0,31.75,29,0.75,Stimuli/P006/things_guillotine_03s.jpg,0,0,0.0,0,55,55,55,,,,,,,,,,,,,31.01235209999959,0.012352099999588972,None,,64.22805399999925,64.22805399999925,64.22805399999925,64.22805399999925,64.22805399999925,64.22805399999925,64.22805399999925,64.22805399999925,64.22805399999925,64.22805399999925,008,P006,2025_Jan_25_1228,ConditionRich,2021.2.3,59.930157394627365,
31.75,32.0,41,0.0,Stimuli/Blank.png,0,0,0.0,0,56,56,56,,,,,,,,,,,,,31.777887299999747,0.027887299999747484,None,,64.97880459999942,64.97880459999942,64.97880459999942,64.97880459999942,64.97880459999942,64.97880459999942,64.97880459999942,64.97880459999942,64.97880459999942,64.97880459999942,008,P006,2025_Jan_25_1228,ConditionRich,2021.2.3,59.930157394627365,
32.0,32.75,9,0.75,Stimuli/P006/sun_bfcmdrojsffdttzu.jpg,0,0,0.0,0,57,57,57,,,,,,,,,,,,,32.010782199999994,0.010782199999994191,None,,65.21225419999973,65.21225419999973,65.21225419999973,65.21225419999973,65.21225419999973,65.21225419999973,65.21225419999973,65.21225419999973,65.21225419999973,65.21225419999973,008,P006,2025_Jan_25_1228,ConditionRich,2021.2.3,59.930157394627365,
32.75,33.0,41,0.0,Stimuli/Blank.png,0,0,0.0,0,58,58,58,,,,,,,,,,,,,32.76150559999951,0.011505599999509286,None,,65.9629189999996,65.9629189999996,65.9629189999996,65.9629189999996,65.9629189999996,65.9629189999996,65.9629189999996,65.9629189999996,65.9629189999996,65.9629189999996,008,P006,2025_Jan_25_1228,ConditionRich,2021.2.3,59.930157394627365,
33.0,33.75,9,0.75,Stimuli/P006/sun_bfcmdrojsffdttzu.jpg,0,0,0.0,0,59,59,59,,,,,,,,,,,,,33.01198419999946,0.011984199999460543,None,,66.21313939999982,66.21313939999982,66.21313939999982,66.21313939999982,66.21313939999982,66.21313939999982,66.21313939999982,66.21313939999982,66.21313939999982,66.21313939999982,008,P006,2025_Jan_25_1228,ConditionRich,2021.2.3,59.930157394627365,
33.75,34.0,41,0.0,Stimuli/Blank.png,0,0,0.0,0,60,60,60,,,,,,,,,,,,,33.7620109999998,0.012010999999802152,None,,66.96380769999996,66.96380769999996,66.96380769999996,66.96380769999996,66.96380769999996,66.96380769999996,66.96380769999996,66.96380769999996,66.96380769999996,66.96380769999996,008,P006,2025_Jan_25_1228,ConditionRich,2021.2.3,59.930157394627365,
34.0,34.75,9,0.75,Stimuli/P006/sun_bfcmdrojsffdttzu.jpg,0,0,0.0,0,61,61,61,,,,,,,,,,,,,34.01224749999983,0.012247499999830325,None,,67.21405909999976,67.21405909999976,67.21405909999976,67.21405909999976,67.21405909999976,67.21405909999976,67.21405909999976,67.21405909999976,67.21405909999976,67.21405909999976,008,P006,2025_Jan_25_1228,ConditionRich,2021.2.3,59.930157394627365,
34.75,35.0,41,0.0,Stimuli/Blank.png,0,0,0.0,0,62,62,62,,,,,,,,,,,,,34.76324199999999,0.013241999999991094,None,,67.96469539999998,67.96469539999998,67.96469539999998,67.96469539999998,67.96469539999998,67.96469539999998,67.96469539999998,67.96469539999998,67.96469539999998,67.96469539999998,008,P006,2025_Jan_25_1228,ConditionRich,2021.2.3,59.930157394627365,
35.0,35.75,9,0.75,Stimuli/P006/sun_bfcmdrojsffdttzu.jpg,0,0,0.0,0,63,63,63,,,,,,,,,,,,,35.013820099999975,0.013820099999975355,None,,68.23171339999953,68.23171339999953,68.23171339999953,68.23171339999953,68.23171339999953,68.23171339999953,68.23171339999953,68.23171339999953,68.23171339999953,68.23171339999953,008,P006,2025_Jan_25_1228,ConditionRich,2021.2.3,59.930157394627365,
35.75,36.0,41,0.0,Stimuli/Blank.png,0,0,0.0,0,64,64,64,,,,,,,,,,,,,35.78054139999949,0.03054139999949257,None,,68.98225349999939,68.98225349999939,68.98225349999939,68.98225349999939,68.98225349999939,68.98225349999939,68.98225349999939,68.98225349999939,68.98225349999939,68.98225349999939,008,P006,2025_Jan_25_1228,ConditionRich,2021.2.3,59.930157394627365,
36.0,36.75,6,0.75,Stimuli/P006/sun_bbzkhzmxdjrfjpjz.jpg,0,0,0.0,0,65,65,65,,,,,,,,,,,,,36.01376919999984,0.013769199999842385,None,,69.21578769999996,69.21578769999996,69.21578769999996,69.21578769999996,69.21578769999996,69.21578769999996,69.21578769999996,69.21578769999996,69.21578769999996,69.21578769999996,008,P006,2025_Jan_25_1228,ConditionRich,2021.2.3,59.930157394627365,
36.75,37.0,41,0.0,Stimuli/Blank.png,0,0,0.0,0,66,66,66,,,,,,,,,,,,,36.7668821999996,0.016882199999599834,None,,69.98313449999932,69.98313449999932,69.98313449999932,69.98313449999932,69.98313449999932,69.98313449999932,69.98313449999932,69.98313449999932,69.98313449999932,69.98313449999932,008,P006,2025_Jan_25_1228,ConditionRich,2021.2.3,59.930157394627365,
37.0,37.75,6,0.75,Stimuli/P006/sun_bbzkhzmxdjrfjpjz.jpg,0,0,0.0,0,67,67,67,,,,,,,,,,,,,37.0152122999998,0.01521229999980278,None,,70.21665089999988,70.21665089999988,70.21665089999988,70.21665089999988,70.21665089999988,70.21665089999988,70.21665089999988,70.21665089999988,70.21665089999988,70.21665089999988,008,P006,2025_Jan_25_1228,ConditionRich,2021.2.3,59.930157394627365,
37.75,38.0,41,0.0,Stimuli/Blank.png,0,0,0.0,0,68,68,68,,,,,,,,,,,,,37.74982269999964,-0.00017730000035953708,None,,70.9506653999997,70.9506653999997,70.9506653999997,70.9506653999997,70.9506653999997,70.9506653999997,70.9506653999997,70.9506653999997,70.9506653999997,70.9506653999997,008,P006,2025_Jan_25_1228,ConditionRich,2021.2.3,59.930157394627365,
38.0,38.75,6,0.75,Stimuli/P006/sun_bbzkhzmxdjrfjpjz.jpg,0,0,0.0,0,69,69,69,,,,,,,,,,,,,38.00019559999964,0.00019559999964258168,None,,71.21755499999927,71.21755499999927,71.21755499999927,71.21755499999927,71.21755499999927,71.21755499999927,71.21755499999927,71.21755499999927,71.21755499999927,71.21755499999927,008,P006,2025_Jan_25_1228,ConditionRich,2021.2.3,59.930157394627365,
38.75,39.0,41,0.0,Stimuli/Blank.png,0,0,0.0,0,70,70,70,,,,,,,,,,,,,38.76706789999935,0.01706789999934699,None,,71.98491719999947,71.98491719999947,71.98491719999947,71.98491719999947,71.98491719999947,71.98491719999947,71.98491719999947,71.98491719999947,71.98491719999947,71.98491719999947,008,P006,2025_Jan_25_1228,ConditionRich,2021.2.3,59.930157394627365,
39.0,39.75,6,0.75,Stimuli/P006/sun_bbzkhzmxdjrfjpjz.jpg,0,0,0.0,0,71,71,71,,,,,,,,,,,,,39.01738169999953,0.01738169999953243,None,,72.23513469999943,72.23513469999943,72.23513469999943,72.23513469999943,72.23513469999943,72.23513469999943,72.23513469999943,72.23513469999943,72.23513469999943,72.23513469999943,008,P006,2025_Jan_25_1228,ConditionRich,2021.2.3,59.930157394627365,
39.75,40.0,41,0.0,Stimuli/Blank.png,0,0,0.0,0,72,72,72,,,,,,,,,,,,,39.767405799999324,0.01740579999932379,None,,72.96909939999932,72.96909939999932,72.96909939999932,72.96909939999932,72.96909939999932,72.96909939999932,72.96909939999932,72.96909939999932,72.96909939999932,72.96909939999932,008,P006,2025_Jan_25_1228,ConditionRich,2021.2.3,59.930157394627365,
40.0,40.75,33,0.75,Stimuli/P006/things_man_03s.jpg,0,0,0.0,0,73,73,73,,,,,,,,,,,,,40.001350999999886,0.0013509999998859712,None,,73.21931539999969,73.21931539999969,73.21931539999969,73.21931539999969,73.21931539999969,73.21931539999969,73.21931539999969,73.21931539999969,73.21931539999969,73.21931539999969,008,P006,2025_Jan_25_1228,ConditionRich,2021.2.3,59.930157394627365,
40.75,41.0,41,0.0,Stimuli/Blank.png,0,0,0.0,0,74,74,74,,,,,,,,,,,,,40.768719199999396,0.01871919999939564,None,,73.97004649999963,73.97004649999963,73.97004649999963,73.97004649999963,73.97004649999963,73.97004649999963,73.97004649999963,73.97004649999963,73.97004649999963,73.97004649999963,008,P006,2025_Jan_25_1228,ConditionRich,2021.2.3,59.930157394627365,
41.0,41.75,33,0.75,Stimuli/P006/things_man_03s.jpg,0,0,0.0,0,75,75,75,,,,,,,,,,,,,41.002068699999654,0.0020686999996542,None,,74.20352179999918,74.20352179999918,74.20352179999918,74.20352179999918,74.20352179999918,74.20352179999918,74.20352179999918,74.20352179999918,74.20352179999918,74.20352179999918,008,P006,2025_Jan_25_1228,ConditionRich,2021.2.3,59.930157394627365,
41.75,42.0,41,0.0,Stimuli/Blank.png,0,0,0.0,0,76,76,76,,,,,,,,,,,,,41.75307299999986,0.003072999999858439,None,,74.95419029999994,74.95419029999994,74.95419029999994,74.95419029999994,74.95419029999994,74.95419029999994,74.95419029999994,74.95419029999994,74.95419029999994,74.95419029999994,008,P006,2025_Jan_25_1228,ConditionRich,2021.2.3,59.930157394627365,
42.0,42.75,33,0.75,Stimuli/P006/things_man_03s.jpg,0,0,0.0,0,77,77,77,,,,,,,,,,,,,42.002542000000176,0.0025420000001759036,None,,75.20440609999969,75.20440609999969,75.20440609999969,75.20440609999969,75.20440609999969,75.20440609999969,75.20440609999969,75.20440609999969,75.20440609999969,75.20440609999969,008,P006,2025_Jan_25_1228,ConditionRich,2021.2.3,59.930157394627365,
42.75,43.0,41,0.0,Stimuli/Blank.png,0,0,0.0,0,78,78,78,,,,,,,,,,,,,42.75349920000008,0.0034992000000784174,None,,75.95514459999958,75.95514459999958,75.95514459999958,75.95514459999958,75.95514459999958,75.95514459999958,75.95514459999958,75.95514459999958,75.95514459999958,75.95514459999958,008,P006,2025_Jan_25_1228,ConditionRich,2021.2.3,59.930157394627365,
43.0,43.75,33,0.75,Stimuli/P006/things_man_03s.jpg,0,0,0.0,0,79,79,79,,,,,,,,,,,,,43.003817899999376,0.0038178999993760954,None,,76.22197949999918,76.22197949999918,76.22197949999918,76.22197949999918,76.22197949999918,76.22197949999918,76.22197949999918,76.22197949999918,76.22197949999918,76.22197949999918,008,P006,2025_Jan_25_1228,ConditionRich,2021.2.3,59.930157394627365,
43.75,44.0,41,0.0,Stimuli/Blank.png,0,0,0.0,0,80,80,80,,,,,,,,,,,,,43.772119600000224,0.022119600000223727,5,0.1962096000006568,76.98933079999915,76.98933079999915,76.98933079999915,76.98933079999915,76.98933079999915,76.98933079999915,76.98933079999915,76.98933079999915,76.98933079999915,76.98933079999915,008,P006,2025_Jan_25_1228,ConditionRich,2021.2.3,59.930157394627365,
44.0,44.75,17,0.75,Stimuli/P006/sun_bwsictslfxygpqbp.jpg,0,0,0.0,0,81,81,81,,,,,,,,,,,,,44.020955899999535,0.020955899999535177,None,,77.22285519999969,77.22285519999969,77.22285519999969,77.22285519999969,77.22285519999969,77.22285519999969,77.22285519999969,77.22285519999969,77.22285519999969,77.22285519999969,008,P006,2025_Jan_25_1228,ConditionRich,2021.2.3,59.930157394627365,
44.75,45.0,41,0.0,Stimuli/Blank.png,0,0,0.0,0,82,82,82,,,,,,,,,,,,,44.75692869999966,0.006928699999662058,None,,77.97352179999962,77.97352179999962,77.97352179999962,77.97352179999962,77.97352179999962,77.97352179999962,77.97352179999962,77.97352179999962,77.97352179999962,77.97352179999962,008,P006,2025_Jan_25_1228,ConditionRich,2021.2.3,59.930157394627365,
45.0,45.75,17,0.75,Stimuli/P006/sun_bwsictslfxygpqbp.jpg,1,0,0.75,0,83,83,83,,,,,,,,,,,,,45.022260599999754,0.02226059999975405,None,,78.22373869999956,78.22373869999956,78.22373869999956,78.22373869999956,78.22373869999956,78.22373869999956,78.22373869999956,None,78.22373869999956,78.22373869999956,008,P006,2025_Jan_25_1228,ConditionRich,2021.2.3,59.930157394627365,
45.75,46.0,41,0.0,Stimuli/Blank.png,0,0,0.0,0,84,84,84,,,,,,,,,,,,,45.75728699999945,0.007286999999450927,None,,78.95772839999972,78.95772839999972,78.95772839999972,78.95772839999972,78.95772839999972,78.95772839999972,78.95772839999972,78.95772839999972,78.95772839999972,78.95772839999972,008,P006,2025_Jan_25_1228,ConditionRich,2021.2.3,59.930157394627365,
46.0,46.75,17,0.75,Stimuli/P006/sun_bwsictslfxygpqbp.jpg,0,0,0.0,0,85,85,85,,,,,,,,,,,,,46.00722929999938,0.007229299999380601,None,,79.22463569999945,79.22463569999945,79.22463569999945,79.22463569999945,79.22463569999945,79.22463569999945,79.22463569999945,79.22463569999945,79.22463569999945,79.22463569999945,008,P006,2025_Jan_25_1228,ConditionRich,2021.2.3,59.930157394627365,
46.75,47.0,41,0.0,Stimuli/Blank.png,0,0,0.0,0,86,86,86,,,,,,,,,,,,,46.773529699999926,0.02352969999992638,None,,79.9752940999997,79.9752940999997,79.9752940999997,79.9752940999997,79.9752940999997,79.9752940999997,79.9752940999997,79.9752940999997,79.9752940999997,79.9752940999997,008,P006,2025_Jan_25_1228,ConditionRich,2021.2.3,59.930157394627365,
47.0,47.75,17,0.75,Stimuli/P006/sun_bwsictslfxygpqbp.jpg,0,0,0.0,0,87,87,87,,,,,,,,,,,,,47.006930499999726,0.0069304999997257255,None,,80.20883249999952,80.20883249999952,80.20883249999952,80.20883249999952,80.20883249999952,80.20883249999952,80.20883249999952,80.20883249999952,80.20883249999952,80.20883249999952,008,P006,2025_Jan_25_1228,ConditionRich,2021.2.3,59.930157394627365,
47.75,48.0,41,0.0,Stimuli/Blank.png,0,0,0.0,0,88,88,88,,,,,,,,,,,,,47.758129499999995,0.00812949999999546,None,,80.95949179999934,80.95949179999934,80.95949179999934,80.95949179999934,80.95949179999934,80.95949179999934,80.95949179999934,80.95949179999934,80.95949179999934,80.95949179999934,008,P006,2025_Jan_25_1228,ConditionRich,2021.2.3,59.930157394627365,
48.0,48.75,15,0.75,Stimuli/P006/sun_btkzuhaxqlacvmsv.jpg,0,0,0.0,0,89,89,89,,,,,,,,,,,,,48.00871240000015,0.0087124000001495,None,,81.22638819999975,81.22638819999975,81.22638819999975,81.22638819999975,81.22638819999975,81.22638819999975,81.22638819999975,81.22638819999975,81.22638819999975,81.22638819999975,008,P006,2025_Jan_25_1228,ConditionRich,2021.2.3,59.930157394627365,
48.75,49.0,41,0.0,Stimuli/Blank.png,0,0,0.0,0,90,90,90,,,,,,,,,,,,,48.775194299999384,0.025194299999384384,None,,81.97705379999934,81.97705379999934,81.97705379999934,81.97705379999934,81.97705379999934,81.97705379999934,81.97705379999934,81.97705379999934,81.97705379999934,81.97705379999934,008,P006,2025_Jan_25_1228,ConditionRich,2021.2.3,59.930157394627365,
49.0,49.75,15,0.75,Stimuli/P006/sun_btkzuhaxqlacvmsv.jpg,0,0,0.0,0,91,91,91,,,,,,,,,,,,,49.00931870000022,0.009318700000221725,None,,82.22726639999928,82.22726639999928,82.22726639999928,82.22726639999928,82.22726639999928,82.22726639999928,82.22726639999928,82.22726639999928,82.22726639999928,82.22726639999928,008,P006,2025_Jan_25_1228,ConditionRich,2021.2.3,59.930157394627365,
49.75,50.0,41,0.0,Stimuli/Blank.png,0,0,0.0,0,92,92,92,,,,,,,,,,,,,49.77715129999979,0.027151299999786715,5,0.19082189999971888,82.99462219999987,82.99462219999987,82.99462219999987,82.99462219999987,82.99462219999987,82.99462219999987,82.99462219999987,82.99462219999987,82.99462219999987,82.99462219999987,008,P006,2025_Jan_25_1228,ConditionRich,2021.2.3,59.930157394627365,
50.0,50.75,15,0.75,Stimuli/P006/sun_btkzuhaxqlacvmsv.jpg,0,0,0.0,0,93,93,93,,,,,,,,,,,,,50.027176799999324,0.02717679999932443,None,,83.22815909999917,83.22815909999917,83.22815909999917,83.22815909999917,83.22815909999917,83.22815909999917,83.22815909999917,83.22815909999917,83.22815909999917,83.22815909999917,008,P006,2025_Jan_25_1228,ConditionRich,2021.2.3,59.930157394627365,
50.75,51.0,41,0.0,Stimuli/Blank.png,0,0,0.0,0,94,94,94,,,,,,,,,,,,,50.76108909999948,0.011089099999480823,None,,83.96214319999945,83.96214319999945,83.96214319999945,83.96214319999945,83.96214319999945,83.96214319999945,83.96214319999945,83.96214319999945,83.96214319999945,83.96214319999945,008,P006,2025_Jan_25_1228,ConditionRich,2021.2.3,59.930157394627365,
51.0,51.75,15,0.75,Stimuli/P006/sun_btkzuhaxqlacvmsv.jpg,0,0,0.0,0,95,95,95,,,,,,,,,,,,,51.01141599999937,0.011415999999371707,None,,84.22903289999977,84.22903289999977,84.22903289999977,84.22903289999977,84.22903289999977,84.22903289999977,84.22903289999977,84.22903289999977,84.22903289999977,84.22903289999977,008,P006,2025_Jan_25_1228,ConditionRich,2021.2.3,59.930157394627365,
51.75,52.0,41,0.0,Stimuli/Blank.png,0,0,0.0,0,96,96,96,,,,,,,,,,,,,51.77793810000003,0.0279381000000285,None,,84.97969799999919,84.97969799999919,84.97969799999919,84.97969799999919,84.97969799999919,84.97969799999919,84.97969799999919,84.97969799999919,84.97969799999919,84.97969799999919,008,P006,2025_Jan_25_1228,ConditionRich,2021.2.3,59.930157394627365,
52.0,52.75,13,0.75,Stimuli/P006/sun_bruphbrfsbxowtlq.jpg,0,0,0.0,0,97,97,97,,,,,,,,,,,,,52.01122729999952,0.011227299999518436,None,,85.2132389999997,85.2132389999997,85.2132389999997,85.2132389999997,85.2132389999997,85.2132389999997,85.2132389999997,85.2132389999997,85.2132389999997,85.2132389999997,008,P006,2025_Jan_25_1228,ConditionRich,2021.2.3,59.930157394627365,
52.75,53.0,41,0.0,Stimuli/Blank.png,0,0,0.0,0,98,98,98,,,,,,,,,,,,,52.7628493000002,0.012849300000198127,None,,85.96390339999925,85.96390339999925,85.96390339999925,85.96390339999925,85.96390339999925,85.96390339999925,85.96390339999925,85.96390339999925,85.96390339999925,85.96390339999925,008,P006,2025_Jan_25_1228,ConditionRich,2021.2.3,59.930157394627365,
53.0,53.75,13,0.75,Stimuli/P006/sun_bruphbrfsbxowtlq.jpg,0,0,0.0,0,99,99,99,,,,,,,,,,,,,53.013048899999376,0.013048899999375863,None,,86.21460329999991,86.21460329999991,86.21460329999991,86.21460329999991,86.21460329999991,86.21460329999991,86.21460329999991,86.21460329999991,86.21460329999991,86.21460329999991,008,P006,2025_Jan_25_1228,ConditionRich,2021.2.3,59.930157394627365,
53.75,54.0,41,0.0,Stimuli/Blank.png,0,0,0.0,0,100,100,100,,,,,,,,,,,,,53.76372790000005,0.013727900000048976,None,,86.9648545,86.9648545,86.9648545,86.9648545,86.9648545,86.9648545,86.9648545,86.9648545,86.9648545,86.9648545,008,P006,2025_Jan_25_1228,ConditionRich,2021.2.3,59.930157394627365,
54.0,54.75,13,0.75,Stimuli/P006/sun_bruphbrfsbxowtlq.jpg,0,0,0.0,0,101,101,101,,,,,,,,,,,,,54.01393579999967,0.013935799999671872,None,,87.21500699999979,87.21500699999979,87.21500699999979,87.21500699999979,87.21500699999979,87.21500699999979,87.21500699999979,87.21500699999979,87.21500699999979,87.21500699999979,008,P006,2025_Jan_25_1228,ConditionRich,2021.2.3,59.930157394627365,
54.75,55.0,41,0.0,Stimuli/Blank.png,0,0,0.0,0,102,102,102,,,,,,,,,,,,,54.763955800000076,0.013955800000076124,None,,87.96575049999956,87.96575049999956,87.96575049999956,87.96575049999956,87.96575049999956,87.96575049999956,87.96575049999956,87.96575049999956,87.96575049999956,87.96575049999956,008,P006,2025_Jan_25_1228,ConditionRich,2021.2.3,59.930157394627365,
55.0,55.75,13,0.75,Stimuli/P006/sun_bruphbrfsbxowtlq.jpg,0,0,0.0,0,103,103,103,,,,,,,,,,,,,55.01625449999938,0.016254499999377003,None,,88.23257529999955,88.23257529999955,88.23257529999955,88.23257529999955,88.23257529999955,88.23257529999955,88.23257529999955,88.23257529999955,88.23257529999955,88.23257529999955,008,P006,2025_Jan_25_1228,ConditionRich,2021.2.3,59.930157394627365,
55.75,56.0,41,0.0,Stimuli/Blank.png,0,0,0.0,0,104,104,104,,,,,,,,,,,,,55.767239299999346,0.017239299999346258,None,,88.98323869999967,88.98323869999967,88.98323869999967,88.98323869999967,88.98323869999967,88.98323869999967,88.98323869999967,88.98323869999967,88.98323869999967,88.98323869999967,008,P006,2025_Jan_25_1228,ConditionRich,2021.2.3,59.930157394627365,
56.0,56.75,30,0.75,Stimuli/P006/things_hood_03s.jpg,0,0,0.0,0,105,105,105,,,,,,,,,,,,,56.01611199999934,0.016111999999338877,None,,89.23344999999972,89.23344999999972,89.23344999999972,89.23344999999972,89.23344999999972,89.23344999999972,89.23344999999972,89.23344999999972,89.23344999999972,89.23344999999972,008,P006,2025_Jan_25_1228,ConditionRich,2021.2.3,59.930157394627365,
56.75,57.0,41,0.0,Stimuli/Blank.png,0,0,0.0,0,106,106,106,,,,,,,,,,,,,56.76616479999939,0.01616479999938747,None,,89.96744929999932,89.96744929999932,89.96744929999932,89.96744929999932,89.96744929999932,89.96744929999932,89.96744929999932,89.96744929999932,89.96744929999932,89.96744929999932,008,P006,2025_Jan_25_1228,ConditionRich,2021.2.3,59.930157394627365,
57.0,57.75,30,0.75,Stimuli/P006/things_hood_03s.jpg,0,0,0.0,0,107,107,107,,,,,,,,,,,,,57.00191360000008,0.0019136000000798958,None,,90.21766259999913,90.21766259999913,90.21766259999913,90.21766259999913,90.21766259999913,90.21766259999913,90.21766259999913,90.21766259999913,90.21766259999913,90.21766259999913,008,P006,2025_Jan_25_1228,ConditionRich,2021.2.3,59.930157394627365,
57.75,58.0,41,0.0,Stimuli/Blank.png,0,0,0.0,0,108,108,108,,,,,,,,,,,,,57.76742579999973,0.017425799999728042,None,,90.96832399999948,90.96832399999948,90.96832399999948,90.96832399999948,90.96832399999948,90.96832399999948,90.96832399999948,90.96832399999948,90.96832399999948,90.96832399999948,008,P006,2025_Jan_25_1228,ConditionRich,2021.2.3,59.930157394627365,
58.0,58.75,30,0.75,Stimuli/P006/things_hood_03s.jpg,0,0,0.0,0,109,109,109,,,,,,,,,,,,,58.00034520000008,0.0003452000000834232,None,,91.20186159999957,91.20186159999957,91.20186159999957,91.20186159999957,91.20186159999957,91.20186159999957,91.20186159999957,91.20186159999957,91.20186159999957,91.20186159999957,008,P006,2025_Jan_25_1228,ConditionRich,2021.2.3,59.930157394627365,
58.75,59.0,41,0.0,Stimuli/Blank.png,0,0,0.0,0,110,110,110,,,,,,,,,,,,,58.751853499999925,0.0018534999999246793,None,,91.95252309999978,91.95252309999978,91.95252309999978,91.95252309999978,91.95252309999978,91.95252309999978,91.95252309999978,91.95252309999978,91.95252309999978,91.95252309999978,008,P006,2025_Jan_25_1228,ConditionRich,2021.2.3,59.930157394627365,
59.0,59.75,30,0.75,Stimuli/P006/things_hood_03s.jpg,0,0,0.0,0,111,111,111,,,,,,,,,,,,,59.00154740000016,0.0015474000001631794,None,,92.20274109999991,92.20274109999991,92.20274109999991,92.20274109999991,92.20274109999991,92.20274109999991,92.20274109999991,92.20274109999991,92.20274109999991,92.20274109999991,008,P006,2025_Jan_25_1228,ConditionRich,2021.2.3,59.930157394627365,
59.75,60.0,41,0.0,Stimuli/Blank.png,0,0,0.0,0,112,112,112,,,,,,,,,,,,,59.752134499999556,0.002134499999556283,None,,92.95341419999932,92.95341419999932,92.95341419999932,92.95341419999932,92.95341419999932,92.95341419999932,92.95341419999932,92.95341419999932,92.95341419999932,92.95341419999932,008,P006,2025_Jan_25_1228,ConditionRich,2021.2.3,59.930157394627365,
60.0,60.75,36,0.75,Stimuli/P006/things_pony_03s.jpg,0,0,0.0,0,113,113,113,,,,,,,,,,,,,60.00249889999941,0.002498899999409332,None,,93.22031040000002,93.22031040000002,93.22031040000002,93.22031040000002,93.22031040000002,93.22031040000002,93.22031040000002,93.22031040000002,93.22031040000002,93.22031040000002,008,P006,2025_Jan_25_1228,ConditionRich,2021.2.3,59.930157394627365,
60.75,61.0,41,0.0,Stimuli/Blank.png,0,0,0.0,0,114,114,114,,,,,,,,,,,,,60.77040239999951,0.020402399999511545,None,,93.9709815999995,93.9709815999995,93.9709815999995,93.9709815999995,93.9709815999995,93.9709815999995,93.9709815999995,93.9709815999995,93.9709815999995,93.9709815999995,008,P006,2025_Jan_25_1228,ConditionRich,2021.2.3,59.930157394627365,
61.0,61.75,36,0.75,Stimuli/P006/things_pony_03s.jpg,0,0,0.0,0,115,115,115,,,,,,,,,,,,,61.003392699999495,0.0033926999994946527,None,,94.20450699999947,94.20450699999947,94.20450699999947,94.20450699999947,94.20450699999947,94.20450699999947,94.20450699999947,94.20450699999947,94.20450699999947,94.20450699999947,008,P006,2025_Jan_25_1228,ConditionRich,2021.2.3,59.930157394627365,
61.75,62.0,41,0.0,Stimuli/Blank.png,0,0,0.0,0,116,116,116,,,,,,,,,,,,,61.75338139999985,0.0033813999998528743,None,,94.9551808999995,94.9551808999995,94.9551808999995,94.9551808999995,94.9551808999995,94.9551808999995,94.9551808999995,94.9551808999995,94.9551808999995,94.9551808999995,008,P006,2025_Jan_25_1228,ConditionRich,2021.2.3,59.930157394627365,
62.0,62.75,36,0.75,Stimuli/P006/things_pony_03s.jpg,0,0,0.0,0,117,117,117,,,,,,,,,,,,,62.00363349999952,0.0036334999995233375,None,,95.22206969999934,95.22206969999934,95.22206969999934,95.22206969999934,95.22206969999934,95.22206969999934,95.22206969999934,95.22206969999934,95.22206969999934,95.22206969999934,008,P006,2025_Jan_25_1228,ConditionRich,2021.2.3,59.930157394627365,
62.75,63.0,41,0.0,Stimuli/Blank.png,0,0,0.0,0,118,118,118,,,,,,,,,,,,,62.77130649999981,0.021306499999809603,None,,95.97274239999933,95.97274239999933,95.97274239999933,95.97274239999933,95.97274239999933,95.97274239999933,95.97274239999933,95.97274239999933,95.97274239999933,95.97274239999933,008,P006,2025_Jan_25_1228,ConditionRich,2021.2.3,59.930157394627365,
63.0,63.75,36,0.75,Stimuli/P006/things_pony_03s.jpg,0,0,0.0,0,119,119,119,,,,,,,,,,,,,63.00664079999933,0.006640799999331648,None,,96.22296529999949,96.22296529999949,96.22296529999949,96.22296529999949,96.22296529999949,96.22296529999949,96.22296529999949,96.22296529999949,96.22296529999949,96.22296529999949,008,P006,2025_Jan_25_1228,ConditionRich,2021.2.3,59.930157394627365,
63.75,64.0,41,0.0,Stimuli/Blank.png,0,0,0.0,0,120,120,120,,,,,,,,,,,,,63.7717647999998,0.021764799999800744,None,,96.97362919999978,96.97362919999978,96.97362919999978,96.97362919999978,96.97362919999978,96.97362919999978,96.97362919999978,96.97362919999978,96.97362919999978,96.97362919999978,008,P006,2025_Jan_25_1228,ConditionRich,2021.2.3,59.930157394627365,
64.0,64.75,35,0.75,Stimuli/P006/things_pig_03s.jpg,0,0,0.0,0,121,121,121,,,,,,,,,,,,,64.00515899999937,0.0051589999993666424,None,,97.20715559999917,97.20715559999917,97.20715559999917,97.20715559999917,97.20715559999917,97.20715559999917,97.20715559999917,97.20715559999917,97.20715559999917,97.20715559999917,008,P006,2025_Jan_25_1228,ConditionRich,2021.2.3,59.930157394627365,
64.75,65.0,41,0.0,Stimuli/Blank.png,0,0,0.0,0,122,122,122,,,,,,,,,,,,,64.75610529999994,0.006105299999944691,None,,97.95782399999916,97.95782399999916,97.95782399999916,97.95782399999916,97.95782399999916,97.95782399999916,97.95782399999916,97.95782399999916,97.95782399999916,97.95782399999916,008,P006,2025_Jan_25_1228,ConditionRich,2021.2.3,59.930157394627365,
65.0,65.75,35,0.75,Stimuli/P006/things_pig_03s.jpg,0,0,0.0,0,123,123,123,,,,,,,,,,,,,65.00698699999975,0.006986999999753607,None,,98.22472199999993,98.22472199999993,98.22472199999993,98.22472199999993,98.22472199999993,98.22472199999993,98.22472199999993,98.22472199999993,98.22472199999993,98.22472199999993,008,P006,2025_Jan_25_1228,ConditionRich,2021.2.3,59.930157394627365,
65.75,66.0,41,0.0,Stimuli/Blank.png,0,0,0.0,0,124,124,124,,,,,,,,,,,,,65.77633349999996,0.02633349999996426,5,0.19329190000007657,98.99208519999956,98.99208519999956,98.99208519999956,98.99208519999956,98.99208519999956,98.99208519999956,98.99208519999956,98.99208519999956,98.99208519999956,98.99208519999956,008,P006,2025_Jan_25_1228,ConditionRich,2021.2.3,59.930157394627365,
66.0,66.75,35,0.75,Stimuli/P006/things_pig_03s.jpg,0,0,0.0,0,125,125,125,,,,,,,,,,,,,66.02523149999979,0.025231499999790685,None,,99.2422833999999,99.2422833999999,99.2422833999999,99.2422833999999,99.2422833999999,99.2422833999999,99.2422833999999,99.2422833999999,99.2422833999999,99.2422833999999,008,P006,2025_Jan_25_1228,ConditionRich,2021.2.3,59.930157394627365,
66.75,67.0,41,0.0,Stimuli/Blank.png,0,0,0.0,0,126,126,126,,,,,,,,,,,,,66.77661619999981,0.026616199999807577,None,,99.99296679999952,99.99296679999952,99.99296679999952,99.99296679999952,99.99296679999952,99.99296679999952,99.99296679999952,99.99296679999952,99.99296679999952,99.99296679999952,008,P006,2025_Jan_25_1228,ConditionRich,2021.2.3,59.930157394627365,
67.0,67.75,35,0.75,Stimuli/P006/things_pig_03s.jpg,0,0,0.0,0,127,127,127,,,,,,,,,,,,,67.02692690000003,0.026926900000034948,None,,100.24317859999974,100.24317859999974,100.24317859999974,100.24317859999974,100.24317859999974,100.24317859999974,100.24317859999974,100.24317859999974,100.24317859999974,100.24317859999974,008,P006,2025_Jan_25_1228,ConditionRich,2021.2.3,59.930157394627365,
67.75,68.0,41,0.0,Stimuli/Blank.png,0,0,0.0,0,128,128,128,,,,,,,,,,,,,67.7759686999998,0.0259686999997939,None,,100.97714909999922,100.97714909999922,100.97714909999922,100.97714909999922,100.97714909999922,100.97714909999922,100.97714909999922,100.97714909999922,100.97714909999922,100.97714909999922,008,P006,2025_Jan_25_1228,ConditionRich,2021.2.3,59.930157394627365,
68.0,68.75,12,0.75,Stimuli/P006/sun_bodyuiqwqpqzwfoz.jpg,1,0,0.75,0,129,129,129,,,,,,,,,,,,,68.00956319999932,0.009563199999320204,1,0.49899619999996503,101.22736499999974,101.22736499999974,101.22736499999974,101.22736499999974,101.22736499999974,101.22736499999974,101.22736499999974,101.9447111999998,101.22736499999974,101.22736499999974,008,P006,2025_Jan_25_1228,ConditionRich,2021.2.3,59.930157394627365,
68.75,69.0,41,0.0,Stimuli/Blank.png,0,0,0.0,0,130,130,130,,,,,,,,,,,,,68.77725699999974,0.027256999999735854,None,,101.9947233999992,101.9947233999992,101.9947233999992,101.9947233999992,101.9947233999992,101.9947233999992,101.9947233999992,101.9947233999992,101.9947233999992,101.9947233999992,008,P006,2025_Jan_25_1228,ConditionRich,2021.2.3,59.930157394627365,
69.0,69.75,12,0.75,Stimuli/P006/sun_bodyuiqwqpqzwfoz.jpg,0,0,0.0,0,131,131,131,,,,,,,,,,,,,69.02702880000015,0.02702880000015284,None,,102.22826059999989,102.22826059999989,102.22826059999989,102.22826059999989,102.22826059999989,102.22826059999989,102.22826059999989,102.22826059999989,102.22826059999989,102.22826059999989,008,P006,2025_Jan_25_1228,ConditionRich,2021.2.3,59.930157394627365,
69.75,70.0,41,0.0,Stimuli/Blank.png,0,0,0.0,0,132,132,132,,,,,,,,,,,,,69.76079949999985,0.010799499999848194,None,,102.9622462999996,102.9622462999996,102.9622462999996,102.9622462999996,102.9622462999996,102.9622462999996,102.9622462999996,102.9622462999996,102.9622462999996,102.9622462999996,008,P006,2025_Jan_25_1228,ConditionRich,2021.2.3,59.930157394627365,
70.0,70.75,12,0.75,Stimuli/P006/sun_bodyuiqwqpqzwfoz.jpg,0,0,0.0,0,133,133,133,,,,,,,,,,,,,70.01034809999965,0.010348099999646365,None,,103.21245859999999,103.21245859999999,103.21245859999999,103.21245859999999,103.21245859999999,103.21245859999999,103.21245859999999,103.21245859999999,103.21245859999999,103.21245859999999,008,P006,2025_Jan_25_1228,ConditionRich,2021.2.3,59.930157394627365,
70.75,71.0,41,0.0,Stimuli/Blank.png,0,0,0.0,0,134,134,134,,,,,,,,,,,,,70.76200059999974,0.01200059999973746,None,,103.96313709999959,103.96313709999959,103.96313709999959,103.96313709999959,103.96313709999959,103.96313709999959,103.96313709999959,103.96313709999959,103.96313709999959,103.96313709999959,008,P006,2025_Jan_25_1228,ConditionRich,2021.2.3,59.930157394627365,
71.0,71.75,12,0.75,Stimuli/P006/sun_bodyuiqwqpqzwfoz.jpg,0,0,0.0,0,135,135,135,,,,,,,,,,,,,71.01232069999969,0.012320699999690987,None,,104.23003959999915,104.23003959999915,104.23003959999915,104.23003959999915,104.23003959999915,104.23003959999915,104.23003959999915,104.23003959999915,104.23003959999915,104.23003959999915,008,P006,2025_Jan_25_1228,ConditionRich,2021.2.3,59.930157394627365,
71.75,72.0,41,0.0,Stimuli/Blank.png,0,0,0.0,0,136,136,136,,,,,,,,,,,,,71.78166449999935,0.03166449999935139,5,0.18796689999999217,104.99737219999952,104.99737219999952,104.99737219999952,104.99737219999952,104.99737219999952,104.99737219999952,104.99737219999952,104.99737219999952,104.99737219999952,104.99737219999952,008,P006,2025_Jan_25_1228,ConditionRich,2021.2.3,59.930157394627365,
72.0,72.75,26,0.75,Stimuli/P006/things_face_03s.jpg,0,0,0.0,0,137,137,137,,,,,,,,,,,,,72.02911510000013,0.029115100000126404,None,,105.23090639999918,105.23090639999918,105.23090639999918,105.23090639999918,105.23090639999918,105.23090639999918,105.23090639999918,105.23090639999918,105.23090639999918,105.23090639999918,008,P006,2025_Jan_25_1228,ConditionRich,2021.2.3,59.930157394627365,
72.75,73.0,41,0.0,Stimuli/Blank.png,0,0,0.0,0,138,138,138,,,,,,,,,,,,,72.76364879999983,0.013648799999828043,None,,105.96488749999935,105.96488749999935,105.96488749999935,105.96488749999935,105.96488749999935,105.96488749999935,105.96488749999935,105.96488749999935,105.96488749999935,105.96488749999935,008,P006,2025_Jan_25_1228,ConditionRich,2021.2.3,59.930157394627365,
73.0,73.75,26,0.75,Stimuli/P006/things_face_03s.jpg,1,0,0.75,0,139,139,139,,,,,,,,,,,,,73.01395039999989,0.013950399999885121,1,0.4444561000000249,106.23180159999993,106.23180159999993,106.23180159999993,106.23180159999993,106.23180159999993,106.23180159999993,106.23180159999993,106.94911449999927,106.23180159999993,106.23180159999993,008,P006,2025_Jan_25_1228,ConditionRich,2021.2.3,59.930157394627365,
73.75,74.0,41,0.0,Stimuli/Blank.png,0,0,0.0,0,140,140,140,,,,,,,,,,,,,73.7814344999997,0.03143449999970471,None,,106.98245969999971,106.98245969999971,106.98245969999971,106.98245969999971,106.98245969999971,106.98245969999971,106.98245969999971,106.98245969999971,106.98245969999971,106.98245969999971,008,P006,2025_Jan_25_1228,ConditionRich,2021.2.3,59.930157394627365,
74.0,74.75,26,0.75,Stimuli/P006/things_face_03s.jpg,0,0,0.0,0,141,141,141,,,,,,,,,,,,,74.01485169999978,0.014851699999780976,None,,107.21599349999997,107.21599349999997,107.21599349999997,107.21599349999997,107.21599349999997,107.21599349999997,107.21599349999997,107.21599349999997,107.21599349999997,107.21599349999997,008,P006,2025_Jan_25_1228,ConditionRich,2021.2.3,59.930157394627365,
74.75,75.0,41,0.0,Stimuli/Blank.png,0,0,0.0,0,142,142,142,,,,,,,,,,,,,74.76694299999963,0.016942999999628228,None,,107.98333759999969,107.98333759999969,107.98333759999969,107.98333759999969,107.98333759999969,107.98333759999969,107.98333759999969,107.98333759999969,107.98333759999969,107.98333759999969,008,P006,2025_Jan_25_1228,ConditionRich,2021.2.3,59.930157394627365,
75.0,75.75,26,0.75,Stimuli/P006/things_face_03s.jpg,0,0,0.0,0,143,143,143,,,,,,,,,,,,,75.01536469999974,0.015364699999736331,None,,108.21687049999946,108.21687049999946,108.21687049999946,108.21687049999946,108.21687049999946,108.21687049999946,108.21687049999946,108.21687049999946,108.21687049999946,108.21687049999946,008,P006,2025_Jan_25_1228,ConditionRich,2021.2.3,59.930157394627365,
75.75,76.0,41,0.0,Stimuli/Blank.png,0,0,0.0,0,144,144,144,,,,,,,,,,,,,75.7512345999994,0.0012345999994067824,5,0.21844789999977365,108.96754349999992,108.96754349999992,108.96754349999992,108.96754349999992,108.96754349999992,108.96754349999992,108.96754349999992,108.96754349999992,108.96754349999992,108.96754349999992,008,P006,2025_Jan_25_1228,ConditionRich,2021.2.3,59.930157394627365,
76.0,76.75,25,0.75,Stimuli/P006/things_dog_03s.jpg,0,0,0.0,0,145,145,145,,,,,,,,,,,,,76.01659469999959,0.016594699999586737,None,,109.21775889999935,109.21775889999935,109.21775889999935,109.21775889999935,109.21775889999935,109.21775889999935,109.21775889999935,109.21775889999935,109.21775889999935,109.21775889999935,008,P006,2025_Jan_25_1228,ConditionRich,2021.2.3,59.930157394627365,
76.75,77.0,41,0.0,Stimuli/Blank.png,0,0,0.0,0,146,146,146,,,,,,,,,,,,,76.75254359999963,0.002543599999626167,None,,109.96843339999941,109.96843339999941,109.96843339999941,109.96843339999941,109.96843339999941,109.96843339999941,109.96843339999941,109.96843339999941,109.96843339999941,109.96843339999941,008,P006,2025_Jan_25_1228,ConditionRich,2021.2.3,59.930157394627365,
77.0,77.75,25,0.75,Stimuli/P006/things_dog_03s.jpg,0,0,0.0,0,147,147,147,,,,,,,,,,,,,77.01746860000003,0.017468600000029255,None,,110.23534299999938,110.23534299999938,110.23534299999938,110.23534299999938,110.23534299999938,110.23534299999938,110.23534299999938,110.23534299999938,110.23534299999938,110.23534299999938,008,P006,2025_Jan_25_1228,ConditionRich,2021.2.3,59.930157394627365,
77.75,78.0,41,0.0,Stimuli/Blank.png,0,0,0.0,0,148,148,148,,,,,,,,,,,,,77.76790129999972,0.017901299999721232,None,,110.96930129999964,110.96930129999964,110.96930129999964,110.96930129999964,110.96930129999964,110.96930129999964,110.96930129999964,110.96930129999964,110.96930129999964,110.96930129999964,008,P006,2025_Jan_25_1228,ConditionRich,2021.2.3,59.930157394627365,
78.0,78.75,25,0.75,Stimuli/P006/things_dog_03s.jpg,0,0,0.0,0,149,149,149,,,,,,,,,,,,,78.00186119999944,0.0018611999994391226,None,,111.21951769999941,111.21951769999941,111.21951769999941,111.21951769999941,111.21951769999941,111.21951769999941,111.21951769999941,111.21951769999941,111.21951769999941,111.21951769999941,008,P006,2025_Jan_25_1228,ConditionRich,2021.2.3,59.930157394627365,
78.75,79.0,41,0.0,Stimuli/Blank.png,0,0,0.0,0,150,150,150,,,,,,,,,,,,,78.76906239999971,0.019062399999711488,None,,111.97026399999959,111.97026399999959,111.97026399999959,111.97026399999959,111.97026399999959,111.97026399999959,111.97026399999959,111.97026399999959,111.97026399999959,111.97026399999959,008,P006,2025_Jan_25_1228,ConditionRich,2021.2.3,59.930157394627365,
79.0,79.75,25,0.75,Stimuli/P006/things_dog_03s.jpg,0,0,0.0,0,151,151,151,,,,,,,,,,,,,79.00185049999982,0.0018504999998185667,None,,112.20372999999927,112.20372999999927,112.20372999999927,112.20372999999927,112.20372999999927,112.20372999999927,112.20372999999927,112.20372999999927,112.20372999999927,112.20372999999927,008,P006,2025_Jan_25_1228,ConditionRich,2021.2.3,59.930157394627365,
79.75,80.0,41,0.0,Stimuli/Blank.png,0,0,0.0,0,152,152,152,,,,,,,,,,,,,79.7528328999997,0.0028328999997029314,None,,112.95439169999918,112.95439169999918,112.95439169999918,112.95439169999918,112.95439169999918,112.95439169999918,112.95439169999918,112.95439169999918,112.95439169999918,112.95439169999918,008,P006,2025_Jan_25_1228,ConditionRich,2021.2.3,59.930157394627365,
80.0,80.75,5,0.75,Stimuli/P006/sun_axaqdcecfojvpvrl.jpg,0,0,0.0,0,153,153,153,,,,,,,,,,,,,80.00307989999965,0.0030798999996477505,None,,113.20460989999992,113.20460989999992,113.20460989999992,113.20460989999992,113.20460989999992,113.20460989999992,113.20460989999992,113.20460989999992,113.20460989999992,113.20460989999992,008,P006,2025_Jan_25_1228,ConditionRich,2021.2.3,59.930157394627365,
80.75,81.0,41,0.0,Stimuli/Blank.png,0,0,0.0,0,154,154,154,,,,,,,,,,,,,80.75388549999934,0.003885499999341846,None,,113.95535269999982,113.95535269999982,113.95535269999982,113.95535269999982,113.95535269999982,113.95535269999982,113.95535269999982,113.95535269999982,113.95535269999982,113.95535269999982,008,P006,2025_Jan_25_1228,ConditionRich,2021.2.3,59.930157394627365,
81.0,81.75,5,0.75,Stimuli/P006/sun_axaqdcecfojvpvrl.jpg,0,0,0.0,0,155,155,155,,,,,,,,,,,,,81.00410039999952,0.004100399999515503,None,,114.20549389999996,114.20549389999996,114.20549389999996,114.20549389999996,114.20549389999996,114.20549389999996,114.20549389999996,114.20549389999996,114.20549389999996,114.20549389999996,008,P006,2025_Jan_25_1228,ConditionRich,2021.2.3,59.930157394627365,
81.75,82.0,41,0.0,Stimuli/Blank.png,0,0,0.0,0,156,156,156,,,,,,,,,,,,,81.75655420000021,0.006554200000209676,5,0.2126521000000139,114.97285719999945,114.97285719999945,114.97285719999945,114.97285719999945,114.97285719999945,114.97285719999945,114.97285719999945,114.97285719999945,114.97285719999945,114.97285719999945,008,P006,2025_Jan_25_1228,ConditionRich,2021.2.3,59.930157394627365,
82.0,82.75,5,0.75,Stimuli/P006/sun_axaqdcecfojvpvrl.jpg,0,0,0.0,0,157,157,157,,,,,,,,,,,,,82.02172699999937,0.02172699999937322,None,,115.22305899999992,115.22305899999992,115.22305899999992,115.22305899999992,115.22305899999992,115.22305899999992,115.22305899999992,115.22305899999992,115.22305899999992,115.22305899999992,008,P006,2025_Jan_25_1228,ConditionRich,2021.2.3,59.930157394627365,
82.75,83.0,41,0.0,Stimuli/Blank.png,0,0,0.0,0,158,158,158,,,,,,,,,,,,,82.75632649999989,0.006326499999886437,None,,115.95705099999941,115.95705099999941,115.95705099999941,115.95705099999941,115.95705099999941,115.95705099999941,115.95705099999941,115.95705099999941,115.95705099999941,115.95705099999941,008,P006,2025_Jan_25_1228,ConditionRich,2021.2.3,59.930157394627365,
83.0,83.75,5,0.75,Stimuli/P006/sun_axaqdcecfojvpvrl.jpg,0,0,0.0,0,159,159,159,,,,,,,,,,,,,83.00610760000018,0.0061076000001776265,None,,116.20726019999984,116.20726019999984,116.20726019999984,116.20726019999984,116.20726019999984,116.20726019999984,116.20726019999984,116.20726019999984,116.20726019999984,116.20726019999984,008,P006,2025_Jan_25_1228,ConditionRich,2021.2.3,59.930157394627365,
83.75,84.0,41,0.0,Stimuli/Blank.png,0,0,0.0,0,160,160,160,,,,,,,,,,,,,83.75610199999937,0.00610199999937322,None,,116.95793329999924,116.95793329999924,116.95793329999924,116.95793329999924,116.95793329999924,116.95793329999924,116.95793329999924,116.95793329999924,116.95793329999924,116.95793329999924,008,P006,2025_Jan_25_1228,ConditionRich,2021.2.3,59.930157394627365,
84.0,100.0,0,0.0,Stimuli/Blank.png,1,11,11.75,0,161,161,161,,,,,,,,,,,,,84.00704020000012,0.007040200000119512,5,13.977249800000209,117.20815849999963,117.20815849999963,117.20815849999963,117.20815849999963,117.20815849999963,117.20815849999963,128.20121389999986,128.95186829999966,117.20815849999963,117.20815849999963,008,P006,2025_Jan_25_1228,ConditionRich,2021.2.3,59.930157394627365,
100.0,100.75,14,0.75,Stimuli/P006/sun_bsirencncgxteejx.jpg,0,0,0.0,0,162,162,162,,,,,,,,,,,,,100.0066681999997,0.00666819999969448,None,,133.2222845999995,133.2222845999995,133.2222845999995,133.2222845999995,133.2222845999995,133.2222845999995,133.2222845999995,133.2222845999995,133.2222845999995,133.2222845999995,008,P006,2025_Jan_25_1228,ConditionRich,2021.2.3,59.930157394627365,
100.75,101.0,41,0.0,Stimuli/Blank.png,0,0,0.0,0,163,163,163,,,,,,,,,,,,,100.77191349999976,0.021913499999755004,None,,133.97294220000003,133.97294220000003,133.97294220000003,133.97294220000003,133.97294220000003,133.97294220000003,133.97294220000003,133.97294220000003,133.97294220000003,133.97294220000003,008,P006,2025_Jan_25_1228,ConditionRich,2021.2.3,59.930157394627365,
101.0,101.75,14,0.75,Stimuli/P006/sun_bsirencncgxteejx.jpg,0,0,0.0,0,164,164,164,,,,,,,,,,,,,101.00581590000002,0.005815900000015972,None,,134.22315269999945,134.22315269999945,134.22315269999945,134.22315269999945,134.22315269999945,134.22315269999945,134.22315269999945,134.22315269999945,134.22315269999945,134.22315269999945,008,P006,2025_Jan_25_1228,ConditionRich,2021.2.3,59.930157394627365,
101.75,102.0,41,0.0,Stimuli/Blank.png,0,0,0.0,0,165,165,165,,,,,,,,,,,,,101.77234899999985,0.022348999999849184,None,,134.97382070000003,134.97382070000003,134.97382070000003,134.97382070000003,134.97382070000003,134.97382070000003,134.97382070000003,134.97382070000003,134.97382070000003,134.97382070000003,008,P006,2025_Jan_25_1228,ConditionRich,2021.2.3,59.930157394627365,
102.0,102.75,14,0.75,Stimuli/P006/sun_bsirencncgxteejx.jpg,0,0,0.0,0,166,166,166,,,,,,,,,,,,,102.00619420000021,0.0061942000002090936,None,,135.22403909999957,135.22403909999957,135.22403909999957,135.22403909999957,135.22403909999957,135.22403909999957,135.22403909999957,135.22403909999957,135.22403909999957,135.22403909999957,008,P006,2025_Jan_25_1228,ConditionRich,2021.2.3,59.930157394627365,
102.75,103.0,41,0.0,Stimuli/Blank.png,0,0,0.0,0,167,167,167,,,,,,,,,,,,,102.77366859999984,0.02366859999983717,None,,135.97478059999958,135.97478059999958,135.97478059999958,135.97478059999958,135.97478059999958,135.97478059999958,135.97478059999958,135.97478059999958,135.97478059999958,135.97478059999958,008,P006,2025_Jan_25_1228,ConditionRich,2021.2.3,59.930157394627365,
103.0,103.75,14,0.75,Stimuli/P006/sun_bsirencncgxteejx.jpg,0,0,0.0,0,168,168,168,,,,,,,,,,,,,103.00748560000011,0.007485600000109116,None,,136.22494659999938,136.22494659999938,136.22494659999938,136.22494659999938,136.22494659999938,136.22494659999938,136.22494659999938,136.22494659999938,136.22494659999938,136.22494659999938,008,P006,2025_Jan_25_1228,ConditionRich,2021.2.3,59.930157394627365,
103.75,104.0,41,0.0,Stimuli/Blank.png,0,0,0.0,0,169,169,169,,,,,,,,,,,,,103.77430829999957,0.024308299999574956,None,,136.97560109999995,136.97560109999995,136.97560109999995,136.97560109999995,136.97560109999995,136.97560109999995,136.97560109999995,136.97560109999995,136.97560109999995,136.97560109999995,008,P006,2025_Jan_25_1228,ConditionRich,2021.2.3,59.930157394627365,
104.0,104.75,19,0.75,Stimuli/P006/sun_czspalxthlkjwoat.jpg,0,0,0.0,0,170,170,170,,,,,,,,,,,,,104.00814929999979,0.008149299999786308,None,,137.20912959999987,137.20912959999987,137.20912959999987,137.20912959999987,137.20912959999987,137.20912959999987,137.20912959999987,137.20912959999987,137.20912959999987,137.20912959999987,008,P006,2025_Jan_25_1228,ConditionRich,2021.2.3,59.930157394627365,
104.75,105.0,41,0.0,Stimuli/Blank.png,0,0,0.0,0,171,171,171,,,,,,,,,,,,,104.75797479999983,0.007974799999828974,None,,137.9597887,137.9597887,137.9597887,137.9597887,137.9597887,137.9597887,137.9597887,137.9597887,137.9597887,137.9597887,008,P006,2025_Jan_25_1228,ConditionRich,2021.2.3,59.930157394627365,
105.0,105.75,19,0.75,Stimuli/P006/sun_czspalxthlkjwoat.jpg,0,0,0.0,0,172,172,172,,,,,,,,,,,,,105.00841189999937,0.008411899999373418,None,,138.20998009999948,138.20998009999948,138.20998009999948,138.20998009999948,138.20998009999948,138.20998009999948,138.20998009999948,138.20998009999948,138.20998009999948,138.20998009999948,008,P006,2025_Jan_25_1228,ConditionRich,2021.2.3,59.930157394627365,
105.75,106.0,41,0.0,Stimuli/Blank.png,0,0,0.0,0,173,173,173,,,,,,,,,,,,,105.76123779999944,0.011237799999435083,5,0.20820410000033007,138.97736209999948,138.97736209999948,138.97736209999948,138.97736209999948,138.97736209999948,138.97736209999948,138.97736209999948,138.97736209999948,138.97736209999948,138.97736209999948,008,P006,2025_Jan_25_1228,ConditionRich,2021.2.3,59.930157394627365,
106.0,106.75,19,0.75,Stimuli/P006/sun_czspalxthlkjwoat.jpg,0,0,0.0,0,174,174,174,,,,,,,,,,,,,106.02563639999971,0.025636399999712012,None,,139.2275479,139.2275479,139.2275479,139.2275479,139.2275479,139.2275479,139.2275479,139.2275479,139.2275479,139.2275479,008,P006,2025_Jan_25_1228,ConditionRich,2021.2.3,59.930157394627365,
106.75,107.0,41,0.0,Stimuli/Blank.png,0,0,0.0,0,175,175,175,,,,,,,,,,,,,106.76156219999939,0.011562199999389122,None,,139.9782385999997,139.9782385999997,139.9782385999997,139.9782385999997,139.9782385999997,139.9782385999997,139.9782385999997,139.9782385999997,139.9782385999997,139.9782385999997,008,P006,2025_Jan_25_1228,ConditionRich,2021.2.3,59.930157394627365,
107.0,107.75,19,0.75,Stimuli/P006/sun_czspalxthlkjwoat.jpg,0,0,0.0,0,176,176,176,,,,,,,,,,,,,107.02744600000005,0.027446000000054482,None,,140.2451412999999,140.2451412999999,140.2451412999999,140.2451412999999,140.2451412999999,140.2451412999999,140.2451412999999,140.2451412999999,140.2451412999999,140.2451412999999,008,P006,2025_Jan_25_1228,ConditionRich,2021.2.3,59.930157394627365,
107.75,108.0,41,0.0,Stimuli/Blank.png,0,0,0.0,0,177,177,177,,,,,,,,,,,,,107.77789130000019,0.027891300000192132,None,,140.97911919999933,140.97911919999933,140.97911919999933,140.97911919999933,140.97911919999933,140.97911919999933,140.97911919999933,140.97911919999933,140.97911919999933,140.97911919999933,008,P006,2025_Jan_25_1228,ConditionRich,2021.2.3,59.930157394627365,
108.0,108.75,38,0.75,Stimuli/P006/things_sledgehammer_03s.jpg,0,0,0.0,0,178,178,178,,,,,,,,,,,,,108.01124009999967,0.011240099999668018,None,,141.21265969999968,141.21265969999968,141.21265969999968,141.21265969999968,141.21265969999968,141.21265969999968,141.21265969999968,141.21265969999968,141.21265969999968,141.21265969999968,008,P006,2025_Jan_25_1228,ConditionRich,2021.2.3,59.930157394627365,
108.75,109.0,41,0.0,Stimuli/Blank.png,0,0,0.0,0,179,179,179,,,,,,,,,,,,,108.76280020000013,0.012800200000128825,None,,141.9633389999999,141.9633389999999,141.9633389999999,141.9633389999999,141.9633389999999,141.9633389999999,141.9633389999999,141.9633389999999,141.9633389999999,141.9633389999999,008,P006,2025_Jan_25_1228,ConditionRich,2021.2.3,59.930157394627365,
109.0,109.75,38,0.75,Stimuli/P006/things_sledgehammer_03s.jpg,0,0,0.0,0,180,180,180,,,,,,,,,,,,,109.01213619999999,0.012136199999986275,None,,142.2302624999993,142.2302624999993,142.2302624999993,142.2302624999993,142.2302624999993,142.2302624999993,142.2302624999993,142.2302624999993,142.2302624999993,142.2302624999993,008,P006,2025_Jan_25_1228,ConditionRich,2021.2.3,59.930157394627365,
109.75,110.0,41,0.0,Stimuli/Blank.png,0,0,0.0,0,181,181,181,,,,,,,,,,,,,109.7790989999994,0.02909899999940535,None,,142.98088629999984,142.98088629999984,142.98088629999984,142.98088629999984,142.98088629999984,142.98088629999984,142.98088629999984,142.98088629999984,142.98088629999984,142.98088629999984,008,P006,2025_Jan_25_1228,ConditionRich,2021.2.3,59.930157394627365,
110.0,110.75,38,0.75,Stimuli/P006/things_sledgehammer_03s.jpg,0,0,0.0,0,182,182,182,,,,,,,,,,,,,110.01254439999957,0.012544399999569578,None,,143.21442559999923,143.21442559999923,143.21442559999923,143.21442559999923,143.21442559999923,143.21442559999923,143.21442559999923,143.21442559999923,143.21442559999923,143.21442559999923,008,P006,2025_Jan_25_1228,ConditionRich,2021.2.3,59.930157394627365,
110.75,111.0,41,0.0,Stimuli/Blank.png,0,0,0.0,0,183,183,183,,,,,,,,,,,,,110.76357680000001,0.013576800000009825,None,,143.96509179999975,143.96509179999975,143.96509179999975,143.96509179999975,143.96509179999975,143.96509179999975,143.96509179999975,143.96509179999975,143.96509179999975,143.96509179999975,008,P006,2025_Jan_25_1228,ConditionRich,2021.2.3,59.930157394627365,
111.0,111.75,38,0.75,Stimuli/P006/things_sledgehammer_03s.jpg,0,0,0.0,0,184,184,184,,,,,,,,,,,,,111.01386039999943,0.013860399999430228,None,,144.23201489999974,144.23201489999974,144.23201489999974,144.23201489999974,144.23201489999974,144.23201489999974,144.23201489999974,144.23201489999974,144.23201489999974,144.23201489999974,008,P006,2025_Jan_25_1228,ConditionRich,2021.2.3,59.930157394627365,
111.75,112.0,41,0.0,Stimuli/Blank.png,0,0,0.0,0,185,185,185,,,,,,,,,,,,,111.78073669999958,0.030736699999579287,None,,144.98264759999984,144.98264759999984,144.98264759999984,144.98264759999984,144.98264759999984,144.98264759999984,144.98264759999984,144.98264759999984,144.98264759999984,144.98264759999984,008,P006,2025_Jan_25_1228,ConditionRich,2021.2.3,59.930157394627365,
112.0,112.75,24,0.75,Stimuli/P006/things_crab_03s.jpg,0,0,0.0,0,186,186,186,,,,,,,,,,,,,112.01511159999973,0.015111599999727332,None,,145.21618919999946,145.21618919999946,145.21618919999946,145.21618919999946,145.21618919999946,145.21618919999946,145.21618919999946,145.21618919999946,145.21618919999946,145.21618919999946,008,P006,2025_Jan_25_1228,ConditionRich,2021.2.3,59.930157394627365,
112.75,113.0,41,0.0,Stimuli/Blank.png,0,0,0.0,0,187,187,187,,,,,,,,,,,,,112.74814309999965,-0.001856900000348105,None,,145.95017479999933,145.95017479999933,145.95017479999933,145.95017479999933,145.95017479999933,145.95017479999933,145.95017479999933,145.95017479999933,145.95017479999933,145.95017479999933,008,P006,2025_Jan_25_1228,ConditionRich,2021.2.3,59.930157394627365,
113.0,113.75,24,0.75,Stimuli/P006/things_crab_03s.jpg,0,0,0.0,0,188,188,188,,,,,,,,,,,,,113.01600479999979,0.01600479999979143,None,,146.23375279999982,146.23375279999982,146.23375279999982,146.23375279999982,146.23375279999982,146.23375279999982,146.23375279999982,146.23375279999982,146.23375279999982,146.23375279999982,008,P006,2025_Jan_25_1228,ConditionRich,2021.2.3,59.930157394627365,
113.75,114.0,41,0.0,Stimuli/Blank.png,0,0,0.0,0,189,189,189,,,,,,,,,,,,,113.76700290000008,0.017002900000079535,None,,146.96774919999916,146.96774919999916,146.96774919999916,146.96774919999916,146.96774919999916,146.96774919999916,146.96774919999916,146.96774919999916,146.96774919999916,146.96774919999916,008,P006,2025_Jan_25_1228,ConditionRich,2021.2.3,59.930157394627365,
114.0,114.75,24,0.75,Stimuli/P006/things_crab_03s.jpg,0,0,0.0,0,190,190,190,,,,,,,,,,,,,114.00181559999965,0.001815599999645201,None,,147.21795699999984,147.21795699999984,147.21795699999984,147.21795699999984,147.21795699999984,147.21795699999984,147.21795699999984,147.21795699999984,147.21795699999984,147.21795699999984,008,P006,2025_Jan_25_1228,ConditionRich,2021.2.3,59.930157394627365,
114.75,115.0,41,0.0,Stimuli/Blank.png,0,0,0.0,0,191,191,191,,,,,,,,,,,,,114.76731749999999,0.017317499999990105,None,,147.96862619999956,147.96862619999956,147.96862619999956,147.96862619999956,147.96862619999956,147.96862619999956,147.96862619999956,147.96862619999956,147.96862619999956,147.96862619999956,008,P006,2025_Jan_25_1228,ConditionRich,2021.2.3,59.930157394627365,
115.0,115.75,24,0.75,Stimuli/P006/things_crab_03s.jpg,0,0,0.0,0,192,192,192,,,,,,,,,,,,,115.00011300000006,0.00011300000005576294,None,,148.20215909999934,148.20215909999934,148.20215909999934,148.20215909999934,148.20215909999934,148.20215909999934,148.20215909999934,148.20215909999934,148.20215909999934,148.20215909999934,008,P006,2025_Jan_25_1228,ConditionRich,2021.2.3,59.930157394627365,
115.75,116.0,41,0.0,Stimuli/Blank.png,0,0,0.0,0,193,193,193,,,,,,,,,,,,,115.75093829999969,0.000938299999688752,None,,148.95284939999965,148.95284939999965,148.95284939999965,148.95284939999965,148.95284939999965,148.95284939999965,148.95284939999965,148.95284939999965,148.95284939999965,148.95284939999965,008,P006,2025_Jan_25_1228,ConditionRich,2021.2.3,59.930157394627365,
116.0,116.75,11,0.75,Stimuli/P006/sun_bjoocjyyhsmsbprr.jpg,0,0,0.0,0,194,194,194,,,,,,,,,,,,,116.002074,0.002073999999993248,None,,149.21972259999984,149.21972259999984,149.21972259999984,149.21972259999984,149.21972259999984,149.21972259999984,149.21972259999984,149.21972259999984,149.21972259999984,149.21972259999984,008,P006,2025_Jan_25_1228,ConditionRich,2021.2.3,59.930157394627365,
116.75,117.0,41,0.0,Stimuli/Blank.png,0,0,0.0,0,195,195,195,,,,,,,,,,,,,116.76992019999943,0.019920199999432953,None,,149.97040239999933,149.97040239999933,149.97040239999933,149.97040239999933,149.97040239999933,149.97040239999933,149.97040239999933,149.97040239999933,149.97040239999933,149.97040239999933,008,P006,2025_Jan_25_1228,ConditionRich,2021.2.3,59.930157394627365,
117.0,117.75,11,0.75,Stimuli/P006/sun_bjoocjyyhsmsbprr.jpg,0,0,0.0,0,196,196,196,,,,,,,,,,,,,117.00281240000004,0.002812400000038906,None,,150.2039367999996,150.2039367999996,150.2039367999996,150.2039367999996,150.2039367999996,150.2039367999996,150.2039367999996,150.2039367999996,150.2039367999996,150.2039367999996,008,P006,2025_Jan_25_1228,ConditionRich,2021.2.3,59.930157394627365,
117.75,118.0,41,0.0,Stimuli/Blank.png,0,0,0.0,0,197,197,197,,,,,,,,,,,,,117.75293539999984,0.0029353999998420477,None,,150.95460409999941,150.95460409999941,150.95460409999941,150.95460409999941,150.95460409999941,150.95460409999941,150.95460409999941,150.95460409999941,150.95460409999941,150.95460409999941,008,P006,2025_Jan_25_1228,ConditionRich,2021.2.3,59.930157394627365,
118.0,118.75,11,0.75,Stimuli/P006/sun_bjoocjyyhsmsbprr.jpg,0,0,0.0,0,198,198,198,,,,,,,,,,,,,118.00315779999983,0.0031577999998262385,None,,151.2048218,151.2048218,151.2048218,151.2048218,151.2048218,151.2048218,151.2048218,151.2048218,151.2048218,151.2048218,008,P006,2025_Jan_25_1228,ConditionRich,2021.2.3,59.930157394627365,
118.75,119.0,41,0.0,Stimuli/Blank.png,0,0,0.0,0,199,199,199,,,,,,,,,,,,,118.75394679999954,0.0039467999995395076,None,,151.95548019999933,151.95548019999933,151.95548019999933,151.95548019999933,151.95548019999933,151.95548019999933,151.95548019999933,151.95548019999933,151.95548019999933,151.95548019999933,008,P006,2025_Jan_25_1228,ConditionRich,2021.2.3,59.930157394627365,
119.0,119.75,11,0.75,Stimuli/P006/sun_bjoocjyyhsmsbprr.jpg,0,0,0.0,0,200,200,200,,,,,,,,,,,,,119.00625669999954,0.0062566999995397055,None,,152.2223796999997,152.2223796999997,152.2223796999997,152.2223796999997,152.2223796999997,152.2223796999997,152.2223796999997,152.2223796999997,152.2223796999997,152.2223796999997,008,P006,2025_Jan_25_1228,ConditionRich,2021.2.3,59.930157394627365,
119.75,120.0,41,0.0,Stimuli/Blank.png,0,0,0.0,0,201,201,201,,,,,,,,,,,,,119.77107329999944,0.021073299999443407,None,,152.97304689999964,152.97304689999964,152.97304689999964,152.97304689999964,152.97304689999964,152.97304689999964,152.97304689999964,152.97304689999964,152.97304689999964,152.97304689999964,008,P006,2025_Jan_25_1228,ConditionRich,2021.2.3,59.930157394627365,
120.0,120.75,31,0.75,Stimuli/P006/things_jukebox_03n.jpg,0,0,0.0,0,202,202,202,,,,,,,,,,,,,120.00748620000013,0.007486200000130339,None,,153.22326469999916,153.22326469999916,153.22326469999916,153.22326469999916,153.22326469999916,153.22326469999916,153.22326469999916,153.22326469999916,153.22326469999916,153.22326469999916,008,P006,2025_Jan_25_1228,ConditionRich,2021.2.3,59.930157394627365,
120.75,121.0,41,0.0,Stimuli/Blank.png,0,0,0.0,0,203,203,203,,,,,,,,,,,,,120.7726047999995,0.022604799999498937,None,,153.9739215999998,153.9739215999998,153.9739215999998,153.9739215999998,153.9739215999998,153.9739215999998,153.9739215999998,153.9739215999998,153.9739215999998,153.9739215999998,008,P006,2025_Jan_25_1228,ConditionRich,2021.2.3,59.930157394627365,
121.0,121.75,31,0.75,Stimuli/P006/things_jukebox_03n.jpg,0,0,0.0,0,204,204,204,,,,,,,,,,,,,121.00595949999934,0.005959499999335094,None,,154.20746149999923,154.20746149999923,154.20746149999923,154.20746149999923,154.20746149999923,154.20746149999923,154.20746149999923,154.20746149999923,154.20746149999923,154.20746149999923,008,P006,2025_Jan_25_1228,ConditionRich,2021.2.3,59.930157394627365,
121.75,122.0,41,0.0,Stimuli/Blank.png,0,0,0.0,0,205,205,205,,,,,,,,,,,,,121.7574139999997,0.007413999999698717,None,,154.9581365999993,154.9581365999993,154.9581365999993,154.9581365999993,154.9581365999993,154.9581365999993,154.9581365999993,154.9581365999993,154.9581365999993,154.9581365999993,008,P006,2025_Jan_25_1228,ConditionRich,2021.2.3,59.930157394627365,
122.0,122.75,31,0.75,Stimuli/P006/things_jukebox_03n.jpg,0,0,0.0,0,206,206,206,,,,,,,,,,,,,122.00731709999945,0.007317099999454513,None,,155.20834159999959,155.20834159999959,155.20834159999959,155.20834159999959,155.20834159999959,155.20834159999959,155.20834159999959,155.20834159999959,155.20834159999959,155.20834159999959,008,P006,2025_Jan_25_1228,ConditionRich,2021.2.3,59.930157394627365,
122.75,123.0,41,0.0,Stimuli/Blank.png,0,0,0.0,0,207,207,207,,,,,,,,,,,,,122.75728650000019,0.007286500000191154,None,,155.95901589999994,155.95901589999994,155.95901589999994,155.95901589999994,155.95901589999994,155.95901589999994,155.95901589999994,155.95901589999994,155.95901589999994,155.95901589999994,008,P006,2025_Jan_25_1228,ConditionRich,2021.2.3,59.930157394627365,
123.0,123.75,31,0.75,Stimuli/P006/things_jukebox_03n.jpg,0,0,0.0,0,208,208,208,,,,,,,,,,,,,123.00761629999943,0.007616299999426701,None,,156.20922439999958,156.20922439999958,156.20922439999958,156.20922439999958,156.20922439999958,156.20922439999958,156.20922439999958,156.20922439999958,156.20922439999958,156.20922439999958,008,P006,2025_Jan_25_1228,ConditionRich,2021.2.3,59.930157394627365,
123.75,124.0,41,0.0,Stimuli/Blank.png,0,0,0.0,0,209,209,209,,,,,,,,,,,,,123.75860180000018,0.008601800000178628,None,,156.9599989999997,156.9599989999997,156.9599989999997,156.9599989999997,156.9599989999997,156.9599989999997,156.9599989999997,156.9599989999997,156.9599989999997,156.9599989999997,008,P006,2025_Jan_25_1228,ConditionRich,2021.2.3,59.930157394627365,
124.0,124.75,34,0.75,Stimuli/P006/things_patty_03s.jpg,1,0,0.75,0,210,210,210,,,,,,,,,,,,,124.00892589999967,0.008925899999667308,None,,157.2267895999994,157.2267895999994,157.2267895999994,157.2267895999994,157.2267895999994,157.2267895999994,157.2267895999994,157.94412959999954,157.2267895999994,157.2267895999994,008,P006,2025_Jan_25_1228,ConditionRich,2021.2.3,59.930157394627365,
124.75,125.0,41,0.0,Stimuli/Blank.png,0,0,0.0,0,211,211,211,,,,,,,,,,,,,124.77612669999962,0.02612669999962236,1,0.05080350000025646,157.97746089999964,157.97746089999964,157.97746089999964,157.97746089999964,157.97746089999964,157.97746089999964,157.97746089999964,157.97746089999964,157.97746089999964,157.97746089999964,008,P006,2025_Jan_25_1228,ConditionRich,2021.2.3,59.930157394627365,
125.0,125.75,34,0.75,Stimuli/P006/things_patty_03s.jpg,0,0,0.0,0,212,212,212,,,,,,,,,,,,,125.00896329999978,0.008963299999777519,None,,158.2276953999999,158.2276953999999,158.2276953999999,158.2276953999999,158.2276953999999,158.2276953999999,158.2276953999999,158.2276953999999,158.2276953999999,158.2276953999999,008,P006,2025_Jan_25_1228,ConditionRich,2021.2.3,59.930157394627365,
125.75,126.0,41,0.0,Stimuli/Blank.png,0,0,0.0,0,213,213,213,,,,,,,,,,,,,125.77745799999957,0.027457999999569438,None,,158.9784179999997,158.9784179999997,158.9784179999997,158.9784179999997,158.9784179999997,158.9784179999997,158.9784179999997,158.9784179999997,158.9784179999997,158.9784179999997,008,P006,2025_Jan_25_1228,ConditionRich,2021.2.3,59.930157394627365,
126.0,126.75,34,0.75,Stimuli/P006/things_patty_03s.jpg,0,0,0.0,0,214,214,214,,,,,,,,,,,,,126.01018959999965,0.010189599999648635,None,,159.21187589999954,159.21187589999954,159.21187589999954,159.21187589999954,159.21187589999954,159.21187589999954,159.21187589999954,159.21187589999954,159.21187589999954,159.21187589999954,008,P006,2025_Jan_25_1228,ConditionRich,2021.2.3,59.930157394627365,
126.75,127.0,41,0.0,Stimuli/Blank.png,0,0,0.0,0,215,215,215,,,,,,,,,,,,,126.76181429999997,0.01181429999996908,None,,159.96255389999988,159.96255389999988,159.96255389999988,159.96255389999988,159.96255389999988,159.96255389999988,159.96255389999988,159.96255389999988,159.96255389999988,159.96255389999988,008,P006,2025_Jan_25_1228,ConditionRich,2021.2.3,59.930157394627365,
127.0,127.75,34,0.75,Stimuli/P006/things_patty_03s.jpg,0,0,0.0,0,216,216,216,,,,,,,,,,,,,127.01214639999944,0.012146399999437563,None,,160.22946009999941,160.22946009999941,160.22946009999941,160.22946009999941,160.22946009999941,160.22946009999941,160.22946009999941,160.22946009999941,160.22946009999941,160.22946009999941,008,P006,2025_Jan_25_1228,ConditionRich,2021.2.3,59.930157394627365,
127.75,128.0,41,0.0,Stimuli/Blank.png,0,0,0.0,0,217,217,217,,,,,,,,,,,,,127.7786443999994,0.0286443999993935,None,,160.9801005999998,160.9801005999998,160.9801005999998,160.9801005999998,160.9801005999998,160.9801005999998,160.9801005999998,160.9801005999998,160.9801005999998,160.9801005999998,008,P006,2025_Jan_25_1228,ConditionRich,2021.2.3,59.930157394627365,
128.0,128.75,32,0.75,Stimuli/P006/things_jumpsuit_03s.jpg,0,0,0.0,0,218,218,218,,,,,,,,,,,,,128.01183519999995,0.011835199999950419,None,,161.2136443999998,161.2136443999998,161.2136443999998,161.2136443999998,161.2136443999998,161.2136443999998,161.2136443999998,161.2136443999998,161.2136443999998,161.2136443999998,008,P006,2025_Jan_25_1228,ConditionRich,2021.2.3,59.930157394627365,
128.75,129.0,41,0.0,Stimuli/Blank.png,0,0,0.0,0,219,219,219,,,,,,,,,,,,,128.76289409999936,0.012894099999357422,None,,161.96430449999934,161.96430449999934,161.96430449999934,161.96430449999934,161.96430449999934,161.96430449999934,161.96430449999934,161.96430449999934,161.96430449999934,161.96430449999934,008,P006,2025_Jan_25_1228,ConditionRich,2021.2.3,59.930157394627365,
129.0,129.75,32,0.75,Stimuli/P006/things_jumpsuit_03s.jpg,0,0,0.0,0,220,220,220,,,,,,,,,,,,,129.0133492999994,0.013349299999390496,None,,162.21452489999956,162.21452489999956,162.21452489999956,162.21452489999956,162.21452489999956,162.21452489999956,162.21452489999956,162.21452489999956,162.21452489999956,162.21452489999956,008,P006,2025_Jan_25_1228,ConditionRich,2021.2.3,59.930157394627365,
129.75,130.0,41,0.0,Stimuli/Blank.png,0,0,0.0,0,221,221,221,,,,,,,,,,,,,129.76402899999994,0.014028999999936786,None,,162.96520429999964,162.96520429999964,162.96520429999964,162.96520429999964,162.96520429999964,162.96520429999964,162.96520429999964,162.96520429999964,162.96520429999964,162.96520429999964,008,P006,2025_Jan_25_1228,ConditionRich,2021.2.3,59.930157394627365,
130.0,130.75,32,0.75,Stimuli/P006/things_jumpsuit_03s.jpg,0,0,0.0,0,222,222,222,,,,,,,,,,,,,130.01369429999977,0.01369429999977001,None,,163.23210519999975,163.23210519999975,163.23210519999975,163.23210519999975,163.23210519999975,163.23210519999975,163.23210519999975,163.23210519999975,163.23210519999975,163.23210519999975,008,P006,2025_Jan_25_1228,ConditionRich,2021.2.3,59.930157394627365,
130.75,131.0,41,0.0,Stimuli/Blank.png,0,0,0.0,0,223,223,223,,,,,,,,,,,,,130.78214620000017,0.03214620000017021,None,,163.9827654999999,163.9827654999999,163.9827654999999,163.9827654999999,163.9827654999999,163.9827654999999,163.9827654999999,163.9827654999999,163.9827654999999,163.9827654999999,008,P006,2025_Jan_25_1228,ConditionRich,2021.2.3,59.930157394627365,
131.0,131.75,32,0.75,Stimuli/P006/things_jumpsuit_03s.jpg,0,0,0.0,0,224,224,224,,,,,,,,,,,,,131.01496059999954,0.014960599999540136,None,,164.23298389999945,164.23298389999945,164.23298389999945,164.23298389999945,164.23298389999945,164.23298389999945,164.23298389999945,164.23298389999945,164.23298389999945,164.23298389999945,008,P006,2025_Jan_25_1228,ConditionRich,2021.2.3,59.930157394627365,
131.75,132.0,41,0.0,Stimuli/Blank.png,0,0,0.0,0,225,225,225,,,,,,,,,,,,,131.7824972999997,0.03249729999970441,None,,164.98364429999947,164.98364429999947,164.98364429999947,164.98364429999947,164.98364429999947,164.98364429999947,164.98364429999947,164.98364429999947,164.98364429999947,164.98364429999947,008,P006,2025_Jan_25_1228,ConditionRich,2021.2.3,59.930157394627365,
132.0,132.75,28,0.75,Stimuli/P006/things_girl_03s.jpg,0,0,0.0,0,226,226,226,,,,,,,,,,,,,131.99889129999974,-0.0011087000002589775,None,,165.21717139999964,165.21717139999964,165.21717139999964,165.21717139999964,165.21717139999964,165.21717139999964,165.21717139999964,165.21717139999964,165.21717139999964,165.21717139999964,008,P006,2025_Jan_25_1228,ConditionRich,2021.2.3,59.930157394627365,
132.75,133.0,41,0.0,Stimuli/Blank.png,0,0,0.0,0,227,227,227,,,,,,,,,,,,,132.76698279999982,0.016982799999823328,None,,165.98454609999953,165.98454609999953,165.98454609999953,165.98454609999953,165.98454609999953,165.98454609999953,165.98454609999953,165.98454609999953,165.98454609999953,165.98454609999953,008,P006,2025_Jan_25_1228,ConditionRich,2021.2.3,59.930157394627365,
133.0,133.75,28,0.75,Stimuli/P006/things_girl_03s.jpg,0,0,0.0,0,228,228,228,,,,,,,,,,,,,133.01729280000018,0.01729280000017752,None,,166.23473319999994,166.23473319999994,166.23473319999994,166.23473319999994,166.23473319999994,166.23473319999994,166.23473319999994,166.23473319999994,166.23473319999994,166.23473319999994,008,P006,2025_Jan_25_1228,ConditionRich,2021.2.3,59.930157394627365,
133.75,134.0,41,0.0,Stimuli/Blank.png,0,0,0.0,0,229,229,229,,,,,,,,,,,,,133.76754359999995,0.017543599999953585,None,,166.96871459999966,166.96871459999966,166.96871459999966,166.96871459999966,166.96871459999966,166.96871459999966,166.96871459999966,166.96871459999966,166.96871459999966,166.96871459999966,008,P006,2025_Jan_25_1228,ConditionRich,2021.2.3,59.930157394627365,
134.0,134.75,28,0.75,Stimuli/P006/things_girl_03s.jpg,1,0,0.75,0,230,230,230,,,,,,,,,,,,,134.00140109999938,0.0014010999993843143,1,0.66762000000017,167.21894259999954,167.21894259999954,167.21894259999954,167.21894259999954,167.21894259999954,167.21894259999954,167.21894259999954,167.93626649999987,167.21894259999954,167.21894259999954,008,P006,2025_Jan_25_1228,ConditionRich,2021.2.3,59.930157394627365,
134.75,135.0,41,0.0,Stimuli/Blank.png,0,0,0.0,0,231,231,231,,,,,,,,,,,,,134.76848679999966,0.018486799999664072,None,,167.9696054999995,167.9696054999995,167.9696054999995,167.9696054999995,167.9696054999995,167.9696054999995,167.9696054999995,167.9696054999995,167.9696054999995,167.9696054999995,008,P006,2025_Jan_25_1228,ConditionRich,2021.2.3,59.930157394627365,
135.0,135.75,28,0.75,Stimuli/P006/things_girl_03s.jpg,0,0,0.0,0,232,232,232,,,,,,,,,,,,,135.00170530000014,0.0017053000001396867,None,,168.20314319999943,168.20314319999943,168.20314319999943,168.20314319999943,168.20314319999943,168.20314319999943,168.20314319999943,168.20314319999943,168.20314319999943,168.20314319999943,008,P006,2025_Jan_25_1228,ConditionRich,2021.2.3,59.930157394627365,
135.75,136.0,41,0.0,Stimuli/Blank.png,0,0,0.0,0,233,233,233,,,,,,,,,,,,,135.75260189999972,0.002601899999717716,None,,168.95378549999987,168.95378549999987,168.95378549999987,168.95378549999987,168.95378549999987,168.95378549999987,168.95378549999987,168.95378549999987,168.95378549999987,168.95378549999987,008,P006,2025_Jan_25_1228,ConditionRich,2021.2.3,59.930157394627365,
136.0,136.75,40,0.75,Stimuli/P006/things_woman_03s.jpg,0,0,0.0,0,234,234,234,,,,,,,,,,,,,136.0029115999996,0.002911599999606551,None,,169.20403139999962,169.20403139999962,169.20403139999962,169.20403139999962,169.20403139999962,169.20403139999962,169.20403139999962,169.20403139999962,169.20403139999962,169.20403139999962,008,P006,2025_Jan_25_1228,ConditionRich,2021.2.3,59.930157394627365,
136.75,137.0,41,0.0,Stimuli/Blank.png,0,0,0.0,0,235,235,235,,,,,,,,,,,,,136.7527788999996,0.0027788999996118946,None,,169.9547150999997,169.9547150999997,169.9547150999997,169.9547150999997,169.9547150999997,169.9547150999997,169.9547150999997,169.9547150999997,169.9547150999997,169.9547150999997,008,P006,2025_Jan_25_1228,ConditionRich,2021.2.3,59.930157394627365,
137.0,137.75,40,0.75,Stimuli/P006/things_woman_03s.jpg,0,0,0.0,0,236,236,236,,,,,,,,,,,,,137.00322210000013,0.0032221000001300126,None,,170.20490619999964,170.20490619999964,170.20490619999964,170.20490619999964,170.20490619999964,170.20490619999964,170.20490619999964,170.20490619999964,170.20490619999964,170.20490619999964,008,P006,2025_Jan_25_1228,ConditionRich,2021.2.3,59.930157394627365,
137.75,138.0,41,0.0,Stimuli/Blank.png,0,0,0.0,0,237,237,237,,,,,,,,,,,,,137.7541229999997,0.004122999999708554,None,,170.95557349999945,170.95557349999945,170.95557349999945,170.95557349999945,170.95557349999945,170.95557349999945,170.95557349999945,170.95557349999945,170.95557349999945,170.95557349999945,008,P006,2025_Jan_25_1228,ConditionRich,2021.2.3,59.930157394627365,
138.0,138.75,40,0.75,Stimuli/P006/things_woman_03s.jpg,0,0,0.0,0,238,238,238,,,,,,,,,,,,,138.0064010999995,0.006401099999493454,None,,171.22247349999998,171.22247349999998,171.22247349999998,171.22247349999998,171.22247349999998,171.22247349999998,171.22247349999998,171.22247349999998,171.22247349999998,171.22247349999998,008,P006,2025_Jan_25_1228,ConditionRich,2021.2.3,59.930157394627365,
138.75,139.0,41,0.0,Stimuli/Blank.png,0,0,0.0,0,239,239,239,,,,,,,,,,,,,138.7712905999997,0.021290599999701953,None,,171.97319289999996,171.97319289999996,171.97319289999996,171.97319289999996,171.97319289999996,171.97319289999996,171.97319289999996,171.97319289999996,171.97319289999996,171.97319289999996,008,P006,2025_Jan_25_1228,ConditionRich,2021.2.3,59.930157394627365,
139.0,139.75,40,0.75,Stimuli/P006/things_woman_03s.jpg,0,0,0.0,0,240,240,240,,,,,,,,,,,,,139.00766440000007,0.007664400000066962,None,,172.2233628999993,172.2233628999993,172.2233628999993,172.2233628999993,172.2233628999993,172.2233628999993,172.2233628999993,172.2233628999993,172.2233628999993,172.2233628999993,008,P006,2025_Jan_25_1228,ConditionRich,2021.2.3,59.930157394627365,
139.75,140.0,41,0.0,Stimuli/Blank.png,0,0,0.0,0,241,241,241,,,,,,,,,,,,,139.7720408999994,0.022040899999410613,None,,172.97402339999917,172.97402339999917,172.97402339999917,172.97402339999917,172.97402339999917,172.97402339999917,172.97402339999917,172.97402339999917,172.97402339999917,172.97402339999917,008,P006,2025_Jan_25_1228,ConditionRich,2021.2.3,59.930157394627365,
140.0,140.75,20,0.75,Stimuli/P006/sun_dvxuxzytfdbjyzit.jpg,0,0,0.0,0,242,242,242,,,,,,,,,,,,,140.00703819999944,0.0070381999994424405,None,,173.22424019999926,173.22424019999926,173.22424019999926,173.22424019999926,173.22424019999926,173.22424019999926,173.22424019999926,173.22424019999926,173.22424019999926,173.22424019999926,008,P006,2025_Jan_25_1228,ConditionRich,2021.2.3,59.930157394627365,
140.75,141.0,41,0.0,Stimuli/Blank.png,0,0,0.0,0,243,243,243,,,,,,,,,,,,,140.77296810000007,0.02296810000007099,None,,173.97490779999953,173.97490779999953,173.97490779999953,173.97490779999953,173.97490779999953,173.97490779999953,173.97490779999953,173.97490779999953,173.97490779999953,173.97490779999953,008,P006,2025_Jan_25_1228,ConditionRich,2021.2.3,59.930157394627365,
141.0,141.75,20,0.75,Stimuli/P006/sun_dvxuxzytfdbjyzit.jpg,1,0,0.75,0,244,244,244,,,,,,,,,,,,,141.0078741999996,0.00787419999960548,1,0.4411398000002009,174.2251258999995,174.2251258999995,174.2251258999995,174.2251258999995,174.2251258999995,174.2251258999995,174.2251258999995,174.94242419999955,174.2251258999995,174.2251258999995,008,P006,2025_Jan_25_1228,ConditionRich,2021.2.3,59.930157394627365,
141.75,142.0,41,0.0,Stimuli/Blank.png,0,0,0.0,0,245,245,245,,,,,,,,,,,,,141.77637139999933,0.026371399999334244,5,0.19284929999957967,174.9924736999992,174.9924736999992,174.9924736999992,174.9924736999992,174.9924736999992,174.9924736999992,174.9924736999992,174.9924736999992,174.9924736999992,174.9924736999992,008,P006,2025_Jan_25_1228,ConditionRich,2021.2.3,59.930157394627365,
142.0,142.75,20,0.75,Stimuli/P006/sun_dvxuxzytfdbjyzit.jpg,0,0,0.0,0,246,246,246,,,,,,,,,,,,,142.0252074,0.025207399999999325,None,,175.2426888,175.2426888,175.2426888,175.2426888,175.2426888,175.2426888,175.2426888,175.2426888,175.2426888,175.2426888,008,P006,2025_Jan_25_1228,ConditionRich,2021.2.3,59.930157394627365,
142.75,143.0,41,0.0,Stimuli/Blank.png,0,0,0.0,0,247,247,247,,,,,,,,,,,,,142.77756059999956,0.02756059999956051,None,,175.99335959999917,175.99335959999917,175.99335959999917,175.99335959999917,175.99335959999917,175.99335959999917,175.99335959999917,175.99335959999917,175.99335959999917,175.99335959999917,008,P006,2025_Jan_25_1228,ConditionRich,2021.2.3,59.930157394627365,
143.0,143.75,20,0.75,Stimuli/P006/sun_dvxuxzytfdbjyzit.jpg,0,0,0.0,0,248,248,248,,,,,,,,,,,,,143.02687609999975,0.026876099999753933,None,,176.24357959999998,176.24357959999998,176.24357959999998,176.24357959999998,176.24357959999998,176.24357959999998,176.24357959999998,176.24357959999998,176.24357959999998,176.24357959999998,008,P006,2025_Jan_25_1228,ConditionRich,2021.2.3,59.930157394627365,
143.75,144.0,41,0.0,Stimuli/Blank.png,0,0,0.0,0,249,249,249,,,,,,,,,,,,,143.77597199999946,0.025971999999455875,None,,176.9777600999996,176.9777600999996,176.9777600999996,176.9777600999996,176.9777600999996,176.9777600999996,176.9777600999996,176.9777600999996,176.9777600999996,176.9777600999996,008,P006,2025_Jan_25_1228,ConditionRich,2021.2.3,59.930157394627365,
144.0,144.75,16,0.75,Stimuli/P006/sun_bwentnobehmvaxkp.jpg,0,0,0.0,0,250,250,250,,,,,,,,,,,,,144.00953200000004,0.009532000000035623,None,,177.21109479999996,177.21109479999996,177.21109479999996,177.21109479999996,177.21109479999996,177.21109479999996,177.21109479999996,177.21109479999996,177.21109479999996,177.21109479999996,008,P006,2025_Jan_25_1228,ConditionRich,2021.2.3,59.930157394627365,
144.75,145.0,41,0.0,Stimuli/Blank.png,0,0,0.0,0,251,251,251,,,,,,,,,,,,,144.7617822000002,0.011782200000197918,None,,177.9784585999996,177.9784585999996,177.9784585999996,177.9784585999996,177.9784585999996,177.9784585999996,177.9784585999996,177.9784585999996,177.9784585999996,177.9784585999996,008,P006,2025_Jan_25_1228,ConditionRich,2021.2.3,59.930157394627365,
145.0,145.75,16,0.75,Stimuli/P006/sun_bwentnobehmvaxkp.jpg,0,0,0.0,0,252,252,252,,,,,,,,,,,,,145.02711519999957,0.027115199999570905,None,,178.228658,178.228658,178.228658,178.228658,178.228658,178.228658,178.228658,178.228658,178.228658,178.228658,008,P006,2025_Jan_25_1228,ConditionRich,2021.2.3,59.930157394627365,
145.75,146.0,41,0.0,Stimuli/Blank.png,0,0,0.0,0,253,253,253,,,,,,,,,,,,,145.7613419999998,0.011341999999785912,None,,178.96264529999917,178.96264529999917,178.96264529999917,178.96264529999917,178.96264529999917,178.96264529999917,178.96264529999917,178.96264529999917,178.96264529999917,178.96264529999917,008,P006,2025_Jan_25_1228,ConditionRich,2021.2.3,59.930157394627365,
146.0,146.75,16,0.75,Stimuli/P006/sun_bwentnobehmvaxkp.jpg,0,0,0.0,0,254,254,254,,,,,,,,,,,,,146.01140359999954,0.011403599999539438,None,,179.2128619999994,179.2128619999994,179.2128619999994,179.2128619999994,179.2128619999994,179.2128619999994,179.2128619999994,179.2128619999994,179.2128619999994,179.2128619999994,008,P006,2025_Jan_25_1228,ConditionRich,2021.2.3,59.930157394627365,
146.75,147.0,41,0.0,Stimuli/Blank.png,0,0,0.0,0,255,255,255,,,,,,,,,,,,,146.7630196,0.013019600000006903,None,,179.9802155999996,179.9802155999996,179.9802155999996,179.9802155999996,179.9802155999996,179.9802155999996,179.9802155999996,179.9802155999996,179.9802155999996,179.9802155999996,008,P006,2025_Jan_25_1228,ConditionRich,2021.2.3,59.930157394627365,
147.0,147.75,16,0.75,Stimuli/P006/sun_bwentnobehmvaxkp.jpg,0,0,0.0,0,256,256,256,,,,,,,,,,,,,147.02888679999978,0.028886799999781942,None,,180.24711949999983,180.24711949999983,180.24711949999983,180.24711949999983,180.24711949999983,180.24711949999983,180.24711949999983,180.24711949999983,180.24711949999983,180.24711949999983,008,P006,2025_Jan_25_1228,ConditionRich,2021.2.3,59.930157394627365,
147.75,148.0,41,0.0,Stimuli/Blank.png,0,0,0.0,0,257,257,257,,,,,,,,,,,,,147.78117810000003,0.031178100000033737,5,0.1875517000007676,180.9977771999993,180.9977771999993,180.9977771999993,180.9977771999993,180.9977771999993,180.9977771999993,180.9977771999993,180.9977771999993,180.9977771999993,180.9977771999993,008,P006,2025_Jan_25_1228,ConditionRich,2021.2.3,59.930157394627365,
148.0,148.75,10,0.75,Stimuli/P006/sun_bgnxbfhmwhliypvg.jpg,0,0,0.0,0,258,258,258,,,,,,,,,,,,,148.03171719999955,0.03171719999954803,None,,181.24799259999963,181.24799259999963,181.24799259999963,181.24799259999963,181.24799259999963,181.24799259999963,181.24799259999963,181.24799259999963,181.24799259999963,181.24799259999963,008,P006,2025_Jan_25_1228,ConditionRich,2021.2.3,59.930157394627365,
148.75,149.0,41,0.0,Stimuli/Blank.png,0,0,0.0,0,259,259,259,,,,,,,,,,,,,148.76325610000004,0.013256100000035076,None,,181.96529250000003,181.96529250000003,181.96529250000003,181.96529250000003,181.96529250000003,181.96529250000003,181.96529250000003,181.96529250000003,181.96529250000003,181.96529250000003,008,P006,2025_Jan_25_1228,ConditionRich,2021.2.3,59.930157394627365,
149.0,149.75,10,0.75,Stimuli/P006/sun_bgnxbfhmwhliypvg.jpg,0,0,0.0,0,260,260,260,,,,,,,,,,,,,149.01357709999957,0.01357709999956569,None,,182.23219589999917,182.23219589999917,182.23219589999917,182.23219589999917,182.23219589999917,182.23219589999917,182.23219589999917,182.23219589999917,182.23219589999917,182.23219589999917,008,P006,2025_Jan_25_1228,ConditionRich,2021.2.3,59.930157394627365,
149.75,150.0,41,0.0,Stimuli/Blank.png,0,0,0.0,0,261,261,261,,,,,,,,,,,,,149.78219679999984,0.03219679999983782,None,,182.98286469999948,182.98286469999948,182.98286469999948,182.98286469999948,182.98286469999948,182.98286469999948,182.98286469999948,182.98286469999948,182.98286469999948,182.98286469999948,008,P006,2025_Jan_25_1228,ConditionRich,2021.2.3,59.930157394627365,
