eventStartTime,eventEndTime,eventCond,imSize,imFile,responseEvent,fixRespStart,fixRespEnd,Events.thisRepN,Events.thisTrialN,Events.thisN,Events.thisIndex,Instructions.started,Instructions.stopped,participantReadyResponse.keys,participantReadyResponse.rt,participantReadyResponse.started,participantReadyResponse.stopped,startWaitforTrigger,triggerResponse.keys,triggerResponse.rt,triggerResponse.started,triggerResponse.stopped,globalTimer,actualStartTime,startTimingDiff,participantResponse.keys,participantResponse.rt,participantResponse.started,participantResponse.stopped,image.started,image.stopped,fixationOutside.started,fixationOutside.stopped,fixationResponse.started,fixationResponse.stopped,fixationInside.started,fixationInside.stopped,session,participant,date,expName,psychopyVersion,frameRate,
,,,,,,,,,,,,20.892701800000395,None,1,1.3140809999995327,20.892701800000395,None,,,,,,,,,,,,,,,,,,,,,009,P006,2025_Jan_25_1235,ConditionRich,2021.2.3,59.93615600661668,
,,,,,,,,,,,,,,,,,,22.218811800000367,5,13.004098899999917,22.231567599999835,None,,,,,,,,,,,,,,,,009,P006,2025_Jan_25_1235,ConditionRich,2021.2.3,59.93615600661668,
0.0,4.0,0,0.0,Stimuli/Blank.png,0,0.0,0.0,0,0,0,0,,,,,,,,,,,,35.24622040000031,0.024292300000524847,0.024292300000524847,5,3.942833000000064,35.2930451000002,None,35.2930451000002,None,35.2930451000002,None,35.2930451000002,35.2930451000002,35.2930451000002,None,009,P006,2025_Jan_25_1235,ConditionRich,2021.2.3,59.93615600661668,
4.0,4.75,24,0.75,Stimuli/P006/things_crab_03s.jpg,0,0.0,0.0,0,1,1,1,,,,,,,,,,,,,4.0207680000003165,0.020768000000316533,None,,39.28014890000031,39.28014890000031,39.28014890000031,39.28014890000031,39.28014890000031,39.28014890000031,39.28014890000031,39.28014890000031,39.28014890000031,39.28014890000031,009,P006,2025_Jan_25_1235,ConditionRich,2021.2.3,59.93615600661668,
4.75,8.0,41,0.0,Stimuli/Blank.png,0,0.0,0.0,0,2,2,2,,,,,,,,,,,,,4.754549500000394,0.004549500000393891,5,3.2048674999996365,40.03080789999967,40.03080789999967,40.03080789999967,40.03080789999967,40.03080789999967,40.03080789999967,40.03080789999967,40.03080789999967,40.03080789999967,40.03080789999967,009,P006,2025_Jan_25_1235,ConditionRich,2021.2.3,59.93615600661668,
8.0,8.75,10,0.75,Stimuli/P006/sun_bgnxbfhmwhliypvg.jpg,1,0.0,0.75,0,3,3,3,,,,,,,,,,,,,8.023404100000334,0.023404100000334438,1,0.5002576999995654,43.283441600000515,43.283441600000515,43.283441600000515,43.283441600000515,43.283441600000515,43.283441600000515,43.283441600000515,None,43.283441600000515,43.283441600000515,009,P006,2025_Jan_25_1235,ConditionRich,2021.2.3,59.93615600661668,
8.75,12.0,41,0.0,Stimuli/Blank.png,0,0.0,0.0,0,4,4,4,,,,,,,,,,,,,8.758011500000066,0.008011500000066007,5,3.218275599999288,44.01742180000019,44.01742180000019,44.01742180000019,44.01742180000019,44.01742180000019,44.01742180000019,44.01742180000019,44.01742180000019,44.01742180000019,44.01742180000019,009,P006,2025_Jan_25_1235,ConditionRich,2021.2.3,59.93615600661668,
12.0,12.75,13,0.75,Stimuli/P006/sun_bruphbrfsbxowtlq.jpg,0,0.0,0.0,0,5,5,5,,,,,,,,,,,,,12.010235900000225,0.010235900000225229,None,,47.28697329999977,47.28697329999977,47.28697329999977,47.28697329999977,47.28697329999977,47.28697329999977,47.28697329999977,47.28697329999977,47.28697329999977,47.28697329999977,009,P006,2025_Jan_25_1235,ConditionRich,2021.2.3,59.93615600661668,
12.75,16.0,41,0.0,Stimuli/Blank.png,0,0.0,0.0,0,6,6,6,,,,,,,,,,,,,12.777707700000065,0.027707700000064506,5,3.198108599999614,48.037634700000126,48.037634700000126,48.037634700000126,48.037634700000126,48.037634700000126,48.037634700000126,48.037634700000126,48.037634700000126,48.037634700000126,48.037634700000126,009,P006,2025_Jan_25_1235,ConditionRich,2021.2.3,59.93615600661668,
16.0,16.75,40,0.75,Stimuli/P006/things_woman_03s.jpg,0,0.0,0.0,0,7,7,7,,,,,,,,,,,,,16.01318319999973,0.013183199999730277,None,,51.27381919999971,51.27381919999971,51.27381919999971,51.27381919999971,51.27381919999971,51.27381919999971,51.27381919999971,51.27381919999971,51.27381919999971,51.27381919999971,009,P006,2025_Jan_25_1235,ConditionRich,2021.2.3,59.93615600661668,
16.75,20.0,41,0.0,Stimuli/Blank.png,0,0.0,0.0,0,8,8,8,,,,,,,,,,,,,16.76426679999986,0.014266799999859359,5,1.211367799999607,52.02448319999985,52.02448319999985,52.02448319999985,52.02448319999985,52.02448319999985,52.02448319999985,52.02448319999985,52.02448319999985,52.02448319999985,52.02448319999985,009,P006,2025_Jan_25_1235,ConditionRich,2021.2.3,59.93615600661668,
20.0,20.75,12,0.75,Stimuli/P006/sun_bodyuiqwqpqzwfoz.jpg,0,0.0,0.0,0,9,9,9,,,,,,,,,,,,,20.000374799999918,0.00037479999991774093,None,,55.260671,55.260671,55.260671,55.260671,55.260671,55.260671,55.260671,55.260671,55.260671,55.260671,009,P006,2025_Jan_25_1235,ConditionRich,2021.2.3,59.93615600661668,
20.75,24.0,41,0.0,Stimuli/Blank.png,0,0.0,0.0,0,10,10,10,,,,,,,,,,,,,20.753279000000475,0.0032790000004752073,5,3.2076311000000715,56.02802090000023,56.02802090000023,56.02802090000023,56.02802090000023,56.02802090000023,56.02802090000023,56.02802090000023,56.02802090000023,56.02802090000023,56.02802090000023,009,P006,2025_Jan_25_1235,ConditionRich,2021.2.3,59.93615600661668,
24.0,24.75,7,0.75,Stimuli/P006/sun_bdmdlkpsznknrcqi.jpg,0,0.0,0.0,0,11,11,11,,,,,,,,,,,,,24.021338900000046,0.021338900000046124,None,,59.29756869999983,59.29756869999983,59.29756869999983,59.29756869999983,59.29756869999983,59.29756869999983,59.29756869999983,59.29756869999983,59.29756869999983,59.29756869999983,009,P006,2025_Jan_25_1235,ConditionRich,2021.2.3,59.93615600661668,
24.75,28.0,41,0.0,Stimuli/Blank.png,0,0.0,0.0,0,12,12,12,,,,,,,,,,,,,24.773367900000267,0.023367900000266673,5,3.1873960000002626,60.04824240000016,60.04824240000016,60.04824240000016,60.04824240000016,60.04824240000016,60.04824240000016,60.04824240000016,60.04824240000016,60.04824240000016,60.04824240000016,009,P006,2025_Jan_25_1235,ConditionRich,2021.2.3,59.93615600661668,
28.0,28.75,9,0.75,Stimuli/P006/sun_bfcmdrojsffdttzu.jpg,0,0.0,0.0,0,13,13,13,,,,,,,,,,,,,28.02371360000052,0.023713600000519364,None,,63.28453179999997,63.28453179999997,63.28453179999997,63.28453179999997,63.28453179999997,63.28453179999997,63.28453179999997,63.28453179999997,63.28453179999997,63.28453179999997,009,P006,2025_Jan_25_1235,ConditionRich,2021.2.3,59.93615600661668,
28.75,32.0,41,0.0,Stimuli/Blank.png,0,0.0,0.0,0,14,14,14,,,,,,,,,,,,,28.7582723000005,0.008272300000498944,5,3.2171165999998266,64.0184049999998,64.0184049999998,64.0184049999998,64.0184049999998,64.0184049999998,64.0184049999998,64.0184049999998,64.0184049999998,64.0184049999998,64.0184049999998,009,P006,2025_Jan_25_1235,ConditionRich,2021.2.3,59.93615600661668,
32.0,32.75,33,0.75,Stimuli/P006/things_man_03s.jpg,0,0.0,0.0,0,15,15,15,,,,,,,,,,,,,32.011881899999935,0.01188189999993483,None,,67.2879498000002,67.2879498000002,67.2879498000002,67.2879498000002,67.2879498000002,67.2879498000002,67.2879498000002,67.2879498000002,67.2879498000002,67.2879498000002,009,P006,2025_Jan_25_1235,ConditionRich,2021.2.3,59.93615600661668,
32.75,36.0,41,0.0,Stimuli/Blank.png,0,0.0,0.0,0,16,16,16,,,,,,,,,,,,,32.77848939999967,0.02848939999967115,5,3.1971174999998766,68.03861239999969,68.03861239999969,68.03861239999969,68.03861239999969,68.03861239999969,68.03861239999969,68.03861239999969,68.03861239999969,68.03861239999969,68.03861239999969,009,P006,2025_Jan_25_1235,ConditionRich,2021.2.3,59.93615600661668,
36.0,36.75,25,0.75,Stimuli/P006/things_dog_03s.jpg,0,0.0,0.0,0,17,17,17,,,,,,,,,,,,,36.014799499999754,0.014799499999753607,None,,71.27481249999983,71.27481249999983,71.27481249999983,71.27481249999983,71.27481249999983,71.27481249999983,71.27481249999983,71.27481249999983,71.27481249999983,71.27481249999983,009,P006,2025_Jan_25_1235,ConditionRich,2021.2.3,59.93615600661668,
36.75,40.0,41,0.0,Stimuli/Blank.png,0,0.0,0.0,0,18,18,18,,,,,,,,,,,,,36.76550810000026,0.015508100000261038,5,1.2100704000004043,72.02547419999973,72.02547419999973,72.02547419999973,72.02547419999973,72.02547419999973,72.02547419999973,72.02547419999973,72.02547419999973,72.02547419999973,72.02547419999973,009,P006,2025_Jan_25_1235,ConditionRich,2021.2.3,59.93615600661668,
40.0,40.75,5,0.75,Stimuli/P006/sun_axaqdcecfojvpvrl.jpg,0,0.0,0.0,0,19,19,19,,,,,,,,,,,,,40.00092940000013,0.0009294000001318636,None,,75.2616594000001,75.2616594000001,75.2616594000001,75.2616594000001,75.2616594000001,75.2616594000001,75.2616594000001,75.2616594000001,75.2616594000001,75.2616594000001,009,P006,2025_Jan_25_1235,ConditionRich,2021.2.3,59.93615600661668,
40.75,44.0,41,0.0,Stimuli/Blank.png,0,0.0,0.0,0,20,20,20,,,,,,,,,,,,,40.752500900000086,0.0025009000000864035,5,1.2232088999999178,76.01232309999978,76.01232309999978,76.01232309999978,76.01232309999978,76.01232309999978,76.01232309999978,76.01232309999978,76.01232309999978,76.01232309999978,76.01232309999978,009,P006,2025_Jan_25_1235,ConditionRich,2021.2.3,59.93615600661668,
44.0,44.75,39,0.75,Stimuli/P006/things_train_set_03s.jpg,0,0.0,0.0,0,21,21,21,,,,,,,,,,,,,44.00484200000028,0.004842000000280677,None,,79.28184800000054,79.28184800000054,79.28184800000054,79.28184800000054,79.28184800000054,79.28184800000054,79.28184800000054,79.28184800000054,79.28184800000054,79.28184800000054,009,P006,2025_Jan_25_1235,ConditionRich,2021.2.3,59.93615600661668,
44.75,48.0,41,0.0,Stimuli/Blank.png,0,0.0,0.0,0,22,22,22,,,,,,,,,,,,,44.773187300000245,0.02318730000024516,5,3.203219799999715,80.03253529999984,80.03253529999984,80.03253529999984,80.03253529999984,80.03253529999984,80.03253529999984,80.03253529999984,80.03253529999984,80.03253529999984,80.03253529999984,009,P006,2025_Jan_25_1235,ConditionRich,2021.2.3,59.93615600661668,
48.0,48.75,6,0.75,Stimuli/P006/sun_bbzkhzmxdjrfjpjz.jpg,0,0.0,0.0,0,23,23,23,,,,,,,,,,,,,48.00878459999967,0.008784599999671627,None,,83.26873070000056,83.26873070000056,83.26873070000056,83.26873070000056,83.26873070000056,83.26873070000056,83.26873070000056,83.26873070000056,83.26873070000056,83.26873070000056,009,P006,2025_Jan_25_1235,ConditionRich,2021.2.3,59.93615600661668,
48.75,52.0,41,0.0,Stimuli/Blank.png,0,0.0,0.0,0,24,24,24,,,,,,,,,,,,,48.758923100000175,0.0089231000001746,5,3.2161117000005106,84.01939050000055,84.01939050000055,84.01939050000055,84.01939050000055,84.01939050000055,84.01939050000055,84.01939050000055,84.01939050000055,84.01939050000055,84.01939050000055,009,P006,2025_Jan_25_1235,ConditionRich,2021.2.3,59.93615600661668,
52.0,52.75,23,0.75,Stimuli/P006/things_beetle_03s.jpg,0,0.0,0.0,0,25,25,25,,,,,,,,,,,,,52.011574799999835,0.011574799999834795,None,,87.27225879999969,87.27225879999969,87.27225879999969,87.27225879999969,87.27225879999969,87.27225879999969,87.27225879999969,87.27225879999969,87.27225879999969,87.27225879999969,009,P006,2025_Jan_25_1235,ConditionRich,2021.2.3,59.93615600661668,
52.75,56.0,41,0.0,Stimuli/Blank.png,0,0.0,0.0,0,26,26,26,,,,,,,,,,,,,52.76249269999971,0.012492699999711476,5,3.2126490999999078,88.022919,88.022919,88.022919,88.022919,88.022919,88.022919,88.022919,88.022919,88.022919,88.022919,009,P006,2025_Jan_25_1235,ConditionRich,2021.2.3,59.93615600661668,
56.0,56.75,28,0.75,Stimuli/P006/things_girl_03s.jpg,0,0.0,0.0,0,27,27,27,,,,,,,,,,,,,56.016467500000545,0.016467500000544533,None,,91.29247060000034,91.29247060000034,91.29247060000034,91.29247060000034,91.29247060000034,91.29247060000034,91.29247060000034,91.29247060000034,91.29247060000034,91.29247060000034,009,P006,2025_Jan_25_1235,ConditionRich,2021.2.3,59.93615600661668,
56.75,60.0,41,0.0,Stimuli/Blank.png,1,1.25,2.0,0,28,28,28,,,,,,,,,,,,,56.76783780000005,0.017837800000052084,5,3.192662699999346,92.04313629999979,92.04313629999979,92.04313629999979,92.04313629999979,92.04313629999979,92.04313629999979,93.2775485000002,94.02820780000002,92.04313629999979,92.04313629999979,009,P006,2025_Jan_25_1235,ConditionRich,2021.2.3,59.93615600661668,
60.0,60.75,30,0.75,Stimuli/P006/things_hood_03s.jpg,1,0.0,0.75,0,29,29,29,,,,,,,,,,,,,60.01908280000043,0.019082800000433053,1,0.5591724999994767,95.27932500000043,95.27932500000043,95.27932500000043,95.27932500000043,95.27932500000043,95.27932500000043,95.27932500000043,None,95.27932500000043,95.27932500000043,009,P006,2025_Jan_25_1235,ConditionRich,2021.2.3,59.93615600661668,
60.75,64.0,41,0.0,Stimuli/Blank.png,0,0.0,0.0,0,30,30,30,,,,,,,,,,,,,60.753613300000325,0.0036133000003246707,5,1.2222883000004003,96.01331000000027,96.01331000000027,96.01331000000027,96.01331000000027,96.01331000000027,96.01331000000027,96.01331000000027,96.01331000000027,96.01331000000027,96.01331000000027,009,P006,2025_Jan_25_1235,ConditionRich,2021.2.3,59.93615600661668,
64.0,64.75,18,0.75,Stimuli/P006/sun_bzqhpcsgzswozfhs.jpg,0,0.0,0.0,0,31,31,31,,,,,,,,,,,,,64.00667030000022,0.006670300000223506,None,,99.26679140000033,99.26679140000033,99.26679140000033,99.26679140000033,99.26679140000033,99.26679140000033,99.26679140000033,99.26679140000033,99.26679140000033,99.26679140000033,009,P006,2025_Jan_25_1235,ConditionRich,2021.2.3,59.93615600661668,
64.75,68.0,41,0.0,Stimuli/Blank.png,0,0.0,0.0,0,32,32,32,,,,,,,,,,,,,64.75871220000045,0.008712200000445591,5,3.2021239999994577,100.03352210000048,100.03352210000048,100.03352210000048,100.03352210000048,100.03352210000048,100.03352210000048,100.03352210000048,100.03352210000048,100.03352210000048,100.03352210000048,009,P006,2025_Jan_25_1235,ConditionRich,2021.2.3,59.93615600661668,
68.0,68.75,26,0.75,Stimuli/P006/things_face_03s.jpg,0,0.0,0.0,0,33,33,33,,,,,,,,,,,,,68.02797190000001,0.027971900000011374,None,,103.30307249999987,103.30307249999987,103.30307249999987,103.30307249999987,103.30307249999987,103.30307249999987,103.30307249999987,103.30307249999987,103.30307249999987,103.30307249999987,009,P006,2025_Jan_25_1235,ConditionRich,2021.2.3,59.93615600661668,
68.75,72.0,41,0.0,Stimuli/Blank.png,1,1.25,2.0,0,34,34,34,,,,,,,,,,,,,68.7787988,0.02879880000000412,5,3.1819612999997844,104.05373510000027,104.05373510000027,104.05373510000027,104.05373510000027,104.05373510000027,104.05373510000027,105.28814299999976,106.03881920000003,104.05373510000027,104.05373510000027,009,P006,2025_Jan_25_1235,ConditionRich,2021.2.3,59.93615600661668,
72.0,72.75,27,0.75,Stimuli/P006/things_first-aid_kit_03s.jpg,0,0.0,0.0,0,35,35,35,,,,,,,,,,,,,72.0297784000004,0.029778400000395777,None,,107.28992259999995,107.28992259999995,107.28992259999995,107.28992259999995,107.28992259999995,107.28992259999995,107.28992259999995,107.28992259999995,107.28992259999995,107.28992259999995,009,P006,2025_Jan_25_1235,ConditionRich,2021.2.3,59.93615600661668,
72.75,76.0,41,0.0,Stimuli/Blank.png,0,0.0,0.0,0,36,36,36,,,,,,,,,,,,,72.76323779999984,0.013237799999842537,5,1.2117559999996956,108.02393610000036,108.02393610000036,108.02393610000036,108.02393610000036,108.02393610000036,108.02393610000036,108.02393610000036,108.02393610000036,108.02393610000036,108.02393610000036,009,P006,2025_Jan_25_1235,ConditionRich,2021.2.3,59.93615600661668,
76.0,76.75,2,0.75,Stimuli/P006/sun_ahmycohdkioefoxs.jpg,0,0.0,0.0,0,37,37,37,,,,,,,,,,,,,75.9998000000005,-0.00019999999949504854,None,,111.26009320000048,111.26009320000048,111.26009320000048,111.26009320000048,111.26009320000048,111.26009320000048,111.26009320000048,111.26009320000048,111.26009320000048,111.26009320000048,009,P006,2025_Jan_25_1235,ConditionRich,2021.2.3,59.93615600661668,
76.75,80.0,41,0.0,Stimuli/Blank.png,0,0.0,0.0,0,38,38,38,,,,,,,,,,,,,76.7527941999997,0.0027941999996983213,5,3.2083363000001555,112.02745370000048,112.02745370000048,112.02745370000048,112.02745370000048,112.02745370000048,112.02745370000048,112.02745370000048,112.02745370000048,112.02745370000048,112.02745370000048,009,P006,2025_Jan_25_1235,ConditionRich,2021.2.3,59.93615600661668,
80.0,80.75,15,0.75,Stimuli/P006/sun_btkzuhaxqlacvmsv.jpg,0,0.0,0.0,0,39,39,39,,,,,,,,,,,,,80.02015279999978,0.020152799999777926,None,,115.28031319999991,115.28031319999991,115.28031319999991,115.28031319999991,115.28031319999991,115.28031319999991,115.28031319999991,115.28031319999991,115.28031319999991,115.28031319999991,009,P006,2025_Jan_25_1235,ConditionRich,2021.2.3,59.93615600661668,
80.75,84.0,41,0.0,Stimuli/Blank.png,0,0.0,0.0,0,40,40,40,,,,,,,,,,,,,80.75387990000036,0.003879900000356429,5,1.2212226999999984,116.01428670000041,116.01428670000041,116.01428670000041,116.01428670000041,116.01428670000041,116.01428670000041,116.01428670000041,116.01428670000041,116.01428670000041,116.01428670000041,009,P006,2025_Jan_25_1235,ConditionRich,2021.2.3,59.93615600661668,
84.0,100.0,0,0.0,Stimuli/Blank.png,1,13.0,13.75,0,41,41,41,,,,,,,,,,,,,84.00698420000026,0.006984200000260898,5,13.968377700000019,119.26715520000016,119.26715520000016,119.26715520000016,119.26715520000016,119.26715520000016,119.26715520000016,132.24531370000022,132.99595510000017,119.26715520000016,119.26715520000016,009,P006,2025_Jan_25_1235,ConditionRich,2021.2.3,59.93615600661668,
100.0,100.75,29,0.75,Stimuli/P006/things_guillotine_03s.jpg,0,0.0,0.0,0,42,42,42,,,,,,,,,,,,,100.00379010000051,0.00379010000051494,None,,135.2645994000004,135.2645994000004,135.2645994000004,135.2645994000004,135.2645994000004,135.2645994000004,135.2645994000004,135.2645994000004,135.2645994000004,135.2645994000004,009,P006,2025_Jan_25_1235,ConditionRich,2021.2.3,59.93615600661668,
100.75,104.0,41,0.0,Stimuli/Blank.png,0,0.0,0.0,0,43,43,43,,,,,,,,,,,,,100.75501489999988,0.005014899999878253,5,3.2201750000003813,136.01527429999987,136.01527429999987,136.01527429999987,136.01527429999987,136.01527429999987,136.01527429999987,136.01527429999987,136.01527429999987,136.01527429999987,136.01527429999987,009,P006,2025_Jan_25_1235,ConditionRich,2021.2.3,59.93615600661668,
104.0,104.75,8,0.75,Stimuli/P006/sun_bekkgqphzbclwpvb.jpg,0,0.0,0.0,0,44,44,44,,,,,,,,,,,,,104.00731340000038,0.007313400000384718,None,,139.2681373000005,139.2681373000005,139.2681373000005,139.2681373000005,139.2681373000005,139.2681373000005,139.2681373000005,139.2681373000005,139.2681373000005,139.2681373000005,009,P006,2025_Jan_25_1235,ConditionRich,2021.2.3,59.93615600661668,
104.75,108.0,41,0.0,Stimuli/Blank.png,0,0.0,0.0,0,45,45,45,,,,,,,,,,,,,104.75838870000007,0.008388700000068638,5,3.2166998000002422,140.0188030999998,140.0188030999998,140.0188030999998,140.0188030999998,140.0188030999998,140.0188030999998,140.0188030999998,140.0188030999998,140.0188030999998,140.0188030999998,009,P006,2025_Jan_25_1235,ConditionRich,2021.2.3,59.93615600661668,
108.0,108.75,16,0.75,Stimuli/P006/sun_bwentnobehmvaxkp.jpg,0,0.0,0.0,0,46,46,46,,,,,,,,,,,,,108.01141160000043,0.011411600000428734,None,,143.27166670000042,143.27166670000042,143.27166670000042,143.27166670000042,143.27166670000042,143.27166670000042,143.27166670000042,143.27166670000042,143.27166670000042,143.27166670000042,009,P006,2025_Jan_25_1235,ConditionRich,2021.2.3,59.93615600661668,
108.75,112.0,41,0.0,Stimuli/Blank.png,0,0.0,0.0,0,47,47,47,,,,,,,,,,,,,108.76230639999994,0.012306399999943096,5,3.2133091999994576,144.02233570000044,144.02233570000044,144.02233570000044,144.02233570000044,144.02233570000044,144.02233570000044,144.02233570000044,144.02233570000044,144.02233570000044,144.02233570000044,009,P006,2025_Jan_25_1235,ConditionRich,2021.2.3,59.93615600661668,
112.0,112.75,32,0.75,Stimuli/P006/things_jumpsuit_03s.jpg,0,0.0,0.0,0,48,48,48,,,,,,,,,,,,,112.01481979999971,0.014819799999713723,None,,147.2752074,147.2752074,147.2752074,147.2752074,147.2752074,147.2752074,147.2752074,147.2752074,147.2752074,147.2752074,009,P006,2025_Jan_25_1235,ConditionRich,2021.2.3,59.93615600661668,
112.75,116.0,41,0.0,Stimuli/Blank.png,0,0.0,0.0,0,49,49,49,,,,,,,,,,,,,112.76786040000025,0.017860400000245136,5,3.192904499999713,148.0425568999999,148.0425568999999,148.0425568999999,148.0425568999999,148.0425568999999,148.0425568999999,148.0425568999999,148.0425568999999,148.0425568999999,148.0425568999999,009,P006,2025_Jan_25_1235,ConditionRich,2021.2.3,59.93615600661668,
116.0,116.75,34,0.75,Stimuli/P006/things_patty_03s.jpg,0,0.0,0.0,0,50,50,50,,,,,,,,,,,,,116.01812229999996,0.01812229999995907,None,,151.27877200000057,151.27877200000057,151.27877200000057,151.27877200000057,151.27877200000057,151.27877200000057,151.27877200000057,151.27877200000057,151.27877200000057,151.27877200000057,009,P006,2025_Jan_25_1235,ConditionRich,2021.2.3,59.93615600661668,
116.75,120.0,41,0.0,Stimuli/Blank.png,0,0.0,0.0,0,51,51,51,,,,,,,,,,,,,116.75208850000035,0.002088500000354543,5,1.2227112999999008,152.01271850000012,152.01271850000012,152.01271850000012,152.01271850000012,152.01271850000012,152.01271850000012,152.01271850000012,152.01271850000012,152.01271850000012,152.01271850000012,009,P006,2025_Jan_25_1235,ConditionRich,2021.2.3,59.93615600661668,
120.0,120.75,21,0.75,Stimuli/P006/things_accordion_03s.jpg,0,0.0,0.0,0,52,52,52,,,,,,,,,,,,,120.00617340000008,0.00617340000007971,None,,155.2822729999998,155.2822729999998,155.2822729999998,155.2822729999998,155.2822729999998,155.2822729999998,155.2822729999998,155.2822729999998,155.2822729999998,155.2822729999998,009,P006,2025_Jan_25_1235,ConditionRich,2021.2.3,59.93615600661668,
120.75,124.0,41,0.0,Stimuli/Blank.png,0,0.0,0.0,0,53,53,53,,,,,,,,,,,,,120.77361699999983,0.023616999999831023,5,3.202442699999665,156.03294030000052,156.03294030000052,156.03294030000052,156.03294030000052,156.03294030000052,156.03294030000052,156.03294030000052,156.03294030000052,156.03294030000052,156.03294030000052,009,P006,2025_Jan_25_1235,ConditionRich,2021.2.3,59.93615600661668,
124.0,124.75,19,0.75,Stimuli/P006/sun_czspalxthlkjwoat.jpg,0,0.0,0.0,0,54,54,54,,,,,,,,,,,,,124.00848829999995,0.008488299999953597,None,,159.26912900000025,159.26912900000025,159.26912900000025,159.26912900000025,159.26912900000025,159.26912900000025,159.26912900000025,159.26912900000025,159.26912900000025,159.26912900000025,009,P006,2025_Jan_25_1235,ConditionRich,2021.2.3,59.93615600661668,
124.75,128.0,41,0.0,Stimuli/Blank.png,0,0.0,0.0,0,55,55,55,,,,,,,,,,,,,124.75938510000015,0.00938510000014503,5,3.2158307999998215,160.01979010000014,160.01979010000014,160.01979010000014,160.01979010000014,160.01979010000014,160.01979010000014,160.01979010000014,160.01979010000014,160.01979010000014,160.01979010000014,009,P006,2025_Jan_25_1235,ConditionRich,2021.2.3,59.93615600661668,
128.0,128.75,14,0.75,Stimuli/P006/sun_bsirencncgxteejx.jpg,0,0.0,0.0,0,56,56,56,,,,,,,,,,,,,128.01220829999966,0.012208299999656447,None,,163.27269500000057,163.27269500000057,163.27269500000057,163.27269500000057,163.27269500000057,163.27269500000057,163.27269500000057,163.27269500000057,163.27269500000057,163.27269500000057,009,P006,2025_Jan_25_1235,ConditionRich,2021.2.3,59.93615600661668,
128.75,132.0,41,0.0,Stimuli/Blank.png,0,0.0,0.0,0,57,57,57,,,,,,,,,,,,,128.7633304000001,0.013330400000086229,5,1.21213489999991,164.0233250000001,164.0233250000001,164.0233250000001,164.0233250000001,164.0233250000001,164.0233250000001,164.0233250000001,164.0233250000001,164.0233250000001,164.0233250000001,009,P006,2025_Jan_25_1235,ConditionRich,2021.2.3,59.93615600661668,
132.0,132.75,22,0.75,Stimuli/P006/things_baby_03s.jpg,0,0.0,0.0,0,58,58,58,,,,,,,,,,,,,131.9991455999998,-0.0008544000002075336,None,,167.25950920000014,167.25950920000014,167.25950920000014,167.25950920000014,167.25950920000014,167.25950920000014,167.25950920000014,167.25950920000014,167.25950920000014,167.25950920000014,009,P006,2025_Jan_25_1235,ConditionRich,2021.2.3,59.93615600661668,
132.75,136.0,41,0.0,Stimuli/Blank.png,0,0.0,0.0,0,59,59,59,,,,,,,,,,,,,132.7495428000002,-0.0004571999998006504,5,1.2255795999999464,168.01017299999967,168.01017299999967,168.01017299999967,168.01017299999967,168.01017299999967,168.01017299999967,168.01017299999967,168.01017299999967,168.01017299999967,168.01017299999967,009,P006,2025_Jan_25_1235,ConditionRich,2021.2.3,59.93615600661668,
136.0,136.75,37,0.75,Stimuli/P006/things_showerhead_03s.jpg,0,0.0,0.0,0,60,60,60,,,,,,,,,,,,,136.00326440000026,0.0032644000002619578,None,,171.27971919999982,171.27971919999982,171.27971919999982,171.27971919999982,171.27971919999982,171.27971919999982,171.27971919999982,171.27971919999982,171.27971919999982,171.27971919999982,009,P006,2025_Jan_25_1235,ConditionRich,2021.2.3,59.93615600661668,
136.75,140.0,41,0.0,Stimuli/Blank.png,1,1.25,2.0,0,61,61,61,,,,,,,,,,,,,136.77263550000043,0.02263550000043324,5,3.1883022999991226,172.0472236000005,172.0472236000005,172.0472236000005,172.0472236000005,172.0472236000005,172.0472236000005,173.28148220000003,174.03215660000023,172.0472236000005,172.0472236000005,009,P006,2025_Jan_25_1235,ConditionRich,2021.2.3,59.93615600661668,
140.0,140.75,1,0.75,Stimuli/P006/sun_adyhbxohydkpecty.jpg,0,0.0,0.0,0,62,62,62,,,,,,,,,,,,,140.02239999999983,0.022399999999834108,None,,175.28324950000024,175.28324950000024,175.28324950000024,175.28324950000024,175.28324950000024,175.28324950000024,175.28324950000024,175.28324950000024,175.28324950000024,175.28324950000024,009,P006,2025_Jan_25_1235,ConditionRich,2021.2.3,59.93615600661668,
140.75,144.0,41,0.0,Stimuli/Blank.png,0,0.0,0.0,0,63,63,63,,,,,,,,,,,,,140.75662699999975,0.006626999999753025,5,3.2182333000000654,176.0172322999997,176.0172322999997,176.0172322999997,176.0172322999997,176.0172322999997,176.0172322999997,176.0172322999997,176.0172322999997,176.0172322999997,176.0172322999997,009,P006,2025_Jan_25_1235,ConditionRich,2021.2.3,59.93615600661668,
144.0,144.75,20,0.75,Stimuli/P006/sun_dvxuxzytfdbjyzit.jpg,0,0.0,0.0,0,64,64,64,,,,,,,,,,,,,144.01012960000025,0.010129600000254868,None,,179.2701173000005,179.2701173000005,179.2701173000005,179.2701173000005,179.2701173000005,179.2701173000005,179.2701173000005,179.2701173000005,179.2701173000005,179.2701173000005,009,P006,2025_Jan_25_1235,ConditionRich,2021.2.3,59.93615600661668,
144.75,148.0,41,0.0,Stimuli/Blank.png,0,0.0,0.0,0,65,65,65,,,,,,,,,,,,,144.7604591999998,0.010459199999786506,5,3.2148323000001255,180.02076490000036,180.02076490000036,180.02076490000036,180.02076490000036,180.02076490000036,180.02076490000036,180.02076490000036,180.02076490000036,180.02076490000036,180.02076490000036,009,P006,2025_Jan_25_1235,ConditionRich,2021.2.3,59.93615600661668,
148.0,148.75,35,0.75,Stimuli/P006/things_pig_03s.jpg,0,0.0,0.0,0,66,66,66,,,,,,,,,,,,,148.01276580000012,0.012765800000124727,None,,183.27363859999969,183.27363859999969,183.27363859999969,183.27363859999969,183.27363859999969,183.27363859999969,183.27363859999969,183.27363859999969,183.27363859999969,183.27363859999969,009,P006,2025_Jan_25_1235,ConditionRich,2021.2.3,59.93615600661668,
148.75,152.0,41,0.0,Stimuli/Blank.png,0,0.0,0.0,0,67,67,67,,,,,,,,,,,,,148.76389240000026,0.013892400000258931,5,1.2111746000000494,184.0242949000003,184.0242949000003,184.0242949000003,184.0242949000003,184.0242949000003,184.0242949000003,184.0242949000003,184.0242949000003,184.0242949000003,184.0242949000003,009,P006,2025_Jan_25_1235,ConditionRich,2021.2.3,59.93615600661668,
152.0,152.75,11,0.75,Stimuli/P006/sun_bjoocjyyhsmsbprr.jpg,0,0.0,0.0,0,68,68,68,,,,,,,,,,,,,152.00025280000045,0.000252800000453135,None,,187.27717230000053,187.27717230000053,187.27717230000053,187.27717230000053,187.27717230000053,187.27717230000053,187.27717230000053,187.27717230000053,187.27717230000053,187.27717230000053,009,P006,2025_Jan_25_1235,ConditionRich,2021.2.3,59.93615600661668,
152.75,156.0,41,0.0,Stimuli/Blank.png,0,0.0,0.0,0,69,69,69,,,,,,,,,,,,,152.76719180000055,0.01719180000054621,5,1.2078972000008434,188.02780299999995,188.02780299999995,188.02780299999995,188.02780299999995,188.02780299999995,188.02780299999995,188.02780299999995,188.02780299999995,188.02780299999995,188.02780299999995,009,P006,2025_Jan_25_1235,ConditionRich,2021.2.3,59.93615600661668,
156.0,156.75,38,0.75,Stimuli/P006/things_sledgehammer_03s.jpg,0,0.0,0.0,0,70,70,70,,,,,,,,,,,,,156.00382720000016,0.0038272000001597917,None,,191.26401760000044,191.26401760000044,191.26401760000044,191.26401760000044,191.26401760000044,191.26401760000044,191.26401760000044,191.26401760000044,191.26401760000044,191.26401760000044,009,P006,2025_Jan_25_1235,ConditionRich,2021.2.3,59.93615600661668,
156.75,160.0,41,0.0,Stimuli/Blank.png,0,0.0,0.0,0,71,71,71,,,,,,,,,,,,,156.7548611000002,0.004861100000198348,5,1.2207563000001755,192.0146861000003,192.0146861000003,192.0146861000003,192.0146861000003,192.0146861000003,192.0146861000003,192.0146861000003,192.0146861000003,192.0146861000003,192.0146861000003,009,P006,2025_Jan_25_1235,ConditionRich,2021.2.3,59.93615600661668,
160.0,160.75,31,0.75,Stimuli/P006/things_jukebox_03n.jpg,0,0.0,0.0,0,72,72,72,,,,,,,,,,,,,160.0070243,0.007024300000011863,None,,195.2675546999999,195.2675546999999,195.2675546999999,195.2675546999999,195.2675546999999,195.2675546999999,195.2675546999999,195.2675546999999,195.2675546999999,195.2675546999999,009,P006,2025_Jan_25_1235,ConditionRich,2021.2.3,59.93615600661668,
160.75,164.0,41,0.0,Stimuli/Blank.png,0,0.0,0.0,0,73,73,73,,,,,,,,,,,,,160.75861919999988,0.008619199999884586,5,3.217225800000051,196.01822040000025,196.01822040000025,196.01822040000025,196.01822040000025,196.01822040000025,196.01822040000025,196.01822040000025,196.01822040000025,196.01822040000025,196.01822040000025,009,P006,2025_Jan_25_1235,ConditionRich,2021.2.3,59.93615600661668,
164.0,164.75,17,0.75,Stimuli/P006/sun_bwsictslfxygpqbp.jpg,1,0.0,0.75,0,74,74,74,,,,,,,,,,,,,164.01057690000016,0.010576900000160094,None,,199.27109029999974,199.27109029999974,199.27109029999974,199.27109029999974,199.27109029999974,199.27109029999974,199.27109029999974,200.00511350000033,199.27109029999974,199.27109029999974,009,P006,2025_Jan_25_1235,ConditionRich,2021.2.3,59.93615600661668,
164.75,168.0,41,0.0,Stimuli/Blank.png,0,0.0,0.0,0,75,75,75,,,,,,,,,,,,,164.76366020000023,0.01366020000023127,5,3.1970170000004146,200.03843860000052,200.03843860000052,200.03843860000052,200.03843860000052,200.03843860000052,200.03843860000052,200.03843860000052,200.03843860000052,200.03843860000052,200.03843860000052,009,P006,2025_Jan_25_1235,ConditionRich,2021.2.3,59.93615600661668,
168.0,168.75,4,0.75,Stimuli/P006/sun_auwghripdoxzluuk.jpg,1,0.0,0.75,0,76,76,76,,,,,,,,,,,,,168.01469369999995,0.014693699999952514,1,0.483811500000229,203.27461949999997,203.27461949999997,203.27461949999997,203.27461949999997,203.27461949999997,203.27461949999997,203.27461949999997,204.00861129999976,203.27461949999997,203.27461949999997,009,P006,2025_Jan_25_1235,ConditionRich,2021.2.3,59.93615600661668,
168.75,172.0,41,0.0,Stimuli/Blank.png,0,0.0,0.0,0,77,77,77,,,,,,,,,,,,,168.7645381000002,0.014538100000208942,5,1.2101118000000497,204.02529909999976,204.02529909999976,204.02529909999976,204.02529909999976,204.02529909999976,204.02529909999976,204.02529909999976,204.02529909999976,204.02529909999976,204.02529909999976,009,P006,2025_Jan_25_1235,ConditionRich,2021.2.3,59.93615600661668,
172.0,172.75,36,0.75,Stimuli/P006/things_pony_03s.jpg,0,0.0,0.0,0,78,78,78,,,,,,,,,,,,,172.00099779999982,0.000997799999822746,None,,207.26150589999997,207.26150589999997,207.26150589999997,207.26150589999997,207.26150589999997,207.26150589999997,207.26150589999997,207.26150589999997,207.26150589999997,207.26150589999997,009,P006,2025_Jan_25_1235,ConditionRich,2021.2.3,59.93615600661668,
172.75,176.0,41,0.0,Stimuli/Blank.png,1,2.25,3.0,0,79,79,79,,,,,,,,,,,,,172.75174890000017,0.0017489000001660315,1,2.706541199999265,208.0121454,208.0121454,208.0121454,208.0121454,208.0121454,208.0121454,210.24745350000012,210.99810080000043,208.0121454,208.0121454,009,P006,2025_Jan_25_1235,ConditionRich,2021.2.3,59.93615600661668,
176.0,176.75,3,0.75,Stimuli/P006/sun_asyidwmnobuawmax.jpg,0,0.0,0.0,0,80,80,80,,,,,,,,,,,,,176.0043682000005,0.0043682000004992005,None,,211.2650082,211.2650082,211.2650082,211.2650082,211.2650082,211.2650082,211.2650082,211.2650082,211.2650082,211.2650082,009,P006,2025_Jan_25_1235,ConditionRich,2021.2.3,59.93615600661668,
176.75,180.0,41,0.0,Stimuli/Blank.png,0,0.0,0.0,0,81,81,81,,,,,,,,,,,,,176.7577527000003,0.007752700000310142,5,3.2031306000008044,212.03235330000007,212.03235330000007,212.03235330000007,212.03235330000007,212.03235330000007,212.03235330000007,212.03235330000007,212.03235330000007,212.03235330000007,212.03235330000007,009,P006,2025_Jan_25_1235,ConditionRich,2021.2.3,59.93615600661668,
180.0,196.0,0,0.0,Stimuli/Blank.png,1,8.0,8.75,0,82,82,82,,,,,,,,,,,,,180.02441259999978,0.02441259999977774,5,13.95026020000023,215.2852154000002,215.2852154000002,215.2852154000002,215.2852154000002,215.2852154000002,215.2852154000002,223.27565210000012,224.02630560000034,215.2852154000002,215.2852154000002,009,P006,2025_Jan_25_1235,ConditionRich,2021.2.3,59.93615600661668,
196.0,196.75,30,0.75,Stimuli/P006/things_hood_03s.jpg,0,0.0,0.0,0,83,83,83,,,,,,,,,,,,,196.0081554999997,0.008155499999702442,None,,231.2826756000004,231.2826756000004,231.2826756000004,231.2826756000004,231.2826756000004,231.2826756000004,231.2826756000004,231.2826756000004,231.2826756000004,231.2826756000004,009,P006,2025_Jan_25_1235,ConditionRich,2021.2.3,59.93615600661668,
196.75,200.0,41,0.0,Stimuli/Blank.png,0,0.0,0.0,0,84,84,84,,,,,,,,,,,,,196.77335390000007,0.023353900000074646,5,3.203151199999411,232.03333829999974,232.03333829999974,232.03333829999974,232.03333829999974,232.03333829999974,232.03333829999974,232.03333829999974,232.03333829999974,232.03333829999974,232.03333829999974,009,P006,2025_Jan_25_1235,ConditionRich,2021.2.3,59.93615600661668,
200.0,200.75,11,0.75,Stimuli/P006/sun_bjoocjyyhsmsbprr.jpg,0,0.0,0.0,0,85,85,85,,,,,,,,,,,,,200.0091220000004,0.009122000000388653,None,,235.2695316999998,235.2695316999998,235.2695316999998,235.2695316999998,235.2695316999998,235.2695316999998,235.2695316999998,235.2695316999998,235.2695316999998,235.2695316999998,009,P006,2025_Jan_25_1235,ConditionRich,2021.2.3,59.93615600661668,
200.75,204.0,41,0.0,Stimuli/Blank.png,0,0.0,0.0,0,86,86,86,,,,,,,,,,,,,200.7601450000002,0.01014500000019325,5,3.2163288000001558,236.02018300000054,236.02018300000054,236.02018300000054,236.02018300000054,236.02018300000054,236.02018300000054,236.02018300000054,236.02018300000054,236.02018300000054,236.02018300000054,009,P006,2025_Jan_25_1235,ConditionRich,2021.2.3,59.93615600661668,
204.0,204.75,9,0.75,Stimuli/P006/sun_bfcmdrojsffdttzu.jpg,0,0.0,0.0,0,87,87,87,,,,,,,,,,,,,204.01242329999968,0.012423299999682058,None,,239.2730618000005,239.2730618000005,239.2730618000005,239.2730618000005,239.2730618000005,239.2730618000005,239.2730618000005,239.2730618000005,239.2730618000005,239.2730618000005,009,P006,2025_Jan_25_1235,ConditionRich,2021.2.3,59.93615600661668,
204.75,208.0,41,0.0,Stimuli/Blank.png,0,0.0,0.0,0,88,88,88,,,,,,,,,,,,,204.76335730000028,0.013357300000279793,5,1.2127749000001131,240.02372040000046,240.02372040000046,240.02372040000046,240.02372040000046,240.02372040000046,240.02372040000046,240.02372040000046,240.02372040000046,240.02372040000046,240.02372040000046,009,P006,2025_Jan_25_1235,ConditionRich,2021.2.3,59.93615600661668,
208.0,208.75,2,0.75,Stimuli/P006/sun_ahmycohdkioefoxs.jpg,0,0.0,0.0,0,89,89,89,,,,,,,,,,,,,207.9996573999997,-0.0003426000002946239,None,,243.25990400000046,243.25990400000046,243.25990400000046,243.25990400000046,243.25990400000046,243.25990400000046,243.25990400000046,243.25990400000046,243.25990400000046,243.25990400000046,009,P006,2025_Jan_25_1235,ConditionRich,2021.2.3,59.93615600661668,
208.75,212.0,41,0.0,Stimuli/Blank.png,0,0.0,0.0,0,90,90,90,,,,,,,,,,,,,208.75105350000013,0.0010535000001254957,5,1.2258367000004,244.01057709999986,244.01057709999986,244.01057709999986,244.01057709999986,244.01057709999986,244.01057709999986,244.01057709999986,244.01057709999986,244.01057709999986,244.01057709999986,009,P006,2025_Jan_25_1235,ConditionRich,2021.2.3,59.93615600661668,
212.0,212.75,10,0.75,Stimuli/P006/sun_bgnxbfhmwhliypvg.jpg,0,0.0,0.0,0,91,91,91,,,,,,,,,,,,,212.00333150000006,0.0033315000000584405,None,,247.2634452000002,247.2634452000002,247.2634452000002,247.2634452000002,247.2634452000002,247.2634452000002,247.2634452000002,247.2634452000002,247.2634452000002,247.2634452000002,009,P006,2025_Jan_25_1235,ConditionRich,2021.2.3,59.93615600661668,
212.75,216.0,41,0.0,Stimuli/Blank.png,0,0.0,0.0,0,92,92,92,,,,,,,,,,,,,212.75386780000008,0.003867800000080024,5,1.2222754999993413,248.01409969999986,248.01409969999986,248.01409969999986,248.01409969999986,248.01409969999986,248.01409969999986,248.01409969999986,248.01409969999986,248.01409969999986,248.01409969999986,009,P006,2025_Jan_25_1235,ConditionRich,2021.2.3,59.93615600661668,
216.0,216.75,6,0.75,Stimuli/P006/sun_bbzkhzmxdjrfjpjz.jpg,0,0.0,0.0,0,93,93,93,,,,,,,,,,,,,216.00766960000055,0.0076696000005540554,None,,251.2836557999999,251.2836557999999,251.2836557999999,251.2836557999999,251.2836557999999,251.2836557999999,251.2836557999999,251.2836557999999,251.2836557999999,251.2836557999999,009,P006,2025_Jan_25_1235,ConditionRich,2021.2.3,59.93615600661668,
216.75,220.0,41,0.0,Stimuli/Blank.png,0,0.0,0.0,0,94,94,94,,,,,,,,,,,,,216.77417479999986,0.024174799999855168,5,3.2020400999999765,252.03431960000034,252.03431960000034,252.03431960000034,252.03431960000034,252.03431960000034,252.03431960000034,252.03431960000034,252.03431960000034,252.03431960000034,252.03431960000034,009,P006,2025_Jan_25_1235,ConditionRich,2021.2.3,59.93615600661668,
220.0,220.75,23,0.75,Stimuli/P006/things_beetle_03s.jpg,0,0.0,0.0,0,95,95,95,,,,,,,,,,,,,220.01051869999992,0.0105186999999205,None,,255.2871968999998,255.2871968999998,255.2871968999998,255.2871968999998,255.2871968999998,255.2871968999998,255.2871968999998,255.2871968999998,255.2871968999998,255.2871968999998,009,P006,2025_Jan_25_1235,ConditionRich,2021.2.3,59.93615600661668,
220.75,224.0,41,0.0,Stimuli/Blank.png,0,0.0,0.0,0,96,96,96,,,,,,,,,,,,,220.7772114999998,0.027211499999793887,5,3.1986163000001397,256.0378446000004,256.0378446000004,256.0378446000004,256.0378446000004,256.0378446000004,256.0378446000004,256.0378446000004,256.0378446000004,256.0378446000004,256.0378446000004,009,P006,2025_Jan_25_1235,ConditionRich,2021.2.3,59.93615600661668,
224.0,224.75,25,0.75,Stimuli/P006/things_dog_03s.jpg,1,0.0,0.75,0,97,97,97,,,,,,,,,,,,,224.0137622000002,0.013762200000201119,None,,259.274042,259.274042,259.274042,259.274042,259.274042,259.274042,259.274042,260.00801839999986,259.274042,259.274042,009,P006,2025_Jan_25_1235,ConditionRich,2021.2.3,59.93615600661668,
224.75,228.0,41,0.0,Stimuli/Blank.png,0,0.0,0.0,0,98,98,98,,,,,,,,,,,,,224.76468470000054,0.014684700000543671,5,1.2116873999993913,260.0247043999998,260.0247043999998,260.0247043999998,260.0247043999998,260.0247043999998,260.0247043999998,260.0247043999998,260.0247043999998,260.0247043999998,260.0247043999998,009,P006,2025_Jan_25_1235,ConditionRich,2021.2.3,59.93615600661668,
228.0,228.75,19,0.75,Stimuli/P006/sun_czspalxthlkjwoat.jpg,0,0.0,0.0,0,99,99,99,,,,,,,,,,,,,228.0005911999997,0.0005911999996897066,None,,263.2609072000005,263.2609072000005,263.2609072000005,263.2609072000005,263.2609072000005,263.2609072000005,263.2609072000005,263.2609072000005,263.2609072000005,263.2609072000005,009,P006,2025_Jan_25_1235,ConditionRich,2021.2.3,59.93615600661668,
228.75,232.0,41,0.0,Stimuli/Blank.png,1,0.25,1.0,0,100,100,100,,,,,,,,,,,,,228.75329430000056,0.003294300000561634,5,3.2081856000004336,264.02823200000057,264.02823200000057,264.02823200000057,264.02823200000057,264.02823200000057,264.02823200000057,264.2617951000002,265.0124452,264.02823200000057,264.02823200000057,009,P006,2025_Jan_25_1235,ConditionRich,2021.2.3,59.93615600661668,
232.0,232.75,33,0.75,Stimuli/P006/things_man_03s.jpg,0,0.0,0.0,0,101,101,101,,,,,,,,,,,,,232.0227702000002,0.022770200000195473,None,,267.29778760000045,267.29778760000045,267.29778760000045,267.29778760000045,267.29778760000045,267.29778760000045,267.29778760000045,267.29778760000045,267.29778760000045,267.29778760000045,009,P006,2025_Jan_25_1235,ConditionRich,2021.2.3,59.93615600661668,
232.75,236.0,41,0.0,Stimuli/Blank.png,1,2.25,3.0,0,102,102,102,,,,,,,,,,,,,232.77373790000001,0.023737900000014633,5,3.1879484000000957,268.0484557,268.0484557,268.0484557,268.0484557,268.0484557,268.0484557,270.28378969999994,271.03445830000055,268.0484557,268.0484557,009,P006,2025_Jan_25_1235,ConditionRich,2021.2.3,59.93615600661668,
236.0,236.75,20,0.75,Stimuli/P006/sun_dvxuxzytfdbjyzit.jpg,1,0.0,0.75,0,103,103,103,,,,,,,,,,,,,236.02405249999993,0.024052499999925203,1,0.6076969000005192,271.2846408000005,271.2846408000005,271.2846408000005,271.2846408000005,271.2846408000005,271.2846408000005,271.2846408000005,None,271.2846408000005,271.2846408000005,009,P006,2025_Jan_25_1235,ConditionRich,2021.2.3,59.93615600661668,
236.75,240.0,41,0.0,Stimuli/Blank.png,0,0.0,0.0,0,104,104,104,,,,,,,,,,,,,236.75865880000038,0.008658800000375777,5,3.2176960000006147,272.01862299999993,272.01862299999993,272.01862299999993,272.01862299999993,272.01862299999993,272.01862299999993,272.01862299999993,272.01862299999993,272.01862299999993,272.01862299999993,009,P006,2025_Jan_25_1235,ConditionRich,2021.2.3,59.93615600661668,
240.0,240.75,18,0.75,Stimuli/P006/sun_bzqhpcsgzswozfhs.jpg,0,0.0,0.0,0,105,105,105,,,,,,,,,,,,,240.0137949,0.013794899999993504,None,,275.2881736999998,275.2881736999998,275.2881736999998,275.2881736999998,275.2881736999998,275.2881736999998,275.2881736999998,275.2881736999998,275.2881736999998,275.2881736999998,009,P006,2025_Jan_25_1235,ConditionRich,2021.2.3,59.93615600661668,
240.75,244.0,41,0.0,Stimuli/Blank.png,0,0.0,0.0,0,106,106,106,,,,,,,,,,,,,240.7788203,0.028820300000006682,5,3.1976260999999795,276.0388316999997,276.0388316999997,276.0388316999997,276.0388316999997,276.0388316999997,276.0388316999997,276.0388316999997,276.0388316999997,276.0388316999997,276.0388316999997,009,P006,2025_Jan_25_1235,ConditionRich,2021.2.3,59.93615600661668,
244.0,244.75,21,0.75,Stimuli/P006/things_accordion_03s.jpg,0,0.0,0.0,0,107,107,107,,,,,,,,,,,,,244.01446709999982,0.014467099999819766,None,,279.2917127999999,279.2917127999999,279.2917127999999,279.2917127999999,279.2917127999999,279.2917127999999,279.2917127999999,279.2917127999999,279.2917127999999,279.2917127999999,009,P006,2025_Jan_25_1235,ConditionRich,2021.2.3,59.93615600661668,
244.75,248.0,41,0.0,Stimuli/Blank.png,0,0.0,0.0,0,108,108,108,,,,,,,,,,,,,244.78250300000036,0.03250300000036077,5,1.1939972000000125,280.0423644000002,280.0423644000002,280.0423644000002,280.0423644000002,280.0423644000002,280.0423644000002,280.0423644000002,280.0423644000002,280.0423644000002,280.0423644000002,009,P006,2025_Jan_25_1235,ConditionRich,2021.2.3,59.93615600661668,
248.0,248.75,34,0.75,Stimuli/P006/things_patty_03s.jpg,0,0.0,0.0,0,109,109,109,,,,,,,,,,,,,248.00138909999987,0.0013890999998693587,None,,283.2618732000001,283.2618732000001,283.2618732000001,283.2618732000001,283.2618732000001,283.2618732000001,283.2618732000001,283.2618732000001,283.2618732000001,283.2618732000001,009,P006,2025_Jan_25_1235,ConditionRich,2021.2.3,59.93615600661668,
248.75,252.0,41,0.0,Stimuli/Blank.png,0,0.0,0.0,0,110,110,110,,,,,,,,,,,,,248.75223199999982,0.00223199999982171,5,1.2239674000002196,284.01253090000046,284.01253090000046,284.01253090000046,284.01253090000046,284.01253090000046,284.01253090000046,284.01253090000046,284.01253090000046,284.01253090000046,284.01253090000046,009,P006,2025_Jan_25_1235,ConditionRich,2021.2.3,59.93615600661668,
252.0,252.75,28,0.75,Stimuli/P006/things_girl_03s.jpg,0,0.0,0.0,0,111,111,111,,,,,,,,,,,,,252.00494609999987,0.004946099999870057,None,,287.2654014,287.2654014,287.2654014,287.2654014,287.2654014,287.2654014,287.2654014,287.2654014,287.2654014,287.2654014,009,P006,2025_Jan_25_1235,ConditionRich,2021.2.3,59.93615600661668,
252.75,256.0,41,0.0,Stimuli/Blank.png,0,0.0,0.0,0,112,112,112,,,,,,,,,,,,,252.75755600000048,0.00755600000047707,5,3.2036032000005434,288.0327476000002,288.0327476000002,288.0327476000002,288.0327476000002,288.0327476000002,288.0327476000002,288.0327476000002,288.0327476000002,288.0327476000002,288.0327476000002,009,P006,2025_Jan_25_1235,ConditionRich,2021.2.3,59.93615600661668,
256.0,256.75,8,0.75,Stimuli/P006/sun_bekkgqphzbclwpvb.jpg,0,0.0,0.0,0,113,113,113,,,,,,,,,,,,,256.02523850000034,0.025238500000341446,None,,291.3022980000005,291.3022980000005,291.3022980000005,291.3022980000005,291.3022980000005,291.3022980000005,291.3022980000005,291.3022980000005,291.3022980000005,291.3022980000005,009,P006,2025_Jan_25_1235,ConditionRich,2021.2.3,59.93615600661668,
256.75,260.0,41,0.0,Stimuli/Blank.png,0,0.0,0.0,0,114,114,114,,,,,,,,,,,,,256.7761720999997,0.026172099999712373,5,3.1999661000008928,292.0363182000001,292.0363182000001,292.0363182000001,292.0363182000001,292.0363182000001,292.0363182000001,292.0363182000001,292.0363182000001,292.0363182000001,292.0363182000001,009,P006,2025_Jan_25_1235,ConditionRich,2021.2.3,59.93615600661668,
260.0,260.75,17,0.75,Stimuli/P006/sun_bwsictslfxygpqbp.jpg,0,0.0,0.0,0,115,115,115,,,,,,,,,,,,,260.01218700000027,0.01218700000026729,None,,295.2724662999999,295.2724662999999,295.2724662999999,295.2724662999999,295.2724662999999,295.2724662999999,295.2724662999999,295.2724662999999,295.2724662999999,295.2724662999999,009,P006,2025_Jan_25_1235,ConditionRich,2021.2.3,59.93615600661668,
260.75,264.0,41,0.0,Stimuli/Blank.png,0,0.0,0.0,0,116,116,116,,,,,,,,,,,,,260.76322020000043,0.01322020000043267,5,1.2132051000007777,296.0231461000003,296.0231461000003,296.0231461000003,296.0231461000003,296.0231461000003,296.0231461000003,296.0231461000003,296.0231461000003,296.0231461000003,296.0231461000003,009,P006,2025_Jan_25_1235,ConditionRich,2021.2.3,59.93615600661668,
264.0,264.75,22,0.75,Stimuli/P006/things_baby_03s.jpg,0,0.0,0.0,0,117,117,117,,,,,,,,,,,,,263.998869,-0.0011309999999866704,None,,299.25931500000024,299.25931500000024,299.25931500000024,299.25931500000024,299.25931500000024,299.25931500000024,299.25931500000024,299.25931500000024,299.25931500000024,299.25931500000024,009,P006,2025_Jan_25_1235,ConditionRich,2021.2.3,59.93615600661668,
264.75,268.0,41,0.0,Stimuli/Blank.png,0,0.0,0.0,0,118,118,118,,,,,,,,,,,,,264.74977390000004,-0.0002260999999634805,5,1.2262972999997146,300.00998080000045,300.00998080000045,300.00998080000045,300.00998080000045,300.00998080000045,300.00998080000045,300.00998080000045,300.00998080000045,300.00998080000045,300.00998080000045,009,P006,2025_Jan_25_1235,ConditionRich,2021.2.3,59.93615600661668,
268.0,268.75,29,0.75,Stimuli/P006/things_guillotine_03s.jpg,0,0.0,0.0,0,119,119,119,,,,,,,,,,,,,268.0031885999997,0.0031885999997030012,None,,303.2628499000002,303.2628499000002,303.2628499000002,303.2628499000002,303.2628499000002,303.2628499000002,303.2628499000002,303.2628499000002,303.2628499000002,303.2628499000002,009,P006,2025_Jan_25_1235,ConditionRich,2021.2.3,59.93615600661668,
268.75,272.0,41,0.0,Stimuli/Blank.png,0,0.0,0.0,0,120,120,120,,,,,,,,,,,,,268.75356550000015,0.0035655000001497683,5,1.2228349999995771,304.0135209,304.0135209,304.0135209,304.0135209,304.0135209,304.0135209,304.0135209,304.0135209,304.0135209,304.0135209,009,P006,2025_Jan_25_1235,ConditionRich,2021.2.3,59.93615600661668,
272.0,272.75,16,0.75,Stimuli/P006/sun_bwentnobehmvaxkp.jpg,0,0.0,0.0,0,121,121,121,,,,,,,,,,,,,272.0072428000003,0.0072428000003128545,None,,307.2830616000001,307.2830616000001,307.2830616000001,307.2830616000001,307.2830616000001,307.2830616000001,307.2830616000001,307.2830616000001,307.2830616000001,307.2830616000001,009,P006,2025_Jan_25_1235,ConditionRich,2021.2.3,59.93615600661668,
272.75,276.0,41,0.0,Stimuli/Blank.png,0,0.0,0.0,0,122,122,122,,,,,,,,,,,,,272.7733712999998,0.023371299999780604,5,3.202663100000791,308.03372600000057,308.03372600000057,308.03372600000057,308.03372600000057,308.03372600000057,308.03372600000057,308.03372600000057,308.03372600000057,308.03372600000057,308.03372600000057,009,P006,2025_Jan_25_1235,ConditionRich,2021.2.3,59.93615600661668,
276.0,292.0,0,0.0,Stimuli/Blank.png,1,9.0,9.75,0,123,123,123,,,,,,,,,,,,,276.00949330000003,0.009493300000031013,5,13.966387399999803,311.2698983999999,311.2698983999999,311.2698983999999,311.2698983999999,311.2698983999999,311.2698983999999,320.2612057000006,321.01187500000015,311.2698983999999,311.2698983999999,009,P006,2025_Jan_25_1235,ConditionRich,2021.2.3,59.93615600661668,
292.0,292.75,32,0.75,Stimuli/P006/things_jumpsuit_03s.jpg,0,0.0,0.0,0,124,124,124,,,,,,,,,,,,,292.00745110000025,0.007451100000253064,None,,327.26738810000006,327.26738810000006,327.26738810000006,327.26738810000006,327.26738810000006,327.26738810000006,327.26738810000006,327.26738810000006,327.26738810000006,327.26738810000006,009,P006,2025_Jan_25_1235,ConditionRich,2021.2.3,59.93615600661668,
292.75,296.0,41,0.0,Stimuli/Blank.png,0,0.0,0.0,0,125,125,125,,,,,,,,,,,,,292.75807950000035,0.008079500000349071,5,3.218253099999856,328.0180313999999,328.0180313999999,328.0180313999999,328.0180313999999,328.0180313999999,328.0180313999999,328.0180313999999,328.0180313999999,328.0180313999999,328.0180313999999,009,P006,2025_Jan_25_1235,ConditionRich,2021.2.3,59.93615600661668,
296.0,296.75,31,0.75,Stimuli/P006/things_jukebox_03n.jpg,0,0.0,0.0,0,126,126,126,,,,,,,,,,,,,296.01283409999996,0.012834099999963655,None,,331.2875829000004,331.2875829000004,331.2875829000004,331.2875829000004,331.2875829000004,331.2875829000004,331.2875829000004,331.2875829000004,331.2875829000004,331.2875829000004,009,P006,2025_Jan_25_1235,ConditionRich,2021.2.3,59.93615600661668,
296.75,300.0,41,0.0,Stimuli/Blank.png,0,0.0,0.0,0,127,127,127,,,,,,,,,,,,,296.77819700000055,0.028197000000545813,5,3.1982229000004736,332.0382626999999,332.0382626999999,332.0382626999999,332.0382626999999,332.0382626999999,332.0382626999999,332.0382626999999,332.0382626999999,332.0382626999999,332.0382626999999,009,P006,2025_Jan_25_1235,ConditionRich,2021.2.3,59.93615600661668,
300.0,300.75,3,0.75,Stimuli/P006/sun_asyidwmnobuawmax.jpg,0,0.0,0.0,0,128,128,128,,,,,,,,,,,,,300.0159623999998,0.01596239999980753,None,,335.29123510000045,335.29123510000045,335.29123510000045,335.29123510000045,335.29123510000045,335.29123510000045,335.29123510000045,335.29123510000045,335.29123510000045,335.29123510000045,009,P006,2025_Jan_25_1235,ConditionRich,2021.2.3,59.93615600661668,
300.75,304.0,41,0.0,Stimuli/Blank.png,0,0.0,0.0,0,129,129,129,,,,,,,,,,,,,300.76474920000055,0.014749200000551355,5,1.211196199999904,336.02510020000045,336.02510020000045,336.02510020000045,336.02510020000045,336.02510020000045,336.02510020000045,336.02510020000045,336.02510020000045,336.02510020000045,336.02510020000045,009,P006,2025_Jan_25_1235,ConditionRich,2021.2.3,59.93615600661668,
304.0,304.75,14,0.75,Stimuli/P006/sun_bsirencncgxteejx.jpg,0,0.0,0.0,0,130,130,130,,,,,,,,,,,,,304.0029420000001,0.0029420000000754953,None,,339.27797329999976,339.27797329999976,339.27797329999976,339.27797329999976,339.27797329999976,339.27797329999976,339.27797329999976,339.27797329999976,339.27797329999976,339.27797329999976,009,P006,2025_Jan_25_1235,ConditionRich,2021.2.3,59.93615600661668,
304.75,308.0,41,0.0,Stimuli/Blank.png,0,0.0,0.0,0,131,131,131,,,,,,,,,,,,,304.7692275999998,0.01922759999979462,5,3.190998299999592,340.0453384000002,340.0453384000002,340.0453384000002,340.0453384000002,340.0453384000002,340.0453384000002,340.0453384000002,340.0453384000002,340.0453384000002,340.0453384000002,009,P006,2025_Jan_25_1235,ConditionRich,2021.2.3,59.93615600661668,
308.0,308.75,15,0.75,Stimuli/P006/sun_btkzuhaxqlacvmsv.jpg,0,0.0,0.0,0,132,132,132,,,,,,,,,,,,,308.02372939999987,0.023729399999865564,None,,343.29815959999996,343.29815959999996,343.29815959999996,343.29815959999996,343.29815959999996,343.29815959999996,343.29815959999996,343.29815959999996,343.29815959999996,343.29815959999996,009,P006,2025_Jan_25_1235,ConditionRich,2021.2.3,59.93615600661668,
308.75,312.0,41,0.0,Stimuli/Blank.png,0,0.0,0.0,0,133,133,133,,,,,,,,,,,,,308.77216430000044,0.022164300000440562,5,3.204160799999954,344.03216020000036,344.03216020000036,344.03216020000036,344.03216020000036,344.03216020000036,344.03216020000036,344.03216020000036,344.03216020000036,344.03216020000036,344.03216020000036,009,P006,2025_Jan_25_1235,ConditionRich,2021.2.3,59.93615600661668,
312.0,312.75,5,0.75,Stimuli/P006/sun_axaqdcecfojvpvrl.jpg,0,0.0,0.0,0,134,134,134,,,,,,,,,,,,,312.0082701000001,0.008270100000117964,None,,347.26835420000043,347.26835420000043,347.26835420000043,347.26835420000043,347.26835420000043,347.26835420000043,347.26835420000043,347.26835420000043,347.26835420000043,347.26835420000043,009,P006,2025_Jan_25_1235,ConditionRich,2021.2.3,59.93615600661668,
312.75,316.0,41,0.0,Stimuli/Blank.png,1,2.25,3.0,0,135,135,135,,,,,,,,,,,,,312.7582357000001,0.008235700000113866,5,3.217211799999859,348.01901499999985,348.01901499999985,348.01901499999985,348.01901499999985,348.01901499999985,348.01901499999985,350.2543112000003,351.0049442999998,348.01901499999985,348.01901499999985,009,P006,2025_Jan_25_1235,ConditionRich,2021.2.3,59.93615600661668,
316.0,316.75,37,0.75,Stimuli/P006/things_showerhead_03s.jpg,0,0.0,0.0,0,136,136,136,,,,,,,,,,,,,316.0112071000003,0.01120710000031977,None,,351.2718837000002,351.2718837000002,351.2718837000002,351.2718837000002,351.2718837000002,351.2718837000002,351.2718837000002,351.2718837000002,351.2718837000002,351.2718837000002,009,P006,2025_Jan_25_1235,ConditionRich,2021.2.3,59.93615600661668,
316.75,320.0,41,0.0,Stimuli/Blank.png,0,0.0,0.0,0,137,137,137,,,,,,,,,,,,,316.76201670000046,0.012016700000458513,5,3.2136687000001984,352.02255160000004,352.02255160000004,352.02255160000004,352.02255160000004,352.02255160000004,352.02255160000004,352.02255160000004,352.02255160000004,352.02255160000004,352.02255160000004,009,P006,2025_Jan_25_1235,ConditionRich,2021.2.3,59.93615600661668,
320.0,320.75,40,0.75,Stimuli/P006/things_woman_03s.jpg,0,0.0,0.0,0,138,138,138,,,,,,,,,,,,,320.01602960000037,0.016029600000365463,None,,355.2920962999997,355.2920962999997,355.2920962999997,355.2920962999997,355.2920962999997,355.2920962999997,355.2920962999997,355.2920962999997,355.2920962999997,355.2920962999997,009,P006,2025_Jan_25_1235,ConditionRich,2021.2.3,59.93615600661668,
320.75,324.0,41,0.0,Stimuli/Blank.png,0,0.0,0.0,0,139,139,139,,,,,,,,,,,,,320.76588960000026,0.01588960000026418,5,1.2103185000005396,356.02610060000006,356.02610060000006,356.02610060000006,356.02610060000006,356.02610060000006,356.02610060000006,356.02610060000006,356.02610060000006,356.02610060000006,356.02610060000006,009,P006,2025_Jan_25_1235,ConditionRich,2021.2.3,59.93615600661668,
324.0,324.75,12,0.75,Stimuli/P006/sun_bodyuiqwqpqzwfoz.jpg,0,0.0,0.0,0,140,140,140,,,,,,,,,,,,,324.00231200000053,0.002312000000529224,None,,359.2622618000005,359.2622618000005,359.2622618000005,359.2622618000005,359.2622618000005,359.2622618000005,359.2622618000005,359.2622618000005,359.2622618000005,359.2622618000005,009,P006,2025_Jan_25_1235,ConditionRich,2021.2.3,59.93615600661668,
324.75,328.0,41,0.0,Stimuli/Blank.png,0,0.0,0.0,0,141,141,141,,,,,,,,,,,,,324.75297649999993,0.002976499999931548,5,1.2233149000003323,360.0129275999998,360.0129275999998,360.0129275999998,360.0129275999998,360.0129275999998,360.0129275999998,360.0129275999998,360.0129275999998,360.0129275999998,360.0129275999998,009,P006,2025_Jan_25_1235,ConditionRich,2021.2.3,59.93615600661668,
328.0,328.75,26,0.75,Stimuli/P006/things_face_03s.jpg,0,0.0,0.0,0,142,142,142,,,,,,,,,,,,,328.00765610000053,0.007656100000531296,None,,363.2824909000001,363.2824909000001,363.2824909000001,363.2824909000001,363.2824909000001,363.2824909000001,363.2824909000001,363.2824909000001,363.2824909000001,363.2824909000001,009,P006,2025_Jan_25_1235,ConditionRich,2021.2.3,59.93615600661668,
328.75,332.0,41,0.0,Stimuli/Blank.png,0,0.0,0.0,0,143,143,143,,,,,,,,,,,,,328.77300430000014,0.023004300000138755,5,3.2031849999993938,364.0331465999998,364.0331465999998,364.0331465999998,364.0331465999998,364.0331465999998,364.0331465999998,364.0331465999998,364.0331465999998,364.0331465999998,364.0331465999998,009,P006,2025_Jan_25_1235,ConditionRich,2021.2.3,59.93615600661668,
332.0,332.75,27,0.75,Stimuli/P006/things_first-aid_kit_03s.jpg,0,0.0,0.0,0,144,144,144,,,,,,,,,,,,,332.00891370000045,0.008913700000448443,None,,367.2693349000001,367.2693349000001,367.2693349000001,367.2693349000001,367.2693349000001,367.2693349000001,367.2693349000001,367.2693349000001,367.2693349000001,367.2693349000001,009,P006,2025_Jan_25_1235,ConditionRich,2021.2.3,59.93615600661668,
332.75,336.0,41,0.0,Stimuli/Blank.png,0,0.0,0.0,0,145,145,145,,,,,,,,,,,,,332.75984919999973,0.009849199999734992,5,3.216233099999954,368.0199964000003,368.0199964000003,368.0199964000003,368.0199964000003,368.0199964000003,368.0199964000003,368.0199964000003,368.0199964000003,368.0199964000003,368.0199964000003,009,P006,2025_Jan_25_1235,ConditionRich,2021.2.3,59.93615600661668,
336.0,336.75,38,0.75,Stimuli/P006/things_sledgehammer_03s.jpg,0,0.0,0.0,0,146,146,146,,,,,,,,,,,,,336.0137095,0.013709500000004482,None,,371.2896176000004,371.2896176000004,371.2896176000004,371.2896176000004,371.2896176000004,371.2896176000004,371.2896176000004,371.2896176000004,371.2896176000004,371.2896176000004,009,P006,2025_Jan_25_1235,ConditionRich,2021.2.3,59.93615600661668,
336.75,340.0,41,0.0,Stimuli/Blank.png,0,0.0,0.0,0,147,147,147,,,,,,,,,,,,,336.78006670000013,0.030066700000134006,5,1.1961350999999922,372.0402113,372.0402113,372.0402113,372.0402113,372.0402113,372.0402113,372.0402113,372.0402113,372.0402113,372.0402113,009,P006,2025_Jan_25_1235,ConditionRich,2021.2.3,59.93615600661668,
340.0,340.75,24,0.75,Stimuli/P006/things_crab_03s.jpg,0,0.0,0.0,0,148,148,148,,,,,,,,,,,,,339.99958830000014,-0.00041169999985868344,None,,375.2764063000004,375.2764063000004,375.2764063000004,375.2764063000004,375.2764063000004,375.2764063000004,375.2764063000004,375.2764063000004,375.2764063000004,375.2764063000004,009,P006,2025_Jan_25_1235,ConditionRich,2021.2.3,59.93615600661668,
340.75,344.0,41,0.0,Stimuli/Blank.png,1,0.25,1.0,0,149,149,149,,,,,,,,,,,,,340.76700119999987,0.017001199999867822,5,1.2095844000004945,376.02706469999976,376.02706469999976,376.02706469999976,376.02706469999976,376.02706469999976,376.02706469999976,376.26063969999996,377.01126999999997,376.02706469999976,376.02706469999976,009,P006,2025_Jan_25_1235,ConditionRich,2021.2.3,59.93615600661668,
344.0,344.75,13,0.75,Stimuli/P006/sun_bruphbrfsbxowtlq.jpg,0,0.0,0.0,0,150,150,150,,,,,,,,,,,,,344.0032879999999,0.0032879999998840503,None,,379.27994620000027,379.27994620000027,379.27994620000027,379.27994620000027,379.27994620000027,379.27994620000027,379.27994620000027,379.27994620000027,379.27994620000027,379.27994620000027,009,P006,2025_Jan_25_1235,ConditionRich,2021.2.3,59.93615600661668,
344.75,348.0,41,0.0,Stimuli/Blank.png,0,0.0,0.0,0,151,151,151,,,,,,,,,,,,,344.772559,0.022559000000001106,5,3.1892502000000604,380.04725099999996,380.04725099999996,380.04725099999996,380.04725099999996,380.04725099999996,380.04725099999996,380.04725099999996,380.04725099999996,380.04725099999996,380.04725099999996,009,P006,2025_Jan_25_1235,ConditionRich,2021.2.3,59.93615600661668,
348.0,348.75,39,0.75,Stimuli/P006/things_train_set_03s.jpg,1,0.0,0.75,0,152,152,152,,,,,,,,,,,,,348.02398170000015,0.02398170000014943,1,0.5812003999999433,383.3001400000003,383.3001400000003,383.3001400000003,383.3001400000003,383.3001400000003,383.3001400000003,383.3001400000003,384.01744510000026,383.3001400000003,383.3001400000003,009,P006,2025_Jan_25_1235,ConditionRich,2021.2.3,59.93615600661668,
348.75,352.0,41,0.0,Stimuli/Blank.png,0,0.0,0.0,0,153,153,153,,,,,,,,,,,,,348.77345870000045,0.023458700000446697,5,3.2021624999997584,384.0341330000001,384.0341330000001,384.0341330000001,384.0341330000001,384.0341330000001,384.0341330000001,384.0341330000001,384.0341330000001,384.0341330000001,384.0341330000001,009,P006,2025_Jan_25_1235,ConditionRich,2021.2.3,59.93615600661668,
352.0,352.75,4,0.75,Stimuli/P006/sun_auwghripdoxzluuk.jpg,0,0.0,0.0,0,154,154,154,,,,,,,,,,,,,352.01011910000034,0.010119100000338221,None,,387.2870068000002,387.2870068000002,387.2870068000002,387.2870068000002,387.2870068000002,387.2870068000002,387.2870068000002,387.2870068000002,387.2870068000002,387.2870068000002,009,P006,2025_Jan_25_1235,ConditionRich,2021.2.3,59.93615600661668,
352.75,356.0,41,0.0,Stimuli/Blank.png,0,0.0,0.0,0,155,155,155,,,,,,,,,,,,,352.7774893000005,0.027489300000524963,5,3.198671099999956,388.03766910000013,388.03766910000013,388.03766910000013,388.03766910000013,388.03766910000013,388.03766910000013,388.03766910000013,388.03766910000013,388.03766910000013,388.03766910000013,009,P006,2025_Jan_25_1235,ConditionRich,2021.2.3,59.93615600661668,
356.0,356.75,35,0.75,Stimuli/P006/things_pig_03s.jpg,0,0.0,0.0,0,156,156,156,,,,,,,,,,,,,356.0134783000003,0.013478300000315357,None,,391.2738485,391.2738485,391.2738485,391.2738485,391.2738485,391.2738485,391.2738485,391.2738485,391.2738485,391.2738485,009,P006,2025_Jan_25_1235,ConditionRich,2021.2.3,59.93615600661668,
356.75,360.0,41,0.0,Stimuli/Blank.png,0,0.0,0.0,0,157,157,157,,,,,,,,,,,,,356.76421370000025,0.014213700000254903,5,1.211722899999586,392.02451610000026,392.02451610000026,392.02451610000026,392.02451610000026,392.02451610000026,392.02451610000026,392.02451610000026,392.02451610000026,392.02451610000026,392.02451610000026,009,P006,2025_Jan_25_1235,ConditionRich,2021.2.3,59.93615600661668,
360.0,360.75,7,0.75,Stimuli/P006/sun_bdmdlkpsznknrcqi.jpg,0,0.0,0.0,0,158,158,158,,,,,,,,,,,,,360.0000375999998,3.7599999814119656e-05,None,,395.27738969999973,395.27738969999973,395.27738969999973,395.27738969999973,395.27738969999973,395.27738969999973,395.27738969999973,395.27738969999973,395.27738969999973,395.27738969999973,009,P006,2025_Jan_25_1235,ConditionRich,2021.2.3,59.93615600661668,
360.75,364.0,41,0.0,Stimuli/Blank.png,0,0.0,0.0,0,159,159,159,,,,,,,,,,,,,360.7682329999998,0.018232999999781896,5,1.2083335999996052,396.0280522000003,396.0280522000003,396.0280522000003,396.0280522000003,396.0280522000003,396.0280522000003,396.0280522000003,396.0280522000003,396.0280522000003,396.0280522000003,009,P006,2025_Jan_25_1235,ConditionRich,2021.2.3,59.93615600661668,
364.0,364.75,36,0.75,Stimuli/P006/things_pony_03s.jpg,0,0.0,0.0,0,160,160,160,,,,,,,,,,,,,364.00397560000056,0.003975600000558188,None,,399.26423520000026,399.26423520000026,399.26423520000026,399.26423520000026,399.26423520000026,399.26423520000026,399.26423520000026,399.26423520000026,399.26423520000026,399.26423520000026,009,P006,2025_Jan_25_1235,ConditionRich,2021.2.3,59.93615600661668,
364.75,368.0,41,0.0,Stimuli/Blank.png,0,0.0,0.0,0,161,161,161,,,,,,,,,,,,,364.75512009999966,0.005120099999658123,5,1.2215869999999995,400.0148958,400.0148958,400.0148958,400.0148958,400.0148958,400.0148958,400.0148958,400.0148958,400.0148958,400.0148958,009,P006,2025_Jan_25_1235,ConditionRich,2021.2.3,59.93615600661668,
368.0,368.75,1,0.75,Stimuli/P006/sun_adyhbxohydkpecty.jpg,0,0.0,0.0,0,162,162,162,,,,,,,,,,,,,368.0072019999998,0.007201999999779218,None,,403.26777390000007,403.26777390000007,403.26777390000007,403.26777390000007,403.26777390000007,403.26777390000007,403.26777390000007,403.26777390000007,403.26777390000007,403.26777390000007,009,P006,2025_Jan_25_1235,ConditionRich,2021.2.3,59.93615600661668,
368.75,372.0,41,0.0,Stimuli/Blank.png,1,2.25,3.0,0,163,163,163,,,,,,,,,,,,,368.7582941999999,0.008294199999909324,5,3.217760999999882,404.0184384000004,404.0184384000004,404.0184384000004,404.0184384000004,404.0184384000004,404.0184384000004,406.2537219000005,407.00443820000055,404.0184384000004,404.0184384000004,009,P006,2025_Jan_25_1235,ConditionRich,2021.2.3,59.93615600661668,
372.0,388.0,0,0.0,Stimuli/Blank.png,1,4.0,4.75,0,164,164,164,,,,,,,,,,,,,372.01296640000055,0.012966400000550493,5,13.948464000000058,407.2880006000005,407.2880006000005,407.2880006000005,407.2880006000005,407.2880006000005,407.2880006000005,411.25815109999985,412.0088418000005,407.2880006000005,407.2880006000005,009,P006,2025_Jan_25_1235,ConditionRich,2021.2.3,59.93615600661668,
