eventStartTime,eventEndTime,eventCond,imSize,imFile,responseEvent,fixRespStart,fixRespEnd,Events.thisRepN,Events.thisTrialN,Events.thisN,Events.thisIndex,Instructions.started,Instructions.stopped,participantReadyResponse.keys,participantReadyResponse.rt,participantReadyResponse.started,participantReadyResponse.stopped,startWaitforTrigger,triggerResponse.keys,triggerResponse.rt,triggerResponse.started,triggerResponse.stopped,globalTimer,actualStartTime,startTimingDiff,participantResponse.keys,participantResponse.rt,participantResponse.started,participantResponse.stopped,image.started,image.stopped,fixationOutside.started,fixationOutside.stopped,fixationResponse.started,fixationResponse.stopped,fixationInside.started,fixationInside.stopped,session,participant,date,expName,psychopyVersion,frameRate,
,,,,,,,,,,,,36.26202000000012,None,1,2.408673599999929,36.26202000000012,None,,,,,,,,,,,,,,,,,,,,,005,P006,2025_Jan_25_1200,ConditionRich,2021.2.3,59.93867075195252,
,,,,,,,,,,,,,,,,,,38.675664600000346,5,12.979610200000025,38.688142200000584,None,,,,,,,,,,,,,,,,005,P006,2025_Jan_25_1200,ConditionRich,2021.2.3,59.93867075195252,
0.0,4.0,0,0.0,Stimuli/Blank.png,0,0,0.0,0,0,0,0,,,,,,,,,,,,51.670305700000426,0.05408499999975902,0.05408499999975902,5,3.918128600000273,51.74965940000038,None,51.74965940000038,None,51.74965940000038,None,51.74965940000038,51.74965940000038,51.74965940000038,None,005,P006,2025_Jan_25_1200,ConditionRich,2021.2.3,59.93867075195252,
4.0,4.75,18,0.75,Stimuli/P006/sun_bzqhpcsgzswozfhs.jpg,1,0,0.75,0,1,1,1,,,,,,,,,,,,,4.0202548999996,0.02025489999959973,1,0.41448159999981726,55.720127100000354,55.720127100000354,55.720127100000354,55.720127100000354,55.720127100000354,55.720127100000354,55.720127100000354,56.43713879999996,55.720127100000354,55.720127100000354,005,P006,2025_Jan_25_1200,ConditionRich,2021.2.3,59.93867075195252,
4.75,5.0,41,0.0,Stimuli/Blank.png,0,0,0.0,0,2,2,2,,,,,,,,,,,,,4.7697339999995165,0.019733999999516527,None,,56.454359500000464,56.454359500000464,56.454359500000464,56.454359500000464,56.454359500000464,56.454359500000464,56.454359500000464,56.454359500000464,56.454359500000464,56.454359500000464,005,P006,2025_Jan_25_1200,ConditionRich,2021.2.3,59.93867075195252,
5.0,5.75,18,0.75,Stimuli/P006/sun_bzqhpcsgzswozfhs.jpg,0,0,0.0,0,3,3,3,,,,,,,,,,,,,5.0030838000002404,0.003083800000240444,None,,56.687349200000426,56.687349200000426,56.687349200000426,56.687349200000426,56.687349200000426,56.687349200000426,56.687349200000426,56.687349200000426,56.687349200000426,56.687349200000426,005,P006,2025_Jan_25_1200,ConditionRich,2021.2.3,59.93867075195252,
5.75,6.0,41,0.0,Stimuli/Blank.png,0,0,0.0,0,4,4,4,,,,,,,,,,,,,5.753864100000101,0.003864100000100734,None,,57.43801160000021,57.43801160000021,57.43801160000021,57.43801160000021,57.43801160000021,57.43801160000021,57.43801160000021,57.43801160000021,57.43801160000021,57.43801160000021,005,P006,2025_Jan_25_1200,ConditionRich,2021.2.3,59.93867075195252,
6.0,6.75,18,0.75,Stimuli/P006/sun_bzqhpcsgzswozfhs.jpg,0,0,0.0,0,5,5,5,,,,,,,,,,,,,6.0042075000001205,0.00420750000012049,None,,57.70491140000013,57.70491140000013,57.70491140000013,57.70491140000013,57.70491140000013,57.70491140000013,57.70491140000013,57.70491140000013,57.70491140000013,57.70491140000013,005,P006,2025_Jan_25_1200,ConditionRich,2021.2.3,59.93867075195252,
6.75,7.0,41,0.0,Stimuli/Blank.png,0,0,0.0,0,6,6,6,,,,,,,,,,,,,6.771603099999993,0.021603099999992992,None,,58.45559030000004,58.45559030000004,58.45559030000004,58.45559030000004,58.45559030000004,58.45559030000004,58.45559030000004,58.45559030000004,58.45559030000004,58.45559030000004,005,P006,2025_Jan_25_1200,ConditionRich,2021.2.3,59.93867075195252,
7.0,7.75,18,0.75,Stimuli/P006/sun_bzqhpcsgzswozfhs.jpg,0,0,0.0,0,7,7,7,,,,,,,,,,,,,7.004405300000144,0.004405300000144052,None,,58.70580659999996,58.70580659999996,58.70580659999996,58.70580659999996,58.70580659999996,58.70580659999996,58.70580659999996,58.70580659999996,58.70580659999996,58.70580659999996,005,P006,2025_Jan_25_1200,ConditionRich,2021.2.3,59.93867075195252,
7.75,8.0,41,0.0,Stimuli/Blank.png,0,0,0.0,0,8,8,8,,,,,,,,,,,,,7.772911999999451,0.022911999999450927,None,,59.456472300000314,59.456472300000314,59.456472300000314,59.456472300000314,59.456472300000314,59.456472300000314,59.456472300000314,59.456472300000314,59.456472300000314,59.456472300000314,005,P006,2025_Jan_25_1200,ConditionRich,2021.2.3,59.93867075195252,
8.0,8.75,37,0.75,Stimuli/P006/things_showerhead_03s.jpg,0,0,0.0,0,9,9,9,,,,,,,,,,,,,8.00778309999987,0.0077830999998695916,None,,59.70668310000019,59.70668310000019,59.70668310000019,59.70668310000019,59.70668310000019,59.70668310000019,59.70668310000019,59.70668310000019,59.70668310000019,59.70668310000019,005,P006,2025_Jan_25_1200,ConditionRich,2021.2.3,59.93867075195252,
8.75,9.0,41,0.0,Stimuli/Blank.png,0,0,0.0,0,10,10,10,,,,,,,,,,,,,8.772794200000135,0.02279420000013488,None,,60.457345100000566,60.457345100000566,60.457345100000566,60.457345100000566,60.457345100000566,60.457345100000566,60.457345100000566,60.457345100000566,60.457345100000566,60.457345100000566,005,P006,2025_Jan_25_1200,ConditionRich,2021.2.3,59.93867075195252,
9.0,9.75,37,0.75,Stimuli/P006/things_showerhead_03s.jpg,0,0,0.0,0,11,11,11,,,,,,,,,,,,,9.006608599999709,0.006608599999708531,None,,60.6908940000003,60.6908940000003,60.6908940000003,60.6908940000003,60.6908940000003,60.6908940000003,60.6908940000003,60.6908940000003,60.6908940000003,60.6908940000003,005,P006,2025_Jan_25_1200,ConditionRich,2021.2.3,59.93867075195252,
9.75,10.0,41,0.0,Stimuli/Blank.png,0,0,0.0,0,12,12,12,,,,,,,,,,,,,9.757145499999751,0.007145499999751337,None,,61.441544899999826,61.441544899999826,61.441544899999826,61.441544899999826,61.441544899999826,61.441544899999826,61.441544899999826,61.441544899999826,61.441544899999826,61.441544899999826,005,P006,2025_Jan_25_1200,ConditionRich,2021.2.3,59.93867075195252,
10.0,10.75,37,0.75,Stimuli/P006/things_showerhead_03s.jpg,1,0,0.75,0,13,13,13,,,,,,,,,,,,,10.007524399999966,0.007524399999965681,1,0.47000930000012886,61.69174150000072,61.69174150000072,61.69174150000072,61.69174150000072,61.69174150000072,61.69174150000072,61.69174150000072,62.42574560000048,61.69174150000072,61.69174150000072,005,P006,2025_Jan_25_1200,ConditionRich,2021.2.3,59.93867075195252,
10.75,11.0,41,0.0,Stimuli/Blank.png,0,0,0.0,0,14,14,14,,,,,,,,,,,,,10.75847160000012,0.008471600000120816,None,,62.44240830000035,62.44240830000035,62.44240830000035,62.44240830000035,62.44240830000035,62.44240830000035,62.44240830000035,62.44240830000035,62.44240830000035,62.44240830000035,005,P006,2025_Jan_25_1200,ConditionRich,2021.2.3,59.93867075195252,
11.0,11.75,37,0.75,Stimuli/P006/things_showerhead_03s.jpg,0,0,0.0,0,15,15,15,,,,,,,,,,,,,11.007829700000002,0.007829700000002049,None,,62.69265770000038,62.69265770000038,62.69265770000038,62.69265770000038,62.69265770000038,62.69265770000038,62.69265770000038,62.69265770000038,62.69265770000038,62.69265770000038,005,P006,2025_Jan_25_1200,ConditionRich,2021.2.3,59.93867075195252,
11.75,12.0,41,0.0,Stimuli/Blank.png,0,0,0.0,0,16,16,16,,,,,,,,,,,,,11.75881019999997,0.008810199999970791,None,,63.44339160000072,63.44339160000072,63.44339160000072,63.44339160000072,63.44339160000072,63.44339160000072,63.44339160000072,63.44339160000072,63.44339160000072,63.44339160000072,005,P006,2025_Jan_25_1200,ConditionRich,2021.2.3,59.93867075195252,
12.0,12.75,10,0.75,Stimuli/P006/sun_bgnxbfhmwhliypvg.jpg,0,0,0.0,0,17,17,17,,,,,,,,,,,,,12.009149999999863,0.009149999999863212,None,,63.71019950000027,63.71019950000027,63.71019950000027,63.71019950000027,63.71019950000027,63.71019950000027,63.71019950000027,63.71019950000027,63.71019950000027,63.71019950000027,005,P006,2025_Jan_25_1200,ConditionRich,2021.2.3,59.93867075195252,
12.75,13.0,41,0.0,Stimuli/Blank.png,0,0,0.0,0,18,18,18,,,,,,,,,,,,,12.777513999999428,0.02751399999942805,None,,64.46088020000025,64.46088020000025,64.46088020000025,64.46088020000025,64.46088020000025,64.46088020000025,64.46088020000025,64.46088020000025,64.46088020000025,64.46088020000025,005,P006,2025_Jan_25_1200,ConditionRich,2021.2.3,59.93867075195252,
13.0,13.75,10,0.75,Stimuli/P006/sun_bgnxbfhmwhliypvg.jpg,0,0,0.0,0,19,19,19,,,,,,,,,,,,,13.012309599999753,0.012309599999753118,None,,64.7111033000001,64.7111033000001,64.7111033000001,64.7111033000001,64.7111033000001,64.7111033000001,64.7111033000001,64.7111033000001,64.7111033000001,64.7111033000001,005,P006,2025_Jan_25_1200,ConditionRich,2021.2.3,59.93867075195252,
13.75,14.0,41,0.0,Stimuli/Blank.png,0,0,0.0,0,20,20,20,,,,,,,,,,,,,13.777839299999869,0.027839299999868672,None,,65.46176199999991,65.46176199999991,65.46176199999991,65.46176199999991,65.46176199999991,65.46176199999991,65.46176199999991,65.46176199999991,65.46176199999991,65.46176199999991,005,P006,2025_Jan_25_1200,ConditionRich,2021.2.3,59.93867075195252,
14.0,14.75,10,0.75,Stimuli/P006/sun_bgnxbfhmwhliypvg.jpg,0,0,0.0,0,21,21,21,,,,,,,,,,,,,14.010622699999658,0.010622699999657925,None,,65.69530500000019,65.69530500000019,65.69530500000019,65.69530500000019,65.69530500000019,65.69530500000019,65.69530500000019,65.69530500000019,65.69530500000019,65.69530500000019,005,P006,2025_Jan_25_1200,ConditionRich,2021.2.3,59.93867075195252,
14.75,15.0,41,0.0,Stimuli/Blank.png,0,0,0.0,0,22,22,22,,,,,,,,,,,,,14.762282099999538,0.012282099999538332,None,,66.44597010000052,66.44597010000052,66.44597010000052,66.44597010000052,66.44597010000052,66.44597010000052,66.44597010000052,66.44597010000052,66.44597010000052,66.44597010000052,005,P006,2025_Jan_25_1200,ConditionRich,2021.2.3,59.93867075195252,
15.0,15.75,10,0.75,Stimuli/P006/sun_bgnxbfhmwhliypvg.jpg,0,0,0.0,0,23,23,23,,,,,,,,,,,,,15.012604699999429,0.012604699999428703,None,,66.71286659999987,66.71286659999987,66.71286659999987,66.71286659999987,66.71286659999987,66.71286659999987,66.71286659999987,66.71286659999987,66.71286659999987,66.71286659999987,005,P006,2025_Jan_25_1200,ConditionRich,2021.2.3,59.93867075195252,
15.75,16.0,41,0.0,Stimuli/Blank.png,0,0,0.0,0,24,24,24,,,,,,,,,,,,,15.779105999999956,0.02910599999995611,None,,67.46360080000068,67.46360080000068,67.46360080000068,67.46360080000068,67.46360080000068,67.46360080000068,67.46360080000068,67.46360080000068,67.46360080000068,67.46360080000068,005,P006,2025_Jan_25_1200,ConditionRich,2021.2.3,59.93867075195252,
16.0,16.75,35,0.75,Stimuli/P006/things_pig_03s.jpg,0,0,0.0,0,25,25,25,,,,,,,,,,,,,16.012928799999827,0.012928799999826879,None,,67.71376490000057,67.71376490000057,67.71376490000057,67.71376490000057,67.71376490000057,67.71376490000057,67.71376490000057,67.71376490000057,67.71376490000057,67.71376490000057,005,P006,2025_Jan_25_1200,ConditionRich,2021.2.3,59.93867075195252,
16.75,17.0,41,0.0,Stimuli/Blank.png,0,0,0.0,0,26,26,26,,,,,,,,,,,,,16.78181459999996,0.0318145999999615,None,,68.48109410000052,68.48109410000052,68.48109410000052,68.48109410000052,68.48109410000052,68.48109410000052,68.48109410000052,68.48109410000052,68.48109410000052,68.48109410000052,005,P006,2025_Jan_25_1200,ConditionRich,2021.2.3,59.93867075195252,
17.0,17.75,35,0.75,Stimuli/P006/things_pig_03s.jpg,0,0,0.0,0,27,27,27,,,,,,,,,,,,,17.032152699999642,0.03215269999964221,None,,68.73131610000019,68.73131610000019,68.73131610000019,68.73131610000019,68.73131610000019,68.73131610000019,68.73131610000019,68.73131610000019,68.73131610000019,68.73131610000019,005,P006,2025_Jan_25_1200,ConditionRich,2021.2.3,59.93867075195252,
17.75,18.0,41,0.0,Stimuli/Blank.png,0,0,0.0,0,28,28,28,,,,,,,,,,,,,17.764413599999898,0.014413599999897997,None,,69.44869600000038,69.44869600000038,69.44869600000038,69.44869600000038,69.44869600000038,69.44869600000038,69.44869600000038,69.44869600000038,69.44869600000038,69.44869600000038,005,P006,2025_Jan_25_1200,ConditionRich,2021.2.3,59.93867075195252,
18.0,18.75,35,0.75,Stimuli/P006/things_pig_03s.jpg,0,0,0.0,0,29,29,29,,,,,,,,,,,,,18.0139379000002,0.013937900000200898,None,,69.6988377000007,69.6988377000007,69.6988377000007,69.6988377000007,69.6988377000007,69.6988377000007,69.6988377000007,69.6988377000007,69.6988377000007,69.6988377000007,005,P006,2025_Jan_25_1200,ConditionRich,2021.2.3,59.93867075195252,
18.75,19.0,41,0.0,Stimuli/Blank.png,0,0,0.0,0,30,30,30,,,,,,,,,,,,,18.767026299999998,0.017026299999997718,None,,70.46618360000048,70.46618360000048,70.46618360000048,70.46618360000048,70.46618360000048,70.46618360000048,70.46618360000048,70.46618360000048,70.46618360000048,70.46618360000048,005,P006,2025_Jan_25_1200,ConditionRich,2021.2.3,59.93867075195252,
19.0,19.75,35,0.75,Stimuli/P006/things_pig_03s.jpg,0,0,0.0,0,31,31,31,,,,,,,,,,,,,19.017645099999754,0.017645099999754166,None,,70.7164040000007,70.7164040000007,70.7164040000007,70.7164040000007,70.7164040000007,70.7164040000007,70.7164040000007,70.7164040000007,70.7164040000007,70.7164040000007,005,P006,2025_Jan_25_1200,ConditionRich,2021.2.3,59.93867075195252,
19.75,20.0,41,0.0,Stimuli/Blank.png,0,0,0.0,0,32,32,32,,,,,,,,,,,,,19.7673563999997,0.017356399999698624,5,0.20151379999970231,71.46707200000037,71.46707200000037,71.46707200000037,71.46707200000037,71.46707200000037,71.46707200000037,71.46707200000037,71.46707200000037,71.46707200000037,71.46707200000037,005,P006,2025_Jan_25_1200,ConditionRich,2021.2.3,59.93867075195252,
20.0,20.75,5,0.75,Stimuli/P006/sun_axaqdcecfojvpvrl.jpg,0,0,0.0,0,33,33,33,,,,,,,,,,,,,20.01726669999971,0.01726669999970909,None,,71.71727929999997,71.71727929999997,71.71727929999997,71.71727929999997,71.71727929999997,71.71727929999997,71.71727929999997,71.71727929999997,71.71727929999997,71.71727929999997,005,P006,2025_Jan_25_1200,ConditionRich,2021.2.3,59.93867075195252,
20.75,21.0,41,0.0,Stimuli/Blank.png,0,0,0.0,0,34,34,34,,,,,,,,,,,,,20.767260200000237,0.01726020000023709,None,,72.45127520000005,72.45127520000005,72.45127520000005,72.45127520000005,72.45127520000005,72.45127520000005,72.45127520000005,72.45127520000005,72.45127520000005,72.45127520000005,005,P006,2025_Jan_25_1200,ConditionRich,2021.2.3,59.93867075195252,
21.0,21.75,5,0.75,Stimuli/P006/sun_axaqdcecfojvpvrl.jpg,0,0,0.0,0,35,35,35,,,,,,,,,,,,,21.002079799999592,0.002079799999592069,None,,72.70151440000063,72.70151440000063,72.70151440000063,72.70151440000063,72.70151440000063,72.70151440000063,72.70151440000063,72.70151440000063,72.70151440000063,72.70151440000063,005,P006,2025_Jan_25_1200,ConditionRich,2021.2.3,59.93867075195252,
21.75,22.0,41,0.0,Stimuli/Blank.png,0,0,0.0,0,36,36,36,,,,,,,,,,,,,21.768144099999517,0.018144099999517493,None,,73.45214390000001,73.45214390000001,73.45214390000001,73.45214390000001,73.45214390000001,73.45214390000001,73.45214390000001,73.45214390000001,73.45214390000001,73.45214390000001,005,P006,2025_Jan_25_1200,ConditionRich,2021.2.3,59.93867075195252,
22.0,22.75,5,0.75,Stimuli/P006/sun_axaqdcecfojvpvrl.jpg,1,0,0.75,0,37,37,37,,,,,,,,,,,,,22.00202679999984,0.002026799999839568,1,0.42429919999995036,73.70239000000038,73.70239000000038,73.70239000000038,73.70239000000038,73.70239000000038,73.70239000000038,73.70239000000038,74.41966010000033,73.70239000000038,73.70239000000038,005,P006,2025_Jan_25_1200,ConditionRich,2021.2.3,59.93867075195252,
22.75,23.0,41,0.0,Stimuli/Blank.png,0,0,0.0,0,38,38,38,,,,,,,,,,,,,22.76841069999955,0.01841069999954925,None,,74.45302810000067,74.45302810000067,74.45302810000067,74.45302810000067,74.45302810000067,74.45302810000067,74.45302810000067,74.45302810000067,74.45302810000067,74.45302810000067,005,P006,2025_Jan_25_1200,ConditionRich,2021.2.3,59.93867075195252,
23.0,23.75,5,0.75,Stimuli/P006/sun_axaqdcecfojvpvrl.jpg,0,0,0.0,0,39,39,39,,,,,,,,,,,,,23.00227939999968,0.002279399999679299,None,,74.70327110000017,74.70327110000017,74.70327110000017,74.70327110000017,74.70327110000017,74.70327110000017,74.70327110000017,74.70327110000017,74.70327110000017,74.70327110000017,005,P006,2025_Jan_25_1200,ConditionRich,2021.2.3,59.93867075195252,
23.75,24.0,41,0.0,Stimuli/Blank.png,0,0,0.0,0,40,40,40,,,,,,,,,,,,,23.77165909999985,0.021659099999851605,5,0.19807250000030763,75.47060090000014,75.47060090000014,75.47060090000014,75.47060090000014,75.47060090000014,75.47060090000014,75.47060090000014,75.47060090000014,75.47060090000014,75.47060090000014,005,P006,2025_Jan_25_1200,ConditionRich,2021.2.3,59.93867075195252,
24.0,24.75,32,0.75,Stimuli/P006/things_jumpsuit_03s.jpg,0,0,0.0,0,41,41,41,,,,,,,,,,,,,24.02065820000007,0.020658200000070792,None,,75.72081330000037,75.72081330000037,75.72081330000037,75.72081330000037,75.72081330000037,75.72081330000037,75.72081330000037,75.72081330000037,75.72081330000037,75.72081330000037,005,P006,2025_Jan_25_1200,ConditionRich,2021.2.3,59.93867075195252,
24.75,25.0,41,0.0,Stimuli/Blank.png,0,0,0.0,0,42,42,42,,,,,,,,,,,,,24.770475899999838,0.020475899999837566,None,,76.45484840000063,76.45484840000063,76.45484840000063,76.45484840000063,76.45484840000063,76.45484840000063,76.45484840000063,76.45484840000063,76.45484840000063,76.45484840000063,005,P006,2025_Jan_25_1200,ConditionRich,2021.2.3,59.93867075195252,
25.0,25.75,32,0.75,Stimuli/P006/things_jumpsuit_03s.jpg,0,0,0.0,0,43,43,43,,,,,,,,,,,,,25.00397299999986,0.003972999999859894,None,,76.70502769999985,76.70502769999985,76.70502769999985,76.70502769999985,76.70502769999985,76.70502769999985,76.70502769999985,76.70502769999985,76.70502769999985,76.70502769999985,005,P006,2025_Jan_25_1200,ConditionRich,2021.2.3,59.93867075195252,
25.75,26.0,41,0.0,Stimuli/Blank.png,0,0,0.0,0,44,44,44,,,,,,,,,,,,,25.7723533999997,0.02235339999970165,None,,77.45569280000018,77.45569280000018,77.45569280000018,77.45569280000018,77.45569280000018,77.45569280000018,77.45569280000018,77.45569280000018,77.45569280000018,77.45569280000018,005,P006,2025_Jan_25_1200,ConditionRich,2021.2.3,59.93867075195252,
26.0,26.75,32,0.75,Stimuli/P006/things_jumpsuit_03s.jpg,1,0,0.75,0,45,45,45,,,,,,,,,,,,,26.00721369999974,0.00721369999973831,1,0.4357869000004939,77.70590679999987,77.70590679999987,77.70590679999987,77.70590679999987,77.70590679999987,77.70590679999987,77.70590679999987,78.43990900000063,77.70590679999987,77.70590679999987,005,P006,2025_Jan_25_1200,ConditionRich,2021.2.3,59.93867075195252,
26.75,27.0,41,0.0,Stimuli/Blank.png,0,0,0.0,0,46,46,46,,,,,,,,,,,,,26.772566699999516,0.02256669999951555,None,,78.4732754000006,78.4732754000006,78.4732754000006,78.4732754000006,78.4732754000006,78.4732754000006,78.4732754000006,78.4732754000006,78.4732754000006,78.4732754000006,005,P006,2025_Jan_25_1200,ConditionRich,2021.2.3,59.93867075195252,
27.0,27.75,32,0.75,Stimuli/P006/things_jumpsuit_03s.jpg,0,0,0.0,0,47,47,47,,,,,,,,,,,,,27.02283239999997,0.02283239999997022,None,,78.70679240000027,78.70679240000027,78.70679240000027,78.70679240000027,78.70679240000027,78.70679240000027,78.70679240000027,78.70679240000027,78.70679240000027,78.70679240000027,005,P006,2025_Jan_25_1200,ConditionRich,2021.2.3,59.93867075195252,
27.75,28.0,41,0.0,Stimuli/Blank.png,0,0,0.0,0,48,48,48,,,,,,,,,,,,,27.756311600000117,0.006311600000117323,None,,79.4407712000002,79.4407712000002,79.4407712000002,79.4407712000002,79.4407712000002,79.4407712000002,79.4407712000002,79.4407712000002,79.4407712000002,79.4407712000002,005,P006,2025_Jan_25_1200,ConditionRich,2021.2.3,59.93867075195252,
28.0,28.75,9,0.75,Stimuli/P006/sun_bfcmdrojsffdttzu.jpg,0,0,0.0,0,49,49,49,,,,,,,,,,,,,28.007251899999574,0.007251899999573652,None,,79.70767430000069,79.70767430000069,79.70767430000069,79.70767430000069,79.70767430000069,79.70767430000069,79.70767430000069,79.70767430000069,79.70767430000069,79.70767430000069,005,P006,2025_Jan_25_1200,ConditionRich,2021.2.3,59.93867075195252,
28.75,29.0,41,0.0,Stimuli/Blank.png,0,0,0.0,0,50,50,50,,,,,,,,,,,,,28.773704899999757,0.02370489999975689,None,,80.45833350000066,80.45833350000066,80.45833350000066,80.45833350000066,80.45833350000066,80.45833350000066,80.45833350000066,80.45833350000066,80.45833350000066,80.45833350000066,005,P006,2025_Jan_25_1200,ConditionRich,2021.2.3,59.93867075195252,
29.0,29.75,9,0.75,Stimuli/P006/sun_bfcmdrojsffdttzu.jpg,0,0,0.0,0,51,51,51,,,,,,,,,,,,,29.007523399999627,0.007523399999627145,None,,80.70856580000054,80.70856580000054,80.70856580000054,80.70856580000054,80.70856580000054,80.70856580000054,80.70856580000054,80.70856580000054,80.70856580000054,80.70856580000054,005,P006,2025_Jan_25_1200,ConditionRich,2021.2.3,59.93867075195252,
29.75,30.0,41,0.0,Stimuli/Blank.png,0,0,0.0,0,52,52,52,,,,,,,,,,,,,29.776873499999965,0.026873499999965134,5,0.19280259999959526,81.47591050000028,81.47591050000028,81.47591050000028,81.47591050000028,81.47591050000028,81.47591050000028,81.47591050000028,81.47591050000028,81.47591050000028,81.47591050000028,005,P006,2025_Jan_25_1200,ConditionRich,2021.2.3,59.93867075195252,
30.0,30.75,9,0.75,Stimuli/P006/sun_bfcmdrojsffdttzu.jpg,0,0,0.0,0,53,53,53,,,,,,,,,,,,,30.025066100000004,0.025066100000003644,None,,81.70943840000018,81.70943840000018,81.70943840000018,81.70943840000018,81.70943840000018,81.70943840000018,81.70943840000018,81.70943840000018,81.70943840000018,81.70943840000018,005,P006,2025_Jan_25_1200,ConditionRich,2021.2.3,59.93867075195252,
30.75,31.0,41,0.0,Stimuli/Blank.png,0,0,0.0,0,54,54,54,,,,,,,,,,,,,30.75925869999992,0.009258699999918463,None,,82.44347700000071,82.44347700000071,82.44347700000071,82.44347700000071,82.44347700000071,82.44347700000071,82.44347700000071,82.44347700000071,82.44347700000071,82.44347700000071,005,P006,2025_Jan_25_1200,ConditionRich,2021.2.3,59.93867075195252,
31.0,31.75,9,0.75,Stimuli/P006/sun_bfcmdrojsffdttzu.jpg,0,0,0.0,0,55,55,55,,,,,,,,,,,,,31.009513799999695,0.009513799999695038,None,,82.69363890000022,82.69363890000022,82.69363890000022,82.69363890000022,82.69363890000022,82.69363890000022,82.69363890000022,82.69363890000022,82.69363890000022,82.69363890000022,005,P006,2025_Jan_25_1200,ConditionRich,2021.2.3,59.93867075195252,
31.75,32.0,41,0.0,Stimuli/Blank.png,0,0,0.0,0,56,56,56,,,,,,,,,,,,,31.759465799999816,0.009465799999816227,None,,83.44430020000073,83.44430020000073,83.44430020000073,83.44430020000073,83.44430020000073,83.44430020000073,83.44430020000073,83.44430020000073,83.44430020000073,83.44430020000073,005,P006,2025_Jan_25_1200,ConditionRich,2021.2.3,59.93867075195252,
32.0,32.75,25,0.75,Stimuli/P006/things_dog_03s.jpg,0,0,0.0,0,57,57,57,,,,,,,,,,,,,32.010334599999624,0.010334599999623606,None,,83.71120080000037,83.71120080000037,83.71120080000037,83.71120080000037,83.71120080000037,83.71120080000037,83.71120080000037,83.71120080000037,83.71120080000037,83.71120080000037,005,P006,2025_Jan_25_1200,ConditionRich,2021.2.3,59.93867075195252,
32.75,33.0,41,0.0,Stimuli/Blank.png,0,0,0.0,0,58,58,58,,,,,,,,,,,,,32.778334800000266,0.028334800000266114,None,,84.47857300000032,84.47857300000032,84.47857300000032,84.47857300000032,84.47857300000032,84.47857300000032,84.47857300000032,84.47857300000032,84.47857300000032,84.47857300000032,005,P006,2025_Jan_25_1200,ConditionRich,2021.2.3,59.93867075195252,
33.0,33.75,25,0.75,Stimuli/P006/things_dog_03s.jpg,0,0,0.0,0,59,59,59,,,,,,,,,,,,,33.028228899999704,0.02822889999970357,None,,84.71208460000071,84.71208460000071,84.71208460000071,84.71208460000071,84.71208460000071,84.71208460000071,84.71208460000071,84.71208460000071,84.71208460000071,84.71208460000071,005,P006,2025_Jan_25_1200,ConditionRich,2021.2.3,59.93867075195252,
33.75,34.0,41,0.0,Stimuli/Blank.png,0,0,0.0,0,60,60,60,,,,,,,,,,,,,33.762675999999374,0.012675999999373744,None,,85.44607240000005,85.44607240000005,85.44607240000005,85.44607240000005,85.44607240000005,85.44607240000005,85.44607240000005,85.44607240000005,85.44607240000005,85.44607240000005,005,P006,2025_Jan_25_1200,ConditionRich,2021.2.3,59.93867075195252,
34.0,34.75,25,0.75,Stimuli/P006/things_dog_03s.jpg,0,0,0.0,0,61,61,61,,,,,,,,,,,,,34.011486599999444,0.01148659999944357,None,,85.69628830000056,85.69628830000056,85.69628830000056,85.69628830000056,85.69628830000056,85.69628830000056,85.69628830000056,85.69628830000056,85.69628830000056,85.69628830000056,005,P006,2025_Jan_25_1200,ConditionRich,2021.2.3,59.93867075195252,
34.75,35.0,41,0.0,Stimuli/Blank.png,0,0,0.0,0,62,62,62,,,,,,,,,,,,,34.76289540000016,0.012895400000161317,None,,86.44695709999996,86.44695709999996,86.44695709999996,86.44695709999996,86.44695709999996,86.44695709999996,86.44695709999996,86.44695709999996,86.44695709999996,86.44695709999996,005,P006,2025_Jan_25_1200,ConditionRich,2021.2.3,59.93867075195252,
35.0,35.75,25,0.75,Stimuli/P006/things_dog_03s.jpg,0,0,0.0,0,63,63,63,,,,,,,,,,,,,35.01296749999983,0.012967499999831489,None,,86.69717240000045,86.69717240000045,86.69717240000045,86.69717240000045,86.69717240000045,86.69717240000045,86.69717240000045,86.69717240000045,86.69717240000045,86.69717240000045,005,P006,2025_Jan_25_1200,ConditionRich,2021.2.3,59.93867075195252,
35.75,36.0,41,0.0,Stimuli/Blank.png,0,0,0.0,0,64,64,64,,,,,,,,,,,,,35.763562099999945,0.013562099999944621,None,,87.44794929999989,87.44794929999989,87.44794929999989,87.44794929999989,87.44794929999989,87.44794929999989,87.44794929999989,87.44794929999989,87.44794929999989,87.44794929999989,005,P006,2025_Jan_25_1200,ConditionRich,2021.2.3,59.93867075195252,
36.0,36.75,17,0.75,Stimuli/P006/sun_bwsictslfxygpqbp.jpg,0,0,0.0,0,65,65,65,,,,,,,,,,,,,36.013108099999954,0.013108099999953993,None,,87.69805989999986,87.69805989999986,87.69805989999986,87.69805989999986,87.69805989999986,87.69805989999986,87.69805989999986,87.69805989999986,87.69805989999986,87.69805989999986,005,P006,2025_Jan_25_1200,ConditionRich,2021.2.3,59.93867075195252,
36.75,37.0,41,0.0,Stimuli/Blank.png,0,0,0.0,0,66,66,66,,,,,,,,,,,,,36.766619199999695,0.01661919999969541,None,,88.46540220000043,88.46540220000043,88.46540220000043,88.46540220000043,88.46540220000043,88.46540220000043,88.46540220000043,88.46540220000043,88.46540220000043,88.46540220000043,005,P006,2025_Jan_25_1200,ConditionRich,2021.2.3,59.93867075195252,
37.0,37.75,17,0.75,Stimuli/P006/sun_bwsictslfxygpqbp.jpg,0,0,0.0,0,67,67,67,,,,,,,,,,,,,37.01785909999944,0.01785909999944124,None,,88.73230960000001,88.73230960000001,88.73230960000001,88.73230960000001,88.73230960000001,88.73230960000001,88.73230960000001,88.73230960000001,88.73230960000001,88.73230960000001,005,P006,2025_Jan_25_1200,ConditionRich,2021.2.3,59.93867075195252,
37.75,38.0,41,0.0,Stimuli/Blank.png,0,0,0.0,0,68,68,68,,,,,,,,,,,,,37.78248319999966,0.03248319999966043,None,,89.48298040000009,89.48298040000009,89.48298040000009,89.48298040000009,89.48298040000009,89.48298040000009,89.48298040000009,89.48298040000009,89.48298040000009,89.48298040000009,005,P006,2025_Jan_25_1200,ConditionRich,2021.2.3,59.93867075195252,
38.0,38.75,17,0.75,Stimuli/P006/sun_bwsictslfxygpqbp.jpg,0,0,0.0,0,69,69,69,,,,,,,,,,,,,38.01576399999976,0.015763999999762746,None,,89.71650060000047,89.71650060000047,89.71650060000047,89.71650060000047,89.71650060000047,89.71650060000047,89.71650060000047,89.71650060000047,89.71650060000047,89.71650060000047,005,P006,2025_Jan_25_1200,ConditionRich,2021.2.3,59.93867075195252,
38.75,39.0,41,0.0,Stimuli/Blank.png,0,0,0.0,0,70,70,70,,,,,,,,,,,,,38.766295499999615,0.01629549999961455,None,,90.45047969999996,90.45047969999996,90.45047969999996,90.45047969999996,90.45047969999996,90.45047969999996,90.45047969999996,90.45047969999996,90.45047969999996,90.45047969999996,005,P006,2025_Jan_25_1200,ConditionRich,2021.2.3,59.93867075195252,
39.0,39.75,17,0.75,Stimuli/P006/sun_bwsictslfxygpqbp.jpg,0,0,0.0,0,71,71,71,,,,,,,,,,,,,39.00196340000002,0.001963400000022375,None,,90.7007065000007,90.7007065000007,90.7007065000007,90.7007065000007,90.7007065000007,90.7007065000007,90.7007065000007,90.7007065000007,90.7007065000007,90.7007065000007,005,P006,2025_Jan_25_1200,ConditionRich,2021.2.3,59.93867075195252,
39.75,40.0,41,0.0,Stimuli/Blank.png,0,0,0.0,0,72,72,72,,,,,,,,,,,,,39.76748729999963,0.017487299999629613,None,,91.45136920000004,91.45136920000004,91.45136920000004,91.45136920000004,91.45136920000004,91.45136920000004,91.45136920000004,91.45136920000004,91.45136920000004,91.45136920000004,005,P006,2025_Jan_25_1200,ConditionRich,2021.2.3,59.93867075195252,
40.0,40.75,2,0.75,Stimuli/P006/sun_ahmycohdkioefoxs.jpg,0,0,0.0,0,73,73,73,,,,,,,,,,,,,40.0008828,0.0008827999999994063,None,,91.70158549999996,91.70158549999996,91.70158549999996,91.70158549999996,91.70158549999996,91.70158549999996,91.70158549999996,91.70158549999996,91.70158549999996,91.70158549999996,005,P006,2025_Jan_25_1200,ConditionRich,2021.2.3,59.93867075195252,
40.75,41.0,41,0.0,Stimuli/Blank.png,0,0,0.0,0,74,74,74,,,,,,,,,,,,,40.767906299999595,0.01790629999959492,None,,92.45224260000032,92.45224260000032,92.45224260000032,92.45224260000032,92.45224260000032,92.45224260000032,92.45224260000032,92.45224260000032,92.45224260000032,92.45224260000032,005,P006,2025_Jan_25_1200,ConditionRich,2021.2.3,59.93867075195252,
41.0,41.75,2,0.75,Stimuli/P006/sun_ahmycohdkioefoxs.jpg,0,0,0.0,0,75,75,75,,,,,,,,,,,,,41.00167529999999,0.0016752999999880558,None,,92.68579730000056,92.68579730000056,92.68579730000056,92.68579730000056,92.68579730000056,92.68579730000056,92.68579730000056,92.68579730000056,92.68579730000056,92.68579730000056,005,P006,2025_Jan_25_1200,ConditionRich,2021.2.3,59.93867075195252,
41.75,42.0,41,0.0,Stimuli/Blank.png,0,0,0.0,0,76,76,76,,,,,,,,,,,,,41.752657899999576,0.0026578999995763297,5,0.21556150000014895,93.45315010000013,93.45315010000013,93.45315010000013,93.45315010000013,93.45315010000013,93.45315010000013,93.45315010000013,93.45315010000013,93.45315010000013,93.45315010000013,005,P006,2025_Jan_25_1200,ConditionRich,2021.2.3,59.93867075195252,
42.0,42.75,2,0.75,Stimuli/P006/sun_ahmycohdkioefoxs.jpg,0,0,0.0,0,77,77,77,,,,,,,,,,,,,42.01943899999969,0.019438999999692896,None,,93.7033549000007,93.7033549000007,93.7033549000007,93.7033549000007,93.7033549000007,93.7033549000007,93.7033549000007,93.7033549000007,93.7033549000007,93.7033549000007,005,P006,2025_Jan_25_1200,ConditionRich,2021.2.3,59.93867075195252,
42.75,43.0,41,0.0,Stimuli/Blank.png,0,0,0.0,0,78,78,78,,,,,,,,,,,,,42.75315200000023,0.0031520000002274173,None,,94.43733860000066,94.43733860000066,94.43733860000066,94.43733860000066,94.43733860000066,94.43733860000066,94.43733860000066,94.43733860000066,94.43733860000066,94.43733860000066,005,P006,2025_Jan_25_1200,ConditionRich,2021.2.3,59.93867075195252,
43.0,43.75,2,0.75,Stimuli/P006/sun_ahmycohdkioefoxs.jpg,0,0,0.0,0,79,79,79,,,,,,,,,,,,,43.00364769999942,0.003647699999419274,None,,94.6875570000002,94.6875570000002,94.6875570000002,94.6875570000002,94.6875570000002,94.6875570000002,94.6875570000002,94.6875570000002,94.6875570000002,94.6875570000002,005,P006,2025_Jan_25_1200,ConditionRich,2021.2.3,59.93867075195252,
43.75,44.0,41,0.0,Stimuli/Blank.png,0,0,0.0,0,80,80,80,,,,,,,,,,,,,43.753781499999604,0.0037814999996044207,None,,95.43823000000066,95.43823000000066,95.43823000000066,95.43823000000066,95.43823000000066,95.43823000000066,95.43823000000066,95.43823000000066,95.43823000000066,95.43823000000066,005,P006,2025_Jan_25_1200,ConditionRich,2021.2.3,59.93867075195252,
44.0,44.75,27,0.75,Stimuli/P006/things_first-aid_kit_03s.jpg,0,0,0.0,0,81,81,81,,,,,,,,,,,,,44.00405039999987,0.004050399999869114,None,,95.70511859999988,95.70511859999988,95.70511859999988,95.70511859999988,95.70511859999988,95.70511859999988,95.70511859999988,95.70511859999988,95.70511859999988,95.70511859999988,005,P006,2025_Jan_25_1200,ConditionRich,2021.2.3,59.93867075195252,
44.75,45.0,41,0.0,Stimuli/Blank.png,0,0,0.0,0,82,82,82,,,,,,,,,,,,,44.77254889999949,0.022548899999492278,None,,96.45579240000006,96.45579240000006,96.45579240000006,96.45579240000006,96.45579240000006,96.45579240000006,96.45579240000006,96.45579240000006,96.45579240000006,96.45579240000006,005,P006,2025_Jan_25_1200,ConditionRich,2021.2.3,59.93867075195252,
45.0,45.75,27,0.75,Stimuli/P006/things_first-aid_kit_03s.jpg,0,0,0.0,0,83,83,83,,,,,,,,,,,,,45.004445399999895,0.004445399999895017,None,,96.68932620000032,96.68932620000032,96.68932620000032,96.68932620000032,96.68932620000032,96.68932620000032,96.68932620000032,96.68932620000032,96.68932620000032,96.68932620000032,005,P006,2025_Jan_25_1200,ConditionRich,2021.2.3,59.93867075195252,
45.75,46.0,41,0.0,Stimuli/Blank.png,0,0,0.0,0,84,84,84,,,,,,,,,,,,,45.757110399999874,0.007110399999874062,None,,97.43998660000034,97.43998660000034,97.43998660000034,97.43998660000034,97.43998660000034,97.43998660000034,97.43998660000034,97.43998660000034,97.43998660000034,97.43998660000034,005,P006,2025_Jan_25_1200,ConditionRich,2021.2.3,59.93867075195252,
46.0,46.75,27,0.75,Stimuli/P006/things_first-aid_kit_03s.jpg,0,0,0.0,0,85,85,85,,,,,,,,,,,,,46.00548909999998,0.005489099999977043,None,,97.69020890000047,97.69020890000047,97.69020890000047,97.69020890000047,97.69020890000047,97.69020890000047,97.69020890000047,97.69020890000047,97.69020890000047,97.69020890000047,005,P006,2025_Jan_25_1200,ConditionRich,2021.2.3,59.93867075195252,
46.75,47.0,41,0.0,Stimuli/Blank.png,0,0,0.0,0,86,86,86,,,,,,,,,,,,,46.75626809999994,0.006268099999942933,None,,98.44087350000063,98.44087350000063,98.44087350000063,98.44087350000063,98.44087350000063,98.44087350000063,98.44087350000063,98.44087350000063,98.44087350000063,98.44087350000063,005,P006,2025_Jan_25_1200,ConditionRich,2021.2.3,59.93867075195252,
47.0,47.75,27,0.75,Stimuli/P006/things_first-aid_kit_03s.jpg,0,0,0.0,0,87,87,87,,,,,,,,,,,,,47.00656629999958,0.006566299999576586,None,,98.69108779999988,98.69108779999988,98.69108779999988,98.69108779999988,98.69108779999988,98.69108779999988,98.69108779999988,98.69108779999988,98.69108779999988,98.69108779999988,005,P006,2025_Jan_25_1200,ConditionRich,2021.2.3,59.93867075195252,
47.75,48.0,41,0.0,Stimuli/Blank.png,0,0,0.0,0,88,88,88,,,,,,,,,,,,,47.75686339999993,0.006863399999929243,None,,99.4417497000004,99.4417497000004,99.4417497000004,99.4417497000004,99.4417497000004,99.4417497000004,99.4417497000004,99.4417497000004,99.4417497000004,99.4417497000004,005,P006,2025_Jan_25_1200,ConditionRich,2021.2.3,59.93867075195252,
48.0,48.75,7,0.75,Stimuli/P006/sun_bdmdlkpsznknrcqi.jpg,0,0,0.0,0,89,89,89,,,,,,,,,,,,,48.00733229999969,0.007332299999688985,None,,99.69198200000028,99.69198200000028,99.69198200000028,99.69198200000028,99.69198200000028,99.69198200000028,99.69198200000028,99.69198200000028,99.69198200000028,99.69198200000028,005,P006,2025_Jan_25_1200,ConditionRich,2021.2.3,59.93867075195252,
48.75,49.0,41,0.0,Stimuli/Blank.png,0,0,0.0,0,90,90,90,,,,,,,,,,,,,48.758264099999906,0.008264099999905739,None,,100.4426981000006,100.4426981000006,100.4426981000006,100.4426981000006,100.4426981000006,100.4426981000006,100.4426981000006,100.4426981000006,100.4426981000006,100.4426981000006,005,P006,2025_Jan_25_1200,ConditionRich,2021.2.3,59.93867075195252,
49.0,49.75,7,0.75,Stimuli/P006/sun_bdmdlkpsznknrcqi.jpg,0,0,0.0,0,91,91,91,,,,,,,,,,,,,49.00849729999936,0.00849729999936244,None,,100.69286629999988,100.69286629999988,100.69286629999988,100.69286629999988,100.69286629999988,100.69286629999988,100.69286629999988,100.69286629999988,100.69286629999988,100.69286629999988,005,P006,2025_Jan_25_1200,ConditionRich,2021.2.3,59.93867075195252,
49.75,50.0,41,0.0,Stimuli/Blank.png,0,0,0.0,0,92,92,92,,,,,,,,,,,,,49.76070900000013,0.010709000000133528,None,,101.44353860000047,101.44353860000047,101.44353860000047,101.44353860000047,101.44353860000047,101.44353860000047,101.44353860000047,101.44353860000047,101.44353860000047,101.44353860000047,005,P006,2025_Jan_25_1200,ConditionRich,2021.2.3,59.93867075195252,
50.0,50.75,7,0.75,Stimuli/P006/sun_bdmdlkpsznknrcqi.jpg,0,0,0.0,0,93,93,93,,,,,,,,,,,,,50.01104940000005,0.011049400000047171,None,,101.71041550000064,101.71041550000064,101.71041550000064,101.71041550000064,101.71041550000064,101.71041550000064,101.71041550000064,101.71041550000064,101.71041550000064,101.71041550000064,005,P006,2025_Jan_25_1200,ConditionRich,2021.2.3,59.93867075195252,
50.75,51.0,41,0.0,Stimuli/Blank.png,0,0,0.0,0,94,94,94,,,,,,,,,,,,,50.7764516999996,0.026451699999597622,None,,102.46108559999993,102.46108559999993,102.46108559999993,102.46108559999993,102.46108559999993,102.46108559999993,102.46108559999993,102.46108559999993,102.46108559999993,102.46108559999993,005,P006,2025_Jan_25_1200,ConditionRich,2021.2.3,59.93867075195252,
51.0,51.75,7,0.75,Stimuli/P006/sun_bdmdlkpsznknrcqi.jpg,0,0,0.0,0,95,95,95,,,,,,,,,,,,,51.01039440000022,0.010394400000222959,None,,102.69463150000047,102.69463150000047,102.69463150000047,102.69463150000047,102.69463150000047,102.69463150000047,102.69463150000047,102.69463150000047,102.69463150000047,102.69463150000047,005,P006,2025_Jan_25_1200,ConditionRich,2021.2.3,59.93867075195252,
51.75,52.0,41,0.0,Stimuli/Blank.png,0,0,0.0,0,96,96,96,,,,,,,,,,,,,51.7614324999995,0.011432499999500578,5,0.20680579999952897,103.46198060000006,103.46198060000006,103.46198060000006,103.46198060000006,103.46198060000006,103.46198060000006,103.46198060000006,103.46198060000006,103.46198060000006,103.46198060000006,005,P006,2025_Jan_25_1200,ConditionRich,2021.2.3,59.93867075195252,
52.0,52.75,20,0.75,Stimuli/P006/sun_dvxuxzytfdbjyzit.jpg,1,0,0.75,0,97,97,97,,,,,,,,,,,,,52.02818380000008,0.028183800000078918,1,0.4847681000001103,103.72887510000055,103.72887510000055,103.72887510000055,103.72887510000055,103.72887510000055,103.72887510000055,103.72887510000055,104.44616810000025,103.72887510000055,103.72887510000055,005,P006,2025_Jan_25_1200,ConditionRich,2021.2.3,59.93867075195252,
52.75,53.0,41,0.0,Stimuli/Blank.png,0,0,0.0,0,98,98,98,,,,,,,,,,,,,52.778148800000054,0.028148800000053598,None,,104.46285739999985,104.46285739999985,104.46285739999985,104.46285739999985,104.46285739999985,104.46285739999985,104.46285739999985,104.46285739999985,104.46285739999985,104.46285739999985,005,P006,2025_Jan_25_1200,ConditionRich,2021.2.3,59.93867075195252,
53.0,53.75,20,0.75,Stimuli/P006/sun_dvxuxzytfdbjyzit.jpg,0,0,0.0,0,99,99,99,,,,,,,,,,,,,53.011374599999726,0.011374599999726343,None,,104.69638790000045,104.69638790000045,104.69638790000045,104.69638790000045,104.69638790000045,104.69638790000045,104.69638790000045,104.69638790000045,104.69638790000045,104.69638790000045,005,P006,2025_Jan_25_1200,ConditionRich,2021.2.3,59.93867075195252,
53.75,54.0,41,0.0,Stimuli/Blank.png,0,0,0.0,0,100,100,100,,,,,,,,,,,,,53.763351099999454,0.013351099999454163,None,,105.447494,105.447494,105.447494,105.447494,105.447494,105.447494,105.447494,105.447494,105.447494,105.447494,005,P006,2025_Jan_25_1200,ConditionRich,2021.2.3,59.93867075195252,
54.0,54.75,20,0.75,Stimuli/P006/sun_dvxuxzytfdbjyzit.jpg,0,0,0.0,0,101,101,101,,,,,,,,,,,,,54.0127808999996,0.01278089999959775,None,,105.71396240000013,105.71396240000013,105.71396240000013,105.71396240000013,105.71396240000013,105.71396240000013,105.71396240000013,105.71396240000013,105.71396240000013,105.71396240000013,005,P006,2025_Jan_25_1200,ConditionRich,2021.2.3,59.93867075195252,
54.75,55.0,41,0.0,Stimuli/Blank.png,0,0,0.0,0,102,102,102,,,,,,,,,,,,,54.7811985999997,0.031198599999697763,None,,106.4813180000001,106.4813180000001,106.4813180000001,106.4813180000001,106.4813180000001,106.4813180000001,106.4813180000001,106.4813180000001,106.4813180000001,106.4813180000001,005,P006,2025_Jan_25_1200,ConditionRich,2021.2.3,59.93867075195252,
55.0,55.75,20,0.75,Stimuli/P006/sun_dvxuxzytfdbjyzit.jpg,0,0,0.0,0,103,103,103,,,,,,,,,,,,,55.03053490000002,0.03053490000002057,None,,106.71484430000055,106.71484430000055,106.71484430000055,106.71484430000055,106.71484430000055,106.71484430000055,106.71484430000055,106.71484430000055,106.71484430000055,106.71484430000055,005,P006,2025_Jan_25_1200,ConditionRich,2021.2.3,59.93867075195252,
55.75,56.0,41,0.0,Stimuli/Blank.png,0,0,0.0,0,104,104,104,,,,,,,,,,,,,55.76602980000007,0.016029800000069372,None,,107.46550530000059,107.46550530000059,107.46550530000059,107.46550530000059,107.46550530000059,107.46550530000059,107.46550530000059,107.46550530000059,107.46550530000059,107.46550530000059,005,P006,2025_Jan_25_1200,ConditionRich,2021.2.3,59.93867075195252,
56.0,56.75,40,0.75,Stimuli/P006/things_woman_03s.jpg,0,0,0.0,0,105,105,105,,,,,,,,,,,,,56.01435700000002,0.01435700000001816,None,,107.69904000000042,107.69904000000042,107.69904000000042,107.69904000000042,107.69904000000042,107.69904000000042,107.69904000000042,107.69904000000042,107.69904000000042,107.69904000000042,005,P006,2025_Jan_25_1200,ConditionRich,2021.2.3,59.93867075195252,
56.75,57.0,41,0.0,Stimuli/Blank.png,0,0,0.0,0,106,106,106,,,,,,,,,,,,,56.765538799999376,0.015538799999376351,None,,108.4496981000002,108.4496981000002,108.4496981000002,108.4496981000002,108.4496981000002,108.4496981000002,108.4496981000002,108.4496981000002,108.4496981000002,108.4496981000002,005,P006,2025_Jan_25_1200,ConditionRich,2021.2.3,59.93867075195252,
57.0,57.75,40,0.75,Stimuli/P006/things_woman_03s.jpg,0,0,0.0,0,107,107,107,,,,,,,,,,,,,57.00091069999962,0.0009106999996220111,None,,108.69992030000049,108.69992030000049,108.69992030000049,108.69992030000049,108.69992030000049,108.69992030000049,108.69992030000049,108.69992030000049,108.69992030000049,108.69992030000049,005,P006,2025_Jan_25_1200,ConditionRich,2021.2.3,59.93867075195252,
57.75,58.0,41,0.0,Stimuli/Blank.png,0,0,0.0,0,108,108,108,,,,,,,,,,,,,57.766430099999525,0.016430099999524828,None,,109.45059390000006,109.45059390000006,109.45059390000006,109.45059390000006,109.45059390000006,109.45059390000006,109.45059390000006,109.45059390000006,109.45059390000006,109.45059390000006,005,P006,2025_Jan_25_1200,ConditionRich,2021.2.3,59.93867075195252,
58.0,58.75,40,0.75,Stimuli/P006/things_woman_03s.jpg,0,0,0.0,0,109,109,109,,,,,,,,,,,,,58.001832199999626,0.0018321999996260274,None,,109.70077709999987,109.70077709999987,109.70077709999987,109.70077709999987,109.70077709999987,109.70077709999987,109.70077709999987,109.70077709999987,109.70077709999987,109.70077709999987,005,P006,2025_Jan_25_1200,ConditionRich,2021.2.3,59.93867075195252,
58.75,59.0,41,0.0,Stimuli/Blank.png,0,0,0.0,0,110,110,110,,,,,,,,,,,,,58.76687039999979,0.016870399999788788,None,,110.45147650000035,110.45147650000035,110.45147650000035,110.45147650000035,110.45147650000035,110.45147650000035,110.45147650000035,110.45147650000035,110.45147650000035,110.45147650000035,005,P006,2025_Jan_25_1200,ConditionRich,2021.2.3,59.93867075195252,
59.0,59.75,40,0.75,Stimuli/P006/things_woman_03s.jpg,0,0,0.0,0,111,111,111,,,,,,,,,,,,,59.00069280000025,0.0006928000002517365,None,,110.68501749999996,110.68501749999996,110.68501749999996,110.68501749999996,110.68501749999996,110.68501749999996,110.68501749999996,110.68501749999996,110.68501749999996,110.68501749999996,005,P006,2025_Jan_25_1200,ConditionRich,2021.2.3,59.93867075195252,
59.75,60.0,41,0.0,Stimuli/Blank.png,0,0,0.0,0,112,112,112,,,,,,,,,,,,,59.75166949999948,0.00166949999947974,None,,111.43567119999989,111.43567119999989,111.43567119999989,111.43567119999989,111.43567119999989,111.43567119999989,111.43567119999989,111.43567119999989,111.43567119999989,111.43567119999989,005,P006,2025_Jan_25_1200,ConditionRich,2021.2.3,59.93867075195252,
60.0,60.75,24,0.75,Stimuli/P006/things_crab_03s.jpg,0,0,0.0,0,113,113,113,,,,,,,,,,,,,60.001462100000026,0.001462100000026112,None,,111.68588929999987,111.68588929999987,111.68588929999987,111.68588929999987,111.68588929999987,111.68588929999987,111.68588929999987,111.68588929999987,111.68588929999987,111.68588929999987,005,P006,2025_Jan_25_1200,ConditionRich,2021.2.3,59.93867075195252,
60.75,61.0,41,0.0,Stimuli/Blank.png,0,0,0.0,0,114,114,114,,,,,,,,,,,,,60.75244829999974,0.002448299999741721,None,,112.43654909999987,112.43654909999987,112.43654909999987,112.43654909999987,112.43654909999987,112.43654909999987,112.43654909999987,112.43654909999987,112.43654909999987,112.43654909999987,005,P006,2025_Jan_25_1200,ConditionRich,2021.2.3,59.93867075195252,
61.0,61.75,24,0.75,Stimuli/P006/things_crab_03s.jpg,0,0,0.0,0,115,115,115,,,,,,,,,,,,,61.002900800000134,0.0029008000001340406,None,,112.70348250000006,112.70348250000006,112.70348250000006,112.70348250000006,112.70348250000006,112.70348250000006,112.70348250000006,112.70348250000006,112.70348250000006,112.70348250000006,005,P006,2025_Jan_25_1200,ConditionRich,2021.2.3,59.93867075195252,
61.75,62.0,41,0.0,Stimuli/Blank.png,0,0,0.0,0,116,116,116,,,,,,,,,,,,,61.772119100000054,0.02211910000005446,5,0.1977617000002283,113.4708043999999,113.4708043999999,113.4708043999999,113.4708043999999,113.4708043999999,113.4708043999999,113.4708043999999,113.4708043999999,113.4708043999999,113.4708043999999,005,P006,2025_Jan_25_1200,ConditionRich,2021.2.3,59.93867075195252,
62.0,62.75,24,0.75,Stimuli/P006/things_crab_03s.jpg,0,0,0.0,0,117,117,117,,,,,,,,,,,,,62.01942489999965,0.019424899999648915,None,,113.70434430000023,113.70434430000023,113.70434430000023,113.70434430000023,113.70434430000023,113.70434430000023,113.70434430000023,113.70434430000023,113.70434430000023,113.70434430000023,005,P006,2025_Jan_25_1200,ConditionRich,2021.2.3,59.93867075195252,
62.75,63.0,41,0.0,Stimuli/Blank.png,0,0,0.0,0,118,118,118,,,,,,,,,,,,,62.7535012999997,0.003501299999697949,None,,114.43832269999984,114.43832269999984,114.43832269999984,114.43832269999984,114.43832269999984,114.43832269999984,114.43832269999984,114.43832269999984,114.43832269999984,114.43832269999984,005,P006,2025_Jan_25_1200,ConditionRich,2021.2.3,59.93867075195252,
63.0,63.75,24,0.75,Stimuli/P006/things_crab_03s.jpg,0,0,0.0,0,119,119,119,,,,,,,,,,,,,63.00585039999987,0.005850399999872025,None,,114.70522470000014,114.70522470000014,114.70522470000014,114.70522470000014,114.70522470000014,114.70522470000014,114.70522470000014,114.70522470000014,114.70522470000014,114.70522470000014,005,P006,2025_Jan_25_1200,ConditionRich,2021.2.3,59.93867075195252,
63.75,64.0,41,0.0,Stimuli/Blank.png,0,0,0.0,0,120,120,120,,,,,,,,,,,,,63.772468899999694,0.02246889999969426,5,0.19613009999920905,115.47258670000065,115.47258670000065,115.47258670000065,115.47258670000065,115.47258670000065,115.47258670000065,115.47258670000065,115.47258670000065,115.47258670000065,115.47258670000065,005,P006,2025_Jan_25_1200,ConditionRich,2021.2.3,59.93867075195252,
64.0,64.75,13,0.75,Stimuli/P006/sun_bruphbrfsbxowtlq.jpg,0,0,0.0,0,121,121,121,,,,,,,,,,,,,64.0220862999995,0.022086299999500625,None,,115.70611000000008,115.70611000000008,115.70611000000008,115.70611000000008,115.70611000000008,115.70611000000008,115.70611000000008,115.70611000000008,115.70611000000008,115.70611000000008,005,P006,2025_Jan_25_1200,ConditionRich,2021.2.3,59.93867075195252,
64.75,65.0,41,0.0,Stimuli/Blank.png,0,0,0.0,0,122,122,122,,,,,,,,,,,,,64.7567140000001,0.006714000000101805,None,,116.44009910000023,116.44009910000023,116.44009910000023,116.44009910000023,116.44009910000023,116.44009910000023,116.44009910000023,116.44009910000023,116.44009910000023,116.44009910000023,005,P006,2025_Jan_25_1200,ConditionRich,2021.2.3,59.93867075195252,
65.0,65.75,13,0.75,Stimuli/P006/sun_bruphbrfsbxowtlq.jpg,0,0,0.0,0,123,123,123,,,,,,,,,,,,,65.00548609999987,0.00548609999987093,None,,116.69030440000006,116.69030440000006,116.69030440000006,116.69030440000006,116.69030440000006,116.69030440000006,116.69030440000006,116.69030440000006,116.69030440000006,116.69030440000006,005,P006,2025_Jan_25_1200,ConditionRich,2021.2.3,59.93867075195252,
65.75,66.0,41,0.0,Stimuli/Blank.png,0,0,0.0,0,124,124,124,,,,,,,,,,,,,65.75693599999977,0.006935999999768683,None,,117.44097460000012,117.44097460000012,117.44097460000012,117.44097460000012,117.44097460000012,117.44097460000012,117.44097460000012,117.44097460000012,117.44097460000012,117.44097460000012,005,P006,2025_Jan_25_1200,ConditionRich,2021.2.3,59.93867075195252,
66.0,66.75,13,0.75,Stimuli/P006/sun_bruphbrfsbxowtlq.jpg,0,0,0.0,0,125,125,125,,,,,,,,,,,,,66.00686200000018,0.0068620000001828885,None,,117.70788040000025,117.70788040000025,117.70788040000025,117.70788040000025,117.70788040000025,117.70788040000025,117.70788040000025,117.70788040000025,117.70788040000025,117.70788040000025,005,P006,2025_Jan_25_1200,ConditionRich,2021.2.3,59.93867075195252,
66.75,67.0,41,0.0,Stimuli/Blank.png,0,0,0.0,0,126,126,126,,,,,,,,,,,,,66.77566219999972,0.025662199999715085,None,,118.47522320000007,118.47522320000007,118.47522320000007,118.47522320000007,118.47522320000007,118.47522320000007,118.47522320000007,118.47522320000007,118.47522320000007,118.47522320000007,005,P006,2025_Jan_25_1200,ConditionRich,2021.2.3,59.93867075195252,
67.0,67.75,13,0.75,Stimuli/P006/sun_bruphbrfsbxowtlq.jpg,0,0,0.0,0,127,127,127,,,,,,,,,,,,,67.02595289999954,0.025952899999538204,None,,118.72544310000012,118.72544310000012,118.72544310000012,118.72544310000012,118.72544310000012,118.72544310000012,118.72544310000012,118.72544310000012,118.72544310000012,118.72544310000012,005,P006,2025_Jan_25_1200,ConditionRich,2021.2.3,59.93867075195252,
67.75,68.0,41,0.0,Stimuli/Blank.png,0,0,0.0,0,128,128,128,,,,,,,,,,,,,67.77554340000006,0.0255434000000605,None,,119.45942710000054,119.45942710000054,119.45942710000054,119.45942710000054,119.45942710000054,119.45942710000054,119.45942710000054,119.45942710000054,119.45942710000054,119.45942710000054,005,P006,2025_Jan_25_1200,ConditionRich,2021.2.3,59.93867075195252,
68.0,68.75,8,0.75,Stimuli/P006/sun_bekkgqphzbclwpvb.jpg,0,0,0.0,0,129,129,129,,,,,,,,,,,,,68.0084595999997,0.008459599999696366,None,,119.69295800000054,119.69295800000054,119.69295800000054,119.69295800000054,119.69295800000054,119.69295800000054,119.69295800000054,119.69295800000054,119.69295800000054,119.69295800000054,005,P006,2025_Jan_25_1200,ConditionRich,2021.2.3,59.93867075195252,
68.75,69.0,41,0.0,Stimuli/Blank.png,0,0,0.0,0,130,130,130,,,,,,,,,,,,,68.75939879999987,0.009398799999871699,None,,120.44366700000046,120.44366700000046,120.44366700000046,120.44366700000046,120.44366700000046,120.44366700000046,120.44366700000046,120.44366700000046,120.44366700000046,120.44366700000046,005,P006,2025_Jan_25_1200,ConditionRich,2021.2.3,59.93867075195252,
69.0,69.75,8,0.75,Stimuli/P006/sun_bekkgqphzbclwpvb.jpg,0,0,0.0,0,131,131,131,,,,,,,,,,,,,69.01179570000022,0.011795700000220677,None,,120.71052950000012,120.71052950000012,120.71052950000012,120.71052950000012,120.71052950000012,120.71052950000012,120.71052950000012,120.71052950000012,120.71052950000012,120.71052950000012,005,P006,2025_Jan_25_1200,ConditionRich,2021.2.3,59.93867075195252,
69.75,70.0,41,0.0,Stimuli/Blank.png,0,0,0.0,0,132,132,132,,,,,,,,,,,,,69.77695589999985,0.026955899999848043,None,,121.46118110000043,121.46118110000043,121.46118110000043,121.46118110000043,121.46118110000043,121.46118110000043,121.46118110000043,121.46118110000043,121.46118110000043,121.46118110000043,005,P006,2025_Jan_25_1200,ConditionRich,2021.2.3,59.93867075195252,
70.0,70.75,8,0.75,Stimuli/P006/sun_bekkgqphzbclwpvb.jpg,0,0,0.0,0,133,133,133,,,,,,,,,,,,,70.01058610000018,0.010586100000182341,None,,121.71140050000031,121.71140050000031,121.71140050000031,121.71140050000031,121.71140050000031,121.71140050000031,121.71140050000031,121.71140050000031,121.71140050000031,121.71140050000031,005,P006,2025_Jan_25_1200,ConditionRich,2021.2.3,59.93867075195252,
70.75,71.0,41,0.0,Stimuli/Blank.png,0,0,0.0,0,134,134,134,,,,,,,,,,,,,70.7770344999999,0.027034499999899708,None,,122.46206859999984,122.46206859999984,122.46206859999984,122.46206859999984,122.46206859999984,122.46206859999984,122.46206859999984,122.46206859999984,122.46206859999984,122.46206859999984,005,P006,2025_Jan_25_1200,ConditionRich,2021.2.3,59.93867075195252,
71.0,71.75,8,0.75,Stimuli/P006/sun_bekkgqphzbclwpvb.jpg,0,0,0.0,0,135,135,135,,,,,,,,,,,,,71.01147719999972,0.011477199999717413,None,,122.69561150000027,122.69561150000027,122.69561150000027,122.69561150000027,122.69561150000027,122.69561150000027,122.69561150000027,122.69561150000027,122.69561150000027,122.69561150000027,005,P006,2025_Jan_25_1200,ConditionRich,2021.2.3,59.93867075195252,
71.75,72.0,41,0.0,Stimuli/Blank.png,0,0,0.0,0,136,136,136,,,,,,,,,,,,,71.76143140000022,0.011431400000219583,None,,123.44627070000024,123.44627070000024,123.44627070000024,123.44627070000024,123.44627070000024,123.44627070000024,123.44627070000024,123.44627070000024,123.44627070000024,123.44627070000024,005,P006,2025_Jan_25_1200,ConditionRich,2021.2.3,59.93867075195252,
72.0,72.75,23,0.75,Stimuli/P006/things_beetle_03s.jpg,0,0,0.0,0,137,137,137,,,,,,,,,,,,,72.01170060000004,0.01170060000004014,None,,123.69662410000001,123.69662410000001,123.69662410000001,123.69662410000001,123.69662410000001,123.69662410000001,123.69662410000001,123.69662410000001,123.69662410000001,123.69662410000001,005,P006,2025_Jan_25_1200,ConditionRich,2021.2.3,59.93867075195252,
72.75,73.0,41,0.0,Stimuli/Blank.png,0,0,0.0,0,138,138,138,,,,,,,,,,,,,72.76238659999945,0.012386599999445025,None,,124.4471567999999,124.4471567999999,124.4471567999999,124.4471567999999,124.4471567999999,124.4471567999999,124.4471567999999,124.4471567999999,124.4471567999999,124.4471567999999,005,P006,2025_Jan_25_1200,ConditionRich,2021.2.3,59.93867075195252,
73.0,73.75,23,0.75,Stimuli/P006/things_beetle_03s.jpg,0,0,0.0,0,139,139,139,,,,,,,,,,,,,73.0128364000002,0.01283640000019659,None,,124.7140687000001,124.7140687000001,124.7140687000001,124.7140687000001,124.7140687000001,124.7140687000001,124.7140687000001,124.7140687000001,124.7140687000001,124.7140687000001,005,P006,2025_Jan_25_1200,ConditionRich,2021.2.3,59.93867075195252,
73.75,74.0,41,0.0,Stimuli/Blank.png,0,0,0.0,0,140,140,140,,,,,,,,,,,,,73.7814558,0.031455800000003364,None,,125.46471759999986,125.46471759999986,125.46471759999986,125.46471759999986,125.46471759999986,125.46471759999986,125.46471759999986,125.46471759999986,125.46471759999986,125.46471759999986,005,P006,2025_Jan_25_1200,ConditionRich,2021.2.3,59.93867075195252,
74.0,74.75,23,0.75,Stimuli/P006/things_beetle_03s.jpg,0,0,0.0,0,141,141,141,,,,,,,,,,,,,74.01368300000013,0.013683000000128231,None,,125.69825820000005,125.69825820000005,125.69825820000005,125.69825820000005,125.69825820000005,125.69825820000005,125.69825820000005,125.69825820000005,125.69825820000005,125.69825820000005,005,P006,2025_Jan_25_1200,ConditionRich,2021.2.3,59.93867075195252,
74.75,75.0,41,0.0,Stimuli/Blank.png,0,0,0.0,0,142,142,142,,,,,,,,,,,,,74.76671230000011,0.01671230000010837,None,,126.46560240000053,126.46560240000053,126.46560240000053,126.46560240000053,126.46560240000053,126.46560240000053,126.46560240000053,126.46560240000053,126.46560240000053,126.46560240000053,005,P006,2025_Jan_25_1200,ConditionRich,2021.2.3,59.93867075195252,
75.0,75.75,23,0.75,Stimuli/P006/things_beetle_03s.jpg,0,0,0.0,0,143,143,143,,,,,,,,,,,,,75.01700280000023,0.01700280000022758,None,,126.71583050000027,126.71583050000027,126.71583050000027,126.71583050000027,126.71583050000027,126.71583050000027,126.71583050000027,126.71583050000027,126.71583050000027,126.71583050000027,005,P006,2025_Jan_25_1200,ConditionRich,2021.2.3,59.93867075195252,
75.75,76.0,41,0.0,Stimuli/Blank.png,0,0,0.0,0,144,144,144,,,,,,,,,,,,,75.76628299999993,0.016282999999930325,None,,127.44980980000037,127.44980980000037,127.44980980000037,127.44980980000037,127.44980980000037,127.44980980000037,127.44980980000037,127.44980980000037,127.44980980000037,127.44980980000037,005,P006,2025_Jan_25_1200,ConditionRich,2021.2.3,59.93867075195252,
76.0,76.75,14,0.75,Stimuli/P006/sun_bsirencncgxteejx.jpg,0,0,0.0,0,145,145,145,,,,,,,,,,,,,76.00121029999991,0.0012102999999115127,None,,127.70002110000041,127.70002110000041,127.70002110000041,127.70002110000041,127.70002110000041,127.70002110000041,127.70002110000041,127.70002110000041,127.70002110000041,127.70002110000041,005,P006,2025_Jan_25_1200,ConditionRich,2021.2.3,59.93867075195252,
76.75,77.0,41,0.0,Stimuli/Blank.png,0,0,0.0,0,146,146,146,,,,,,,,,,,,,76.76642730000003,0.01642730000003212,None,,128.4506897000001,128.4506897000001,128.4506897000001,128.4506897000001,128.4506897000001,128.4506897000001,128.4506897000001,128.4506897000001,128.4506897000001,128.4506897000001,005,P006,2025_Jan_25_1200,ConditionRich,2021.2.3,59.93867075195252,
77.0,77.75,14,0.75,Stimuli/P006/sun_bsirencncgxteejx.jpg,0,0,0.0,0,147,147,147,,,,,,,,,,,,,77.00017680000019,0.0001768000001902692,None,,128.7009007000006,128.7009007000006,128.7009007000006,128.7009007000006,128.7009007000006,128.7009007000006,128.7009007000006,128.7009007000006,128.7009007000006,128.7009007000006,005,P006,2025_Jan_25_1200,ConditionRich,2021.2.3,59.93867075195252,
77.75,78.0,41,0.0,Stimuli/Blank.png,0,0,0.0,0,148,148,148,,,,,,,,,,,,,77.76745549999941,0.017455499999414315,None,,129.45156640000005,129.45156640000005,129.45156640000005,129.45156640000005,129.45156640000005,129.45156640000005,129.45156640000005,129.45156640000005,129.45156640000005,129.45156640000005,005,P006,2025_Jan_25_1200,ConditionRich,2021.2.3,59.93867075195252,
78.0,78.75,14,0.75,Stimuli/P006/sun_bsirencncgxteejx.jpg,0,0,0.0,0,149,149,149,,,,,,,,,,,,,78.00031599999966,0.00031599999965692405,None,,129.6851099000005,129.6851099000005,129.6851099000005,129.6851099000005,129.6851099000005,129.6851099000005,129.6851099000005,129.6851099000005,129.6851099000005,129.6851099000005,005,P006,2025_Jan_25_1200,ConditionRich,2021.2.3,59.93867075195252,
78.75,79.0,41,0.0,Stimuli/Blank.png,0,0,0.0,0,150,150,150,,,,,,,,,,,,,78.75130199999967,0.0013019999996686238,None,,130.4357813000006,130.4357813000006,130.4357813000006,130.4357813000006,130.4357813000006,130.4357813000006,130.4357813000006,130.4357813000006,130.4357813000006,130.4357813000006,005,P006,2025_Jan_25_1200,ConditionRich,2021.2.3,59.93867075195252,
79.0,79.75,14,0.75,Stimuli/P006/sun_bsirencncgxteejx.jpg,0,0,0.0,0,151,151,151,,,,,,,,,,,,,79.00175080000008,0.0017508000000816537,None,,130.6859912,130.6859912,130.6859912,130.6859912,130.6859912,130.6859912,130.6859912,130.6859912,130.6859912,130.6859912,005,P006,2025_Jan_25_1200,ConditionRich,2021.2.3,59.93867075195252,
79.75,80.0,41,0.0,Stimuli/Blank.png,0,0,0.0,0,152,152,152,,,,,,,,,,,,,79.7527454000001,0.002745400000094378,None,,131.4366559,131.4366559,131.4366559,131.4366559,131.4366559,131.4366559,131.4366559,131.4366559,131.4366559,131.4366559,005,P006,2025_Jan_25_1200,ConditionRich,2021.2.3,59.93867075195252,
80.0,80.75,36,0.75,Stimuli/P006/things_pony_03s.jpg,0,0,0.0,0,153,153,153,,,,,,,,,,,,,80.00208039999961,0.0020803999996132916,None,,131.70354920000045,131.70354920000045,131.70354920000045,131.70354920000045,131.70354920000045,131.70354920000045,131.70354920000045,131.70354920000045,131.70354920000045,131.70354920000045,005,P006,2025_Jan_25_1200,ConditionRich,2021.2.3,59.93867075195252,
80.75,81.0,41,0.0,Stimuli/Blank.png,0,0,0.0,0,154,154,154,,,,,,,,,,,,,80.77044430000024,0.02044430000023567,None,,132.45423130000017,132.45423130000017,132.45423130000017,132.45423130000017,132.45423130000017,132.45423130000017,132.45423130000017,132.45423130000017,132.45423130000017,132.45423130000017,005,P006,2025_Jan_25_1200,ConditionRich,2021.2.3,59.93867075195252,
81.0,81.75,36,0.75,Stimuli/P006/things_pony_03s.jpg,0,0,0.0,0,155,155,155,,,,,,,,,,,,,81.00324170000022,0.0032417000002169516,None,,132.7044777000001,132.7044777000001,132.7044777000001,132.7044777000001,132.7044777000001,132.7044777000001,132.7044777000001,132.7044777000001,132.7044777000001,132.7044777000001,005,P006,2025_Jan_25_1200,ConditionRich,2021.2.3,59.93867075195252,
81.75,82.0,41,0.0,Stimuli/Blank.png,0,0,0.0,0,156,156,156,,,,,,,,,,,,,81.77076099999977,0.020760999999765772,None,,133.4551117000001,133.4551117000001,133.4551117000001,133.4551117000001,133.4551117000001,133.4551117000001,133.4551117000001,133.4551117000001,133.4551117000001,133.4551117000001,005,P006,2025_Jan_25_1200,ConditionRich,2021.2.3,59.93867075195252,
82.0,82.75,36,0.75,Stimuli/P006/things_pony_03s.jpg,0,0,0.0,0,157,157,157,,,,,,,,,,,,,82.00439619999997,0.00439619999997376,None,,133.6886499000002,133.6886499000002,133.6886499000002,133.6886499000002,133.6886499000002,133.6886499000002,133.6886499000002,133.6886499000002,133.6886499000002,133.6886499000002,005,P006,2025_Jan_25_1200,ConditionRich,2021.2.3,59.93867075195252,
82.75,83.0,41,0.0,Stimuli/Blank.png,0,0,0.0,0,158,158,158,,,,,,,,,,,,,82.75635909999983,0.006359099999826867,None,,134.4559893000005,134.4559893000005,134.4559893000005,134.4559893000005,134.4559893000005,134.4559893000005,134.4559893000005,134.4559893000005,134.4559893000005,134.4559893000005,005,P006,2025_Jan_25_1200,ConditionRich,2021.2.3,59.93867075195252,
83.0,83.75,36,0.75,Stimuli/P006/things_pony_03s.jpg,0,0,0.0,0,159,159,159,,,,,,,,,,,,,83.02178149999963,0.021781499999633525,None,,134.7062052000001,134.7062052000001,134.7062052000001,134.7062052000001,134.7062052000001,134.7062052000001,134.7062052000001,134.7062052000001,134.7062052000001,134.7062052000001,005,P006,2025_Jan_25_1200,ConditionRich,2021.2.3,59.93867075195252,
83.75,84.0,41,0.0,Stimuli/Blank.png,0,0,0.0,0,160,160,160,,,,,,,,,,,,,83.75622229999954,0.006222299999535608,None,,135.4401912000003,135.4401912000003,135.4401912000003,135.4401912000003,135.4401912000003,135.4401912000003,135.4401912000003,135.4401912000003,135.4401912000003,135.4401912000003,005,P006,2025_Jan_25_1200,ConditionRich,2021.2.3,59.93867075195252,
84.0,100.0,0,0.0,Stimuli/Blank.png,1,8,8.75,0,161,161,161,,,,,,,,,,,,,84.00664859999961,0.006648599999607541,5,15.9615660999998,135.70708710000054,135.70708710000054,135.70708710000054,135.70708710000054,135.70708710000054,135.70708710000054,143.68079900000066,144.43149240000002,135.70708710000054,135.70708710000054,005,P006,2025_Jan_25_1200,ConditionRich,2021.2.3,59.93867075195252,
100.0,100.75,30,0.75,Stimuli/P006/things_hood_03s.jpg,0,0,0.0,0,162,162,162,,,,,,,,,,,,,100.01967849999983,0.01967849999982718,None,,151.70453840000027,151.70453840000027,151.70453840000027,151.70453840000027,151.70453840000027,151.70453840000027,151.70453840000027,151.70453840000027,151.70453840000027,151.70453840000027,005,P006,2025_Jan_25_1200,ConditionRich,2021.2.3,59.93867075195252,
100.75,101.0,41,0.0,Stimuli/Blank.png,0,0,0.0,0,163,163,163,,,,,,,,,,,,,100.75573650000024,0.005736500000239175,None,,152.45520920000035,152.45520920000035,152.45520920000035,152.45520920000035,152.45520920000035,152.45520920000035,152.45520920000035,152.45520920000035,152.45520920000035,152.45520920000035,005,P006,2025_Jan_25_1200,ConditionRich,2021.2.3,59.93867075195252,
101.0,101.75,30,0.75,Stimuli/P006/things_hood_03s.jpg,0,0,0.0,0,164,164,164,,,,,,,,,,,,,101.02066550000018,0.020665500000177417,None,,152.7054250000001,152.7054250000001,152.7054250000001,152.7054250000001,152.7054250000001,152.7054250000001,152.7054250000001,152.7054250000001,152.7054250000001,152.7054250000001,005,P006,2025_Jan_25_1200,ConditionRich,2021.2.3,59.93867075195252,
101.75,102.0,41,0.0,Stimuli/Blank.png,0,0,0.0,0,165,165,165,,,,,,,,,,,,,101.75511619999997,0.005116199999974924,None,,153.43939039999987,153.43939039999987,153.43939039999987,153.43939039999987,153.43939039999987,153.43939039999987,153.43939039999987,153.43939039999987,153.43939039999987,153.43939039999987,005,P006,2025_Jan_25_1200,ConditionRich,2021.2.3,59.93867075195252,
102.0,102.75,30,0.75,Stimuli/P006/things_hood_03s.jpg,0,0,0.0,0,166,166,166,,,,,,,,,,,,,102.00498659999994,0.004986599999938335,None,,153.68961840000065,153.68961840000065,153.68961840000065,153.68961840000065,153.68961840000065,153.68961840000065,153.68961840000065,153.68961840000065,153.68961840000065,153.68961840000065,005,P006,2025_Jan_25_1200,ConditionRich,2021.2.3,59.93867075195252,
102.75,103.0,41,0.0,Stimuli/Blank.png,0,0,0.0,0,167,167,167,,,,,,,,,,,,,102.7564940000002,0.0064940000002025045,None,,154.44029910000063,154.44029910000063,154.44029910000063,154.44029910000063,154.44029910000063,154.44029910000063,154.44029910000063,154.44029910000063,154.44029910000063,154.44029910000063,005,P006,2025_Jan_25_1200,ConditionRich,2021.2.3,59.93867075195252,
103.0,103.75,30,0.75,Stimuli/P006/things_hood_03s.jpg,0,0,0.0,0,168,168,168,,,,,,,,,,,,,103.00628460000007,0.006284600000071805,None,,154.6904801999999,154.6904801999999,154.6904801999999,154.6904801999999,154.6904801999999,154.6904801999999,154.6904801999999,154.6904801999999,154.6904801999999,154.6904801999999,005,P006,2025_Jan_25_1200,ConditionRich,2021.2.3,59.93867075195252,
103.75,104.0,41,0.0,Stimuli/Blank.png,0,0,0.0,0,169,169,169,,,,,,,,,,,,,103.75624400000015,0.006244000000151573,None,,155.44116920000033,155.44116920000033,155.44116920000033,155.44116920000033,155.44116920000033,155.44116920000033,155.44116920000033,155.44116920000033,155.44116920000033,155.44116920000033,005,P006,2025_Jan_25_1200,ConditionRich,2021.2.3,59.93867075195252,
104.0,104.75,33,0.75,Stimuli/P006/things_man_03s.jpg,0,0,0.0,0,170,170,170,,,,,,,,,,,,,104.00672979999945,0.006729799999448005,None,,155.70807440000044,155.70807440000044,155.70807440000044,155.70807440000044,155.70807440000044,155.70807440000044,155.70807440000044,155.70807440000044,155.70807440000044,155.70807440000044,005,P006,2025_Jan_25_1200,ConditionRich,2021.2.3,59.93867075195252,
104.75,105.0,41,0.0,Stimuli/Blank.png,0,0,0.0,0,171,171,171,,,,,,,,,,,,,104.7745358000002,0.024535800000194286,None,,156.45873570000003,156.45873570000003,156.45873570000003,156.45873570000003,156.45873570000003,156.45873570000003,156.45873570000003,156.45873570000003,156.45873570000003,156.45873570000003,005,P006,2025_Jan_25_1200,ConditionRich,2021.2.3,59.93867075195252,
105.0,105.75,33,0.75,Stimuli/P006/things_man_03s.jpg,0,0,0.0,0,172,172,172,,,,,,,,,,,,,105.00802490000024,0.008024900000236812,None,,156.70897240000068,156.70897240000068,156.70897240000068,156.70897240000068,156.70897240000068,156.70897240000068,156.70897240000068,156.70897240000068,156.70897240000068,156.70897240000068,005,P006,2025_Jan_25_1200,ConditionRich,2021.2.3,59.93867075195252,
105.75,106.0,41,0.0,Stimuli/Blank.png,0,0,0.0,0,173,173,173,,,,,,,,,,,,,105.7754245999995,0.025424599999496422,None,,157.45962750000035,157.45962750000035,157.45962750000035,157.45962750000035,157.45962750000035,157.45962750000035,157.45962750000035,157.45962750000035,157.45962750000035,157.45962750000035,005,P006,2025_Jan_25_1200,ConditionRich,2021.2.3,59.93867075195252,
106.0,106.75,33,0.75,Stimuli/P006/things_man_03s.jpg,0,0,0.0,0,174,174,174,,,,,,,,,,,,,106.00977799999964,0.009777999999641906,None,,157.7098375000005,157.7098375000005,157.7098375000005,157.7098375000005,157.7098375000005,157.7098375000005,157.7098375000005,157.7098375000005,157.7098375000005,157.7098375000005,005,P006,2025_Jan_25_1200,ConditionRich,2021.2.3,59.93867075195252,
106.75,107.0,41,0.0,Stimuli/Blank.png,0,0,0.0,0,175,175,175,,,,,,,,,,,,,106.77663719999964,0.02663719999964087,None,,158.4605091000003,158.4605091000003,158.4605091000003,158.4605091000003,158.4605091000003,158.4605091000003,158.4605091000003,158.4605091000003,158.4605091000003,158.4605091000003,005,P006,2025_Jan_25_1200,ConditionRich,2021.2.3,59.93867075195252,
107.0,107.75,33,0.75,Stimuli/P006/things_man_03s.jpg,0,0,0.0,0,176,176,176,,,,,,,,,,,,,107.00947610000003,0.009476100000028964,None,,158.69403930000044,158.69403930000044,158.69403930000044,158.69403930000044,158.69403930000044,158.69403930000044,158.69403930000044,158.69403930000044,158.69403930000044,158.69403930000044,005,P006,2025_Jan_25_1200,ConditionRich,2021.2.3,59.93867075195252,
107.75,108.0,41,0.0,Stimuli/Blank.png,0,0,0.0,0,177,177,177,,,,,,,,,,,,,107.7605623999998,0.0105623999997988,None,,159.44471560000056,159.44471560000056,159.44471560000056,159.44471560000056,159.44471560000056,159.44471560000056,159.44471560000056,159.44471560000056,159.44471560000056,159.44471560000056,005,P006,2025_Jan_25_1200,ConditionRich,2021.2.3,59.93867075195252,
108.0,108.75,19,0.75,Stimuli/P006/sun_czspalxthlkjwoat.jpg,0,0,0.0,0,178,178,178,,,,,,,,,,,,,108.01041389999955,0.010413899999548448,None,,159.69492940000055,159.69492940000055,159.69492940000055,159.69492940000055,159.69492940000055,159.69492940000055,159.69492940000055,159.69492940000055,159.69492940000055,159.69492940000055,005,P006,2025_Jan_25_1200,ConditionRich,2021.2.3,59.93867075195252,
108.75,109.0,41,0.0,Stimuli/Blank.png,0,0,0.0,0,179,179,179,,,,,,,,,,,,,108.76137560000006,0.011375600000064878,None,,160.44558080000024,160.44558080000024,160.44558080000024,160.44558080000024,160.44558080000024,160.44558080000024,160.44558080000024,160.44558080000024,160.44558080000024,160.44558080000024,005,P006,2025_Jan_25_1200,ConditionRich,2021.2.3,59.93867075195252,
109.0,109.75,19,0.75,Stimuli/P006/sun_czspalxthlkjwoat.jpg,0,0,0.0,0,180,180,180,,,,,,,,,,,,,109.0123107999998,0.012310799999795563,None,,160.71248000000014,160.71248000000014,160.71248000000014,160.71248000000014,160.71248000000014,160.71248000000014,160.71248000000014,160.71248000000014,160.71248000000014,160.71248000000014,005,P006,2025_Jan_25_1200,ConditionRich,2021.2.3,59.93867075195252,
109.75,110.0,41,0.0,Stimuli/Blank.png,0,0,0.0,0,181,181,181,,,,,,,,,,,,,109.77842710000004,0.028427100000044447,None,,161.46315460000005,161.46315460000005,161.46315460000005,161.46315460000005,161.46315460000005,161.46315460000005,161.46315460000005,161.46315460000005,161.46315460000005,161.46315460000005,005,P006,2025_Jan_25_1200,ConditionRich,2021.2.3,59.93867075195252,
110.0,110.75,19,0.75,Stimuli/P006/sun_czspalxthlkjwoat.jpg,1,0,0.75,0,182,182,182,,,,,,,,,,,,,110.01173839999956,0.011738399999558169,1,0.5541001999999935,161.69669049999993,161.69669049999993,161.69669049999993,161.69669049999993,161.69669049999993,161.69669049999993,161.69669049999993,162.43067490000067,161.69669049999993,161.69669049999993,005,P006,2025_Jan_25_1200,ConditionRich,2021.2.3,59.93867075195252,
110.75,111.0,41,0.0,Stimuli/Blank.png,0,0,0.0,0,183,183,183,,,,,,,,,,,,,110.76295349999964,0.012953499999639462,None,,162.44741969999995,162.44741969999995,162.44741969999995,162.44741969999995,162.44741969999995,162.44741969999995,162.44741969999995,162.44741969999995,162.44741969999995,162.44741969999995,005,P006,2025_Jan_25_1200,ConditionRich,2021.2.3,59.93867075195252,
111.0,111.75,19,0.75,Stimuli/P006/sun_czspalxthlkjwoat.jpg,0,0,0.0,0,184,184,184,,,,,,,,,,,,,111.01321289999942,0.01321289999941655,None,,162.71426560000054,162.71426560000054,162.71426560000054,162.71426560000054,162.71426560000054,162.71426560000054,162.71426560000054,162.71426560000054,162.71426560000054,162.71426560000054,005,P006,2025_Jan_25_1200,ConditionRich,2021.2.3,59.93867075195252,
111.75,112.0,41,0.0,Stimuli/Blank.png,0,0,0.0,0,185,185,185,,,,,,,,,,,,,111.78072580000025,0.03072580000025482,None,,163.46493940000073,163.46493940000073,163.46493940000073,163.46493940000073,163.46493940000073,163.46493940000073,163.46493940000073,163.46493940000073,163.46493940000073,163.46493940000073,005,P006,2025_Jan_25_1200,ConditionRich,2021.2.3,59.93867075195252,
112.0,112.75,12,0.75,Stimuli/P006/sun_bodyuiqwqpqzwfoz.jpg,0,0,0.0,0,186,186,186,,,,,,,,,,,,,112.01344789999985,0.013447899999846413,None,,163.69845480000004,163.69845480000004,163.69845480000004,163.69845480000004,163.69845480000004,163.69845480000004,163.69845480000004,163.69845480000004,163.69845480000004,163.69845480000004,005,P006,2025_Jan_25_1200,ConditionRich,2021.2.3,59.93867075195252,
112.75,113.0,41,0.0,Stimuli/Blank.png,0,0,0.0,0,187,187,187,,,,,,,,,,,,,112.76510589999998,0.015105899999980466,None,,164.44912759999988,164.44912759999988,164.44912759999988,164.44912759999988,164.44912759999988,164.44912759999988,164.44912759999988,164.44912759999988,164.44912759999988,164.44912759999988,005,P006,2025_Jan_25_1200,ConditionRich,2021.2.3,59.93867075195252,
113.0,113.75,12,0.75,Stimuli/P006/sun_bodyuiqwqpqzwfoz.jpg,0,0,0.0,0,188,188,188,,,,,,,,,,,,,113.01543459999994,0.015434599999935017,None,,164.7160455000003,164.7160455000003,164.7160455000003,164.7160455000003,164.7160455000003,164.7160455000003,164.7160455000003,164.7160455000003,164.7160455000003,164.7160455000003,005,P006,2025_Jan_25_1200,ConditionRich,2021.2.3,59.93867075195252,
113.75,114.0,41,0.0,Stimuli/Blank.png,0,0,0.0,0,189,189,189,,,,,,,,,,,,,113.76640709999992,0.016407099999923958,None,,165.45000549999986,165.45000549999986,165.45000549999986,165.45000549999986,165.45000549999986,165.45000549999986,165.45000549999986,165.45000549999986,165.45000549999986,165.45000549999986,005,P006,2025_Jan_25_1200,ConditionRich,2021.2.3,59.93867075195252,
114.0,114.75,12,0.75,Stimuli/P006/sun_bodyuiqwqpqzwfoz.jpg,0,0,0.0,0,190,190,190,,,,,,,,,,,,,114.00127559999964,0.001275599999644328,None,,165.7002237000006,165.7002237000006,165.7002237000006,165.7002237000006,165.7002237000006,165.7002237000006,165.7002237000006,165.7002237000006,165.7002237000006,165.7002237000006,005,P006,2025_Jan_25_1200,ConditionRich,2021.2.3,59.93867075195252,
114.75,115.0,41,0.0,Stimuli/Blank.png,0,0,0.0,0,191,191,191,,,,,,,,,,,,,114.76617269999952,0.016172699999515316,None,,166.4508934000005,166.4508934000005,166.4508934000005,166.4508934000005,166.4508934000005,166.4508934000005,166.4508934000005,166.4508934000005,166.4508934000005,166.4508934000005,005,P006,2025_Jan_25_1200,ConditionRich,2021.2.3,59.93867075195252,
115.0,115.75,12,0.75,Stimuli/P006/sun_bodyuiqwqpqzwfoz.jpg,0,0,0.0,0,192,192,192,,,,,,,,,,,,,115.00010589999965,0.00010589999965304742,None,,166.6844316000006,166.6844316000006,166.6844316000006,166.6844316000006,166.6844316000006,166.6844316000006,166.6844316000006,166.6844316000006,166.6844316000006,166.6844316000006,005,P006,2025_Jan_25_1200,ConditionRich,2021.2.3,59.93867075195252,
115.75,116.0,41,0.0,Stimuli/Blank.png,0,0,0.0,0,193,193,193,,,,,,,,,,,,,115.75111169999946,0.0011116999994555954,None,,167.4350973999999,167.4350973999999,167.4350973999999,167.4350973999999,167.4350973999999,167.4350973999999,167.4350973999999,167.4350973999999,167.4350973999999,167.4350973999999,005,P006,2025_Jan_25_1200,ConditionRich,2021.2.3,59.93867075195252,
116.0,116.75,6,0.75,Stimuli/P006/sun_bbzkhzmxdjrfjpjz.jpg,0,0,0.0,0,194,194,194,,,,,,,,,,,,,116.00147529999958,0.0014752999995835125,None,,167.70198320000054,167.70198320000054,167.70198320000054,167.70198320000054,167.70198320000054,167.70198320000054,167.70198320000054,167.70198320000054,167.70198320000054,167.70198320000054,005,P006,2025_Jan_25_1200,ConditionRich,2021.2.3,59.93867075195252,
116.75,117.0,41,0.0,Stimuli/Blank.png,0,0,0.0,0,195,195,195,,,,,,,,,,,,,116.76837780000005,0.018377800000052957,None,,168.45265440000003,168.45265440000003,168.45265440000003,168.45265440000003,168.45265440000003,168.45265440000003,168.45265440000003,168.45265440000003,168.45265440000003,168.45265440000003,005,P006,2025_Jan_25_1200,ConditionRich,2021.2.3,59.93867075195252,
117.0,117.75,6,0.75,Stimuli/P006/sun_bbzkhzmxdjrfjpjz.jpg,0,0,0.0,0,196,196,196,,,,,,,,,,,,,117.00186659999963,0.0018665999996301252,None,,168.68618700000025,168.68618700000025,168.68618700000025,168.68618700000025,168.68618700000025,168.68618700000025,168.68618700000025,168.68618700000025,168.68618700000025,168.68618700000025,005,P006,2025_Jan_25_1200,ConditionRich,2021.2.3,59.93867075195252,
117.75,118.0,41,0.0,Stimuli/Blank.png,0,0,0.0,0,197,197,197,,,,,,,,,,,,,117.7522414999994,0.002241499999399821,None,,169.43685170000026,169.43685170000026,169.43685170000026,169.43685170000026,169.43685170000026,169.43685170000026,169.43685170000026,169.43685170000026,169.43685170000026,169.43685170000026,005,P006,2025_Jan_25_1200,ConditionRich,2021.2.3,59.93867075195252,
118.0,118.75,6,0.75,Stimuli/P006/sun_bbzkhzmxdjrfjpjz.jpg,0,0,0.0,0,198,198,198,,,,,,,,,,,,,118.00247880000006,0.00247880000006262,None,,169.68707369999993,169.68707369999993,169.68707369999993,169.68707369999993,169.68707369999993,169.68707369999993,169.68707369999993,169.68707369999993,169.68707369999993,169.68707369999993,005,P006,2025_Jan_25_1200,ConditionRich,2021.2.3,59.93867075195252,
118.75,119.0,41,0.0,Stimuli/Blank.png,0,0,0.0,0,199,199,199,,,,,,,,,,,,,118.75341779999962,0.003417799999624549,None,,170.43773690000035,170.43773690000035,170.43773690000035,170.43773690000035,170.43773690000035,170.43773690000035,170.43773690000035,170.43773690000035,170.43773690000035,170.43773690000035,005,P006,2025_Jan_25_1200,ConditionRich,2021.2.3,59.93867075195252,
119.0,119.75,6,0.75,Stimuli/P006/sun_bbzkhzmxdjrfjpjz.jpg,0,0,0.0,0,200,200,200,,,,,,,,,,,,,119.00559879999946,0.005598799999461335,None,,170.70464470000024,170.70464470000024,170.70464470000024,170.70464470000024,170.70464470000024,170.70464470000024,170.70464470000024,170.70464470000024,170.70464470000024,170.70464470000024,005,P006,2025_Jan_25_1200,ConditionRich,2021.2.3,59.93867075195252,
119.75,120.0,41,0.0,Stimuli/Blank.png,0,0,0.0,0,201,201,201,,,,,,,,,,,,,119.77065669999956,0.02065669999956299,None,,171.45530959999996,171.45530959999996,171.45530959999996,171.45530959999996,171.45530959999996,171.45530959999996,171.45530959999996,171.45530959999996,171.45530959999996,171.45530959999996,005,P006,2025_Jan_25_1200,ConditionRich,2021.2.3,59.93867075195252,
120.0,120.75,34,0.75,Stimuli/P006/things_patty_03s.jpg,0,0,0.0,0,202,202,202,,,,,,,,,,,,,120.00700849999976,0.007008499999756168,None,,171.7055261000005,171.7055261000005,171.7055261000005,171.7055261000005,171.7055261000005,171.7055261000005,171.7055261000005,171.7055261000005,171.7055261000005,171.7055261000005,005,P006,2025_Jan_25_1200,ConditionRich,2021.2.3,59.93867075195252,
120.75,121.0,41,0.0,Stimuli/Blank.png,0,0,0.0,0,203,203,203,,,,,,,,,,,,,120.77198020000014,0.021980200000143668,None,,172.45618569999988,172.45618569999988,172.45618569999988,172.45618569999988,172.45618569999988,172.45618569999988,172.45618569999988,172.45618569999988,172.45618569999988,172.45618569999988,005,P006,2025_Jan_25_1200,ConditionRich,2021.2.3,59.93867075195252,
121.0,121.75,34,0.75,Stimuli/P006/things_patty_03s.jpg,0,0,0.0,0,204,204,204,,,,,,,,,,,,,121.00524080000014,0.005240800000137824,None,,172.68973020000067,172.68973020000067,172.68973020000067,172.68973020000067,172.68973020000067,172.68973020000067,172.68973020000067,172.68973020000067,172.68973020000067,172.68973020000067,005,P006,2025_Jan_25_1200,ConditionRich,2021.2.3,59.93867075195252,
121.75,122.0,41,0.0,Stimuli/Blank.png,0,0,0.0,0,205,205,205,,,,,,,,,,,,,121.75633310000012,0.0063331000001198845,None,,173.44039200000043,173.44039200000043,173.44039200000043,173.44039200000043,173.44039200000043,173.44039200000043,173.44039200000043,173.44039200000043,173.44039200000043,173.44039200000043,005,P006,2025_Jan_25_1200,ConditionRich,2021.2.3,59.93867075195252,
122.0,122.75,34,0.75,Stimuli/P006/things_patty_03s.jpg,0,0,0.0,0,206,206,206,,,,,,,,,,,,,122.00650069999938,0.006500699999378412,None,,173.7072850000004,173.7072850000004,173.7072850000004,173.7072850000004,173.7072850000004,173.7072850000004,173.7072850000004,173.7072850000004,173.7072850000004,173.7072850000004,005,P006,2025_Jan_25_1200,ConditionRich,2021.2.3,59.93867075195252,
122.75,123.0,41,0.0,Stimuli/Blank.png,0,0,0.0,0,207,207,207,,,,,,,,,,,,,122.77585670000008,0.02585670000007667,None,,174.47463510000034,174.47463510000034,174.47463510000034,174.47463510000034,174.47463510000034,174.47463510000034,174.47463510000034,174.47463510000034,174.47463510000034,174.47463510000034,005,P006,2025_Jan_25_1200,ConditionRich,2021.2.3,59.93867075195252,
123.0,123.75,34,0.75,Stimuli/P006/things_patty_03s.jpg,1,0,0.75,0,208,208,208,,,,,,,,,,,,,123.02600859999984,0.026008599999840953,1,0.5148057999995217,174.7248556000004,174.7248556000004,174.7248556000004,174.7248556000004,174.7248556000004,174.7248556000004,174.7248556000004,None,174.7248556000004,174.7248556000004,005,P006,2025_Jan_25_1200,ConditionRich,2021.2.3,59.93867075195252,
123.75,124.0,41,0.0,Stimuli/Blank.png,0,0,0.0,0,209,209,209,,,,,,,,,,,,,123.7771574999997,0.02715749999970285,5,0.1930608000002394,175.47552619999988,175.47552619999988,175.47552619999988,175.47552619999988,175.47552619999988,175.47552619999988,175.47552619999988,175.47552619999988,175.47552619999988,175.47552619999988,005,P006,2025_Jan_25_1200,ConditionRich,2021.2.3,59.93867075195252,
124.0,124.75,4,0.75,Stimuli/P006/sun_auwghripdoxzluuk.jpg,0,0,0.0,0,210,210,210,,,,,,,,,,,,,124.02655869999944,0.02655869999944116,None,,175.72574090000035,175.72574090000035,175.72574090000035,175.72574090000035,175.72574090000035,175.72574090000035,175.72574090000035,175.72574090000035,175.72574090000035,175.72574090000035,005,P006,2025_Jan_25_1200,ConditionRich,2021.2.3,59.93867075195252,
124.75,125.0,41,0.0,Stimuli/Blank.png,0,0,0.0,0,211,211,211,,,,,,,,,,,,,124.77517900000021,0.025179000000207452,None,,176.45971820000068,176.45971820000068,176.45971820000068,176.45971820000068,176.45971820000068,176.45971820000068,176.45971820000068,176.45971820000068,176.45971820000068,176.45971820000068,005,P006,2025_Jan_25_1200,ConditionRich,2021.2.3,59.93867075195252,
125.0,125.75,4,0.75,Stimuli/P006/sun_auwghripdoxzluuk.jpg,0,0,0.0,0,212,212,212,,,,,,,,,,,,,125.01059769999938,0.010597699999379984,None,,176.70993830000043,176.70993830000043,176.70993830000043,176.70993830000043,176.70993830000043,176.70993830000043,176.70993830000043,176.70993830000043,176.70993830000043,176.70993830000043,005,P006,2025_Jan_25_1200,ConditionRich,2021.2.3,59.93867075195252,
125.75,126.0,41,0.0,Stimuli/Blank.png,0,0,0.0,0,213,213,213,,,,,,,,,,,,,125.77720919999956,0.02720919999956095,5,0.19142869999996037,177.4773051000002,177.4773051000002,177.4773051000002,177.4773051000002,177.4773051000002,177.4773051000002,177.4773051000002,177.4773051000002,177.4773051000002,177.4773051000002,005,P006,2025_Jan_25_1200,ConditionRich,2021.2.3,59.93867075195252,
126.0,126.75,4,0.75,Stimuli/P006/sun_auwghripdoxzluuk.jpg,0,0,0.0,0,214,214,214,,,,,,,,,,,,,126.02652940000007,0.0265294000000722,None,,177.7108216000006,177.7108216000006,177.7108216000006,177.7108216000006,177.7108216000006,177.7108216000006,177.7108216000006,177.7108216000006,177.7108216000006,177.7108216000006,005,P006,2025_Jan_25_1200,ConditionRich,2021.2.3,59.93867075195252,
126.75,127.0,41,0.0,Stimuli/Blank.png,0,0,0.0,0,215,215,215,,,,,,,,,,,,,126.76126639999984,0.01126639999984036,None,,178.4448084000005,178.4448084000005,178.4448084000005,178.4448084000005,178.4448084000005,178.4448084000005,178.4448084000005,178.4448084000005,178.4448084000005,178.4448084000005,005,P006,2025_Jan_25_1200,ConditionRich,2021.2.3,59.93867075195252,
127.0,127.75,4,0.75,Stimuli/P006/sun_auwghripdoxzluuk.jpg,0,0,0.0,0,216,216,216,,,,,,,,,,,,,127.01120470000023,0.01120470000023488,None,,178.71172079999997,178.71172079999997,178.71172079999997,178.71172079999997,178.71172079999997,178.71172079999997,178.71172079999997,178.71172079999997,178.71172079999997,178.71172079999997,005,P006,2025_Jan_25_1200,ConditionRich,2021.2.3,59.93867075195252,
127.75,128.0,41,0.0,Stimuli/Blank.png,0,0,0.0,0,217,217,217,,,,,,,,,,,,,127.7782972999994,0.028297299999394454,None,,179.4624532000007,179.4624532000007,179.4624532000007,179.4624532000007,179.4624532000007,179.4624532000007,179.4624532000007,179.4624532000007,179.4624532000007,179.4624532000007,005,P006,2025_Jan_25_1200,ConditionRich,2021.2.3,59.93867075195252,
128.0,128.75,39,0.75,Stimuli/P006/things_train_set_03s.jpg,1,0,0.75,0,218,218,218,,,,,,,,,,,,,128.01174459999947,0.011744599999474303,1,0.5790910000005169,179.7126113000004,179.7126113000004,179.7126113000004,179.7126113000004,179.7126113000004,179.7126113000004,179.7126113000004,180.42990250000003,179.7126113000004,179.7126113000004,005,P006,2025_Jan_25_1200,ConditionRich,2021.2.3,59.93867075195252,
128.75,129.0,41,0.0,Stimuli/Blank.png,0,0,0.0,0,219,219,219,,,,,,,,,,,,,128.78069659999983,0.030696599999828322,None,,180.4799395,180.4799395,180.4799395,180.4799395,180.4799395,180.4799395,180.4799395,180.4799395,180.4799395,180.4799395,005,P006,2025_Jan_25_1200,ConditionRich,2021.2.3,59.93867075195252,
129.0,129.75,39,0.75,Stimuli/P006/things_train_set_03s.jpg,0,0,0.0,0,220,220,220,,,,,,,,,,,,,129.03088130000015,0.03088130000014644,None,,180.73015769999984,180.73015769999984,180.73015769999984,180.73015769999984,180.73015769999984,180.73015769999984,180.73015769999984,180.73015769999984,180.73015769999984,180.73015769999984,005,P006,2025_Jan_25_1200,ConditionRich,2021.2.3,59.93867075195252,
129.75,130.0,41,0.0,Stimuli/Blank.png,0,0,0.0,0,221,221,221,,,,,,,,,,,,,129.78184239999973,0.03184239999973215,5,0.18768529999942984,181.48081850000017,181.48081850000017,181.48081850000017,181.48081850000017,181.48081850000017,181.48081850000017,181.48081850000017,181.48081850000017,181.48081850000017,181.48081850000017,005,P006,2025_Jan_25_1200,ConditionRich,2021.2.3,59.93867075195252,
130.0,130.75,39,0.75,Stimuli/P006/things_train_set_03s.jpg,0,0,0.0,0,222,222,222,,,,,,,,,,,,,130.03039649999937,0.030396499999369553,None,,181.71435870000005,181.71435870000005,181.71435870000005,181.71435870000005,181.71435870000005,181.71435870000005,181.71435870000005,181.71435870000005,181.71435870000005,181.71435870000005,005,P006,2025_Jan_25_1200,ConditionRich,2021.2.3,59.93867075195252,
130.75,131.0,41,0.0,Stimuli/Blank.png,0,0,0.0,0,223,223,223,,,,,,,,,,,,,130.76587289999952,0.015872899999521906,None,,182.46501720000015,182.46501720000015,182.46501720000015,182.46501720000015,182.46501720000015,182.46501720000015,182.46501720000015,182.46501720000015,182.46501720000015,182.46501720000015,005,P006,2025_Jan_25_1200,ConditionRich,2021.2.3,59.93867075195252,
131.0,131.75,39,0.75,Stimuli/P006/things_train_set_03s.jpg,0,0,0.0,0,224,224,224,,,,,,,,,,,,,131.01624170000014,0.016241700000136916,None,,182.71526820000054,182.71526820000054,182.71526820000054,182.71526820000054,182.71526820000054,182.71526820000054,182.71526820000054,182.71526820000054,182.71526820000054,182.71526820000054,005,P006,2025_Jan_25_1200,ConditionRich,2021.2.3,59.93867075195252,
131.75,132.0,41,0.0,Stimuli/Blank.png,0,0,0.0,0,225,225,225,,,,,,,,,,,,,131.76623599999948,0.016235999999480555,None,,183.46590689999994,183.46590689999994,183.46590689999994,183.46590689999994,183.46590689999994,183.46590689999994,183.46590689999994,183.46590689999994,183.46590689999994,183.46590689999994,005,P006,2025_Jan_25_1200,ConditionRich,2021.2.3,59.93867075195252,
132.0,132.75,29,0.75,Stimuli/P006/things_guillotine_03s.jpg,0,0,0.0,0,226,226,226,,,,,,,,,,,,,132.01455859999987,0.014558599999872968,None,,183.6994405000005,183.6994405000005,183.6994405000005,183.6994405000005,183.6994405000005,183.6994405000005,183.6994405000005,183.6994405000005,183.6994405000005,183.6994405000005,005,P006,2025_Jan_25_1200,ConditionRich,2021.2.3,59.93867075195252,
132.75,133.0,41,0.0,Stimuli/Blank.png,0,0,0.0,0,227,227,227,,,,,,,,,,,,,132.76614830000017,0.016148300000168092,None,,184.4501140000002,184.4501140000002,184.4501140000002,184.4501140000002,184.4501140000002,184.4501140000002,184.4501140000002,184.4501140000002,184.4501140000002,184.4501140000002,005,P006,2025_Jan_25_1200,ConditionRich,2021.2.3,59.93867075195252,
133.0,133.75,29,0.75,Stimuli/P006/things_guillotine_03s.jpg,1,0,0.75,0,228,228,228,,,,,,,,,,,,,133.0009854,0.0009853999999904772,1,0.4574556000006851,184.7003279999999,184.7003279999999,184.7003279999999,184.7003279999999,184.7003279999999,184.7003279999999,184.7003279999999,185.4343101000004,184.7003279999999,184.7003279999999,005,P006,2025_Jan_25_1200,ConditionRich,2021.2.3,59.93867075195252,
133.75,134.0,41,0.0,Stimuli/Blank.png,0,0,0.0,0,229,229,229,,,,,,,,,,,,,133.76712859999952,0.01712859999952343,None,,185.4509925000002,185.4509925000002,185.4509925000002,185.4509925000002,185.4509925000002,185.4509925000002,185.4509925000002,185.4509925000002,185.4509925000002,185.4509925000002,005,P006,2025_Jan_25_1200,ConditionRich,2021.2.3,59.93867075195252,
134.0,134.75,29,0.75,Stimuli/P006/things_guillotine_03s.jpg,0,0,0.0,0,230,230,230,,,,,,,,,,,,,134.00038510000013,0.0003851000001304783,None,,185.68453099999988,185.68453099999988,185.68453099999988,185.68453099999988,185.68453099999988,185.68453099999988,185.68453099999988,185.68453099999988,185.68453099999988,185.68453099999988,005,P006,2025_Jan_25_1200,ConditionRich,2021.2.3,59.93867075195252,
134.75,135.0,41,0.0,Stimuli/Blank.png,0,0,0.0,0,231,231,231,,,,,,,,,,,,,134.75034439999945,0.00034439999944879673,None,,186.43518500000027,186.43518500000027,186.43518500000027,186.43518500000027,186.43518500000027,186.43518500000027,186.43518500000027,186.43518500000027,186.43518500000027,186.43518500000027,005,P006,2025_Jan_25_1200,ConditionRich,2021.2.3,59.93867075195252,
135.0,135.75,29,0.75,Stimuli/P006/things_guillotine_03s.jpg,0,0,0.0,0,232,232,232,,,,,,,,,,,,,135.00123540000004,0.001235400000041409,None,,186.70213030000014,186.70213030000014,186.70213030000014,186.70213030000014,186.70213030000014,186.70213030000014,186.70213030000014,186.70213030000014,186.70213030000014,186.70213030000014,005,P006,2025_Jan_25_1200,ConditionRich,2021.2.3,59.93867075195252,
135.75,136.0,41,0.0,Stimuli/Blank.png,0,0,0.0,0,233,233,233,,,,,,,,,,,,,135.7712391999994,0.021239199999399716,5,0.1990562000000864,187.46944919999987,187.46944919999987,187.46944919999987,187.46944919999987,187.46944919999987,187.46944919999987,187.46944919999987,187.46944919999987,187.46944919999987,187.46944919999987,005,P006,2025_Jan_25_1200,ConditionRich,2021.2.3,59.93867075195252,
136.0,136.75,15,0.75,Stimuli/P006/sun_btkzuhaxqlacvmsv.jpg,0,0,0.0,0,234,234,234,,,,,,,,,,,,,136.01863439999943,0.018634399999427842,None,,187.70298340000045,187.70298340000045,187.70298340000045,187.70298340000045,187.70298340000045,187.70298340000045,187.70298340000045,187.70298340000045,187.70298340000045,187.70298340000045,005,P006,2025_Jan_25_1200,ConditionRich,2021.2.3,59.93867075195252,
136.75,137.0,41,0.0,Stimuli/Blank.png,0,0,0.0,0,235,235,235,,,,,,,,,,,,,136.75256399999944,0.002563999999438238,None,,188.43698440000026,188.43698440000026,188.43698440000026,188.43698440000026,188.43698440000026,188.43698440000026,188.43698440000026,188.43698440000026,188.43698440000026,188.43698440000026,005,P006,2025_Jan_25_1200,ConditionRich,2021.2.3,59.93867075195252,
137.0,137.75,15,0.75,Stimuli/P006/sun_btkzuhaxqlacvmsv.jpg,0,0,0.0,0,236,236,236,,,,,,,,,,,,,137.00324339999952,0.00324339999951917,None,,188.68718190000072,188.68718190000072,188.68718190000072,188.68718190000072,188.68718190000072,188.68718190000072,188.68718190000072,188.68718190000072,188.68718190000072,188.68718190000072,005,P006,2025_Jan_25_1200,ConditionRich,2021.2.3,59.93867075195252,
137.75,138.0,41,0.0,Stimuli/Blank.png,0,0,0.0,0,237,237,237,,,,,,,,,,,,,137.75304760000017,0.003047600000172679,None,,189.4379241000006,189.4379241000006,189.4379241000006,189.4379241000006,189.4379241000006,189.4379241000006,189.4379241000006,189.4379241000006,189.4379241000006,189.4379241000006,005,P006,2025_Jan_25_1200,ConditionRich,2021.2.3,59.93867075195252,
138.0,138.75,15,0.75,Stimuli/P006/sun_btkzuhaxqlacvmsv.jpg,0,0,0.0,0,238,238,238,,,,,,,,,,,,,138.00334870000006,0.0033487000000604894,None,,189.70473980000043,189.70473980000043,189.70473980000043,189.70473980000043,189.70473980000043,189.70473980000043,189.70473980000043,189.70473980000043,189.70473980000043,189.70473980000043,005,P006,2025_Jan_25_1200,ConditionRich,2021.2.3,59.93867075195252,
138.75,139.0,41,0.0,Stimuli/Blank.png,0,0,0.0,0,239,239,239,,,,,,,,,,,,,138.77118090000022,0.02118090000021766,None,,190.45537700000023,190.45537700000023,190.45537700000023,190.45537700000023,190.45537700000023,190.45537700000023,190.45537700000023,190.45537700000023,190.45537700000023,190.45537700000023,005,P006,2025_Jan_25_1200,ConditionRich,2021.2.3,59.93867075195252,
139.0,139.75,15,0.75,Stimuli/P006/sun_btkzuhaxqlacvmsv.jpg,0,0,0.0,0,240,240,240,,,,,,,,,,,,,139.00696609999977,0.006966099999772268,None,,190.7056290999999,190.7056290999999,190.7056290999999,190.7056290999999,190.7056290999999,190.7056290999999,190.7056290999999,190.7056290999999,190.7056290999999,190.7056290999999,005,P006,2025_Jan_25_1200,ConditionRich,2021.2.3,59.93867075195252,
139.75,140.0,41,0.0,Stimuli/Blank.png,0,0,0.0,0,241,241,241,,,,,,,,,,,,,139.7717886999999,0.021788699999888195,None,,191.45628430000033,191.45628430000033,191.45628430000033,191.45628430000033,191.45628430000033,191.45628430000033,191.45628430000033,191.45628430000033,191.45628430000033,191.45628430000033,005,P006,2025_Jan_25_1200,ConditionRich,2021.2.3,59.93867075195252,
140.0,140.75,21,0.75,Stimuli/P006/things_accordion_03s.jpg,0,0,0.0,0,242,242,242,,,,,,,,,,,,,140.00590349999948,0.00590349999947648,None,,191.70654420000028,191.70654420000028,191.70654420000028,191.70654420000028,191.70654420000028,191.70654420000028,191.70654420000028,191.70654420000028,191.70654420000028,191.70654420000028,005,P006,2025_Jan_25_1200,ConditionRich,2021.2.3,59.93867075195252,
140.75,141.0,41,0.0,Stimuli/Blank.png,0,0,0.0,0,243,243,243,,,,,,,,,,,,,140.77319609999995,0.023196099999950093,None,,192.45724990000053,192.45724990000053,192.45724990000053,192.45724990000053,192.45724990000053,192.45724990000053,192.45724990000053,192.45724990000053,192.45724990000053,192.45724990000053,005,P006,2025_Jan_25_1200,ConditionRich,2021.2.3,59.93867075195252,
141.0,141.75,21,0.75,Stimuli/P006/things_accordion_03s.jpg,0,0,0.0,0,244,244,244,,,,,,,,,,,,,141.00659949999954,0.006599499999538239,None,,192.69071110000004,192.69071110000004,192.69071110000004,192.69071110000004,192.69071110000004,192.69071110000004,192.69071110000004,192.69071110000004,192.69071110000004,192.69071110000004,005,P006,2025_Jan_25_1200,ConditionRich,2021.2.3,59.93867075195252,
141.75,142.0,41,0.0,Stimuli/Blank.png,0,0,0.0,0,245,245,245,,,,,,,,,,,,,141.7572436999999,0.007243699999889941,None,,193.44137290000072,193.44137290000072,193.44137290000072,193.44137290000072,193.44137290000072,193.44137290000072,193.44137290000072,193.44137290000072,193.44137290000072,193.44137290000072,005,P006,2025_Jan_25_1200,ConditionRich,2021.2.3,59.93867075195252,
142.0,142.75,21,0.75,Stimuli/P006/things_accordion_03s.jpg,0,0,0.0,0,246,246,246,,,,,,,,,,,,,142.0077412999999,0.007741299999906914,None,,193.70827460000055,193.70827460000055,193.70827460000055,193.70827460000055,193.70827460000055,193.70827460000055,193.70827460000055,193.70827460000055,193.70827460000055,193.70827460000055,005,P006,2025_Jan_25_1200,ConditionRich,2021.2.3,59.93867075195252,
142.75,143.0,41,0.0,Stimuli/Blank.png,0,0,0.0,0,247,247,247,,,,,,,,,,,,,142.77512680000018,0.025126800000180083,None,,194.45894360000057,194.45894360000057,194.45894360000057,194.45894360000057,194.45894360000057,194.45894360000057,194.45894360000057,194.45894360000057,194.45894360000057,194.45894360000057,005,P006,2025_Jan_25_1200,ConditionRich,2021.2.3,59.93867075195252,
143.0,143.75,21,0.75,Stimuli/P006/things_accordion_03s.jpg,0,0,0.0,0,248,248,248,,,,,,,,,,,,,143.00804470000003,0.00804470000002766,None,,194.7091706000001,194.7091706000001,194.7091706000001,194.7091706000001,194.7091706000001,194.7091706000001,194.7091706000001,194.7091706000001,194.7091706000001,194.7091706000001,005,P006,2025_Jan_25_1200,ConditionRich,2021.2.3,59.93867075195252,
143.75,144.0,41,0.0,Stimuli/Blank.png,0,0,0.0,0,249,249,249,,,,,,,,,,,,,143.77646709999954,0.026467099999536003,None,,195.45982749999985,195.45982749999985,195.45982749999985,195.45982749999985,195.45982749999985,195.45982749999985,195.45982749999985,195.45982749999985,195.45982749999985,195.45982749999985,005,P006,2025_Jan_25_1200,ConditionRich,2021.2.3,59.93867075195252,
144.0,144.75,38,0.75,Stimuli/P006/things_sledgehammer_03s.jpg,0,0,0.0,0,250,250,250,,,,,,,,,,,,,144.01216029999978,0.012160299999777635,None,,195.71005520000017,195.71005520000017,195.71005520000017,195.71005520000017,195.71005520000017,195.71005520000017,195.71005520000017,195.71005520000017,195.71005520000017,195.71005520000017,005,P006,2025_Jan_25_1200,ConditionRich,2021.2.3,59.93867075195252,
144.75,145.0,41,0.0,Stimuli/Blank.png,0,0,0.0,0,251,251,251,,,,,,,,,,,,,144.77677270000004,0.02677270000003773,None,,196.46071740000025,196.46071740000025,196.46071740000025,196.46071740000025,196.46071740000025,196.46071740000025,196.46071740000025,196.46071740000025,196.46071740000025,196.46071740000025,005,P006,2025_Jan_25_1200,ConditionRich,2021.2.3,59.93867075195252,
145.0,145.75,38,0.75,Stimuli/P006/things_sledgehammer_03s.jpg,0,0,0.0,0,252,252,252,,,,,,,,,,,,,145.01015499999994,0.010154999999940628,None,,196.7109221999999,196.7109221999999,196.7109221999999,196.7109221999999,196.7109221999999,196.7109221999999,196.7109221999999,196.7109221999999,196.7109221999999,196.7109221999999,005,P006,2025_Jan_25_1200,ConditionRich,2021.2.3,59.93867075195252,
145.75,146.0,41,0.0,Stimuli/Blank.png,0,0,0.0,0,253,253,253,,,,,,,,,,,,,145.77764930000012,0.027649300000121002,None,,197.4615861000002,197.4615861000002,197.4615861000002,197.4615861000002,197.4615861000002,197.4615861000002,197.4615861000002,197.4615861000002,197.4615861000002,197.4615861000002,005,P006,2025_Jan_25_1200,ConditionRich,2021.2.3,59.93867075195252,
146.0,146.75,38,0.75,Stimuli/P006/things_sledgehammer_03s.jpg,0,0,0.0,0,254,254,254,,,,,,,,,,,,,146.01084699999956,0.010846999999557738,None,,197.69512699999996,197.69512699999996,197.69512699999996,197.69512699999996,197.69512699999996,197.69512699999996,197.69512699999996,197.69512699999996,197.69512699999996,197.69512699999996,005,P006,2025_Jan_25_1200,ConditionRich,2021.2.3,59.93867075195252,
146.75,147.0,41,0.0,Stimuli/Blank.png,0,0,0.0,0,255,255,255,,,,,,,,,,,,,146.76146280000012,0.011462800000117568,None,,198.44580140000016,198.44580140000016,198.44580140000016,198.44580140000016,198.44580140000016,198.44580140000016,198.44580140000016,198.44580140000016,198.44580140000016,198.44580140000016,005,P006,2025_Jan_25_1200,ConditionRich,2021.2.3,59.93867075195252,
147.0,147.75,38,0.75,Stimuli/P006/things_sledgehammer_03s.jpg,0,0,0.0,0,256,256,256,,,,,,,,,,,,,147.01125129999946,0.011251299999457842,None,,198.69600739999987,198.69600739999987,198.69600739999987,198.69600739999987,198.69600739999987,198.69600739999987,198.69600739999987,198.69600739999987,198.69600739999987,198.69600739999987,005,P006,2025_Jan_25_1200,ConditionRich,2021.2.3,59.93867075195252,
147.75,148.0,41,0.0,Stimuli/Blank.png,0,0,0.0,0,257,257,257,,,,,,,,,,,,,147.76222340000004,0.012223400000038964,None,,199.44667030000073,199.44667030000073,199.44667030000073,199.44667030000073,199.44667030000073,199.44667030000073,199.44667030000073,199.44667030000073,199.44667030000073,199.44667030000073,005,P006,2025_Jan_25_1200,ConditionRich,2021.2.3,59.93867075195252,
148.0,148.75,22,0.75,Stimuli/P006/things_baby_03s.jpg,0,0,0.0,0,258,258,258,,,,,,,,,,,,,148.01250410000011,0.012504100000114704,None,,199.69689480000034,199.69689480000034,199.69689480000034,199.69689480000034,199.69689480000034,199.69689480000034,199.69689480000034,199.69689480000034,199.69689480000034,199.69689480000034,005,P006,2025_Jan_25_1200,ConditionRich,2021.2.3,59.93867075195252,
148.75,149.0,41,0.0,Stimuli/Blank.png,0,0,0.0,0,259,259,259,,,,,,,,,,,,,148.76553220000005,0.015532200000052399,None,,200.4642455000003,200.4642455000003,200.4642455000003,200.4642455000003,200.4642455000003,200.4642455000003,200.4642455000003,200.4642455000003,200.4642455000003,200.4642455000003,005,P006,2025_Jan_25_1200,ConditionRich,2021.2.3,59.93867075195252,
149.0,149.75,22,0.75,Stimuli/P006/things_baby_03s.jpg,0,0,0.0,0,260,260,260,,,,,,,,,,,,,149.0158789999996,0.015878999999586085,None,,200.71443890000046,200.71443890000046,200.71443890000046,200.71443890000046,200.71443890000046,200.71443890000046,200.71443890000046,200.71443890000046,200.71443890000046,200.71443890000046,005,P006,2025_Jan_25_1200,ConditionRich,2021.2.3,59.93867075195252,
149.75,150.0,41,0.0,Stimuli/Blank.png,0,0,0.0,0,261,261,261,,,,,,,,,,,,,149.76582569999937,0.015825699999368226,None,,201.46512410000014,201.46512410000014,201.46512410000014,201.46512410000014,201.46512410000014,201.46512410000014,201.46512410000014,201.46512410000014,201.46512410000014,201.46512410000014,005,P006,2025_Jan_25_1200,ConditionRich,2021.2.3,59.93867075195252,
