eventStartTime,eventEndTime,eventCond,imSize,imFile,responseEvent,fixRespStart,fixRespEnd,Events.thisRepN,Events.thisTrialN,Events.thisN,Events.thisIndex,Instructions.started,Instructions.stopped,participantReadyResponse.keys,participantReadyResponse.rt,participantReadyResponse.started,participantReadyResponse.stopped,startWaitforTrigger,triggerResponse.keys,triggerResponse.rt,triggerResponse.started,triggerResponse.stopped,globalTimer,actualStartTime,startTimingDiff,participantResponse.keys,participantResponse.rt,participantResponse.started,participantResponse.stopped,image.started,image.stopped,fixationOutside.started,fixationOutside.stopped,fixationResponse.started,fixationResponse.stopped,fixationInside.started,fixationInside.stopped,session,participant,date,expName,psychopyVersion,frameRate,
,,,,,,,,,,,,9.14162209999995,None,1,17.59963609999977,9.14162209999995,None,,,,,,,,,,,,,,,,,,,,,001,P006,2025_Jan_25_1123,ConditionRich,2021.2.3,59.88751926133909,
,,,,,,,,,,,,,,,,,,26.755704799999876,5,14.156615800000054,26.768258499999774,None,,,,,,,,,,,,,,,,001,P006,2025_Jan_25_1123,ConditionRich,2021.2.3,59.88751926133909,
0.0,4.0,0,0.0,Stimuli/Blank.png,0,0,0.0,0,0,0,0,,,,,,,,,,,,40.93428019999965,0.015031799999633222,0.015031799999633222,5,1.9610985000003893,40.964115499999934,None,40.964115499999934,None,40.964115499999934,None,40.964115499999934,40.964115499999934,40.964115499999934,None,001,P006,2025_Jan_25_1123,ConditionRich,2021.2.3,59.88751926133909,
4.0,7.75,26,0.75,Stimuli/P006/things_face_03s.jpg,0,0,0.0,0,1,1,1,,,,,,,,,,,,,4.003036399999928,0.0030363999999281077,5,1.9568419000001995,44.967942799999946,44.967942799999946,44.967942799999946,44.967942799999946,44.967942799999946,44.967942799999946,44.967942799999946,44.967942799999946,44.967942799999946,44.967942799999946,001,P006,2025_Jan_25_1123,ConditionRich,2021.2.3,59.88751926133909,
7.75,8.0,41,0.0,Stimuli/Blank.png,0,0,0.0,0,2,2,2,,,,,,,,,,,,,7.772155099999964,0.022155099999963568,None,,48.721269799999845,48.721269799999845,48.721269799999845,48.721269799999845,48.721269799999845,48.721269799999845,48.721269799999845,48.721269799999845,48.721269799999845,48.721269799999845,001,P006,2025_Jan_25_1123,ConditionRich,2021.2.3,59.88751926133909,
8.0,11.75,27,0.75,Stimuli/P006/things_first-aid_kit_03s.jpg,0,0,0.0,0,3,3,3,,,,,,,,,,,,,8.006218099999842,0.006218099999841797,5,1.9703852999996343,48.954500800000005,48.954500800000005,48.954500800000005,48.954500800000005,48.954500800000005,48.954500800000005,48.954500800000005,48.954500800000005,48.954500800000005,48.954500800000005,001,P006,2025_Jan_25_1123,ConditionRich,2021.2.3,59.88751926133909,
11.75,12.0,41,0.0,Stimuli/Blank.png,0,0,0.0,0,4,4,4,,,,,,,,,,,,,11.759689999999864,0.009689999999864085,5,0.21702909999976328,52.70790509999961,52.70790509999961,52.70790509999961,52.70790509999961,52.70790509999961,52.70790509999961,52.70790509999961,52.70790509999961,52.70790509999961,52.70790509999961,001,P006,2025_Jan_25_1123,ConditionRich,2021.2.3,59.88751926133909,
12.0,15.75,5,0.75,Stimuli/P006/sun_axaqdcecfojvpvrl.jpg,0,0,0.0,0,5,5,5,,,,,,,,,,,,,12.00996269999996,0.009962699999960023,5,1.966760400000112,52.95803339999975,52.95803339999975,52.95803339999975,52.95803339999975,52.95803339999975,52.95803339999975,52.95803339999975,52.95803339999975,52.95803339999975,52.95803339999975,001,P006,2025_Jan_25_1123,ConditionRich,2021.2.3,59.88751926133909,
15.75,16.0,41,0.0,Stimuli/Blank.png,0,0,0.0,0,6,6,6,,,,,,,,,,,,,15.762680199999977,0.012680199999977049,5,0.2135585999999421,56.711339099999805,56.711339099999805,56.711339099999805,56.711339099999805,56.711339099999805,56.711339099999805,56.711339099999805,56.711339099999805,56.711339099999805,56.711339099999805,001,P006,2025_Jan_25_1123,ConditionRich,2021.2.3,59.88751926133909,
16.0,19.75,37,0.75,Stimuli/P006/things_showerhead_03s.jpg,1,3,3.75,0,7,7,7,,,,,,,,,,,,,16.013044999999693,0.013044999999692664,1,3.514658799999779,56.978251199999704,56.978251199999704,56.978251199999704,56.978251199999704,56.978251199999704,56.978251199999704,59.947783199999776,60.69821509999974,56.978251199999704,56.978251199999704,001,P006,2025_Jan_25_1123,ConditionRich,2021.2.3,59.88751926133909,
19.75,20.0,41,0.0,Stimuli/Blank.png,0,0,0.0,0,8,8,8,,,,,,,,,,,,,19.767567499999586,0.01756749999958629,5,0.19338500000003478,60.7315709999998,60.7315709999998,60.7315709999998,60.7315709999998,60.7315709999998,60.7315709999998,60.7315709999998,60.7315709999998,60.7315709999998,60.7315709999998,001,P006,2025_Jan_25_1123,ConditionRich,2021.2.3,59.88751926133909,
20.0,23.75,32,0.75,Stimuli/P006/things_jumpsuit_03s.jpg,0,0,0.0,0,9,9,9,,,,,,,,,,,,,20.016283199999634,0.016283199999634235,5,1.959820900000068,60.96513959999993,60.96513959999993,60.96513959999993,60.96513959999993,60.96513959999993,60.96513959999993,60.96513959999993,60.96513959999993,60.96513959999993,60.96513959999993,001,P006,2025_Jan_25_1123,ConditionRich,2021.2.3,59.88751926133909,
23.75,24.0,41,0.0,Stimuli/Blank.png,0,0,0.0,0,10,10,10,,,,,,,,,,,,,23.753322399999888,0.003322399999888148,None,,64.7017251999996,64.7017251999996,64.7017251999996,64.7017251999996,64.7017251999996,64.7017251999996,64.7017251999996,64.7017251999996,64.7017251999996,64.7017251999996,001,P006,2025_Jan_25_1123,ConditionRich,2021.2.3,59.88751926133909,
24.0,27.75,3,0.75,Stimuli/P006/sun_asyidwmnobuawmax.jpg,1,1,1.75,0,11,11,11,,,,,,,,,,,,,24.00389049999967,0.0038904999996702827,5,1.9730467000003955,64.95193689999996,64.95193689999996,64.95193689999996,64.95193689999996,64.95193689999996,64.95193689999996,65.93617839999979,66.68680079999967,64.95193689999996,64.95193689999996,001,P006,2025_Jan_25_1123,ConditionRich,2021.2.3,59.88751926133909,
27.75,28.0,41,0.0,Stimuli/Blank.png,0,0,0.0,0,12,12,12,,,,,,,,,,,,,27.756545299999743,0.006545299999743293,None,,68.70525359999965,68.70525359999965,68.70525359999965,68.70525359999965,68.70525359999965,68.70525359999965,68.70525359999965,68.70525359999965,68.70525359999965,68.70525359999965,001,P006,2025_Jan_25_1123,ConditionRich,2021.2.3,59.88751926133909,
28.0,31.75,19,0.75,Stimuli/P006/sun_czspalxthlkjwoat.jpg,1,0,0.75,0,13,13,13,,,,,,,,,,,,,28.006703899999593,0.006703899999592977,5,1.952723800000058,68.97216369999978,68.97216369999978,68.97216369999978,68.97216369999978,68.97216369999978,68.97216369999978,68.97216369999978,69.70618349999995,68.97216369999978,68.97216369999978,001,P006,2025_Jan_25_1123,ConditionRich,2021.2.3,59.88751926133909,
31.75,32.0,41,0.0,Stimuli/Blank.png,0,0,0.0,0,14,14,14,,,,,,,,,,,,,31.776914399999896,0.026914399999895977,5,0.19939770000019053,72.72549059999983,72.72549059999983,72.72549059999983,72.72549059999983,72.72549059999983,72.72549059999983,72.72549059999983,72.72549059999983,72.72549059999983,72.72549059999983,001,P006,2025_Jan_25_1123,ConditionRich,2021.2.3,59.88751926133909,
32.0,35.75,33,0.75,Stimuli/P006/things_man_03s.jpg,0,0,0.0,0,15,15,15,,,,,,,,,,,,,32.01012189999983,0.01012189999983093,5,1.9500256000001173,72.97571579999976,72.97571579999976,72.97571579999976,72.97571579999976,72.97571579999976,72.97571579999976,72.97571579999976,72.97571579999976,72.97571579999976,72.97571579999976,001,P006,2025_Jan_25_1123,ConditionRich,2021.2.3,59.88751926133909,
35.75,36.0,41,0.0,Stimuli/Blank.png,0,0,0.0,0,16,16,16,,,,,,,,,,,,,35.78054699999984,0.030546999999842228,5,0.19678960000010193,76.72900029999983,76.72900029999983,76.72900029999983,76.72900029999983,76.72900029999983,76.72900029999983,76.72900029999983,76.72900029999983,76.72900029999983,76.72900029999983,001,P006,2025_Jan_25_1123,ConditionRich,2021.2.3,59.88751926133909,
36.0,39.75,15,0.75,Stimuli/P006/sun_btkzuhaxqlacvmsv.jpg,1,2,2.75,0,17,17,17,,,,,,,,,,,,,36.01385689999961,0.013856899999609595,1,2.3456647000002704,76.97926049999978,76.97926049999978,76.97926049999978,76.97926049999978,76.97926049999978,76.97926049999978,78.96429999999964,79.71496439999964,76.97926049999978,76.97926049999978,001,P006,2025_Jan_25_1123,ConditionRich,2021.2.3,59.88751926133909,
39.75,40.0,41,0.0,Stimuli/Blank.png,0,0,0.0,0,18,18,18,,,,,,,,,,,,,39.7671292,0.0171291999999994,None,,80.71584799999982,80.71584799999982,80.71584799999982,80.71584799999982,80.71584799999982,80.71584799999982,80.71584799999982,80.71584799999982,80.71584799999982,80.71584799999982,001,P006,2025_Jan_25_1123,ConditionRich,2021.2.3,59.88751926133909,
40.0,43.75,22,0.75,Stimuli/P006/things_baby_03s.jpg,0,0,0.0,0,19,19,19,,,,,,,,,,,,,40.001933899999585,0.0019338999995852646,5,1.9597312999999303,80.96609359999957,80.96609359999957,80.96609359999957,80.96609359999957,80.96609359999957,80.96609359999957,80.96609359999957,80.96609359999957,80.96609359999957,80.96609359999957,001,P006,2025_Jan_25_1123,ConditionRich,2021.2.3,59.88751926133909,
43.75,44.0,41,0.0,Stimuli/Blank.png,0,0,0.0,0,20,20,20,,,,,,,,,,,,,43.77059429999963,0.020594299999629584,None,,84.71937739999976,84.71937739999976,84.71937739999976,84.71937739999976,84.71937739999976,84.71937739999976,84.71937739999976,84.71937739999976,84.71937739999976,84.71937739999976,001,P006,2025_Jan_25_1123,ConditionRich,2021.2.3,59.88751926133909,
44.0,47.75,7,0.75,Stimuli/P006/sun_bdmdlkpsznknrcqi.jpg,0,0,0.0,0,21,21,21,,,,,,,,,,,,,44.0038669999999,0.0038669999999001448,5,1.9560336999998071,84.96968539999989,84.96968539999989,84.96968539999989,84.96968539999989,84.96968539999989,84.96968539999989,84.96968539999989,84.96968539999989,84.96968539999989,84.96968539999989,001,P006,2025_Jan_25_1123,ConditionRich,2021.2.3,59.88751926133909,
47.75,48.0,41,0.0,Stimuli/Blank.png,0,0,0.0,0,22,22,22,,,,,,,,,,,,,47.77720219999992,0.027202199999919685,5,0.18628579999995054,88.73957829999972,88.73957829999972,88.73957829999972,88.73957829999972,88.73957829999972,88.73957829999972,88.73957829999972,88.73957829999972,88.73957829999972,88.73957829999972,001,P006,2025_Jan_25_1123,ConditionRich,2021.2.3,59.88751926133909,
48.0,51.75,12,0.75,Stimuli/P006/sun_bodyuiqwqpqzwfoz.jpg,0,0,0.0,0,23,23,23,,,,,,,,,,,,,48.02636199999961,0.026361999999608088,5,1.9192967999997563,89.0064981999999,89.0064981999999,89.0064981999999,89.0064981999999,89.0064981999999,89.0064981999999,89.0064981999999,89.0064981999999,89.0064981999999,89.0064981999999,001,P006,2025_Jan_25_1123,ConditionRich,2021.2.3,59.88751926133909,
51.75,52.0,41,0.0,Stimuli/Blank.png,0,0,0.0,0,24,24,24,,,,,,,,,,,,,51.794699899999614,0.04469989999961399,5,0.1827405999997609,92.74312549999968,92.74312549999968,92.74312549999968,92.74312549999968,92.74312549999968,92.74312549999968,92.74312549999968,92.74312549999968,92.74312549999968,92.74312549999968,001,P006,2025_Jan_25_1123,ConditionRich,2021.2.3,59.88751926133909,
52.0,55.75,20,0.75,Stimuli/P006/sun_dvxuxzytfdbjyzit.jpg,0,0,0.0,0,25,25,25,,,,,,,,,,,,,52.01100639999959,0.011006399999587302,5,1.932438700000148,92.99335369999972,92.99335369999972,92.99335369999972,92.99335369999972,92.99335369999972,92.99335369999972,92.99335369999972,92.99335369999972,92.99335369999972,92.99335369999972,001,P006,2025_Jan_25_1123,ConditionRich,2021.2.3,59.88751926133909,
55.75,56.0,41,0.0,Stimuli/Blank.png,0,0,0.0,0,26,26,26,,,,,,,,,,,,,55.79767939999965,0.04767939999965165,5,0.17905590000009397,96.74665519999962,96.74665519999962,96.74665519999962,96.74665519999962,96.74665519999962,96.74665519999962,96.74665519999962,96.74665519999962,96.74665519999962,96.74665519999962,001,P006,2025_Jan_25_1123,ConditionRich,2021.2.3,59.88751926133909,
56.0,59.75,29,0.75,Stimuli/P006/things_guillotine_03s.jpg,0,0,0.0,0,27,27,27,,,,,,,,,,,,,56.01631899999984,0.016318999999839434,5,1.9457413000000088,96.98018979999961,96.98018979999961,96.98018979999961,96.98018979999961,96.98018979999961,96.98018979999961,96.98018979999961,96.98018979999961,96.98018979999961,96.98018979999961,001,P006,2025_Jan_25_1123,ConditionRich,2021.2.3,59.88751926133909,
59.75,60.0,41,0.0,Stimuli/Blank.png,0,0,0.0,0,28,28,28,,,,,,,,,,,,,59.76836389999971,0.018363899999712885,None,,100.71682409999994,100.71682409999994,100.71682409999994,100.71682409999994,100.71682409999994,100.71682409999994,100.71682409999994,100.71682409999994,100.71682409999994,100.71682409999994,001,P006,2025_Jan_25_1123,ConditionRich,2021.2.3,59.88751926133909,
60.0,63.75,38,0.75,Stimuli/P006/things_sledgehammer_03s.jpg,0,0,0.0,0,29,29,29,,,,,,,,,,,,,60.001747799999976,0.0017477999999755411,5,1.959003699999812,100.96704789999967,100.96704789999967,100.96704789999967,100.96704789999967,100.96704789999967,100.96704789999967,100.96704789999967,100.96704789999967,100.96704789999967,100.96704789999967,001,P006,2025_Jan_25_1123,ConditionRich,2021.2.3,59.88751926133909,
63.75,64.0,41,0.0,Stimuli/Blank.png,0,0,0.0,0,30,30,30,,,,,,,,,,,,,63.772187999999915,0.02218799999991461,None,,104.72035589999996,104.72035589999996,104.72035589999996,104.72035589999996,104.72035589999996,104.72035589999996,104.72035589999996,104.72035589999996,104.72035589999996,104.72035589999996,001,P006,2025_Jan_25_1123,ConditionRich,2021.2.3,59.88751926133909,
64.0,67.75,28,0.75,Stimuli/P006/things_girl_03s.jpg,0,0,0.0,0,31,31,31,,,,,,,,,,,,,64.00545149999971,0.005451499999708176,5,1.9552697000003718,104.97057559999985,104.97057559999985,104.97057559999985,104.97057559999985,104.97057559999985,104.97057559999985,104.97057559999985,104.97057559999985,104.97057559999985,104.97057559999985,001,P006,2025_Jan_25_1123,ConditionRich,2021.2.3,59.88751926133909,
67.75,68.0,41,0.0,Stimuli/Blank.png,0,0,0.0,0,32,32,32,,,,,,,,,,,,,67.77635759999976,0.02635759999975562,5,0.18520349999971586,108.74059079999961,108.74059079999961,108.74059079999961,108.74059079999961,108.74059079999961,108.74059079999961,108.74059079999961,108.74059079999961,108.74059079999961,108.74059079999961,001,P006,2025_Jan_25_1123,ConditionRich,2021.2.3,59.88751926133909,
68.0,71.75,23,0.75,Stimuli/P006/things_beetle_03s.jpg,0,0,0.0,0,33,33,33,,,,,,,,,,,,,68.02552269999978,0.02552269999978307,5,1.9351272000003519,108.99083689999998,108.99083689999998,108.99083689999998,108.99083689999998,108.99083689999998,108.99083689999998,108.99083689999998,108.99083689999998,108.99083689999998,108.99083689999998,001,P006,2025_Jan_25_1123,ConditionRich,2021.2.3,59.88751926133909,
71.75,72.0,41,0.0,Stimuli/Blank.png,0,0,0.0,0,34,34,34,,,,,,,,,,,,,71.7786573999997,0.028657399999701738,5,0.19844330000023547,112.72742029999972,112.72742029999972,112.72742029999972,112.72742029999972,112.72742029999972,112.72742029999972,112.72742029999972,112.72742029999972,112.72742029999972,112.72742029999972,001,P006,2025_Jan_25_1123,ConditionRich,2021.2.3,59.88751926133909,
72.0,75.75,4,0.75,Stimuli/P006/sun_auwghripdoxzluuk.jpg,0,0,0.0,0,35,35,35,,,,,,,,,,,,,72.01206879999972,0.012068799999724433,5,1.9481054000002587,112.97767079999994,112.97767079999994,112.97767079999994,112.97767079999994,112.97767079999994,112.97767079999994,112.97767079999994,112.97767079999994,112.97767079999994,112.97767079999994,001,P006,2025_Jan_25_1123,ConditionRich,2021.2.3,59.88751926133909,
75.75,76.0,41,0.0,Stimuli/Blank.png,0,0,0.0,0,36,36,36,,,,,,,,,,,,,75.78299719999995,0.03299719999995432,None,,116.73104409999996,116.73104409999996,116.73104409999996,116.73104409999996,116.73104409999996,116.73104409999996,116.73104409999996,116.73104409999996,116.73104409999996,116.73104409999996,001,P006,2025_Jan_25_1123,ConditionRich,2021.2.3,59.88751926133909,
76.0,79.75,2,0.75,Stimuli/P006/sun_ahmycohdkioefoxs.jpg,0,0,0.0,0,37,37,37,,,,,,,,,,,,,76.00114959999974,0.0011495999997350737,5,1.9612366000001202,116.9645102999998,116.9645102999998,116.9645102999998,116.9645102999998,116.9645102999998,116.9645102999998,116.9645102999998,116.9645102999998,116.9645102999998,116.9645102999998,001,P006,2025_Jan_25_1123,ConditionRich,2021.2.3,59.88751926133909,
79.75,80.0,41,0.0,Stimuli/Blank.png,0,0,0.0,0,38,38,38,,,,,,,,,,,,,79.77139249999982,0.021392499999819847,5,0.19128539999974237,120.73447879999958,120.73447879999958,120.73447879999958,120.73447879999958,120.73447879999958,120.73447879999958,120.73447879999958,120.73447879999958,120.73447879999958,120.73447879999958,001,P006,2025_Jan_25_1123,ConditionRich,2021.2.3,59.88751926133909,
80.0,83.75,13,0.75,Stimuli/P006/sun_bruphbrfsbxowtlq.jpg,0,0,0.0,0,39,39,39,,,,,,,,,,,,,80.0192192999998,0.019219299999804207,5,1.9580024000001686,120.96801819999973,120.96801819999973,120.96801819999973,120.96801819999973,120.96801819999973,120.96801819999973,120.96801819999973,120.96801819999973,120.96801819999973,120.96801819999973,001,P006,2025_Jan_25_1123,ConditionRich,2021.2.3,59.88751926133909,
83.75,84.0,41,0.0,Stimuli/Blank.png,0,0,0.0,0,40,40,40,,,,,,,,,,,,,83.75638979999985,0.006389799999851675,None,,124.70464969999966,124.70464969999966,124.70464969999966,124.70464969999966,124.70464969999966,124.70464969999966,124.70464969999966,124.70464969999966,124.70464969999966,124.70464969999966,001,P006,2025_Jan_25_1123,ConditionRich,2021.2.3,59.88751926133909,
84.0,100.0,0,0.0,Stimuli/Blank.png,1,7,7.75,0,41,41,41,,,,,,,,,,,,,84.00673169999982,0.006731699999818375,5,13.970885200000339,124.95488249999971,124.95488249999971,124.95488249999971,124.95488249999971,124.95488249999971,124.95488249999971,131.9443713999999,132.69506789999969,124.95488249999971,124.95488249999971,001,P006,2025_Jan_25_1123,ConditionRich,2021.2.3,59.88751926133909,
100.0,103.75,8,0.75,Stimuli/P006/sun_bekkgqphzbclwpvb.jpg,1,1,1.75,0,42,42,42,,,,,,,,,,,,,100.00356649999958,0.0035664999995788094,5,1.9395727000000988,140.9861477999998,140.9861477999998,140.9861477999998,140.9861477999998,140.9861477999998,140.9861477999998,141.95322339999984,142.7038720999999,140.9861477999998,140.9861477999998,001,P006,2025_Jan_25_1123,ConditionRich,2021.2.3,59.88751926133909,
103.75,104.0,41,0.0,Stimuli/Blank.png,0,0,0.0,0,43,43,43,,,,,,,,,,,,,103.79065189999983,0.040651899999829766,None,,144.73898919999965,144.73898919999965,144.73898919999965,144.73898919999965,144.73898919999965,144.73898919999965,144.73898919999965,144.73898919999965,144.73898919999965,144.73898919999965,001,P006,2025_Jan_25_1123,ConditionRich,2021.2.3,59.88751926133909,
104.0,107.75,16,0.75,Stimuli/P006/sun_bwentnobehmvaxkp.jpg,0,0,0.0,0,44,44,44,,,,,,,,,,,,,104.0070854999999,0.007085499999902822,5,1.9532156000000214,144.97256149999976,144.97256149999976,144.97256149999976,144.97256149999976,144.97256149999976,144.97256149999976,144.97256149999976,144.97256149999976,144.97256149999976,144.97256149999976,001,P006,2025_Jan_25_1123,ConditionRich,2021.2.3,59.88751926133909,
107.75,108.0,41,0.0,Stimuli/Blank.png,0,0,0.0,0,45,45,45,,,,,,,,,,,,,107.77743329999976,0.027433299999756855,5,0.19997820000025968,148.72585619999973,148.72585619999973,148.72585619999973,148.72585619999973,148.72585619999973,148.72585619999973,148.72585619999973,148.72585619999973,148.72585619999973,148.72585619999973,001,P006,2025_Jan_25_1123,ConditionRich,2021.2.3,59.88751926133909,
108.0,111.75,36,0.75,Stimuli/P006/things_pony_03s.jpg,0,0,0.0,0,46,46,46,,,,,,,,,,,,,108.01070719999962,0.010707199999615113,5,1.949761700000181,148.97606359999963,148.97606359999963,148.97606359999963,148.97606359999963,148.97606359999963,148.97606359999963,148.97606359999963,148.97606359999963,148.97606359999963,148.97606359999963,001,P006,2025_Jan_25_1123,ConditionRich,2021.2.3,59.88751926133909,
111.75,112.0,41,0.0,Stimuli/Blank.png,0,0,0.0,0,47,47,47,,,,,,,,,,,,,111.78172349999977,0.031723499999770866,5,0.19629059999988385,152.72937629999979,152.72937629999979,152.72937629999979,152.72937629999979,152.72937629999979,152.72937629999979,152.72937629999979,152.72937629999979,152.72937629999979,152.72937629999979,001,P006,2025_Jan_25_1123,ConditionRich,2021.2.3,59.88751926133909,
112.0,115.75,21,0.75,Stimuli/P006/things_accordion_03s.jpg,0,0,0.0,0,48,48,48,,,,,,,,,,,,,112.01439829999981,0.01439829999981157,5,1.9462372000002688,152.9796225,152.9796225,152.9796225,152.9796225,152.9796225,152.9796225,152.9796225,152.9796225,152.9796225,152.9796225,001,P006,2025_Jan_25_1123,ConditionRich,2021.2.3,59.88751926133909,
115.75,116.0,41,0.0,Stimuli/Blank.png,0,0,0.0,0,49,49,49,,,,,,,,,,,,,115.76811659999976,0.018116599999757454,None,,156.71630479999976,156.71630479999976,156.71630479999976,156.71630479999976,156.71630479999976,156.71630479999976,156.71630479999976,156.71630479999976,156.71630479999976,156.71630479999976,001,P006,2025_Jan_25_1123,ConditionRich,2021.2.3,59.88751926133909,
116.0,119.75,25,0.75,Stimuli/P006/things_dog_03s.jpg,1,1,1.75,0,50,50,50,,,,,,,,,,,,,116.00181959999964,0.001819599999635102,5,1.9595186000001377,156.9664144999997,156.9664144999997,156.9664144999997,156.9664144999997,156.9664144999997,156.9664144999997,157.95068649999985,158.7013508,156.9664144999997,156.9664144999997,001,P006,2025_Jan_25_1123,ConditionRich,2021.2.3,59.88751926133909,
119.75,120.0,41,0.0,Stimuli/Blank.png,0,0,0.0,0,51,51,51,,,,,,,,,,,,,119.77107949999981,0.02107949999981429,None,,160.71973809999963,160.71973809999963,160.71973809999963,160.71973809999963,160.71973809999963,160.71973809999963,160.71973809999963,160.71973809999963,160.71973809999963,160.71973809999963,001,P006,2025_Jan_25_1123,ConditionRich,2021.2.3,59.88751926133909,
120.0,123.75,10,0.75,Stimuli/P006/sun_bgnxbfhmwhliypvg.jpg,0,0,0.0,0,52,52,52,,,,,,,,,,,,,120.00642749999997,0.006427499999972497,5,1.9556439000002683,160.9700068999996,160.9700068999996,160.9700068999996,160.9700068999996,160.9700068999996,160.9700068999996,160.9700068999996,160.9700068999996,160.9700068999996,160.9700068999996,001,P006,2025_Jan_25_1123,ConditionRich,2021.2.3,59.88751926133909,
123.75,124.0,41,0.0,Stimuli/Blank.png,0,0,0.0,0,53,53,53,,,,,,,,,,,,,123.77541380000002,0.02541380000002391,None,,164.72329479999962,164.72329479999962,164.72329479999962,164.72329479999962,164.72329479999962,164.72329479999962,164.72329479999962,164.72329479999962,164.72329479999962,164.72329479999962,001,P006,2025_Jan_25_1123,ConditionRich,2021.2.3,59.88751926133909,
124.0,127.75,40,0.75,Stimuli/P006/things_woman_03s.jpg,0,0,0.0,0,54,54,54,,,,,,,,,,,,,124.00824739999962,0.00824739999961821,5,1.9521263000001454,164.9735069999997,164.9735069999997,164.9735069999997,164.9735069999997,164.9735069999997,164.9735069999997,164.9735069999997,164.9735069999997,164.9735069999997,164.9735069999997,001,P006,2025_Jan_25_1123,ConditionRich,2021.2.3,59.88751926133909,
127.75,128.0,41,0.0,Stimuli/Blank.png,0,0,0.0,0,55,55,55,,,,,,,,,,,,,127.78109259999974,0.031092599999738013,5,0.1821164999996654,168.74363399999993,168.74363399999993,168.74363399999993,168.74363399999993,168.74363399999993,168.74363399999993,168.74363399999993,168.74363399999993,168.74363399999993,168.74363399999993,001,P006,2025_Jan_25_1123,ConditionRich,2021.2.3,59.88751926133909,
128.0,131.75,1,0.75,Stimuli/P006/sun_adyhbxohydkpecty.jpg,0,0,0.0,0,56,56,56,,,,,,,,,,,,,128.02900490000002,0.029004900000018097,5,1.9319682000000284,168.9937372999998,168.9937372999998,168.9937372999998,168.9937372999998,168.9937372999998,168.9937372999998,168.9937372999998,168.9937372999998,168.9937372999998,168.9937372999998,001,P006,2025_Jan_25_1123,ConditionRich,2021.2.3,59.88751926133909,
131.75,132.0,41,0.0,Stimuli/Blank.png,0,0,0.0,0,57,57,57,,,,,,,,,,,,,131.7820185999999,0.0320185999999012,5,0.19548059999988254,172.73037929999964,172.73037929999964,172.73037929999964,172.73037929999964,172.73037929999964,172.73037929999964,172.73037929999964,172.73037929999964,172.73037929999964,172.73037929999964,001,P006,2025_Jan_25_1123,ConditionRich,2021.2.3,59.88751926133909,
132.0,135.75,30,0.75,Stimuli/P006/things_hood_03s.jpg,1,2,2.75,0,58,58,58,,,,,,,,,,,,,132.0151953999998,0.015195399999811343,1,2.44429590000027,172.98058779999974,172.98058779999974,172.98058779999974,172.98058779999974,172.98058779999974,172.98058779999974,174.96565029999965,175.7163532999998,172.98058779999974,172.98058779999974,001,P006,2025_Jan_25_1123,ConditionRich,2021.2.3,59.88751926133909,
135.75,136.0,41,0.0,Stimuli/Blank.png,0,0,0.0,0,59,59,59,,,,,,,,,,,,,135.7690679999996,0.0190679999996064,None,,176.71721479999997,176.71721479999997,176.71721479999997,176.71721479999997,176.71721479999997,176.71721479999997,176.71721479999997,176.71721479999997,176.71721479999997,176.71721479999997,001,P006,2025_Jan_25_1123,ConditionRich,2021.2.3,59.88751926133909,
136.0,139.75,35,0.75,Stimuli/P006/things_pig_03s.jpg,0,0,0.0,0,60,60,60,,,,,,,,,,,,,136.00244399999974,0.0024439999997412087,5,1.958534000000327,176.96742809999978,176.96742809999978,176.96742809999978,176.96742809999978,176.96742809999978,176.96742809999978,176.96742809999978,176.96742809999978,176.96742809999978,176.96742809999978,001,P006,2025_Jan_25_1123,ConditionRich,2021.2.3,59.88751926133909,
139.75,140.0,41,0.0,Stimuli/Blank.png,0,0,0.0,0,61,61,61,,,,,,,,,,,,,139.77197899999965,0.021978999999646476,None,,180.72073049999972,180.72073049999972,180.72073049999972,180.72073049999972,180.72073049999972,180.72073049999972,180.72073049999972,180.72073049999972,180.72073049999972,180.72073049999972,001,P006,2025_Jan_25_1123,ConditionRich,2021.2.3,59.88751926133909,
140.0,143.75,17,0.75,Stimuli/P006/sun_bwsictslfxygpqbp.jpg,1,2,2.75,0,62,62,62,,,,,,,,,,,,,140.00612509999974,0.006125099999735539,1,2.4753578999998354,180.95427849999987,180.95427849999987,180.95427849999987,180.95427849999987,180.95427849999987,180.95427849999987,182.93936649999978,183.69006569999965,180.95427849999987,180.95427849999987,001,P006,2025_Jan_25_1123,ConditionRich,2021.2.3,59.88751926133909,
143.75,144.0,41,0.0,Stimuli/Blank.png,0,0,0.0,0,63,63,63,,,,,,,,,,,,,143.75982159999967,0.009821599999668251,5,0.2181175999999141,184.7075920999996,184.7075920999996,184.7075920999996,184.7075920999996,184.7075920999996,184.7075920999996,184.7075920999996,184.7075920999996,184.7075920999996,184.7075920999996,001,P006,2025_Jan_25_1123,ConditionRich,2021.2.3,59.88751926133909,
144.0,147.75,11,0.75,Stimuli/P006/sun_bjoocjyyhsmsbprr.jpg,0,0,0.0,0,64,64,64,,,,,,,,,,,,,144.00921849999986,0.009218499999860796,5,1.9679823000001306,184.95780639999975,184.95780639999975,184.95780639999975,184.95780639999975,184.95780639999975,184.95780639999975,184.95780639999975,184.95780639999975,184.95780639999975,184.95780639999975,001,P006,2025_Jan_25_1123,ConditionRich,2021.2.3,59.88751926133909,
147.75,148.0,41,0.0,Stimuli/Blank.png,0,0,0.0,0,65,65,65,,,,,,,,,,,,,147.76243559999966,0.012435599999662372,5,0.2146640999999363,188.7111232999996,188.7111232999996,188.7111232999996,188.7111232999996,188.7111232999996,188.7111232999996,188.7111232999996,188.7111232999996,188.7111232999996,188.7111232999996,001,P006,2025_Jan_25_1123,ConditionRich,2021.2.3,59.88751926133909,
148.0,151.75,31,0.75,Stimuli/P006/things_jukebox_03n.jpg,0,0,0.0,0,66,66,66,,,,,,,,,,,,,148.0130826999998,0.013082699999813485,5,1.947654500000226,188.9780268999998,188.9780268999998,188.9780268999998,188.9780268999998,188.9780268999998,188.9780268999998,188.9780268999998,188.9780268999998,188.9780268999998,188.9780268999998,001,P006,2025_Jan_25_1123,ConditionRich,2021.2.3,59.88751926133909,
151.75,152.0,41,0.0,Stimuli/Blank.png,0,0,0.0,0,67,67,67,,,,,,,,,,,,,151.76689929999975,0.016899299999749928,None,,192.71465549999994,192.71465549999994,192.71465549999994,192.71465549999994,192.71465549999994,192.71465549999994,192.71465549999994,192.71465549999994,192.71465549999994,192.71465549999994,001,P006,2025_Jan_25_1123,ConditionRich,2021.2.3,59.88751926133909,
152.0,155.75,14,0.75,Stimuli/P006/sun_bsirencncgxteejx.jpg,0,0,0.0,0,68,68,68,,,,,,,,,,,,,152.00022039999976,0.00022039999976186664,5,1.9608502999999473,192.96486849999974,192.96486849999974,192.96486849999974,192.96486849999974,192.96486849999974,192.96486849999974,192.96486849999974,192.96486849999974,192.96486849999974,192.96486849999974,001,P006,2025_Jan_25_1123,ConditionRich,2021.2.3,59.88751926133909,
155.75,156.0,41,0.0,Stimuli/Blank.png,0,0,0.0,0,69,69,69,,,,,,,,,,,,,155.77237079999986,0.022370799999862356,5,0.19080259999964255,196.73486429999957,196.73486429999957,196.73486429999957,196.73486429999957,196.73486429999957,196.73486429999957,196.73486429999957,196.73486429999957,196.73486429999957,196.73486429999957,001,P006,2025_Jan_25_1123,ConditionRich,2021.2.3,59.88751926133909,
156.0,159.75,9,0.75,Stimuli/P006/sun_bfcmdrojsffdttzu.jpg,0,0,0.0,0,70,70,70,,,,,,,,,,,,,156.02015099999971,0.02015099999971426,5,1.9240840000002208,197.0018329999998,197.0018329999998,197.0018329999998,197.0018329999998,197.0018329999998,197.0018329999998,197.0018329999998,197.0018329999998,197.0018329999998,197.0018329999998,001,P006,2025_Jan_25_1123,ConditionRich,2021.2.3,59.88751926133909,
159.75,160.0,41,0.0,Stimuli/Blank.png,0,0,0.0,0,71,71,71,,,,,,,,,,,,,159.79248359999974,0.04248359999974127,5,0.17075500000009924,200.7550729999998,200.7550729999998,200.7550729999998,200.7550729999998,200.7550729999998,200.7550729999998,200.7550729999998,200.7550729999998,200.7550729999998,200.7550729999998,001,P006,2025_Jan_25_1123,ConditionRich,2021.2.3,59.88751926133909,
160.0,163.75,39,0.75,Stimuli/P006/things_train_set_03s.jpg,0,0,0.0,0,72,72,72,,,,,,,,,,,,,160.02614519999997,0.026145199999973556,5,1.9365864999999758,200.9890988999996,200.9890988999996,200.9890988999996,200.9890988999996,200.9890988999996,200.9890988999996,200.9890988999996,200.9890988999996,200.9890988999996,200.9890988999996,001,P006,2025_Jan_25_1123,ConditionRich,2021.2.3,59.88751926133909,
163.75,164.0,41,0.0,Stimuli/Blank.png,0,0,0.0,0,73,73,73,,,,,,,,,,,,,163.77737739999975,0.027377399999750196,5,0.20052430000032473,204.7252426,204.7252426,204.7252426,204.7252426,204.7252426,204.7252426,204.7252426,204.7252426,204.7252426,204.7252426,001,P006,2025_Jan_25_1123,ConditionRich,2021.2.3,59.88751926133909,
164.0,167.75,34,0.75,Stimuli/P006/things_patty_03s.jpg,0,0,0.0,0,74,74,74,,,,,,,,,,,,,164.01100039999983,0.011000399999829824,5,1.9497581999999056,204.97600799999964,204.97600799999964,204.97600799999964,204.97600799999964,204.97600799999964,204.97600799999964,204.97600799999964,204.97600799999964,204.97600799999964,204.97600799999964,001,P006,2025_Jan_25_1123,ConditionRich,2021.2.3,59.88751926133909,
167.75,168.0,41,0.0,Stimuli/Blank.png,0,0,0.0,0,75,75,75,,,,,,,,,,,,,167.78070609999986,0.03070609999986118,5,0.19682730000022275,208.72878539999965,208.72878539999965,208.72878539999965,208.72878539999965,208.72878539999965,208.72878539999965,208.72878539999965,208.72878539999965,208.72878539999965,208.72878539999965,001,P006,2025_Jan_25_1123,ConditionRich,2021.2.3,59.88751926133909,
168.0,171.75,24,0.75,Stimuli/P006/things_crab_03s.jpg,0,0,0.0,0,76,76,76,,,,,,,,,,,,,168.01422719999982,0.014227199999822915,5,1.9468046000001777,208.97899589999997,208.97899589999997,208.97899589999997,208.97899589999997,208.97899589999997,208.97899589999997,208.97899589999997,208.97899589999997,208.97899589999997,208.97899589999997,001,P006,2025_Jan_25_1123,ConditionRich,2021.2.3,59.88751926133909,
171.75,172.0,41,0.0,Stimuli/Blank.png,0,0,0.0,0,77,77,77,,,,,,,,,,,,,171.7675153,0.017515300000013667,None,,212.71563279999964,212.71563279999964,212.71563279999964,212.71563279999964,212.71563279999964,212.71563279999964,212.71563279999964,212.71563279999964,212.71563279999964,212.71563279999964,001,P006,2025_Jan_25_1123,ConditionRich,2021.2.3,59.88751926133909,
172.0,175.75,18,0.75,Stimuli/P006/sun_bzqhpcsgzswozfhs.jpg,0,0,0.0,0,78,78,78,,,,,,,,,,,,,172.00176459999966,0.0017645999996602768,5,1.9598717999997461,212.9658489999997,212.9658489999997,212.9658489999997,212.9658489999997,212.9658489999997,212.9658489999997,212.9658489999997,212.9658489999997,212.9658489999997,212.9658489999997,001,P006,2025_Jan_25_1123,ConditionRich,2021.2.3,59.88751926133909,
175.75,176.0,41,0.0,Stimuli/Blank.png,0,0,0.0,0,79,79,79,,,,,,,,,,,,,175.770755,0.020755000000008295,None,,216.7191555999998,216.7191555999998,216.7191555999998,216.7191555999998,216.7191555999998,216.7191555999998,216.7191555999998,216.7191555999998,216.7191555999998,216.7191555999998,001,P006,2025_Jan_25_1123,ConditionRich,2021.2.3,59.88751926133909,
176.0,179.75,6,0.75,Stimuli/P006/sun_bbzkhzmxdjrfjpjz.jpg,0,0,0.0,0,80,80,80,,,,,,,,,,,,,176.00679469999977,0.006794699999773002,5,1.9395048000001225,216.98608579999973,216.98608579999973,216.98608579999973,216.98608579999973,216.98608579999973,216.98608579999973,216.98608579999973,216.98608579999973,216.98608579999973,216.98608579999973,001,P006,2025_Jan_25_1123,ConditionRich,2021.2.3,59.88751926133909,
179.75,180.0,41,0.0,Stimuli/Blank.png,0,0,0.0,0,81,81,81,,,,,,,,,,,,,179.7913908999999,0.041390899999896646,None,,220.73937989999968,220.73937989999968,220.73937989999968,220.73937989999968,220.73937989999968,220.73937989999968,220.73937989999968,220.73937989999968,220.73937989999968,220.73937989999968,001,P006,2025_Jan_25_1123,ConditionRich,2021.2.3,59.88751926133909,
180.0,196.0,0,0.0,Stimuli/Blank.png,1,8,8.75,0,82,82,82,,,,,,,,,,,,,180.00771039999972,0.00771039999972345,5,13.969438900000114,220.95623249999971,220.95623249999971,220.95623249999971,220.95623249999971,220.95623249999971,220.95623249999971,228.9466507999996,229.69730549999986,220.95623249999971,220.95623249999971,001,P006,2025_Jan_25_1123,ConditionRich,2021.2.3,59.88751926133909,
196.0,199.75,39,0.75,Stimuli/P006/things_train_set_03s.jpg,0,0,0.0,0,83,83,83,,,,,,,,,,,,,196.00580779999973,0.005807799999729468,5,1.9553624000000127,236.97035379999988,236.97035379999988,236.97035379999988,236.97035379999988,236.97035379999988,236.97035379999988,236.97035379999988,236.97035379999988,236.97035379999988,236.97035379999988,001,P006,2025_Jan_25_1123,ConditionRich,2021.2.3,59.88751926133909,
199.75,200.0,41,0.0,Stimuli/Blank.png,0,0,0.0,0,84,84,84,,,,,,,,,,,,,199.7753375999996,0.02533759999960239,None,,240.7236713999996,240.7236713999996,240.7236713999996,240.7236713999996,240.7236713999996,240.7236713999996,240.7236713999996,240.7236713999996,240.7236713999996,240.7236713999996,001,P006,2025_Jan_25_1123,ConditionRich,2021.2.3,59.88751926133909,
200.0,203.75,21,0.75,Stimuli/P006/things_accordion_03s.jpg,0,0,0.0,0,85,85,85,,,,,,,,,,,,,200.01067879999982,0.01067879999982324,5,1.9519775999997364,240.9738898999999,240.9738898999999,240.9738898999999,240.9738898999999,240.9738898999999,240.9738898999999,240.9738898999999,240.9738898999999,240.9738898999999,240.9738898999999,001,P006,2025_Jan_25_1123,ConditionRich,2021.2.3,59.88751926133909,
203.75,204.0,41,0.0,Stimuli/Blank.png,0,0,0.0,0,86,86,86,,,,,,,,,,,,,203.7790498999998,0.029049899999790796,5,0.1984836000001451,244.7272112999999,244.7272112999999,244.7272112999999,244.7272112999999,244.7272112999999,244.7272112999999,244.7272112999999,244.7272112999999,244.7272112999999,244.7272112999999,001,P006,2025_Jan_25_1123,ConditionRich,2021.2.3,59.88751926133909,
204.0,207.75,11,0.75,Stimuli/P006/sun_bjoocjyyhsmsbprr.jpg,1,1,1.75,0,87,87,87,,,,,,,,,,,,,204.01289959999986,0.012899599999855127,5,1.9482004000001325,244.97743519999995,244.97743519999995,244.97743519999995,244.97743519999995,244.97743519999995,244.97743519999995,245.94493939999984,246.69564759999957,244.97743519999995,244.97743519999995,001,P006,2025_Jan_25_1123,ConditionRich,2021.2.3,59.88751926133909,
207.75,208.0,41,0.0,Stimuli/Blank.png,0,0,0.0,0,88,88,88,,,,,,,,,,,,,207.76554599999963,0.015545999999631022,None,,248.7140462999996,248.7140462999996,248.7140462999996,248.7140462999996,248.7140462999996,248.7140462999996,248.7140462999996,248.7140462999996,248.7140462999996,248.7140462999996,001,P006,2025_Jan_25_1123,ConditionRich,2021.2.3,59.88751926133909,
208.0,211.75,19,0.75,Stimuli/P006/sun_czspalxthlkjwoat.jpg,0,0,0.0,0,89,89,89,,,,,,,,,,,,,208.00089039999966,0.000890399999661895,5,1.96157600000015,248.9642716999997,248.9642716999997,248.9642716999997,248.9642716999997,248.9642716999997,248.9642716999997,248.9642716999997,248.9642716999997,248.9642716999997,248.9642716999997,001,P006,2025_Jan_25_1123,ConditionRich,2021.2.3,59.88751926133909,
211.75,212.0,41,0.0,Stimuli/Blank.png,0,0,0.0,0,90,90,90,,,,,,,,,,,,,211.7714079999996,0.021407999999610183,5,0.19138079999993352,252.73426389999986,252.73426389999986,252.73426389999986,252.73426389999986,252.73426389999986,252.73426389999986,252.73426389999986,252.73426389999986,252.73426389999986,252.73426389999986,001,P006,2025_Jan_25_1123,ConditionRich,2021.2.3,59.88751926133909,
212.0,215.75,22,0.75,Stimuli/P006/things_baby_03s.jpg,0,0,0.0,0,91,91,91,,,,,,,,,,,,,212.0203449999999,0.020344999999906577,5,1.9413765000003878,252.98449789999995,252.98449789999995,252.98449789999995,252.98449789999995,252.98449789999995,252.98449789999995,252.98449789999995,252.98449789999995,252.98449789999995,252.98449789999995,001,P006,2025_Jan_25_1123,ConditionRich,2021.2.3,59.88751926133909,
215.75,216.0,41,0.0,Stimuli/Blank.png,0,0,0.0,0,92,92,92,,,,,,,,,,,,,215.77278289999958,0.022782899999583606,None,,256.72111229999973,256.72111229999973,256.72111229999973,256.72111229999973,256.72111229999973,256.72111229999973,256.72111229999973,256.72111229999973,256.72111229999973,256.72111229999973,001,P006,2025_Jan_25_1123,ConditionRich,2021.2.3,59.88751926133909,
216.0,219.75,5,0.75,Stimuli/P006/sun_axaqdcecfojvpvrl.jpg,1,3,3.75,0,93,93,93,,,,,,,,,,,,,216.00670489999993,0.006704899999931513,1,3.3734678999999232,256.9713529999999,256.9713529999999,256.9713529999999,256.9713529999999,256.9713529999999,256.9713529999999,259.94065939999973,260.69132649999983,256.9713529999999,256.9713529999999,001,P006,2025_Jan_25_1123,ConditionRich,2021.2.3,59.88751926133909,
219.75,220.0,41,0.0,Stimuli/Blank.png,0,0,0.0,0,94,94,94,,,,,,,,,,,,,219.77636219999977,0.026362199999766744,5,0.20096490000014455,260.7246447999996,260.7246447999996,260.7246447999996,260.7246447999996,260.7246447999996,260.7246447999996,260.7246447999996,260.7246447999996,260.7246447999996,260.7246447999996,001,P006,2025_Jan_25_1123,ConditionRich,2021.2.3,59.88751926133909,
220.0,223.75,40,0.75,Stimuli/P006/things_woman_03s.jpg,0,0,0.0,0,95,95,95,,,,,,,,,,,,,220.0122007,0.012200699999993958,5,1.950829800000065,260.9748708999996,260.9748708999996,260.9748708999996,260.9748708999996,260.9748708999996,260.9748708999996,260.9748708999996,260.9748708999996,260.9748708999996,260.9748708999996,001,P006,2025_Jan_25_1123,ConditionRich,2021.2.3,59.88751926133909,
223.75,224.0,41,0.0,Stimuli/Blank.png,0,0,0.0,0,96,96,96,,,,,,,,,,,,,223.78133779999962,0.031337799999619165,5,0.18072429999983797,264.7448786,264.7448786,264.7448786,264.7448786,264.7448786,264.7448786,264.7448786,264.7448786,264.7448786,264.7448786,001,P006,2025_Jan_25_1123,ConditionRich,2021.2.3,59.88751926133909,
224.0,227.75,37,0.75,Stimuli/P006/things_showerhead_03s.jpg,1,0,0.75,0,97,97,97,,,,,,,,,,,,,224.0302468,0.03024679999998625,5,1.9471411999998054,264.97840559999986,264.97840559999986,264.97840559999986,264.97840559999986,264.97840559999986,264.97840559999986,264.97840559999986,265.71242649999976,264.97840559999986,264.97840559999986,001,P006,2025_Jan_25_1123,ConditionRich,2021.2.3,59.88751926133909,
227.75,228.0,41,0.0,Stimuli/Blank.png,0,0,0.0,0,98,98,98,,,,,,,,,,,,,227.75047719999975,0.00047719999975015526,None,,268.6983518999996,268.6983518999996,268.6983518999996,268.6983518999996,268.6983518999996,268.6983518999996,268.6983518999996,268.6983518999996,268.6983518999996,268.6983518999996,001,P006,2025_Jan_25_1123,ConditionRich,2021.2.3,59.88751926133909,
228.0,231.75,25,0.75,Stimuli/P006/things_dog_03s.jpg,0,0,0.0,0,99,99,99,,,,,,,,,,,,,228.00074929999982,0.0007492999998248706,5,1.9770650000000387,268.94857669999965,268.94857669999965,268.94857669999965,268.94857669999965,268.94857669999965,268.94857669999965,268.94857669999965,268.94857669999965,268.94857669999965,268.94857669999965,001,P006,2025_Jan_25_1123,ConditionRich,2021.2.3,59.88751926133909,
231.75,232.0,41,0.0,Stimuli/Blank.png,0,0,0.0,0,100,100,100,,,,,,,,,,,,,231.7541715999996,0.004171599999608588,None,,272.7018743999997,272.7018743999997,272.7018743999997,272.7018743999997,272.7018743999997,272.7018743999997,272.7018743999997,272.7018743999997,272.7018743999997,272.7018743999997,001,P006,2025_Jan_25_1123,ConditionRich,2021.2.3,59.88751926133909,
232.0,235.75,7,0.75,Stimuli/P006/sun_bdmdlkpsznknrcqi.jpg,0,0,0.0,0,101,101,101,,,,,,,,,,,,,232.00601609999967,0.006016099999669677,5,1.9570757999999842,272.9687878,272.9687878,272.9687878,272.9687878,272.9687878,272.9687878,272.9687878,272.9687878,272.9687878,272.9687878,001,P006,2025_Jan_25_1123,ConditionRich,2021.2.3,59.88751926133909,
235.75,236.0,41,0.0,Stimuli/Blank.png,0,0,0.0,0,102,102,102,,,,,,,,,,,,,235.77454579999994,0.024545799999941664,None,,276.72209589999966,276.72209589999966,276.72209589999966,276.72209589999966,276.72209589999966,276.72209589999966,276.72209589999966,276.72209589999966,276.72209589999966,276.72209589999966,001,P006,2025_Jan_25_1123,ConditionRich,2021.2.3,59.88751926133909,
236.0,239.75,35,0.75,Stimuli/P006/things_pig_03s.jpg,0,0,0.0,0,103,103,103,,,,,,,,,,,,,236.00729,0.007290000000011787,5,1.9699931000000106,276.9556352999998,276.9556352999998,276.9556352999998,276.9556352999998,276.9556352999998,276.9556352999998,276.9556352999998,276.9556352999998,276.9556352999998,276.9556352999998,001,P006,2025_Jan_25_1123,ConditionRich,2021.2.3,59.88751926133909,
239.75,240.0,41,0.0,Stimuli/Blank.png,0,0,0.0,0,104,104,104,,,,,,,,,,,,,239.76028150000002,0.01028150000001915,5,0.2168087000000014,280.7089453999997,280.7089453999997,280.7089453999997,280.7089453999997,280.7089453999997,280.7089453999997,280.7089453999997,280.7089453999997,280.7089453999997,280.7089453999997,001,P006,2025_Jan_25_1123,ConditionRich,2021.2.3,59.88751926133909,
240.0,243.75,17,0.75,Stimuli/P006/sun_bwsictslfxygpqbp.jpg,0,0,0.0,0,105,105,105,,,,,,,,,,,,,240.0112081999996,0.011208199999600765,5,1.9664974000002076,280.95917519999966,280.95917519999966,280.95917519999966,280.95917519999966,280.95917519999966,280.95917519999966,280.95917519999966,280.95917519999966,280.95917519999966,280.95917519999966,001,P006,2025_Jan_25_1123,ConditionRich,2021.2.3,59.88751926133909,
243.75,244.0,41,0.0,Stimuli/Blank.png,0,0,0.0,0,106,106,106,,,,,,,,,,,,,243.7659933,0.015993299999990995,5,0.1963531999999759,284.72917289999987,284.72917289999987,284.72917289999987,284.72917289999987,284.72917289999987,284.72917289999987,284.72917289999987,284.72917289999987,284.72917289999987,284.72917289999987,001,P006,2025_Jan_25_1123,ConditionRich,2021.2.3,59.88751926133909,
244.0,247.75,33,0.75,Stimuli/P006/things_man_03s.jpg,1,0,0.75,0,107,107,107,,,,,,,,,,,,,244.01488440000003,0.014884400000028108,5,1.9461907999998402,284.9793775999997,284.9793775999997,284.9793775999997,284.9793775999997,284.9793775999997,284.9793775999997,284.9793775999997,285.6966666999997,284.9793775999997,284.9793775999997,001,P006,2025_Jan_25_1123,ConditionRich,2021.2.3,59.88751926133909,
247.75,248.0,41,0.0,Stimuli/Blank.png,0,0,0.0,0,108,108,108,,,,,,,,,,,,,247.76724999999988,0.01724999999987631,None,,288.7160123999997,288.7160123999997,288.7160123999997,288.7160123999997,288.7160123999997,288.7160123999997,288.7160123999997,288.7160123999997,288.7160123999997,288.7160123999997,001,P006,2025_Jan_25_1123,ConditionRich,2021.2.3,59.88751926133909,
248.0,251.75,23,0.75,Stimuli/P006/things_beetle_03s.jpg,0,0,0.0,0,109,109,109,,,,,,,,,,,,,248.00217459999976,0.0021745999997619947,5,1.9759664999996858,288.9495474999999,288.9495474999999,288.9495474999999,288.9495474999999,288.9495474999999,288.9495474999999,288.9495474999999,288.9495474999999,288.9495474999999,288.9495474999999,001,P006,2025_Jan_25_1123,ConditionRich,2021.2.3,59.88751926133909,
251.75,252.0,41,0.0,Stimuli/Blank.png,0,0,0.0,0,110,110,110,,,,,,,,,,,,,251.75609169999962,0.00609169999961523,5,0.20728749999989304,292.71955909999997,292.71955909999997,292.71955909999997,292.71955909999997,292.71955909999997,292.71955909999997,292.71955909999997,292.71955909999997,292.71955909999997,292.71955909999997,001,P006,2025_Jan_25_1123,ConditionRich,2021.2.3,59.88751926133909,
252.0,255.75,16,0.75,Stimuli/P006/sun_bwentnobehmvaxkp.jpg,0,0,0.0,0,111,111,111,,,,,,,,,,,,,252.02165449999984,0.021654499999840482,5,1.9560081999998147,292.96976129999985,292.96976129999985,292.96976129999985,292.96976129999985,292.96976129999985,292.96976129999985,292.96976129999985,292.96976129999985,292.96976129999985,292.96976129999985,001,P006,2025_Jan_25_1123,ConditionRich,2021.2.3,59.88751926133909,
255.75,256.0,41,0.0,Stimuli/Blank.png,0,0,0.0,0,112,112,112,,,,,,,,,,,,,255.75825299999997,0.00825299999996787,None,,296.7064698999998,296.7064698999998,296.7064698999998,296.7064698999998,296.7064698999998,296.7064698999998,296.7064698999998,296.7064698999998,296.7064698999998,296.7064698999998,001,P006,2025_Jan_25_1123,ConditionRich,2021.2.3,59.88751926133909,
256.0,259.75,36,0.75,Stimuli/P006/things_pony_03s.jpg,0,0,0.0,0,113,113,113,,,,,,,,,,,,,256.00841519999994,0.008415199999944889,5,1.9700377999997727,296.95661299999983,296.95661299999983,296.95661299999983,296.95661299999983,296.95661299999983,296.95661299999983,296.95661299999983,296.95661299999983,296.95661299999983,296.95661299999983,001,P006,2025_Jan_25_1123,ConditionRich,2021.2.3,59.88751926133909,
259.75,260.0,41,0.0,Stimuli/Blank.png,0,0,0.0,0,114,114,114,,,,,,,,,,,,,259.76191289999997,0.01191289999997025,5,0.21693629999981567,300.70993529999987,300.70993529999987,300.70993529999987,300.70993529999987,300.70993529999987,300.70993529999987,300.70993529999987,300.70993529999987,300.70993529999987,300.70993529999987,001,P006,2025_Jan_25_1123,ConditionRich,2021.2.3,59.88751926133909,
260.0,263.75,31,0.75,Stimuli/P006/things_jukebox_03n.jpg,0,0,0.0,0,115,115,115,,,,,,,,,,,,,260.0123434999996,0.012343499999587948,5,1.966349999999693,300.9601527,300.9601527,300.9601527,300.9601527,300.9601527,300.9601527,300.9601527,300.9601527,300.9601527,300.9601527,001,P006,2025_Jan_25_1123,ConditionRich,2021.2.3,59.88751926133909,
263.75,264.0,41,0.0,Stimuli/Blank.png,0,0,0.0,0,116,116,116,,,,,,,,,,,,,263.76529359999995,0.015293599999949947,5,0.2132259999998496,304.7134566999998,304.7134566999998,304.7134566999998,304.7134566999998,304.7134566999998,304.7134566999998,304.7134566999998,304.7134566999998,304.7134566999998,304.7134566999998,001,P006,2025_Jan_25_1123,ConditionRich,2021.2.3,59.88751926133909,
264.0,267.75,29,0.75,Stimuli/P006/things_guillotine_03s.jpg,0,0,0.0,0,117,117,117,,,,,,,,,,,,,264.01623029999973,0.01623029999973369,5,1.9628989000002548,304.9636820999999,304.9636820999999,304.9636820999999,304.9636820999999,304.9636820999999,304.9636820999999,304.9636820999999,304.9636820999999,304.9636820999999,304.9636820999999,001,P006,2025_Jan_25_1123,ConditionRich,2021.2.3,59.88751926133909,
267.75,268.0,41,0.0,Stimuli/Blank.png,0,0,0.0,0,118,118,118,,,,,,,,,,,,,267.7522859999999,0.0022859999999127467,None,,308.7003070999999,308.7003070999999,308.7003070999999,308.7003070999999,308.7003070999999,308.7003070999999,308.7003070999999,308.7003070999999,308.7003070999999,308.7003070999999,001,P006,2025_Jan_25_1123,ConditionRich,2021.2.3,59.88751926133909,
268.0,271.75,12,0.75,Stimuli/P006/sun_bodyuiqwqpqzwfoz.jpg,0,0,0.0,0,119,119,119,,,,,,,,,,,,,268.00253619999967,0.0025361999996675877,5,1.9764032000002771,308.9505274999997,308.9505274999997,308.9505274999997,308.9505274999997,308.9505274999997,308.9505274999997,308.9505274999997,308.9505274999997,308.9505274999997,308.9505274999997,001,P006,2025_Jan_25_1123,ConditionRich,2021.2.3,59.88751926133909,
271.75,272.0,41,0.0,Stimuli/Blank.png,0,0,0.0,0,120,120,120,,,,,,,,,,,,,271.7554137999996,0.005413799999587354,None,,312.70383509999965,312.70383509999965,312.70383509999965,312.70383509999965,312.70383509999965,312.70383509999965,312.70383509999965,312.70383509999965,312.70383509999965,312.70383509999965,001,P006,2025_Jan_25_1123,ConditionRich,2021.2.3,59.88751926133909,
272.0,275.75,20,0.75,Stimuli/P006/sun_dvxuxzytfdbjyzit.jpg,1,2,2.75,0,121,121,121,,,,,,,,,,,,,272.0063184999999,0.006318499999906635,1,2.4665737000000263,312.9540698999999,312.9540698999999,312.9540698999999,312.9540698999999,312.9540698999999,312.9540698999999,314.9391413999997,315.68980439999996,312.9540698999999,312.9540698999999,001,P006,2025_Jan_25_1123,ConditionRich,2021.2.3,59.88751926133909,
275.75,276.0,41,0.0,Stimuli/Blank.png,0,0,0.0,0,122,122,122,,,,,,,,,,,,,275.7584787999999,0.008478799999920739,None,,316.7073742999996,316.7073742999996,316.7073742999996,316.7073742999996,316.7073742999996,316.7073742999996,316.7073742999996,316.7073742999996,316.7073742999996,316.7073742999996,001,P006,2025_Jan_25_1123,ConditionRich,2021.2.3,59.88751926133909,
276.0,292.0,0,0.0,Stimuli/Blank.png,1,8,8.75,0,123,123,123,,,,,,,,,,,,,276.0107618999996,0.010761899999579327,5,15.952286700000059,316.97429859999966,316.97429859999966,316.97429859999966,316.97429859999966,316.97429859999966,316.97429859999966,324.9479922999999,325.6986247,316.97429859999966,316.97429859999966,001,P006,2025_Jan_25_1123,ConditionRich,2021.2.3,59.88751926133909,
292.0,295.75,26,0.75,Stimuli/P006/things_face_03s.jpg,1,3,3.75,0,124,124,124,,,,,,,,,,,,,292.0230738999999,0.023073899999872083,1,3.4109630999996625,332.97171869999966,332.97171869999966,332.97171869999966,332.97171869999966,332.97171869999966,332.97171869999966,335.9577144,None,332.97171869999966,332.97171869999966,001,P006,2025_Jan_25_1123,ConditionRich,2021.2.3,59.88751926133909,
295.75,296.0,41,0.0,Stimuli/Blank.png,0,0,0.0,0,125,125,125,,,,,,,,,,,,,295.76037469999983,0.010374699999829318,5,0.21824710000009873,336.7083441,336.7083441,336.7083441,336.7083441,336.7083441,336.7083441,336.7083441,336.7083441,336.7083441,336.7083441,001,P006,2025_Jan_25_1123,ConditionRich,2021.2.3,59.88751926133909,
296.0,299.75,27,0.75,Stimuli/P006/things_first-aid_kit_03s.jpg,0,0,0.0,0,126,126,126,,,,,,,,,,,,,296.0105639999997,0.01056399999970381,5,1.9680499999999483,336.9585715999997,336.9585715999997,336.9585715999997,336.9585715999997,336.9585715999997,336.9585715999997,336.9585715999997,336.9585715999997,336.9585715999997,336.9585715999997,001,P006,2025_Jan_25_1123,ConditionRich,2021.2.3,59.88751926133909,
299.75,300.0,41,0.0,Stimuli/Blank.png,0,0,0.0,0,127,127,127,,,,,,,,,,,,,299.7638115999998,0.013811599999826285,5,0.2146069999998872,340.71189619999996,340.71189619999996,340.71189619999996,340.71189619999996,340.71189619999996,340.71189619999996,340.71189619999996,340.71189619999996,340.71189619999996,340.71189619999996,001,P006,2025_Jan_25_1123,ConditionRich,2021.2.3,59.88751926133909,
300.0,303.75,18,0.75,Stimuli/P006/sun_bzqhpcsgzswozfhs.jpg,0,0,0.0,0,128,128,128,,,,,,,,,,,,,300.01338989999977,0.013389899999765476,5,1.9645626000001357,340.96210659999997,340.96210659999997,340.96210659999997,340.96210659999997,340.96210659999997,340.96210659999997,340.96210659999997,340.96210659999997,340.96210659999997,340.96210659999997,001,P006,2025_Jan_25_1123,ConditionRich,2021.2.3,59.88751926133909,
303.75,304.0,41,0.0,Stimuli/Blank.png,0,0,0.0,0,129,129,129,,,,,,,,,,,,,303.7503005999997,0.0003005999997185427,None,,344.69873279999956,344.69873279999956,344.69873279999956,344.69873279999956,344.69873279999956,344.69873279999956,344.69873279999956,344.69873279999956,344.69873279999956,344.69873279999956,001,P006,2025_Jan_25_1123,ConditionRich,2021.2.3,59.88751926133909,
304.0,307.75,24,0.75,Stimuli/P006/things_crab_03s.jpg,0,0,0.0,0,130,130,130,,,,,,,,,,,,,304.0010416,0.0010416000000077474,5,1.9775397000003068,344.94896199999994,344.94896199999994,344.94896199999994,344.94896199999994,344.94896199999994,344.94896199999994,344.94896199999994,344.94896199999994,344.94896199999994,344.94896199999994,001,P006,2025_Jan_25_1123,ConditionRich,2021.2.3,59.88751926133909,
307.75,308.0,41,0.0,Stimuli/Blank.png,0,0,0.0,0,131,131,131,,,,,,,,,,,,,307.7563997999996,0.006399799999599054,5,0.20781039999974382,348.71895159999985,348.71895159999985,348.71895159999985,348.71895159999985,348.71895159999985,348.71895159999985,348.71895159999985,348.71895159999985,348.71895159999985,348.71895159999985,001,P006,2025_Jan_25_1123,ConditionRich,2021.2.3,59.88751926133909,
308.0,311.75,13,0.75,Stimuli/P006/sun_bruphbrfsbxowtlq.jpg,0,0,0.0,0,132,132,132,,,,,,,,,,,,,308.0218702999996,0.021870299999591225,5,1.957593299999644,348.96917479999956,348.96917479999956,348.96917479999956,348.96917479999956,348.96917479999956,348.96917479999956,348.96917479999956,348.96917479999956,348.96917479999956,348.96917479999956,001,P006,2025_Jan_25_1123,ConditionRich,2021.2.3,59.88751926133909,
311.75,312.0,41,0.0,Stimuli/Blank.png,0,0,0.0,0,133,133,133,,,,,,,,,,,,,311.7573152,0.007315199999993638,None,,352.70581029999994,352.70581029999994,352.70581029999994,352.70581029999994,352.70581029999994,352.70581029999994,352.70581029999994,352.70581029999994,352.70581029999994,352.70581029999994,001,P006,2025_Jan_25_1123,ConditionRich,2021.2.3,59.88751926133909,
312.0,315.75,30,0.75,Stimuli/P006/things_hood_03s.jpg,1,3,3.75,0,134,134,134,,,,,,,,,,,,,312.0073975999999,0.007397599999876547,1,3.3915093000000525,352.95601609999994,352.95601609999994,352.95601609999994,352.95601609999994,352.95601609999994,352.95601609999994,355.94197749999967,356.6926335999997,352.95601609999994,352.95601609999994,001,P006,2025_Jan_25_1123,ConditionRich,2021.2.3,59.88751926133909,
315.75,316.0,41,0.0,Stimuli/Blank.png,0,0,0.0,0,135,135,135,,,,,,,,,,,,,315.7614219999996,0.011421999999583932,5,0.2172777999999198,356.7093354999997,356.7093354999997,356.7093354999997,356.7093354999997,356.7093354999997,356.7093354999997,356.7093354999997,356.7093354999997,356.7093354999997,356.7093354999997,001,P006,2025_Jan_25_1123,ConditionRich,2021.2.3,59.88751926133909,
316.0,319.75,28,0.75,Stimuli/P006/things_girl_03s.jpg,0,0,0.0,0,136,136,136,,,,,,,,,,,,,316.01130269999976,0.01130269999976008,5,1.967027700000017,356.9595531,356.9595531,356.9595531,356.9595531,356.9595531,356.9595531,356.9595531,356.9595531,356.9595531,356.9595531,001,P006,2025_Jan_25_1123,ConditionRich,2021.2.3,59.88751926133909,
319.75,320.0,41,0.0,Stimuli/Blank.png,0,0,0.0,0,137,137,137,,,,,,,,,,,,,319.7669314999998,0.016931499999827793,5,0.1969787000002725,360.7295565999998,360.7295565999998,360.7295565999998,360.7295565999998,360.7295565999998,360.7295565999998,360.7295565999998,360.7295565999998,360.7295565999998,360.7295565999998,001,P006,2025_Jan_25_1123,ConditionRich,2021.2.3,59.88751926133909,
320.0,323.75,38,0.75,Stimuli/P006/things_sledgehammer_03s.jpg,0,0,0.0,0,138,138,138,,,,,,,,,,,,,320.01517769999964,0.015177699999640026,5,1.9635582000000795,360.96308089999957,360.96308089999957,360.96308089999957,360.96308089999957,360.96308089999957,360.96308089999957,360.96308089999957,360.96308089999957,360.96308089999957,360.96308089999957,001,P006,2025_Jan_25_1123,ConditionRich,2021.2.3,59.88751926133909,
323.75,324.0,41,0.0,Stimuli/Blank.png,0,0,0.0,0,139,139,139,,,,,,,,,,,,,323.7515298999997,0.0015298999996957718,None,,364.6997274999999,364.6997274999999,364.6997274999999,364.6997274999999,364.6997274999999,364.6997274999999,364.6997274999999,364.6997274999999,364.6997274999999,364.6997274999999,001,P006,2025_Jan_25_1123,ConditionRich,2021.2.3,59.88751926133909,
324.0,327.75,2,0.75,Stimuli/P006/sun_ahmycohdkioefoxs.jpg,0,0,0.0,0,140,140,140,,,,,,,,,,,,,324.0012491999996,0.001249199999620032,5,1.9769251999996413,364.94993769999974,364.94993769999974,364.94993769999974,364.94993769999974,364.94993769999974,364.94993769999974,364.94993769999974,364.94993769999974,364.94993769999974,364.94993769999974,001,P006,2025_Jan_25_1123,ConditionRich,2021.2.3,59.88751926133909,
327.75,328.0,41,0.0,Stimuli/Blank.png,0,0,0.0,0,141,141,141,,,,,,,,,,,,,327.75506889999997,0.00506889999996929,None,,368.7032428999996,368.7032428999996,368.7032428999996,368.7032428999996,368.7032428999996,368.7032428999996,368.7032428999996,368.7032428999996,368.7032428999996,368.7032428999996,001,P006,2025_Jan_25_1123,ConditionRich,2021.2.3,59.88751926133909,
328.0,331.75,34,0.75,Stimuli/P006/things_patty_03s.jpg,0,0,0.0,0,142,142,142,,,,,,,,,,,,,328.0055714,0.005571400000007998,5,1.9730051000001367,368.9534566999996,368.9534566999996,368.9534566999996,368.9534566999996,368.9534566999996,368.9534566999996,368.9534566999996,368.9534566999996,368.9534566999996,368.9534566999996,001,P006,2025_Jan_25_1123,ConditionRich,2021.2.3,59.88751926133909,
331.75,332.0,41,0.0,Stimuli/Blank.png,0,0,0.0,0,143,143,143,,,,,,,,,,,,,331.7581132999999,0.0081132999998772,None,,372.70681179999974,372.70681179999974,372.70681179999974,372.70681179999974,372.70681179999974,372.70681179999974,372.70681179999974,372.70681179999974,372.70681179999974,372.70681179999974,001,P006,2025_Jan_25_1123,ConditionRich,2021.2.3,59.88751926133909,
332.0,335.75,14,0.75,Stimuli/P006/sun_bsirencncgxteejx.jpg,0,0,0.0,0,144,144,144,,,,,,,,,,,,,332.00840359999984,0.008403599999837752,None,,372.9569929999998,372.9569929999998,372.9569929999998,372.9569929999998,372.9569929999998,372.9569929999998,372.9569929999998,372.9569929999998,372.9569929999998,372.9569929999998,001,P006,2025_Jan_25_1123,ConditionRich,2021.2.3,59.88751926133909,
335.75,336.0,41,0.0,Stimuli/Blank.png,0,0,0.0,0,145,145,145,,,,,,,,,,,,,335.7614214,0.011421400000017456,5,0.21628539999983332,376.71030649999966,376.71030649999966,376.71030649999966,376.71030649999966,376.71030649999966,376.71030649999966,376.71030649999966,376.71030649999966,376.71030649999966,376.71030649999966,001,P006,2025_Jan_25_1123,ConditionRich,2021.2.3,59.88751926133909,
336.0,339.75,32,0.75,Stimuli/P006/things_jumpsuit_03s.jpg,1,0,0.75,0,146,146,146,,,,,,,,,,,,,336.01270209999984,0.012702099999842176,5,1.965951700000005,376.9605357999999,376.9605357999999,376.9605357999999,376.9605357999999,376.9605357999999,376.9605357999999,376.9605357999999,377.6945020999997,376.9605357999999,376.9605357999999,001,P006,2025_Jan_25_1123,ConditionRich,2021.2.3,59.88751926133909,
339.75,340.0,41,0.0,Stimuli/Blank.png,0,0,0.0,0,147,147,147,,,,,,,,,,,,,339.7511880999996,0.001188099999581027,5,0.21258399999987887,380.71385999999984,380.71385999999984,380.71385999999984,380.71385999999984,380.71385999999984,380.71385999999984,380.71385999999984,380.71385999999984,380.71385999999984,380.71385999999984,001,P006,2025_Jan_25_1123,ConditionRich,2021.2.3,59.88751926133909,
340.0,343.75,1,0.75,Stimuli/P006/sun_adyhbxohydkpecty.jpg,1,1,1.75,0,148,148,148,,,,,,,,,,,,,340.01540129999967,0.015401299999666662,5,1.9625710000000254,380.9640624999997,380.9640624999997,380.9640624999997,380.9640624999997,380.9640624999997,380.9640624999997,381.9482584999996,382.6989169999997,380.9640624999997,380.9640624999997,001,P006,2025_Jan_25_1123,ConditionRich,2021.2.3,59.88751926133909,
343.75,344.0,41,0.0,Stimuli/Blank.png,0,0,0.0,0,149,149,149,,,,,,,,,,,,,343.75213989999975,0.0021398999997472856,None,,384.7007258999997,384.7007258999997,384.7007258999997,384.7007258999997,384.7007258999997,384.7007258999997,384.7007258999997,384.7007258999997,384.7007258999997,384.7007258999997,001,P006,2025_Jan_25_1123,ConditionRich,2021.2.3,59.88751926133909,
344.0,347.75,9,0.75,Stimuli/P006/sun_bfcmdrojsffdttzu.jpg,0,0,0.0,0,150,150,150,,,,,,,,,,,,,344.00237579999975,0.0023757999997542356,5,1.9758207999998376,384.95091239999965,384.95091239999965,384.95091239999965,384.95091239999965,384.95091239999965,384.95091239999965,384.95091239999965,384.95091239999965,384.95091239999965,384.95091239999965,001,P006,2025_Jan_25_1123,ConditionRich,2021.2.3,59.88751926133909,
347.75,348.0,41,0.0,Stimuli/Blank.png,0,0,0.0,0,151,151,151,,,,,,,,,,,,,347.75537229999964,0.005372299999635288,None,,388.70422629999985,388.70422629999985,388.70422629999985,388.70422629999985,388.70422629999985,388.70422629999985,388.70422629999985,388.70422629999985,388.70422629999985,388.70422629999985,001,P006,2025_Jan_25_1123,ConditionRich,2021.2.3,59.88751926133909,
348.0,351.75,10,0.75,Stimuli/P006/sun_bgnxbfhmwhliypvg.jpg,0,0,0.0,0,152,152,152,,,,,,,,,,,,,348.00627659999964,0.006276599999637256,5,1.9553052999999636,388.9711451999997,388.9711451999997,388.9711451999997,388.9711451999997,388.9711451999997,388.9711451999997,388.9711451999997,388.9711451999997,388.9711451999997,388.9711451999997,001,P006,2025_Jan_25_1123,ConditionRich,2021.2.3,59.88751926133909,
351.75,352.0,41,0.0,Stimuli/Blank.png,0,0,0.0,0,153,153,153,,,,,,,,,,,,,351.7763,0.026299999999991996,None,,392.7244314999998,392.7244314999998,392.7244314999998,392.7244314999998,392.7244314999998,392.7244314999998,392.7244314999998,392.7244314999998,392.7244314999998,392.7244314999998,001,P006,2025_Jan_25_1123,ConditionRich,2021.2.3,59.88751926133909,
352.0,355.75,15,0.75,Stimuli/P006/sun_btkzuhaxqlacvmsv.jpg,1,2,2.75,0,154,154,154,,,,,,,,,,,,,352.0114567999999,0.011456799999905343,1,2.4429551999996875,392.97465939999984,392.97465939999984,392.97465939999984,392.97465939999984,392.97465939999984,392.97465939999984,394.9597458999997,395.7104423999999,392.97465939999984,392.97465939999984,001,P006,2025_Jan_25_1123,ConditionRich,2021.2.3,59.88751926133909,
355.75,356.0,41,0.0,Stimuli/Blank.png,0,0,0.0,0,155,155,155,,,,,,,,,,,,,355.7800616999998,0.03006169999980557,5,0.19850150000002031,396.72797569999966,396.72797569999966,396.72797569999966,396.72797569999966,396.72797569999966,396.72797569999966,396.72797569999966,396.72797569999966,396.72797569999966,396.72797569999966,001,P006,2025_Jan_25_1123,ConditionRich,2021.2.3,59.88751926133909,
356.0,359.75,6,0.75,Stimuli/P006/sun_bbzkhzmxdjrfjpjz.jpg,0,0,0.0,0,156,156,156,,,,,,,,,,,,,356.0128802999998,0.0128802999997788,5,1.965092200000072,396.96152429999984,396.96152429999984,396.96152429999984,396.96152429999984,396.96152429999984,396.96152429999984,396.96152429999984,396.96152429999984,396.96152429999984,396.96152429999984,001,P006,2025_Jan_25_1123,ConditionRich,2021.2.3,59.88751926133909,
359.75,360.0,41,0.0,Stimuli/Blank.png,0,0,0.0,0,157,157,157,,,,,,,,,,,,,359.75044089999983,0.00044089999983043526,None,,400.69814929999984,400.69814929999984,400.69814929999984,400.69814929999984,400.69814929999984,400.69814929999984,400.69814929999984,400.69814929999984,400.69814929999984,400.69814929999984,001,P006,2025_Jan_25_1123,ConditionRich,2021.2.3,59.88751926133909,
360.0,363.75,4,0.75,Stimuli/P006/sun_auwghripdoxzluuk.jpg,0,0,0.0,0,158,158,158,,,,,,,,,,,,,360.00014839999994,0.00014839999994364916,5,1.9781503999997767,400.9483581999998,400.9483581999998,400.9483581999998,400.9483581999998,400.9483581999998,400.9483581999998,400.9483581999998,400.9483581999998,400.9483581999998,400.9483581999998,001,P006,2025_Jan_25_1123,ConditionRich,2021.2.3,59.88751926133909,
363.75,364.0,41,0.0,Stimuli/Blank.png,0,0,0.0,0,159,159,159,,,,,,,,,,,,,363.7530789999996,0.0030789999996159167,None,,404.7017126999999,404.7017126999999,404.7017126999999,404.7017126999999,404.7017126999999,404.7017126999999,404.7017126999999,404.7017126999999,404.7017126999999,404.7017126999999,001,P006,2025_Jan_25_1123,ConditionRich,2021.2.3,59.88751926133909,
364.0,367.75,8,0.75,Stimuli/P006/sun_bekkgqphzbclwpvb.jpg,0,0,0.0,0,160,160,160,,,,,,,,,,,,,364.0057330999998,0.0057330999998157495,5,1.9578374999996413,404.968578,404.968578,404.968578,404.968578,404.968578,404.968578,404.968578,404.968578,404.968578,404.968578,001,P006,2025_Jan_25_1123,ConditionRich,2021.2.3,59.88751926133909,
367.75,368.0,41,0.0,Stimuli/Blank.png,0,0,0.0,0,161,161,161,,,,,,,,,,,,,367.7733804999998,0.02338049999980285,None,,408.72188609999967,408.72188609999967,408.72188609999967,408.72188609999967,408.72188609999967,408.72188609999967,408.72188609999967,408.72188609999967,408.72188609999967,408.72188609999967,001,P006,2025_Jan_25_1123,ConditionRich,2021.2.3,59.88751926133909,
368.0,371.75,3,0.75,Stimuli/P006/sun_asyidwmnobuawmax.jpg,0,0,0.0,0,162,162,162,,,,,,,,,,,,,368.00685929999963,0.00685929999963264,5,1.9709745999998631,408.95546969999987,408.95546969999987,408.95546969999987,408.95546969999987,408.95546969999987,408.95546969999987,408.95546969999987,408.95546969999987,408.95546969999987,408.95546969999987,001,P006,2025_Jan_25_1123,ConditionRich,2021.2.3,59.88751926133909,
371.75,372.0,41,0.0,Stimuli/Blank.png,0,0,0.0,0,163,163,163,,,,,,,,,,,,,371.76130269999976,0.01130269999976008,5,0.217842500000188,412.7087469999997,412.7087469999997,412.7087469999997,412.7087469999997,412.7087469999997,412.7087469999997,412.7087469999997,412.7087469999997,412.7087469999997,412.7087469999997,001,P006,2025_Jan_25_1123,ConditionRich,2021.2.3,59.88751926133909,
372.0,388.0,0,0.0,Stimuli/Blank.png,1,8,8.75,0,164,164,164,,,,,,,,,,,,,372.01089299999967,0.010892999999668973,5,13.967744199999743,412.95895659999996,412.95895659999996,412.95895659999996,412.95895659999996,412.95895659999996,412.95895659999996,420.94934569999987,421.6999920999997,412.95895659999996,412.95895659999996,001,P006,2025_Jan_25_1123,ConditionRich,2021.2.3,59.88751926133909,
